,Position_X,Position_Y,Position_Z,Velocity_X,Velocity_Y,Velocity_Z,Acceleration_X,Acceleration_Y,Acceleration_Z,Quaterion_0,Quaterion_1,Quaterion_2,Quaterion_3
51,0.0,0.0,0.0,0.0,0.0,0.0,-0.8349,-0.3963,-0.3576,0.5906,-0.3243,0.7380,0.0379
52,0.0,0.0,0.0,0.0,0.0,0.0,-0.8345,-0.3992,-0.3582,0.5901,-0.3246,0.7382,0.0386
53,0.0,0.0,0.0,0.0,0.0,0.0,-0.8356,-0.4016,-0.3616,0.5896,-0.3246,0.7386,0.0386
54,0.0,0.0,0.0,0.0,0.0,0.0,-0.8371,-0.4055,-0.3621,0.5892,-0.3247,0.7389,0.0387
55,0.0,0.0,0.0,0.0,0.0,0.0,-0.8363,-0.4098,-0.3646,0.5888,-0.3251,0.7390,0.0388
56,0.0,0.0,0.0,0.0,0.0,0.0,-0.8376,-0.4316,-0.3640,0.5888,-0.3257,0.7388,0.0388
57,0.0,0.0,0.0,0.0,0.0,0.0,-0.8317,-0.4544,-0.3603,0.5893,-0.3266,0.7380,0.0383
58,0.0,0.0,0.0,0.0,0.0,0.0,-0.8340,-0.4190,-0.3624,0.5897,-0.3266,0.7377,0.0375
59,0.0,0.0,0.0,0.0,0.0,0.0,-0.8245,-0.4256,-0.3633,0.5900,-0.3265,0.7375,0.0368
60,0.0,0.0,0.0,0.0,0.0,0.0,-0.8281,-0.4121,-0.3654,0.5903,-0.3260,0.7376,0.0359
61,0.0,0.0,0.0,0.0,0.0,0.0,-0.8319,-0.4088,-0.3633,0.5903,-0.3254,0.7378,0.0350
62,0.0,0.0,0.0,0.0,0.0,0.0,-0.8332,-0.4084,-0.3594,0.5905,-0.3248,0.7380,0.0347
63,0.0,0.0,0.0,0.0,0.0,0.0,-0.8344,-0.3998,-0.3538,0.5905,-0.3237,0.7385,0.0340
64,0.0,0.0,0.0,0.0,0.0,0.0,-0.8381,-0.3945,-0.3502,0.5905,-0.3227,0.7389,0.0336
65,0.0,0.0,0.0,0.0,0.0,0.0,-0.8415,-0.3956,-0.3487,0.5906,-0.3220,0.7392,0.0334
66,0.0,0.0,0.0,0.0,0.0,0.0,-0.8434,-0.4005,-0.3468,0.5907,-0.3220,0.7391,0.0336
67,0.0,0.0,0.0,0.0,0.0,0.0,-0.8436,-0.4093,-0.3455,0.5909,-0.3225,0.7387,0.0344
68,0.0,0.0,0.0,0.0,0.0,0.0,-0.8427,-0.4156,-0.3452,0.5914,-0.3233,0.7379,0.0353
69,0.0,0.0,0.0,0.0,0.0,0.0,-0.8408,-0.4219,-0.3429,0.5921,-0.3244,0.7368,0.0362
70,0.0,0.0,0.0,0.0,0.0,0.0,-0.8384,-0.4248,-0.3416,0.5927,-0.3252,0.7359,0.0366
71,0.0,0.0,0.0,0.0,0.0,0.0,-0.8336,-0.4247,-0.3432,0.5933,-0.3259,0.7351,0.0365
72,0.0,0.0,0.0,0.0,0.0,0.0,-0.8302,-0.4203,-0.3432,0.5938,-0.3264,0.7345,0.0364
73,0.0,0.0,0.0,0.0,0.0,0.0,-0.8291,-0.4120,-0.3441,0.5941,-0.3267,0.7342,0.0362
74,0.0,0.0,0.0,0.0,0.0,0.0,-0.8290,-0.4091,-0.3445,0.5942,-0.3269,0.7340,0.0362
75,0.0,0.0,0.0,0.0,0.0,0.0,-0.8304,-0.4062,-0.3439,0.5943,-0.3269,0.7339,0.0364
76,0.0,0.0,0.0,0.0,0.0,0.0,-0.8362,-0.4058,-0.3437,0.5942,-0.3266,0.7341,0.0365
77,0.0,0.0,0.0,0.0,0.0,0.0,-0.8420,-0.4064,-0.3436,0.5941,-0.3261,0.7344,0.0366
78,0.0,0.0,0.0,0.0,0.0,0.0,-0.8454,-0.4045,-0.3434,0.5941,-0.3257,0.7345,0.0371
79,0.0,0.0,0.0,0.0,0.0,0.0,-0.8439,-0.4030,-0.3434,0.5941,-0.3253,0.7347,0.0378
80,0.0,0.0,0.0,0.0,0.0,0.0,-0.8438,-0.4016,-0.3434,0.5940,-0.3247,0.7351,0.0381
81,0.0,0.0,0.0,0.0,0.0,0.0,-0.8478,-0.4040,-0.3438,0.5940,-0.3241,0.7353,0.0385
82,0.0,0.0,0.0,0.0,0.0,0.0,-0.8482,-0.4021,-0.3438,0.5941,-0.3237,0.7354,0.0392
83,0.0,0.0,0.0,0.0,0.0,0.0,-0.8453,-0.3996,-0.3433,0.5940,-0.3229,0.7358,0.0392
84,0.0,0.0,0.0,0.0,0.0,0.0,-0.8457,-0.4002,-0.3424,0.5940,-0.3223,0.7361,0.0390
85,0.0,0.0,0.0,0.0,0.0,0.0,-0.8462,-0.4001,-0.3428,0.5940,-0.3218,0.7362,0.0389
86,0.0,0.0,0.0,0.0,0.0,0.0,-0.8448,-0.3982,-0.3433,0.5942,-0.3213,0.7364,0.0384
87,0.0,0.0,0.0,0.0,0.0,0.0,-0.8404,-0.3962,-0.3439,0.5943,-0.3211,0.7364,0.0384
88,0.0,0.0,0.0,0.0,0.0,0.0,-0.8399,-0.3976,-0.3449,0.5945,-0.3210,0.7363,0.0382
89,0.0,0.0,0.0,0.0,0.0,0.0,-0.8434,-0.4030,-0.3439,0.5946,-0.3211,0.7361,0.0382
90,0.0,0.0,0.0,0.0,0.0,0.0,-0.8413,-0.4482,-0.3414,0.5950,-0.3220,0.7355,0.0380
91,0.0,0.0,0.0,0.0,0.0,0.0,-0.8470,-0.4167,-0.3426,0.5955,-0.3216,0.7352,0.0369
92,0.0,0.0,0.0,0.0,0.0,0.0,-0.8320,-0.4140,-0.3440,0.5958,-0.3214,0.7351,0.0362
93,0.0,0.0,0.0,0.0,0.0,0.0,-0.8302,-0.4164,-0.3465,0.5960,-0.3211,0.7351,0.0353
94,0.0,0.0,0.0,0.0,0.0,0.0,-0.8333,-0.4013,-0.3471,0.5960,-0.3205,0.7355,0.0348
95,0.0,0.0,0.0,0.0,0.0,0.0,-0.8337,-0.3980,-0.3461,0.5956,-0.3196,0.7362,0.0343
96,0.0,0.0,0.0,0.0,0.0,0.0,-0.8385,-0.3946,-0.3454,0.5950,-0.3186,0.7371,0.0337
97,0.0,0.0,0.0,0.0,0.0,0.0,-0.8423,-0.3947,-0.3443,0.5947,-0.3181,0.7376,0.0340
98,0.0,0.0,0.0,0.0,0.0,0.0,-0.8408,-0.3947,-0.3444,0.5944,-0.3181,0.7378,0.0347
99,0.0,0.0,0.0,0.0,0.0,0.0,-0.8459,-0.4074,-0.3444,0.5940,-0.3179,0.7381,0.0351
100,0.0,0.0,0.0,0.0,0.0,0.0,-0.8461,-0.4195,-0.3442,0.5939,-0.3182,0.7380,0.0358
101,0.0,0.0,0.0,0.0,0.0,0.0,-0.8380,-0.4243,-0.3450,0.5940,-0.3188,0.7376,0.0366
102,0.0,0.0,0.0,0.0,0.0,0.0,-0.8375,-0.4204,-0.3449,0.5942,-0.3190,0.7375,0.0368
103,0.0,0.0,0.0,0.0,0.0,0.0,-0.8360,-0.4179,-0.3459,0.5943,-0.3191,0.7373,0.0365
104,0.0,0.0,0.0,0.0,0.0,0.0,-0.8349,-0.4091,-0.3467,0.5945,-0.3192,0.7371,0.0364
105,0.0,0.0,0.0,0.0,0.0,0.0,-0.8386,-0.4014,-0.3465,0.5946,-0.3188,0.7373,0.0361
106,0.0,0.0,0.0,0.0,0.0,0.0,-0.8409,-0.3986,-0.3454,0.5946,-0.3183,0.7375,0.0357
107,0.0,0.0,0.0,0.0,0.0,0.0,-0.8419,-0.3976,-0.3449,0.5945,-0.3179,0.7377,0.0355
108,0.0,0.0,0.0,0.0,0.0,0.0,-0.8429,-0.3991,-0.3444,0.5945,-0.3177,0.7378,0.0356
109,0.0,0.0,0.0,0.0,0.0,0.0,-0.8410,-0.4005,-0.3445,0.5945,-0.3173,0.7380,0.0357
110,0.0,0.0,0.0,0.0,0.0,0.0,-0.8396,-0.4010,-0.3464,0.5943,-0.3167,0.7384,0.0354
111,0.0,0.0,0.0,0.0,0.0,0.0,-0.8410,-0.4029,-0.3459,0.5941,-0.3159,0.7390,0.0350
112,0.0,0.0,0.0,0.0,0.0,0.0,-0.8421,-0.4049,-0.3474,0.5941,-0.3157,0.7391,0.0349
113,0.0,0.0,0.0,0.0,0.0,0.0,-0.8426,-0.4049,-0.3479,0.5942,-0.3156,0.7390,0.0350
114,0.0,0.0,0.0,0.0,0.0,0.0,-0.8440,-0.4049,-0.3478,0.5941,-0.3151,0.7393,0.0346
115,0.0,0.0,0.0,0.0,0.0,0.0,-0.8421,-0.4073,-0.3484,0.5942,-0.3148,0.7393,0.0343
116,0.0,0.0,0.0,0.0,0.0,0.0,-0.8417,-0.4058,-0.3508,0.5945,-0.3149,0.7391,0.0344
117,0.0,0.0,0.0,0.0,0.0,0.0,-0.8374,-0.4057,-0.3524,0.5944,-0.3149,0.7391,0.0343
118,0.0,0.0,0.0,0.0,0.0,0.0,-0.8353,-0.4023,-0.3510,0.5944,-0.3148,0.7392,0.0341
119,0.0,0.0,0.0,0.0,0.0,0.0,-0.8343,-0.4013,-0.3505,0.5943,-0.3147,0.7393,0.0338
120,0.0,0.0,0.0,0.0,0.0,0.0,-0.8378,-0.4028,-0.3523,0.5941,-0.3146,0.7396,0.0335
121,0.0,0.0,0.0,0.0,0.0,0.0,-0.8408,-0.4077,-0.3514,0.5939,-0.3147,0.7397,0.0334
122,0.0,0.0,0.0,0.0,0.0,0.0,-0.8418,-0.4427,-0.3471,0.5942,-0.3160,0.7388,0.0341
123,0.0,0.0,0.0,0.0,0.0,0.0,-0.8282,-0.4663,-0.3470,0.5950,-0.3173,0.7377,0.0337
124,0.0,0.0,0.0,0.0,0.0,0.0,-0.8286,-0.4100,-0.3474,0.5954,-0.3176,0.7373,0.0332
125,0.0,0.0,0.0,0.0,0.0,0.0,-0.8201,-0.4433,-0.3498,0.5957,-0.3185,0.7366,0.0330
126,0.0,0.0,0.0,0.0,0.0,0.0,-0.8227,-0.4234,-0.3537,0.5959,-0.3188,0.7364,0.0326
127,0.0,0.0,0.0,0.0,0.0,0.0,-0.8217,-0.4180,-0.3541,0.5956,-0.3192,0.7364,0.0321
128,0.0,0.0,0.0,0.0,0.0,0.0,-0.8240,-0.4166,-0.3521,0.5954,-0.3196,0.7364,0.0321
129,0.0,0.0,0.0,0.0,0.0,0.0,-0.8255,-0.4176,-0.3520,0.5952,-0.3200,0.7364,0.0321
130,0.0,0.0,0.0,0.0,0.0,0.0,-0.8295,-0.4255,-0.3501,0.5950,-0.3203,0.7365,0.0321
131,0.0,0.0,0.0,0.0,0.0,0.0,-0.8297,-0.4386,-0.3499,0.5949,-0.3209,0.7362,0.0323
132,0.0,0.0,0.0,0.0,0.0,0.0,-0.8230,-0.4414,-0.3530,0.5949,-0.3213,0.7361,0.0322
133,0.0,0.0,0.0,0.0,0.0,0.0,-0.8201,-0.4423,-0.3526,0.5949,-0.3217,0.7360,0.0318
134,0.0,0.0,0.0,0.0,0.0,0.0,-0.8178,-0.4447,-0.3542,0.5948,-0.3222,0.7358,0.0313
135,0.0,0.0,0.0,0.0,0.0,0.0,-0.8161,-0.4330,-0.3536,0.5946,-0.3226,0.7358,0.0309
136,0.0,0.0,0.0,0.0,0.0,0.0,-0.8228,-0.4253,-0.3542,0.5944,-0.3229,0.7359,0.0303
137,0.0,0.0,0.0,0.0,0.0,0.0,-0.8232,-0.4195,-0.3541,0.5940,-0.3231,0.7361,0.0301
138,0.0,0.0,0.0,0.0,0.0,0.0,-0.8249,-0.4128,-0.3520,0.5935,-0.3234,0.7364,0.0299
139,0.0,0.0,0.0,0.0,0.0,0.0,-0.8345,-0.4120,-0.3502,0.5930,-0.3238,0.7366,0.0297
140,0.0,0.0,0.0,0.0,0.0,0.0,-0.8409,-0.4165,-0.3491,0.5927,-0.3245,0.7366,0.0300
141,0.0,0.0,0.0,0.0,0.0,0.0,-0.8395,-0.4198,-0.3482,0.5926,-0.3253,0.7363,0.0302
142,0.0,0.0,0.0,0.0,0.0,0.0,-0.8308,-0.4187,-0.3509,0.5925,-0.3262,0.7359,0.0305
143,0.0,0.0,0.0,0.0,0.0,0.0,-0.8256,-0.4205,-0.3545,0.5923,-0.3273,0.7356,0.0306
144,0.0,0.0,0.0,0.0,0.0,0.0,-0.8285,-0.4210,-0.3544,0.5922,-0.3279,0.7355,0.0302
145,0.0,0.0,0.0,0.0,0.0,0.0,-0.8256,-0.4210,-0.3550,0.5920,-0.3288,0.7352,0.0298
146,0.0,0.0,0.0,0.0,0.0,0.0,-0.8266,-0.4259,-0.3512,0.5921,-0.3302,0.7345,0.0293
147,0.0,0.0,0.0,0.0,0.0,0.0,-0.8251,-0.4249,-0.3502,0.5923,-0.3314,0.7339,0.0283
148,0.0,0.0,0.0,0.0,0.0,0.0,-0.8271,-0.4269,-0.3517,0.5924,-0.3325,0.7333,0.0273
149,0.0,0.0,0.0,0.0,0.0,0.0,-0.8296,-0.4284,-0.3521,0.5925,-0.3337,0.7327,0.0261
150,0.0,0.0,0.0,0.0,0.0,0.0,-0.8273,-0.4365,-0.3547,0.5927,-0.3352,0.7319,0.0253
151,0.0,0.0,0.0,0.0,0.0,0.0,-0.8182,-0.4383,-0.3570,0.5929,-0.3369,0.7310,0.0247
152,0.0,0.0,0.0,0.0,0.0,0.0,-0.8214,-0.4311,-0.3543,0.5929,-0.3382,0.7304,0.0236
153,0.0,0.0,0.0,0.0,0.0,0.0,-0.8285,-0.4195,-0.3558,0.5929,-0.3392,0.7300,0.0231
154,0.0,0.0,0.0,0.0,0.0,0.0,-0.8308,-0.4074,-0.3594,0.5926,-0.3402,0.7298,0.0231
155,0.0,0.0,0.0,0.0,0.0,0.0,-0.8266,-0.4165,-0.3597,0.5921,-0.3411,0.7298,0.0234
156,0.0,0.0,0.0,0.0,0.0,0.0,-0.8243,-0.4199,-0.3603,0.5915,-0.3420,0.7298,0.0238
157,0.0,0.0,0.0,0.0,0.0,0.0,-0.8335,-0.4181,-0.3610,0.5908,-0.3429,0.7299,0.0249
158,0.0,0.0,0.0,0.0,0.0,0.0,-0.8411,-0.4163,-0.3568,0.5903,-0.3436,0.7299,0.0261
159,0.0,0.0,0.0,0.0,0.0,0.0,-0.8250,-0.4399,-0.3568,0.5897,-0.3449,0.7298,0.0277
160,0.0,0.0,0.0,0.0,0.0,0.0,-0.8066,-0.4575,-0.3606,0.5891,-0.3465,0.7294,0.0290
161,0.0,0.0,0.0,0.0,0.0,0.0,-0.8092,-0.4633,-0.3640,0.5886,-0.3479,0.7291,0.0297
162,0.0,0.0,0.0,0.0,0.0,0.0,-0.8056,-0.4783,-0.3644,0.5882,-0.3492,0.7288,0.0302
163,0.0,0.0,0.0,0.0,0.0,0.0,-0.8052,-0.4806,-0.3664,0.5881,-0.3502,0.7284,0.0304
164,0.0,0.0,0.0,0.0,0.0,0.0,-0.8117,-0.4865,-0.3712,0.5881,-0.3513,0.7278,0.0311
165,0.0,0.0,0.0,0.0,0.0,0.0,-0.8033,-0.4876,-0.3821,0.5881,-0.3521,0.7274,0.0318
166,0.0,0.0,0.0,0.0,0.0,0.0,-0.8001,-0.4859,-0.3899,0.5880,-0.3524,0.7274,0.0319
167,0.0,0.0,0.0,0.0,0.0,0.0,-0.7929,-0.4873,-0.3897,0.5878,-0.3525,0.7274,0.0320
168,0.0,0.0,0.0,0.0,0.0,0.0,-0.7798,-0.4910,-0.3872,0.5878,-0.3526,0.7274,0.0320
169,0.0,0.0,0.0,0.0,0.0,0.0,-0.7796,-0.4898,-0.3785,0.5881,-0.3520,0.7275,0.0314
170,0.0,0.0,0.0,0.0,0.0,0.0,-0.7869,-0.4798,-0.3694,0.5887,-0.3511,0.7275,0.0303
171,0.0,0.0,0.0,0.0,0.0,0.0,-0.7862,-0.4770,-0.3635,0.5895,-0.3505,0.7271,0.0293
172,0.0,0.0,0.0,0.0,0.0,0.0,-0.7901,-0.4820,-0.3616,0.5906,-0.3502,0.7265,0.0279
173,0.0,0.0,0.0,0.0,0.0,0.0,-0.7973,-0.4821,-0.3589,0.5921,-0.3503,0.7253,0.0265
174,0.0,0.0,0.0,0.0,0.0,0.0,-0.7977,-0.4798,-0.3569,0.5937,-0.3502,0.7241,0.0245
175,0.0,0.0,0.0,0.0,0.0,0.0,-0.7987,-0.4802,-0.3584,0.5951,-0.3495,0.7233,0.0217
176,0.0,0.0,0.0,0.0,0.0,0.0,-0.7998,-0.4802,-0.3622,0.5965,-0.3492,0.7224,0.0193
177,0.0,0.0,0.0,0.0,0.0,0.0,-0.7996,-0.4883,-0.3672,0.5977,-0.3495,0.7213,0.0173
178,0.0,0.0,0.0,0.0,0.0,0.0,-0.7933,-0.4873,-0.3669,0.5989,-0.3497,0.7203,0.0149
179,0.0,0.0,0.0,0.0,0.0,0.0,-0.7946,-0.4878,-0.3635,0.6000,-0.3497,0.7194,0.0122
180,0.0,0.0,0.0,0.0,0.0,0.0,-0.7989,-0.4909,-0.3576,0.6010,-0.3494,0.7188,0.0092
181,0.0,0.0,0.0,0.0,0.0,0.0,-0.7982,-0.4901,-0.3503,0.6022,-0.3489,0.7181,0.0064
182,0.0,0.0,0.0,0.0,0.0,0.0,-0.7885,-0.4939,-0.3444,0.6034,-0.3488,0.7171,0.0041
183,0.0,0.0,0.0,0.0,0.0,0.0,-0.7830,-0.4964,-0.3374,0.6047,-0.3487,0.7161,0.0017
184,0.0,0.0,0.0,0.0,0.0,0.0,-0.7757,-0.4998,-0.3333,0.6059,-0.3488,0.7150,-0.0005
185,0.0,0.0,0.0,0.0,0.0,0.0,-0.7699,-0.5081,-0.3254,0.6072,-0.3493,0.7137,-0.0024
186,0.0,0.0,0.0,0.0,0.0,0.0,-0.7685,-0.5184,-0.3208,0.6085,-0.3498,0.7123,-0.0045
187,0.0,0.0,0.0,0.0,0.0,0.0,-0.7748,-0.5422,-0.3230,0.6100,-0.3509,0.7104,-0.0063
188,0.0,0.0,0.0,0.0,0.0,0.0,-0.7847,-0.5510,-0.3262,0.6115,-0.3516,0.7088,-0.0084
189,0.0,0.0,0.0,0.0,0.0,0.0,-0.7865,-0.5467,-0.3236,0.6130,-0.3519,0.7073,-0.0110
190,0.0,0.0,0.0,0.0,0.0,0.0,-0.7819,-0.5346,-0.3216,0.6145,-0.3522,0.7058,-0.0133
191,0.0,0.0,0.0,0.0,0.0,0.0,-0.7826,-0.5171,-0.3232,0.6156,-0.3520,0.7049,-0.0154
192,0.0,0.0,0.0,0.0,0.0,0.0,-0.7774,-0.5287,-0.3217,0.6164,-0.3519,0.7042,-0.0172
193,0.0,0.0,0.0,0.0,0.0,0.0,-0.7790,-0.5448,-0.3161,0.6173,-0.3524,0.7032,-0.0186
194,0.0,0.0,0.0,0.0,0.0,0.0,-0.7643,-0.5330,-0.3144,0.6178,-0.3527,0.7025,-0.0198
195,0.0,0.0,0.0,0.0,0.0,0.0,-0.7784,-0.5351,-0.3179,0.6179,-0.3532,0.7022,-0.0202
196,0.0,0.0,0.0,0.0,0.0,0.0,-0.7633,-0.5276,-0.3168,0.6176,-0.3537,0.7022,-0.0201
197,0.0,0.0,0.0,0.0,0.0,0.0,-0.7511,-0.5641,-0.3062,0.6171,-0.3552,0.7019,-0.0194
198,0.0,0.0,0.0,0.0,0.0,0.0,-0.7656,-0.5958,-0.3049,0.6171,-0.3573,0.7008,-0.0186
199,0.0,0.0,0.0,0.0,0.0,0.0,-0.7547,-0.5737,-0.3096,0.6171,-0.3588,0.7002,-0.0183
200,0.0,0.0,0.0,0.0,0.0,0.0,-0.7517,-0.5679,-0.3091,0.6169,-0.3603,0.6995,-0.0176
201,0.0,0.0,0.0,0.0,0.0,0.0,-0.7522,-0.5427,-0.3087,0.6164,-0.3614,0.6994,-0.0170
202,0.0,0.0,0.0,0.0,0.0,0.0,-0.7534,-0.5262,-0.3098,0.6155,-0.3623,0.6997,-0.0159
203,0.0,0.0,0.0,0.0,0.0,0.0,-0.7515,-0.5295,-0.3099,0.6142,-0.3636,0.7002,-0.0139
204,0.0,0.0,0.0,0.0,0.0,0.0,-0.7549,-0.5370,-0.3051,0.6127,-0.3649,0.7009,-0.0119
205,0.0,0.0,0.0,0.0,0.0,0.0,-0.7474,-0.5583,-0.2985,0.6113,-0.3667,0.7012,-0.0098
206,0.0,0.0,0.0,0.0,0.0,0.0,-0.7469,-0.5776,-0.3037,0.6100,-0.3686,0.7015,-0.0078
207,0.0,0.0,0.0,0.0,0.0,0.0,-0.7533,-0.5688,-0.3154,0.6085,-0.3701,0.7020,-0.0058
208,0.0,0.0,0.0,0.0,0.0,0.0,-0.7586,-0.5823,-0.3237,0.6069,-0.3724,0.7022,-0.0029
209,0.0,0.0,0.0,0.0,0.0,0.0,-0.7649,-0.5962,-0.3335,0.6051,-0.3749,0.7023,-0.0001
210,0.0,0.0,0.0,0.0,0.0,0.0,-0.7679,-0.5933,-0.3391,0.6037,-0.3773,0.7023,0.0025
211,0.0,0.0,0.0,0.0,0.0,0.0,-0.7684,-0.5864,-0.3433,0.6023,-0.3793,0.7024,0.0047
212,0.0,0.0,0.0,0.0,0.0,0.0,-0.7707,-0.5776,-0.3460,0.6013,-0.3807,0.7025,0.0062
213,0.0,0.0,0.0,0.0,0.0,0.0,-0.7762,-0.5607,-0.3455,0.6006,-0.3823,0.7022,0.0077
214,0.0,0.0,0.0,0.0,0.0,0.0,-0.7926,-0.5728,-0.3370,0.6007,-0.3835,0.7015,0.0090
215,0.0,0.0,0.0,0.0,0.0,0.0,-0.7709,-0.5962,-0.3405,0.6009,-0.3842,0.7008,0.0100
216,0.0,0.0,0.0,0.0,0.0,0.0,-0.7488,-0.5646,-0.3499,0.6009,-0.3843,0.7008,0.0105
217,0.0,0.0,0.0,0.0,0.0,0.0,-0.7562,-0.5255,-0.3475,0.6007,-0.3838,0.7013,0.0103
218,0.0,0.0,0.0,0.0,0.0,0.0,-0.7723,-0.5102,-0.3443,0.6005,-0.3831,0.7018,0.0104
219,0.0,0.0,0.0,0.0,0.0,0.0,-0.7888,-0.5124,-0.3433,0.6003,-0.3825,0.7023,0.0112
220,0.0,0.0,0.0,0.0,0.0,0.0,-0.7796,-0.5409,-0.3422,0.6003,-0.3825,0.7023,0.0124
221,0.0,0.0,0.0,0.0,0.0,0.0,-0.7765,-0.5579,-0.3397,0.6007,-0.3827,0.7018,0.0135
222,0.0,0.0,0.0,0.0,0.0,0.0,-0.7800,-0.5361,-0.3421,0.6014,-0.3815,0.7018,0.0135
223,0.0,0.0,0.0,0.0,0.0,0.0,-0.7779,-0.4996,-0.3439,0.6018,-0.3801,0.7023,0.0140
224,0.0,0.0,0.0,0.0,0.0,0.0,-0.7780,-0.5025,-0.3444,0.6021,-0.3790,0.7026,0.0150
225,0.0,0.0,0.0,0.0,0.0,0.0,-0.7773,-0.4928,-0.3438,0.6022,-0.3772,0.7034,0.0160
226,0.0,0.0,0.0,0.0,0.0,0.0,-0.7803,-0.4977,-0.3443,0.6020,-0.3753,0.7046,0.0166
227,0.0,0.0,0.0,0.0,0.0,0.0,-0.7884,-0.4935,-0.3420,0.6018,-0.3735,0.7057,0.0173
228,0.0,0.0,0.0,0.0,0.0,0.0,-0.7945,-0.4918,-0.3364,0.6018,-0.3719,0.7065,0.0183
229,0.0,0.0,0.0,0.0,0.0,0.0,-0.7994,-0.4962,-0.3349,0.6019,-0.3705,0.7072,0.0189
230,0.0,0.0,0.0,0.0,0.0,0.0,-0.8006,-0.4837,-0.3337,0.6018,-0.3688,0.7081,0.0187
231,0.0,0.0,0.0,0.0,0.0,0.0,-0.8000,-0.4788,-0.3317,0.6018,-0.3673,0.7089,0.0180
232,0.0,0.0,0.0,0.0,0.0,0.0,-0.7964,-0.4666,-0.3320,0.6018,-0.3659,0.7097,0.0172
233,0.0,0.0,0.0,0.0,0.0,0.0,-0.7921,-0.4655,-0.3356,0.6015,-0.3647,0.7106,0.0162
234,0.0,0.0,0.0,0.0,0.0,0.0,-0.7944,-0.4810,-0.3396,0.6010,-0.3638,0.7115,0.0148
235,0.0,0.0,0.0,0.0,0.0,0.0,-0.7961,-0.4927,-0.3412,0.6007,-0.3631,0.7122,0.0130
236,0.0,0.0,0.0,0.0,0.0,0.0,-0.7976,-0.4970,-0.3413,0.6005,-0.3627,0.7125,0.0110
237,0.0,0.0,0.0,0.0,0.0,0.0,-0.8045,-0.5025,-0.3397,0.6006,-0.3624,0.7127,0.0087
238,0.0,0.0,0.0,0.0,0.0,0.0,-0.8020,-0.5010,-0.3402,0.6007,-0.3620,0.7128,0.0065
239,0.0,0.0,0.0,0.0,0.0,0.0,-0.7888,-0.4896,-0.3429,0.6007,-0.3614,0.7131,0.0039
240,0.0,0.0,0.0,0.0,0.0,0.0,-0.7866,-0.4993,-0.3436,0.6006,-0.3606,0.7136,0.0010
241,0.0,0.0,0.0,0.0,0.0,0.0,-0.7764,-0.5006,-0.3420,0.6005,-0.3605,0.7138,-0.0019
242,0.0,0.0,0.0,0.0,0.0,0.0,-0.7801,-0.4939,-0.3389,0.6004,-0.3603,0.7140,-0.0049
243,0.0,0.0,0.0,0.0,0.0,0.0,-0.7828,-0.5105,-0.3386,0.6003,-0.3603,0.7140,-0.0075
244,0.0,0.0,0.0,0.0,0.0,0.0,-0.7816,-0.5226,-0.3408,0.6004,-0.3605,0.7137,-0.0100
245,0.0,0.0,0.0,0.0,0.0,0.0,-0.7776,-0.5355,-0.3450,0.6006,-0.3608,0.7135,-0.0126
246,0.0,0.0,0.0,0.0,0.0,0.0,-0.7745,-0.5422,-0.3501,0.6007,-0.3610,0.7131,-0.0151
247,0.0,0.0,0.0,0.0,0.0,0.0,-0.7730,-0.5446,-0.3482,0.6010,-0.3613,0.7127,-0.0171
248,0.0,0.0,0.0,0.0,0.0,0.0,-0.7742,-0.5612,-0.3442,0.6014,-0.3621,0.7119,-0.0189
249,0.0,0.0,0.0,0.0,0.0,0.0,-0.7734,-0.5690,-0.3438,0.6021,-0.3628,0.7109,-0.0204
250,0.0,0.0,0.0,0.0,0.0,0.0,-0.7647,-0.5436,-0.3461,0.6027,-0.3633,0.7101,-0.0214
251,0.0,0.0,0.0,0.0,0.0,0.0,-0.7597,-0.5358,-0.3451,0.6030,-0.3636,0.7097,-0.0222
252,0.0,0.0,0.0,0.0,0.0,0.0,-0.7649,-0.5355,-0.3391,0.6031,-0.3640,0.7094,-0.0226
253,0.0,0.0,0.0,0.0,0.0,0.0,-0.7645,-0.5453,-0.3330,0.6031,-0.3647,0.7090,-0.0223
254,0.0,0.0,0.0,0.0,0.0,0.0,-0.7569,-0.5558,-0.3339,0.6030,-0.3659,0.7085,-0.0213
255,0.0,0.0,0.0,0.0,0.0,0.0,-0.7508,-0.5605,-0.3371,0.6029,-0.3672,0.7080,-0.0199
256,0.0,0.0,0.0,0.0,0.0,0.0,-0.7502,-0.5503,-0.3399,0.6023,-0.3678,0.7082,-0.0190
257,0.0,0.0,0.0,0.0,0.0,0.0,-0.7586,-0.5616,-0.3369,0.6018,-0.3683,0.7084,-0.0180
258,0.0,0.0,0.0,0.0,0.0,0.0,-0.7582,-0.5611,-0.3403,0.6014,-0.3687,0.7086,-0.0168
259,0.0,0.0,0.0,0.0,0.0,0.0,-0.7571,-0.5572,-0.3398,0.6010,-0.3689,0.7088,-0.0156
260,0.0,0.0,0.0,0.0,0.0,0.0,-0.7551,-0.5557,-0.3369,0.6007,-0.3694,0.7088,-0.0142
261,0.0,0.0,0.0,0.0,0.0,0.0,-0.7565,-0.5528,-0.3387,0.6004,-0.3700,0.7088,-0.0128
262,0.0,0.0,0.0,0.0,0.0,0.0,-0.7623,-0.5455,-0.3428,0.6000,-0.3705,0.7089,-0.0114
263,0.0,0.0,0.0,0.0,0.0,0.0,-0.7573,-0.5411,-0.3419,0.5997,-0.3707,0.7092,-0.0100
264,0.0,0.0,0.0,0.0,0.0,0.0,-0.7615,-0.5557,-0.3420,0.5994,-0.3711,0.7092,-0.0089
265,0.0,0.0,0.0,0.0,0.0,0.0,-0.7634,-0.5548,-0.3424,0.5991,-0.3713,0.7093,-0.0080
266,0.0,0.0,0.0,0.0,0.0,0.0,-0.7637,-0.5460,-0.3428,0.5990,-0.3708,0.7097,-0.0078
267,0.0,0.0,0.0,0.0,0.0,0.0,-0.7654,-0.5296,-0.3429,0.5988,-0.3704,0.7101,-0.0074
268,0.0,0.0,0.0,0.0,0.0,0.0,-0.7649,-0.5345,-0.3396,0.5986,-0.3703,0.7102,-0.0070
269,0.0,0.0,0.0,0.0,0.0,0.0,-0.7704,-0.5433,-0.3386,0.5987,-0.3705,0.7101,-0.0065
270,0.0,0.0,0.0,0.0,0.0,0.0,-0.7727,-0.5419,-0.3371,0.5989,-0.3709,0.7098,-0.0060
271,0.0,0.0,0.0,0.0,0.0,0.0,-0.7669,-0.5423,-0.3368,0.5992,-0.3711,0.7094,-0.0056
272,0.0,0.0,0.0,0.0,0.0,0.0,-0.7640,-0.5418,-0.3369,0.5996,-0.3715,0.7089,-0.0053
273,0.0,0.0,0.0,0.0,0.0,0.0,-0.7660,-0.5398,-0.3387,0.5998,-0.3717,0.7086,-0.0053
274,0.0,0.0,0.0,0.0,0.0,0.0,-0.7693,-0.5355,-0.3385,0.5998,-0.3715,0.7086,-0.0055
275,0.0,0.0,0.0,0.0,0.0,0.0,-0.7726,-0.5317,-0.3379,0.6000,-0.3712,0.7087,-0.0055
276,0.0,0.0,0.0,0.0,0.0,0.0,-0.7759,-0.5254,-0.3396,0.6000,-0.3711,0.7087,-0.0051
277,0.0,0.0,0.0,0.0,0.0,0.0,-0.7754,-0.5274,-0.3377,0.5999,-0.3710,0.7088,-0.0045
278,0.0,0.0,0.0,0.0,0.0,0.0,-0.7726,-0.5332,-0.3384,0.5997,-0.3710,0.7090,-0.0040
279,0.0,0.0,0.0,0.0,0.0,0.0,-0.7687,-0.5306,-0.3404,0.5993,-0.3710,0.7094,-0.0038
280,0.0,0.0,0.0,0.0,0.0,0.0,-0.7711,-0.5312,-0.3398,0.5989,-0.3710,0.7097,-0.0034
281,0.0,0.0,0.0,0.0,0.0,0.0,-0.7742,-0.5385,-0.3413,0.5985,-0.3716,0.7097,-0.0024
282,0.0,0.0,0.0,0.0,0.0,0.0,-0.7752,-0.5399,-0.3428,0.5983,-0.3722,0.7096,-0.0016
283,0.0,0.0,0.0,0.0,0.0,0.0,-0.7767,-0.5355,-0.3460,0.5981,-0.3727,0.7095,-0.0009
284,0.0,0.0,0.0,0.0,0.0,0.0,-0.7732,-0.5311,-0.3461,0.5978,-0.3733,0.7094,0.0001
285,0.0,0.0,0.0,0.0,0.0,0.0,-0.7736,-0.5243,-0.3464,0.5976,-0.3738,0.7093,0.0010
286,0.0,0.0,0.0,0.0,0.0,0.0,-0.7752,-0.5063,-0.3465,0.5973,-0.3739,0.7095,0.0019
287,0.0,0.0,0.0,0.0,0.0,0.0,-0.7825,-0.4807,-0.3463,0.5968,-0.3737,0.7100,0.0029
288,0.0,0.0,0.0,0.0,0.0,0.0,-0.7864,-0.4575,-0.3472,0.5959,-0.3736,0.7109,0.0045
289,0.0,0.0,0.0,0.0,0.0,0.0,-0.7920,-0.4697,-0.3468,0.5949,-0.3741,0.7114,0.0069
290,0.0,0.0,0.0,0.0,0.0,0.0,-0.7838,-0.4967,-0.3470,0.5939,-0.3749,0.7118,0.0093
291,0.0,0.0,0.0,0.0,0.0,0.0,-0.7818,-0.5224,-0.3480,0.5930,-0.3763,0.7118,0.0113
292,0.0,0.0,0.0,0.0,0.0,0.0,-0.7915,-0.4885,-0.3529,0.5921,-0.3775,0.7118,0.0132
293,0.0,0.0,0.0,0.0,0.0,0.0,-0.7912,-0.4665,-0.3588,0.5906,-0.3785,0.7125,0.0153
294,0.0,0.0,0.0,0.0,0.0,0.0,-0.8012,-0.4837,-0.3579,0.5891,-0.3795,0.7132,0.0172
295,0.0,0.0,0.0,0.0,0.0,0.0,-0.7975,-0.4963,-0.3553,0.5880,-0.3809,0.7133,0.0194
296,0.0,0.0,0.0,0.0,0.0,0.0,-0.7907,-0.5160,-0.3607,0.5869,-0.3825,0.7133,0.0215
297,0.0,0.0,0.0,0.0,0.0,0.0,-0.7981,-0.5190,-0.3625,0.5861,-0.3837,0.7133,0.0230
298,0.0,0.0,0.0,0.0,0.0,0.0,-0.8008,-0.5108,-0.3603,0.5857,-0.3846,0.7131,0.0246
299,0.0,0.0,0.0,0.0,0.0,0.0,-0.7886,-0.5058,-0.3611,0.5853,-0.3853,0.7130,0.0261
300,0.0,0.0,0.0,0.0,0.0,0.0,-0.7832,-0.4969,-0.3616,0.5850,-0.3856,0.7130,0.0278
301,0.0,0.0,0.0,0.0,0.0,0.0,-0.7923,-0.4922,-0.3631,0.5848,-0.3855,0.7131,0.0297
302,0.0,0.0,0.0,0.0,0.0,0.0,-0.7984,-0.4806,-0.3637,0.5846,-0.3848,0.7136,0.0315
303,0.0,0.0,0.0,0.0,0.0,0.0,-0.8011,-0.4704,-0.3639,0.5843,-0.3836,0.7144,0.0331
304,0.0,0.0,0.0,0.0,0.0,0.0,-0.8045,-0.4725,-0.3614,0.5841,-0.3822,0.7152,0.0348
305,0.0,0.0,0.0,0.0,0.0,0.0,-0.8111,-0.4712,-0.3578,0.5841,-0.3807,0.7159,0.0363
306,0.0,0.0,0.0,0.0,0.0,0.0,-0.8131,-0.4712,-0.3578,0.5844,-0.3794,0.7164,0.0377
307,0.0,0.0,0.0,0.0,0.0,0.0,-0.8083,-0.4716,-0.3589,0.5848,-0.3781,0.7166,0.0389
308,0.0,0.0,0.0,0.0,0.0,0.0,-0.8115,-0.4668,-0.3582,0.5854,-0.3770,0.7167,0.0400
309,0.0,0.0,0.0,0.0,0.0,0.0,-0.8109,-0.4600,-0.3576,0.5861,-0.3755,0.7169,0.0403
310,0.0,0.0,0.0,0.0,0.0,0.0,-0.8106,-0.4396,-0.3582,0.5866,-0.3735,0.7175,0.0399
311,0.0,0.0,0.0,0.0,0.0,0.0,-0.8195,-0.4286,-0.3563,0.5872,-0.3712,0.7182,0.0393
312,0.0,0.0,0.0,0.0,0.0,0.0,-0.8200,-0.4311,-0.3544,0.5877,-0.3689,0.7190,0.0384
313,0.0,0.0,0.0,0.0,0.0,0.0,-0.8211,-0.4404,-0.3516,0.5886,-0.3669,0.7194,0.0374
314,0.0,0.0,0.0,0.0,0.0,0.0,-0.8329,-0.4265,-0.3500,0.5897,-0.3649,0.7196,0.0365
315,0.0,0.0,0.0,0.0,0.0,0.0,-0.8248,-0.4134,-0.3471,0.5906,-0.3629,0.7198,0.0355
316,0.0,0.0,0.0,0.0,0.0,0.0,-0.8272,-0.4139,-0.3456,0.5914,-0.3609,0.7203,0.0346
317,0.0,0.0,0.0,0.0,0.0,0.0,-0.8330,-0.4159,-0.3455,0.5920,-0.3590,0.7207,0.0336
318,0.0,0.0,0.0,0.0,0.0,0.0,-0.8287,-0.4158,-0.3466,0.5926,-0.3574,0.7211,0.0326
319,0.0,0.0,0.0,0.0,0.0,0.0,-0.8278,-0.4172,-0.3486,0.5930,-0.3559,0.7216,0.0315
320,0.0,0.0,0.0,0.0,0.0,0.0,-0.8314,-0.4052,-0.3463,0.5931,-0.3542,0.7224,0.0304
321,0.0,0.0,0.0,0.0,0.0,0.0,-0.8229,-0.4207,-0.3435,0.5933,-0.3532,0.7228,0.0299
322,0.0,0.0,0.0,0.0,0.0,0.0,-0.8339,-0.4359,-0.3448,0.5936,-0.3522,0.7231,0.0288
323,0.0,0.0,0.0,0.0,0.0,0.0,-0.8333,-0.4315,-0.3448,0.5940,-0.3512,0.7232,0.0276
324,0.0,0.0,0.0,0.0,0.0,0.0,-0.8329,-0.4339,-0.3448,0.5945,-0.3505,0.7232,0.0265
325,0.0,0.0,0.0,0.0,0.0,0.0,-0.8280,-0.4324,-0.3440,0.5951,-0.3497,0.7232,0.0251
326,0.0,0.0,0.0,0.0,0.0,0.0,-0.8303,-0.4310,-0.3415,0.5957,-0.3492,0.7229,0.0240
327,0.0,0.0,0.0,0.0,0.0,0.0,-0.8266,-0.4402,-0.3403,0.5965,-0.3489,0.7225,0.0228
328,0.0,0.0,0.0,0.0,0.0,0.0,-0.8175,-0.4469,-0.3388,0.5973,-0.3490,0.7218,0.0217
329,0.0,0.0,0.0,0.0,0.0,0.0,-0.8204,-0.4513,-0.3373,0.5979,-0.3489,0.7214,0.0199
330,0.0,0.0,0.0,0.0,0.0,0.0,-0.8208,-0.4490,-0.3343,0.5986,-0.3488,0.7209,0.0181
331,0.0,0.0,0.0,0.0,0.0,0.0,-0.8086,-0.4731,-0.3327,0.5994,-0.3496,0.7198,0.0168
332,0.0,0.0,0.0,0.0,0.0,0.0,-0.8091,-0.5003,-0.3323,0.6005,-0.3507,0.7185,0.0154
333,0.0,0.0,0.0,0.0,0.0,0.0,-0.8103,-0.5110,-0.3344,0.6016,-0.3512,0.7173,0.0132
334,0.0,0.0,0.0,0.0,0.0,0.0,-0.8136,-0.4735,-0.3389,0.6025,-0.3506,0.7169,0.0108
335,0.0,0.0,0.0,0.0,0.0,0.0,-0.8030,-0.4758,-0.3393,0.6030,-0.3510,0.7163,0.0097
336,0.0,0.0,0.0,0.0,0.0,0.0,-0.8002,-0.4836,-0.3366,0.6037,-0.3520,0.7153,0.0087
337,0.0,0.0,0.0,0.0,0.0,0.0,-0.8034,-0.4789,-0.3316,0.6041,-0.3527,0.7145,0.0078
338,0.0,0.0,0.0,0.0,0.0,0.0,-0.7927,-0.4773,-0.3324,0.6042,-0.3538,0.7140,0.0073
339,0.0,0.0,0.0,0.0,0.0,0.0,-0.7952,-0.4728,-0.3370,0.6039,-0.3547,0.7138,0.0069
340,0.0,0.0,0.0,0.0,0.0,0.0,-0.7885,-0.5131,-0.3317,0.6038,-0.3563,0.7131,0.0067
341,0.0,0.0,0.0,0.0,0.0,0.0,-0.7937,-0.5316,-0.3328,0.6040,-0.3580,0.7121,0.0057
342,0.0,0.0,0.0,0.0,0.0,0.0,-0.7876,-0.5013,-0.3412,0.6038,-0.3591,0.7117,0.0044
343,0.0,0.0,0.0,0.0,0.0,0.0,-0.7827,-0.5002,-0.3428,0.6035,-0.3604,0.7112,0.0032
344,0.0,0.0,0.0,0.0,0.0,0.0,-0.7900,-0.5077,-0.3369,0.6035,-0.3620,0.7104,0.0022
345,0.0,0.0,0.0,0.0,0.0,0.0,-0.7920,-0.5126,-0.3369,0.6036,-0.3636,0.7096,0.0007
346,0.0,0.0,0.0,0.0,0.0,0.0,-0.7902,-0.5174,-0.3399,0.6037,-0.3654,0.7086,-0.0009
347,0.0,0.0,0.0,0.0,0.0,0.0,-0.7841,-0.4865,-0.3473,0.6033,-0.3667,0.7082,-0.0030
348,0.0,0.0,0.0,0.0,0.0,0.0,-0.7915,-0.4745,-0.3459,0.6028,-0.3685,0.7077,-0.0044
349,0.0,0.0,0.0,0.0,0.0,0.0,-0.7886,-0.5007,-0.3445,0.6023,-0.3712,0.7067,-0.0051
350,0.0,0.0,0.0,0.0,0.0,0.0,-0.7800,-0.5054,-0.3459,0.6017,-0.3740,0.7058,-0.0061
351,0.0,0.0,0.0,0.0,0.0,0.0,-0.7524,-0.5269,-0.3466,0.6009,-0.3773,0.7046,-0.0068
352,0.0,0.0,0.0,0.0,0.0,0.0,-0.7384,-0.5499,-0.3528,0.6001,-0.3811,0.7033,-0.0080
353,0.0,0.0,0.0,0.0,0.0,0.0,-0.7415,-0.5518,-0.3571,0.5991,-0.3843,0.7024,-0.0096
354,0.0,0.0,0.0,0.0,0.0,0.0,-0.7377,-0.5754,-0.3630,0.5981,-0.3870,0.7017,-0.0112
355,0.0,0.0,0.0,0.0,0.0,0.0,-0.7395,-0.5884,-0.3675,0.5973,-0.3894,0.7011,-0.0127
356,0.0,0.0,0.0,0.0,0.0,0.0,-0.7409,-0.6078,-0.3698,0.5968,-0.3916,0.7002,-0.0137
357,0.0,0.0,0.0,0.0,0.0,0.0,-0.7505,-0.5976,-0.3751,0.5964,-0.3927,0.6999,-0.0143
358,0.0,0.0,0.0,0.0,0.0,0.0,-0.7573,-0.5987,-0.3754,0.5963,-0.3929,0.6999,-0.0145
359,0.0,0.0,0.0,0.0,0.0,0.0,-0.7403,-0.6198,-0.3778,0.5965,-0.3924,0.7000,-0.0141
360,0.0,0.0,0.0,0.0,0.0,0.0,-0.7216,-0.6010,-0.3785,0.5966,-0.3910,0.7007,-0.0136
361,0.0,0.0,0.0,0.0,0.0,0.0,-0.7336,-0.5766,-0.3714,0.5967,-0.3888,0.7019,-0.0130
362,0.0,0.0,0.0,0.0,0.0,0.0,-0.7535,-0.5585,-0.3675,0.5967,-0.3854,0.7038,-0.0124
363,0.0,0.0,0.0,0.0,0.0,0.0,-0.7534,-0.5541,-0.3689,0.5969,-0.3818,0.7056,-0.0108
364,0.0,0.0,0.0,0.0,0.0,0.0,-0.7559,-0.5551,-0.3693,0.5973,-0.3781,0.7072,-0.0087
365,0.0,0.0,0.0,0.0,0.0,0.0,-0.7657,-0.5358,-0.3691,0.5978,-0.3738,0.7091,-0.0070
366,0.0,0.0,0.0,0.0,0.0,0.0,-0.7687,-0.5224,-0.3654,0.5984,-0.3689,0.7112,-0.0057
367,0.0,0.0,0.0,0.0,0.0,0.0,-0.7773,-0.5147,-0.3650,0.5990,-0.3635,0.7134,-0.0046
368,0.0,0.0,0.0,0.0,0.0,0.0,-0.7850,-0.4911,-0.3629,0.5995,-0.3578,0.7159,-0.0035
369,0.0,0.0,0.0,0.0,0.0,0.0,-0.7957,-0.4739,-0.3588,0.5999,-0.3517,0.7186,-0.0030
370,0.0,0.0,0.0,0.0,0.0,0.0,-0.8031,-0.4629,-0.3526,0.6003,-0.3458,0.7212,-0.0024
371,0.0,0.0,0.0,0.0,0.0,0.0,-0.8052,-0.4564,-0.3427,0.6007,-0.3403,0.7234,-0.0018
372,0.0,0.0,0.0,0.0,0.0,0.0,-0.8009,-0.4487,-0.3335,0.6013,-0.3357,0.7251,-0.0010
373,0.0,0.0,0.0,0.0,0.0,0.0,-0.8007,-0.4454,-0.3281,0.6018,-0.3316,0.7265,-0.0006
374,0.0,0.0,0.0,0.0,0.0,0.0,-0.8037,-0.4523,-0.3238,0.6025,-0.3286,0.7274,-0.0001
375,0.0,0.0,0.0,0.0,0.0,0.0,-0.8109,-0.4603,-0.3179,0.6031,-0.3263,0.7278,-0.0003
376,0.0,0.0,0.0,0.0,0.0,0.0,-0.8244,-0.4728,-0.3080,0.6042,-0.3248,0.7276,-0.0009
377,0.0,0.0,0.0,0.0,0.0,0.0,-0.8262,-0.4759,-0.3008,0.6058,-0.3240,0.7266,-0.0019
378,0.0,0.0,0.0,0.0,0.0,0.0,-0.8237,-0.4770,-0.2951,0.6076,-0.3242,0.7251,-0.0031
379,0.0,0.0,0.0,0.0,0.0,0.0,-0.8238,-0.4823,-0.2961,0.6093,-0.3253,0.7231,-0.0045
380,0.0,0.0,0.0,0.0,0.0,0.0,-0.8208,-0.4734,-0.2994,0.6110,-0.3266,0.7211,-0.0063
381,0.0,0.0,0.0,0.0,0.0,0.0,-0.8155,-0.4704,-0.3000,0.6126,-0.3288,0.7187,-0.0079
382,0.0,0.0,0.0,0.0,0.0,0.0,-0.8073,-0.4713,-0.2989,0.6137,-0.3312,0.7167,-0.0096
383,0.0,0.0,0.0,0.0,0.0,0.0,-0.7943,-0.4809,-0.2951,0.6144,-0.3341,0.7146,-0.0114
384,0.0,0.0,0.0,0.0,0.0,0.0,-0.7877,-0.4925,-0.2926,0.6149,-0.3375,0.7126,-0.0129
385,0.0,0.0,0.0,0.0,0.0,0.0,-0.7844,-0.4973,-0.2952,0.6148,-0.3417,0.7107,-0.0141
386,0.0,0.0,0.0,0.0,0.0,0.0,-0.7824,-0.5127,-0.2994,0.6143,-0.3465,0.7088,-0.0151
387,0.0,0.0,0.0,0.0,0.0,0.0,-0.7744,-0.5232,-0.3033,0.6136,-0.3514,0.7069,-0.0162
388,0.0,0.0,0.0,0.0,0.0,0.0,-0.7623,-0.5370,-0.3097,0.6127,-0.3566,0.7051,-0.0173
389,0.0,0.0,0.0,0.0,0.0,0.0,-0.7536,-0.5616,-0.3109,0.6117,-0.3617,0.7033,-0.0189
390,0.0,0.0,0.0,0.0,0.0,0.0,-0.7468,-0.5823,-0.3159,0.6106,-0.3667,0.7016,-0.0207
391,0.0,0.0,0.0,0.0,0.0,0.0,-0.7379,-0.5957,-0.3183,0.6097,-0.3718,0.6996,-0.0219
392,0.0,0.0,0.0,0.0,0.0,0.0,-0.7286,-0.6115,-0.3218,0.6088,-0.3763,0.6980,-0.0235
393,0.0,0.0,0.0,0.0,0.0,0.0,-0.7374,-0.6066,-0.3302,0.6077,-0.3800,0.6969,-0.0250
394,0.0,0.0,0.0,0.0,0.0,0.0,-0.7431,-0.6133,-0.3369,0.6067,-0.3832,0.6959,-0.0259
395,0.0,0.0,0.0,0.0,0.0,0.0,-0.7505,-0.6192,-0.3397,0.6060,-0.3855,0.6953,-0.0267
396,0.0,0.0,0.0,0.0,0.0,0.0,-0.7516,-0.6284,-0.3403,0.6056,-0.3874,0.6946,-0.0267
397,0.0,0.0,0.0,0.0,0.0,0.0,-0.7369,-0.6374,-0.3433,0.6055,-0.3892,0.6938,-0.0263
398,0.0,0.0,0.0,0.0,0.0,0.0,-0.7324,-0.6310,-0.3433,0.6053,-0.3903,0.6932,-0.0260
399,0.0,0.0,0.0,0.0,0.0,0.0,-0.7385,-0.4948,-0.3368,0.6048,-0.3894,0.6942,-0.0256
400,0.0,0.0,0.0,0.0,0.0,0.0,-0.7370,-0.5992,-0.3363,0.6051,-0.3895,0.6940,-0.0253
401,0.0,0.0,0.0,0.0,0.0,0.0,-0.7383,-0.5958,-0.3348,0.6053,-0.3894,0.6938,-0.0251
402,0.0,0.0,0.0,0.0,0.0,0.0,-0.7407,-0.5954,-0.3347,0.6056,-0.3895,0.6935,-0.0243
403,0.0,0.0,0.0,0.0,0.0,0.0,-0.7374,-0.5998,-0.3325,0.6061,-0.3896,0.6931,-0.0233
404,0.0,0.0,0.0,0.0,0.0,0.0,-0.7364,-0.5983,-0.3315,0.6067,-0.3894,0.6927,-0.0227
405,0.0,0.0,0.0,0.0,0.0,0.0,-0.7338,-0.5934,-0.3295,0.6073,-0.3891,0.6922,-0.0223
406,0.0,0.0,0.0,0.0,0.0,0.0,-0.7328,-0.5954,-0.3277,0.6082,-0.3892,0.6915,-0.0216
407,0.0,0.0,0.0,0.0,0.0,0.0,-0.7332,-0.5911,-0.3261,0.6089,-0.3888,0.6911,-0.0212
408,0.0,0.0,0.0,0.0,0.0,0.0,-0.7384,-0.5858,-0.3264,0.6094,-0.3880,0.6911,-0.0212
409,0.0,0.0,0.0,0.0,0.0,0.0,-0.7422,-0.5840,-0.3228,0.6100,-0.3873,0.6910,-0.0208
410,0.0,0.0,0.0,0.0,0.0,0.0,-0.7421,-0.5850,-0.3204,0.6105,-0.3864,0.6911,-0.0206
411,0.0,0.0,0.0,0.0,0.0,0.0,-0.7395,-0.5743,-0.3198,0.6109,-0.3857,0.6911,-0.0201
412,0.0,0.0,0.0,0.0,0.0,0.0,-0.7395,-0.5763,-0.3174,0.6113,-0.3851,0.6911,-0.0194
413,0.0,0.0,0.0,0.0,0.0,0.0,-0.7438,-0.5744,-0.3182,0.6116,-0.3843,0.6913,-0.0188
414,0.0,0.0,0.0,0.0,0.0,0.0,-0.7490,-0.5672,-0.3194,0.6119,-0.3834,0.6916,-0.0181
415,0.0,0.0,0.0,0.0,0.0,0.0,-0.7517,-0.5536,-0.3195,0.6118,-0.3824,0.6922,-0.0171
416,0.0,0.0,0.0,0.0,0.0,0.0,-0.7505,-0.5405,-0.3203,0.6114,-0.3810,0.6934,-0.0166
417,0.0,0.0,0.0,0.0,0.0,0.0,-0.7549,-0.5415,-0.3192,0.6107,-0.3797,0.6948,-0.0159
418,0.0,0.0,0.0,0.0,0.0,0.0,-0.7569,-0.5430,-0.3206,0.6098,-0.3788,0.6960,-0.0146
419,0.0,0.0,0.0,0.0,0.0,0.0,-0.7603,-0.5444,-0.3230,0.6086,-0.3781,0.6975,-0.0134
420,0.0,0.0,0.0,0.0,0.0,0.0,-0.7614,-0.5488,-0.3250,0.6074,-0.3777,0.6987,-0.0121
421,0.0,0.0,0.0,0.0,0.0,0.0,-0.7635,-0.5551,-0.3265,0.6062,-0.3775,0.7000,-0.0108
422,0.0,0.0,0.0,0.0,0.0,0.0,-0.7666,-0.5619,-0.3299,0.6050,-0.3774,0.7010,-0.0093
423,0.0,0.0,0.0,0.0,0.0,0.0,-0.7697,-0.5682,-0.3318,0.6041,-0.3776,0.7018,-0.0076
424,0.0,0.0,0.0,0.0,0.0,0.0,-0.7734,-0.5585,-0.3344,0.6031,-0.3772,0.7028,-0.0063
425,0.0,0.0,0.0,0.0,0.0,0.0,-0.7741,-0.5429,-0.3351,0.6022,-0.3767,0.7039,-0.0046
426,0.0,0.0,0.0,0.0,0.0,0.0,-0.7745,-0.5327,-0.3359,0.6012,-0.3763,0.7049,-0.0027
427,0.0,0.0,0.0,0.0,0.0,0.0,-0.7753,-0.5245,-0.3357,0.6003,-0.3757,0.7060,-0.0008
428,0.0,0.0,0.0,0.0,0.0,0.0,-0.7819,-0.5183,-0.3359,0.5994,-0.3750,0.7072,0.0010
429,0.0,0.0,0.0,0.0,0.0,0.0,-0.7886,-0.5130,-0.3360,0.5986,-0.3744,0.7082,0.0028
430,0.0,0.0,0.0,0.0,0.0,0.0,-0.7885,-0.5087,-0.3350,0.5978,-0.3741,0.7090,0.0048
431,0.0,0.0,0.0,0.0,0.0,0.0,-0.7966,-0.5050,-0.3332,0.5973,-0.3738,0.7095,0.0064
432,0.0,0.0,0.0,0.0,0.0,0.0,-0.7947,-0.5020,-0.3352,0.5969,-0.3741,0.7097,0.0083
433,0.0,0.0,0.0,0.0,0.0,0.0,-0.7936,-0.4937,-0.3360,0.5965,-0.3740,0.7100,0.0099
434,0.0,0.0,0.0,0.0,0.0,0.0,-0.7954,-0.4889,-0.3354,0.5961,-0.3741,0.7103,0.0111
435,0.0,0.0,0.0,0.0,0.0,0.0,-0.7951,-0.4893,-0.3407,0.5957,-0.3744,0.7105,0.0124
436,0.0,0.0,0.0,0.0,0.0,0.0,-0.7965,-0.4844,-0.3430,0.5952,-0.3746,0.7108,0.0134
437,0.0,0.0,0.0,0.0,0.0,0.0,-0.7992,-0.4772,-0.3418,0.5948,-0.3747,0.7111,0.0143
438,0.0,0.0,0.0,0.0,0.0,0.0,-0.7974,-0.4790,-0.3439,0.5944,-0.3749,0.7113,0.0153
439,0.0,0.0,0.0,0.0,0.0,0.0,-0.8028,-0.4849,-0.3448,0.5940,-0.3749,0.7116,0.0159
440,0.0,0.0,0.0,0.0,0.0,0.0,-0.8057,-0.4781,-0.3465,0.5938,-0.3747,0.7119,0.0164
441,0.0,0.0,0.0,0.0,0.0,0.0,-0.8017,-0.4713,-0.3475,0.5934,-0.3745,0.7123,0.0167
442,0.0,0.0,0.0,0.0,0.0,0.0,-0.7992,-0.4678,-0.3475,0.5928,-0.3741,0.7129,0.0170
443,0.0,0.0,0.0,0.0,0.0,0.0,-0.8050,-0.4674,-0.3473,0.5925,-0.3739,0.7134,0.0175
444,0.0,0.0,0.0,0.0,0.0,0.0,-0.8074,-0.4645,-0.3476,0.5922,-0.3734,0.7138,0.0180
445,0.0,0.0,0.0,0.0,0.0,0.0,-0.8063,-0.4572,-0.3480,0.5919,-0.3728,0.7144,0.0182
446,0.0,0.0,0.0,0.0,0.0,0.0,-0.8077,-0.4543,-0.3484,0.5913,-0.3719,0.7153,0.0182
447,0.0,0.0,0.0,0.0,0.0,0.0,-0.8125,-0.4530,-0.3482,0.5907,-0.3712,0.7162,0.0186
448,0.0,0.0,0.0,0.0,0.0,0.0,-0.8129,-0.4530,-0.3458,0.5903,-0.3707,0.7168,0.0192
449,0.0,0.0,0.0,0.0,0.0,0.0,-0.8117,-0.4463,-0.3418,0.5900,-0.3703,0.7172,0.0200
450,0.0,0.0,0.0,0.0,0.0,0.0,-0.8202,-0.4392,-0.3385,0.5897,-0.3695,0.7179,0.0206
451,0.0,0.0,0.0,0.0,0.0,0.0,-0.8197,-0.4382,-0.3376,0.5891,-0.3686,0.7188,0.0209
452,0.0,0.0,0.0,0.0,0.0,0.0,-0.8086,-0.4361,-0.3408,0.5883,-0.3679,0.7198,0.0211
453,0.0,0.0,0.0,0.0,0.0,0.0,-0.7910,-0.4395,-0.3492,0.5871,-0.3672,0.7211,0.0214
454,0.0,0.0,0.0,0.0,0.0,0.0,-0.7870,-0.4490,-0.3562,0.5856,-0.3669,0.7225,0.0218
455,0.0,0.0,0.0,0.0,0.0,0.0,-0.7995,-0.4661,-0.3600,0.5842,-0.3668,0.7236,0.0222
456,0.0,0.0,0.0,0.0,0.0,0.0,-0.7951,-0.4810,-0.3662,0.5828,-0.3671,0.7247,0.0224
457,0.0,0.0,0.0,0.0,0.0,0.0,-0.7993,-0.4975,-0.3698,0.5814,-0.3674,0.7256,0.0219
458,0.0,0.0,0.0,0.0,0.0,0.0,-0.7976,-0.3707,-0.3729,0.5795,-0.3662,0.7278,0.0208
459,0.0,0.0,0.0,0.0,0.0,0.0,-0.8066,-0.4877,-0.3796,0.5784,-0.3667,0.7284,0.0196
460,0.0,0.0,0.0,0.0,0.0,0.0,-0.8044,-0.4885,-0.3845,0.5775,-0.3666,0.7292,0.0181
461,0.0,0.0,0.0,0.0,0.0,0.0,-0.7969,-0.4966,-0.3902,0.5769,-0.3667,0.7297,0.0166
462,0.0,0.0,0.0,0.0,0.0,0.0,-0.7994,-0.4965,-0.3950,0.5766,-0.3667,0.7300,0.0154
463,0.0,0.0,0.0,0.0,0.0,0.0,-0.7956,-0.4920,-0.3974,0.5764,-0.3665,0.7302,0.0144
464,0.0,0.0,0.0,0.0,0.0,0.0,-0.7968,-0.4839,-0.3934,0.5765,-0.3661,0.7304,0.0136
465,0.0,0.0,0.0,0.0,0.0,0.0,-0.7972,-0.4795,-0.3947,0.5766,-0.3652,0.7307,0.0130
466,0.0,0.0,0.0,0.0,0.0,0.0,-0.7893,-0.4701,-0.3967,0.5766,-0.3638,0.7314,0.0122
467,0.0,0.0,0.0,0.0,0.0,0.0,-0.7874,-0.4691,-0.3953,0.5764,-0.3622,0.7324,0.0116
468,0.0,0.0,0.0,0.0,0.0,0.0,-0.7898,-0.4751,-0.3925,0.5765,-0.3614,0.7327,0.0121
469,0.0,0.0,0.0,0.0,0.0,0.0,-0.7859,-0.4726,-0.3920,0.5766,-0.3609,0.7329,0.0131
470,0.0,0.0,0.0,0.0,0.0,0.0,-0.7929,-0.4635,-0.3878,0.5767,-0.3601,0.7332,0.0140
471,0.0,0.0,0.0,0.0,0.0,0.0,-0.8040,-0.4671,-0.3865,0.5770,-0.3593,0.7333,0.0152
472,0.0,0.0,0.0,0.0,0.0,0.0,-0.8029,-0.4569,-0.3878,0.5774,-0.3583,0.7334,0.0162
473,0.0,0.0,0.0,0.0,0.0,0.0,-0.8088,-0.4450,-0.3807,0.5779,-0.3572,0.7336,0.0172
474,0.0,0.0,0.0,0.0,0.0,0.0,-0.8126,-0.4268,-0.3715,0.5784,-0.3559,0.7338,0.0190
475,0.0,0.0,0.0,0.0,0.0,0.0,-0.8096,-0.4253,-0.3706,0.5787,-0.3545,0.7342,0.0212
476,0.0,0.0,0.0,0.0,0.0,0.0,-0.8059,-0.4237,-0.3770,0.5787,-0.3532,0.7347,0.0235
477,0.0,0.0,0.0,0.0,0.0,0.0,-0.8081,-0.4076,-0.3795,0.5785,-0.3517,0.7355,0.0256
478,0.0,0.0,0.0,0.0,0.0,0.0,-0.8147,-0.4058,-0.3759,0.5783,-0.3506,0.7361,0.0281
479,0.0,0.0,0.0,0.0,0.0,0.0,-0.8178,-0.4181,-0.3736,0.5780,-0.3501,0.7364,0.0312
480,0.0,0.0,0.0,0.0,0.0,0.0,-0.8239,-0.4322,-0.3737,0.5778,-0.3493,0.7369,0.0337
481,0.0,0.0,0.0,0.0,0.0,0.0,-0.8295,-0.4250,-0.3738,0.5777,-0.3486,0.7372,0.0363
482,0.0,0.0,0.0,0.0,0.0,0.0,-0.8217,-0.4196,-0.3735,0.5775,-0.3483,0.7373,0.0392
483,0.0,0.0,0.0,0.0,0.0,0.0,-0.8157,-0.4375,-0.3711,0.5775,-0.3482,0.7373,0.0415
484,0.0,0.0,0.0,0.0,0.0,0.0,-0.8152,-0.4356,-0.3711,0.5776,-0.3483,0.7370,0.0431
485,0.0,0.0,0.0,0.0,0.0,0.0,-0.8257,-0.4017,-0.3721,0.5777,-0.3480,0.7370,0.0439
486,0.0,0.0,0.0,0.0,0.0,0.0,-0.8275,-0.3964,-0.3705,0.5776,-0.3475,0.7373,0.0443
487,0.0,0.0,0.0,0.0,0.0,0.0,-0.8276,-0.4007,-0.3734,0.5776,-0.3471,0.7375,0.0446
488,0.0,0.0,0.0,0.0,0.0,0.0,-0.8296,-0.4052,-0.3715,0.5779,-0.3473,0.7371,0.0450
489,0.0,0.0,0.0,0.0,0.0,0.0,-0.8265,-0.4217,-0.3690,0.5785,-0.3479,0.7364,0.0447
490,0.0,0.0,0.0,0.0,0.0,0.0,-0.8240,-0.4163,-0.3719,0.5793,-0.3484,0.7356,0.0438
491,0.0,0.0,0.0,0.0,0.0,0.0,-0.8263,-0.4056,-0.3721,0.5800,-0.3486,0.7351,0.0422
492,0.0,0.0,0.0,0.0,0.0,0.0,-0.8276,-0.3993,-0.3720,0.5807,-0.3487,0.7346,0.0401
493,0.0,0.0,0.0,0.0,0.0,0.0,-0.8266,-0.3983,-0.3715,0.5814,-0.3487,0.7341,0.0379
494,0.0,0.0,0.0,0.0,0.0,0.0,-0.8238,-0.4041,-0.3727,0.5821,-0.3487,0.7337,0.0357
495,0.0,0.0,0.0,0.0,0.0,0.0,-0.8274,-0.4143,-0.3742,0.5828,-0.3490,0.7331,0.0337
496,0.0,0.0,0.0,0.0,0.0,0.0,-0.8223,-0.4215,-0.3759,0.5834,-0.3491,0.7326,0.0314
497,0.0,0.0,0.0,0.0,0.0,0.0,-0.8161,-0.4277,-0.3758,0.5839,-0.3490,0.7324,0.0286
498,0.0,0.0,0.0,0.0,0.0,0.0,-0.8158,-0.4384,-0.3740,0.5845,-0.3493,0.7319,0.0261
499,0.0,0.0,0.0,0.0,0.0,0.0,-0.8136,-0.4549,-0.3729,0.5855,-0.3501,0.7308,0.0239
500,0.0,0.0,0.0,0.0,0.0,0.0,-0.8170,-0.4506,-0.3742,0.5865,-0.3505,0.7298,0.0213
501,0.0,0.0,0.0,0.0,0.0,0.0,-0.8206,-0.4399,-0.3744,0.5874,-0.3502,0.7294,0.0184
502,0.0,0.0,0.0,0.0,0.0,0.0,-0.8170,-0.4292,-0.3738,0.5881,-0.3498,0.7291,0.0160
503,0.0,0.0,0.0,0.0,0.0,0.0,-0.8035,-0.4369,-0.3695,0.5887,-0.3497,0.7287,0.0144
504,0.0,0.0,0.0,0.0,0.0,0.0,-0.8037,-0.4525,-0.3640,0.5894,-0.3496,0.7282,0.0129
505,0.0,0.0,0.0,0.0,0.0,0.0,-0.8169,-0.4595,-0.3642,0.5901,-0.3497,0.7275,0.0116
506,0.0,0.0,0.0,0.0,0.0,0.0,-0.8192,-0.4557,-0.3631,0.5909,-0.3497,0.7269,0.0108
507,0.0,0.0,0.0,0.0,0.0,0.0,-0.8166,-0.4450,-0.3630,0.5916,-0.3495,0.7265,0.0106
508,0.0,0.0,0.0,0.0,0.0,0.0,-0.8036,-0.4526,-0.3597,0.5922,-0.3494,0.7261,0.0110
509,0.0,0.0,0.0,0.0,0.0,0.0,-0.7945,-0.4598,-0.3581,0.5926,-0.3493,0.7257,0.0117
510,0.0,0.0,0.0,0.0,0.0,0.0,-0.8032,-0.4673,-0.3551,0.5931,-0.3491,0.7254,0.0120
511,0.0,0.0,0.0,0.0,0.0,0.0,-0.8054,-0.4785,-0.3538,0.5937,-0.3489,0.7250,0.0121
512,0.0,0.0,0.0,0.0,0.0,0.0,-0.8060,-0.4902,-0.3520,0.5946,-0.3489,0.7243,0.0121
513,0.0,0.0,0.0,0.0,0.0,0.0,-0.8034,-0.4824,-0.3505,0.5955,-0.3485,0.7237,0.0117
514,0.0,0.0,0.0,0.0,0.0,0.0,-0.7970,-0.4760,-0.3487,0.5964,-0.3483,0.7231,0.0112
515,0.0,0.0,0.0,0.0,0.0,0.0,-0.7975,-0.4790,-0.3468,0.5971,-0.3483,0.7226,0.0107
516,0.0,0.0,0.0,0.0,0.0,0.0,-0.7975,-0.4819,-0.3454,0.5976,-0.3482,0.7221,0.0101
517,0.0,0.0,0.0,0.0,0.0,0.0,-0.7973,-0.4771,-0.3438,0.5982,-0.3486,0.7215,0.0100
518,0.0,0.0,0.0,0.0,0.0,0.0,-0.7968,-0.4737,-0.3418,0.5988,-0.3491,0.7208,0.0101
519,0.0,0.0,0.0,0.0,0.0,0.0,-0.7996,-0.4654,-0.3465,0.5990,-0.3494,0.7204,0.0101
520,0.0,0.0,0.0,0.0,0.0,0.0,-0.8015,-0.4616,-0.3454,0.5990,-0.3496,0.7203,0.0107
521,0.0,0.0,0.0,0.0,0.0,0.0,-0.7890,-0.4973,-0.3449,0.5989,-0.3504,0.7200,0.0114
522,0.0,0.0,0.0,0.0,0.0,0.0,-0.7943,-0.4886,-0.3485,0.5987,-0.3508,0.7200,0.0117
523,0.0,0.0,0.0,0.0,0.0,0.0,-0.8004,-0.4790,-0.3486,0.5984,-0.3513,0.7200,0.0122
524,0.0,0.0,0.0,0.0,0.0,0.0,-0.7982,-0.4906,-0.3494,0.5981,-0.3520,0.7199,0.0128
525,0.0,0.0,0.0,0.0,0.0,0.0,-0.8018,-0.4721,-0.3528,0.5976,-0.3520,0.7203,0.0130
526,0.0,0.0,0.0,0.0,0.0,0.0,-0.7945,-0.4726,-0.3506,0.5970,-0.3521,0.7207,0.0133
527,0.0,0.0,0.0,0.0,0.0,0.0,-0.7946,-0.4997,-0.3535,0.5966,-0.3525,0.7209,0.0134
528,0.0,0.0,0.0,0.0,0.0,0.0,-0.7965,-0.4939,-0.3543,0.5963,-0.3528,0.7210,0.0135
529,0.0,0.0,0.0,0.0,0.0,0.0,-0.7965,-0.4978,-0.3534,0.5960,-0.3531,0.7211,0.0132
530,0.0,0.0,0.0,0.0,0.0,0.0,-0.7979,-0.4934,-0.3548,0.5958,-0.3533,0.7212,0.0129
531,0.0,0.0,0.0,0.0,0.0,0.0,-0.7934,-0.4856,-0.3538,0.5956,-0.3534,0.7213,0.0124
532,0.0,0.0,0.0,0.0,0.0,0.0,-0.7944,-0.4826,-0.3571,0.5955,-0.3537,0.7212,0.0121
533,0.0,0.0,0.0,0.0,0.0,0.0,-0.7930,-0.4826,-0.3591,0.5953,-0.3542,0.7211,0.0119
534,0.0,0.0,0.0,0.0,0.0,0.0,-0.7882,-0.4903,-0.3569,0.5950,-0.3548,0.7211,0.0113
535,0.0,0.0,0.0,0.0,0.0,0.0,-0.7901,-0.4845,-0.3587,0.5948,-0.3552,0.7210,0.0108
536,0.0,0.0,0.0,0.0,0.0,0.0,-0.7949,-0.4836,-0.3576,0.5948,-0.3559,0.7207,0.0105
537,0.0,0.0,0.0,0.0,0.0,0.0,-0.7921,-0.4845,-0.3591,0.5946,-0.3565,0.7206,0.0102
538,0.0,0.0,0.0,0.0,0.0,0.0,-0.7934,-0.4752,-0.3614,0.5944,-0.3567,0.7207,0.0096
539,0.0,0.0,0.0,0.0,0.0,0.0,-0.7976,-0.4675,-0.3625,0.5941,-0.3568,0.7209,0.0093
540,0.0,0.0,0.0,0.0,0.0,0.0,-0.7910,-0.4752,-0.3624,0.5938,-0.3569,0.7211,0.0095
541,0.0,0.0,0.0,0.0,0.0,0.0,-0.7912,-0.4908,-0.3598,0.5934,-0.3571,0.7213,0.0096
542,0.0,0.0,0.0,0.0,0.0,0.0,-0.7852,-0.4810,-0.3583,0.5930,-0.3567,0.7218,0.0096
543,0.0,0.0,0.0,0.0,0.0,0.0,-0.7859,-0.4640,-0.3590,0.5922,-0.3565,0.7225,0.0103
544,0.0,0.0,0.0,0.0,0.0,0.0,-0.7851,-0.4683,-0.3629,0.5911,-0.3565,0.7235,0.0112
545,0.0,0.0,0.0,0.0,0.0,0.0,-0.7921,-0.4850,-0.3601,0.5900,-0.3567,0.7242,0.0123
546,0.0,0.0,0.0,0.0,0.0,0.0,-0.7968,-0.5010,-0.3622,0.5893,-0.3577,0.7243,0.0139
547,0.0,0.0,0.0,0.0,0.0,0.0,-0.7956,-0.5111,-0.3644,0.5886,-0.3586,0.7244,0.0148
548,0.0,0.0,0.0,0.0,0.0,0.0,-0.7932,-0.5130,-0.3645,0.5882,-0.3592,0.7244,0.0147
549,0.0,0.0,0.0,0.0,0.0,0.0,-0.7960,-0.5117,-0.3610,0.5883,-0.3601,0.7239,0.0147
550,0.0,0.0,0.0,0.0,0.0,0.0,-0.7946,-0.5150,-0.3620,0.5887,-0.3613,0.7230,0.0147
551,0.0,0.0,0.0,0.0,0.0,0.0,-0.7883,-0.5066,-0.3660,0.5892,-0.3624,0.7220,0.0148
552,0.0,0.0,0.0,0.0,0.0,0.0,-0.7868,-0.5027,-0.3674,0.5896,-0.3633,0.7212,0.0145
553,0.0,0.0,0.0,0.0,0.0,0.0,-0.7906,-0.5023,-0.3639,0.5902,-0.3638,0.7204,0.0139
554,0.0,0.0,0.0,0.0,0.0,0.0,-0.7924,-0.5005,-0.3614,0.5910,-0.3642,0.7197,0.0134
555,0.0,0.0,0.0,0.0,0.0,0.0,-0.7817,-0.4994,-0.3602,0.5916,-0.3650,0.7188,0.0137
556,0.0,0.0,0.0,0.0,0.0,0.0,-0.7793,-0.5062,-0.3575,0.5923,-0.3660,0.7177,0.0143
557,0.0,0.0,0.0,0.0,0.0,0.0,-0.7860,-0.5059,-0.3525,0.5931,-0.3670,0.7165,0.0150
558,0.0,0.0,0.0,0.0,0.0,0.0,-0.7893,-0.5015,-0.3537,0.5937,-0.3675,0.7157,0.0154
559,0.0,0.0,0.0,0.0,0.0,0.0,-0.7924,-0.5122,-0.3548,0.5944,-0.3681,0.7148,0.0161
560,0.0,0.0,0.0,0.0,0.0,0.0,-0.7847,-0.5082,-0.3554,0.5950,-0.3683,0.7142,0.0168
561,0.0,0.0,0.0,0.0,0.0,0.0,-0.7735,-0.5027,-0.3567,0.5952,-0.3681,0.7140,0.0177
562,0.0,0.0,0.0,0.0,0.0,0.0,-0.7702,-0.5085,-0.3583,0.5952,-0.3677,0.7142,0.0189
563,0.0,0.0,0.0,0.0,0.0,0.0,-0.7629,-0.5677,-0.3524,0.5955,-0.3681,0.7137,0.0200
564,0.0,0.0,0.0,0.0,0.0,0.0,-0.7643,-0.5930,-0.3504,0.5966,-0.3683,0.7128,0.0194
565,0.0,0.0,0.0,0.0,0.0,0.0,-0.7662,-0.5673,-0.3503,0.5978,-0.3674,0.7123,0.0174
566,0.0,0.0,0.0,0.0,0.0,0.0,-0.7510,-0.5574,-0.3487,0.5989,-0.3661,0.7120,0.0148
567,0.0,0.0,0.0,0.0,0.0,0.0,-0.7493,-0.5497,-0.3438,0.6004,-0.3647,0.7117,0.0118
568,0.0,0.0,0.0,0.0,0.0,0.0,-0.7497,-0.5453,-0.3437,0.6018,-0.3630,0.7113,0.0084
569,0.0,0.0,0.0,0.0,0.0,0.0,-0.7582,-0.5344,-0.3403,0.6033,-0.3610,0.7111,0.0050
570,0.0,0.0,0.0,0.0,0.0,0.0,-0.7714,-0.5200,-0.3377,0.6048,-0.3588,0.7110,0.0017
571,0.0,0.0,0.0,0.0,0.0,0.0,-0.7803,-0.5095,-0.3362,0.6062,-0.3562,0.7111,-0.0015
572,0.0,0.0,0.0,0.0,0.0,0.0,-0.7819,-0.5114,-0.3396,0.6072,-0.3540,0.7113,-0.0040
573,0.0,0.0,0.0,0.0,0.0,0.0,-0.7887,-0.5120,-0.3399,0.6081,-0.3522,0.7114,-0.0060
574,0.0,0.0,0.0,0.0,0.0,0.0,-0.7861,-0.5052,-0.3389,0.6087,-0.3502,0.7119,-0.0076
575,0.0,0.0,0.0,0.0,0.0,0.0,-0.8034,-0.5001,-0.3378,0.6092,-0.3482,0.7125,-0.0087
576,0.0,0.0,0.0,0.0,0.0,0.0,-0.8076,-0.4934,-0.3365,0.6094,-0.3464,0.7132,-0.0092
577,0.0,0.0,0.0,0.0,0.0,0.0,-0.8107,-0.4823,-0.3338,0.6095,-0.3448,0.7138,-0.0090
578,0.0,0.0,0.0,0.0,0.0,0.0,-0.8146,-0.4849,-0.3313,0.6095,-0.3438,0.7143,-0.0079
579,0.0,0.0,0.0,0.0,0.0,0.0,-0.8119,-0.4742,-0.3273,0.6094,-0.3428,0.7149,-0.0066
580,0.0,0.0,0.0,0.0,0.0,0.0,-0.8097,-0.4626,-0.3243,0.6090,-0.3420,0.7157,-0.0050
581,0.0,0.0,0.0,0.0,0.0,0.0,-0.8101,-0.4646,-0.3209,0.6084,-0.3418,0.7162,-0.0028
582,0.0,0.0,0.0,0.0,0.0,0.0,-0.8057,-0.4592,-0.3215,0.6077,-0.3422,0.7166,-0.0000
583,0.0,0.0,0.0,0.0,0.0,0.0,-0.8081,-0.4558,-0.3262,0.6068,-0.3426,0.7172,0.0026
584,0.0,0.0,0.0,0.0,0.0,0.0,-0.8092,-0.4581,-0.3305,0.6057,-0.3433,0.7178,0.0053
585,0.0,0.0,0.0,0.0,0.0,0.0,-0.8137,-0.4655,-0.3305,0.6046,-0.3442,0.7183,0.0080
586,0.0,0.0,0.0,0.0,0.0,0.0,-0.8120,-0.4756,-0.3298,0.6035,-0.3453,0.7186,0.0105
587,0.0,0.0,0.0,0.0,0.0,0.0,-0.8087,-0.4829,-0.3305,0.6026,-0.3468,0.7186,0.0126
588,0.0,0.0,0.0,0.0,0.0,0.0,-0.8149,-0.4766,-0.3316,0.6020,-0.3485,0.7183,0.0146
589,0.0,0.0,0.0,0.0,0.0,0.0,-0.8077,-0.4794,-0.3310,0.6013,-0.3500,0.7181,0.0163
590,0.0,0.0,0.0,0.0,0.0,0.0,-0.8073,-0.4803,-0.3349,0.6006,-0.3516,0.7179,0.0175
591,0.0,0.0,0.0,0.0,0.0,0.0,-0.8073,-0.4803,-0.3339,0.6000,-0.3534,0.7174,0.0188
592,0.0,0.0,0.0,0.0,0.0,0.0,-0.8088,-0.4842,-0.3344,0.5995,-0.3550,0.7171,0.0197
593,0.0,0.0,0.0,0.0,0.0,0.0,-0.8037,-0.4900,-0.3351,0.5995,-0.3584,0.7154,0.0193
594,0.0,0.0,0.0,0.0,0.0,0.0,-0.8033,-0.4948,-0.3353,0.5993,-0.3610,0.7142,0.0206
595,0.0,0.0,0.0,0.0,0.0,0.0,-0.8080,-0.4900,-0.3355,0.5992,-0.3635,0.7130,0.0219
596,0.0,0.0,0.0,0.0,0.0,0.0,-0.8040,-0.4827,-0.3350,0.5989,-0.3657,0.7121,0.0231
597,0.0,0.0,0.0,0.0,0.0,0.0,-0.8005,-0.4754,-0.3355,0.5985,-0.3676,0.7114,0.0241
598,0.0,0.0,0.0,0.0,0.0,0.0,-0.8014,-0.4710,-0.3378,0.5981,-0.3697,0.7106,0.0257
599,0.0,0.0,0.0,0.0,0.0,0.0,-0.8083,-0.4735,-0.3381,0.5976,-0.3721,0.7097,0.0275
600,0.0,0.0,0.0,0.0,0.0,0.0,-0.8069,-0.4719,-0.3410,0.5970,-0.3742,0.7090,0.0295
601,0.0,0.0,0.0,0.0,0.0,0.0,-0.8025,-0.4733,-0.3412,0.5962,-0.3759,0.7087,0.0312
602,0.0,0.0,0.0,0.0,0.0,0.0,-0.8041,-0.4807,-0.3393,0.5955,-0.3781,0.7081,0.0335
603,0.0,0.0,0.0,0.0,0.0,0.0,-0.8042,-0.4870,-0.3404,0.5949,-0.3804,0.7072,0.0361
604,0.0,0.0,0.0,0.0,0.0,0.0,-0.7971,-0.4868,-0.3450,0.5942,-0.3819,0.7068,0.0378
605,0.0,0.0,0.0,0.0,0.0,0.0,-0.7954,-0.4727,-0.3462,0.5933,-0.3830,0.7069,0.0392
606,0.0,0.0,0.0,0.0,0.0,0.0,-0.8048,-0.4592,-0.3457,0.5924,-0.3842,0.7070,0.0409
607,0.0,0.0,0.0,0.0,0.0,0.0,-0.8177,-0.4531,-0.3452,0.5914,-0.3855,0.7069,0.0430
608,0.0,0.0,0.0,0.0,0.0,0.0,-0.8243,-0.4381,-0.3495,0.5902,-0.3864,0.7074,0.0454
609,0.0,0.0,0.0,0.0,0.0,0.0,-0.8127,-0.4568,-0.3527,0.5891,-0.3877,0.7073,0.0483
610,0.0,0.0,0.0,0.0,0.0,0.0,-0.8128,-0.4581,-0.3575,0.5882,-0.3890,0.7072,0.0510
611,0.0,0.0,0.0,0.0,0.0,0.0,-0.8119,-0.4328,-0.3600,0.5870,-0.3895,0.7078,0.0532
612,0.0,0.0,0.0,0.0,0.0,0.0,-0.8162,-0.4202,-0.3640,0.5855,-0.3894,0.7089,0.0549
613,0.0,0.0,0.0,0.0,0.0,0.0,-0.8132,-0.4148,-0.3650,0.5839,-0.3891,0.7103,0.0568
614,0.0,0.0,0.0,0.0,0.0,0.0,-0.8213,-0.4343,-0.3660,0.5825,-0.3891,0.7112,0.0592
615,0.0,0.0,0.0,0.0,0.0,0.0,-0.8315,-0.4349,-0.3681,0.5814,-0.3888,0.7120,0.0615
616,0.0,0.0,0.0,0.0,0.0,0.0,-0.8244,-0.4085,-0.3713,0.5802,-0.3880,0.7133,0.0636
617,0.0,0.0,0.0,0.0,0.0,0.0,-0.8273,-0.4119,-0.3722,0.5790,-0.3869,0.7147,0.0654
618,0.0,0.0,0.0,0.0,0.0,0.0,-0.8296,-0.4270,-0.3729,0.5780,-0.3859,0.7159,0.0671
619,0.0,0.0,0.0,0.0,0.0,0.0,-0.8309,-0.4158,-0.3760,0.5771,-0.3844,0.7173,0.0685
620,0.0,0.0,0.0,0.0,0.0,0.0,-0.8326,-0.4017,-0.3757,0.5761,-0.3825,0.7190,0.0695
621,0.0,0.0,0.0,0.0,0.0,0.0,-0.8176,-0.4045,-0.3748,0.5754,-0.3806,0.7206,0.0702
622,0.0,0.0,0.0,0.0,0.0,0.0,-0.8361,-0.4120,-0.3758,0.5750,-0.3779,0.7223,0.0700
623,0.0,0.0,0.0,0.0,0.0,0.0,-0.8399,-0.4102,-0.3713,0.5749,-0.3756,0.7236,0.0700
624,0.0,0.0,0.0,0.0,0.0,0.0,-0.8464,-0.3996,-0.3694,0.5749,-0.3729,0.7250,0.0698
625,0.0,0.0,0.0,0.0,0.0,0.0,-0.8417,-0.3880,-0.3645,0.5751,-0.3705,0.7261,0.0695
626,0.0,0.0,0.0,0.0,0.0,0.0,-0.8318,-0.3971,-0.3660,0.5754,-0.3679,0.7272,0.0690
627,0.0,0.0,0.0,0.0,0.0,0.0,-0.8398,-0.3889,-0.3666,0.5758,-0.3647,0.7286,0.0677
628,0.0,0.0,0.0,0.0,0.0,0.0,-0.8424,-0.3720,-0.3666,0.5763,-0.3613,0.7300,0.0665
629,0.0,0.0,0.0,0.0,0.0,0.0,-0.8346,-0.3650,-0.3673,0.5764,-0.3581,0.7316,0.0654
630,0.0,0.0,0.0,0.0,0.0,0.0,-0.8595,-0.3785,-0.3691,0.5769,-0.3551,0.7328,0.0642
631,0.0,0.0,0.0,0.0,0.0,0.0,-0.8531,-0.3434,-0.3682,0.5770,-0.3513,0.7346,0.0631
632,0.0,0.0,0.0,0.0,0.0,0.0,-0.8341,-0.3660,-0.3673,0.5771,-0.3483,0.7360,0.0625
633,0.0,0.0,0.0,0.0,0.0,0.0,-0.8337,-0.3907,-0.3716,0.5773,-0.3464,0.7368,0.0622
634,0.0,0.0,0.0,0.0,0.0,0.0,-0.8407,-0.4044,-0.3716,0.5777,-0.3448,0.7373,0.0615
635,0.0,0.0,0.0,0.0,0.0,0.0,-0.8518,-0.4026,-0.3722,0.5782,-0.3423,0.7382,0.0595
636,0.0,0.0,0.0,0.0,0.0,0.0,-0.8491,-0.3826,-0.3753,0.5786,-0.3392,0.7395,0.0569
637,0.0,0.0,0.0,0.0,0.0,0.0,-0.8343,-0.3877,-0.3774,0.5794,-0.3369,0.7402,0.0545
638,0.0,0.0,0.0,0.0,0.0,0.0,-0.8497,-0.3919,-0.3707,0.5804,-0.3345,0.7406,0.0516
639,0.0,0.0,0.0,0.0,0.0,0.0,-0.8650,-0.3829,-0.3715,0.5817,-0.3324,0.7407,0.0490
640,0.0,0.0,0.0,0.0,0.0,0.0,-0.8413,-0.3593,-0.3694,0.5826,-0.3302,0.7412,0.0469
641,0.0,0.0,0.0,0.0,0.0,0.0,-0.8368,-0.3470,-0.3722,0.5830,-0.3280,0.7420,0.0450
642,0.0,0.0,0.0,0.0,0.0,0.0,-0.8439,-0.3617,-0.3732,0.5833,-0.3264,0.7425,0.0440
643,0.0,0.0,0.0,0.0,0.0,0.0,-0.8320,-0.4052,-0.3700,0.5838,-0.3254,0.7426,0.0432
644,0.0,0.0,0.0,0.0,0.0,0.0,-0.8475,-0.3812,-0.3705,0.5844,-0.3238,0.7429,0.0417
645,0.0,0.0,0.0,0.0,0.0,0.0,-0.8359,-0.3859,-0.3671,0.5848,-0.3223,0.7433,0.0401
646,0.0,0.0,0.0,0.0,0.0,0.0,-0.8417,-0.3895,-0.3646,0.5855,-0.3212,0.7433,0.0386
647,0.0,0.0,0.0,0.0,0.0,0.0,-0.8498,-0.3784,-0.3660,0.5862,-0.3205,0.7431,0.0374
648,0.0,0.0,0.0,0.0,0.0,0.0,-0.8382,-0.3782,-0.3654,0.5868,-0.3203,0.7428,0.0366
649,0.0,0.0,0.0,0.0,0.0,0.0,-0.8351,-0.4030,-0.3616,0.5876,-0.3206,0.7421,0.0356
650,0.0,0.0,0.0,0.0,0.0,0.0,-0.8308,-0.4029,-0.3627,0.5883,-0.3206,0.7416,0.0338
651,0.0,0.0,0.0,0.0,0.0,0.0,-0.8316,-0.3903,-0.3664,0.5886,-0.3203,0.7415,0.0317
652,0.0,0.0,0.0,0.0,0.0,0.0,-0.8280,-0.4038,-0.3667,0.5890,-0.3207,0.7412,0.0300
653,0.0,0.0,0.0,0.0,0.0,0.0,-0.8273,-0.4159,-0.3674,0.5895,-0.3216,0.7405,0.0287
654,0.0,0.0,0.0,0.0,0.0,0.0,-0.8303,-0.4222,-0.3679,0.5899,-0.3224,0.7399,0.0272
655,0.0,0.0,0.0,0.0,0.0,0.0,-0.8212,-0.4241,-0.3678,0.5902,-0.3233,0.7393,0.0258
656,0.0,0.0,0.0,0.0,0.0,0.0,-0.8202,-0.4265,-0.3683,0.5905,-0.3241,0.7387,0.0242
657,0.0,0.0,0.0,0.0,0.0,0.0,-0.8227,-0.4299,-0.3674,0.5908,-0.3247,0.7382,0.0227
658,0.0,0.0,0.0,0.0,0.0,0.0,-0.8216,-0.4270,-0.3654,0.5910,-0.3251,0.7379,0.0214
659,0.0,0.0,0.0,0.0,0.0,0.0,-0.8193,-0.4338,-0.3651,0.5913,-0.3257,0.7375,0.0204
660,0.0,0.0,0.0,0.0,0.0,0.0,-0.8138,-0.4429,-0.3674,0.5916,-0.3269,0.7367,0.0202
661,0.0,0.0,0.0,0.0,0.0,0.0,-0.8114,-0.4497,-0.3656,0.5917,-0.3283,0.7360,0.0198
662,0.0,0.0,0.0,0.0,0.0,0.0,-0.8109,-0.4512,-0.3647,0.5919,-0.3294,0.7354,0.0190
663,0.0,0.0,0.0,0.0,0.0,0.0,-0.8109,-0.4507,-0.3647,0.5920,-0.3307,0.7347,0.0185
664,0.0,0.0,0.0,0.0,0.0,0.0,-0.8075,-0.4560,-0.3610,0.5921,-0.3321,0.7340,0.0181
665,0.0,0.0,0.0,0.0,0.0,0.0,-0.8053,-0.4638,-0.3613,0.5923,-0.3337,0.7332,0.0178
666,0.0,0.0,0.0,0.0,0.0,0.0,-0.8035,-0.4725,-0.3620,0.5925,-0.3358,0.7321,0.0176
667,0.0,0.0,0.0,0.0,0.0,0.0,-0.8021,-0.4753,-0.3625,0.5927,-0.3377,0.7310,0.0172
668,0.0,0.0,0.0,0.0,0.0,0.0,-0.8003,-0.4797,-0.3617,0.5930,-0.3398,0.7297,0.0172
669,0.0,0.0,0.0,0.0,0.0,0.0,-0.7960,-0.4869,-0.3610,0.5934,-0.3419,0.7285,0.0168
670,0.0,0.0,0.0,0.0,0.0,0.0,-0.7927,-0.4898,-0.3602,0.5938,-0.3440,0.7272,0.0168
671,0.0,0.0,0.0,0.0,0.0,0.0,-0.7946,-0.4884,-0.3596,0.5943,-0.3464,0.7256,0.0168
672,0.0,0.0,0.0,0.0,0.0,0.0,-0.7955,-0.4860,-0.3595,0.5947,-0.3486,0.7242,0.0171
673,0.0,0.0,0.0,0.0,0.0,0.0,-0.7926,-0.4894,-0.3587,0.5951,-0.3507,0.7229,0.0174
674,0.0,0.0,0.0,0.0,0.0,0.0,-0.7889,-0.4981,-0.3571,0.5954,-0.3528,0.7216,0.0175
675,0.0,0.0,0.0,0.0,0.0,0.0,-0.7927,-0.4967,-0.3579,0.5958,-0.3547,0.7204,0.0175
676,0.0,0.0,0.0,0.0,0.0,0.0,-0.7939,-0.4841,-0.3567,0.5962,-0.3562,0.7193,0.0173
677,0.0,0.0,0.0,0.0,0.0,0.0,-0.7890,-0.4860,-0.3525,0.5966,-0.3578,0.7181,0.0174
678,0.0,0.0,0.0,0.0,0.0,0.0,-0.7896,-0.4909,-0.3530,0.5970,-0.3589,0.7173,0.0172
679,0.0,0.0,0.0,0.0,0.0,0.0,-0.7975,-0.4958,-0.3558,0.5972,-0.3596,0.7167,0.0170
680,0.0,0.0,0.0,0.0,0.0,0.0,-0.8089,-0.4843,-0.3567,0.5975,-0.3598,0.7164,0.0169
681,0.0,0.0,0.0,0.0,0.0,0.0,-0.7835,-0.4723,-0.3539,0.5975,-0.3597,0.7164,0.0172
682,0.0,0.0,0.0,0.0,0.0,0.0,-0.7905,-0.4855,-0.3544,0.5975,-0.3592,0.7167,0.0174
683,0.0,0.0,0.0,0.0,0.0,0.0,-0.7939,-0.4905,-0.3529,0.5975,-0.3588,0.7168,0.0180
684,0.0,0.0,0.0,0.0,0.0,0.0,-0.7969,-0.4988,-0.3500,0.5975,-0.3584,0.7171,0.0186
685,0.0,0.0,0.0,0.0,0.0,0.0,-0.7968,-0.4940,-0.3495,0.5976,-0.3578,0.7173,0.0193
686,0.0,0.0,0.0,0.0,0.0,0.0,-0.7899,-0.4876,-0.3476,0.5978,-0.3578,0.7171,0.0208
687,0.0,0.0,0.0,0.0,0.0,0.0,-0.7887,-0.5007,-0.3474,0.5978,-0.3575,0.7172,0.0217
688,0.0,0.0,0.0,0.0,0.0,0.0,-0.7873,-0.3710,-0.3485,0.5968,-0.3551,0.7192,0.0222
689,0.0,0.0,0.0,0.0,0.0,0.0,-0.7947,-0.4813,-0.3503,0.5967,-0.3545,0.7196,0.0233
690,0.0,0.0,0.0,0.0,0.0,0.0,-0.7977,-0.4886,-0.3489,0.5965,-0.3545,0.7197,0.0249
691,0.0,0.0,0.0,0.0,0.0,0.0,-0.7978,-0.4974,-0.3490,0.5963,-0.3543,0.7199,0.0263
692,0.0,0.0,0.0,0.0,0.0,0.0,-0.7987,-0.4896,-0.3489,0.5959,-0.3536,0.7205,0.0272
693,0.0,0.0,0.0,0.0,0.0,0.0,-0.7996,-0.4838,-0.3502,0.5954,-0.3528,0.7212,0.0279
694,0.0,0.0,0.0,0.0,0.0,0.0,-0.8078,-0.4859,-0.3490,0.5952,-0.3520,0.7219,0.0284
695,0.0,0.0,0.0,0.0,0.0,0.0,-0.8034,-0.4829,-0.3496,0.5951,-0.3512,0.7223,0.0290
696,0.0,0.0,0.0,0.0,0.0,0.0,-0.8037,-0.4668,-0.3531,0.5949,-0.3504,0.7228,0.0296
697,0.0,0.0,0.0,0.0,0.0,0.0,-0.8095,-0.4683,-0.3535,0.5949,-0.3497,0.7232,0.0302
698,0.0,0.0,0.0,0.0,0.0,0.0,-0.8094,-0.4679,-0.3491,0.5949,-0.3488,0.7235,0.0304
699,0.0,0.0,0.0,0.0,0.0,0.0,-0.8094,-0.4640,-0.3510,0.5951,-0.3477,0.7239,0.0303
700,0.0,0.0,0.0,0.0,0.0,0.0,-0.8087,-0.4509,-0.3536,0.5953,-0.3470,0.7241,0.0304
701,0.0,0.0,0.0,0.0,0.0,0.0,-0.8075,-0.4407,-0.3501,0.5954,-0.3458,0.7246,0.0300
702,0.0,0.0,0.0,0.0,0.0,0.0,-0.8159,-0.4569,-0.3463,0.5956,-0.3449,0.7249,0.0292
703,0.0,0.0,0.0,0.0,0.0,0.0,-0.8144,-0.4476,-0.3510,0.5959,-0.3442,0.7250,0.0288
704,0.0,0.0,0.0,0.0,0.0,0.0,-0.8137,-0.4330,-0.3522,0.5959,-0.3434,0.7254,0.0283
705,0.0,0.0,0.0,0.0,0.0,0.0,-0.8174,-0.4282,-0.3515,0.5959,-0.3426,0.7258,0.0277
706,0.0,0.0,0.0,0.0,0.0,0.0,-0.8188,-0.4283,-0.3471,0.5959,-0.3417,0.7263,0.0272
707,0.0,0.0,0.0,0.0,0.0,0.0,-0.8172,-0.4502,-0.3461,0.5965,-0.3427,0.7254,0.0253
708,0.0,0.0,0.0,0.0,0.0,0.0,-0.8117,-0.4661,-0.3466,0.5968,-0.3429,0.7251,0.0249
709,0.0,0.0,0.0,0.0,0.0,0.0,-0.8126,-0.4612,-0.3465,0.5969,-0.3430,0.7249,0.0241
710,0.0,0.0,0.0,0.0,0.0,0.0,-0.8180,-0.4652,-0.3473,0.5971,-0.3430,0.7248,0.0232
711,0.0,0.0,0.0,0.0,0.0,0.0,-0.8137,-0.4641,-0.3489,0.5972,-0.3432,0.7246,0.0222
712,0.0,0.0,0.0,0.0,0.0,0.0,-0.8148,-0.4754,-0.3457,0.5974,-0.3435,0.7244,0.0211
713,0.0,0.0,0.0,0.0,0.0,0.0,-0.8038,-0.4845,-0.3438,0.5977,-0.3440,0.7239,0.0196
714,0.0,0.0,0.0,0.0,0.0,0.0,-0.7887,-0.4799,-0.3451,0.5978,-0.3448,0.7235,0.0184
715,0.0,0.0,0.0,0.0,0.0,0.0,-0.7967,-0.4955,-0.3442,0.5981,-0.3455,0.7229,0.0174
716,0.0,0.0,0.0,0.0,0.0,0.0,-0.8002,-0.5043,-0.3433,0.5985,-0.3463,0.7222,0.0162
717,0.0,0.0,0.0,0.0,0.0,0.0,-0.7957,-0.4921,-0.3446,0.5989,-0.3467,0.7217,0.0149
718,0.0,0.0,0.0,0.0,0.0,0.0,-0.7944,-0.4964,-0.3457,0.5991,-0.3473,0.7213,0.0137
719,0.0,0.0,0.0,0.0,0.0,0.0,-0.7993,-0.5063,-0.3419,0.5996,-0.3480,0.7206,0.0128
720,0.0,0.0,0.0,0.0,0.0,0.0,-0.7906,-0.5037,-0.3450,0.5999,-0.3488,0.7199,0.0121
721,0.0,0.0,0.0,0.0,0.0,0.0,-0.7957,-0.4906,-0.3465,0.6000,-0.3493,0.7196,0.0116
722,0.0,0.0,0.0,0.0,0.0,0.0,-0.7868,-0.4783,-0.3471,0.5998,-0.3495,0.7197,0.0111
723,0.0,0.0,0.0,0.0,0.0,0.0,-0.7931,-0.5032,-0.3478,0.5998,-0.3501,0.7194,0.0108
724,0.0,0.0,0.0,0.0,0.0,0.0,-0.8002,-0.4984,-0.3470,0.5998,-0.3508,0.7190,0.0109
725,0.0,0.0,0.0,0.0,0.0,0.0,-0.8030,-0.4907,-0.3458,0.5998,-0.3515,0.7187,0.0110
726,0.0,0.0,0.0,0.0,0.0,0.0,-0.7969,-0.4785,-0.3463,0.5996,-0.3520,0.7186,0.0116
727,0.0,0.0,0.0,0.0,0.0,0.0,-0.7881,-0.4978,-0.3474,0.5994,-0.3529,0.7183,0.0125
728,0.0,0.0,0.0,0.0,0.0,0.0,-0.7814,-0.5011,-0.3457,0.5992,-0.3533,0.7184,0.0127
729,0.0,0.0,0.0,0.0,0.0,0.0,-0.7848,-0.5026,-0.3447,0.5991,-0.3539,0.7181,0.0127
730,0.0,0.0,0.0,0.0,0.0,0.0,-0.7950,-0.5062,-0.3454,0.5991,-0.3545,0.7178,0.0125
731,0.0,0.0,0.0,0.0,0.0,0.0,-0.7969,-0.5023,-0.3477,0.5991,-0.3549,0.7176,0.0122
732,0.0,0.0,0.0,0.0,0.0,0.0,-0.7973,-0.4945,-0.3485,0.5992,-0.3558,0.7171,0.0124
733,0.0,0.0,0.0,0.0,0.0,0.0,-0.7968,-0.4940,-0.3495,0.5991,-0.3568,0.7166,0.0126
734,0.0,0.0,0.0,0.0,0.0,0.0,-0.7916,-0.4978,-0.3502,0.5991,-0.3579,0.7162,0.0127
735,0.0,0.0,0.0,0.0,0.0,0.0,-0.7843,-0.4957,-0.3499,0.5988,-0.3588,0.7159,0.0125
736,0.0,0.0,0.0,0.0,0.0,0.0,-0.7868,-0.5006,-0.3480,0.5986,-0.3599,0.7156,0.0121
737,0.0,0.0,0.0,0.0,0.0,0.0,-0.7839,-0.5006,-0.3490,0.5983,-0.3610,0.7153,0.0117
738,0.0,0.0,0.0,0.0,0.0,0.0,-0.7837,-0.4914,-0.3489,0.5979,-0.3620,0.7151,0.0113
739,0.0,0.0,0.0,0.0,0.0,0.0,-0.7843,-0.4953,-0.3489,0.5975,-0.3631,0.7149,0.0108
740,0.0,0.0,0.0,0.0,0.0,0.0,-0.7797,-0.5029,-0.3536,0.5969,-0.3643,0.7147,0.0102
741,0.0,0.0,0.0,0.0,0.0,0.0,-0.7773,-0.5038,-0.3556,0.5963,-0.3658,0.7145,0.0096
742,0.0,0.0,0.0,0.0,0.0,0.0,-0.7759,-0.5047,-0.3566,0.5958,-0.3673,0.7142,0.0092
743,0.0,0.0,0.0,0.0,0.0,0.0,-0.7793,-0.5047,-0.3575,0.5952,-0.3686,0.7140,0.0085
744,0.0,0.0,0.0,0.0,0.0,0.0,-0.7832,-0.5028,-0.3593,0.5946,-0.3699,0.7139,0.0079
745,0.0,0.0,0.0,0.0,0.0,0.0,-0.7823,-0.5062,-0.3608,0.5940,-0.3710,0.7138,0.0075
746,0.0,0.0,0.0,0.0,0.0,0.0,-0.7836,-0.5188,-0.3620,0.5936,-0.3724,0.7134,0.0073
747,0.0,0.0,0.0,0.0,0.0,0.0,-0.7845,-0.5158,-0.3653,0.5932,-0.3736,0.7130,0.0069
748,0.0,0.0,0.0,0.0,0.0,0.0,-0.7890,-0.4980,-0.3634,0.5929,-0.3743,0.7130,0.0068
749,0.0,0.0,0.0,0.0,0.0,0.0,-0.7842,-0.5018,-0.3621,0.5925,-0.3749,0.7130,0.0071
750,0.0,0.0,0.0,0.0,0.0,0.0,-0.7805,-0.5065,-0.3647,0.5922,-0.3754,0.7129,0.0074
751,0.0,0.0,0.0,0.0,0.0,0.0,-0.7857,-0.4954,-0.3673,0.5920,-0.3757,0.7130,0.0080
752,0.0,0.0,0.0,0.0,0.0,0.0,-0.7850,-0.4867,-0.3662,0.5914,-0.3757,0.7134,0.0090
753,0.0,0.0,0.0,0.0,0.0,0.0,-0.7824,-0.5071,-0.3642,0.5911,-0.3758,0.7137,0.0104
754,0.0,0.0,0.0,0.0,0.0,0.0,-0.7796,-0.5075,-0.3667,0.5907,-0.3755,0.7141,0.0115
755,0.0,0.0,0.0,0.0,0.0,0.0,-0.7869,-0.4867,-0.3656,0.5902,-0.3751,0.7147,0.0130
756,0.0,0.0,0.0,0.0,0.0,0.0,-0.7936,-0.4864,-0.3596,0.5899,-0.3749,0.7151,0.0151
757,0.0,0.0,0.0,0.0,0.0,0.0,-0.7947,-0.4947,-0.3592,0.5896,-0.3744,0.7155,0.0170
758,0.0,0.0,0.0,0.0,0.0,0.0,-0.7924,-0.5039,-0.3585,0.5895,-0.3743,0.7156,0.0190
759,0.0,0.0,0.0,0.0,0.0,0.0,-0.7918,-0.4985,-0.3599,0.5895,-0.3742,0.7156,0.0210
760,0.0,0.0,0.0,0.0,0.0,0.0,-0.7842,-0.5043,-0.3588,0.5896,-0.3743,0.7154,0.0229
761,0.0,0.0,0.0,0.0,0.0,0.0,-0.7841,-0.5023,-0.3587,0.5899,-0.3746,0.7149,0.0244
762,0.0,0.0,0.0,0.0,0.0,0.0,-0.7883,-0.4922,-0.3565,0.5901,-0.3747,0.7147,0.0254
763,0.0,0.0,0.0,0.0,0.0,0.0,-0.7893,-0.4976,-0.3546,0.5903,-0.3749,0.7143,0.0261
764,0.0,0.0,0.0,0.0,0.0,0.0,-0.7916,-0.4948,-0.3540,0.5907,-0.3755,0.7137,0.0268
765,0.0,0.0,0.0,0.0,0.0,0.0,-0.7935,-0.4924,-0.3534,0.5913,-0.3762,0.7128,0.0272
766,0.0,0.0,0.0,0.0,0.0,0.0,-0.7893,-0.4981,-0.3551,0.5920,-0.3770,0.7118,0.0273
767,0.0,0.0,0.0,0.0,0.0,0.0,-0.7903,-0.4971,-0.3585,0.5926,-0.3776,0.7111,0.0265
768,0.0,0.0,0.0,0.0,0.0,0.0,-0.7855,-0.4970,-0.3576,0.5932,-0.3782,0.7102,0.0253
769,0.0,0.0,0.0,0.0,0.0,0.0,-0.7876,-0.4894,-0.3531,0.5939,-0.3790,0.7093,0.0239
770,0.0,0.0,0.0,0.0,0.0,0.0,-0.7872,-0.4918,-0.3551,0.5944,-0.3801,0.7083,0.0228
771,0.0,0.0,0.0,0.0,0.0,0.0,-0.7902,-0.4942,-0.3565,0.5949,-0.3813,0.7073,0.0219
772,0.0,0.0,0.0,0.0,0.0,0.0,-0.7850,-0.4965,-0.3586,0.5952,-0.3823,0.7065,0.0211
773,0.0,0.0,0.0,0.0,0.0,0.0,-0.7827,-0.4994,-0.3607,0.5954,-0.3835,0.7057,0.0205
774,0.0,0.0,0.0,0.0,0.0,0.0,-0.7775,-0.5051,-0.3614,0.5957,-0.3846,0.7049,0.0197
775,0.0,0.0,0.0,0.0,0.0,0.0,-0.7761,-0.4857,-0.3577,0.5958,-0.3851,0.7045,0.0186
776,0.0,0.0,0.0,0.0,0.0,0.0,-0.7797,-0.5033,-0.3545,0.5959,-0.3854,0.7043,0.0175
777,0.0,0.0,0.0,0.0,0.0,0.0,-0.7743,-0.4861,-0.3626,0.5956,-0.3852,0.7047,0.0164
778,0.0,0.0,0.0,0.0,0.0,0.0,-0.7729,-0.4637,-0.3642,0.5949,-0.3850,0.7054,0.0162
779,0.0,0.0,0.0,0.0,0.0,0.0,-0.7750,-0.4497,-0.3615,0.5938,-0.3844,0.7067,0.0162
780,0.0,0.0,0.0,0.0,0.0,0.0,-0.7762,-0.4367,-0.3597,0.5920,-0.3836,0.7087,0.0166
781,0.0,0.0,0.0,0.0,0.0,0.0,-0.7721,-0.4537,-0.3568,0.5899,-0.3835,0.7104,0.0177
782,0.0,0.0,0.0,0.0,0.0,0.0,-0.7693,-0.4861,-0.3575,0.5876,-0.3838,0.7121,0.0184
783,0.0,0.0,0.0,0.0,0.0,0.0,-0.7690,-0.5220,-0.3596,0.5855,-0.3848,0.7132,0.0185
784,0.0,0.0,0.0,0.0,0.0,0.0,-0.7576,-0.5533,-0.3644,0.5839,-0.3865,0.7137,0.0178
785,0.0,0.0,0.0,0.0,0.0,0.0,-0.7507,-0.5564,-0.3763,0.5823,-0.3892,0.7135,0.0166
786,0.0,0.0,0.0,0.0,0.0,0.0,-0.7550,-0.5763,-0.3780,0.5807,-0.3935,0.7126,0.0153
787,0.0,0.0,0.0,0.0,0.0,0.0,-0.7643,-0.6026,-0.3820,0.5802,-0.3958,0.7117,0.0126
788,0.0,0.0,0.0,0.0,0.0,0.0,-0.7636,-0.5810,-0.3908,0.5803,-0.3977,0.7106,0.0095
789,0.0,0.0,0.0,0.0,0.0,0.0,-0.7653,-0.5235,-0.4023,0.5801,-0.3985,0.7104,0.0066
790,0.0,0.0,0.0,0.0,0.0,0.0,-0.7678,-0.5265,-0.4023,0.5802,-0.3992,0.7100,0.0048
791,0.0,0.0,0.0,0.0,0.0,0.0,-0.7676,-0.5513,-0.3984,0.5806,-0.4000,0.7092,0.0037
792,0.0,0.0,0.0,0.0,0.0,0.0,-0.7529,-0.5365,-0.4015,0.5805,-0.4007,0.7088,0.0033
793,0.0,0.0,0.0,0.0,0.0,0.0,-0.7521,-0.5403,-0.4040,0.5805,-0.4011,0.7087,0.0030
794,0.0,0.0,0.0,0.0,0.0,0.0,-0.7527,-0.5234,-0.4027,0.5802,-0.4006,0.7091,0.0027
795,0.0,0.0,0.0,0.0,0.0,0.0,-0.7720,-0.4990,-0.3983,0.5801,-0.3997,0.7098,0.0029
796,0.0,0.0,0.0,0.0,0.0,0.0,-0.7776,-0.4962,-0.3932,0.5801,-0.3988,0.7102,0.0038
797,0.0,0.0,0.0,0.0,0.0,0.0,-0.7804,-0.5128,-0.3939,0.5803,-0.3981,0.7104,0.0047
798,0.0,0.0,0.0,0.0,0.0,0.0,-0.7757,-0.4952,-0.3928,0.5808,-0.3973,0.7105,0.0059
799,0.0,0.0,0.0,0.0,0.0,0.0,-0.7752,-0.4889,-0.3961,0.5810,-0.3963,0.7108,0.0068
800,0.0,0.0,0.0,0.0,0.0,0.0,-0.7784,-0.4861,-0.3925,0.5813,-0.3947,0.7115,0.0075
801,0.0,0.0,0.0,0.0,0.0,0.0,-0.7728,-0.4982,-0.3900,0.5818,-0.3930,0.7120,0.0085
802,0.0,0.0,0.0,0.0,0.0,0.0,-0.7638,-0.5121,-0.3891,0.5824,-0.3914,0.7124,0.0091
803,0.0,0.0,0.0,0.0,0.0,0.0,-0.7635,-0.4981,-0.3869,0.5829,-0.3896,0.7130,0.0095
804,0.0,0.0,0.0,0.0,0.0,0.0,-0.7664,-0.4972,-0.3873,0.5832,-0.3877,0.7138,0.0097
805,0.0,0.0,0.0,0.0,0.0,0.0,-0.7676,-0.4826,-0.3870,0.5834,-0.3854,0.7149,0.0096
806,0.0,0.0,0.0,0.0,0.0,0.0,-0.7679,-0.4788,-0.3835,0.5833,-0.3835,0.7160,0.0102
807,0.0,0.0,0.0,0.0,0.0,0.0,-0.7724,-0.4916,-0.3793,0.5833,-0.3814,0.7170,0.0103
808,0.0,0.0,0.0,0.0,0.0,0.0,-0.7762,-0.4946,-0.3744,0.5835,-0.3792,0.7181,0.0102
809,0.0,0.0,0.0,0.0,0.0,0.0,-0.7771,-0.4991,-0.3700,0.5839,-0.3773,0.7187,0.0105
810,0.0,0.0,0.0,0.0,0.0,0.0,-0.7713,-0.5005,-0.3669,0.5844,-0.3757,0.7192,0.0109
811,0.0,0.0,0.0,0.0,0.0,0.0,-0.7748,-0.5074,-0.3683,0.5849,-0.3741,0.7197,0.0109
812,0.0,0.0,0.0,0.0,0.0,0.0,-0.7873,-0.5031,-0.3693,0.5855,-0.3724,0.7200,0.0110
813,0.0,0.0,0.0,0.0,0.0,0.0,-0.7857,-0.4964,-0.3683,0.5861,-0.3708,0.7203,0.0112
814,0.0,0.0,0.0,0.0,0.0,0.0,-0.7795,-0.4962,-0.3694,0.5868,-0.3694,0.7205,0.0119
815,0.0,0.0,0.0,0.0,0.0,0.0,-0.7743,-0.5044,-0.3678,0.5874,-0.3679,0.7207,0.0121
816,0.0,0.0,0.0,0.0,0.0,0.0,-0.7809,-0.5031,-0.3647,0.5881,-0.3666,0.7208,0.0121
817,0.0,0.0,0.0,0.0,0.0,0.0,-0.7866,-0.4999,-0.3625,0.5888,-0.3653,0.7209,0.0123
818,0.0,0.0,0.0,0.0,0.0,0.0,-0.7845,-0.4926,-0.3619,0.5894,-0.3638,0.7212,0.0121
819,0.0,0.0,0.0,0.0,0.0,0.0,-0.7859,-0.4917,-0.3600,0.5901,-0.3625,0.7213,0.0125
820,0.0,0.0,0.0,0.0,0.0,0.0,-0.7835,-0.4985,-0.3568,0.5908,-0.3612,0.7213,0.0127
821,0.0,0.0,0.0,0.0,0.0,0.0,-0.7801,-0.4955,-0.3573,0.5915,-0.3600,0.7214,0.0127
822,0.0,0.0,0.0,0.0,0.0,0.0,-0.7817,-0.5028,-0.3574,0.5923,-0.3587,0.7214,0.0125
823,0.0,0.0,0.0,0.0,0.0,0.0,-0.7808,-0.5126,-0.3547,0.5932,-0.3575,0.7213,0.0120
824,0.0,0.0,0.0,0.0,0.0,0.0,-0.7850,-0.5336,-0.3506,0.5944,-0.3563,0.7208,0.0107
825,0.0,0.0,0.0,0.0,0.0,0.0,-0.7891,-0.5181,-0.3526,0.5957,-0.3547,0.7206,0.0085
826,0.0,0.0,0.0,0.0,0.0,0.0,-0.7928,-0.4866,-0.3495,0.5968,-0.3532,0.7204,0.0069
827,0.0,0.0,0.0,0.0,0.0,0.0,-0.7949,-0.4974,-0.3457,0.5981,-0.3525,0.7197,0.0057
828,0.0,0.0,0.0,0.0,0.0,0.0,-0.8010,-0.4907,-0.3454,0.5993,-0.3517,0.7191,0.0046
829,0.0,0.0,0.0,0.0,0.0,0.0,-0.7962,-0.4980,-0.3423,0.6005,-0.3514,0.7182,0.0039
830,0.0,0.0,0.0,0.0,0.0,0.0,-0.7912,-0.5174,-0.3394,0.6018,-0.3518,0.7170,0.0036
831,0.0,0.0,0.0,0.0,0.0,0.0,-0.7904,-0.5266,-0.3406,0.6029,-0.3519,0.7160,0.0025
832,0.0,0.0,0.0,0.0,0.0,0.0,-0.7847,-0.5314,-0.3399,0.6039,-0.3517,0.7153,0.0010
833,0.0,0.0,0.0,0.0,0.0,0.0,-0.7788,-0.5318,-0.3362,0.6050,-0.3517,0.7144,-0.0006
834,0.0,0.0,0.0,0.0,0.0,0.0,-0.7786,-0.5182,-0.3365,0.6058,-0.3515,0.7137,-0.0025
835,0.0,0.0,0.0,0.0,0.0,0.0,-0.7774,-0.5120,-0.3335,0.6065,-0.3516,0.7130,-0.0041
836,0.0,0.0,0.0,0.0,0.0,0.0,-0.7837,-0.5170,-0.3280,0.6073,-0.3521,0.7121,-0.0055
837,0.0,0.0,0.0,0.0,0.0,0.0,-0.7880,-0.5191,-0.3250,0.6083,-0.3526,0.7111,-0.0071
838,0.0,0.0,0.0,0.0,0.0,0.0,-0.7774,-0.5233,-0.3250,0.6091,-0.3534,0.7100,-0.0084
839,0.0,0.0,0.0,0.0,0.0,0.0,-0.7721,-0.5252,-0.3237,0.6098,-0.3541,0.7090,-0.0098
840,0.0,0.0,0.0,0.0,0.0,0.0,-0.7703,-0.5310,-0.3248,0.6104,-0.3546,0.7082,-0.0112
841,0.0,0.0,0.0,0.0,0.0,0.0,-0.7697,-0.5300,-0.3234,0.6111,-0.3551,0.7074,-0.0125
842,0.0,0.0,0.0,0.0,0.0,0.0,-0.7750,-0.5282,-0.3213,0.6116,-0.3554,0.7068,-0.0138
843,0.0,0.0,0.0,0.0,0.0,0.0,-0.7715,-0.5262,-0.3199,0.6119,-0.3558,0.7062,-0.0147
844,0.0,0.0,0.0,0.0,0.0,0.0,-0.7716,-0.5266,-0.3228,0.6121,-0.3564,0.7058,-0.0153
845,0.0,0.0,0.0,0.0,0.0,0.0,-0.7679,-0.5343,-0.3240,0.6120,-0.3571,0.7055,-0.0156
846,0.0,0.0,0.0,0.0,0.0,0.0,-0.7637,-0.5376,-0.3257,0.6116,-0.3578,0.7055,-0.0159
847,0.0,0.0,0.0,0.0,0.0,0.0,-0.7648,-0.5435,-0.3267,0.6111,-0.3586,0.7055,-0.0158
848,0.0,0.0,0.0,0.0,0.0,0.0,-0.7669,-0.5541,-0.3288,0.6105,-0.3594,0.7056,-0.0156
849,0.0,0.0,0.0,0.0,0.0,0.0,-0.7635,-0.5561,-0.3274,0.6099,-0.3601,0.7058,-0.0154
850,0.0,0.0,0.0,0.0,0.0,0.0,-0.7644,-0.5527,-0.3269,0.6092,-0.3600,0.7064,-0.0154
851,0.0,0.0,0.0,0.0,0.0,0.0,-0.7640,-0.5517,-0.3278,0.6085,-0.3601,0.7070,-0.0151
852,0.0,0.0,0.0,0.0,0.0,0.0,-0.7606,-0.5482,-0.3293,0.6077,-0.3603,0.7075,-0.0145
853,0.0,0.0,0.0,0.0,0.0,0.0,-0.7611,-0.5497,-0.3303,0.6070,-0.3606,0.7080,-0.0140
854,0.0,0.0,0.0,0.0,0.0,0.0,-0.7655,-0.5487,-0.3316,0.6062,-0.3612,0.7084,-0.0132
855,0.0,0.0,0.0,0.0,0.0,0.0,-0.7698,-0.5507,-0.3320,0.6056,-0.3617,0.7087,-0.0126
856,0.0,0.0,0.0,0.0,0.0,0.0,-0.7703,-0.5497,-0.3320,0.6050,-0.3622,0.7089,-0.0119
857,0.0,0.0,0.0,0.0,0.0,0.0,-0.7694,-0.5483,-0.3334,0.6046,-0.3630,0.7089,-0.0111
858,0.0,0.0,0.0,0.0,0.0,0.0,-0.7660,-0.5487,-0.3345,0.6043,-0.3638,0.7088,-0.0106
859,0.0,0.0,0.0,0.0,0.0,0.0,-0.7626,-0.5476,-0.3346,0.6039,-0.3647,0.7086,-0.0099
860,0.0,0.0,0.0,0.0,0.0,0.0,-0.7625,-0.5418,-0.3340,0.6036,-0.3658,0.7083,-0.0092
861,0.0,0.0,0.0,0.0,0.0,0.0,-0.7614,-0.5365,-0.3344,0.6031,-0.3668,0.7083,-0.0088
862,0.0,0.0,0.0,0.0,0.0,0.0,-0.7653,-0.5399,-0.3334,0.6028,-0.3678,0.7081,-0.0083
863,0.0,0.0,0.0,0.0,0.0,0.0,-0.7693,-0.5473,-0.3329,0.6023,-0.3684,0.7081,-0.0080
864,0.0,0.0,0.0,0.0,0.0,0.0,-0.7659,-0.5463,-0.3340,0.6017,-0.3688,0.7085,-0.0080
865,0.0,0.0,0.0,0.0,0.0,0.0,-0.7590,-0.5320,-0.3359,0.6009,-0.3691,0.7089,-0.0079
866,0.0,0.0,0.0,0.0,0.0,0.0,-0.7560,-0.5266,-0.3383,0.5999,-0.3697,0.7095,-0.0075
867,0.0,0.0,0.0,0.0,0.0,0.0,-0.7604,-0.5276,-0.3401,0.5989,-0.3705,0.7099,-0.0067
868,0.0,0.0,0.0,0.0,0.0,0.0,-0.7711,-0.5214,-0.3435,0.5977,-0.3708,0.7108,-0.0060
869,0.0,0.0,0.0,0.0,0.0,0.0,-0.7681,-0.5130,-0.3473,0.5963,-0.3711,0.7119,-0.0049
870,0.0,0.0,0.0,0.0,0.0,0.0,-0.7687,-0.5174,-0.3489,0.5945,-0.3715,0.7132,-0.0036
871,0.0,0.0,0.0,0.0,0.0,0.0,-0.7677,-0.5134,-0.3522,0.5925,-0.3716,0.7148,-0.0021
872,0.0,0.0,0.0,0.0,0.0,0.0,-0.7787,-0.4994,-0.3564,0.5903,-0.3715,0.7166,-0.0002
873,0.0,0.0,0.0,0.0,0.0,0.0,-0.7946,-0.4883,-0.3625,0.5880,-0.3713,0.7186,0.0022
874,0.0,0.0,0.0,0.0,0.0,0.0,-0.7949,-0.4936,-0.3689,0.5856,-0.3715,0.7204,0.0051
875,0.0,0.0,0.0,0.0,0.0,0.0,-0.7923,-0.5021,-0.3745,0.5833,-0.3728,0.7216,0.0090
876,0.0,0.0,0.0,0.0,0.0,0.0,-0.7931,-0.4885,-0.3790,0.5810,-0.3747,0.7224,0.0135
877,0.0,0.0,0.0,0.0,0.0,0.0,-0.7998,-0.4832,-0.3802,0.5788,-0.3772,0.7227,0.0183
878,0.0,0.0,0.0,0.0,0.0,0.0,-0.8097,-0.4945,-0.3810,0.5771,-0.3805,0.7223,0.0236
879,0.0,0.0,0.0,0.0,0.0,0.0,-0.8043,-0.4826,-0.3883,0.5756,-0.3833,0.7218,0.0285
880,0.0,0.0,0.0,0.0,0.0,0.0,-0.8061,-0.4656,-0.3918,0.5741,-0.3855,0.7216,0.0328
881,0.0,0.0,0.0,0.0,0.0,0.0,-0.7953,-0.4804,-0.3972,0.5729,-0.3883,0.7209,0.0375
882,0.0,0.0,0.0,0.0,0.0,0.0,-0.7955,-0.4867,-0.3998,0.5717,-0.3907,0.7203,0.0414
883,0.0,0.0,0.0,0.0,0.0,0.0,-0.8015,-0.4732,-0.3974,0.5708,-0.3926,0.7197,0.0446
884,0.0,0.0,0.0,0.0,0.0,0.0,-0.8044,-0.4500,-0.3940,0.5700,-0.3937,0.7196,0.0477
885,0.0,0.0,0.0,0.0,0.0,0.0,-0.8171,-0.4386,-0.3904,0.5695,-0.3944,0.7193,0.0515
886,0.0,0.0,0.0,0.0,0.0,0.0,-0.8075,-0.4191,-0.3860,0.5690,-0.3948,0.7192,0.0557
887,0.0,0.0,0.0,0.0,0.0,0.0,-0.8009,-0.4168,-0.3746,0.5688,-0.3949,0.7190,0.0599
888,0.0,0.0,0.0,0.0,0.0,0.0,-0.8081,-0.4427,-0.3724,0.5691,-0.3953,0.7182,0.0638
889,0.0,0.0,0.0,0.0,0.0,0.0,-0.8129,-0.4433,-0.3727,0.5699,-0.3955,0.7171,0.0672
890,0.0,0.0,0.0,0.0,0.0,0.0,-0.8216,-0.4439,-0.3705,0.5711,-0.3953,0.7160,0.0696
891,0.0,0.0,0.0,0.0,0.0,0.0,-0.8441,-0.3995,-0.3758,0.5722,-0.3937,0.7160,0.0704
892,0.0,0.0,0.0,0.0,0.0,0.0,-0.8445,-0.3626,-0.3775,0.5728,-0.3912,0.7169,0.0709
893,0.0,0.0,0.0,0.0,0.0,0.0,-0.8368,-0.3515,-0.3684,0.5731,-0.3883,0.7181,0.0715
894,0.0,0.0,0.0,0.0,0.0,0.0,-0.8330,-0.3641,-0.3629,0.5735,-0.3858,0.7191,0.0722
895,0.0,0.0,0.0,0.0,0.0,0.0,-0.8228,-0.3932,-0.3575,0.5741,-0.3842,0.7194,0.0731
896,0.0,0.0,0.0,0.0,0.0,0.0,-0.8199,-0.4159,-0.3599,0.5747,-0.3830,0.7195,0.0733
897,0.0,0.0,0.0,0.0,0.0,0.0,-0.8364,-0.3904,-0.3628,0.5752,-0.3808,0.7204,0.0724
898,0.0,0.0,0.0,0.0,0.0,0.0,-0.8374,-0.3612,-0.3647,0.5752,-0.3780,0.7219,0.0714
899,0.0,0.0,0.0,0.0,0.0,0.0,-0.8456,-0.3638,-0.3635,0.5749,-0.3754,0.7236,0.0709
900,0.0,0.0,0.0,0.0,0.0,0.0,-0.8508,-0.3798,-0.3665,0.5747,-0.3730,0.7250,0.0703
901,0.0,0.0,0.0,0.0,0.0,0.0,-0.8576,-0.3760,-0.3687,0.5745,-0.3708,0.7263,0.0698
902,0.0,0.0,0.0,0.0,0.0,0.0,-0.8631,-0.3635,-0.3673,0.5744,-0.3684,0.7277,0.0691
903,0.0,0.0,0.0,0.0,0.0,0.0,-0.8580,-0.3479,-0.3681,0.5745,-0.3657,0.7291,0.0687
904,0.0,0.0,0.0,0.0,0.0,0.0,-0.8561,-0.3513,-0.3683,0.5745,-0.3627,0.7306,0.0682
905,0.0,0.0,0.0,0.0,0.0,0.0,-0.8562,-0.3576,-0.3664,0.5748,-0.3595,0.7320,0.0675
906,0.0,0.0,0.0,0.0,0.0,0.0,-0.8396,-0.3660,-0.3734,0.5750,-0.3565,0.7334,0.0667
907,0.0,0.0,0.0,0.0,0.0,0.0,-0.8278,-0.3715,-0.3811,0.5750,-0.3539,0.7348,0.0653
908,0.0,0.0,0.0,0.0,0.0,0.0,-0.8445,-0.3684,-0.3748,0.5754,-0.3515,0.7357,0.0634
909,0.0,0.0,0.0,0.0,0.0,0.0,-0.8518,-0.3506,-0.3713,0.5760,-0.3493,0.7365,0.0614
910,0.0,0.0,0.0,0.0,0.0,0.0,-0.8591,-0.3507,-0.3725,0.5769,-0.3476,0.7369,0.0590
911,0.0,0.0,0.0,0.0,0.0,0.0,-0.8714,-0.3621,-0.3709,0.5782,-0.3463,0.7366,0.0563
912,0.0,0.0,0.0,0.0,0.0,0.0,-0.8587,-0.3472,-0.3773,0.5795,-0.3448,0.7365,0.0531
913,0.0,0.0,0.0,0.0,0.0,0.0,-0.8399,-0.3607,-0.3709,0.5808,-0.3437,0.7363,0.0496
914,0.0,0.0,0.0,0.0,0.0,0.0,-0.8327,-0.3882,-0.3706,0.5822,-0.3435,0.7355,0.0458
915,0.0,0.0,0.0,0.0,0.0,0.0,-0.8283,-0.3843,-0.3722,0.5835,-0.3434,0.7348,0.0419
916,0.0,0.0,0.0,0.0,0.0,0.0,-0.8293,-0.3877,-0.3698,0.5847,-0.3431,0.7341,0.0380
917,0.0,0.0,0.0,0.0,0.0,0.0,-0.8325,-0.3864,-0.3667,0.5858,-0.3424,0.7338,0.0338
918,0.0,0.0,0.0,0.0,0.0,0.0,-0.8262,-0.3863,-0.3645,0.5866,-0.3410,0.7339,0.0298
919,0.0,0.0,0.0,0.0,0.0,0.0,-0.8237,-0.4007,-0.3702,0.5872,-0.3398,0.7342,0.0264
920,0.0,0.0,0.0,0.0,0.0,0.0,-0.8238,-0.4041,-0.3736,0.5874,-0.3383,0.7348,0.0237
921,0.0,0.0,0.0,0.0,0.0,0.0,-0.8182,-0.4108,-0.3734,0.5875,-0.3367,0.7355,0.0216
922,0.0,0.0,0.0,0.0,0.0,0.0,-0.8234,-0.4322,-0.3732,0.5877,-0.3351,0.7362,0.0198
923,0.0,0.0,0.0,0.0,0.0,0.0,-0.8220,-0.4337,-0.3733,0.5877,-0.3330,0.7372,0.0180
924,0.0,0.0,0.0,0.0,0.0,0.0,-0.8166,-0.4302,-0.3729,0.5877,-0.3306,0.7383,0.0165
925,0.0,0.0,0.0,0.0,0.0,0.0,-0.8146,-0.4316,-0.3725,0.5876,-0.3281,0.7395,0.0154
926,0.0,0.0,0.0,0.0,0.0,0.0,-0.8206,-0.4395,-0.3734,0.5876,-0.3255,0.7407,0.0144
927,0.0,0.0,0.0,0.0,0.0,0.0,-0.8270,-0.4454,-0.3738,0.5878,-0.3230,0.7415,0.0138
928,0.0,0.0,0.0,0.0,0.0,0.0,-0.8164,-0.4481,-0.3742,0.5881,-0.3202,0.7426,0.0130
929,0.0,0.0,0.0,0.0,0.0,0.0,-0.8136,-0.4485,-0.3786,0.5883,-0.3171,0.7438,0.0121
930,0.0,0.0,0.0,0.0,0.0,0.0,-0.8165,-0.4461,-0.3799,0.5886,-0.3136,0.7450,0.0117
931,0.0,0.0,0.0,0.0,0.0,0.0,-0.8179,-0.4476,-0.3765,0.5890,-0.3101,0.7462,0.0113
932,0.0,0.0,0.0,0.0,0.0,0.0,-0.8215,-0.4336,-0.3762,0.5892,-0.3060,0.7477,0.0104
933,0.0,0.0,0.0,0.0,0.0,0.0,-0.8251,-0.4309,-0.3668,0.5899,-0.3023,0.7487,0.0103
934,0.0,0.0,0.0,0.0,0.0,0.0,-0.8132,-0.4494,-0.3588,0.5908,-0.2991,0.7492,0.0104
935,0.0,0.0,0.0,0.0,0.0,0.0,-0.8257,-0.4545,-0.3517,0.5920,-0.2959,0.7496,0.0097
936,0.0,0.0,0.0,0.0,0.0,0.0,-0.8307,-0.4440,-0.3490,0.5935,-0.2926,0.7497,0.0089
937,0.0,0.0,0.0,0.0,0.0,0.0,-0.8238,-0.4420,-0.3453,0.5949,-0.2895,0.7498,0.0077
938,0.0,0.0,0.0,0.0,0.0,0.0,-0.8199,-0.4469,-0.3406,0.5966,-0.2873,0.7494,0.0069
939,0.0,0.0,0.0,0.0,0.0,0.0,-0.8247,-0.4500,-0.3352,0.5983,-0.2856,0.7486,0.0059
940,0.0,0.0,0.0,0.0,0.0,0.0,-0.8294,-0.4536,-0.3288,0.6002,-0.2841,0.7477,0.0043
941,0.0,0.0,0.0,0.0,0.0,0.0,-0.8221,-0.4477,-0.3285,0.6020,-0.2832,0.7466,0.0031
942,0.0,0.0,0.0,0.0,0.0,0.0,-0.8182,-0.4520,-0.3263,0.6039,-0.2835,0.7449,0.0023
943,0.0,0.0,0.0,0.0,0.0,0.0,-0.8216,-0.4555,-0.3223,0.6056,-0.2841,0.7433,0.0005
944,0.0,0.0,0.0,0.0,0.0,0.0,-0.8324,-0.4480,-0.3160,0.6072,-0.2852,0.7416,-0.0014
945,0.0,0.0,0.0,0.0,0.0,0.0,-0.8413,-0.4351,-0.3121,0.6089,-0.2869,0.7396,-0.0030
946,0.0,0.0,0.0,0.0,0.0,0.0,-0.8456,-0.4071,-0.3115,0.6101,-0.2888,0.7378,-0.0041
947,0.0,0.0,0.0,0.0,0.0,0.0,-0.8316,-0.4068,-0.3139,0.6107,-0.2914,0.7362,-0.0040
948,0.0,0.0,0.0,0.0,0.0,0.0,-0.8181,-0.4284,-0.3195,0.6109,-0.2953,0.7346,-0.0031
949,0.0,0.0,0.0,0.0,0.0,0.0,-0.8128,-0.4520,-0.3221,0.6108,-0.3004,0.7326,-0.0014
950,0.0,0.0,0.0,0.0,0.0,0.0,-0.8062,-0.4636,-0.3225,0.6104,-0.3058,0.7306,0.0004
951,0.0,0.0,0.0,0.0,0.0,0.0,-0.8053,-0.4684,-0.3211,0.6099,-0.3114,0.7288,0.0021
952,0.0,0.0,0.0,0.0,0.0,0.0,-0.8054,-0.4743,-0.3208,0.6092,-0.3172,0.7268,0.0037
953,0.0,0.0,0.0,0.0,0.0,0.0,-0.8119,-0.4801,-0.3231,0.6085,-0.3231,0.7248,0.0053
954,0.0,0.0,0.0,0.0,0.0,0.0,-0.8116,-0.4878,-0.3257,0.6078,-0.3287,0.7228,0.0068
955,0.0,0.0,0.0,0.0,0.0,0.0,-0.8032,-0.4983,-0.3319,0.6071,-0.3341,0.7209,0.0079
956,0.0,0.0,0.0,0.0,0.0,0.0,-0.7967,-0.5044,-0.3371,0.6064,-0.3395,0.7190,0.0090
957,0.0,0.0,0.0,0.0,0.0,0.0,-0.7954,-0.5082,-0.3401,0.6058,-0.3445,0.7171,0.0103
958,0.0,0.0,0.0,0.0,0.0,0.0,-0.7983,-0.5077,-0.3410,0.6054,-0.3489,0.7153,0.0115
959,0.0,0.0,0.0,0.0,0.0,0.0,-0.7936,-0.5115,-0.3431,0.6050,-0.3527,0.7138,0.0129
960,0.0,0.0,0.0,0.0,0.0,0.0,-0.7912,-0.5178,-0.3409,0.6048,-0.3560,0.7122,0.0143
961,0.0,0.0,0.0,0.0,0.0,0.0,-0.7926,-0.5174,-0.3379,0.6046,-0.3585,0.7112,0.0154
962,0.0,0.0,0.0,0.0,0.0,0.0,-0.7882,-0.5213,-0.3348,0.6046,-0.3603,0.7102,0.0164
963,0.0,0.0,0.0,0.0,0.0,0.0,-0.7867,-0.5179,-0.3352,0.6047,-0.3620,0.7092,0.0175
964,0.0,0.0,0.0,0.0,0.0,0.0,-0.7919,-0.5092,-0.3354,0.6047,-0.3629,0.7087,0.0184
965,0.0,0.0,0.0,0.0,0.0,0.0,-0.7875,-0.5063,-0.3350,0.6046,-0.3633,0.7086,0.0189
966,0.0,0.0,0.0,0.0,0.0,0.0,-0.7903,-0.5034,-0.3334,0.6046,-0.3634,0.7086,0.0196
967,0.0,0.0,0.0,0.0,0.0,0.0,-0.7937,-0.5040,-0.3314,0.6045,-0.3631,0.7087,0.0201
968,0.0,0.0,0.0,0.0,0.0,0.0,-0.7960,-0.5011,-0.3303,0.6045,-0.3626,0.7090,0.0205
969,0.0,0.0,0.0,0.0,0.0,0.0,-0.7978,-0.4963,-0.3292,0.6044,-0.3621,0.7094,0.0206
970,0.0,0.0,0.0,0.0,0.0,0.0,-0.7982,-0.4934,-0.3286,0.6044,-0.3614,0.7098,0.0204
971,0.0,0.0,0.0,0.0,0.0,0.0,-0.7988,-0.4958,-0.3296,0.6043,-0.3607,0.7102,0.0202
972,0.0,0.0,0.0,0.0,0.0,0.0,-0.7998,-0.4948,-0.3325,0.6041,-0.3599,0.7107,0.0199
973,0.0,0.0,0.0,0.0,0.0,0.0,-0.8017,-0.4909,-0.3338,0.6038,-0.3592,0.7113,0.0196
974,0.0,0.0,0.0,0.0,0.0,0.0,-0.8060,-0.4881,-0.3336,0.6036,-0.3584,0.7119,0.0192
975,0.0,0.0,0.0,0.0,0.0,0.0,-0.8055,-0.4866,-0.3331,0.6034,-0.3574,0.7126,0.0188
976,0.0,0.0,0.0,0.0,0.0,0.0,-0.8069,-0.4837,-0.3349,0.6032,-0.3566,0.7132,0.0185
977,0.0,0.0,0.0,0.0,0.0,0.0,-0.8069,-0.4827,-0.3369,0.6028,-0.3559,0.7139,0.0183
978,0.0,0.0,0.0,0.0,0.0,0.0,-0.8070,-0.4846,-0.3379,0.6024,-0.3555,0.7144,0.0183
979,0.0,0.0,0.0,0.0,0.0,0.0,-0.8089,-0.4827,-0.3382,0.6022,-0.3551,0.7148,0.0183
980,0.0,0.0,0.0,0.0,0.0,0.0,-0.8107,-0.4764,-0.3381,0.6020,-0.3544,0.7153,0.0180
981,0.0,0.0,0.0,0.0,0.0,0.0,-0.8107,-0.4764,-0.3381,0.6019,-0.3541,0.7155,0.0182
982,0.0,0.0,0.0,0.0,0.0,0.0,-0.8107,-0.4745,-0.3376,0.6019,-0.3537,0.7158,0.0181
983,0.0,0.0,0.0,0.0,0.0,0.0,-0.8097,-0.4701,-0.3390,0.6017,-0.3531,0.7162,0.0180
984,0.0,0.0,0.0,0.0,0.0,0.0,-0.8062,-0.4652,-0.3395,0.6015,-0.3531,0.7163,0.0185
985,0.0,0.0,0.0,0.0,0.0,0.0,-0.8053,-0.4607,-0.3438,0.6012,-0.3530,0.7167,0.0184
986,0.0,0.0,0.0,0.0,0.0,0.0,-0.8067,-0.4573,-0.3461,0.6007,-0.3529,0.7171,0.0182
987,0.0,0.0,0.0,0.0,0.0,0.0,-0.8075,-0.4500,-0.3454,0.6002,-0.3531,0.7174,0.0186
988,0.0,0.0,0.0,0.0,0.0,0.0,-0.8098,-0.4398,-0.3466,0.5995,-0.3531,0.7180,0.0187
989,0.0,0.0,0.0,0.0,0.0,0.0,-0.8179,-0.4297,-0.3481,0.5987,-0.3530,0.7187,0.0190
990,0.0,0.0,0.0,0.0,0.0,0.0,-0.8291,-0.4328,-0.3488,0.5980,-0.3531,0.7193,0.0197
991,0.0,0.0,0.0,0.0,0.0,0.0,-0.8292,-0.4430,-0.3470,0.5974,-0.3531,0.7197,0.0199
992,0.0,0.0,0.0,0.0,0.0,0.0,-0.8257,-0.4653,-0.3461,0.5970,-0.3534,0.7199,0.0201
993,0.0,0.0,0.0,0.0,0.0,0.0,-0.8108,-0.4937,-0.3466,0.5968,-0.3543,0.7196,0.0204
994,0.0,0.0,0.0,0.0,0.0,0.0,-0.7994,-0.5067,-0.3467,0.5970,-0.3552,0.7191,0.0202
995,0.0,0.0,0.0,0.0,0.0,0.0,-0.7947,-0.5148,-0.3475,0.5973,-0.3555,0.7187,0.0190
996,0.0,0.0,0.0,0.0,0.0,0.0,-0.7914,-0.5167,-0.3481,0.5979,-0.3558,0.7181,0.0178
997,0.0,0.0,0.0,0.0,0.0,0.0,-0.7856,-0.5157,-0.3488,0.5986,-0.3560,0.7174,0.0166
998,0.0,0.0,0.0,0.0,0.0,0.0,-0.7850,-0.5137,-0.3468,0.5994,-0.3560,0.7168,0.0152
999,0.0,0.0,0.0,0.0,0.0,0.0,-0.7921,-0.5086,-0.3421,0.6002,-0.3557,0.7163,0.0140
1000,0.0,0.0,0.0,0.0,0.0,0.0,-0.7952,-0.5049,-0.3352,0.6010,-0.3556,0.7156,0.0131
1001,0.0,0.0,0.0,0.0,0.0,0.0,-0.7995,-0.5031,-0.3321,0.6017,-0.3552,0.7153,0.0123
1002,0.0,0.0,0.0,0.0,0.0,0.0,-0.8008,-0.4988,-0.3310,0.6024,-0.3550,0.7148,0.0119
1003,0.0,0.0,0.0,0.0,0.0,0.0,-0.7934,-0.4919,-0.3292,0.6028,-0.3555,0.7142,0.0122
1004,0.0,0.0,0.0,0.0,0.0,0.0,-0.7910,-0.4923,-0.3288,0.6029,-0.3560,0.7139,0.0122
1005,0.0,0.0,0.0,0.0,0.0,0.0,-0.7876,-0.4957,-0.3290,0.6026,-0.3569,0.7136,0.0124
1006,0.0,0.0,0.0,0.0,0.0,0.0,-0.7858,-0.5025,-0.3292,0.6023,-0.3583,0.7132,0.0131
1007,0.0,0.0,0.0,0.0,0.0,0.0,-0.7908,-0.5068,-0.3320,0.6022,-0.3598,0.7126,0.0140
1008,0.0,0.0,0.0,0.0,0.0,0.0,-0.7919,-0.5063,-0.3363,0.6019,-0.3613,0.7120,0.0147
1009,0.0,0.0,0.0,0.0,0.0,0.0,-0.7877,-0.5061,-0.3418,0.6015,-0.3627,0.7116,0.0153
1010,0.0,0.0,0.0,0.0,0.0,0.0,-0.7814,-0.5040,-0.3458,0.6010,-0.3641,0.7113,0.0156
1011,0.0,0.0,0.0,0.0,0.0,0.0,-0.7810,-0.5010,-0.3491,0.6003,-0.3656,0.7111,0.0158
1012,0.0,0.0,0.0,0.0,0.0,0.0,-0.7829,-0.5011,-0.3491,0.5995,-0.3669,0.7112,0.0157
1013,0.0,0.0,0.0,0.0,0.0,0.0,-0.7863,-0.5011,-0.3504,0.5988,-0.3680,0.7112,0.0153
1014,0.0,0.0,0.0,0.0,0.0,0.0,-0.7911,-0.4978,-0.3497,0.5981,-0.3689,0.7113,0.0150
1015,0.0,0.0,0.0,0.0,0.0,0.0,-0.7968,-0.4935,-0.3500,0.5976,-0.3697,0.7113,0.0148
1016,0.0,0.0,0.0,0.0,0.0,0.0,-0.8031,-0.4891,-0.3526,0.5973,-0.3702,0.7114,0.0149
1017,0.0,0.0,0.0,0.0,0.0,0.0,-0.8084,-0.4892,-0.3534,0.5969,-0.3706,0.7114,0.0153
1018,0.0,0.0,0.0,0.0,0.0,0.0,-0.8113,-0.4883,-0.3523,0.5968,-0.3709,0.7113,0.0161
1019,0.0,0.0,0.0,0.0,0.0,0.0,-0.8069,-0.4853,-0.3534,0.5967,-0.3713,0.7111,0.0172
1020,0.0,0.0,0.0,0.0,0.0,0.0,-0.8030,-0.4833,-0.3530,0.5967,-0.3716,0.7110,0.0184
1021,0.0,0.0,0.0,0.0,0.0,0.0,-0.8053,-0.4809,-0.3514,0.5967,-0.3717,0.7109,0.0195
1022,0.0,0.0,0.0,0.0,0.0,0.0,-0.8044,-0.4805,-0.3509,0.5966,-0.3719,0.7109,0.0204
1023,0.0,0.0,0.0,0.0,0.0,0.0,-0.7999,-0.4775,-0.3481,0.5967,-0.3722,0.7107,0.0214
1024,0.0,0.0,0.0,0.0,0.0,0.0,-0.7969,-0.4741,-0.3467,0.5967,-0.3726,0.7103,0.0224
1025,0.0,0.0,0.0,0.0,0.0,0.0,-0.8022,-0.4727,-0.3470,0.5967,-0.3728,0.7103,0.0230
1026,0.0,0.0,0.0,0.0,0.0,0.0,-0.8027,-0.4766,-0.3461,0.5967,-0.3727,0.7103,0.0232
1027,0.0,0.0,0.0,0.0,0.0,0.0,-0.7979,-0.4780,-0.3467,0.5967,-0.3730,0.7101,0.0236
1028,0.0,0.0,0.0,0.0,0.0,0.0,-0.7970,-0.4814,-0.3459,0.5968,-0.3735,0.7098,0.0240
1029,0.0,0.0,0.0,0.0,0.0,0.0,-0.7985,-0.4853,-0.3449,0.5970,-0.3736,0.7096,0.0239
1030,0.0,0.0,0.0,0.0,0.0,0.0,-0.7990,-0.4873,-0.3435,0.5972,-0.3738,0.7093,0.0236
1031,0.0,0.0,0.0,0.0,0.0,0.0,-0.7995,-0.4922,-0.3421,0.5977,-0.3741,0.7087,0.0235
1032,0.0,0.0,0.0,0.0,0.0,0.0,-0.7983,-0.3704,-0.3409,0.5974,-0.3726,0.7098,0.0229
1033,0.0,0.0,0.0,0.0,0.0,0.0,-0.8015,-0.4932,-0.3425,0.5978,-0.3727,0.7094,0.0223
1034,0.0,0.0,0.0,0.0,0.0,0.0,-0.8024,-0.4913,-0.3420,0.5983,-0.3730,0.7088,0.0222
1035,0.0,0.0,0.0,0.0,0.0,0.0,-0.8009,-0.4903,-0.3411,0.5988,-0.3731,0.7083,0.0220
1036,0.0,0.0,0.0,0.0,0.0,0.0,-0.8000,-0.4932,-0.3411,0.5992,-0.3731,0.7080,0.0217
1037,0.0,0.0,0.0,0.0,0.0,0.0,-0.7985,-0.4971,-0.3379,0.5997,-0.3734,0.7075,0.0215
1038,0.0,0.0,0.0,0.0,0.0,0.0,-0.7985,-0.4996,-0.3360,0.6001,-0.3738,0.7069,0.0214
1039,0.0,0.0,0.0,0.0,0.0,0.0,-0.7985,-0.5016,-0.3336,0.6007,-0.3742,0.7062,0.0215
1040,0.0,0.0,0.0,0.0,0.0,0.0,-0.7956,-0.5040,-0.3318,0.6012,-0.3747,0.7055,0.0215
