,Position_X,Position_Y,Position_Z,Velocity_X,Velocity_Y,Velocity_Z,Acceleration_X,Acceleration_Y,Acceleration_Z,Quaterion_0,Quaterion_1,Quaterion_2,Quaterion_3
51,0.0,0.0,0.0,0.0,0.0,0.0,0.0325,0.9642,0.2883,0.4740,0.3928,-0.4971,-0.6115
52,0.0,0.0,0.0,0.0,0.0,0.0,0.0320,0.9599,0.2912,0.4742,0.3917,-0.4968,-0.6123
53,0.0,0.0,0.0,0.0,0.0,0.0,0.0290,0.9521,0.2931,0.4746,0.3906,-0.4962,-0.6132
54,0.0,0.0,0.0,0.0,0.0,0.0,0.0256,0.9444,0.2936,0.4752,0.3895,-0.4953,-0.6141
55,0.0,0.0,0.0,0.0,0.0,0.0,0.0221,0.9396,0.2941,0.4760,0.3886,-0.4945,-0.6148
56,0.0,0.0,0.0,0.0,0.0,0.0,0.0163,0.9391,0.2961,0.4766,0.3879,-0.4938,-0.6153
57,0.0,0.0,0.0,0.0,0.0,0.0,0.0104,0.9406,0.2980,0.4773,0.3873,-0.4932,-0.6156
58,0.0,0.0,0.0,0.0,0.0,0.0,0.0090,0.9407,0.2975,0.4780,0.3869,-0.4927,-0.6157
59,0.0,0.0,0.0,0.0,0.0,0.0,0.0070,0.9397,0.2970,0.4786,0.3865,-0.4922,-0.6158
60,0.0,0.0,0.0,0.0,0.0,0.0,0.0117,0.9068,0.2771,0.4788,0.3860,-0.4924,-0.6158
61,0.0,0.0,0.0,0.0,0.0,0.0,0.0187,0.9285,0.2810,0.4790,0.3856,-0.4931,-0.6155
62,0.0,0.0,0.0,0.0,0.0,0.0,0.0013,0.9577,0.2858,0.4787,0.3857,-0.4938,-0.6150
63,0.0,0.0,0.0,0.0,0.0,0.0,0.0154,0.9576,0.2829,0.4782,0.3858,-0.4948,-0.6146
64,0.0,0.0,0.0,0.0,0.0,0.0,0.0151,0.9828,0.2888,0.4777,0.3858,-0.4955,-0.6143
65,0.0,0.0,0.0,0.0,0.0,0.0,0.0224,0.9793,0.2873,0.4773,0.3855,-0.4960,-0.6144
66,0.0,0.0,0.0,0.0,0.0,0.0,0.0316,0.9720,0.2863,0.4771,0.3853,-0.4966,-0.6142
67,0.0,0.0,0.0,0.0,0.0,0.0,0.0374,0.9681,0.2883,0.4772,0.3850,-0.4969,-0.6141
68,0.0,0.0,0.0,0.0,0.0,0.0,0.0369,0.9637,0.2883,0.4774,0.3847,-0.4968,-0.6142
69,0.0,0.0,0.0,0.0,0.0,0.0,0.0315,0.9589,0.2873,0.4778,0.3848,-0.4967,-0.6140
70,0.0,0.0,0.0,0.0,0.0,0.0,0.0188,0.9547,0.2858,0.4782,0.3850,-0.4962,-0.6139
71,0.0,0.0,0.0,0.0,0.0,0.0,0.0080,0.9494,0.2824,0.4786,0.3855,-0.4956,-0.6138
72,0.0,0.0,0.0,0.0,0.0,0.0,0.0041,0.9471,0.2790,0.4788,0.3862,-0.4950,-0.6137
73,0.0,0.0,0.0,0.0,0.0,0.0,-0.0017,0.9457,0.2732,0.4791,0.3870,-0.4946,-0.6132
74,0.0,0.0,0.0,0.0,0.0,0.0,-0.0052,0.9477,0.2698,0.4792,0.3882,-0.4944,-0.6126
75,0.0,0.0,0.0,0.0,0.0,0.0,-0.0095,0.9579,0.2702,0.4792,0.3893,-0.4943,-0.6120
76,0.0,0.0,0.0,0.0,0.0,0.0,-0.0128,0.9681,0.2722,0.4792,0.3902,-0.4944,-0.6113
77,0.0,0.0,0.0,0.0,0.0,0.0,-0.0128,0.9773,0.2751,0.4792,0.3909,-0.4945,-0.6108
78,0.0,0.0,0.0,0.0,0.0,0.0,-0.0113,0.9773,0.2761,0.4791,0.3914,-0.4945,-0.6106
79,0.0,0.0,0.0,0.0,0.0,0.0,-0.0089,0.9743,0.2780,0.4789,0.3920,-0.4946,-0.6102
80,0.0,0.0,0.0,0.0,0.0,0.0,-0.0060,0.9723,0.2810,0.4788,0.3921,-0.4942,-0.6105
81,0.0,0.0,0.0,0.0,0.0,0.0,-0.0040,0.9694,0.2829,0.4789,0.3919,-0.4934,-0.6112
82,0.0,0.0,0.0,0.0,0.0,0.0,-0.0046,0.9602,0.2863,0.4788,0.3920,-0.4931,-0.6115
83,0.0,0.0,0.0,0.0,0.0,0.0,-0.0119,0.9593,0.2887,0.4788,0.3921,-0.4924,-0.6119
84,0.0,0.0,0.0,0.0,0.0,0.0,-0.0105,0.9530,0.2897,0.4787,0.3920,-0.4917,-0.6127
85,0.0,0.0,0.0,0.0,0.0,0.0,-0.0095,0.9496,0.2921,0.4785,0.3919,-0.4911,-0.6134
86,0.0,0.0,0.0,0.0,0.0,0.0,-0.0091,0.9452,0.2907,0.4785,0.3919,-0.4906,-0.6137
87,0.0,0.0,0.0,0.0,0.0,0.0,-0.0096,0.9433,0.2902,0.4786,0.3920,-0.4903,-0.6139
88,0.0,0.0,0.0,0.0,0.0,0.0,-0.0110,0.9433,0.2902,0.4786,0.3922,-0.4901,-0.6140
89,0.0,0.0,0.0,0.0,0.0,0.0,-0.0091,0.9438,0.2907,0.4787,0.3925,-0.4902,-0.6136
90,0.0,0.0,0.0,0.0,0.0,0.0,-0.0081,0.9486,0.2907,0.4789,0.3924,-0.4902,-0.6134
91,0.0,0.0,0.0,0.0,0.0,0.0,-0.0085,0.9530,0.2912,0.4790,0.3922,-0.4901,-0.6136
92,0.0,0.0,0.0,0.0,0.0,0.0,-0.0080,0.9563,0.2907,0.4792,0.3920,-0.4901,-0.6136
93,0.0,0.0,0.0,0.0,0.0,0.0,-0.0067,0.9365,0.2756,0.4793,0.3921,-0.4904,-0.6132
94,0.0,0.0,0.0,0.0,0.0,0.0,0.0142,0.9165,0.2664,0.4795,0.3917,-0.4912,-0.6127
95,0.0,0.0,0.0,0.0,0.0,0.0,-0.0133,0.9787,0.2795,0.4788,0.3922,-0.4917,-0.6125
96,0.0,0.0,0.0,0.0,0.0,0.0,-0.0007,0.9651,0.2727,0.4783,0.3922,-0.4924,-0.6123
97,0.0,0.0,0.0,0.0,0.0,0.0,0.0024,0.9863,0.2795,0.4783,0.3921,-0.4933,-0.6116
98,0.0,0.0,0.0,0.0,0.0,0.0,0.0063,0.9902,0.2839,0.4783,0.3919,-0.4936,-0.6116
99,0.0,0.0,0.0,0.0,0.0,0.0,0.0102,0.9814,0.2853,0.4784,0.3914,-0.4935,-0.6119
100,0.0,0.0,0.0,0.0,0.0,0.0,0.0126,0.9731,0.2863,0.4784,0.3911,-0.4936,-0.6119
101,0.0,0.0,0.0,0.0,0.0,0.0,0.0096,0.9649,0.2878,0.4786,0.3909,-0.4933,-0.6122
102,0.0,0.0,0.0,0.0,0.0,0.0,0.0066,0.9562,0.2887,0.4789,0.3904,-0.4927,-0.6127
103,0.0,0.0,0.0,0.0,0.0,0.0,-0.0018,0.9456,0.2858,0.4793,0.3901,-0.4921,-0.6132
104,0.0,0.0,0.0,0.0,0.0,0.0,-0.0077,0.9360,0.2814,0.4793,0.3905,-0.4918,-0.6131
105,0.0,0.0,0.0,0.0,0.0,0.0,-0.0091,0.9370,0.2824,0.4793,0.3909,-0.4918,-0.6129
106,0.0,0.0,0.0,0.0,0.0,0.0,-0.0130,0.9433,0.2824,0.4793,0.3908,-0.4915,-0.6132
107,0.0,0.0,0.0,0.0,0.0,0.0,-0.0129,0.9511,0.2848,0.4792,0.3908,-0.4916,-0.6132
108,0.0,0.0,0.0,0.0,0.0,0.0,-0.0100,0.9602,0.2892,0.4790,0.3907,-0.4920,-0.6130
109,0.0,0.0,0.0,0.0,0.0,0.0,-0.0075,0.9636,0.2912,0.4787,0.3904,-0.4922,-0.6133
110,0.0,0.0,0.0,0.0,0.0,0.0,-0.0041,0.9631,0.2912,0.4786,0.3900,-0.4924,-0.6135
111,0.0,0.0,0.0,0.0,0.0,0.0,-0.0021,0.9607,0.2892,0.4785,0.3900,-0.4928,-0.6133
112,0.0,0.0,0.0,0.0,0.0,0.0,0.0003,0.9558,0.2897,0.4783,0.3897,-0.4930,-0.6134
113,0.0,0.0,0.0,0.0,0.0,0.0,0.0002,0.9534,0.2917,0.4782,0.3894,-0.4931,-0.6136
114,0.0,0.0,0.0,0.0,0.0,0.0,-0.0003,0.9514,0.2917,0.4782,0.3893,-0.4933,-0.6136
115,0.0,0.0,0.0,0.0,0.0,0.0,-0.0007,0.9505,0.2917,0.4781,0.3890,-0.4935,-0.6136
116,0.0,0.0,0.0,0.0,0.0,0.0,-0.0046,0.9519,0.2917,0.4780,0.3889,-0.4938,-0.6136
117,0.0,0.0,0.0,0.0,0.0,0.0,0.0031,0.9466,0.2907,0.4779,0.3887,-0.4941,-0.6136
118,0.0,0.0,0.0,0.0,0.0,0.0,0.0031,0.9470,0.2907,0.4777,0.3883,-0.4944,-0.6137
119,0.0,0.0,0.0,0.0,0.0,0.0,0.0046,0.9528,0.2902,0.4776,0.3880,-0.4946,-0.6138
120,0.0,0.0,0.0,0.0,0.0,0.0,0.0076,0.9557,0.2897,0.4776,0.3878,-0.4949,-0.6136
121,0.0,0.0,0.0,0.0,0.0,0.0,0.0105,0.9572,0.2892,0.4777,0.3875,-0.4953,-0.6134
122,0.0,0.0,0.0,0.0,0.0,0.0,0.0115,0.9576,0.2878,0.4778,0.3872,-0.4956,-0.6134
123,0.0,0.0,0.0,0.0,0.0,0.0,0.0140,0.9595,0.2878,0.4779,0.3869,-0.4960,-0.6131
124,0.0,0.0,0.0,0.0,0.0,0.0,0.0150,0.9649,0.2873,0.4782,0.3869,-0.4963,-0.6127
125,0.0,0.0,0.0,0.0,0.0,0.0,0.0130,0.9620,0.2849,0.4786,0.3867,-0.4962,-0.6126
126,0.0,0.0,0.0,0.0,0.0,0.0,0.0141,0.9097,0.2528,0.4787,0.3871,-0.4968,-0.6117
127,0.0,0.0,0.0,0.0,0.0,0.0,0.0208,0.9654,0.2703,0.4789,0.3878,-0.4978,-0.6103
128,0.0,0.0,0.0,0.0,0.0,0.0,-0.0026,0.9670,0.2668,0.4788,0.3883,-0.4982,-0.6098
129,0.0,0.0,0.0,0.0,0.0,0.0,0.0135,0.9616,0.2630,0.4788,0.3885,-0.4988,-0.6091
130,0.0,0.0,0.0,0.0,0.0,0.0,0.0161,0.9843,0.2712,0.4789,0.3889,-0.4996,-0.6081
131,0.0,0.0,0.0,0.0,0.0,0.0,0.0195,0.9809,0.2722,0.4792,0.3888,-0.5001,-0.6076
132,0.0,0.0,0.0,0.0,0.0,0.0,0.0253,0.9765,0.2732,0.4795,0.3883,-0.5001,-0.6075
133,0.0,0.0,0.0,0.0,0.0,0.0,0.0233,0.9711,0.2732,0.4798,0.3883,-0.5002,-0.6073
134,0.0,0.0,0.0,0.0,0.0,0.0,0.0164,0.9630,0.2674,0.4800,0.3885,-0.5002,-0.6070
135,0.0,0.0,0.0,0.0,0.0,0.0,0.0154,0.9562,0.2654,0.4802,0.3885,-0.5003,-0.6068
136,0.0,0.0,0.0,0.0,0.0,0.0,0.0198,0.9620,0.2674,0.4803,0.3884,-0.5005,-0.6065
137,0.0,0.0,0.0,0.0,0.0,0.0,0.0217,0.9557,0.2635,0.4804,0.3885,-0.5010,-0.6060
138,0.0,0.0,0.0,0.0,0.0,0.0,0.0218,0.9581,0.2620,0.4805,0.3884,-0.5015,-0.6056
139,0.0,0.0,0.0,0.0,0.0,0.0,0.0272,0.9673,0.2669,0.4808,0.3880,-0.5020,-0.6053
140,0.0,0.0,0.0,0.0,0.0,0.0,0.0272,0.9740,0.2703,0.4811,0.3876,-0.5024,-0.6049
141,0.0,0.0,0.0,0.0,0.0,0.0,0.0311,0.9730,0.2732,0.4818,0.3870,-0.5027,-0.6045
142,0.0,0.0,0.0,0.0,0.0,0.0,0.0311,0.9725,0.2766,0.4827,0.3865,-0.5027,-0.6041
143,0.0,0.0,0.0,0.0,0.0,0.0,0.0306,0.9623,0.2771,0.4836,0.3862,-0.5026,-0.6036
144,0.0,0.0,0.0,0.0,0.0,0.0,0.0276,0.9546,0.2781,0.4847,0.3861,-0.5022,-0.6032
145,0.0,0.0,0.0,0.0,0.0,0.0,0.0231,0.9454,0.2795,0.4858,0.3859,-0.5017,-0.6028
146,0.0,0.0,0.0,0.0,0.0,0.0,0.0202,0.9445,0.2800,0.4869,0.3859,-0.5011,-0.6024
147,0.0,0.0,0.0,0.0,0.0,0.0,0.0114,0.9465,0.2815,0.4879,0.3860,-0.5005,-0.6021
148,0.0,0.0,0.0,0.0,0.0,0.0,0.0129,0.9484,0.2829,0.4887,0.3862,-0.5001,-0.6016
149,0.0,0.0,0.0,0.0,0.0,0.0,0.0168,0.9387,0.2795,0.4897,0.3862,-0.4998,-0.6010
150,0.0,0.0,0.0,0.0,0.0,0.0,0.0168,0.9373,0.2776,0.4908,0.3860,-0.4995,-0.6004
151,0.0,0.0,0.0,0.0,0.0,0.0,0.0138,0.9417,0.2766,0.4919,0.3865,-0.4997,-0.5992
152,0.0,0.0,0.0,0.0,0.0,0.0,0.0154,0.9484,0.2771,0.4930,0.3868,-0.4998,-0.5980
153,0.0,0.0,0.0,0.0,0.0,0.0,0.0188,0.9528,0.2756,0.4941,0.3871,-0.5000,-0.5967
154,0.0,0.0,0.0,0.0,0.0,0.0,0.0188,0.9566,0.2722,0.4950,0.3877,-0.5004,-0.5952
155,0.0,0.0,0.0,0.0,0.0,0.0,0.0252,0.9624,0.2713,0.4960,0.3881,-0.5010,-0.5936
156,0.0,0.0,0.0,0.0,0.0,0.0,0.0258,0.9764,0.2747,0.4970,0.3885,-0.5012,-0.5923
157,0.0,0.0,0.0,0.0,0.0,0.0,0.0254,0.9953,0.2834,0.4981,0.3889,-0.5010,-0.5912
158,0.0,0.0,0.0,0.0,0.0,0.0,0.0249,0.9968,0.2844,0.4992,0.3897,-0.5006,-0.5902
159,0.0,0.0,0.0,0.0,0.0,0.0,0.0248,0.9827,0.2805,0.5003,0.3901,-0.4996,-0.5898
160,0.0,0.0,0.0,0.0,0.0,0.0,0.0229,0.9886,0.2858,0.5013,0.3906,-0.4985,-0.5896
161,0.0,0.0,0.0,0.0,0.0,0.0,0.0230,0.9997,0.2927,0.5024,0.3913,-0.4970,-0.5895
162,0.0,0.0,0.0,0.0,0.0,0.0,0.0190,0.9857,0.2839,0.5033,0.3924,-0.4952,-0.5895
163,0.0,0.0,0.0,0.0,0.0,0.0,0.0202,0.9411,0.2654,0.5041,0.3934,-0.4933,-0.5897
164,0.0,0.0,0.0,0.0,0.0,0.0,0.0262,0.9692,0.2674,0.5048,0.3943,-0.4915,-0.5900
165,0.0,0.0,0.0,0.0,0.0,0.0,0.0287,0.9711,0.2615,0.5052,0.3954,-0.4899,-0.5903
166,0.0,0.0,0.0,0.0,0.0,0.0,0.0345,0.9600,0.2557,0.5057,0.3965,-0.4885,-0.5903
167,0.0,0.0,0.0,0.0,0.0,0.0,0.0350,0.9624,0.2572,0.5060,0.3978,-0.4870,-0.5904
168,0.0,0.0,0.0,0.0,0.0,0.0,0.0237,0.9508,0.2581,0.5059,0.3992,-0.4854,-0.5909
169,0.0,0.0,0.0,0.0,0.0,0.0,0.0237,0.9571,0.2659,0.5056,0.4002,-0.4841,-0.5915
170,0.0,0.0,0.0,0.0,0.0,0.0,0.0199,0.9673,0.2722,0.5052,0.4013,-0.4832,-0.5919
171,0.0,0.0,0.0,0.0,0.0,0.0,0.0217,0.9552,0.2708,0.5047,0.4022,-0.4825,-0.5922
172,0.0,0.0,0.0,0.0,0.0,0.0,0.0216,0.9252,0.2625,0.5042,0.4029,-0.4824,-0.5923
173,0.0,0.0,0.0,0.0,0.0,0.0,0.0244,0.9101,0.2620,0.5034,0.4036,-0.4830,-0.5919
174,0.0,0.0,0.0,0.0,0.0,0.0,0.0312,0.8965,0.2596,0.5028,0.4041,-0.4839,-0.5915
175,0.0,0.0,0.0,0.0,0.0,0.0,0.0311,0.8926,0.2576,0.5021,0.4040,-0.4848,-0.5913
176,0.0,0.0,0.0,0.0,0.0,0.0,0.0219,0.8985,0.2552,0.5013,0.4041,-0.4865,-0.5905
177,0.0,0.0,0.0,0.0,0.0,0.0,0.0161,0.9102,0.2533,0.5004,0.4045,-0.4886,-0.5893
178,0.0,0.0,0.0,0.0,0.0,0.0,0.0079,0.9253,0.2518,0.4994,0.4048,-0.4910,-0.5879
179,0.0,0.0,0.0,0.0,0.0,0.0,0.0075,0.9428,0.2528,0.4983,0.4050,-0.4939,-0.5862
180,0.0,0.0,0.0,0.0,0.0,0.0,0.0081,0.9583,0.2542,0.4972,0.4049,-0.4971,-0.5846
181,0.0,0.0,0.0,0.0,0.0,0.0,0.0082,0.9684,0.2537,0.4961,0.4048,-0.5005,-0.5827
182,0.0,0.0,0.0,0.0,0.0,0.0,0.0101,0.9680,0.2459,0.4946,0.4043,-0.5041,-0.5812
183,0.0,0.0,0.0,0.0,0.0,0.0,0.0209,0.9742,0.2387,0.4931,0.4035,-0.5082,-0.5795
184,0.0,0.0,0.0,0.0,0.0,0.0,0.0415,0.9953,0.2328,0.4914,0.4025,-0.5124,-0.5780
185,0.0,0.0,0.0,0.0,0.0,0.0,0.0596,1.0044,0.2217,0.4898,0.4010,-0.5161,-0.5770
186,0.0,0.0,0.0,0.0,0.0,0.0,0.0595,0.9851,0.2095,0.4880,0.3998,-0.5201,-0.5758
187,0.0,0.0,0.0,0.0,0.0,0.0,0.0737,0.9888,0.2037,0.4864,0.3979,-0.5241,-0.5748
188,0.0,0.0,0.0,0.0,0.0,0.0,0.0740,0.9661,0.1867,0.4851,0.3964,-0.5280,-0.5734
189,0.0,0.0,0.0,0.0,0.0,0.0,0.0714,0.9318,0.1643,0.4838,0.3954,-0.5317,-0.5718
190,0.0,0.0,0.0,0.0,0.0,0.0,0.0758,0.9328,0.1526,0.4825,0.3943,-0.5353,-0.5702
191,0.0,0.0,0.0,0.0,0.0,0.0,0.0773,0.9371,0.1482,0.4813,0.3937,-0.5391,-0.5681
192,0.0,0.0,0.0,0.0,0.0,0.0,0.0750,0.9638,0.1546,0.4802,0.3933,-0.5429,-0.5657
193,0.0,0.0,0.0,0.0,0.0,0.0,0.0761,0.9803,0.1531,0.4790,0.3931,-0.5467,-0.5632
194,0.0,0.0,0.0,0.0,0.0,0.0,0.0699,1.0045,0.1536,0.4779,0.3932,-0.5499,-0.5609
195,0.0,0.0,0.0,0.0,0.0,0.0,0.0857,1.0320,0.1541,0.4769,0.3934,-0.5529,-0.5587
196,0.0,0.0,0.0,0.0,0.0,0.0,0.1178,1.0211,0.1478,0.4765,0.3930,-0.5559,-0.5563
197,0.0,0.0,0.0,0.0,0.0,0.0,0.1297,1.0428,0.1415,0.4763,0.3925,-0.5586,-0.5541
198,0.0,0.0,0.0,0.0,0.0,0.0,0.1322,1.0510,0.1405,0.4763,0.3923,-0.5611,-0.5518
199,0.0,0.0,0.0,0.0,0.0,0.0,0.1304,1.0830,0.1385,0.4763,0.3925,-0.5626,-0.5501
200,0.0,0.0,0.0,0.0,0.0,0.0,0.1356,1.0462,0.1225,0.4764,0.3929,-0.5635,-0.5488
201,0.0,0.0,0.0,0.0,0.0,0.0,0.1293,0.9766,0.0996,0.4766,0.3934,-0.5642,-0.5475
202,0.0,0.0,0.0,0.0,0.0,0.0,0.1182,0.9965,0.1030,0.4767,0.3941,-0.5645,-0.5466
203,0.0,0.0,0.0,0.0,0.0,0.0,0.1173,1.0106,0.1084,0.4770,0.3949,-0.5646,-0.5456
204,0.0,0.0,0.0,0.0,0.0,0.0,0.1183,1.0139,0.1093,0.4773,0.3956,-0.5643,-0.5452
205,0.0,0.0,0.0,0.0,0.0,0.0,0.1228,1.0434,0.1171,0.4780,0.3965,-0.5632,-0.5450
206,0.0,0.0,0.0,0.0,0.0,0.0,0.1166,1.0551,0.1176,0.4788,0.3975,-0.5615,-0.5454
207,0.0,0.0,0.0,0.0,0.0,0.0,0.1102,1.0469,0.1176,0.4792,0.3981,-0.5594,-0.5468
208,0.0,0.0,0.0,0.0,0.0,0.0,0.1038,1.0422,0.1147,0.4797,0.3983,-0.5569,-0.5487
209,0.0,0.0,0.0,0.0,0.0,0.0,0.1246,1.0115,0.1055,0.4808,0.3983,-0.5545,-0.5502
210,0.0,0.0,0.0,0.0,0.0,0.0,0.1237,1.0178,0.1103,0.4826,0.3981,-0.5519,-0.5513
211,0.0,0.0,0.0,0.0,0.0,0.0,0.0944,1.0233,0.1186,0.4844,0.3984,-0.5484,-0.5530
212,0.0,0.0,0.0,0.0,0.0,0.0,0.0864,0.9827,0.1220,0.4861,0.3992,-0.5448,-0.5546
213,0.0,0.0,0.0,0.0,0.0,0.0,0.0887,0.9710,0.1361,0.4877,0.3998,-0.5416,-0.5559
214,0.0,0.0,0.0,0.0,0.0,0.0,0.0852,0.9603,0.1468,0.4892,0.4003,-0.5384,-0.5573
215,0.0,0.0,0.0,0.0,0.0,0.0,0.0806,0.9225,0.1560,0.4908,0.4007,-0.5356,-0.5582
216,0.0,0.0,0.0,0.0,0.0,0.0,0.0756,0.9070,0.1662,0.4927,0.4011,-0.5332,-0.5586
217,0.0,0.0,0.0,0.0,0.0,0.0,0.0504,0.9339,0.1754,0.4942,0.4021,-0.5308,-0.5589
218,0.0,0.0,0.0,0.0,0.0,0.0,0.0226,0.9419,0.1652,0.4947,0.4045,-0.5285,-0.5589
219,0.0,0.0,0.0,0.0,0.0,0.0,0.0402,0.9355,0.1565,0.4941,0.4066,-0.5274,-0.5589
220,0.0,0.0,0.0,0.0,0.0,0.0,0.0666,0.9406,0.1691,0.4938,0.4070,-0.5270,-0.5592
221,0.0,0.0,0.0,0.0,0.0,0.0,0.0716,0.9618,0.1842,0.4940,0.4070,-0.5267,-0.5594
222,0.0,0.0,0.0,0.0,0.0,0.0,0.0732,0.9951,0.2051,0.4945,0.4068,-0.5263,-0.5594
223,0.0,0.0,0.0,0.0,0.0,0.0,0.0620,0.9943,0.2027,0.4946,0.4071,-0.5262,-0.5593
224,0.0,0.0,0.0,0.0,0.0,0.0,0.0750,0.9574,0.1842,0.4942,0.4074,-0.5266,-0.5590
225,0.0,0.0,0.0,0.0,0.0,0.0,0.0715,0.9531,0.1823,0.4938,0.4075,-0.5271,-0.5588
226,0.0,0.0,0.0,0.0,0.0,0.0,0.0713,0.9952,0.1988,0.4931,0.4075,-0.5274,-0.5592
227,0.0,0.0,0.0,0.0,0.0,0.0,0.0655,1.0035,0.2022,0.4921,0.4080,-0.5278,-0.5593
228,0.0,0.0,0.0,0.0,0.0,0.0,0.0621,1.0113,0.2003,0.4910,0.4085,-0.5280,-0.5597
229,0.0,0.0,0.0,0.0,0.0,0.0,0.0602,1.0151,0.2037,0.4900,0.4085,-0.5277,-0.5609
230,0.0,0.0,0.0,0.0,0.0,0.0,0.0572,1.0030,0.2076,0.4889,0.4085,-0.5274,-0.5622
231,0.0,0.0,0.0,0.0,0.0,0.0,0.0537,0.9856,0.2076,0.4878,0.4085,-0.5271,-0.5633
232,0.0,0.0,0.0,0.0,0.0,0.0,0.0481,0.9561,0.2046,0.4868,0.4080,-0.5268,-0.5648
233,0.0,0.0,0.0,0.0,0.0,0.0,0.0501,0.9551,0.2100,0.4861,0.4072,-0.5269,-0.5660
234,0.0,0.0,0.0,0.0,0.0,0.0,0.0516,0.9633,0.2144,0.4854,0.4065,-0.5273,-0.5666
235,0.0,0.0,0.0,0.0,0.0,0.0,0.0555,0.9623,0.2163,0.4851,0.4054,-0.5275,-0.5676
236,0.0,0.0,0.0,0.0,0.0,0.0,0.0466,0.9474,0.2139,0.4846,0.4047,-0.5279,-0.5680
237,0.0,0.0,0.0,0.0,0.0,0.0,0.0451,0.9387,0.2134,0.4842,0.4038,-0.5286,-0.5684
238,0.0,0.0,0.0,0.0,0.0,0.0,0.0485,0.9420,0.2124,0.4842,0.4024,-0.5294,-0.5687
239,0.0,0.0,0.0,0.0,0.0,0.0,0.0598,0.9478,0.2119,0.4842,0.4008,-0.5306,-0.5686
240,0.0,0.0,0.0,0.0,0.0,0.0,0.0583,0.9444,0.2095,0.4844,0.3994,-0.5321,-0.5681
241,0.0,0.0,0.0,0.0,0.0,0.0,0.0476,0.9566,0.2071,0.4842,0.3984,-0.5336,-0.5676
242,0.0,0.0,0.0,0.0,0.0,0.0,0.0540,0.9653,0.2085,0.4836,0.3972,-0.5357,-0.5670
243,0.0,0.0,0.0,0.0,0.0,0.0,0.0667,0.9637,0.2076,0.4829,0.3953,-0.5377,-0.5669
244,0.0,0.0,0.0,0.0,0.0,0.0,0.0730,0.9564,0.1983,0.4823,0.3933,-0.5398,-0.5669
245,0.0,0.0,0.0,0.0,0.0,0.0,0.0877,0.9655,0.1935,0.4816,0.3915,-0.5421,-0.5664
246,0.0,0.0,0.0,0.0,0.0,0.0,0.0990,0.9732,0.1872,0.4811,0.3897,-0.5443,-0.5660
247,0.0,0.0,0.0,0.0,0.0,0.0,0.1004,0.9693,0.1808,0.4807,0.3884,-0.5464,-0.5653
248,0.0,0.0,0.0,0.0,0.0,0.0,0.1062,0.9630,0.1765,0.4804,0.3872,-0.5486,-0.5643
249,0.0,0.0,0.0,0.0,0.0,0.0,0.1077,0.9630,0.1697,0.4801,0.3859,-0.5505,-0.5636
250,0.0,0.0,0.0,0.0,0.0,0.0,0.1157,0.9944,0.1706,0.4798,0.3848,-0.5523,-0.5628
251,0.0,0.0,0.0,0.0,0.0,0.0,0.1284,0.9992,0.1638,0.4798,0.3839,-0.5540,-0.5617
252,0.0,0.0,0.0,0.0,0.0,0.0,0.1117,0.9688,0.1463,0.4796,0.3837,-0.5557,-0.5603
253,0.0,0.0,0.0,0.0,0.0,0.0,0.1138,0.9998,0.1526,0.4791,0.3842,-0.5573,-0.5588
254,0.0,0.0,0.0,0.0,0.0,0.0,0.1406,1.0688,0.1668,0.4793,0.3848,-0.5584,-0.5571
255,0.0,0.0,0.0,0.0,0.0,0.0,0.1578,1.0876,0.1644,0.4797,0.3855,-0.5590,-0.5557
256,0.0,0.0,0.0,0.0,0.0,0.0,0.1390,1.0544,0.1478,0.4802,0.3867,-0.5591,-0.5544
257,0.0,0.0,0.0,0.0,0.0,0.0,0.1172,0.9911,0.1244,0.4805,0.3877,-0.5590,-0.5535
258,0.0,0.0,0.0,0.0,0.0,0.0,0.0970,0.9666,0.1210,0.4807,0.3889,-0.5585,-0.5530
259,0.0,0.0,0.0,0.0,0.0,0.0,0.0892,0.9734,0.1268,0.4809,0.3905,-0.5578,-0.5524
260,0.0,0.0,0.0,0.0,0.0,0.0,0.0828,0.9682,0.1278,0.4811,0.3918,-0.5565,-0.5525
261,0.0,0.0,0.0,0.0,0.0,0.0,0.0818,0.9575,0.1312,0.4815,0.3927,-0.5548,-0.5532
262,0.0,0.0,0.0,0.0,0.0,0.0,0.0857,0.9584,0.1302,0.4817,0.3937,-0.5532,-0.5541
263,0.0,0.0,0.0,0.0,0.0,0.0,0.0915,0.9477,0.1322,0.4822,0.3939,-0.5511,-0.5555
264,0.0,0.0,0.0,0.0,0.0,0.0,0.1019,0.9771,0.1648,0.4831,0.3941,-0.5498,-0.5559
265,0.0,0.0,0.0,0.0,0.0,0.0,0.1059,0.9949,0.1774,0.4840,0.3944,-0.5494,-0.5554
266,0.0,0.0,0.0,0.0,0.0,0.0,0.1032,1.0197,0.1774,0.4844,0.3949,-0.5492,-0.5547
267,0.0,0.0,0.0,0.0,0.0,0.0,0.0912,0.9825,0.1701,0.4848,0.3954,-0.5489,-0.5544
268,0.0,0.0,0.0,0.0,0.0,0.0,0.0902,0.9748,0.1628,0.4848,0.3958,-0.5485,-0.5545
269,0.0,0.0,0.0,0.0,0.0,0.0,0.0873,0.9782,0.1599,0.4848,0.3964,-0.5482,-0.5544
270,0.0,0.0,0.0,0.0,0.0,0.0,0.0878,0.9777,0.1643,0.4848,0.3966,-0.5480,-0.5544
271,0.0,0.0,0.0,0.0,0.0,0.0,0.0903,0.9927,0.1682,0.4847,0.3969,-0.5478,-0.5544
272,0.0,0.0,0.0,0.0,0.0,0.0,0.0936,0.9665,0.1604,0.4846,0.3971,-0.5476,-0.5546
273,0.0,0.0,0.0,0.0,0.0,0.0,0.0936,0.9694,0.1604,0.4846,0.3972,-0.5475,-0.5547
274,0.0,0.0,0.0,0.0,0.0,0.0,0.0922,0.9806,0.1589,0.4845,0.3976,-0.5474,-0.5546
275,0.0,0.0,0.0,0.0,0.0,0.0,0.0912,0.9796,0.1555,0.4844,0.3979,-0.5476,-0.5543
276,0.0,0.0,0.0,0.0,0.0,0.0,0.0888,0.9787,0.1555,0.4843,0.3980,-0.5476,-0.5543
277,0.0,0.0,0.0,0.0,0.0,0.0,0.0879,0.9918,0.1589,0.4841,0.3983,-0.5477,-0.5541
278,0.0,0.0,0.0,0.0,0.0,0.0,0.0903,0.9932,0.1604,0.4840,0.3986,-0.5480,-0.5537
279,0.0,0.0,0.0,0.0,0.0,0.0,0.0933,1.0101,0.1677,0.4839,0.3987,-0.5481,-0.5536
280,0.0,0.0,0.0,0.0,0.0,0.0,0.0938,1.0082,0.1672,0.4839,0.3988,-0.5478,-0.5538
281,0.0,0.0,0.0,0.0,0.0,0.0,0.0962,1.0014,0.1662,0.4842,0.3992,-0.5473,-0.5538
282,0.0,0.0,0.0,0.0,0.0,0.0,0.0903,0.9820,0.1614,0.4844,0.3996,-0.5468,-0.5538
283,0.0,0.0,0.0,0.0,0.0,0.0,0.0893,0.9913,0.1633,0.4847,0.3998,-0.5461,-0.5541
284,0.0,0.0,0.0,0.0,0.0,0.0,0.0922,0.9825,0.1619,0.4852,0.3999,-0.5453,-0.5543
285,0.0,0.0,0.0,0.0,0.0,0.0,0.0946,0.9772,0.1638,0.4858,0.3999,-0.5446,-0.5545
286,0.0,0.0,0.0,0.0,0.0,0.0,0.0941,0.9738,0.1624,0.4863,0.3997,-0.5440,-0.5547
287,0.0,0.0,0.0,0.0,0.0,0.0,0.0937,0.9878,0.1677,0.4869,0.3995,-0.5435,-0.5550
288,0.0,0.0,0.0,0.0,0.0,0.0,0.0990,0.9723,0.1672,0.4876,0.3990,-0.5429,-0.5552
289,0.0,0.0,0.0,0.0,0.0,0.0,0.0995,0.9809,0.1784,0.4884,0.3986,-0.5422,-0.5555
290,0.0,0.0,0.0,0.0,0.0,0.0,0.0986,0.9877,0.1920,0.4896,0.3982,-0.5413,-0.5557
291,0.0,0.0,0.0,0.0,0.0,0.0,0.1067,1.0322,0.2100,0.4909,0.3975,-0.5399,-0.5564
292,0.0,0.0,0.0,0.0,0.0,0.0,0.1111,1.0437,0.2159,0.4921,0.3971,-0.5377,-0.5577
293,0.0,0.0,0.0,0.0,0.0,0.0,0.0948,1.0080,0.2091,0.4933,0.3974,-0.5350,-0.5589
294,0.0,0.0,0.0,0.0,0.0,0.0,0.0989,0.9644,0.1954,0.4946,0.3977,-0.5325,-0.5600
295,0.0,0.0,0.0,0.0,0.0,0.0,0.0959,0.9397,0.1959,0.4962,0.3980,-0.5301,-0.5607
296,0.0,0.0,0.0,0.0,0.0,0.0,0.0670,1.0097,0.2163,0.4977,0.3993,-0.5273,-0.5611
297,0.0,0.0,0.0,0.0,0.0,0.0,0.0820,0.9979,0.2173,0.4996,0.4000,-0.5243,-0.5618
298,0.0,0.0,0.0,0.0,0.0,0.0,0.0810,0.9931,0.2207,0.5018,0.4003,-0.5208,-0.5628
299,0.0,0.0,0.0,0.0,0.0,0.0,0.0614,0.9681,0.2153,0.5035,0.4013,-0.5173,-0.5637
300,0.0,0.0,0.0,0.0,0.0,0.0,0.0671,0.9438,0.2129,0.5051,0.4022,-0.5144,-0.5644
301,0.0,0.0,0.0,0.0,0.0,0.0,0.0632,0.9564,0.2192,0.5066,0.4031,-0.5115,-0.5650
302,0.0,0.0,0.0,0.0,0.0,0.0,0.0551,0.9739,0.2251,0.5077,0.4042,-0.5087,-0.5657
303,0.0,0.0,0.0,0.0,0.0,0.0,0.0506,0.9710,0.2265,0.5086,0.4055,-0.5060,-0.5665
304,0.0,0.0,0.0,0.0,0.0,0.0,0.0320,0.9601,0.2304,0.5090,0.4069,-0.5031,-0.5677
305,0.0,0.0,0.0,0.0,0.0,0.0,0.0247,0.9649,0.2421,0.5089,0.4080,-0.5001,-0.5696
306,0.0,0.0,0.0,0.0,0.0,0.0,0.0184,0.9674,0.2498,0.5087,0.4090,-0.4969,-0.5719
307,0.0,0.0,0.0,0.0,0.0,0.0,0.0208,0.9577,0.2557,0.5083,0.4099,-0.4940,-0.5741
308,0.0,0.0,0.0,0.0,0.0,0.0,0.0227,0.9542,0.2630,0.5079,0.4108,-0.4914,-0.5760
309,0.0,0.0,0.0,0.0,0.0,0.0,0.0148,0.9431,0.2649,0.5073,0.4118,-0.4890,-0.5779
310,0.0,0.0,0.0,0.0,0.0,0.0,0.0074,0.9185,0.2625,0.5066,0.4127,-0.4867,-0.5799
311,0.0,0.0,0.0,0.0,0.0,0.0,0.0020,0.9200,0.2673,0.5058,0.4135,-0.4848,-0.5815
312,0.0,0.0,0.0,0.0,0.0,0.0,-0.0044,0.9152,0.2707,0.5048,0.4141,-0.4836,-0.5830
313,0.0,0.0,0.0,0.0,0.0,0.0,-0.0112,0.9162,0.2819,0.5039,0.4142,-0.4826,-0.5845
314,0.0,0.0,0.0,0.0,0.0,0.0,-0.0156,0.9235,0.2902,0.5028,0.4143,-0.4821,-0.5858
315,0.0,0.0,0.0,0.0,0.0,0.0,-0.0140,0.9356,0.2916,0.5016,0.4146,-0.4821,-0.5865
316,0.0,0.0,0.0,0.0,0.0,0.0,-0.0117,0.9181,0.2834,0.5004,0.4145,-0.4824,-0.5874
317,0.0,0.0,0.0,0.0,0.0,0.0,-0.0052,0.9321,0.2887,0.4992,0.4142,-0.4832,-0.5880
318,0.0,0.0,0.0,0.0,0.0,0.0,-0.0061,0.9549,0.2926,0.4981,0.4140,-0.4839,-0.5885
319,0.0,0.0,0.0,0.0,0.0,0.0,-0.0061,0.9534,0.2902,0.4971,0.4134,-0.4844,-0.5894
320,0.0,0.0,0.0,0.0,0.0,0.0,-0.0022,0.9568,0.2897,0.4961,0.4131,-0.4852,-0.5897
321,0.0,0.0,0.0,0.0,0.0,0.0,-0.0075,0.9641,0.2907,0.4952,0.4130,-0.4858,-0.5900
322,0.0,0.0,0.0,0.0,0.0,0.0,-0.0080,0.9622,0.2882,0.4944,0.4128,-0.4863,-0.5905
323,0.0,0.0,0.0,0.0,0.0,0.0,-0.0059,0.9830,0.2951,0.4938,0.4123,-0.4869,-0.5909
324,0.0,0.0,0.0,0.0,0.0,0.0,-0.0099,0.9685,0.2916,0.4933,0.4117,-0.4870,-0.5916
325,0.0,0.0,0.0,0.0,0.0,0.0,-0.0023,0.9292,0.2810,0.4930,0.4110,-0.4873,-0.5921
326,0.0,0.0,0.0,0.0,0.0,0.0,-0.0013,0.9418,0.2858,0.4928,0.4101,-0.4879,-0.5924
327,0.0,0.0,0.0,0.0,0.0,0.0,-0.0047,0.9403,0.2863,0.4925,0.4092,-0.4886,-0.5927
328,0.0,0.0,0.0,0.0,0.0,0.0,-0.0028,0.9365,0.2824,0.4921,0.4083,-0.4895,-0.5930
329,0.0,0.0,0.0,0.0,0.0,0.0,-0.0003,0.9490,0.2829,0.4917,0.4073,-0.4907,-0.5930
330,0.0,0.0,0.0,0.0,0.0,0.0,0.0007,0.9505,0.2785,0.4914,0.4064,-0.4920,-0.5927
331,0.0,0.0,0.0,0.0,0.0,0.0,0.0046,0.9466,0.2688,0.4908,0.4056,-0.4933,-0.5926
332,0.0,0.0,0.0,0.0,0.0,0.0,0.0109,0.9330,0.2591,0.4903,0.4047,-0.4949,-0.5924
333,0.0,0.0,0.0,0.0,0.0,0.0,0.0130,0.9558,0.2596,0.4898,0.4040,-0.4965,-0.5919
334,0.0,0.0,0.0,0.0,0.0,0.0,0.0125,0.9592,0.2474,0.4894,0.4035,-0.4980,-0.5913
335,0.0,0.0,0.0,0.0,0.0,0.0,0.0241,0.9466,0.2284,0.4890,0.4032,-0.5000,-0.5902
336,0.0,0.0,0.0,0.0,0.0,0.0,0.0173,0.9389,0.2192,0.4885,0.4033,-0.5021,-0.5887
337,0.0,0.0,0.0,0.0,0.0,0.0,0.0189,0.9718,0.2265,0.4881,0.4039,-0.5042,-0.5869
338,0.0,0.0,0.0,0.0,0.0,0.0,0.0211,1.0183,0.2318,0.4877,0.4045,-0.5058,-0.5854
339,0.0,0.0,0.0,0.0,0.0,0.0,0.0474,0.9944,0.2212,0.4878,0.4050,-0.5078,-0.5832
340,0.0,0.0,0.0,0.0,0.0,0.0,0.0591,1.0054,0.2168,0.4881,0.4053,-0.5097,-0.5811
341,0.0,0.0,0.0,0.0,0.0,0.0,0.0489,1.0128,0.2153,0.4884,0.4055,-0.5111,-0.5795
342,0.0,0.0,0.0,0.0,0.0,0.0,0.0400,0.9891,0.2197,0.4888,0.4057,-0.5123,-0.5780
343,0.0,0.0,0.0,0.0,0.0,0.0,0.0332,0.9998,0.2177,0.4890,0.4057,-0.5130,-0.5772
344,0.0,0.0,0.0,0.0,0.0,0.0,0.0451,0.9407,0.1959,0.4894,0.4057,-0.5143,-0.5757
345,0.0,0.0,0.0,0.0,0.0,0.0,0.0321,0.9655,0.2041,0.4895,0.4059,-0.5156,-0.5742
346,0.0,0.0,0.0,0.0,0.0,0.0,0.0423,0.9678,0.2105,0.4899,0.4056,-0.5169,-0.5729
347,0.0,0.0,0.0,0.0,0.0,0.0,0.0559,0.9536,0.2051,0.4905,0.4048,-0.5185,-0.5715
348,0.0,0.0,0.0,0.0,0.0,0.0,0.0559,0.9512,0.1998,0.4915,0.4041,-0.5202,-0.5697
349,0.0,0.0,0.0,0.0,0.0,0.0,0.0647,0.9555,0.1964,0.4923,0.4036,-0.5223,-0.5674
350,0.0,0.0,0.0,0.0,0.0,0.0,0.0741,0.9704,0.2017,0.4932,0.4031,-0.5245,-0.5650
351,0.0,0.0,0.0,0.0,0.0,0.0,0.0964,1.0332,0.2159,0.4944,0.4024,-0.5265,-0.5626
352,0.0,0.0,0.0,0.0,0.0,0.0,0.0930,1.0337,0.2105,0.4957,0.4018,-0.5281,-0.5603
353,0.0,0.0,0.0,0.0,0.0,0.0,0.0928,0.9950,0.1969,0.4971,0.4013,-0.5295,-0.5581
354,0.0,0.0,0.0,0.0,0.0,0.0,0.0810,0.9869,0.1857,0.4984,0.4006,-0.5303,-0.5567
355,0.0,0.0,0.0,0.0,0.0,0.0,0.0861,0.9428,0.1628,0.4998,0.3999,-0.5313,-0.5551
356,0.0,0.0,0.0,0.0,0.0,0.0,0.0882,0.9627,0.1619,0.5013,0.3995,-0.5325,-0.5528
357,0.0,0.0,0.0,0.0,0.0,0.0,0.0736,0.9769,0.1633,0.5028,0.3995,-0.5331,-0.5508
358,0.0,0.0,0.0,0.0,0.0,0.0,0.0848,0.9695,0.1599,0.5040,0.3991,-0.5340,-0.5491
359,0.0,0.0,0.0,0.0,0.0,0.0,0.0921,0.9685,0.1516,0.5050,0.3988,-0.5353,-0.5472
360,0.0,0.0,0.0,0.0,0.0,0.0,0.0902,0.9724,0.1492,0.5054,0.3986,-0.5365,-0.5457
361,0.0,0.0,0.0,0.0,0.0,0.0,0.0710,1.0273,0.1614,0.5055,0.3992,-0.5370,-0.5447
362,0.0,0.0,0.0,0.0,0.0,0.0,0.0632,1.0337,0.1550,0.5045,0.4008,-0.5370,-0.5445
363,0.0,0.0,0.0,0.0,0.0,0.0,0.0847,1.0296,0.1448,0.5027,0.4018,-0.5374,-0.5450
364,0.0,0.0,0.0,0.0,0.0,0.0,0.1056,1.0251,0.1497,0.5007,0.4016,-0.5381,-0.5463
365,0.0,0.0,0.0,0.0,0.0,0.0,0.1061,1.0173,0.1614,0.4987,0.4013,-0.5386,-0.5478
366,0.0,0.0,0.0,0.0,0.0,0.0,0.0967,1.0042,0.1726,0.4965,0.4010,-0.5389,-0.5498
367,0.0,0.0,0.0,0.0,0.0,0.0,0.0923,0.9902,0.1774,0.4937,0.4008,-0.5391,-0.5522
368,0.0,0.0,0.0,0.0,0.0,0.0,0.0902,0.9800,0.1872,0.4906,0.4004,-0.5396,-0.5548
369,0.0,0.0,0.0,0.0,0.0,0.0,0.0796,0.9956,0.1998,0.4872,0.3998,-0.5400,-0.5579
370,0.0,0.0,0.0,0.0,0.0,0.0,0.0765,0.9661,0.1983,0.4836,0.3990,-0.5401,-0.5614
371,0.0,0.0,0.0,0.0,0.0,0.0,0.0780,0.9733,0.2076,0.4798,0.3981,-0.5405,-0.5650
372,0.0,0.0,0.0,0.0,0.0,0.0,0.0824,0.9810,0.2183,0.4761,0.3970,-0.5409,-0.5684
373,0.0,0.0,0.0,0.0,0.0,0.0,0.0790,0.9805,0.2251,0.4725,0.3957,-0.5412,-0.5720
374,0.0,0.0,0.0,0.0,0.0,0.0,0.0819,0.9717,0.2261,0.4694,0.3942,-0.5413,-0.5755
375,0.0,0.0,0.0,0.0,0.0,0.0,0.0867,0.9543,0.2217,0.4668,0.3925,-0.5414,-0.5787
376,0.0,0.0,0.0,0.0,0.0,0.0,0.0837,0.9432,0.2207,0.4644,0.3912,-0.5418,-0.5811
377,0.0,0.0,0.0,0.0,0.0,0.0,0.0768,0.9360,0.2188,0.4624,0.3901,-0.5423,-0.5830
378,0.0,0.0,0.0,0.0,0.0,0.0,0.0753,0.9277,0.2158,0.4610,0.3886,-0.5426,-0.5849
379,0.0,0.0,0.0,0.0,0.0,0.0,0.0737,0.9161,0.2124,0.4599,0.3874,-0.5433,-0.5859
380,0.0,0.0,0.0,0.0,0.0,0.0,0.0757,0.9089,0.2066,0.4592,0.3864,-0.5445,-0.5859
381,0.0,0.0,0.0,0.0,0.0,0.0,0.0839,0.9030,0.1979,0.4589,0.3855,-0.5459,-0.5855
382,0.0,0.0,0.0,0.0,0.0,0.0,0.0805,0.9069,0.1891,0.4590,0.3853,-0.5477,-0.5839
383,0.0,0.0,0.0,0.0,0.0,0.0,0.0714,0.9371,0.1896,0.4593,0.3856,-0.5497,-0.5816
384,0.0,0.0,0.0,0.0,0.0,0.0,0.0745,0.9685,0.1920,0.4600,0.3859,-0.5516,-0.5790
385,0.0,0.0,0.0,0.0,0.0,0.0,0.0743,1.0005,0.1871,0.4610,0.3864,-0.5534,-0.5761
386,0.0,0.0,0.0,0.0,0.0,0.0,0.0748,1.0136,0.1735,0.4621,0.3873,-0.5551,-0.5729
387,0.0,0.0,0.0,0.0,0.0,0.0,0.0811,1.0073,0.1584,0.4635,0.3882,-0.5566,-0.5698
388,0.0,0.0,0.0,0.0,0.0,0.0,0.0837,1.0238,0.1531,0.4651,0.3892,-0.5580,-0.5664
389,0.0,0.0,0.0,0.0,0.0,0.0,0.0828,1.0359,0.1507,0.4672,0.3902,-0.5589,-0.5631
390,0.0,0.0,0.0,0.0,0.0,0.0,0.0799,1.0394,0.1463,0.4699,0.3912,-0.5590,-0.5600
391,0.0,0.0,0.0,0.0,0.0,0.0,0.0577,1.0047,0.1336,0.4725,0.3928,-0.5588,-0.5569
392,0.0,0.0,0.0,0.0,0.0,0.0,0.0547,0.9985,0.1244,0.4750,0.3947,-0.5586,-0.5537
393,0.0,0.0,0.0,0.0,0.0,0.0,0.0615,0.9820,0.1142,0.4776,0.3960,-0.5585,-0.5506
394,0.0,0.0,0.0,0.0,0.0,0.0,0.0714,1.0197,0.1112,0.4798,0.3977,-0.5586,-0.5473
395,0.0,0.0,0.0,0.0,0.0,0.0,0.0619,0.9830,0.0889,0.4817,0.3997,-0.5584,-0.5444
396,0.0,0.0,0.0,0.0,0.0,0.0,0.0663,0.9752,0.0874,0.4835,0.4007,-0.5581,-0.5424
397,0.0,0.0,0.0,0.0,0.0,0.0,0.0763,1.0119,0.0962,0.4850,0.4016,-0.5582,-0.5402
398,0.0,0.0,0.0,0.0,0.0,0.0,0.0811,1.0037,0.0962,0.4864,0.4030,-0.5584,-0.5378
399,0.0,0.0,0.0,0.0,0.0,0.0,0.0777,1.0119,0.1015,0.4875,0.4039,-0.5581,-0.5364
400,0.0,0.0,0.0,0.0,0.0,0.0,0.0821,1.0114,0.0981,0.4882,0.4048,-0.5577,-0.5355
401,0.0,0.0,0.0,0.0,0.0,0.0,0.0981,0.9885,0.0918,0.4886,0.4055,-0.5577,-0.5347
402,0.0,0.0,0.0,0.0,0.0,0.0,0.0985,0.9778,0.0938,0.4885,0.4060,-0.5578,-0.5342
403,0.0,0.0,0.0,0.0,0.0,0.0,0.1054,0.9802,0.1054,0.4884,0.4060,-0.5582,-0.5339
404,0.0,0.0,0.0,0.0,0.0,0.0,0.1186,0.9839,0.1137,0.4886,0.4057,-0.5587,-0.5335
405,0.0,0.0,0.0,0.0,0.0,0.0,0.1084,0.9936,0.1200,0.4886,0.4056,-0.5590,-0.5332
406,0.0,0.0,0.0,0.0,0.0,0.0,0.1132,0.9825,0.1176,0.4883,0.4057,-0.5597,-0.5327
407,0.0,0.0,0.0,0.0,0.0,0.0,0.1136,0.9704,0.1137,0.4878,0.4059,-0.5604,-0.5322
408,0.0,0.0,0.0,0.0,0.0,0.0,0.1098,0.9772,0.1137,0.4869,0.4060,-0.5612,-0.5321
409,0.0,0.0,0.0,0.0,0.0,0.0,0.1117,0.9796,0.1098,0.4859,0.4063,-0.5622,-0.5317
410,0.0,0.0,0.0,0.0,0.0,0.0,0.1132,0.9873,0.1074,0.4848,0.4069,-0.5634,-0.5309
411,0.0,0.0,0.0,0.0,0.0,0.0,0.1123,0.9922,0.1055,0.4838,0.4074,-0.5646,-0.5302
412,0.0,0.0,0.0,0.0,0.0,0.0,0.1119,1.0092,0.1069,0.4827,0.4075,-0.5655,-0.5302
413,0.0,0.0,0.0,0.0,0.0,0.0,0.1118,1.0009,0.1025,0.4816,0.4077,-0.5663,-0.5302
414,0.0,0.0,0.0,0.0,0.0,0.0,0.1114,1.0077,0.1035,0.4804,0.4077,-0.5670,-0.5305
415,0.0,0.0,0.0,0.0,0.0,0.0,0.1129,1.0087,0.1050,0.4793,0.4077,-0.5675,-0.5310
416,0.0,0.0,0.0,0.0,0.0,0.0,0.1138,0.9966,0.1025,0.4783,0.4076,-0.5680,-0.5315
417,0.0,0.0,0.0,0.0,0.0,0.0,0.1109,1.0135,0.1089,0.4773,0.4076,-0.5686,-0.5318
418,0.0,0.0,0.0,0.0,0.0,0.0,0.1095,1.0208,0.1127,0.4764,0.4078,-0.5691,-0.5319
419,0.0,0.0,0.0,0.0,0.0,0.0,0.1131,1.0406,0.1234,0.4757,0.4076,-0.5690,-0.5328
420,0.0,0.0,0.0,0.0,0.0,0.0,0.1077,1.0402,0.1249,0.4753,0.4072,-0.5682,-0.5342
421,0.0,0.0,0.0,0.0,0.0,0.0,0.1061,1.0150,0.1215,0.4752,0.4068,-0.5670,-0.5360
422,0.0,0.0,0.0,0.0,0.0,0.0,0.1085,1.0048,0.1239,0.4751,0.4062,-0.5657,-0.5378
423,0.0,0.0,0.0,0.0,0.0,0.0,0.1050,1.0000,0.1268,0.4753,0.4057,-0.5642,-0.5397
424,0.0,0.0,0.0,0.0,0.0,0.0,0.1020,0.9879,0.1264,0.4754,0.4050,-0.5626,-0.5417
425,0.0,0.0,0.0,0.0,0.0,0.0,0.1010,0.9782,0.1264,0.4758,0.4044,-0.5611,-0.5434
426,0.0,0.0,0.0,0.0,0.0,0.0,0.1039,0.9762,0.1278,0.4761,0.4039,-0.5599,-0.5447
427,0.0,0.0,0.0,0.0,0.0,0.0,0.1083,0.9854,0.1327,0.4764,0.4030,-0.5587,-0.5463
428,0.0,0.0,0.0,0.0,0.0,0.0,0.1055,0.9965,0.1405,0.4766,0.4025,-0.5572,-0.5481
429,0.0,0.0,0.0,0.0,0.0,0.0,0.1045,0.9975,0.1478,0.4770,0.4020,-0.5558,-0.5495
430,0.0,0.0,0.0,0.0,0.0,0.0,0.1020,0.9858,0.1526,0.4774,0.4013,-0.5538,-0.5517
431,0.0,0.0,0.0,0.0,0.0,0.0,0.0980,0.9762,0.1624,0.4780,0.4008,-0.5519,-0.5535
432,0.0,0.0,0.0,0.0,0.0,0.0,0.0951,0.9728,0.1721,0.4788,0.4005,-0.5499,-0.5549
433,0.0,0.0,0.0,0.0,0.0,0.0,0.0892,0.9670,0.1784,0.4797,0.4002,-0.5478,-0.5565
434,0.0,0.0,0.0,0.0,0.0,0.0,0.0843,0.9617,0.1847,0.4807,0.3999,-0.5456,-0.5579
435,0.0,0.0,0.0,0.0,0.0,0.0,0.0823,0.9554,0.1896,0.4819,0.3997,-0.5435,-0.5591
436,0.0,0.0,0.0,0.0,0.0,0.0,0.0760,0.9593,0.1954,0.4830,0.3997,-0.5415,-0.5601
437,0.0,0.0,0.0,0.0,0.0,0.0,0.0720,0.9559,0.1978,0.4843,0.3998,-0.5395,-0.5608
438,0.0,0.0,0.0,0.0,0.0,0.0,0.0642,0.9555,0.2022,0.4853,0.4000,-0.5375,-0.5617
439,0.0,0.0,0.0,0.0,0.0,0.0,0.0589,0.9633,0.2085,0.4864,0.4003,-0.5358,-0.5622
440,0.0,0.0,0.0,0.0,0.0,0.0,0.0526,0.9696,0.2129,0.4874,0.4008,-0.5343,-0.5625
441,0.0,0.0,0.0,0.0,0.0,0.0,0.0477,0.9716,0.2144,0.4883,0.4012,-0.5325,-0.5631
442,0.0,0.0,0.0,0.0,0.0,0.0,0.0457,0.9610,0.2144,0.4891,0.4015,-0.5307,-0.5638
443,0.0,0.0,0.0,0.0,0.0,0.0,0.0428,0.9648,0.2178,0.4898,0.4017,-0.5292,-0.5645
444,0.0,0.0,0.0,0.0,0.0,0.0,0.0424,0.9755,0.2216,0.4904,0.4022,-0.5279,-0.5648
445,0.0,0.0,0.0,0.0,0.0,0.0,0.0429,0.9760,0.2236,0.4909,0.4029,-0.5267,-0.5650
446,0.0,0.0,0.0,0.0,0.0,0.0,0.0423,0.9716,0.2231,0.4916,0.4032,-0.5253,-0.5655
447,0.0,0.0,0.0,0.0,0.0,0.0,0.0433,0.9697,0.2265,0.4922,0.4034,-0.5239,-0.5661
448,0.0,0.0,0.0,0.0,0.0,0.0,0.0448,0.9725,0.2319,0.4928,0.4037,-0.5226,-0.5667
449,0.0,0.0,0.0,0.0,0.0,0.0,0.0492,0.9778,0.2353,0.4936,0.4037,-0.5211,-0.5673
450,0.0,0.0,0.0,0.0,0.0,0.0,0.0497,0.9812,0.2377,0.4944,0.4035,-0.5196,-0.5682
451,0.0,0.0,0.0,0.0,0.0,0.0,0.0487,0.9797,0.2387,0.4950,0.4035,-0.5178,-0.5693
452,0.0,0.0,0.0,0.0,0.0,0.0,0.0502,0.9773,0.2392,0.4957,0.4035,-0.5158,-0.5704
453,0.0,0.0,0.0,0.0,0.0,0.0,0.0463,0.9822,0.2426,0.4965,0.4038,-0.5138,-0.5713
454,0.0,0.0,0.0,0.0,0.0,0.0,0.0395,0.9890,0.2474,0.4973,0.4043,-0.5114,-0.5725
455,0.0,0.0,0.0,0.0,0.0,0.0,0.0214,0.9838,0.2474,0.4981,0.4049,-0.5085,-0.5739
456,0.0,0.0,0.0,0.0,0.0,0.0,0.0029,0.9801,0.2479,0.4988,0.4057,-0.5052,-0.5757
457,0.0,0.0,0.0,0.0,0.0,0.0,-0.0075,0.9710,0.2503,0.4996,0.4062,-0.5019,-0.5775
458,0.0,0.0,0.0,0.0,0.0,0.0,-0.0099,0.9623,0.2576,0.5005,0.4059,-0.4990,-0.5794
459,0.0,0.0,0.0,0.0,0.0,0.0,-0.0027,0.9525,0.2576,0.5013,0.4054,-0.4966,-0.5811
460,0.0,0.0,0.0,0.0,0.0,0.0,0.0064,0.9268,0.2518,0.5021,0.4046,-0.4949,-0.5824
461,0.0,0.0,0.0,0.0,0.0,0.0,0.0176,0.9204,0.2533,0.5029,0.4034,-0.4939,-0.5834
462,0.0,0.0,0.0,0.0,0.0,0.0,0.0338,0.9323,0.2635,0.5036,0.4018,-0.4935,-0.5843
463,0.0,0.0,0.0,0.0,0.0,0.0,0.0494,0.9322,0.2669,0.5044,0.3998,-0.4935,-0.5850
464,0.0,0.0,0.0,0.0,0.0,0.0,0.0641,0.9340,0.2674,0.5050,0.3981,-0.4939,-0.5853
465,0.0,0.0,0.0,0.0,0.0,0.0,0.0670,0.9369,0.2669,0.5054,0.3967,-0.4946,-0.5852
466,0.0,0.0,0.0,0.0,0.0,0.0,0.0647,0.9490,0.2679,0.5057,0.3954,-0.4954,-0.5853
467,0.0,0.0,0.0,0.0,0.0,0.0,0.0711,0.9639,0.2718,0.5056,0.3942,-0.4962,-0.5854
468,0.0,0.0,0.0,0.0,0.0,0.0,0.0750,0.9687,0.2728,0.5055,0.3935,-0.4973,-0.5851
469,0.0,0.0,0.0,0.0,0.0,0.0,0.0761,0.9770,0.2737,0.5052,0.3929,-0.4979,-0.5853
470,0.0,0.0,0.0,0.0,0.0,0.0,0.0819,0.9711,0.2718,0.5050,0.3918,-0.4980,-0.5860
471,0.0,0.0,0.0,0.0,0.0,0.0,0.0819,0.9706,0.2684,0.5048,0.3914,-0.4983,-0.5862
472,0.0,0.0,0.0,0.0,0.0,0.0,0.0769,0.9566,0.2669,0.5047,0.3913,-0.4986,-0.5861
473,0.0,0.0,0.0,0.0,0.0,0.0,0.0764,0.9552,0.2723,0.5047,0.3910,-0.4986,-0.5864
474,0.0,0.0,0.0,0.0,0.0,0.0,0.0676,0.9562,0.2762,0.5047,0.3910,-0.4984,-0.5865
475,0.0,0.0,0.0,0.0,0.0,0.0,0.0618,0.9543,0.2796,0.5045,0.3909,-0.4980,-0.5870
476,0.0,0.0,0.0,0.0,0.0,0.0,0.0628,0.9645,0.2835,0.5042,0.3910,-0.4975,-0.5877
477,0.0,0.0,0.0,0.0,0.0,0.0,0.0585,0.9737,0.2849,0.5038,0.3916,-0.4970,-0.5881
478,0.0,0.0,0.0,0.0,0.0,0.0,0.0487,0.9772,0.2859,0.5031,0.3926,-0.4958,-0.5890
479,0.0,0.0,0.0,0.0,0.0,0.0,0.0403,0.9579,0.2864,0.5026,0.3934,-0.4941,-0.5903
480,0.0,0.0,0.0,0.0,0.0,0.0,0.0341,0.9855,0.3000,0.5021,0.3942,-0.4922,-0.5918
481,0.0,0.0,0.0,0.0,0.0,0.0,0.0288,0.9943,0.3043,0.5019,0.3952,-0.4900,-0.5931
482,0.0,0.0,0.0,0.0,0.0,0.0,0.0215,0.9929,0.3034,0.5018,0.3961,-0.4873,-0.5948
483,0.0,0.0,0.0,0.0,0.0,0.0,0.0174,0.9643,0.2970,0.5018,0.3968,-0.4843,-0.5968
484,0.0,0.0,0.0,0.0,0.0,0.0,0.0115,0.9537,0.3029,0.5018,0.3975,-0.4814,-0.5987
485,0.0,0.0,0.0,0.0,0.0,0.0,0.0003,0.9582,0.3087,0.5018,0.3984,-0.4784,-0.6005
486,0.0,0.0,0.0,0.0,0.0,0.0,-0.0052,0.9398,0.3072,0.5016,0.3993,-0.4757,-0.6022
487,0.0,0.0,0.0,0.0,0.0,0.0,-0.0020,0.8971,0.2980,0.5017,0.3999,-0.4736,-0.6034
488,0.0,0.0,0.0,0.0,0.0,0.0,-0.0029,0.9150,0.3140,0.5020,0.3999,-0.4717,-0.6046
489,0.0,0.0,0.0,0.0,0.0,0.0,-0.0121,0.9340,0.3267,0.5024,0.4000,-0.4700,-0.6055
490,0.0,0.0,0.0,0.0,0.0,0.0,-0.0171,0.9117,0.3247,0.5027,0.4001,-0.4687,-0.6063
491,0.0,0.0,0.0,0.0,0.0,0.0,-0.0127,0.9126,0.3286,0.5031,0.4000,-0.4677,-0.6068
492,0.0,0.0,0.0,0.0,0.0,0.0,-0.0206,0.8880,0.3223,0.5035,0.4001,-0.4672,-0.6068
493,0.0,0.0,0.0,0.0,0.0,0.0,-0.0246,0.8808,0.3213,0.5038,0.4003,-0.4674,-0.6062
494,0.0,0.0,0.0,0.0,0.0,0.0,-0.0191,0.8967,0.3247,0.5040,0.4002,-0.4681,-0.6056
495,0.0,0.0,0.0,0.0,0.0,0.0,-0.0166,0.9122,0.3257,0.5043,0.4000,-0.4692,-0.6046
496,0.0,0.0,0.0,0.0,0.0,0.0,-0.0136,0.9267,0.3272,0.5046,0.3996,-0.4708,-0.6033
497,0.0,0.0,0.0,0.0,0.0,0.0,-0.0140,0.9301,0.3242,0.5047,0.3991,-0.4725,-0.6022
498,0.0,0.0,0.0,0.0,0.0,0.0,-0.0150,0.9369,0.3223,0.5047,0.3987,-0.4742,-0.6012
499,0.0,0.0,0.0,0.0,0.0,0.0,-0.0081,0.9407,0.3184,0.5046,0.3981,-0.4761,-0.6002
500,0.0,0.0,0.0,0.0,0.0,0.0,-0.0003,0.9363,0.3101,0.5046,0.3975,-0.4784,-0.5988
501,0.0,0.0,0.0,0.0,0.0,0.0,0.0060,0.9383,0.3024,0.5044,0.3970,-0.4809,-0.5973
502,0.0,0.0,0.0,0.0,0.0,0.0,0.0123,0.9314,0.2922,0.5044,0.3965,-0.4835,-0.5955
503,0.0,0.0,0.0,0.0,0.0,0.0,0.0211,0.9256,0.2873,0.5045,0.3959,-0.4862,-0.5936
504,0.0,0.0,0.0,0.0,0.0,0.0,0.0232,0.9556,0.2902,0.5046,0.3955,-0.4889,-0.5916
505,0.0,0.0,0.0,0.0,0.0,0.0,0.0292,0.9759,0.2936,0.5048,0.3952,-0.4912,-0.5896
506,0.0,0.0,0.0,0.0,0.0,0.0,0.0371,0.9889,0.2859,0.5050,0.3950,-0.4935,-0.5878
507,0.0,0.0,0.0,0.0,0.0,0.0,0.0443,0.9681,0.2718,0.5051,0.3950,-0.4957,-0.5857
508,0.0,0.0,0.0,0.0,0.0,0.0,0.0384,0.9628,0.2683,0.5051,0.3950,-0.4979,-0.5839
509,0.0,0.0,0.0,0.0,0.0,0.0,0.0356,0.9788,0.2679,0.5047,0.3950,-0.4999,-0.5825
510,0.0,0.0,0.0,0.0,0.0,0.0,0.0318,0.9977,0.2717,0.5044,0.3951,-0.5014,-0.5815
511,0.0,0.0,0.0,0.0,0.0,0.0,0.0328,1.0006,0.2698,0.5038,0.3953,-0.5025,-0.5809
512,0.0,0.0,0.0,0.0,0.0,0.0,0.0341,0.9774,0.2557,0.5030,0.3959,-0.5036,-0.5803
513,0.0,0.0,0.0,0.0,0.0,0.0,0.0379,0.9696,0.2508,0.5021,0.3962,-0.5044,-0.5801
514,0.0,0.0,0.0,0.0,0.0,0.0,0.0404,0.9657,0.2474,0.5012,0.3966,-0.5054,-0.5797
515,0.0,0.0,0.0,0.0,0.0,0.0,0.0427,0.9531,0.2392,0.5003,0.3968,-0.5065,-0.5794
516,0.0,0.0,0.0,0.0,0.0,0.0,0.0408,0.9590,0.2353,0.4993,0.3967,-0.5074,-0.5795
517,0.0,0.0,0.0,0.0,0.0,0.0,0.0482,0.9701,0.2324,0.4985,0.3969,-0.5088,-0.5788
518,0.0,0.0,0.0,0.0,0.0,0.0,0.0516,0.9710,0.2270,0.4977,0.3973,-0.5103,-0.5779
519,0.0,0.0,0.0,0.0,0.0,0.0,0.0521,0.9749,0.2226,0.4970,0.3976,-0.5117,-0.5771
520,0.0,0.0,0.0,0.0,0.0,0.0,0.0556,0.9778,0.2217,0.4965,0.3978,-0.5131,-0.5762
521,0.0,0.0,0.0,0.0,0.0,0.0,0.0571,0.9870,0.2217,0.4960,0.3980,-0.5145,-0.5752
522,0.0,0.0,0.0,0.0,0.0,0.0,0.0591,0.9909,0.2231,0.4957,0.3979,-0.5155,-0.5747
523,0.0,0.0,0.0,0.0,0.0,0.0,0.0636,1.0213,0.2304,0.4956,0.3978,-0.5161,-0.5743
524,0.0,0.0,0.0,0.0,0.0,0.0,0.0591,0.9986,0.2197,0.4954,0.3982,-0.5166,-0.5737
525,0.0,0.0,0.0,0.0,0.0,0.0,0.0662,0.9622,0.2129,0.4954,0.3982,-0.5171,-0.5733
526,0.0,0.0,0.0,0.0,0.0,0.0,0.0630,0.9971,0.2236,0.4957,0.3982,-0.5171,-0.5730
527,0.0,0.0,0.0,0.0,0.0,0.0,0.0517,0.9851,0.2226,0.4960,0.3984,-0.5168,-0.5729
528,0.0,0.0,0.0,0.0,0.0,0.0,0.0619,0.9695,0.2241,0.4964,0.3982,-0.5165,-0.5730
529,0.0,0.0,0.0,0.0,0.0,0.0,0.0533,1.0044,0.2363,0.4967,0.3982,-0.5160,-0.5731
530,0.0,0.0,0.0,0.0,0.0,0.0,0.0486,0.9570,0.2236,0.4971,0.3985,-0.5155,-0.5729
531,0.0,0.0,0.0,0.0,0.0,0.0,0.0574,0.9584,0.2251,0.4975,0.3985,-0.5154,-0.5727
532,0.0,0.0,0.0,0.0,0.0,0.0,0.0574,0.9613,0.2260,0.4979,0.3986,-0.5152,-0.5725
533,0.0,0.0,0.0,0.0,0.0,0.0,0.0588,0.9531,0.2212,0.4980,0.3987,-0.5154,-0.5722
534,0.0,0.0,0.0,0.0,0.0,0.0,0.0608,0.9535,0.2222,0.4980,0.3987,-0.5158,-0.5718
535,0.0,0.0,0.0,0.0,0.0,0.0,0.0608,0.9545,0.2256,0.4981,0.3984,-0.5162,-0.5716
536,0.0,0.0,0.0,0.0,0.0,0.0,0.0628,0.9695,0.2285,0.4983,0.3980,-0.5165,-0.5715
537,0.0,0.0,0.0,0.0,0.0,0.0,0.0682,0.9661,0.2241,0.4985,0.3978,-0.5170,-0.5710
538,0.0,0.0,0.0,0.0,0.0,0.0,0.0691,0.9578,0.2231,0.4988,0.3975,-0.5176,-0.5703
539,0.0,0.0,0.0,0.0,0.0,0.0,0.0697,0.9709,0.2270,0.4991,0.3973,-0.5184,-0.5694
540,0.0,0.0,0.0,0.0,0.0,0.0,0.0677,0.9694,0.2265,0.4994,0.3974,-0.5193,-0.5684
541,0.0,0.0,0.0,0.0,0.0,0.0,0.0692,0.9670,0.2290,0.4999,0.3971,-0.5199,-0.5676
542,0.0,0.0,0.0,0.0,0.0,0.0,0.0683,0.9927,0.2358,0.5004,0.3967,-0.5202,-0.5671
543,0.0,0.0,0.0,0.0,0.0,0.0,0.0625,1.0000,0.2338,0.5007,0.3968,-0.5202,-0.5668
544,0.0,0.0,0.0,0.0,0.0,0.0,0.0669,0.9898,0.2304,0.5009,0.3967,-0.5200,-0.5668
545,0.0,0.0,0.0,0.0,0.0,0.0,0.0800,0.9868,0.2217,0.5011,0.3967,-0.5198,-0.5668
546,0.0,0.0,0.0,0.0,0.0,0.0,0.0816,1.0129,0.2265,0.5013,0.3969,-0.5192,-0.5671
547,0.0,0.0,0.0,0.0,0.0,0.0,0.0778,1.0164,0.2275,0.5014,0.3971,-0.5182,-0.5678
548,0.0,0.0,0.0,0.0,0.0,0.0,0.0806,1.0042,0.2256,0.5016,0.3971,-0.5170,-0.5687
549,0.0,0.0,0.0,0.0,0.0,0.0,0.0706,0.9694,0.2231,0.5019,0.3970,-0.5156,-0.5698
550,0.0,0.0,0.0,0.0,0.0,0.0,0.0700,0.9471,0.2256,0.5023,0.3968,-0.5144,-0.5707
551,0.0,0.0,0.0,0.0,0.0,0.0,0.0684,0.9234,0.2236,0.5029,0.3965,-0.5134,-0.5712
552,0.0,0.0,0.0,0.0,0.0,0.0,0.0709,0.9253,0.2256,0.5036,0.3963,-0.5128,-0.5713
553,0.0,0.0,0.0,0.0,0.0,0.0,0.0718,0.9181,0.2212,0.5042,0.3961,-0.5126,-0.5711
554,0.0,0.0,0.0,0.0,0.0,0.0,0.0690,0.9341,0.2217,0.5043,0.3966,-0.5128,-0.5704
555,0.0,0.0,0.0,0.0,0.0,0.0,0.0676,0.9472,0.2256,0.5049,0.3962,-0.5118,-0.5711
556,0.0,0.0,0.0,0.0,0.0,0.0,0.0648,0.9656,0.2251,0.5049,0.3968,-0.5123,-0.5702
557,0.0,0.0,0.0,0.0,0.0,0.0,0.0658,0.9724,0.2212,0.5048,0.3975,-0.5129,-0.5694
558,0.0,0.0,0.0,0.0,0.0,0.0,0.0674,0.9952,0.2173,0.5045,0.3984,-0.5134,-0.5685
559,0.0,0.0,0.0,0.0,0.0,0.0,0.0732,0.9932,0.2129,0.5042,0.3994,-0.5140,-0.5675
560,0.0,0.0,0.0,0.0,0.0,0.0,0.0780,0.9786,0.2090,0.5040,0.4002,-0.5147,-0.5665
561,0.0,0.0,0.0,0.0,0.0,0.0,0.0722,0.9869,0.2134,0.5038,0.4013,-0.5152,-0.5654
562,0.0,0.0,0.0,0.0,0.0,0.0,0.0704,1.0160,0.2173,0.5035,0.4024,-0.5154,-0.5648
563,0.0,0.0,0.0,0.0,0.0,0.0,0.0671,1.0257,0.2129,0.5028,0.4039,-0.5153,-0.5643
564,0.0,0.0,0.0,0.0,0.0,0.0,0.0583,1.0287,0.2085,0.5022,0.4052,-0.5146,-0.5646
565,0.0,0.0,0.0,0.0,0.0,0.0,0.0477,1.0545,0.2148,0.5012,0.4064,-0.5134,-0.5657
566,0.0,0.0,0.0,0.0,0.0,0.0,0.0347,0.9984,0.1988,0.4994,0.4078,-0.5121,-0.5675
567,0.0,0.0,0.0,0.0,0.0,0.0,0.0353,0.8604,0.1608,0.4973,0.4086,-0.5122,-0.5687
568,0.0,0.0,0.0,0.0,0.0,0.0,0.0281,0.8794,0.1696,0.4952,0.4091,-0.5131,-0.5693
569,0.0,0.0,0.0,0.0,0.0,0.0,0.0234,0.8997,0.1725,0.4927,0.4095,-0.5148,-0.5697
570,0.0,0.0,0.0,0.0,0.0,0.0,0.0370,0.8866,0.1647,0.4901,0.4094,-0.5177,-0.5694
571,0.0,0.0,0.0,0.0,0.0,0.0,0.0464,0.9121,0.1677,0.4876,0.4088,-0.5209,-0.5691
572,0.0,0.0,0.0,0.0,0.0,0.0,0.0597,0.9285,0.1677,0.4850,0.4082,-0.5249,-0.5680
573,0.0,0.0,0.0,0.0,0.0,0.0,0.0724,0.9410,0.1667,0.4826,0.4073,-0.5292,-0.5667
574,0.0,0.0,0.0,0.0,0.0,0.0,0.0790,0.9768,0.1726,0.4805,0.4060,-0.5331,-0.5657
575,0.0,0.0,0.0,0.0,0.0,0.0,0.0840,0.9947,0.1755,0.4785,0.4047,-0.5367,-0.5650
576,0.0,0.0,0.0,0.0,0.0,0.0,0.0910,1.0251,0.1823,0.4764,0.4035,-0.5399,-0.5645
577,0.0,0.0,0.0,0.0,0.0,0.0,0.0945,1.0323,0.1813,0.4746,0.4024,-0.5431,-0.5638
578,0.0,0.0,0.0,0.0,0.0,0.0,0.0949,1.0285,0.1857,0.4730,0.4014,-0.5458,-0.5632
579,0.0,0.0,0.0,0.0,0.0,0.0,0.0931,1.0444,0.1906,0.4717,0.4006,-0.5479,-0.5629
580,0.0,0.0,0.0,0.0,0.0,0.0,0.0965,1.0488,0.1920,0.4707,0.3996,-0.5493,-0.5631
581,0.0,0.0,0.0,0.0,0.0,0.0,0.0896,1.0445,0.1954,0.4702,0.3991,-0.5502,-0.5629
582,0.0,0.0,0.0,0.0,0.0,0.0,0.0833,1.0421,0.1969,0.4699,0.3989,-0.5507,-0.5629
583,0.0,0.0,0.0,0.0,0.0,0.0,0.0823,1.0343,0.1988,0.4700,0.3983,-0.5502,-0.5637
584,0.0,0.0,0.0,0.0,0.0,0.0,0.0807,1.0121,0.1993,0.4706,0.3979,-0.5494,-0.5643
585,0.0,0.0,0.0,0.0,0.0,0.0,0.0694,1.0015,0.2008,0.4715,0.3980,-0.5479,-0.5649
586,0.0,0.0,0.0,0.0,0.0,0.0,0.0552,0.9997,0.2071,0.4723,0.3983,-0.5461,-0.5658
587,0.0,0.0,0.0,0.0,0.0,0.0,0.0494,1.0016,0.2119,0.4734,0.3985,-0.5439,-0.5668
588,0.0,0.0,0.0,0.0,0.0,0.0,0.0454,0.9915,0.2129,0.4745,0.3984,-0.5414,-0.5683
589,0.0,0.0,0.0,0.0,0.0,0.0,0.0448,0.9736,0.2124,0.4757,0.3983,-0.5390,-0.5696
590,0.0,0.0,0.0,0.0,0.0,0.0,0.0398,0.9542,0.2095,0.4770,0.3984,-0.5366,-0.5708
591,0.0,0.0,0.0,0.0,0.0,0.0,0.0422,0.9440,0.2080,0.4783,0.3987,-0.5346,-0.5714
592,0.0,0.0,0.0,0.0,0.0,0.0,0.0427,0.9528,0.2080,0.4796,0.3989,-0.5327,-0.5718
593,0.0,0.0,0.0,0.0,0.0,0.0,0.0437,0.9528,0.2075,0.4811,0.3992,-0.5310,-0.5720
594,0.0,0.0,0.0,0.0,0.0,0.0,0.0476,0.9551,0.2085,0.4824,0.3994,-0.5294,-0.5723
595,0.0,0.0,0.0,0.0,0.0,0.0,0.0482,0.9639,0.2056,0.4838,0.3998,-0.5278,-0.5723
596,0.0,0.0,0.0,0.0,0.0,0.0,0.0487,0.9653,0.2037,0.4853,0.4005,-0.5263,-0.5719
597,0.0,0.0,0.0,0.0,0.0,0.0,0.0559,0.9590,0.1993,0.4867,0.4010,-0.5249,-0.5716
598,0.0,0.0,0.0,0.0,0.0,0.0,0.0555,0.9687,0.1998,0.4884,0.4015,-0.5237,-0.5710
599,0.0,0.0,0.0,0.0,0.0,0.0,0.0531,0.9803,0.2012,0.4898,0.4024,-0.5225,-0.5702
600,0.0,0.0,0.0,0.0,0.0,0.0,0.0512,0.9861,0.2017,0.4913,0.4034,-0.5212,-0.5694
601,0.0,0.0,0.0,0.0,0.0,0.0,0.0503,0.9920,0.2056,0.4929,0.4044,-0.5197,-0.5687
602,0.0,0.0,0.0,0.0,0.0,0.0,0.0523,0.9992,0.2075,0.4945,0.4056,-0.5181,-0.5678
603,0.0,0.0,0.0,0.0,0.0,0.0,0.0489,1.0046,0.2100,0.4964,0.4067,-0.5161,-0.5672
604,0.0,0.0,0.0,0.0,0.0,0.0,0.0449,0.9988,0.2119,0.4984,0.4076,-0.5137,-0.5671
605,0.0,0.0,0.0,0.0,0.0,0.0,0.0400,0.9891,0.2114,0.5002,0.4090,-0.5111,-0.5668
606,0.0,0.0,0.0,0.0,0.0,0.0,0.0292,0.9781,0.2109,0.5020,0.4108,-0.5084,-0.5664
607,0.0,0.0,0.0,0.0,0.0,0.0,0.0253,0.9728,0.2109,0.5038,0.4126,-0.5057,-0.5659
608,0.0,0.0,0.0,0.0,0.0,0.0,0.0360,0.9717,0.2134,0.5056,0.4141,-0.5030,-0.5655
609,0.0,0.0,0.0,0.0,0.0,0.0,0.0414,0.9818,0.2187,0.5076,0.4152,-0.5005,-0.5652
610,0.0,0.0,0.0,0.0,0.0,0.0,0.0405,0.9881,0.2275,0.5097,0.4162,-0.4978,-0.5650
611,0.0,0.0,0.0,0.0,0.0,0.0,0.0328,1.0007,0.2411,0.5116,0.4172,-0.4949,-0.5650
612,0.0,0.0,0.0,0.0,0.0,0.0,0.0200,0.9955,0.2469,0.5135,0.4185,-0.4917,-0.5652
613,0.0,0.0,0.0,0.0,0.0,0.0,0.0237,0.9557,0.2416,0.5153,0.4193,-0.4885,-0.5658
614,0.0,0.0,0.0,0.0,0.0,0.0,0.0140,0.9698,0.2547,0.5171,0.4201,-0.4852,-0.5663
615,0.0,0.0,0.0,0.0,0.0,0.0,0.0073,0.9839,0.2669,0.5187,0.4209,-0.4819,-0.5670
616,0.0,0.0,0.0,0.0,0.0,0.0,0.0088,0.9960,0.2746,0.5202,0.4216,-0.4784,-0.5681
617,0.0,0.0,0.0,0.0,0.0,0.0,0.0003,0.9602,0.2746,0.5216,0.4223,-0.4748,-0.5694
618,0.0,0.0,0.0,0.0,0.0,0.0,-0.0008,0.9471,0.2785,0.5225,0.4228,-0.4714,-0.5709
619,0.0,0.0,0.0,0.0,0.0,0.0,-0.0085,0.9612,0.2936,0.5233,0.4235,-0.4680,-0.5725
620,0.0,0.0,0.0,0.0,0.0,0.0,-0.0077,0.8458,0.3029,0.5244,0.4236,-0.4644,-0.5744
621,0.0,0.0,0.0,0.0,0.0,0.0,-0.0144,0.9506,0.2985,0.5247,0.4246,-0.4611,-0.5760
622,0.0,0.0,0.0,0.0,0.0,0.0,-0.0351,0.9188,0.2955,0.5247,0.4252,-0.4577,-0.5783
623,0.0,0.0,0.0,0.0,0.0,0.0,-0.0423,0.9382,0.3106,0.5245,0.4256,-0.4545,-0.5807
624,0.0,0.0,0.0,0.0,0.0,0.0,-0.0433,0.9294,0.3130,0.5240,0.4258,-0.4518,-0.5831
625,0.0,0.0,0.0,0.0,0.0,0.0,-0.0381,0.9066,0.3106,0.5235,0.4254,-0.4495,-0.5856
626,0.0,0.0,0.0,0.0,0.0,0.0,-0.0405,0.9163,0.3174,0.5227,0.4248,-0.4477,-0.5881
627,0.0,0.0,0.0,0.0,0.0,0.0,-0.0400,0.9129,0.3213,0.5216,0.4241,-0.4465,-0.5906
628,0.0,0.0,0.0,0.0,0.0,0.0,-0.0375,0.9294,0.3262,0.5206,0.4230,-0.4455,-0.5930
629,0.0,0.0,0.0,0.0,0.0,0.0,-0.0425,0.9154,0.3194,0.5193,0.4221,-0.4447,-0.5954
630,0.0,0.0,0.0,0.0,0.0,0.0,-0.0380,0.9172,0.3242,0.5176,0.4209,-0.4446,-0.5977
631,0.0,0.0,0.0,0.0,0.0,0.0,-0.0399,0.9337,0.3310,0.5158,0.4196,-0.4450,-0.5998
632,0.0,0.0,0.0,0.0,0.0,0.0,-0.0417,0.9545,0.3393,0.5141,0.4179,-0.4452,-0.6024
633,0.0,0.0,0.0,0.0,0.0,0.0,-0.0395,0.9129,0.3364,0.5122,0.4159,-0.4457,-0.6050
634,0.0,0.0,0.0,0.0,0.0,0.0,-0.0343,0.9787,0.3544,0.5101,0.4140,-0.4463,-0.6076
635,0.0,0.0,0.0,0.0,0.0,0.0,-0.0383,0.9559,0.3466,0.5083,0.4119,-0.4463,-0.6106
636,0.0,0.0,0.0,0.0,0.0,0.0,-0.0239,0.9166,0.3349,0.5065,0.4099,-0.4464,-0.6133
637,0.0,0.0,0.0,0.0,0.0,0.0,-0.0231,0.8895,0.3310,0.5049,0.4080,-0.4471,-0.6154
638,0.0,0.0,0.0,0.0,0.0,0.0,-0.0319,0.8789,0.3359,0.5037,0.4062,-0.4480,-0.6169
639,0.0,0.0,0.0,0.0,0.0,0.0,-0.0352,0.9109,0.3461,0.5023,0.4052,-0.4494,-0.6178
640,0.0,0.0,0.0,0.0,0.0,0.0,-0.0210,0.9064,0.3447,0.5010,0.4042,-0.4510,-0.6182
641,0.0,0.0,0.0,0.0,0.0,0.0,0.0101,0.8882,0.3369,0.5004,0.4024,-0.4531,-0.6184
642,0.0,0.0,0.0,0.0,0.0,0.0,0.0098,0.9163,0.3369,0.5000,0.4012,-0.4556,-0.6176
643,0.0,0.0,0.0,0.0,0.0,0.0,0.0096,0.9585,0.3379,0.4994,0.4006,-0.4582,-0.6166
644,0.0,0.0,0.0,0.0,0.0,0.0,0.0041,0.9517,0.3384,0.4989,0.3998,-0.4604,-0.6159
645,0.0,0.0,0.0,0.0,0.0,0.0,-0.0148,0.9679,0.3486,0.4982,0.3992,-0.4620,-0.6156
646,0.0,0.0,0.0,0.0,0.0,0.0,-0.0238,0.9302,0.3301,0.4971,0.3993,-0.4635,-0.6154
647,0.0,0.0,0.0,0.0,0.0,0.0,-0.0028,0.9315,0.3291,0.4963,0.3987,-0.4651,-0.6152
648,0.0,0.0,0.0,0.0,0.0,0.0,-0.0115,0.9538,0.3330,0.4955,0.3983,-0.4665,-0.6150
649,0.0,0.0,0.0,0.0,0.0,0.0,0.0035,0.9208,0.3223,0.4950,0.3977,-0.4683,-0.6144
650,0.0,0.0,0.0,0.0,0.0,0.0,0.0006,0.9348,0.3291,0.4947,0.3972,-0.4698,-0.6138
651,0.0,0.0,0.0,0.0,0.0,0.0,-0.0085,0.9533,0.3330,0.4945,0.3970,-0.4712,-0.6131
652,0.0,0.0,0.0,0.0,0.0,0.0,-0.0067,0.9286,0.3218,0.4944,0.3967,-0.4727,-0.6122
653,0.0,0.0,0.0,0.0,0.0,0.0,-0.0049,0.9107,0.3121,0.4945,0.3964,-0.4742,-0.6111
654,0.0,0.0,0.0,0.0,0.0,0.0,-0.0057,0.9393,0.3174,0.4946,0.3963,-0.4759,-0.6098
655,0.0,0.0,0.0,0.0,0.0,0.0,-0.0095,0.9558,0.3174,0.4948,0.3961,-0.4774,-0.6086
656,0.0,0.0,0.0,0.0,0.0,0.0,-0.0057,0.9446,0.3077,0.4950,0.3962,-0.4793,-0.6069
657,0.0,0.0,0.0,0.0,0.0,0.0,-0.0012,0.9528,0.3043,0.4952,0.3962,-0.4812,-0.6052
658,0.0,0.0,0.0,0.0,0.0,0.0,0.0022,0.9567,0.3014,0.4955,0.3961,-0.4830,-0.6036
659,0.0,0.0,0.0,0.0,0.0,0.0,0.0086,0.9547,0.2951,0.4958,0.3959,-0.4850,-0.6019
660,0.0,0.0,0.0,0.0,0.0,0.0,0.0096,0.9635,0.2922,0.4961,0.3956,-0.4868,-0.6004
661,0.0,0.0,0.0,0.0,0.0,0.0,0.0175,0.9750,0.2907,0.4962,0.3955,-0.4885,-0.5989
662,0.0,0.0,0.0,0.0,0.0,0.0,0.0248,0.9764,0.2868,0.4964,0.3955,-0.4901,-0.5975
663,0.0,0.0,0.0,0.0,0.0,0.0,0.0301,0.9691,0.2810,0.4968,0.3953,-0.4913,-0.5963
664,0.0,0.0,0.0,0.0,0.0,0.0,0.0359,0.9633,0.2771,0.4972,0.3951,-0.4926,-0.5949
665,0.0,0.0,0.0,0.0,0.0,0.0,0.0359,0.9628,0.2718,0.4978,0.3953,-0.4939,-0.5933
666,0.0,0.0,0.0,0.0,0.0,0.0,0.0384,0.9715,0.2679,0.4983,0.3955,-0.4949,-0.5919
667,0.0,0.0,0.0,0.0,0.0,0.0,0.0414,0.9715,0.2649,0.4988,0.3957,-0.4958,-0.5906
668,0.0,0.0,0.0,0.0,0.0,0.0,0.0428,0.9657,0.2596,0.4995,0.3960,-0.4968,-0.5890
669,0.0,0.0,0.0,0.0,0.0,0.0,0.0452,0.9628,0.2557,0.5003,0.3962,-0.4975,-0.5875
670,0.0,0.0,0.0,0.0,0.0,0.0,0.0423,0.9604,0.2508,0.5012,0.3965,-0.4981,-0.5860
671,0.0,0.0,0.0,0.0,0.0,0.0,0.0408,0.9623,0.2489,0.5022,0.3971,-0.4988,-0.5843
672,0.0,0.0,0.0,0.0,0.0,0.0,0.0394,0.9624,0.2440,0.5031,0.3978,-0.4994,-0.5825
673,0.0,0.0,0.0,0.0,0.0,0.0,0.0418,0.9619,0.2392,0.5039,0.3987,-0.5001,-0.5806
674,0.0,0.0,0.0,0.0,0.0,0.0,0.0448,0.9667,0.2358,0.5048,0.3993,-0.5009,-0.5786
675,0.0,0.0,0.0,0.0,0.0,0.0,0.0346,0.9813,0.2382,0.5055,0.4004,-0.5016,-0.5768
676,0.0,0.0,0.0,0.0,0.0,0.0,0.0355,0.9736,0.2367,0.5060,0.4015,-0.5023,-0.5748
677,0.0,0.0,0.0,0.0,0.0,0.0,0.0325,0.9605,0.2328,0.5068,0.4023,-0.5030,-0.5730
678,0.0,0.0,0.0,0.0,0.0,0.0,0.0306,0.9601,0.2319,0.5074,0.4035,-0.5039,-0.5708
679,0.0,0.0,0.0,0.0,0.0,0.0,0.0282,0.9819,0.2362,0.5078,0.4047,-0.5047,-0.5689
680,0.0,0.0,0.0,0.0,0.0,0.0,0.0292,0.9809,0.2328,0.5082,0.4056,-0.5052,-0.5674
681,0.0,0.0,0.0,0.0,0.0,0.0,0.0341,0.9726,0.2275,0.5086,0.4066,-0.5061,-0.5656
682,0.0,0.0,0.0,0.0,0.0,0.0,0.0331,0.9756,0.2285,0.5089,0.4073,-0.5068,-0.5643
683,0.0,0.0,0.0,0.0,0.0,0.0,0.0342,0.9910,0.2333,0.5088,0.4079,-0.5075,-0.5632
684,0.0,0.0,0.0,0.0,0.0,0.0,0.0309,1.0245,0.2377,0.5086,0.4088,-0.5078,-0.5624
685,0.0,0.0,0.0,0.0,0.0,0.0,0.0317,0.9930,0.2284,0.5086,0.4093,-0.5075,-0.5624
686,0.0,0.0,0.0,0.0,0.0,0.0,0.0328,1.0012,0.2275,0.5081,0.4097,-0.5071,-0.5629
687,0.0,0.0,0.0,0.0,0.0,0.0,0.0386,0.9930,0.2246,0.5074,0.4102,-0.5067,-0.5635
688,0.0,0.0,0.0,0.0,0.0,0.0,0.0429,0.9842,0.2212,0.5066,0.4103,-0.5064,-0.5643
689,0.0,0.0,0.0,0.0,0.0,0.0,0.0464,0.9905,0.2236,0.5060,0.4102,-0.5060,-0.5654
690,0.0,0.0,0.0,0.0,0.0,0.0,0.0482,0.9721,0.2163,0.5052,0.4104,-0.5058,-0.5661
691,0.0,0.0,0.0,0.0,0.0,0.0,0.0462,0.9706,0.2158,0.5046,0.4107,-0.5056,-0.5666
692,0.0,0.0,0.0,0.0,0.0,0.0,0.0454,0.9948,0.2265,0.5041,0.4110,-0.5053,-0.5672
693,0.0,0.0,0.0,0.0,0.0,0.0,0.0425,0.9934,0.2255,0.5036,0.4112,-0.5047,-0.5679
694,0.0,0.0,0.0,0.0,0.0,0.0,0.0379,0.9702,0.2216,0.5031,0.4114,-0.5038,-0.5690
695,0.0,0.0,0.0,0.0,0.0,0.0,0.0389,0.9726,0.2270,0.5026,0.4117,-0.5030,-0.5700
696,0.0,0.0,0.0,0.0,0.0,0.0,0.0345,0.9678,0.2289,0.5021,0.4123,-0.5024,-0.5706
697,0.0,0.0,0.0,0.0,0.0,0.0,0.0355,0.9697,0.2343,0.5015,0.4126,-0.5019,-0.5713
698,0.0,0.0,0.0,0.0,0.0,0.0,0.0300,0.9533,0.2367,0.5010,0.4126,-0.5012,-0.5723
699,0.0,0.0,0.0,0.0,0.0,0.0,0.0213,0.9577,0.2430,0.5005,0.4126,-0.5005,-0.5734
700,0.0,0.0,0.0,0.0,0.0,0.0,0.0174,0.9679,0.2498,0.5000,0.4125,-0.5000,-0.5743
701,0.0,0.0,0.0,0.0,0.0,0.0,0.0149,0.9563,0.2489,0.4995,0.4122,-0.4995,-0.5754
702,0.0,0.0,0.0,0.0,0.0,0.0,0.0153,0.9427,0.2484,0.4988,0.4122,-0.4995,-0.5760
703,0.0,0.0,0.0,0.0,0.0,0.0,0.0207,0.9441,0.2552,0.4981,0.4120,-0.4999,-0.5764
704,0.0,0.0,0.0,0.0,0.0,0.0,0.0286,0.9551,0.2601,0.4975,0.4115,-0.5004,-0.5768
705,0.0,0.0,0.0,0.0,0.0,0.0,0.0285,0.9440,0.2557,0.4972,0.4111,-0.5009,-0.5770
706,0.0,0.0,0.0,0.0,0.0,0.0,0.0212,0.9421,0.2542,0.4968,0.4106,-0.5011,-0.5775
707,0.0,0.0,0.0,0.0,0.0,0.0,0.0257,0.9658,0.2625,0.4964,0.4101,-0.5015,-0.5778
708,0.0,0.0,0.0,0.0,0.0,0.0,0.0272,0.9692,0.2654,0.4962,0.4097,-0.5019,-0.5780
709,0.0,0.0,0.0,0.0,0.0,0.0,0.0248,0.9847,0.2703,0.4960,0.4093,-0.5023,-0.5781
710,0.0,0.0,0.0,0.0,0.0,0.0,0.0198,0.9644,0.2635,0.4957,0.4092,-0.5024,-0.5783
711,0.0,0.0,0.0,0.0,0.0,0.0,0.0182,0.9412,0.2503,0.4955,0.4088,-0.5025,-0.5786
712,0.0,0.0,0.0,0.0,0.0,0.0,0.0158,0.9437,0.2464,0.4951,0.4091,-0.5031,-0.5782
713,0.0,0.0,0.0,0.0,0.0,0.0,0.0174,0.9640,0.2494,0.4948,0.4091,-0.5037,-0.5780
714,0.0,0.0,0.0,0.0,0.0,0.0,0.0208,0.9645,0.2460,0.4949,0.4088,-0.5041,-0.5778
715,0.0,0.0,0.0,0.0,0.0,0.0,0.0203,0.9645,0.2440,0.4949,0.4087,-0.5048,-0.5773
716,0.0,0.0,0.0,0.0,0.0,0.0,0.0130,0.9660,0.2348,0.4949,0.4088,-0.5055,-0.5765
717,0.0,0.0,0.0,0.0,0.0,0.0,0.0208,0.9558,0.2265,0.4949,0.4088,-0.5064,-0.5758
718,0.0,0.0,0.0,0.0,0.0,0.0,0.0296,0.9606,0.2221,0.4949,0.4087,-0.5075,-0.5748
719,0.0,0.0,0.0,0.0,0.0,0.0,0.0350,0.9596,0.2139,0.4948,0.4085,-0.5090,-0.5738
720,0.0,0.0,0.0,0.0,0.0,0.0,0.0433,0.9750,0.2144,0.4947,0.4081,-0.5105,-0.5728
721,0.0,0.0,0.0,0.0,0.0,0.0,0.0482,0.9779,0.2144,0.4946,0.4076,-0.5119,-0.5720
722,0.0,0.0,0.0,0.0,0.0,0.0,0.0546,0.9808,0.2110,0.4946,0.4072,-0.5132,-0.5712
723,0.0,0.0,0.0,0.0,0.0,0.0,0.0590,0.9764,0.2051,0.4946,0.4068,-0.5146,-0.5702
724,0.0,0.0,0.0,0.0,0.0,0.0,0.0561,0.9914,0.2110,0.4946,0.4064,-0.5157,-0.5694
725,0.0,0.0,0.0,0.0,0.0,0.0,0.0533,1.0093,0.2153,0.4946,0.4064,-0.5167,-0.5686
726,0.0,0.0,0.0,0.0,0.0,0.0,0.0512,0.9856,0.2119,0.4948,0.4063,-0.5174,-0.5678
727,0.0,0.0,0.0,0.0,0.0,0.0,0.0654,0.9860,0.2110,0.4951,0.4061,-0.5180,-0.5671
728,0.0,0.0,0.0,0.0,0.0,0.0,0.0693,0.9956,0.2134,0.4957,0.4061,-0.5184,-0.5663
729,0.0,0.0,0.0,0.0,0.0,0.0,0.0572,1.0059,0.2178,0.4962,0.4060,-0.5182,-0.5661
730,0.0,0.0,0.0,0.0,0.0,0.0,0.0435,0.9968,0.2168,0.4963,0.4064,-0.5177,-0.5661
731,0.0,0.0,0.0,0.0,0.0,0.0,0.0472,0.9687,0.2110,0.4961,0.4065,-0.5175,-0.5664
732,0.0,0.0,0.0,0.0,0.0,0.0,0.0505,0.9522,0.2105,0.4961,0.4061,-0.5175,-0.5667
733,0.0,0.0,0.0,0.0,0.0,0.0,0.0515,0.9444,0.2114,0.4963,0.4057,-0.5175,-0.5668
734,0.0,0.0,0.0,0.0,0.0,0.0,0.0540,0.9536,0.2124,0.4964,0.4056,-0.5179,-0.5664
735,0.0,0.0,0.0,0.0,0.0,0.0,0.0560,0.9730,0.2139,0.4964,0.4057,-0.5183,-0.5660
736,0.0,0.0,0.0,0.0,0.0,0.0,0.0556,0.9783,0.2144,0.4966,0.4058,-0.5185,-0.5656
737,0.0,0.0,0.0,0.0,0.0,0.0,0.0561,0.9846,0.2144,0.4969,0.4060,-0.5187,-0.5650
738,0.0,0.0,0.0,0.0,0.0,0.0,0.0624,0.9768,0.2129,0.4974,0.4060,-0.5190,-0.5643
739,0.0,0.0,0.0,0.0,0.0,0.0,0.0643,0.9705,0.2129,0.4980,0.4057,-0.5192,-0.5638
740,0.0,0.0,0.0,0.0,0.0,0.0,0.0560,0.9677,0.2110,0.4987,0.4057,-0.5194,-0.5630
741,0.0,0.0,0.0,0.0,0.0,0.0,0.0584,0.9705,0.2119,0.4995,0.4057,-0.5197,-0.5620
742,0.0,0.0,0.0,0.0,0.0,0.0,0.0551,0.9778,0.2124,0.5003,0.4057,-0.5199,-0.5611
743,0.0,0.0,0.0,0.0,0.0,0.0,0.0565,0.9735,0.2114,0.5011,0.4055,-0.5201,-0.5604
744,0.0,0.0,0.0,0.0,0.0,0.0,0.0585,0.9730,0.2105,0.5019,0.4051,-0.5204,-0.5596
745,0.0,0.0,0.0,0.0,0.0,0.0,0.0643,0.9739,0.2100,0.5028,0.4049,-0.5209,-0.5585
746,0.0,0.0,0.0,0.0,0.0,0.0,0.0731,0.9772,0.2090,0.5038,0.4045,-0.5215,-0.5573
747,0.0,0.0,0.0,0.0,0.0,0.0,0.0732,0.9801,0.2115,0.5049,0.4041,-0.5220,-0.5561
748,0.0,0.0,0.0,0.0,0.0,0.0,0.0746,0.9825,0.2129,0.5060,0.4036,-0.5222,-0.5554
749,0.0,0.0,0.0,0.0,0.0,0.0,0.0775,0.9694,0.2086,0.5071,0.4029,-0.5222,-0.5549
750,0.0,0.0,0.0,0.0,0.0,0.0,0.0799,0.9650,0.2061,0.5081,0.4024,-0.5223,-0.5542
751,0.0,0.0,0.0,0.0,0.0,0.0,0.0820,0.9946,0.2139,0.5088,0.4018,-0.5224,-0.5538
752,0.0,0.0,0.0,0.0,0.0,0.0,0.0781,0.9989,0.2158,0.5096,0.4016,-0.5221,-0.5535
753,0.0,0.0,0.0,0.0,0.0,0.0,0.0804,0.9752,0.2124,0.5103,0.4019,-0.5218,-0.5529
754,0.0,0.0,0.0,0.0,0.0,0.0,0.0839,0.9819,0.2134,0.5108,0.4026,-0.5217,-0.5521
755,0.0,0.0,0.0,0.0,0.0,0.0,0.0768,1.0140,0.2188,0.5111,0.4030,-0.5209,-0.5523
756,0.0,0.0,0.0,0.0,0.0,0.0,0.0752,0.9999,0.2168,0.5112,0.4033,-0.5197,-0.5531
757,0.0,0.0,0.0,0.0,0.0,0.0,0.0785,0.9718,0.2110,0.5112,0.4041,-0.5187,-0.5535
758,0.0,0.0,0.0,0.0,0.0,0.0,0.0791,0.9902,0.2168,0.5111,0.4050,-0.5176,-0.5539
759,0.0,0.0,0.0,0.0,0.0,0.0,0.0733,0.9980,0.2222,0.5110,0.4059,-0.5161,-0.5548
760,0.0,0.0,0.0,0.0,0.0,0.0,0.0742,0.9951,0.2222,0.5108,0.4068,-0.5144,-0.5559
761,0.0,0.0,0.0,0.0,0.0,0.0,0.0716,0.9690,0.2173,0.5105,0.4076,-0.5125,-0.5573
762,0.0,0.0,0.0,0.0,0.0,0.0,0.0682,0.9680,0.2202,0.5104,0.4080,-0.5106,-0.5589
763,0.0,0.0,0.0,0.0,0.0,0.0,0.0599,0.9618,0.2183,0.5102,0.4086,-0.5087,-0.5604
764,0.0,0.0,0.0,0.0,0.0,0.0,0.0558,0.9410,0.2144,0.5101,0.4094,-0.5071,-0.5613
765,0.0,0.0,0.0,0.0,0.0,0.0,0.0534,0.9473,0.2226,0.5100,0.4101,-0.5057,-0.5621
766,0.0,0.0,0.0,0.0,0.0,0.0,0.0495,0.9434,0.2251,0.5100,0.4108,-0.5046,-0.5626
767,0.0,0.0,0.0,0.0,0.0,0.0,0.0528,0.9279,0.2217,0.5101,0.4115,-0.5041,-0.5625
768,0.0,0.0,0.0,0.0,0.0,0.0,0.0431,0.9416,0.2265,0.5102,0.4123,-0.5039,-0.5620
769,0.0,0.0,0.0,0.0,0.0,0.0,0.0416,0.9372,0.2275,0.5103,0.4132,-0.5039,-0.5612
770,0.0,0.0,0.0,0.0,0.0,0.0,0.0440,0.9299,0.2236,0.5105,0.4140,-0.5042,-0.5601
771,0.0,0.0,0.0,0.0,0.0,0.0,0.0427,0.9435,0.2241,0.5109,0.4147,-0.5045,-0.5590
772,0.0,0.0,0.0,0.0,0.0,0.0,0.0564,0.9604,0.2217,0.5115,0.4151,-0.5054,-0.5574
773,0.0,0.0,0.0,0.0,0.0,0.0,0.0560,0.9672,0.2153,0.5120,0.4156,-0.5063,-0.5556
774,0.0,0.0,0.0,0.0,0.0,0.0,0.0604,0.9695,0.2158,0.5125,0.4159,-0.5074,-0.5540
775,0.0,0.0,0.0,0.0,0.0,0.0,0.0536,0.9812,0.2168,0.5130,0.4162,-0.5084,-0.5524
776,0.0,0.0,0.0,0.0,0.0,0.0,0.0542,0.9890,0.2173,0.5133,0.4163,-0.5094,-0.5512
777,0.0,0.0,0.0,0.0,0.0,0.0,0.0517,0.9813,0.2129,0.5134,0.4165,-0.5106,-0.5497
778,0.0,0.0,0.0,0.0,0.0,0.0,0.0644,0.9908,0.2153,0.5136,0.4168,-0.5121,-0.5480
779,0.0,0.0,0.0,0.0,0.0,0.0,0.0625,0.9904,0.2129,0.5140,0.4167,-0.5129,-0.5469
780,0.0,0.0,0.0,0.0,0.0,0.0,0.0581,0.9933,0.2114,0.5140,0.4169,-0.5138,-0.5460
781,0.0,0.0,0.0,0.0,0.0,0.0,0.0671,1.0291,0.2222,0.5140,0.4167,-0.5142,-0.5456
782,0.0,0.0,0.0,0.0,0.0,0.0,0.0706,1.0441,0.2231,0.5141,0.4162,-0.5138,-0.5464
783,0.0,0.0,0.0,0.0,0.0,0.0,0.0742,1.0721,0.2265,0.5142,0.4162,-0.5130,-0.5470
784,0.0,0.0,0.0,0.0,0.0,0.0,0.0854,1.0720,0.2241,0.5147,0.4150,-0.5115,-0.5489
785,0.0,0.0,0.0,0.0,0.0,0.0,0.0787,1.0164,0.2139,0.5157,0.4133,-0.5092,-0.5513
786,0.0,0.0,0.0,0.0,0.0,0.0,0.0764,0.9529,0.2086,0.5171,0.4116,-0.5070,-0.5533
787,0.0,0.0,0.0,0.0,0.0,0.0,0.0712,0.8953,0.2017,0.5187,0.4095,-0.5052,-0.5551
788,0.0,0.0,0.0,0.0,0.0,0.0,0.0764,0.8691,0.1974,0.5204,0.4073,-0.5041,-0.5560
789,0.0,0.0,0.0,0.0,0.0,0.0,0.0873,0.8933,0.2008,0.5220,0.4050,-0.5040,-0.5563
790,0.0,0.0,0.0,0.0,0.0,0.0,0.1043,0.8830,0.1964,0.5235,0.4031,-0.5050,-0.5553
791,0.0,0.0,0.0,0.0,0.0,0.0,0.1169,0.8707,0.1960,0.5250,0.4014,-0.5067,-0.5536
792,0.0,0.0,0.0,0.0,0.0,0.0,0.1164,0.9438,0.2212,0.5265,0.4001,-0.5081,-0.5518
793,0.0,0.0,0.0,0.0,0.0,0.0,0.1182,0.9976,0.2349,0.5279,0.4000,-0.5091,-0.5497
794,0.0,0.0,0.0,0.0,0.0,0.0,0.1333,0.9912,0.2164,0.5290,0.4004,-0.5102,-0.5473
795,0.0,0.0,0.0,0.0,0.0,0.0,0.1265,1.0087,0.2144,0.5299,0.4010,-0.5107,-0.5455
796,0.0,0.0,0.0,0.0,0.0,0.0,0.1122,0.9870,0.2154,0.5303,0.4017,-0.5108,-0.5445
797,0.0,0.0,0.0,0.0,0.0,0.0,0.1137,0.9913,0.2232,0.5304,0.4024,-0.5112,-0.5436
798,0.0,0.0,0.0,0.0,0.0,0.0,0.1016,0.9987,0.2392,0.5304,0.4029,-0.5114,-0.5430
799,0.0,0.0,0.0,0.0,0.0,0.0,0.0855,0.9978,0.2533,0.5305,0.4030,-0.5112,-0.5431
800,0.0,0.0,0.0,0.0,0.0,0.0,0.0832,0.9470,0.2460,0.5305,0.4030,-0.5107,-0.5435
801,0.0,0.0,0.0,0.0,0.0,0.0,0.0916,0.9595,0.2509,0.5304,0.4032,-0.5105,-0.5436
802,0.0,0.0,0.0,0.0,0.0,0.0,0.0858,0.9692,0.2562,0.5302,0.4040,-0.5101,-0.5436
803,0.0,0.0,0.0,0.0,0.0,0.0,0.0795,0.9775,0.2577,0.5298,0.4048,-0.5094,-0.5440
804,0.0,0.0,0.0,0.0,0.0,0.0,0.0658,0.9766,0.2567,0.5294,0.4058,-0.5085,-0.5446
805,0.0,0.0,0.0,0.0,0.0,0.0,0.0632,0.9457,0.2445,0.5284,0.4071,-0.5080,-0.5450
806,0.0,0.0,0.0,0.0,0.0,0.0,0.0676,0.9520,0.2402,0.5274,0.4078,-0.5075,-0.5459
807,0.0,0.0,0.0,0.0,0.0,0.0,0.0603,0.9598,0.2421,0.5261,0.4086,-0.5071,-0.5469
808,0.0,0.0,0.0,0.0,0.0,0.0,0.0604,0.9680,0.2431,0.5245,0.4099,-0.5069,-0.5476
809,0.0,0.0,0.0,0.0,0.0,0.0,0.0717,0.9878,0.2445,0.5229,0.4108,-0.5068,-0.5486
810,0.0,0.0,0.0,0.0,0.0,0.0,0.0634,0.9801,0.2426,0.5215,0.4115,-0.5064,-0.5498
811,0.0,0.0,0.0,0.0,0.0,0.0,0.0657,0.9656,0.2368,0.5201,0.4119,-0.5060,-0.5511
812,0.0,0.0,0.0,0.0,0.0,0.0,0.0648,0.9704,0.2348,0.5187,0.4122,-0.5057,-0.5526
813,0.0,0.0,0.0,0.0,0.0,0.0,0.0623,0.9617,0.2309,0.5173,0.4126,-0.5053,-0.5539
814,0.0,0.0,0.0,0.0,0.0,0.0,0.0617,0.9419,0.2231,0.5161,0.4126,-0.5050,-0.5553
815,0.0,0.0,0.0,0.0,0.0,0.0,0.0633,0.9578,0.2280,0.5151,0.4124,-0.5051,-0.5564
816,0.0,0.0,0.0,0.0,0.0,0.0,0.0580,0.9739,0.2333,0.5138,0.4126,-0.5054,-0.5571
817,0.0,0.0,0.0,0.0,0.0,0.0,0.0536,0.9831,0.2358,0.5125,0.4129,-0.5056,-0.5579
818,0.0,0.0,0.0,0.0,0.0,0.0,0.0506,0.9720,0.2314,0.5111,0.4131,-0.5059,-0.5587
819,0.0,0.0,0.0,0.0,0.0,0.0,0.0540,0.9570,0.2275,0.5098,0.4129,-0.5064,-0.5597
820,0.0,0.0,0.0,0.0,0.0,0.0,0.0482,0.9740,0.2314,0.5082,0.4130,-0.5070,-0.5604
821,0.0,0.0,0.0,0.0,0.0,0.0,0.0463,0.9725,0.2299,0.5064,0.4135,-0.5080,-0.5608
822,0.0,0.0,0.0,0.0,0.0,0.0,0.0482,0.9740,0.2304,0.5047,0.4132,-0.5088,-0.5618
823,0.0,0.0,0.0,0.0,0.0,0.0,0.0511,0.9681,0.2256,0.5028,0.4126,-0.5093,-0.5635
824,0.0,0.0,0.0,0.0,0.0,0.0,0.0486,0.9599,0.2212,0.5009,0.4121,-0.5102,-0.5648
825,0.0,0.0,0.0,0.0,0.0,0.0,0.0525,0.9585,0.2192,0.4989,0.4115,-0.5112,-0.5660
826,0.0,0.0,0.0,0.0,0.0,0.0,0.0549,0.9468,0.2149,0.4971,0.4110,-0.5127,-0.5667
827,0.0,0.0,0.0,0.0,0.0,0.0,0.0528,0.9265,0.2080,0.4952,0.4100,-0.5141,-0.5678
828,0.0,0.0,0.0,0.0,0.0,0.0,0.0595,0.9027,0.2012,0.4933,0.4087,-0.5159,-0.5687
829,0.0,0.0,0.0,0.0,0.0,0.0,0.0666,0.9472,0.2119,0.4914,0.4081,-0.5183,-0.5686
830,0.0,0.0,0.0,0.0,0.0,0.0,0.0686,0.9583,0.2129,0.4900,0.4074,-0.5206,-0.5683
831,0.0,0.0,0.0,0.0,0.0,0.0,0.0755,0.9588,0.2115,0.4888,0.4065,-0.5229,-0.5678
832,0.0,0.0,0.0,0.0,0.0,0.0,0.0761,0.9796,0.2085,0.4876,0.4062,-0.5251,-0.5670
833,0.0,0.0,0.0,0.0,0.0,0.0,0.0727,0.9821,0.1983,0.4864,0.4062,-0.5269,-0.5664
834,0.0,0.0,0.0,0.0,0.0,0.0,0.0707,0.9792,0.1837,0.4853,0.4062,-0.5287,-0.5656
835,0.0,0.0,0.0,0.0,0.0,0.0,0.0674,0.9919,0.1789,0.4841,0.4066,-0.5310,-0.5642
836,0.0,0.0,0.0,0.0,0.0,0.0,0.0572,0.9988,0.1754,0.4829,0.4071,-0.5334,-0.5626
837,0.0,0.0,0.0,0.0,0.0,0.0,0.0669,0.9905,0.1730,0.4820,0.4072,-0.5357,-0.5611
838,0.0,0.0,0.0,0.0,0.0,0.0,0.0665,1.0031,0.1730,0.4811,0.4076,-0.5381,-0.5593
839,0.0,0.0,0.0,0.0,0.0,0.0,0.0721,0.9730,0.1672,0.4804,0.4076,-0.5407,-0.5574
840,0.0,0.0,0.0,0.0,0.0,0.0,0.0701,0.9628,0.1623,0.4800,0.4071,-0.5429,-0.5561
841,0.0,0.0,0.0,0.0,0.0,0.0,0.0658,0.9692,0.1579,0.4795,0.4068,-0.5450,-0.5545
842,0.0,0.0,0.0,0.0,0.0,0.0,0.0697,0.9774,0.1531,0.4790,0.4065,-0.5471,-0.5531
843,0.0,0.0,0.0,0.0,0.0,0.0,0.0722,0.9866,0.1482,0.4786,0.4061,-0.5492,-0.5517
844,0.0,0.0,0.0,0.0,0.0,0.0,0.0776,0.9871,0.1434,0.4782,0.4056,-0.5514,-0.5503
845,0.0,0.0,0.0,0.0,0.0,0.0,0.0830,0.9972,0.1434,0.4778,0.4052,-0.5535,-0.5488
846,0.0,0.0,0.0,0.0,0.0,0.0,0.0894,1.0088,0.1414,0.4775,0.4048,-0.5555,-0.5473
847,0.0,0.0,0.0,0.0,0.0,0.0,0.0924,1.0136,0.1419,0.4774,0.4043,-0.5571,-0.5461
848,0.0,0.0,0.0,0.0,0.0,0.0,0.0934,1.0189,0.1385,0.4773,0.4042,-0.5585,-0.5449
849,0.0,0.0,0.0,0.0,0.0,0.0,0.0968,1.0199,0.1332,0.4772,0.4041,-0.5596,-0.5439
850,0.0,0.0,0.0,0.0,0.0,0.0,0.1008,1.0247,0.1307,0.4771,0.4040,-0.5602,-0.5434
851,0.0,0.0,0.0,0.0,0.0,0.0,0.1047,1.0247,0.1273,0.4772,0.4038,-0.5604,-0.5433
852,0.0,0.0,0.0,0.0,0.0,0.0,0.1080,1.0145,0.1249,0.4774,0.4037,-0.5606,-0.5430
853,0.0,0.0,0.0,0.0,0.0,0.0,0.1080,1.0077,0.1254,0.4777,0.4034,-0.5603,-0.5433
854,0.0,0.0,0.0,0.0,0.0,0.0,0.1075,1.0038,0.1254,0.4780,0.4032,-0.5598,-0.5437
855,0.0,0.0,0.0,0.0,0.0,0.0,0.1050,0.9985,0.1268,0.4781,0.4036,-0.5596,-0.5435
856,0.0,0.0,0.0,0.0,0.0,0.0,0.1055,0.9946,0.1307,0.4784,0.4035,-0.5589,-0.5440
857,0.0,0.0,0.0,0.0,0.0,0.0,0.1044,0.9878,0.1322,0.4788,0.4033,-0.5581,-0.5446
858,0.0,0.0,0.0,0.0,0.0,0.0,0.1039,0.9830,0.1332,0.4792,0.4032,-0.5574,-0.5451
859,0.0,0.0,0.0,0.0,0.0,0.0,0.1029,0.9781,0.1356,0.4798,0.4030,-0.5564,-0.5457
860,0.0,0.0,0.0,0.0,0.0,0.0,0.1000,0.9796,0.1375,0.4801,0.4034,-0.5558,-0.5458
861,0.0,0.0,0.0,0.0,0.0,0.0,0.1015,0.9806,0.1385,0.4806,0.4036,-0.5552,-0.5458
862,0.0,0.0,0.0,0.0,0.0,0.0,0.0941,0.9801,0.1385,0.4810,0.4035,-0.5543,-0.5465
863,0.0,0.0,0.0,0.0,0.0,0.0,0.0912,0.9811,0.1390,0.4813,0.4036,-0.5536,-0.5468
864,0.0,0.0,0.0,0.0,0.0,0.0,0.0922,0.9855,0.1424,0.4818,0.4037,-0.5531,-0.5468
865,0.0,0.0,0.0,0.0,0.0,0.0,0.0947,0.9898,0.1429,0.4823,0.4039,-0.5525,-0.5467
866,0.0,0.0,0.0,0.0,0.0,0.0,0.0932,0.9898,0.1409,0.4828,0.4041,-0.5520,-0.5468
867,0.0,0.0,0.0,0.0,0.0,0.0,0.0952,0.9903,0.1385,0.4833,0.4041,-0.5511,-0.5472
868,0.0,0.0,0.0,0.0,0.0,0.0,0.0977,0.9951,0.1395,0.4839,0.4041,-0.5503,-0.5475
869,0.0,0.0,0.0,0.0,0.0,0.0,0.0933,1.0049,0.1448,0.4846,0.4043,-0.5494,-0.5476
870,0.0,0.0,0.0,0.0,0.0,0.0,0.0890,1.0107,0.1487,0.4853,0.4043,-0.5483,-0.5480
871,0.0,0.0,0.0,0.0,0.0,0.0,0.0914,1.0165,0.1526,0.4859,0.4038,-0.5470,-0.5492
872,0.0,0.0,0.0,0.0,0.0,0.0,0.0915,1.0334,0.1609,0.4865,0.4034,-0.5453,-0.5506
873,0.0,0.0,0.0,0.0,0.0,0.0,0.1033,1.0415,0.1658,0.4876,0.4028,-0.5433,-0.5521
874,0.0,0.0,0.0,0.0,0.0,0.0,0.1071,1.0255,0.1658,0.4893,0.4013,-0.5396,-0.5553
875,0.0,0.0,0.0,0.0,0.0,0.0,0.1189,1.0312,0.1784,0.4906,0.4005,-0.5368,-0.5575
876,0.0,0.0,0.0,0.0,0.0,0.0,0.1351,1.0566,0.1998,0.4924,0.3997,-0.5334,-0.5597
877,0.0,0.0,0.0,0.0,0.0,0.0,0.1360,1.0421,0.2052,0.4948,0.3992,-0.5291,-0.5621
878,0.0,0.0,0.0,0.0,0.0,0.0,0.1280,1.0068,0.2067,0.4973,0.3991,-0.5242,-0.5645
879,0.0,0.0,0.0,0.0,0.0,0.0,0.1170,0.9647,0.2105,0.5002,0.3993,-0.5189,-0.5667
880,0.0,0.0,0.0,0.0,0.0,0.0,0.1051,0.9415,0.2193,0.5033,0.3996,-0.5132,-0.5689
881,0.0,0.0,0.0,0.0,0.0,0.0,0.0849,0.9121,0.2261,0.5065,0.4003,-0.5075,-0.5707
882,0.0,0.0,0.0,0.0,0.0,0.0,0.0742,0.9039,0.2358,0.5095,0.4015,-0.5017,-0.5723
883,0.0,0.0,0.0,0.0,0.0,0.0,0.0562,0.9195,0.2533,0.5127,0.4031,-0.4958,-0.5735
884,0.0,0.0,0.0,0.0,0.0,0.0,0.0314,0.9391,0.2654,0.5153,0.4059,-0.4898,-0.5742
885,0.0,0.0,0.0,0.0,0.0,0.0,0.0270,0.9358,0.2654,0.5178,0.4087,-0.4845,-0.5746
886,0.0,0.0,0.0,0.0,0.0,0.0,0.0153,0.9455,0.2688,0.5202,0.4115,-0.4798,-0.5743
887,0.0,0.0,0.0,0.0,0.0,0.0,0.0036,0.9500,0.2795,0.5226,0.4135,-0.4751,-0.5746
888,0.0,0.0,0.0,0.0,0.0,0.0,-0.0032,0.9558,0.2951,0.5248,0.4151,-0.4703,-0.5754
889,0.0,0.0,0.0,0.0,0.0,0.0,-0.0149,0.9520,0.3072,0.5266,0.4168,-0.4656,-0.5764
890,0.0,0.0,0.0,0.0,0.0,0.0,-0.0213,0.9501,0.3145,0.5277,0.4183,-0.4611,-0.5778
891,0.0,0.0,0.0,0.0,0.0,0.0,-0.0294,0.8925,0.3033,0.5284,0.4198,-0.4570,-0.5793
892,0.0,0.0,0.0,0.0,0.0,0.0,-0.0362,0.8916,0.3038,0.5287,0.4213,-0.4533,-0.5809
893,0.0,0.0,0.0,0.0,0.0,0.0,-0.0387,0.8863,0.3057,0.5285,0.4228,-0.4507,-0.5821
894,0.0,0.0,0.0,0.0,0.0,0.0,-0.0450,0.8907,0.3159,0.5281,0.4244,-0.4489,-0.5827
895,0.0,0.0,0.0,0.0,0.0,0.0,-0.0499,0.9759,0.3476,0.5274,0.4257,-0.4473,-0.5836
896,0.0,0.0,0.0,0.0,0.0,0.0,-0.0487,1.0161,0.3568,0.5262,0.4271,-0.4455,-0.5850
897,0.0,0.0,0.0,0.0,0.0,0.0,-0.0626,0.9712,0.3407,0.5247,0.4281,-0.4436,-0.5870
898,0.0,0.0,0.0,0.0,0.0,0.0,-0.0588,0.9518,0.3330,0.5232,0.4283,-0.4418,-0.5896
899,0.0,0.0,0.0,0.0,0.0,0.0,-0.0681,0.8744,0.3077,0.5216,0.4283,-0.4402,-0.5922
900,0.0,0.0,0.0,0.0,0.0,0.0,-0.0592,0.8850,0.3140,0.5202,0.4278,-0.4391,-0.5946
901,0.0,0.0,0.0,0.0,0.0,0.0,-0.0642,0.9480,0.3310,0.5189,0.4273,-0.4384,-0.5966
902,0.0,0.0,0.0,0.0,0.0,0.0,-0.0607,0.9673,0.3398,0.5177,0.4269,-0.4379,-0.5983
903,0.0,0.0,0.0,0.0,0.0,0.0,-0.0545,0.9338,0.3364,0.5168,0.4258,-0.4372,-0.6004
904,0.0,0.0,0.0,0.0,0.0,0.0,-0.0415,0.9177,0.3432,0.5162,0.4243,-0.4366,-0.6024
905,0.0,0.0,0.0,0.0,0.0,0.0,-0.0400,0.9172,0.3519,0.5158,0.4226,-0.4362,-0.6041
906,0.0,0.0,0.0,0.0,0.0,0.0,-0.0517,0.9279,0.3631,0.5156,0.4209,-0.4352,-0.6062
907,0.0,0.0,0.0,0.0,0.0,0.0,-0.0590,0.9246,0.3646,0.5153,0.4200,-0.4342,-0.6078
908,0.0,0.0,0.0,0.0,0.0,0.0,-0.0781,0.9204,0.3641,0.5147,0.4200,-0.4332,-0.6092
909,0.0,0.0,0.0,0.0,0.0,0.0,-0.0976,0.9201,0.3636,0.5135,0.4202,-0.4320,-0.6108
910,0.0,0.0,0.0,0.0,0.0,0.0,-0.0719,0.8922,0.3558,0.5121,0.4195,-0.4317,-0.6127
911,0.0,0.0,0.0,0.0,0.0,0.0,-0.0480,0.8794,0.3563,0.5112,0.4182,-0.4323,-0.6139
912,0.0,0.0,0.0,0.0,0.0,0.0,-0.0476,0.8760,0.3607,0.5105,0.4166,-0.4336,-0.6147
913,0.0,0.0,0.0,0.0,0.0,0.0,-0.0403,0.8672,0.3641,0.5099,0.4146,-0.4354,-0.6152
914,0.0,0.0,0.0,0.0,0.0,0.0,-0.0345,0.8623,0.3646,0.5095,0.4129,-0.4378,-0.6151
915,0.0,0.0,0.0,0.0,0.0,0.0,-0.0446,0.8774,0.3670,0.5090,0.4120,-0.4407,-0.6140
916,0.0,0.0,0.0,0.0,0.0,0.0,-0.0517,0.9192,0.3690,0.5083,0.4114,-0.4436,-0.6128
917,0.0,0.0,0.0,0.0,0.0,0.0,-0.0520,0.8756,0.3388,0.5078,0.4110,-0.4469,-0.6111
918,0.0,0.0,0.0,0.0,0.0,0.0,-0.0469,0.8999,0.3296,0.5070,0.4107,-0.4509,-0.6091
919,0.0,0.0,0.0,0.0,0.0,0.0,-0.0467,0.9386,0.3271,0.5061,0.4099,-0.4550,-0.6073
920,0.0,0.0,0.0,0.0,0.0,0.0,-0.0364,0.9507,0.3208,0.5054,0.4090,-0.4593,-0.6053
921,0.0,0.0,0.0,0.0,0.0,0.0,-0.0318,0.9788,0.3174,0.5045,0.4080,-0.4635,-0.6034
922,0.0,0.0,0.0,0.0,0.0,0.0,-0.0284,0.9826,0.3091,0.5034,0.4071,-0.4674,-0.6020
923,0.0,0.0,0.0,0.0,0.0,0.0,-0.0185,0.9995,0.3048,0.5020,0.4062,-0.4711,-0.6009
924,0.0,0.0,0.0,0.0,0.0,0.0,-0.0121,1.0072,0.3009,0.5008,0.4054,-0.4742,-0.6000
925,0.0,0.0,0.0,0.0,0.0,0.0,-0.0054,0.9960,0.2941,0.4995,0.4042,-0.4769,-0.5998
926,0.0,0.0,0.0,0.0,0.0,0.0,-0.0005,0.9849,0.2883,0.4981,0.4026,-0.4793,-0.6001
927,0.0,0.0,0.0,0.0,0.0,0.0,0.0039,0.9877,0.2878,0.4964,0.4015,-0.4815,-0.6005
928,0.0,0.0,0.0,0.0,0.0,0.0,0.0112,0.9857,0.2863,0.4945,0.4002,-0.4835,-0.6012
929,0.0,0.0,0.0,0.0,0.0,0.0,0.0135,0.9693,0.2849,0.4926,0.3986,-0.4853,-0.6025
930,0.0,0.0,0.0,0.0,0.0,0.0,0.0145,0.9644,0.2854,0.4905,0.3971,-0.4868,-0.6039
931,0.0,0.0,0.0,0.0,0.0,0.0,0.0134,0.9484,0.2805,0.4882,0.3959,-0.4884,-0.6053
932,0.0,0.0,0.0,0.0,0.0,0.0,0.0081,0.9538,0.2810,0.4858,0.3947,-0.4898,-0.6069
933,0.0,0.0,0.0,0.0,0.0,0.0,0.0086,0.9591,0.2819,0.4832,0.3933,-0.4912,-0.6087
934,0.0,0.0,0.0,0.0,0.0,0.0,0.0086,0.9630,0.2829,0.4803,0.3921,-0.4927,-0.6106
935,0.0,0.0,0.0,0.0,0.0,0.0,0.0101,0.9601,0.2844,0.4771,0.3907,-0.4942,-0.6127
936,0.0,0.0,0.0,0.0,0.0,0.0,0.0126,0.9736,0.2926,0.4740,0.3893,-0.4957,-0.6149
937,0.0,0.0,0.0,0.0,0.0,0.0,0.0139,0.9475,0.2795,0.4708,0.3882,-0.4976,-0.6165
938,0.0,0.0,0.0,0.0,0.0,0.0,0.0249,0.9140,0.2683,0.4676,0.3868,-0.4996,-0.6181
939,0.0,0.0,0.0,0.0,0.0,0.0,0.0211,0.9310,0.2688,0.4644,0.3852,-0.5017,-0.6198
940,0.0,0.0,0.0,0.0,0.0,0.0,0.0294,0.9372,0.2659,0.4613,0.3840,-0.5043,-0.6208
941,0.0,0.0,0.0,0.0,0.0,0.0,0.0348,0.9348,0.2552,0.4583,0.3830,-0.5072,-0.6213
942,0.0,0.0,0.0,0.0,0.0,0.0,0.0431,0.9347,0.2489,0.4556,0.3820,-0.5101,-0.6215
943,0.0,0.0,0.0,0.0,0.0,0.0,0.0480,0.9395,0.2416,0.4535,0.3812,-0.5134,-0.6209
944,0.0,0.0,0.0,0.0,0.0,0.0,0.0481,0.9473,0.2372,0.4516,0.3807,-0.5167,-0.6198
945,0.0,0.0,0.0,0.0,0.0,0.0,0.0535,0.9565,0.2324,0.4502,0.3801,-0.5198,-0.6186
946,0.0,0.0,0.0,0.0,0.0,0.0,0.0603,0.9496,0.2246,0.4494,0.3795,-0.5231,-0.6168
947,0.0,0.0,0.0,0.0,0.0,0.0,0.0715,0.9529,0.2217,0.4493,0.3790,-0.5266,-0.6141
948,0.0,0.0,0.0,0.0,0.0,0.0,0.0772,1.0900,0.2217,0.4496,0.3789,-0.5298,-0.6112
949,0.0,0.0,0.0,0.0,0.0,0.0,0.0762,1.0076,0.2329,0.4509,0.3786,-0.5324,-0.6082
950,0.0,0.0,0.0,0.0,0.0,0.0,0.0711,1.0469,0.2363,0.4527,0.3793,-0.5342,-0.6048
951,0.0,0.0,0.0,0.0,0.0,0.0,0.0647,1.0422,0.2280,0.4549,0.3805,-0.5350,-0.6017
952,0.0,0.0,0.0,0.0,0.0,0.0,0.0593,1.0282,0.2168,0.4575,0.3820,-0.5350,-0.5988
953,0.0,0.0,0.0,0.0,0.0,0.0,0.0494,1.0128,0.2114,0.4604,0.3836,-0.5344,-0.5960
954,0.0,0.0,0.0,0.0,0.0,0.0,0.0450,1.0056,0.2071,0.4637,0.3853,-0.5334,-0.5933
955,0.0,0.0,0.0,0.0,0.0,0.0,0.0386,0.9955,0.2041,0.4674,0.3872,-0.5322,-0.5903
956,0.0,0.0,0.0,0.0,0.0,0.0,0.0361,0.9853,0.2027,0.4712,0.3892,-0.5309,-0.5871
957,0.0,0.0,0.0,0.0,0.0,0.0,0.0307,0.9776,0.2032,0.4751,0.3912,-0.5293,-0.5840
958,0.0,0.0,0.0,0.0,0.0,0.0,0.0184,0.9729,0.2022,0.4789,0.3934,-0.5275,-0.5810
959,0.0,0.0,0.0,0.0,0.0,0.0,0.0111,0.9729,0.2022,0.4825,0.3957,-0.5256,-0.5783
960,0.0,0.0,0.0,0.0,0.0,0.0,0.0072,0.9749,0.2026,0.4857,0.3981,-0.5238,-0.5756
961,0.0,0.0,0.0,0.0,0.0,0.0,-0.0010,0.9827,0.2056,0.4883,0.4008,-0.5223,-0.5728
962,0.0,0.0,0.0,0.0,0.0,0.0,-0.0048,0.9983,0.2065,0.4906,0.4034,-0.5206,-0.5706
963,0.0,0.0,0.0,0.0,0.0,0.0,0.0029,0.9943,0.2026,0.4924,0.4059,-0.5190,-0.5687
964,0.0,0.0,0.0,0.0,0.0,0.0,0.0019,0.9909,0.1997,0.4935,0.4084,-0.5177,-0.5672
965,0.0,0.0,0.0,0.0,0.0,0.0,-0.0000,0.9871,0.1978,0.4944,0.4106,-0.5163,-0.5661
966,0.0,0.0,0.0,0.0,0.0,0.0,0.0004,0.9774,0.1949,0.4935,0.4114,-0.5163,-0.5663
967,0.0,0.0,0.0,0.0,0.0,0.0,-0.0035,0.9861,0.1997,0.4935,0.4131,-0.5152,-0.5659
968,0.0,0.0,0.0,0.0,0.0,0.0,-0.0064,0.9886,0.2031,0.4933,0.4147,-0.5146,-0.5656
969,0.0,0.0,0.0,0.0,0.0,0.0,-0.0035,0.9861,0.2036,0.4929,0.4158,-0.5140,-0.5657
970,0.0,0.0,0.0,0.0,0.0,0.0,-0.0001,0.9822,0.2060,0.4923,0.4166,-0.5133,-0.5663
971,0.0,0.0,0.0,0.0,0.0,0.0,0.0077,0.9729,0.2065,0.4918,0.4169,-0.5128,-0.5669
972,0.0,0.0,0.0,0.0,0.0,0.0,0.0106,0.9724,0.2085,0.4910,0.4173,-0.5128,-0.5673
973,0.0,0.0,0.0,0.0,0.0,0.0,0.0150,0.9729,0.2095,0.4905,0.4173,-0.5127,-0.5678
974,0.0,0.0,0.0,0.0,0.0,0.0,0.0208,0.9685,0.2095,0.4901,0.4169,-0.5128,-0.5683
975,0.0,0.0,0.0,0.0,0.0,0.0,0.0213,0.9704,0.2104,0.4897,0.4167,-0.5132,-0.5685
976,0.0,0.0,0.0,0.0,0.0,0.0,0.0253,0.9718,0.2124,0.4894,0.4160,-0.5135,-0.5690
977,0.0,0.0,0.0,0.0,0.0,0.0,0.0297,0.9737,0.2134,0.4891,0.4152,-0.5138,-0.5696
978,0.0,0.0,0.0,0.0,0.0,0.0,0.0321,0.9722,0.2139,0.4889,0.4144,-0.5141,-0.5701
979,0.0,0.0,0.0,0.0,0.0,0.0,0.0316,0.9727,0.2153,0.4886,0.4136,-0.5142,-0.5707
980,0.0,0.0,0.0,0.0,0.0,0.0,0.0321,0.9756,0.2173,0.4883,0.4131,-0.5146,-0.5710
981,0.0,0.0,0.0,0.0,0.0,0.0,0.0341,0.9741,0.2177,0.4880,0.4125,-0.5149,-0.5715
982,0.0,0.0,0.0,0.0,0.0,0.0,0.0355,0.9707,0.2202,0.4880,0.4118,-0.5150,-0.5720
983,0.0,0.0,0.0,0.0,0.0,0.0,0.0350,0.9727,0.2226,0.4878,0.4115,-0.5154,-0.5720
984,0.0,0.0,0.0,0.0,0.0,0.0,0.0345,0.9688,0.2250,0.4879,0.4110,-0.5156,-0.5720
985,0.0,0.0,0.0,0.0,0.0,0.0,0.0350,0.9678,0.2260,0.4880,0.4107,-0.5160,-0.5718
986,0.0,0.0,0.0,0.0,0.0,0.0,0.0345,0.9688,0.2280,0.4880,0.4105,-0.5163,-0.5717
987,0.0,0.0,0.0,0.0,0.0,0.0,0.0330,0.9678,0.2319,0.4884,0.4098,-0.5162,-0.5719
988,0.0,0.0,0.0,0.0,0.0,0.0,0.0311,0.9625,0.2338,0.4888,0.4092,-0.5161,-0.5721
989,0.0,0.0,0.0,0.0,0.0,0.0,0.0291,0.9659,0.2401,0.4892,0.4085,-0.5162,-0.5721
990,0.0,0.0,0.0,0.0,0.0,0.0,0.0282,0.9678,0.2430,0.4897,0.4078,-0.5163,-0.5721
991,0.0,0.0,0.0,0.0,0.0,0.0,0.0257,0.9678,0.2464,0.4904,0.4071,-0.5161,-0.5722
992,0.0,0.0,0.0,0.0,0.0,0.0,0.0224,0.9770,0.2557,0.4913,0.4063,-0.5158,-0.5723
993,0.0,0.0,0.0,0.0,0.0,0.0,0.0175,0.9843,0.2639,0.4924,0.4055,-0.5152,-0.5724
994,0.0,0.0,0.0,0.0,0.0,0.0,0.0185,0.9819,0.2644,0.4934,0.4050,-0.5145,-0.5726
995,0.0,0.0,0.0,0.0,0.0,0.0,0.0203,0.9649,0.2557,0.4942,0.4047,-0.5139,-0.5726
996,0.0,0.0,0.0,0.0,0.0,0.0,0.0221,0.9383,0.2401,0.4948,0.4047,-0.5134,-0.5726
997,0.0,0.0,0.0,0.0,0.0,0.0,0.0177,0.9335,0.2280,0.4948,0.4050,-0.5131,-0.5726
998,0.0,0.0,0.0,0.0,0.0,0.0,0.0236,0.9345,0.2168,0.4946,0.4052,-0.5135,-0.5723
999,0.0,0.0,0.0,0.0,0.0,0.0,0.0285,0.9412,0.2129,0.4941,0.4054,-0.5144,-0.5718
1000,0.0,0.0,0.0,0.0,0.0,0.0,0.0364,0.9586,0.2095,0.4930,0.4055,-0.5156,-0.5715
1001,0.0,0.0,0.0,0.0,0.0,0.0,0.0482,0.9697,0.2041,0.4920,0.4051,-0.5170,-0.5715
1002,0.0,0.0,0.0,0.0,0.0,0.0,0.0644,0.9822,0.1998,0.4908,0.4049,-0.5189,-0.5709
1003,0.0,0.0,0.0,0.0,0.0,0.0,0.0776,0.9888,0.1959,0.4897,0.4049,-0.5211,-0.5698
1004,0.0,0.0,0.0,0.0,0.0,0.0,0.0826,1.0014,0.1944,0.4889,0.4047,-0.5227,-0.5691
1005,0.0,0.0,0.0,0.0,0.0,0.0,0.0816,1.0087,0.1944,0.4884,0.4043,-0.5237,-0.5689
1006,0.0,0.0,0.0,0.0,0.0,0.0,0.0831,1.0121,0.1930,0.4883,0.4043,-0.5247,-0.5682
1007,0.0,0.0,0.0,0.0,0.0,0.0,0.0797,1.0102,0.1920,0.4884,0.4045,-0.5252,-0.5675
1008,0.0,0.0,0.0,0.0,0.0,0.0,0.0704,1.0068,0.1915,0.4888,0.4045,-0.5251,-0.5672
1009,0.0,0.0,0.0,0.0,0.0,0.0,0.0620,0.9938,0.1900,0.4894,0.4047,-0.5248,-0.5668
1010,0.0,0.0,0.0,0.0,0.0,0.0,0.0561,0.9813,0.1920,0.4900,0.4051,-0.5244,-0.5664
1011,0.0,0.0,0.0,0.0,0.0,0.0,0.0541,0.9716,0.1925,0.4909,0.4055,-0.5240,-0.5657
1012,0.0,0.0,0.0,0.0,0.0,0.0,0.0517,0.9765,0.1973,0.4918,0.4057,-0.5236,-0.5652
1013,0.0,0.0,0.0,0.0,0.0,0.0,0.0507,0.9731,0.2003,0.4928,0.4056,-0.5229,-0.5650
1014,0.0,0.0,0.0,0.0,0.0,0.0,0.0497,0.9745,0.2041,0.4939,0.4055,-0.5224,-0.5646
1015,0.0,0.0,0.0,0.0,0.0,0.0,0.0502,0.9745,0.2090,0.4951,0.4054,-0.5221,-0.5639
1016,0.0,0.0,0.0,0.0,0.0,0.0,0.0531,0.9735,0.2119,0.4962,0.4051,-0.5219,-0.5632
1017,0.0,0.0,0.0,0.0,0.0,0.0,0.0580,0.9720,0.2134,0.4973,0.4048,-0.5220,-0.5625
1018,0.0,0.0,0.0,0.0,0.0,0.0,0.0604,0.9705,0.2153,0.4984,0.4042,-0.5218,-0.5621
1019,0.0,0.0,0.0,0.0,0.0,0.0,0.0643,0.9743,0.2212,0.4996,0.4037,-0.5213,-0.5618
1020,0.0,0.0,0.0,0.0,0.0,0.0,0.0643,0.9753,0.2251,0.5005,0.4036,-0.5209,-0.5614
1021,0.0,0.0,0.0,0.0,0.0,0.0,0.0629,0.9763,0.2275,0.5012,0.4037,-0.5204,-0.5613
1022,0.0,0.0,0.0,0.0,0.0,0.0,0.0595,0.9777,0.2304,0.5020,0.4041,-0.5196,-0.5610
1023,0.0,0.0,0.0,0.0,0.0,0.0,0.0555,0.9739,0.2304,0.5027,0.4046,-0.5187,-0.5609
1024,0.0,0.0,0.0,0.0,0.0,0.0,0.0502,0.9730,0.2304,0.5032,0.4054,-0.5178,-0.5606
1025,0.0,0.0,0.0,0.0,0.0,0.0,0.0448,0.9725,0.2324,0.5037,0.4064,-0.5169,-0.5603
1026,0.0,0.0,0.0,0.0,0.0,0.0,0.0389,0.9702,0.2328,0.5039,0.4073,-0.5158,-0.5605
1027,0.0,0.0,0.0,0.0,0.0,0.0,0.0369,0.9639,0.2304,0.5041,0.4083,-0.5150,-0.5603
1028,0.0,0.0,0.0,0.0,0.0,0.0,0.0340,0.9649,0.2319,0.5044,0.4092,-0.5142,-0.5601
1029,0.0,0.0,0.0,0.0,0.0,0.0,0.0316,0.9678,0.2323,0.5047,0.4099,-0.5134,-0.5601
1030,0.0,0.0,0.0,0.0,0.0,0.0,0.0330,0.9644,0.2299,0.5049,0.4105,-0.5127,-0.5601
1031,0.0,0.0,0.0,0.0,0.0,0.0,0.0325,0.9615,0.2270,0.5053,0.4111,-0.5122,-0.5597
1032,0.0,0.0,0.0,0.0,0.0,0.0,0.0325,0.9591,0.2241,0.5055,0.4116,-0.5118,-0.5595
1033,0.0,0.0,0.0,0.0,0.0,0.0,0.0359,0.9567,0.2216,0.5058,0.4117,-0.5114,-0.5596
1034,0.0,0.0,0.0,0.0,0.0,0.0,0.0408,0.9532,0.2178,0.5060,0.4119,-0.5113,-0.5594
1035,0.0,0.0,0.0,0.0,0.0,0.0,0.0452,0.9571,0.2144,0.5060,0.4123,-0.5116,-0.5588
1036,0.0,0.0,0.0,0.0,0.0,0.0,0.0467,0.9658,0.2148,0.5060,0.4127,-0.5119,-0.5583
1037,0.0,0.0,0.0,0.0,0.0,0.0,0.0497,0.9721,0.2153,0.5061,0.4129,-0.5121,-0.5578
1038,0.0,0.0,0.0,0.0,0.0,0.0,0.0502,0.9832,0.2129,0.5063,0.4135,-0.5126,-0.5567
1039,0.0,0.0,0.0,0.0,0.0,0.0,0.0551,0.9807,0.2124,0.5063,0.4144,-0.5134,-0.5553
1040,0.0,0.0,0.0,0.0,0.0,0.0,0.0536,0.9832,0.2119,0.5063,0.4151,-0.5135,-0.5546
