,Position_X,Position_Y,Position_Z,Velocity_X,Velocity_Y,Velocity_Z,Acceleration_X,Acceleration_Y,Acceleration_Z,Quaterion_0,Quaterion_1,Quaterion_2,Quaterion_3
51,0.0,0.0,0.0,0.0,0.0,0.0,0.2690,0.8981,0.3875,0.7469,0.4678,-0.3628,-0.3028
52,0.0,0.0,0.0,0.0,0.0,0.0,0.2688,0.8908,0.3861,0.7473,0.4664,-0.3622,-0.3046
53,0.0,0.0,0.0,0.0,0.0,0.0,0.2673,0.8894,0.3842,0.7473,0.4665,-0.3615,-0.3052
54,0.0,0.0,0.0,0.0,0.0,0.0,0.2643,0.8875,0.3842,0.7472,0.4672,-0.3608,-0.3054
55,0.0,0.0,0.0,0.0,0.0,0.0,0.2592,0.8814,0.3803,0.7474,0.4667,-0.3602,-0.3063
56,0.0,0.0,0.0,0.0,0.0,0.0,0.2529,0.8811,0.3785,0.7481,0.4658,-0.3594,-0.3069
57,0.0,0.0,0.0,0.0,0.0,0.0,0.2481,0.8856,0.3790,0.7486,0.4653,-0.3587,-0.3074
58,0.0,0.0,0.0,0.0,0.0,0.0,0.2418,0.8888,0.3766,0.7490,0.4652,-0.3578,-0.3075
59,0.0,0.0,0.0,0.0,0.0,0.0,0.2384,0.8894,0.3738,0.7489,0.4661,-0.3573,-0.3070
60,0.0,0.0,0.0,0.0,0.0,0.0,0.2441,0.8825,0.3690,0.7491,0.4659,-0.3569,-0.3071
61,0.0,0.0,0.0,0.0,0.0,0.0,0.2642,0.8465,0.3537,0.7497,0.4649,-0.3570,-0.3071
62,0.0,0.0,0.0,0.0,0.0,0.0,0.2379,0.8886,0.3644,0.7486,0.4663,-0.3589,-0.3055
63,0.0,0.0,0.0,0.0,0.0,0.0,0.2504,0.8974,0.3706,0.7485,0.4668,-0.3593,-0.3046
64,0.0,0.0,0.0,0.0,0.0,0.0,0.2658,0.9240,0.3878,0.7478,0.4669,-0.3608,-0.3044
65,0.0,0.0,0.0,0.0,0.0,0.0,0.2568,0.8981,0.3758,0.7486,0.4651,-0.3606,-0.3055
66,0.0,0.0,0.0,0.0,0.0,0.0,0.2698,0.9083,0.3853,0.7480,0.4650,-0.3620,-0.3055
67,0.0,0.0,0.0,0.0,0.0,0.0,0.2699,0.8952,0.3838,0.7483,0.4647,-0.3614,-0.3057
68,0.0,0.0,0.0,0.0,0.0,0.0,0.2717,0.8907,0.3870,0.7481,0.4646,-0.3620,-0.3056
69,0.0,0.0,0.0,0.0,0.0,0.0,0.2688,0.8913,0.3809,0.7485,0.4647,-0.3614,-0.3054
70,0.0,0.0,0.0,0.0,0.0,0.0,0.2659,0.8925,0.3762,0.7484,0.4653,-0.3613,-0.3049
71,0.0,0.0,0.0,0.0,0.0,0.0,0.2595,0.8913,0.3663,0.7487,0.4654,-0.3607,-0.3046
72,0.0,0.0,0.0,0.0,0.0,0.0,0.2546,0.8916,0.3611,0.7489,0.4656,-0.3603,-0.3042
73,0.0,0.0,0.0,0.0,0.0,0.0,0.2532,0.8908,0.3531,0.7486,0.4668,-0.3602,-0.3032
74,0.0,0.0,0.0,0.0,0.0,0.0,0.2553,0.8951,0.3513,0.7482,0.4682,-0.3604,-0.3019
75,0.0,0.0,0.0,0.0,0.0,0.0,0.2559,0.8990,0.3508,0.7478,0.4693,-0.3607,-0.3006
76,0.0,0.0,0.0,0.0,0.0,0.0,0.2532,0.9088,0.3528,0.7476,0.4696,-0.3614,-0.2999
77,0.0,0.0,0.0,0.0,0.0,0.0,0.2526,0.9234,0.3586,0.7479,0.4689,-0.3617,-0.2998
78,0.0,0.0,0.0,0.0,0.0,0.0,0.2487,0.9255,0.3586,0.7479,0.4691,-0.3615,-0.2996
79,0.0,0.0,0.0,0.0,0.0,0.0,0.2476,0.9182,0.3566,0.7480,0.4691,-0.3613,-0.2998
80,0.0,0.0,0.0,0.0,0.0,0.0,0.2485,0.9153,0.3575,0.7479,0.4696,-0.3610,-0.2997
81,0.0,0.0,0.0,0.0,0.0,0.0,0.2470,0.9143,0.3599,0.7476,0.4706,-0.3607,-0.2995
82,0.0,0.0,0.0,0.0,0.0,0.0,0.2511,0.9058,0.3641,0.7475,0.4708,-0.3602,-0.2997
83,0.0,0.0,0.0,0.0,0.0,0.0,0.2408,0.9052,0.3575,0.7476,0.4713,-0.3593,-0.2998
84,0.0,0.0,0.0,0.0,0.0,0.0,0.2326,0.9075,0.3551,0.7471,0.4722,-0.3590,-0.3000
85,0.0,0.0,0.0,0.0,0.0,0.0,0.2398,0.9037,0.3617,0.7466,0.4730,-0.3588,-0.3001
86,0.0,0.0,0.0,0.0,0.0,0.0,0.2393,0.9018,0.3603,0.7465,0.4733,-0.3584,-0.3005
87,0.0,0.0,0.0,0.0,0.0,0.0,0.2386,0.8965,0.3574,0.7462,0.4738,-0.3581,-0.3009
88,0.0,0.0,0.0,0.0,0.0,0.0,0.2377,0.8965,0.3588,0.7461,0.4741,-0.3578,-0.3010
89,0.0,0.0,0.0,0.0,0.0,0.0,0.2391,0.8970,0.3574,0.7457,0.4749,-0.3578,-0.3005
90,0.0,0.0,0.0,0.0,0.0,0.0,0.2421,0.8983,0.3598,0.7455,0.4757,-0.3578,-0.2999
91,0.0,0.0,0.0,0.0,0.0,0.0,0.2427,0.9022,0.3621,0.7452,0.4765,-0.3579,-0.2993
92,0.0,0.0,0.0,0.0,0.0,0.0,0.2409,0.9071,0.3650,0.7451,0.4768,-0.3580,-0.2988
93,0.0,0.0,0.0,0.0,0.0,0.0,0.2408,0.9056,0.3636,0.7454,0.4765,-0.3579,-0.2988
94,0.0,0.0,0.0,0.0,0.0,0.0,0.2624,0.8690,0.3506,0.7461,0.4755,-0.3576,-0.2990
95,0.0,0.0,0.0,0.0,0.0,0.0,0.2577,0.8761,0.3469,0.7458,0.4756,-0.3591,-0.2977
96,0.0,0.0,0.0,0.0,0.0,0.0,0.2375,0.9102,0.3575,0.7458,0.4753,-0.3598,-0.2973
97,0.0,0.0,0.0,0.0,0.0,0.0,0.2745,0.9367,0.3756,0.7453,0.4748,-0.3615,-0.2975
98,0.0,0.0,0.0,0.0,0.0,0.0,0.2596,0.9122,0.3735,0.7464,0.4734,-0.3605,-0.2980
99,0.0,0.0,0.0,0.0,0.0,0.0,0.2667,0.9193,0.3745,0.7460,0.4731,-0.3620,-0.2979
100,0.0,0.0,0.0,0.0,0.0,0.0,0.2652,0.9192,0.3835,0.7465,0.4730,-0.3610,-0.2977
101,0.0,0.0,0.0,0.0,0.0,0.0,0.2603,0.9001,0.3706,0.7462,0.4736,-0.3611,-0.2974
102,0.0,0.0,0.0,0.0,0.0,0.0,0.2564,0.9011,0.3758,0.7467,0.4736,-0.3599,-0.2975
103,0.0,0.0,0.0,0.0,0.0,0.0,0.2489,0.8956,0.3635,0.7464,0.4746,-0.3594,-0.2973
104,0.0,0.0,0.0,0.0,0.0,0.0,0.2458,0.8909,0.3583,0.7468,0.4745,-0.3586,-0.2976
105,0.0,0.0,0.0,0.0,0.0,0.0,0.2422,0.8852,0.3545,0.7469,0.4742,-0.3586,-0.2978
106,0.0,0.0,0.0,0.0,0.0,0.0,0.2439,0.8910,0.3564,0.7470,0.4742,-0.3585,-0.2977
107,0.0,0.0,0.0,0.0,0.0,0.0,0.2416,0.8988,0.3588,0.7468,0.4747,-0.3588,-0.2971
108,0.0,0.0,0.0,0.0,0.0,0.0,0.2395,0.9086,0.3631,0.7468,0.4746,-0.3590,-0.2970
109,0.0,0.0,0.0,0.0,0.0,0.0,0.2415,0.9124,0.3665,0.7471,0.4737,-0.3592,-0.2974
110,0.0,0.0,0.0,0.0,0.0,0.0,0.2419,0.9090,0.3669,0.7471,0.4734,-0.3593,-0.2977
111,0.0,0.0,0.0,0.0,0.0,0.0,0.2433,0.9070,0.3678,0.7471,0.4732,-0.3594,-0.2979
112,0.0,0.0,0.0,0.0,0.0,0.0,0.2452,0.9030,0.3683,0.7474,0.4727,-0.3592,-0.2983
113,0.0,0.0,0.0,0.0,0.0,0.0,0.2461,0.8996,0.3664,0.7475,0.4722,-0.3591,-0.2988
114,0.0,0.0,0.0,0.0,0.0,0.0,0.2446,0.8991,0.3668,0.7474,0.4725,-0.3590,-0.2987
115,0.0,0.0,0.0,0.0,0.0,0.0,0.2441,0.8982,0.3668,0.7475,0.4725,-0.3589,-0.2987
116,0.0,0.0,0.0,0.0,0.0,0.0,0.2411,0.8973,0.3649,0.7479,0.4715,-0.3590,-0.2992
117,0.0,0.0,0.0,0.0,0.0,0.0,0.2417,0.9021,0.3678,0.7473,0.4725,-0.3592,-0.2987
118,0.0,0.0,0.0,0.0,0.0,0.0,0.2472,0.8883,0.3663,0.7474,0.4728,-0.3591,-0.2984
119,0.0,0.0,0.0,0.0,0.0,0.0,0.2464,0.8932,0.3677,0.7475,0.4724,-0.3594,-0.2982
120,0.0,0.0,0.0,0.0,0.0,0.0,0.2495,0.8994,0.3706,0.7470,0.4735,-0.3597,-0.2972
121,0.0,0.0,0.0,0.0,0.0,0.0,0.2538,0.8983,0.3729,0.7467,0.4741,-0.3602,-0.2965
122,0.0,0.0,0.0,0.0,0.0,0.0,0.2567,0.8972,0.3725,0.7473,0.4729,-0.3603,-0.2968
123,0.0,0.0,0.0,0.0,0.0,0.0,0.2596,0.8961,0.3758,0.7476,0.4724,-0.3606,-0.2965
124,0.0,0.0,0.0,0.0,0.0,0.0,0.2617,0.8989,0.3777,0.7477,0.4727,-0.3606,-0.2957
125,0.0,0.0,0.0,0.0,0.0,0.0,0.2618,0.9019,0.3763,0.7481,0.4726,-0.3605,-0.2952
126,0.0,0.0,0.0,0.0,0.0,0.0,0.2669,0.8926,0.3654,0.7487,0.4717,-0.3600,-0.2955
127,0.0,0.0,0.0,0.0,0.0,0.0,0.2859,0.8362,0.3438,0.7495,0.4709,-0.3601,-0.2946
128,0.0,0.0,0.0,0.0,0.0,0.0,0.2518,0.9120,0.3698,0.7482,0.4729,-0.3621,-0.2923
129,0.0,0.0,0.0,0.0,0.0,0.0,0.2657,0.9016,0.3532,0.7484,0.4733,-0.3620,-0.2913
130,0.0,0.0,0.0,0.0,0.0,0.0,0.2811,0.9290,0.3854,0.7479,0.4729,-0.3637,-0.2911
131,0.0,0.0,0.0,0.0,0.0,0.0,0.2692,0.8882,0.3625,0.7490,0.4717,-0.3629,-0.2911
132,0.0,0.0,0.0,0.0,0.0,0.0,0.2763,0.9150,0.3853,0.7483,0.4722,-0.3645,-0.2902
133,0.0,0.0,0.0,0.0,0.0,0.0,0.2705,0.8978,0.3711,0.7492,0.4716,-0.3634,-0.2901
134,0.0,0.0,0.0,0.0,0.0,0.0,0.2690,0.8963,0.3720,0.7490,0.4723,-0.3635,-0.2895
135,0.0,0.0,0.0,0.0,0.0,0.0,0.2688,0.8907,0.3602,0.7489,0.4733,-0.3629,-0.2886
136,0.0,0.0,0.0,0.0,0.0,0.0,0.2722,0.8880,0.3663,0.7486,0.4740,-0.3633,-0.2878
137,0.0,0.0,0.0,0.0,0.0,0.0,0.2775,0.8879,0.3672,0.7489,0.4741,-0.3632,-0.2871
138,0.0,0.0,0.0,0.0,0.0,0.0,0.2756,0.8879,0.3658,0.7489,0.4746,-0.3635,-0.2861
139,0.0,0.0,0.0,0.0,0.0,0.0,0.2791,0.8921,0.3734,0.7496,0.4733,-0.3636,-0.2861
140,0.0,0.0,0.0,0.0,0.0,0.0,0.2788,0.8994,0.3767,0.7502,0.4725,-0.3636,-0.2859
141,0.0,0.0,0.0,0.0,0.0,0.0,0.2803,0.9003,0.3805,0.7505,0.4725,-0.3636,-0.2852
142,0.0,0.0,0.0,0.0,0.0,0.0,0.2793,0.8998,0.3833,0.7518,0.4709,-0.3631,-0.2852
143,0.0,0.0,0.0,0.0,0.0,0.0,0.2734,0.8971,0.3795,0.7530,0.4696,-0.3622,-0.2850
144,0.0,0.0,0.0,0.0,0.0,0.0,0.2687,0.8866,0.3733,0.7533,0.4706,-0.3613,-0.2837
145,0.0,0.0,0.0,0.0,0.0,0.0,0.2681,0.8822,0.3709,0.7534,0.4722,-0.3606,-0.2817
146,0.0,0.0,0.0,0.0,0.0,0.0,0.2681,0.8818,0.3691,0.7536,0.4738,-0.3598,-0.2797
147,0.0,0.0,0.0,0.0,0.0,0.0,0.2628,0.8858,0.3681,0.7538,0.4750,-0.3591,-0.2778
148,0.0,0.0,0.0,0.0,0.0,0.0,0.2585,0.8894,0.3682,0.7545,0.4759,-0.3580,-0.2757
149,0.0,0.0,0.0,0.0,0.0,0.0,0.2663,0.8886,0.3719,0.7561,0.4755,-0.3565,-0.2741
150,0.0,0.0,0.0,0.0,0.0,0.0,0.2635,0.8770,0.3700,0.7583,0.4742,-0.3543,-0.2730
151,0.0,0.0,0.0,0.0,0.0,0.0,0.2601,0.8761,0.3690,0.7604,0.4733,-0.3521,-0.2717
152,0.0,0.0,0.0,0.0,0.0,0.0,0.2583,0.8835,0.3724,0.7620,0.4722,-0.3510,-0.2705
153,0.0,0.0,0.0,0.0,0.0,0.0,0.2599,0.8877,0.3771,0.7630,0.4726,-0.3501,-0.2683
154,0.0,0.0,0.0,0.0,0.0,0.0,0.2643,0.8861,0.3776,0.7639,0.4728,-0.3495,-0.2661
155,0.0,0.0,0.0,0.0,0.0,0.0,0.2668,0.8899,0.3814,0.7649,0.4725,-0.3492,-0.2641
156,0.0,0.0,0.0,0.0,0.0,0.0,0.2684,0.8938,0.3823,0.7655,0.4731,-0.3489,-0.2615
157,0.0,0.0,0.0,0.0,0.0,0.0,0.2672,0.9045,0.3852,0.7658,0.4742,-0.3487,-0.2591
158,0.0,0.0,0.0,0.0,0.0,0.0,0.2599,0.9227,0.3939,0.7660,0.4756,-0.3480,-0.2568
159,0.0,0.0,0.0,0.0,0.0,0.0,0.2621,0.9158,0.3910,0.7667,0.4768,-0.3464,-0.2548
160,0.0,0.0,0.0,0.0,0.0,0.0,0.2603,0.9042,0.3890,0.7675,0.4778,-0.3445,-0.2530
161,0.0,0.0,0.0,0.0,0.0,0.0,0.2557,0.9150,0.3891,0.7679,0.4794,-0.3426,-0.2512
162,0.0,0.0,0.0,0.0,0.0,0.0,0.2521,0.9230,0.3887,0.7682,0.4813,-0.3404,-0.2497
163,0.0,0.0,0.0,0.0,0.0,0.0,0.2582,0.8956,0.3814,0.7695,0.4819,-0.3370,-0.2492
164,0.0,0.0,0.0,0.0,0.0,0.0,0.2692,0.8695,0.3680,0.7705,0.4823,-0.3345,-0.2489
165,0.0,0.0,0.0,0.0,0.0,0.0,0.2699,0.8952,0.3814,0.7707,0.4830,-0.3332,-0.2482
166,0.0,0.0,0.0,0.0,0.0,0.0,0.2741,0.8864,0.3757,0.7713,0.4831,-0.3317,-0.2484
167,0.0,0.0,0.0,0.0,0.0,0.0,0.2772,0.8765,0.3737,0.7712,0.4843,-0.3307,-0.2479
168,0.0,0.0,0.0,0.0,0.0,0.0,0.2743,0.8777,0.3695,0.7703,0.4868,-0.3300,-0.2465
169,0.0,0.0,0.0,0.0,0.0,0.0,0.2756,0.8877,0.3823,0.7690,0.4890,-0.3302,-0.2457
170,0.0,0.0,0.0,0.0,0.0,0.0,0.2726,0.9033,0.3862,0.7685,0.4900,-0.3301,-0.2456
171,0.0,0.0,0.0,0.0,0.0,0.0,0.2676,0.9000,0.3885,0.7675,0.4918,-0.3302,-0.2450
172,0.0,0.0,0.0,0.0,0.0,0.0,0.2689,0.8777,0.3803,0.7672,0.4921,-0.3300,-0.2455
173,0.0,0.0,0.0,0.0,0.0,0.0,0.2668,0.8540,0.3688,0.7671,0.4916,-0.3307,-0.2461
174,0.0,0.0,0.0,0.0,0.0,0.0,0.2686,0.8466,0.3678,0.7667,0.4914,-0.3316,-0.2463
175,0.0,0.0,0.0,0.0,0.0,0.0,0.2740,0.8299,0.3630,0.7661,0.4919,-0.3328,-0.2456
176,0.0,0.0,0.0,0.0,0.0,0.0,0.2722,0.8349,0.3579,0.7657,0.4919,-0.3345,-0.2446
177,0.0,0.0,0.0,0.0,0.0,0.0,0.2700,0.8458,0.3532,0.7656,0.4907,-0.3370,-0.2442
178,0.0,0.0,0.0,0.0,0.0,0.0,0.2740,0.8662,0.3553,0.7651,0.4898,-0.3399,-0.2433
179,0.0,0.0,0.0,0.0,0.0,0.0,0.2723,0.8755,0.3535,0.7647,0.4885,-0.3431,-0.2426
180,0.0,0.0,0.0,0.0,0.0,0.0,0.2733,0.8925,0.3583,0.7645,0.4867,-0.3466,-0.2420
181,0.0,0.0,0.0,0.0,0.0,0.0,0.2803,0.8972,0.3602,0.7641,0.4852,-0.3502,-0.2410
182,0.0,0.0,0.0,0.0,0.0,0.0,0.2834,0.9058,0.3650,0.7637,0.4836,-0.3539,-0.2401
183,0.0,0.0,0.0,0.0,0.0,0.0,0.2921,0.8987,0.3626,0.7640,0.4807,-0.3573,-0.2399
184,0.0,0.0,0.0,0.0,0.0,0.0,0.3067,0.8963,0.3621,0.7638,0.4785,-0.3611,-0.2391
185,0.0,0.0,0.0,0.0,0.0,0.0,0.3247,0.8923,0.3673,0.7641,0.4758,-0.3643,-0.2389
186,0.0,0.0,0.0,0.0,0.0,0.0,0.3350,0.8760,0.3573,0.7646,0.4722,-0.3675,-0.2394
187,0.0,0.0,0.0,0.0,0.0,0.0,0.3470,0.8654,0.3591,0.7650,0.4692,-0.3707,-0.2393
188,0.0,0.0,0.0,0.0,0.0,0.0,0.3570,0.8564,0.3529,0.7650,0.4671,-0.3737,-0.2386
189,0.0,0.0,0.0,0.0,0.0,0.0,0.3690,0.8473,0.3500,0.7648,0.4658,-0.3766,-0.2371
190,0.0,0.0,0.0,0.0,0.0,0.0,0.3780,0.8368,0.3448,0.7648,0.4641,-0.3795,-0.2359
191,0.0,0.0,0.0,0.0,0.0,0.0,0.3910,0.8282,0.3400,0.7657,0.4605,-0.3824,-0.2354
192,0.0,0.0,0.0,0.0,0.0,0.0,0.3950,0.8495,0.3468,0.7659,0.4580,-0.3861,-0.2338
193,0.0,0.0,0.0,0.0,0.0,0.0,0.3942,0.8747,0.3578,0.7667,0.4531,-0.3895,-0.2351
194,0.0,0.0,0.0,0.0,0.0,0.0,0.3847,0.8677,0.3549,0.7679,0.4463,-0.3923,-0.2392
195,0.0,0.0,0.0,0.0,0.0,0.0,0.3852,0.9022,0.3636,0.7669,0.4444,-0.3957,-0.2401
196,0.0,0.0,0.0,0.0,0.0,0.0,0.4145,0.8826,0.3776,0.7675,0.4417,-0.3972,-0.2411
197,0.0,0.0,0.0,0.0,0.0,0.0,0.4317,0.8481,0.3637,0.7679,0.4390,-0.3992,-0.2414
198,0.0,0.0,0.0,0.0,0.0,0.0,0.4371,0.8672,0.3808,0.7678,0.4373,-0.4013,-0.2413
199,0.0,0.0,0.0,0.0,0.0,0.0,0.4306,0.8815,0.3819,0.7684,0.4352,-0.4021,-0.2416
200,0.0,0.0,0.0,0.0,0.0,0.0,0.4478,0.9033,0.3966,0.7687,0.4341,-0.4027,-0.2419
201,0.0,0.0,0.0,0.0,0.0,0.0,0.4484,0.8325,0.3617,0.7698,0.4334,-0.4014,-0.2418
202,0.0,0.0,0.0,0.0,0.0,0.0,0.4405,0.7927,0.3294,0.7694,0.4337,-0.4026,-0.2404
203,0.0,0.0,0.0,0.0,0.0,0.0,0.4436,0.8561,0.3624,0.7682,0.4350,-0.4046,-0.2385
204,0.0,0.0,0.0,0.0,0.0,0.0,0.4343,0.8541,0.3511,0.7678,0.4355,-0.4053,-0.2377
205,0.0,0.0,0.0,0.0,0.0,0.0,0.4352,0.8665,0.3361,0.7660,0.4393,-0.4065,-0.2345
206,0.0,0.0,0.0,0.0,0.0,0.0,0.4271,0.8749,0.3423,0.7623,0.4471,-0.4080,-0.2291
207,0.0,0.0,0.0,0.0,0.0,0.0,0.4432,0.8757,0.3578,0.7612,0.4511,-0.4076,-0.2258
208,0.0,0.0,0.0,0.0,0.0,0.0,0.4396,0.8857,0.3466,0.7603,0.4555,-0.4067,-0.2215
209,0.0,0.0,0.0,0.0,0.0,0.0,0.4744,0.8703,0.3625,0.7602,0.4596,-0.4048,-0.2170
210,0.0,0.0,0.0,0.0,0.0,0.0,0.4922,0.8388,0.3383,0.7629,0.4621,-0.3986,-0.2134
211,0.0,0.0,0.0,0.0,0.0,0.0,0.4422,0.8720,0.3154,0.7641,0.4656,-0.3939,-0.2103
212,0.0,0.0,0.0,0.0,0.0,0.0,0.4264,0.8841,0.3216,0.7650,0.4681,-0.3896,-0.2096
213,0.0,0.0,0.0,0.0,0.0,0.0,0.4205,0.8482,0.3176,0.7651,0.4706,-0.3863,-0.2096
214,0.0,0.0,0.0,0.0,0.0,0.0,0.4117,0.8507,0.3256,0.7649,0.4730,-0.3836,-0.2098
215,0.0,0.0,0.0,0.0,0.0,0.0,0.3977,0.8413,0.3316,0.7649,0.4741,-0.3816,-0.2110
216,0.0,0.0,0.0,0.0,0.0,0.0,0.3839,0.8203,0.3282,0.7646,0.4740,-0.3808,-0.2136
217,0.0,0.0,0.0,0.0,0.0,0.0,0.3697,0.8373,0.3302,0.7640,0.4736,-0.3807,-0.2170
218,0.0,0.0,0.0,0.0,0.0,0.0,0.3358,0.8661,0.3021,0.7636,0.4730,-0.3797,-0.2212
219,0.0,0.0,0.0,0.0,0.0,0.0,0.3381,0.8603,0.2955,0.7622,0.4729,-0.3800,-0.2258
220,0.0,0.0,0.0,0.0,0.0,0.0,0.3751,0.8382,0.3259,0.7614,0.4718,-0.3809,-0.2293
221,0.0,0.0,0.0,0.0,0.0,0.0,0.3788,0.8632,0.3403,0.7605,0.4705,-0.3827,-0.2318
222,0.0,0.0,0.0,0.0,0.0,0.0,0.3673,0.8751,0.3526,0.7614,0.4683,-0.3824,-0.2340
223,0.0,0.0,0.0,0.0,0.0,0.0,0.3479,0.8813,0.3404,0.7620,0.4671,-0.3817,-0.2356
224,0.0,0.0,0.0,0.0,0.0,0.0,0.3595,0.8574,0.3421,0.7627,0.4664,-0.3804,-0.2370
225,0.0,0.0,0.0,0.0,0.0,0.0,0.3706,0.8329,0.3259,0.7628,0.4661,-0.3802,-0.2374
226,0.0,0.0,0.0,0.0,0.0,0.0,0.3513,0.8441,0.3373,0.7625,0.4660,-0.3809,-0.2375
227,0.0,0.0,0.0,0.0,0.0,0.0,0.3435,0.8831,0.3569,0.7615,0.4674,-0.3816,-0.2369
228,0.0,0.0,0.0,0.0,0.0,0.0,0.3428,0.8924,0.3584,0.7609,0.4681,-0.3815,-0.2375
229,0.0,0.0,0.0,0.0,0.0,0.0,0.3480,0.9015,0.3608,0.7599,0.4690,-0.3817,-0.2387
230,0.0,0.0,0.0,0.0,0.0,0.0,0.3464,0.8995,0.3627,0.7594,0.4691,-0.3810,-0.2409
231,0.0,0.0,0.0,0.0,0.0,0.0,0.3447,0.8889,0.3565,0.7593,0.4679,-0.3805,-0.2443
232,0.0,0.0,0.0,0.0,0.0,0.0,0.3415,0.8792,0.3568,0.7593,0.4667,-0.3800,-0.2475
233,0.0,0.0,0.0,0.0,0.0,0.0,0.3364,0.8551,0.3463,0.7594,0.4655,-0.3794,-0.2503
234,0.0,0.0,0.0,0.0,0.0,0.0,0.3368,0.8696,0.3558,0.7590,0.4649,-0.3796,-0.2523
235,0.0,0.0,0.0,0.0,0.0,0.0,0.3317,0.8625,0.3525,0.7593,0.4633,-0.3794,-0.2545
236,0.0,0.0,0.0,0.0,0.0,0.0,0.3261,0.8544,0.3529,0.7592,0.4623,-0.3801,-0.2558
237,0.0,0.0,0.0,0.0,0.0,0.0,0.3268,0.8640,0.3614,0.7589,0.4622,-0.3806,-0.2560
238,0.0,0.0,0.0,0.0,0.0,0.0,0.3292,0.8620,0.3586,0.7592,0.4615,-0.3807,-0.2563
239,0.0,0.0,0.0,0.0,0.0,0.0,0.3334,0.8527,0.3505,0.7594,0.4611,-0.3810,-0.2558
240,0.0,0.0,0.0,0.0,0.0,0.0,0.3402,0.8501,0.3463,0.7593,0.4624,-0.3814,-0.2533
241,0.0,0.0,0.0,0.0,0.0,0.0,0.3292,0.8599,0.3388,0.7595,0.4637,-0.3815,-0.2502
242,0.0,0.0,0.0,0.0,0.0,0.0,0.3228,0.8600,0.3440,0.7605,0.4629,-0.3815,-0.2487
243,0.0,0.0,0.0,0.0,0.0,0.0,0.3340,0.8571,0.3505,0.7610,0.4624,-0.3824,-0.2469
244,0.0,0.0,0.0,0.0,0.0,0.0,0.3444,0.8601,0.3586,0.7617,0.4617,-0.3830,-0.2449
245,0.0,0.0,0.0,0.0,0.0,0.0,0.3604,0.8571,0.3633,0.7630,0.4592,-0.3838,-0.2441
246,0.0,0.0,0.0,0.0,0.0,0.0,0.3696,0.8534,0.3656,0.7646,0.4560,-0.3848,-0.2437
247,0.0,0.0,0.0,0.0,0.0,0.0,0.3778,0.8493,0.3594,0.7658,0.4535,-0.3858,-0.2429
248,0.0,0.0,0.0,0.0,0.0,0.0,0.3895,0.8465,0.3608,0.7665,0.4520,-0.3870,-0.2416
249,0.0,0.0,0.0,0.0,0.0,0.0,0.3976,0.8375,0.3589,0.7673,0.4504,-0.3880,-0.2404
250,0.0,0.0,0.0,0.0,0.0,0.0,0.3975,0.8516,0.3623,0.7673,0.4499,-0.3897,-0.2387
251,0.0,0.0,0.0,0.0,0.0,0.0,0.4113,0.8550,0.3689,0.7675,0.4487,-0.3913,-0.2375
252,0.0,0.0,0.0,0.0,0.0,0.0,0.4208,0.8451,0.3585,0.7679,0.4465,-0.3929,-0.2377
253,0.0,0.0,0.0,0.0,0.0,0.0,0.4149,0.8415,0.3481,0.7671,0.4452,-0.3957,-0.2384
254,0.0,0.0,0.0,0.0,0.0,0.0,0.4206,0.8742,0.3700,0.7651,0.4454,-0.3990,-0.2388
255,0.0,0.0,0.0,0.0,0.0,0.0,0.4413,0.8973,0.3825,0.7638,0.4453,-0.4010,-0.2399
256,0.0,0.0,0.0,0.0,0.0,0.0,0.4491,0.8928,0.3735,0.7632,0.4450,-0.4017,-0.2412
257,0.0,0.0,0.0,0.0,0.0,0.0,0.4366,0.8653,0.3483,0.7628,0.4456,-0.4012,-0.2419
258,0.0,0.0,0.0,0.0,0.0,0.0,0.4269,0.8526,0.3350,0.7619,0.4475,-0.4012,-0.2414
259,0.0,0.0,0.0,0.0,0.0,0.0,0.4184,0.8616,0.3365,0.7612,0.4487,-0.4011,-0.2415
260,0.0,0.0,0.0,0.0,0.0,0.0,0.4124,0.8763,0.3427,0.7604,0.4505,-0.4007,-0.2414
261,0.0,0.0,0.0,0.0,0.0,0.0,0.4032,0.8621,0.3356,0.7605,0.4512,-0.3993,-0.2423
262,0.0,0.0,0.0,0.0,0.0,0.0,0.4025,0.8553,0.3322,0.7605,0.4505,-0.3988,-0.2443
263,0.0,0.0,0.0,0.0,0.0,0.0,0.4084,0.8544,0.3459,0.7610,0.4492,-0.3979,-0.2465
264,0.0,0.0,0.0,0.0,0.0,0.0,0.4075,0.8395,0.3359,0.7616,0.4478,-0.3971,-0.2486
265,0.0,0.0,0.0,0.0,0.0,0.0,0.4036,0.8419,0.3472,0.7618,0.4471,-0.3967,-0.2496
266,0.0,0.0,0.0,0.0,0.0,0.0,0.3970,0.8504,0.3482,0.7619,0.4472,-0.3962,-0.2499
267,0.0,0.0,0.0,0.0,0.0,0.0,0.3897,0.8690,0.3596,0.7620,0.4475,-0.3954,-0.2506
268,0.0,0.0,0.0,0.0,0.0,0.0,0.3813,0.8309,0.3438,0.7630,0.4464,-0.3936,-0.2523
269,0.0,0.0,0.0,0.0,0.0,0.0,0.3852,0.8502,0.3496,0.7628,0.4464,-0.3934,-0.2530
270,0.0,0.0,0.0,0.0,0.0,0.0,0.3813,0.8483,0.3538,0.7633,0.4463,-0.3921,-0.2537
271,0.0,0.0,0.0,0.0,0.0,0.0,0.3758,0.8460,0.3542,0.7628,0.4474,-0.3921,-0.2534
272,0.0,0.0,0.0,0.0,0.0,0.0,0.3841,0.8632,0.3666,0.7627,0.4481,-0.3915,-0.2535
273,0.0,0.0,0.0,0.0,0.0,0.0,0.3839,0.8361,0.3509,0.7630,0.4477,-0.3908,-0.2543
274,0.0,0.0,0.0,0.0,0.0,0.0,0.3831,0.8457,0.3571,0.7630,0.4476,-0.3909,-0.2546
275,0.0,0.0,0.0,0.0,0.0,0.0,0.3876,0.8462,0.3533,0.7631,0.4474,-0.3907,-0.2548
276,0.0,0.0,0.0,0.0,0.0,0.0,0.3896,0.8476,0.3529,0.7629,0.4472,-0.3913,-0.2547
277,0.0,0.0,0.0,0.0,0.0,0.0,0.3899,0.8587,0.3572,0.7627,0.4468,-0.3920,-0.2548
278,0.0,0.0,0.0,0.0,0.0,0.0,0.3890,0.8645,0.3619,0.7626,0.4469,-0.3924,-0.2546
279,0.0,0.0,0.0,0.0,0.0,0.0,0.3877,0.8695,0.3606,0.7621,0.4481,-0.3925,-0.2537
280,0.0,0.0,0.0,0.0,0.0,0.0,0.3869,0.8758,0.3630,0.7616,0.4497,-0.3923,-0.2526
281,0.0,0.0,0.0,0.0,0.0,0.0,0.3871,0.8666,0.3605,0.7613,0.4511,-0.3919,-0.2517
282,0.0,0.0,0.0,0.0,0.0,0.0,0.3909,0.8616,0.3577,0.7611,0.4520,-0.3915,-0.2514
283,0.0,0.0,0.0,0.0,0.0,0.0,0.3905,0.8655,0.3591,0.7603,0.4516,-0.3928,-0.2524
284,0.0,0.0,0.0,0.0,0.0,0.0,0.3896,0.8665,0.3638,0.7603,0.4523,-0.3920,-0.2522
285,0.0,0.0,0.0,0.0,0.0,0.0,0.3891,0.8495,0.3538,0.7605,0.4528,-0.3912,-0.2522
286,0.0,0.0,0.0,0.0,0.0,0.0,0.3900,0.8465,0.3561,0.7605,0.4531,-0.3908,-0.2521
287,0.0,0.0,0.0,0.0,0.0,0.0,0.3914,0.8601,0.3628,0.7602,0.4541,-0.3906,-0.2516
288,0.0,0.0,0.0,0.0,0.0,0.0,0.3915,0.8653,0.3704,0.7606,0.4539,-0.3900,-0.2518
289,0.0,0.0,0.0,0.0,0.0,0.0,0.3835,0.8432,0.3608,0.7614,0.4531,-0.3892,-0.2521
290,0.0,0.0,0.0,0.0,0.0,0.0,0.3778,0.8651,0.3784,0.7618,0.4531,-0.3887,-0.2516
291,0.0,0.0,0.0,0.0,0.0,0.0,0.3720,0.8677,0.3817,0.7630,0.4525,-0.3869,-0.2515
292,0.0,0.0,0.0,0.0,0.0,0.0,0.3601,0.8997,0.3881,0.7629,0.4553,-0.3853,-0.2495
293,0.0,0.0,0.0,0.0,0.0,0.0,0.3589,0.8926,0.3786,0.7627,0.4608,-0.3815,-0.2459
294,0.0,0.0,0.0,0.0,0.0,0.0,0.3541,0.8613,0.3878,0.7641,0.4630,-0.3766,-0.2448
295,0.0,0.0,0.0,0.0,0.0,0.0,0.3705,0.8134,0.3601,0.7658,0.4625,-0.3733,-0.2453
296,0.0,0.0,0.0,0.0,0.0,0.0,0.3575,0.8774,0.3794,0.7646,0.4655,-0.3735,-0.2435
297,0.0,0.0,0.0,0.0,0.0,0.0,0.3508,0.9353,0.4110,0.7656,0.4664,-0.3699,-0.2440
298,0.0,0.0,0.0,0.0,0.0,0.0,0.3484,0.8670,0.3746,0.7672,0.4659,-0.3660,-0.2456
299,0.0,0.0,0.0,0.0,0.0,0.0,0.3275,0.8712,0.3671,0.7673,0.4676,-0.3637,-0.2457
300,0.0,0.0,0.0,0.0,0.0,0.0,0.3342,0.8651,0.3680,0.7680,0.4688,-0.3602,-0.2463
301,0.0,0.0,0.0,0.0,0.0,0.0,0.3294,0.8484,0.3542,0.7679,0.4708,-0.3579,-0.2460
302,0.0,0.0,0.0,0.0,0.0,0.0,0.3167,0.8677,0.3624,0.7675,0.4737,-0.3556,-0.2452
303,0.0,0.0,0.0,0.0,0.0,0.0,0.3090,0.8729,0.3558,0.7669,0.4764,-0.3533,-0.2452
304,0.0,0.0,0.0,0.0,0.0,0.0,0.2993,0.8771,0.3540,0.7662,0.4785,-0.3515,-0.2458
305,0.0,0.0,0.0,0.0,0.0,0.0,0.2839,0.8854,0.3559,0.7654,0.4807,-0.3495,-0.2470
306,0.0,0.0,0.0,0.0,0.0,0.0,0.2807,0.8957,0.3583,0.7643,0.4827,-0.3478,-0.2487
307,0.0,0.0,0.0,0.0,0.0,0.0,0.2766,0.9046,0.3631,0.7630,0.4850,-0.3462,-0.2506
308,0.0,0.0,0.0,0.0,0.0,0.0,0.2756,0.8876,0.3559,0.7620,0.4866,-0.3444,-0.2529
309,0.0,0.0,0.0,0.0,0.0,0.0,0.2681,0.8815,0.3512,0.7604,0.4893,-0.3429,-0.2543
310,0.0,0.0,0.0,0.0,0.0,0.0,0.2675,0.8782,0.3497,0.7588,0.4926,-0.3414,-0.2551
311,0.0,0.0,0.0,0.0,0.0,0.0,0.2649,0.8730,0.3445,0.7577,0.4938,-0.3407,-0.2569
312,0.0,0.0,0.0,0.0,0.0,0.0,0.2528,0.8758,0.3445,0.7565,0.4946,-0.3407,-0.2588
313,0.0,0.0,0.0,0.0,0.0,0.0,0.2448,0.8707,0.3398,0.7548,0.4968,-0.3409,-0.2593
314,0.0,0.0,0.0,0.0,0.0,0.0,0.2341,0.8914,0.3489,0.7526,0.4993,-0.3421,-0.2595
315,0.0,0.0,0.0,0.0,0.0,0.0,0.2323,0.8988,0.3508,0.7517,0.4997,-0.3424,-0.2607
316,0.0,0.0,0.0,0.0,0.0,0.0,0.2342,0.8959,0.3433,0.7503,0.5011,-0.3430,-0.2613
317,0.0,0.0,0.0,0.0,0.0,0.0,0.2445,0.8781,0.3389,0.7495,0.5017,-0.3436,-0.2619
318,0.0,0.0,0.0,0.0,0.0,0.0,0.2422,0.9005,0.3457,0.7486,0.5020,-0.3450,-0.2620
319,0.0,0.0,0.0,0.0,0.0,0.0,0.2410,0.9098,0.3481,0.7483,0.5016,-0.3459,-0.2624
320,0.0,0.0,0.0,0.0,0.0,0.0,0.2468,0.9081,0.3514,0.7479,0.5016,-0.3466,-0.2625
321,0.0,0.0,0.0,0.0,0.0,0.0,0.2479,0.9134,0.3495,0.7480,0.5015,-0.3466,-0.2625
322,0.0,0.0,0.0,0.0,0.0,0.0,0.2492,0.9227,0.3515,0.7481,0.5007,-0.3470,-0.2632
323,0.0,0.0,0.0,0.0,0.0,0.0,0.2485,0.9154,0.3505,0.7482,0.5001,-0.3470,-0.2639
324,0.0,0.0,0.0,0.0,0.0,0.0,0.2463,0.9441,0.3601,0.7476,0.5005,-0.3476,-0.2640
325,0.0,0.0,0.0,0.0,0.0,0.0,0.2436,0.8984,0.3485,0.7486,0.4994,-0.3462,-0.2652
326,0.0,0.0,0.0,0.0,0.0,0.0,0.2503,0.8759,0.3393,0.7489,0.4984,-0.3465,-0.2660
327,0.0,0.0,0.0,0.0,0.0,0.0,0.2490,0.8987,0.3513,0.7495,0.4973,-0.3465,-0.2663
328,0.0,0.0,0.0,0.0,0.0,0.0,0.2468,0.8887,0.3432,0.7496,0.4971,-0.3469,-0.2658
329,0.0,0.0,0.0,0.0,0.0,0.0,0.2484,0.8944,0.3489,0.7506,0.4955,-0.3472,-0.2657
330,0.0,0.0,0.0,0.0,0.0,0.0,0.2499,0.8944,0.3451,0.7519,0.4936,-0.3474,-0.2653
331,0.0,0.0,0.0,0.0,0.0,0.0,0.2556,0.8903,0.3437,0.7530,0.4919,-0.3477,-0.2646
332,0.0,0.0,0.0,0.0,0.0,0.0,0.2692,0.8874,0.3503,0.7537,0.4911,-0.3486,-0.2632
333,0.0,0.0,0.0,0.0,0.0,0.0,0.2762,0.8741,0.3445,0.7540,0.4909,-0.3498,-0.2610
334,0.0,0.0,0.0,0.0,0.0,0.0,0.2810,0.9056,0.3523,0.7540,0.4906,-0.3517,-0.2591
335,0.0,0.0,0.0,0.0,0.0,0.0,0.2986,0.8881,0.3446,0.7546,0.4894,-0.3528,-0.2581
336,0.0,0.0,0.0,0.0,0.0,0.0,0.3113,0.8663,0.3346,0.7555,0.4861,-0.3551,-0.2586
337,0.0,0.0,0.0,0.0,0.0,0.0,0.3121,0.8790,0.3338,0.7552,0.4834,-0.3585,-0.2598
338,0.0,0.0,0.0,0.0,0.0,0.0,0.3114,0.9261,0.3558,0.7523,0.4851,-0.3633,-0.2583
339,0.0,0.0,0.0,0.0,0.0,0.0,0.3239,0.9337,0.3747,0.7526,0.4829,-0.3647,-0.2595
340,0.0,0.0,0.0,0.0,0.0,0.0,0.3378,0.8887,0.3503,0.7534,0.4792,-0.3664,-0.2619
341,0.0,0.0,0.0,0.0,0.0,0.0,0.3416,0.9008,0.3556,0.7542,0.4764,-0.3675,-0.2631
342,0.0,0.0,0.0,0.0,0.0,0.0,0.3256,0.8887,0.3461,0.7549,0.4749,-0.3679,-0.2633
343,0.0,0.0,0.0,0.0,0.0,0.0,0.3102,0.9003,0.3542,0.7561,0.4722,-0.3681,-0.2642
344,0.0,0.0,0.0,0.0,0.0,0.0,0.3395,0.8799,0.3474,0.7580,0.4693,-0.3676,-0.2647
345,0.0,0.0,0.0,0.0,0.0,0.0,0.3322,0.8415,0.3184,0.7587,0.4686,-0.3681,-0.2633
346,0.0,0.0,0.0,0.0,0.0,0.0,0.3214,0.8799,0.3554,0.7580,0.4690,-0.3706,-0.2609
347,0.0,0.0,0.0,0.0,0.0,0.0,0.3400,0.8807,0.3634,0.7596,0.4663,-0.3714,-0.2602
348,0.0,0.0,0.0,0.0,0.0,0.0,0.3406,0.8642,0.3525,0.7610,0.4639,-0.3721,-0.2592
349,0.0,0.0,0.0,0.0,0.0,0.0,0.3457,0.8539,0.3472,0.7620,0.4626,-0.3730,-0.2574
350,0.0,0.0,0.0,0.0,0.0,0.0,0.3498,0.8425,0.3471,0.7631,0.4609,-0.3743,-0.2552
351,0.0,0.0,0.0,0.0,0.0,0.0,0.3634,0.8764,0.3710,0.7642,0.4603,-0.3759,-0.2508
352,0.0,0.0,0.0,0.0,0.0,0.0,0.3663,0.9126,0.3948,0.7661,0.4604,-0.3752,-0.2456
353,0.0,0.0,0.0,0.0,0.0,0.0,0.3605,0.8610,0.3614,0.7689,0.4599,-0.3732,-0.2411
354,0.0,0.0,0.0,0.0,0.0,0.0,0.3618,0.8535,0.3694,0.7702,0.4611,-0.3734,-0.2340
355,0.0,0.0,0.0,0.0,0.0,0.0,0.3761,0.8750,0.3775,0.7726,0.4612,-0.3723,-0.2274
356,0.0,0.0,0.0,0.0,0.0,0.0,0.3931,0.8337,0.3570,0.7749,0.4603,-0.3719,-0.2222
357,0.0,0.0,0.0,0.0,0.0,0.0,0.3729,0.8641,0.3577,0.7761,0.4598,-0.3725,-0.2180
358,0.0,0.0,0.0,0.0,0.0,0.0,0.3866,0.8831,0.3673,0.7770,0.4591,-0.3729,-0.2156
359,0.0,0.0,0.0,0.0,0.0,0.0,0.3961,0.8536,0.3600,0.7783,0.4565,-0.3732,-0.2159
360,0.0,0.0,0.0,0.0,0.0,0.0,0.3865,0.8263,0.3433,0.7782,0.4542,-0.3755,-0.2172
361,0.0,0.0,0.0,0.0,0.0,0.0,0.3792,0.8791,0.3555,0.7768,0.4534,-0.3783,-0.2187
362,0.0,0.0,0.0,0.0,0.0,0.0,0.3655,0.9171,0.3581,0.7753,0.4532,-0.3800,-0.2215
363,0.0,0.0,0.0,0.0,0.0,0.0,0.3814,0.8891,0.3362,0.7733,0.4538,-0.3813,-0.2250
364,0.0,0.0,0.0,0.0,0.0,0.0,0.4130,0.8825,0.3574,0.7712,0.4537,-0.3835,-0.2287
365,0.0,0.0,0.0,0.0,0.0,0.0,0.3980,0.8693,0.3535,0.7699,0.4533,-0.3843,-0.2323
366,0.0,0.0,0.0,0.0,0.0,0.0,0.3802,0.8635,0.3549,0.7683,0.4538,-0.3851,-0.2356
367,0.0,0.0,0.0,0.0,0.0,0.0,0.3675,0.8633,0.3572,0.7672,0.4531,-0.3855,-0.2398
368,0.0,0.0,0.0,0.0,0.0,0.0,0.3657,0.8536,0.3599,0.7656,0.4533,-0.3860,-0.2437
369,0.0,0.0,0.0,0.0,0.0,0.0,0.3481,0.8527,0.3543,0.7631,0.4547,-0.3870,-0.2472
370,0.0,0.0,0.0,0.0,0.0,0.0,0.3413,0.8731,0.3737,0.7609,0.4553,-0.3879,-0.2513
371,0.0,0.0,0.0,0.0,0.0,0.0,0.3414,0.8601,0.3628,0.7594,0.4547,-0.3883,-0.2565
372,0.0,0.0,0.0,0.0,0.0,0.0,0.3438,0.8782,0.3860,0.7574,0.4543,-0.3893,-0.2615
373,0.0,0.0,0.0,0.0,0.0,0.0,0.3373,0.8707,0.3831,0.7560,0.4534,-0.3894,-0.2667
374,0.0,0.0,0.0,0.0,0.0,0.0,0.3344,0.8750,0.3945,0.7544,0.4530,-0.3898,-0.2716
375,0.0,0.0,0.0,0.0,0.0,0.0,0.3460,0.8674,0.3911,0.7535,0.4518,-0.3895,-0.2764
376,0.0,0.0,0.0,0.0,0.0,0.0,0.3415,0.8466,0.3858,0.7529,0.4497,-0.3893,-0.2815
377,0.0,0.0,0.0,0.0,0.0,0.0,0.3336,0.8434,0.3843,0.7524,0.4484,-0.3889,-0.2858
378,0.0,0.0,0.0,0.0,0.0,0.0,0.3324,0.8352,0.3805,0.7523,0.4477,-0.3878,-0.2886
379,0.0,0.0,0.0,0.0,0.0,0.0,0.3329,0.8178,0.3695,0.7526,0.4462,-0.3872,-0.2909
380,0.0,0.0,0.0,0.0,0.0,0.0,0.3381,0.8292,0.3767,0.7532,0.4439,-0.3869,-0.2932
381,0.0,0.0,0.0,0.0,0.0,0.0,0.3474,0.8109,0.3714,0.7548,0.4408,-0.3859,-0.2952
382,0.0,0.0,0.0,0.0,0.0,0.0,0.3472,0.7868,0.3561,0.7554,0.4397,-0.3865,-0.2945
383,0.0,0.0,0.0,0.0,0.0,0.0,0.3488,0.8077,0.3600,0.7555,0.4389,-0.3886,-0.2926
384,0.0,0.0,0.0,0.0,0.0,0.0,0.3526,0.8590,0.3821,0.7553,0.4393,-0.3909,-0.2893
385,0.0,0.0,0.0,0.0,0.0,0.0,0.3560,0.8576,0.3684,0.7557,0.4413,-0.3920,-0.2839
386,0.0,0.0,0.0,0.0,0.0,0.0,0.3579,0.8736,0.3728,0.7548,0.4441,-0.3953,-0.2771
387,0.0,0.0,0.0,0.0,0.0,0.0,0.3793,0.8866,0.3781,0.7561,0.4448,-0.3958,-0.2716
388,0.0,0.0,0.0,0.0,0.0,0.0,0.3932,0.8727,0.3658,0.7572,0.4455,-0.3971,-0.2656
389,0.0,0.0,0.0,0.0,0.0,0.0,0.3968,0.8974,0.3735,0.7587,0.4461,-0.3973,-0.2597
390,0.0,0.0,0.0,0.0,0.0,0.0,0.3982,0.8931,0.3608,0.7602,0.4470,-0.3972,-0.2540
391,0.0,0.0,0.0,0.0,0.0,0.0,0.3922,0.8910,0.3523,0.7614,0.4488,-0.3968,-0.2479
392,0.0,0.0,0.0,0.0,0.0,0.0,0.3907,0.8872,0.3447,0.7629,0.4499,-0.3959,-0.2426
393,0.0,0.0,0.0,0.0,0.0,0.0,0.3943,0.8600,0.3322,0.7647,0.4499,-0.3951,-0.2381
394,0.0,0.0,0.0,0.0,0.0,0.0,0.4010,0.8521,0.3209,0.7657,0.4511,-0.3950,-0.2331
395,0.0,0.0,0.0,0.0,0.0,0.0,0.4127,0.8697,0.3300,0.7663,0.4519,-0.3953,-0.2286
396,0.0,0.0,0.0,0.0,0.0,0.0,0.4188,0.8569,0.3238,0.7668,0.4521,-0.3960,-0.2254
397,0.0,0.0,0.0,0.0,0.0,0.0,0.4225,0.8679,0.3309,0.7672,0.4520,-0.3965,-0.2232
398,0.0,0.0,0.0,0.0,0.0,0.0,0.4215,0.8685,0.3281,0.7671,0.4519,-0.3975,-0.2222
399,0.0,0.0,0.0,0.0,0.0,0.0,0.4206,0.8728,0.3357,0.7669,0.4517,-0.3982,-0.2220
400,0.0,0.0,0.0,0.0,0.0,0.0,0.4183,0.8764,0.3300,0.7667,0.4509,-0.3987,-0.2233
401,0.0,0.0,0.0,0.0,0.0,0.0,0.4339,0.8559,0.3266,0.7665,0.4497,-0.3995,-0.2250
402,0.0,0.0,0.0,0.0,0.0,0.0,0.4375,0.8330,0.4431,0.7676,0.4473,-0.3994,-0.2263
403,0.0,0.0,0.0,0.0,0.0,0.0,0.4318,0.8330,0.3302,0.7672,0.4463,-0.4005,-0.2277
404,0.0,0.0,0.0,0.0,0.0,0.0,0.4391,0.8331,0.3391,0.7667,0.4461,-0.4014,-0.2280
405,0.0,0.0,0.0,0.0,0.0,0.0,0.4338,0.8338,0.3354,0.7663,0.4464,-0.4021,-0.2278
406,0.0,0.0,0.0,0.0,0.0,0.0,0.4240,0.8355,0.3377,0.7660,0.4462,-0.4026,-0.2279
407,0.0,0.0,0.0,0.0,0.0,0.0,0.4333,0.8158,0.3286,0.7655,0.4470,-0.4031,-0.2273
408,0.0,0.0,0.0,0.0,0.0,0.0,0.4282,0.8277,0.3329,0.7644,0.4482,-0.4046,-0.2261
409,0.0,0.0,0.0,0.0,0.0,0.0,0.4373,0.8386,0.3373,0.7644,0.4477,-0.4053,-0.2260
410,0.0,0.0,0.0,0.0,0.0,0.0,0.4351,0.8280,0.3273,0.7635,0.4485,-0.4064,-0.2252
411,0.0,0.0,0.0,0.0,0.0,0.0,0.4386,0.8309,0.3269,0.7623,0.4502,-0.4078,-0.2235
412,0.0,0.0,0.0,0.0,0.0,0.0,0.4401,0.8498,0.3341,0.7610,0.4511,-0.4097,-0.2225
413,0.0,0.0,0.0,0.0,0.0,0.0,0.4459,0.8642,0.3394,0.7604,0.4512,-0.4106,-0.2228
414,0.0,0.0,0.0,0.0,0.0,0.0,0.4464,0.8482,0.3247,0.7596,0.4516,-0.4115,-0.2231
415,0.0,0.0,0.0,0.0,0.0,0.0,0.4451,0.8540,0.3308,0.7583,0.4531,-0.4124,-0.2228
416,0.0,0.0,0.0,0.0,0.0,0.0,0.4504,0.8500,0.3317,0.7575,0.4540,-0.4128,-0.2228
417,0.0,0.0,0.0,0.0,0.0,0.0,0.4464,0.8468,0.3251,0.7574,0.4533,-0.4133,-0.2237
418,0.0,0.0,0.0,0.0,0.0,0.0,0.4405,0.8649,0.3300,0.7571,0.4528,-0.4139,-0.2247
419,0.0,0.0,0.0,0.0,0.0,0.0,0.4383,0.8732,0.3357,0.7569,0.4528,-0.4137,-0.2255
420,0.0,0.0,0.0,0.0,0.0,0.0,0.4342,0.8869,0.3443,0.7566,0.4540,-0.4128,-0.2257
421,0.0,0.0,0.0,0.0,0.0,0.0,0.4330,0.8772,0.3404,0.7568,0.4554,-0.4108,-0.2261
422,0.0,0.0,0.0,0.0,0.0,0.0,0.4336,0.8654,0.3431,0.7571,0.4559,-0.4089,-0.2274
423,0.0,0.0,0.0,0.0,0.0,0.0,0.4297,0.8660,0.3441,0.7578,0.4559,-0.4067,-0.2291
424,0.0,0.0,0.0,0.0,0.0,0.0,0.4256,0.8593,0.3421,0.7587,0.4553,-0.4045,-0.2314
425,0.0,0.0,0.0,0.0,0.0,0.0,0.4204,0.8474,0.3364,0.7593,0.4549,-0.4026,-0.2333
426,0.0,0.0,0.0,0.0,0.0,0.0,0.4170,0.8494,0.3388,0.7596,0.4552,-0.4010,-0.2347
427,0.0,0.0,0.0,0.0,0.0,0.0,0.4224,0.8473,0.3392,0.7599,0.4548,-0.3995,-0.2368
428,0.0,0.0,0.0,0.0,0.0,0.0,0.4167,0.8533,0.3430,0.7598,0.4549,-0.3986,-0.2387
429,0.0,0.0,0.0,0.0,0.0,0.0,0.4102,0.8665,0.3507,0.7598,0.4553,-0.3972,-0.2403
430,0.0,0.0,0.0,0.0,0.0,0.0,0.4042,0.8633,0.3520,0.7600,0.4551,-0.3954,-0.2425
431,0.0,0.0,0.0,0.0,0.0,0.0,0.3935,0.8499,0.3505,0.7603,0.4548,-0.3937,-0.2450
432,0.0,0.0,0.0,0.0,0.0,0.0,0.3882,0.8520,0.3548,0.7601,0.4560,-0.3920,-0.2463
433,0.0,0.0,0.0,0.0,0.0,0.0,0.3795,0.8562,0.3543,0.7600,0.4565,-0.3903,-0.2483
434,0.0,0.0,0.0,0.0,0.0,0.0,0.3720,0.8515,0.3515,0.7602,0.4563,-0.3886,-0.2506
435,0.0,0.0,0.0,0.0,0.0,0.0,0.3655,0.8469,0.3514,0.7600,0.4573,-0.3871,-0.2517
436,0.0,0.0,0.0,0.0,0.0,0.0,0.3596,0.8460,0.3519,0.7605,0.4570,-0.3857,-0.2532
437,0.0,0.0,0.0,0.0,0.0,0.0,0.3467,0.8548,0.3482,0.7607,0.4572,-0.3842,-0.2544
438,0.0,0.0,0.0,0.0,0.0,0.0,0.3447,0.8529,0.3491,0.7604,0.4582,-0.3829,-0.2553
439,0.0,0.0,0.0,0.0,0.0,0.0,0.3389,0.8584,0.3520,0.7604,0.4586,-0.3819,-0.2560
440,0.0,0.0,0.0,0.0,0.0,0.0,0.3330,0.8742,0.3549,0.7603,0.4601,-0.3806,-0.2558
441,0.0,0.0,0.0,0.0,0.0,0.0,0.3243,0.8784,0.3531,0.7602,0.4613,-0.3792,-0.2560
442,0.0,0.0,0.0,0.0,0.0,0.0,0.3198,0.8736,0.3507,0.7605,0.4617,-0.3776,-0.2567
443,0.0,0.0,0.0,0.0,0.0,0.0,0.3202,0.8707,0.3478,0.7602,0.4632,-0.3763,-0.2567
444,0.0,0.0,0.0,0.0,0.0,0.0,0.3166,0.8845,0.3531,0.7596,0.4653,-0.3754,-0.2561
445,0.0,0.0,0.0,0.0,0.0,0.0,0.3166,0.8844,0.3545,0.7591,0.4672,-0.3744,-0.2557
446,0.0,0.0,0.0,0.0,0.0,0.0,0.3123,0.8860,0.3559,0.7589,0.4680,-0.3735,-0.2560
447,0.0,0.0,0.0,0.0,0.0,0.0,0.3147,0.8854,0.3573,0.7593,0.4681,-0.3721,-0.2567
448,0.0,0.0,0.0,0.0,0.0,0.0,0.3126,0.8816,0.3545,0.7593,0.4690,-0.3709,-0.2569
449,0.0,0.0,0.0,0.0,0.0,0.0,0.3118,0.8859,0.3606,0.7594,0.4694,-0.3696,-0.2576
450,0.0,0.0,0.0,0.0,0.0,0.0,0.3119,0.8908,0.3612,0.7596,0.4702,-0.3680,-0.2578
451,0.0,0.0,0.0,0.0,0.0,0.0,0.3120,0.8951,0.3659,0.7596,0.4714,-0.3662,-0.2580
452,0.0,0.0,0.0,0.0,0.0,0.0,0.3099,0.8884,0.3644,0.7602,0.4719,-0.3639,-0.2589
453,0.0,0.0,0.0,0.0,0.0,0.0,0.3099,0.8870,0.3611,0.7600,0.4728,-0.3624,-0.2597
454,0.0,0.0,0.0,0.0,0.0,0.0,0.3003,0.8951,0.3593,0.7601,0.4742,-0.3602,-0.2602
455,0.0,0.0,0.0,0.0,0.0,0.0,0.2952,0.9070,0.3552,0.7602,0.4759,-0.3575,-0.2605
456,0.0,0.0,0.0,0.0,0.0,0.0,0.2837,0.9143,0.3524,0.7605,0.4774,-0.3544,-0.2612
457,0.0,0.0,0.0,0.0,0.0,0.0,0.2711,0.9209,0.3567,0.7606,0.4788,-0.3516,-0.2622
458,0.0,0.0,0.0,0.0,0.0,0.0,0.2675,0.9138,0.3543,0.7611,0.4796,-0.3483,-0.2635
459,0.0,0.0,0.0,0.0,0.0,0.0,0.2654,0.9060,0.3518,0.7615,0.4801,-0.3455,-0.2650
460,0.0,0.0,0.0,0.0,0.0,0.0,0.2683,0.8888,0.3536,0.7625,0.4795,-0.3428,-0.2668
461,0.0,0.0,0.0,0.0,0.0,0.0,0.2731,0.8667,0.3558,0.7641,0.4773,-0.3407,-0.2688
462,0.0,0.0,0.0,0.0,0.0,0.0,0.2759,0.8636,0.3604,0.7643,0.4752,-0.3415,-0.2710
463,0.0,0.0,0.0,0.0,0.0,0.0,0.2793,0.8642,0.3774,0.7653,0.4734,-0.3411,-0.2719
464,0.0,0.0,0.0,0.0,0.0,0.0,0.2819,0.8500,0.3763,0.7662,0.4716,-0.3408,-0.2727
465,0.0,0.0,0.0,0.0,0.0,0.0,0.2882,0.8501,0.3853,0.7665,0.4707,-0.3412,-0.2727
466,0.0,0.0,0.0,0.0,0.0,0.0,0.2879,0.8574,0.3891,0.7674,0.4687,-0.3418,-0.2732
467,0.0,0.0,0.0,0.0,0.0,0.0,0.2903,0.8738,0.3996,0.7681,0.4663,-0.3426,-0.2741
468,0.0,0.0,0.0,0.0,0.0,0.0,0.2917,0.8713,0.3972,0.7682,0.4652,-0.3435,-0.2747
469,0.0,0.0,0.0,0.0,0.0,0.0,0.2953,0.8750,0.4039,0.7677,0.4648,-0.3447,-0.2751
470,0.0,0.0,0.0,0.0,0.0,0.0,0.3054,0.8872,0.4167,0.7678,0.4628,-0.3459,-0.2769
471,0.0,0.0,0.0,0.0,0.0,0.0,0.3101,0.8803,0.4128,0.7680,0.4602,-0.3470,-0.2794
472,0.0,0.0,0.0,0.0,0.0,0.0,0.3103,0.8717,0.4038,0.7676,0.4594,-0.3478,-0.2808
473,0.0,0.0,0.0,0.0,0.0,0.0,0.3042,0.8626,0.4000,0.7672,0.4585,-0.3486,-0.2821
474,0.0,0.0,0.0,0.0,0.0,0.0,0.2950,0.8668,0.3995,0.7668,0.4584,-0.3491,-0.2829
475,0.0,0.0,0.0,0.0,0.0,0.0,0.2838,0.8677,0.3939,0.7659,0.4599,-0.3492,-0.2828
476,0.0,0.0,0.0,0.0,0.0,0.0,0.2815,0.8726,0.3977,0.7652,0.4608,-0.3495,-0.2829
477,0.0,0.0,0.0,0.0,0.0,0.0,0.2794,0.8840,0.3954,0.7647,0.4615,-0.3493,-0.2832
478,0.0,0.0,0.0,0.0,0.0,0.0,0.2706,0.8859,0.3837,0.7631,0.4645,-0.3493,-0.2825
479,0.0,0.0,0.0,0.0,0.0,0.0,0.2683,0.8893,0.3875,0.7617,0.4676,-0.3488,-0.2819
480,0.0,0.0,0.0,0.0,0.0,0.0,0.2674,0.8951,0.3899,0.7606,0.4700,-0.3479,-0.2819
481,0.0,0.0,0.0,0.0,0.0,0.0,0.2675,0.9344,0.4067,0.7591,0.4726,-0.3472,-0.2826
482,0.0,0.0,0.0,0.0,0.0,0.0,0.2580,0.9276,0.3953,0.7588,0.4732,-0.3452,-0.2850
483,0.0,0.0,0.0,0.0,0.0,0.0,0.2523,0.9147,0.3863,0.7584,0.4740,-0.3431,-0.2873
484,0.0,0.0,0.0,0.0,0.0,0.0,0.2518,0.8939,0.3748,0.7577,0.4752,-0.3411,-0.2893
485,0.0,0.0,0.0,0.0,0.0,0.0,0.2433,0.9067,0.3819,0.7568,0.4768,-0.3397,-0.2907
486,0.0,0.0,0.0,0.0,0.0,0.0,0.2292,0.9116,0.3796,0.7560,0.4787,-0.3375,-0.2922
487,0.0,0.0,0.0,0.0,0.0,0.0,0.2314,0.8853,0.3705,0.7554,0.4801,-0.3356,-0.2937
488,0.0,0.0,0.0,0.0,0.0,0.0,0.2356,0.8599,0.3618,0.7548,0.4813,-0.3346,-0.2945
489,0.0,0.0,0.0,0.0,0.0,0.0,0.2195,0.8962,0.3833,0.7536,0.4838,-0.3343,-0.2937
490,0.0,0.0,0.0,0.0,0.0,0.0,0.2028,0.8934,0.3757,0.7533,0.4855,-0.3330,-0.2932
491,0.0,0.0,0.0,0.0,0.0,0.0,0.2045,0.8836,0.3733,0.7530,0.4869,-0.3323,-0.2924
492,0.0,0.0,0.0,0.0,0.0,0.0,0.2048,0.8773,0.3709,0.7535,0.4881,-0.3307,-0.2908
493,0.0,0.0,0.0,0.0,0.0,0.0,0.1906,0.8580,0.3537,0.7542,0.4889,-0.3298,-0.2888
494,0.0,0.0,0.0,0.0,0.0,0.0,0.2003,0.8726,0.3666,0.7550,0.4892,-0.3293,-0.2866
495,0.0,0.0,0.0,0.0,0.0,0.0,0.2011,0.8857,0.3728,0.7563,0.4887,-0.3290,-0.2845
496,0.0,0.0,0.0,0.0,0.0,0.0,0.1966,0.8819,0.3728,0.7577,0.4883,-0.3288,-0.2819
497,0.0,0.0,0.0,0.0,0.0,0.0,0.1987,0.8891,0.3742,0.7583,0.4883,-0.3298,-0.2788
498,0.0,0.0,0.0,0.0,0.0,0.0,0.2056,0.9059,0.3814,0.7592,0.4873,-0.3312,-0.2765
499,0.0,0.0,0.0,0.0,0.0,0.0,0.2110,0.9077,0.3805,0.7604,0.4862,-0.3318,-0.2745
500,0.0,0.0,0.0,0.0,0.0,0.0,0.2199,0.8929,0.3757,0.7611,0.4855,-0.3332,-0.2721
501,0.0,0.0,0.0,0.0,0.0,0.0,0.2348,0.9001,0.3833,0.7614,0.4851,-0.3350,-0.2696
502,0.0,0.0,0.0,0.0,0.0,0.0,0.2484,0.8983,0.3833,0.7625,0.4829,-0.3366,-0.2684
503,0.0,0.0,0.0,0.0,0.0,0.0,0.2549,0.8660,0.3722,0.7633,0.4805,-0.3390,-0.2678
504,0.0,0.0,0.0,0.0,0.0,0.0,0.2632,0.8827,0.3789,0.7631,0.4786,-0.3428,-0.2667
505,0.0,0.0,0.0,0.0,0.0,0.0,0.2677,0.9049,0.3895,0.7631,0.4767,-0.3459,-0.2660
506,0.0,0.0,0.0,0.0,0.0,0.0,0.2669,0.9112,0.3924,0.7635,0.4747,-0.3482,-0.2656
507,0.0,0.0,0.0,0.0,0.0,0.0,0.2790,0.9046,0.3867,0.7643,0.4719,-0.3500,-0.2656
508,0.0,0.0,0.0,0.0,0.0,0.0,0.2771,0.8707,0.3741,0.7649,0.4708,-0.3510,-0.2647
509,0.0,0.0,0.0,0.0,0.0,0.0,0.2757,0.8757,0.3662,0.7647,0.4708,-0.3528,-0.2630
510,0.0,0.0,0.0,0.0,0.0,0.0,0.2832,0.9144,0.3778,0.7645,0.4706,-0.3547,-0.2613
511,0.0,0.0,0.0,0.0,0.0,0.0,0.2750,0.9195,0.3792,0.7643,0.4705,-0.3559,-0.2603
512,0.0,0.0,0.0,0.0,0.0,0.0,0.2800,0.9063,0.3702,0.7646,0.4697,-0.3564,-0.2604
513,0.0,0.0,0.0,0.0,0.0,0.0,0.2878,0.8881,0.3654,0.7642,0.4700,-0.3570,-0.2601
514,0.0,0.0,0.0,0.0,0.0,0.0,0.2935,0.8791,0.3658,0.7641,0.4696,-0.3577,-0.2602
515,0.0,0.0,0.0,0.0,0.0,0.0,0.3018,0.8803,0.3658,0.7638,0.4694,-0.3588,-0.2598
516,0.0,0.0,0.0,0.0,0.0,0.0,0.3105,0.8767,0.3615,0.7634,0.4699,-0.3596,-0.2589
517,0.0,0.0,0.0,0.0,0.0,0.0,0.3131,0.8819,0.3644,0.7633,0.4690,-0.3612,-0.2588
518,0.0,0.0,0.0,0.0,0.0,0.0,0.3205,0.8836,0.3663,0.7640,0.4668,-0.3623,-0.2592
519,0.0,0.0,0.0,0.0,0.0,0.0,0.3229,0.8792,0.3615,0.7638,0.4665,-0.3635,-0.2585
520,0.0,0.0,0.0,0.0,0.0,0.0,0.3303,0.8838,0.3668,0.7638,0.4660,-0.3648,-0.2577
521,0.0,0.0,0.0,0.0,0.0,0.0,0.3304,0.8882,0.3654,0.7640,0.4647,-0.3661,-0.2574
522,0.0,0.0,0.0,0.0,0.0,0.0,0.3305,0.8897,0.3654,0.7643,0.4643,-0.3668,-0.2564
523,0.0,0.0,0.0,0.0,0.0,0.0,0.3286,0.8941,0.3720,0.7644,0.4646,-0.3670,-0.2552
524,0.0,0.0,0.0,0.0,0.0,0.0,0.3297,0.9134,0.3797,0.7648,0.4649,-0.3666,-0.2540
525,0.0,0.0,0.0,0.0,0.0,0.0,0.3347,0.8647,0.3652,0.7653,0.4649,-0.3659,-0.2537
526,0.0,0.0,0.0,0.0,0.0,0.0,0.3383,0.8723,0.3695,0.7647,0.4651,-0.3671,-0.2532
527,0.0,0.0,0.0,0.0,0.0,0.0,0.3270,0.9072,0.3768,0.7643,0.4652,-0.3675,-0.2537
528,0.0,0.0,0.0,0.0,0.0,0.0,0.3266,0.8746,0.3695,0.7642,0.4646,-0.3676,-0.2551
529,0.0,0.0,0.0,0.0,0.0,0.0,0.3240,0.8845,0.3663,0.7639,0.4647,-0.3677,-0.2555
530,0.0,0.0,0.0,0.0,0.0,0.0,0.3108,0.9048,0.3787,0.7646,0.4638,-0.3667,-0.2568
531,0.0,0.0,0.0,0.0,0.0,0.0,0.3181,0.8502,0.3533,0.7654,0.4625,-0.3654,-0.2584
532,0.0,0.0,0.0,0.0,0.0,0.0,0.3219,0.8641,0.3657,0.7649,0.4625,-0.3662,-0.2586
533,0.0,0.0,0.0,0.0,0.0,0.0,0.3209,0.8626,0.3656,0.7654,0.4620,-0.3658,-0.2588
534,0.0,0.0,0.0,0.0,0.0,0.0,0.3242,0.8591,0.3689,0.7649,0.4621,-0.3669,-0.2585
535,0.0,0.0,0.0,0.0,0.0,0.0,0.3259,0.8663,0.3741,0.7647,0.4622,-0.3675,-0.2581
536,0.0,0.0,0.0,0.0,0.0,0.0,0.3260,0.8706,0.3756,0.7647,0.4617,-0.3681,-0.2580
537,0.0,0.0,0.0,0.0,0.0,0.0,0.3311,0.8772,0.3813,0.7648,0.4613,-0.3686,-0.2576
538,0.0,0.0,0.0,0.0,0.0,0.0,0.3325,0.8577,0.3755,0.7657,0.4594,-0.3686,-0.2583
539,0.0,0.0,0.0,0.0,0.0,0.0,0.3315,0.8578,0.3764,0.7661,0.4580,-0.3693,-0.2587
540,0.0,0.0,0.0,0.0,0.0,0.0,0.3334,0.8723,0.3803,0.7663,0.4573,-0.3701,-0.2583
541,0.0,0.0,0.0,0.0,0.0,0.0,0.3308,0.8660,0.3789,0.7665,0.4570,-0.3706,-0.2575
542,0.0,0.0,0.0,0.0,0.0,0.0,0.3266,0.8740,0.3794,0.7666,0.4575,-0.3708,-0.2560
543,0.0,0.0,0.0,0.0,0.0,0.0,0.3207,0.8917,0.3814,0.7664,0.4587,-0.3708,-0.2544
544,0.0,0.0,0.0,0.0,0.0,0.0,0.3194,0.8787,0.3747,0.7664,0.4602,-0.3701,-0.2527
545,0.0,0.0,0.0,0.0,0.0,0.0,0.3347,0.8821,0.3766,0.7662,0.4623,-0.3695,-0.2504
546,0.0,0.0,0.0,0.0,0.0,0.0,0.3445,0.8846,0.3818,0.7666,0.4639,-0.3680,-0.2485
547,0.0,0.0,0.0,0.0,0.0,0.0,0.3387,0.9032,0.3914,0.7667,0.4649,-0.3667,-0.2480
548,0.0,0.0,0.0,0.0,0.0,0.0,0.3429,0.8973,0.3881,0.7673,0.4659,-0.3645,-0.2479
549,0.0,0.0,0.0,0.0,0.0,0.0,0.3427,0.8905,0.3838,0.7677,0.4666,-0.3624,-0.2482
550,0.0,0.0,0.0,0.0,0.0,0.0,0.3350,0.8597,0.3713,0.7684,0.4667,-0.3604,-0.2488
551,0.0,0.0,0.0,0.0,0.0,0.0,0.3304,0.8505,0.3712,0.7688,0.4668,-0.3591,-0.2491
552,0.0,0.0,0.0,0.0,0.0,0.0,0.3260,0.8332,0.3621,0.7691,0.4667,-0.3585,-0.2494
553,0.0,0.0,0.0,0.0,0.0,0.0,0.3251,0.8371,0.3673,0.7694,0.4662,-0.3583,-0.2496
554,0.0,0.0,0.0,0.0,0.0,0.0,0.3268,0.8284,0.3574,0.7696,0.4659,-0.3583,-0.2494
555,0.0,0.0,0.0,0.0,0.0,0.0,0.3235,0.8503,0.3702,0.7694,0.4655,-0.3594,-0.2492
556,0.0,0.0,0.0,0.0,0.0,0.0,0.3253,0.8634,0.3718,0.7695,0.4644,-0.3604,-0.2496
557,0.0,0.0,0.0,0.0,0.0,0.0,0.3282,0.8769,0.3775,0.7694,0.4626,-0.3619,-0.2510
558,0.0,0.0,0.0,0.0,0.0,0.0,0.3330,0.8739,0.3695,0.7696,0.4608,-0.3630,-0.2524
559,0.0,0.0,0.0,0.0,0.0,0.0,0.3427,0.8906,0.3786,0.7685,0.4611,-0.3647,-0.2525
560,0.0,0.0,0.0,0.0,0.0,0.0,0.3534,0.8703,0.3728,0.7686,0.4606,-0.3649,-0.2529
561,0.0,0.0,0.0,0.0,0.0,0.0,0.3489,0.8662,0.3643,0.7676,0.4618,-0.3661,-0.2521
562,0.0,0.0,0.0,0.0,0.0,0.0,0.3380,0.8792,0.3667,0.7670,0.4632,-0.3663,-0.2510
563,0.0,0.0,0.0,0.0,0.0,0.0,0.3389,0.8924,0.3635,0.7664,0.4642,-0.3667,-0.2503
564,0.0,0.0,0.0,0.0,0.0,0.0,0.3398,0.9057,0.3575,0.7652,0.4670,-0.3670,-0.2486
565,0.0,0.0,0.0,0.0,0.0,0.0,0.3346,0.9137,0.3557,0.7641,0.4712,-0.3658,-0.2456
566,0.0,0.0,0.0,0.0,0.0,0.0,0.3138,0.9250,0.3605,0.7633,0.4747,-0.3642,-0.2436
567,0.0,0.0,0.0,0.0,0.0,0.0,0.3410,0.8420,0.3368,0.7645,0.4749,-0.3609,-0.2446
568,0.0,0.0,0.0,0.0,0.0,0.0,0.3512,0.7854,0.3100,0.7628,0.4758,-0.3633,-0.2443
569,0.0,0.0,0.0,0.0,0.0,0.0,0.3365,0.8597,0.3374,0.7613,0.4761,-0.3662,-0.2442
570,0.0,0.0,0.0,0.0,0.0,0.0,0.3400,0.8246,0.3235,0.7607,0.4744,-0.3686,-0.2457
571,0.0,0.0,0.0,0.0,0.0,0.0,0.3437,0.8177,0.3234,0.7593,0.4727,-0.3729,-0.2469
572,0.0,0.0,0.0,0.0,0.0,0.0,0.3588,0.8331,0.3348,0.7581,0.4701,-0.3775,-0.2486
573,0.0,0.0,0.0,0.0,0.0,0.0,0.3673,0.8396,0.3405,0.7570,0.4665,-0.3826,-0.2511
574,0.0,0.0,0.0,0.0,0.0,0.0,0.3739,0.8472,0.3458,0.7561,0.4622,-0.3875,-0.2539
575,0.0,0.0,0.0,0.0,0.0,0.0,0.3804,0.8713,0.3549,0.7545,0.4595,-0.3928,-0.2556
576,0.0,0.0,0.0,0.0,0.0,0.0,0.3884,0.8769,0.3564,0.7537,0.4566,-0.3966,-0.2574
577,0.0,0.0,0.0,0.0,0.0,0.0,0.3956,0.8883,0.3602,0.7528,0.4540,-0.4002,-0.2588
578,0.0,0.0,0.0,0.0,0.0,0.0,0.3964,0.8824,0.3635,0.7521,0.4526,-0.4030,-0.2591
579,0.0,0.0,0.0,0.0,0.0,0.0,0.3923,0.8956,0.3678,0.7512,0.4517,-0.4056,-0.2593
580,0.0,0.0,0.0,0.0,0.0,0.0,0.4006,0.9109,0.3764,0.7508,0.4507,-0.4070,-0.2597
581,0.0,0.0,0.0,0.0,0.0,0.0,0.3971,0.9091,0.3731,0.7507,0.4505,-0.4076,-0.2595
582,0.0,0.0,0.0,0.0,0.0,0.0,0.3862,0.9050,0.3703,0.7508,0.4504,-0.4075,-0.2597
583,0.0,0.0,0.0,0.0,0.0,0.0,0.3878,0.9080,0.3689,0.7506,0.4509,-0.4073,-0.2596
584,0.0,0.0,0.0,0.0,0.0,0.0,0.3788,0.9004,0.3674,0.7505,0.4528,-0.4059,-0.2587
585,0.0,0.0,0.0,0.0,0.0,0.0,0.3695,0.8829,0.3494,0.7506,0.4549,-0.4041,-0.2575
586,0.0,0.0,0.0,0.0,0.0,0.0,0.3510,0.8860,0.3470,0.7508,0.4578,-0.4018,-0.2557
587,0.0,0.0,0.0,0.0,0.0,0.0,0.3445,0.8983,0.3499,0.7516,0.4606,-0.3983,-0.2535
588,0.0,0.0,0.0,0.0,0.0,0.0,0.3337,0.8980,0.3593,0.7529,0.4623,-0.3945,-0.2526
589,0.0,0.0,0.0,0.0,0.0,0.0,0.3356,0.8791,0.3455,0.7544,0.4634,-0.3905,-0.2522
590,0.0,0.0,0.0,0.0,0.0,0.0,0.3296,0.8754,0.3464,0.7554,0.4649,-0.3875,-0.2513
591,0.0,0.0,0.0,0.0,0.0,0.0,0.3306,0.8569,0.3416,0.7565,0.4664,-0.3842,-0.2502
592,0.0,0.0,0.0,0.0,0.0,0.0,0.3296,0.8583,0.3416,0.7570,0.4679,-0.3824,-0.2486
593,0.0,0.0,0.0,0.0,0.0,0.0,0.3289,0.8652,0.3450,0.7580,0.4690,-0.3800,-0.2472
594,0.0,0.0,0.0,0.0,0.0,0.0,0.3357,0.8649,0.3459,0.7585,0.4703,-0.3783,-0.2457
595,0.0,0.0,0.0,0.0,0.0,0.0,0.3363,0.8678,0.3459,0.7592,0.4710,-0.3767,-0.2448
596,0.0,0.0,0.0,0.0,0.0,0.0,0.3358,0.8679,0.3417,0.7598,0.4721,-0.3751,-0.2434
597,0.0,0.0,0.0,0.0,0.0,0.0,0.3445,0.8637,0.3450,0.7604,0.4730,-0.3736,-0.2419
598,0.0,0.0,0.0,0.0,0.0,0.0,0.3532,0.8620,0.3449,0.7608,0.4742,-0.3724,-0.2401
599,0.0,0.0,0.0,0.0,0.0,0.0,0.3483,0.8768,0.3455,0.7609,0.4758,-0.3714,-0.2380
600,0.0,0.0,0.0,0.0,0.0,0.0,0.3485,0.8840,0.3489,0.7611,0.4776,-0.3701,-0.2357
601,0.0,0.0,0.0,0.0,0.0,0.0,0.3457,0.8885,0.3499,0.7614,0.4791,-0.3688,-0.2338
602,0.0,0.0,0.0,0.0,0.0,0.0,0.3433,0.8905,0.3508,0.7624,0.4794,-0.3670,-0.2330
603,0.0,0.0,0.0,0.0,0.0,0.0,0.3419,0.8959,0.3499,0.7628,0.4807,-0.3652,-0.2317
604,0.0,0.0,0.0,0.0,0.0,0.0,0.3402,0.9042,0.3542,0.7634,0.4819,-0.3629,-0.2307
605,0.0,0.0,0.0,0.0,0.0,0.0,0.3350,0.8942,0.3499,0.7641,0.4831,-0.3603,-0.2300
606,0.0,0.0,0.0,0.0,0.0,0.0,0.3291,0.8916,0.3433,0.7641,0.4850,-0.3581,-0.2296
607,0.0,0.0,0.0,0.0,0.0,0.0,0.3217,0.8889,0.3414,0.7641,0.4861,-0.3562,-0.2302
608,0.0,0.0,0.0,0.0,0.0,0.0,0.3276,0.8891,0.3470,0.7639,0.4872,-0.3545,-0.2311
609,0.0,0.0,0.0,0.0,0.0,0.0,0.3319,0.8864,0.3531,0.7636,0.4886,-0.3530,-0.2316
610,0.0,0.0,0.0,0.0,0.0,0.0,0.3233,0.8949,0.3579,0.7639,0.4894,-0.3508,-0.2322
611,0.0,0.0,0.0,0.0,0.0,0.0,0.3095,0.8930,0.3536,0.7645,0.4902,-0.3479,-0.2327
612,0.0,0.0,0.0,0.0,0.0,0.0,0.2889,0.9091,0.3608,0.7645,0.4923,-0.3450,-0.2327
613,0.0,0.0,0.0,0.0,0.0,0.0,0.2885,0.8954,0.3607,0.7652,0.4934,-0.3412,-0.2335
614,0.0,0.0,0.0,0.0,0.0,0.0,0.2852,0.8786,0.3502,0.7653,0.4950,-0.3385,-0.2339
615,0.0,0.0,0.0,0.0,0.0,0.0,0.2682,0.9043,0.3669,0.7656,0.4965,-0.3354,-0.2341
616,0.0,0.0,0.0,0.0,0.0,0.0,0.2655,0.9131,0.3684,0.7658,0.4981,-0.3323,-0.2345
617,0.0,0.0,0.0,0.0,0.0,0.0,0.2559,0.9202,0.3712,0.7656,0.5008,-0.3287,-0.2346
618,0.0,0.0,0.0,0.0,0.0,0.0,0.2462,0.8875,0.3592,0.7659,0.5026,-0.3246,-0.2352
619,0.0,0.0,0.0,0.0,0.0,0.0,0.2425,0.8958,0.3635,0.7659,0.5042,-0.3214,-0.2363
620,0.0,0.0,0.0,0.0,0.0,0.0,0.2283,0.9138,0.3679,0.7653,0.5065,-0.3184,-0.2375
621,0.0,0.0,0.0,0.0,0.0,0.0,0.2212,0.9037,0.3664,0.7650,0.5082,-0.3150,-0.2394
622,0.0,0.0,0.0,0.0,0.0,0.0,0.2212,0.9020,0.3546,0.7645,0.5093,-0.3127,-0.2416
623,0.0,0.0,0.0,0.0,0.0,0.0,0.2064,0.8980,0.3564,0.7633,0.5111,-0.3110,-0.2438
624,0.0,0.0,0.0,0.0,0.0,0.0,0.1973,0.9241,0.3623,0.7614,0.5137,-0.3099,-0.2457
625,0.0,0.0,0.0,0.0,0.0,0.0,0.1980,0.8977,0.3607,0.7608,0.5142,-0.3078,-0.2490
626,0.0,0.0,0.0,0.0,0.0,0.0,0.2006,0.8822,0.3455,0.7597,0.5148,-0.3071,-0.2520
627,0.0,0.0,0.0,0.0,0.0,0.0,0.2015,0.9006,0.3555,0.7581,0.5162,-0.3070,-0.2542
628,0.0,0.0,0.0,0.0,0.0,0.0,0.1975,0.8974,0.3475,0.7566,0.5177,-0.3069,-0.2556
629,0.0,0.0,0.0,0.0,0.0,0.0,0.1910,0.9079,0.3480,0.7553,0.5190,-0.3069,-0.2571
630,0.0,0.0,0.0,0.0,0.0,0.0,0.1962,0.8858,0.3432,0.7553,0.5185,-0.3060,-0.2590
631,0.0,0.0,0.0,0.0,0.0,0.0,0.1962,0.9033,0.3452,0.7554,0.5177,-0.3059,-0.2604
632,0.0,0.0,0.0,0.0,0.0,0.0,0.1852,0.9124,0.3518,0.7562,0.5167,-0.3046,-0.2614
633,0.0,0.0,0.0,0.0,0.0,0.0,0.1835,0.9230,0.3660,0.7567,0.5161,-0.3040,-0.2620
634,0.0,0.0,0.0,0.0,0.0,0.0,0.1937,0.9022,0.3640,0.7578,0.5150,-0.3028,-0.2623
635,0.0,0.0,0.0,0.0,0.0,0.0,0.1903,0.9751,0.3909,0.7575,0.5154,-0.3026,-0.2627
636,0.0,0.0,0.0,0.0,0.0,0.0,0.1905,0.9090,0.3692,0.7589,0.5135,-0.3001,-0.2651
637,0.0,0.0,0.0,0.0,0.0,0.0,0.2002,0.8711,0.3675,0.7588,0.5120,-0.3005,-0.2677
638,0.0,0.0,0.0,0.0,0.0,0.0,0.2058,0.8778,0.3676,0.7587,0.5091,-0.3021,-0.2719
639,0.0,0.0,0.0,0.0,0.0,0.0,0.1939,0.8923,0.3696,0.7572,0.5071,-0.3054,-0.2759
640,0.0,0.0,0.0,0.0,0.0,0.0,0.1855,0.9051,0.3824,0.7560,0.5051,-0.3080,-0.2801
641,0.0,0.0,0.0,0.0,0.0,0.0,0.2070,0.8711,0.3878,0.7548,0.5022,-0.3116,-0.2846
642,0.0,0.0,0.0,0.0,0.0,0.0,0.2259,0.8628,0.3821,0.7543,0.4985,-0.3151,-0.2885
643,0.0,0.0,0.0,0.0,0.0,0.0,0.2183,0.8880,0.3766,0.7530,0.4965,-0.3193,-0.2907
644,0.0,0.0,0.0,0.0,0.0,0.0,0.2207,0.9054,0.3871,0.7521,0.4950,-0.3224,-0.2921
645,0.0,0.0,0.0,0.0,0.0,0.0,0.1967,0.9038,0.3786,0.7501,0.4960,-0.3251,-0.2927
646,0.0,0.0,0.0,0.0,0.0,0.0,0.1893,0.9372,0.3826,0.7486,0.4960,-0.3273,-0.2940
647,0.0,0.0,0.0,0.0,0.0,0.0,0.2218,0.8909,0.3724,0.7494,0.4935,-0.3277,-0.2958
648,0.0,0.0,0.0,0.0,0.0,0.0,0.2183,0.9057,0.3744,0.7485,0.4930,-0.3302,-0.2962
649,0.0,0.0,0.0,0.0,0.0,0.0,0.2166,0.8978,0.3795,0.7488,0.4921,-0.3306,-0.2963
650,0.0,0.0,0.0,0.0,0.0,0.0,0.2317,0.8780,0.3666,0.7476,0.4931,-0.3332,-0.2950
651,0.0,0.0,0.0,0.0,0.0,0.0,0.2214,0.9128,0.3815,0.7472,0.4938,-0.3345,-0.2932
652,0.0,0.0,0.0,0.0,0.0,0.0,0.2221,0.9211,0.3788,0.7468,0.4942,-0.3361,-0.2917
653,0.0,0.0,0.0,0.0,0.0,0.0,0.2289,0.8797,0.3601,0.7478,0.4928,-0.3364,-0.2911
654,0.0,0.0,0.0,0.0,0.0,0.0,0.2287,0.8739,0.3539,0.7476,0.4927,-0.3386,-0.2892
655,0.0,0.0,0.0,0.0,0.0,0.0,0.2279,0.9157,0.3702,0.7472,0.4938,-0.3405,-0.2862
656,0.0,0.0,0.0,0.0,0.0,0.0,0.2329,0.9199,0.3717,0.7477,0.4935,-0.3416,-0.2842
657,0.0,0.0,0.0,0.0,0.0,0.0,0.2391,0.8974,0.3588,0.7488,0.4919,-0.3425,-0.2829
658,0.0,0.0,0.0,0.0,0.0,0.0,0.2423,0.9061,0.3608,0.7493,0.4912,-0.3439,-0.2810
659,0.0,0.0,0.0,0.0,0.0,0.0,0.2521,0.9053,0.3641,0.7503,0.4898,-0.3449,-0.2795
660,0.0,0.0,0.0,0.0,0.0,0.0,0.2565,0.9047,0.3617,0.7512,0.4884,-0.3463,-0.2780
661,0.0,0.0,0.0,0.0,0.0,0.0,0.2625,0.9108,0.3641,0.7517,0.4879,-0.3473,-0.2760
662,0.0,0.0,0.0,0.0,0.0,0.0,0.2694,0.9130,0.3688,0.7527,0.4865,-0.3482,-0.2749
663,0.0,0.0,0.0,0.0,0.0,0.0,0.2705,0.8993,0.3664,0.7534,0.4857,-0.3487,-0.2736
664,0.0,0.0,0.0,0.0,0.0,0.0,0.2781,0.8903,0.3649,0.7541,0.4855,-0.3492,-0.2716
665,0.0,0.0,0.0,0.0,0.0,0.0,0.2895,0.8938,0.3673,0.7548,0.4848,-0.3499,-0.2698
666,0.0,0.0,0.0,0.0,0.0,0.0,0.2900,0.8953,0.3682,0.7555,0.4843,-0.3506,-0.2679
667,0.0,0.0,0.0,0.0,0.0,0.0,0.2959,0.8975,0.3687,0.7566,0.4832,-0.3511,-0.2663
668,0.0,0.0,0.0,0.0,0.0,0.0,0.3007,0.8945,0.3664,0.7578,0.4818,-0.3513,-0.2651
669,0.0,0.0,0.0,0.0,0.0,0.0,0.3009,0.8833,0.3606,0.7581,0.4823,-0.3518,-0.2626
670,0.0,0.0,0.0,0.0,0.0,0.0,0.3064,0.8846,0.3611,0.7585,0.4829,-0.3520,-0.2600
671,0.0,0.0,0.0,0.0,0.0,0.0,0.3039,0.8833,0.3583,0.7590,0.4832,-0.3524,-0.2573
672,0.0,0.0,0.0,0.0,0.0,0.0,0.3055,0.8891,0.3569,0.7598,0.4829,-0.3530,-0.2550
673,0.0,0.0,0.0,0.0,0.0,0.0,0.3093,0.8842,0.3540,0.7603,0.4829,-0.3537,-0.2525
674,0.0,0.0,0.0,0.0,0.0,0.0,0.3204,0.8794,0.3582,0.7609,0.4829,-0.3541,-0.2498
675,0.0,0.0,0.0,0.0,0.0,0.0,0.3086,0.8935,0.3508,0.7620,0.4823,-0.3543,-0.2475
676,0.0,0.0,0.0,0.0,0.0,0.0,0.3103,0.9017,0.3547,0.7622,0.4825,-0.3550,-0.2454
677,0.0,0.0,0.0,0.0,0.0,0.0,0.3108,0.8861,0.3545,0.7631,0.4814,-0.3554,-0.2441
678,0.0,0.0,0.0,0.0,0.0,0.0,0.3063,0.8815,0.3460,0.7639,0.4801,-0.3562,-0.2432
679,0.0,0.0,0.0,0.0,0.0,0.0,0.3104,0.8886,0.3480,0.7641,0.4794,-0.3575,-0.2419
680,0.0,0.0,0.0,0.0,0.0,0.0,0.3084,0.9037,0.3556,0.7640,0.4796,-0.3585,-0.2403
681,0.0,0.0,0.0,0.0,0.0,0.0,0.3090,0.8916,0.3452,0.7640,0.4801,-0.3591,-0.2386
682,0.0,0.0,0.0,0.0,0.0,0.0,0.3108,0.8857,0.3442,0.7637,0.4806,-0.3600,-0.2370
683,0.0,0.0,0.0,0.0,0.0,0.0,0.3104,0.8872,0.3437,0.7636,0.4807,-0.3608,-0.2360
684,0.0,0.0,0.0,0.0,0.0,0.0,0.3097,0.9160,0.3486,0.7631,0.4810,-0.3620,-0.2350
685,0.0,0.0,0.0,0.0,0.0,0.0,0.3078,0.9178,0.3595,0.7632,0.4816,-0.3615,-0.2344
686,0.0,0.0,0.0,0.0,0.0,0.0,0.3097,0.8994,0.3447,0.7637,0.4816,-0.3604,-0.2344
687,0.0,0.0,0.0,0.0,0.0,0.0,0.3202,0.9064,0.3514,0.7643,0.4812,-0.3594,-0.2349
688,0.0,0.0,0.0,0.0,0.0,0.0,0.3211,0.8869,0.3465,0.7646,0.4817,-0.3583,-0.2346
689,0.0,0.0,0.0,0.0,0.0,0.0,0.3277,0.8953,0.3551,0.7644,0.4830,-0.3577,-0.2336
690,0.0,0.0,0.0,0.0,0.0,0.0,0.3322,0.8986,0.3584,0.7648,0.4830,-0.3567,-0.2338
691,0.0,0.0,0.0,0.0,0.0,0.0,0.3311,0.8762,0.3502,0.7655,0.4816,-0.3560,-0.2352
692,0.0,0.0,0.0,0.0,0.0,0.0,0.3295,0.8899,0.3574,0.7653,0.4808,-0.3564,-0.2369
693,0.0,0.0,0.0,0.0,0.0,0.0,0.3290,0.9068,0.3674,0.7649,0.4808,-0.3561,-0.2386
694,0.0,0.0,0.0,0.0,0.0,0.0,0.3213,0.8950,0.3555,0.7642,0.4807,-0.3562,-0.2410
695,0.0,0.0,0.0,0.0,0.0,0.0,0.3228,0.8784,0.3526,0.7635,0.4797,-0.3568,-0.2441
696,0.0,0.0,0.0,0.0,0.0,0.0,0.3168,0.8908,0.3560,0.7626,0.4792,-0.3575,-0.2470
697,0.0,0.0,0.0,0.0,0.0,0.0,0.3102,0.8803,0.3531,0.7618,0.4788,-0.3578,-0.2498
698,0.0,0.0,0.0,0.0,0.0,0.0,0.3103,0.8856,0.3564,0.7606,0.4787,-0.3586,-0.2523
699,0.0,0.0,0.0,0.0,0.0,0.0,0.3002,0.8733,0.3474,0.7601,0.4777,-0.3589,-0.2553
700,0.0,0.0,0.0,0.0,0.0,0.0,0.2883,0.8878,0.3526,0.7591,0.4773,-0.3600,-0.2575
701,0.0,0.0,0.0,0.0,0.0,0.0,0.2891,0.8965,0.3565,0.7587,0.4765,-0.3602,-0.2599
702,0.0,0.0,0.0,0.0,0.0,0.0,0.2867,0.8800,0.3512,0.7584,0.4756,-0.3605,-0.2619
703,0.0,0.0,0.0,0.0,0.0,0.0,0.2853,0.8659,0.3501,0.7577,0.4761,-0.3609,-0.2627
704,0.0,0.0,0.0,0.0,0.0,0.0,0.2880,0.8749,0.3610,0.7571,0.4759,-0.3618,-0.2635
705,0.0,0.0,0.0,0.0,0.0,0.0,0.2942,0.8888,0.3672,0.7567,0.4758,-0.3626,-0.2639
706,0.0,0.0,0.0,0.0,0.0,0.0,0.2858,0.8654,0.3501,0.7566,0.4758,-0.3625,-0.2642
707,0.0,0.0,0.0,0.0,0.0,0.0,0.2850,0.8722,0.3535,0.7562,0.4756,-0.3635,-0.2642
708,0.0,0.0,0.0,0.0,0.0,0.0,0.2898,0.9041,0.3678,0.7559,0.4769,-0.3635,-0.2628
709,0.0,0.0,0.0,0.0,0.0,0.0,0.2841,0.8956,0.3574,0.7554,0.4795,-0.3629,-0.2603
710,0.0,0.0,0.0,0.0,0.0,0.0,0.2751,0.9065,0.3655,0.7556,0.4815,-0.3616,-0.2578
711,0.0,0.0,0.0,0.0,0.0,0.0,0.2808,0.8801,0.3596,0.7572,0.4806,-0.3595,-0.2578
712,0.0,0.0,0.0,0.0,0.0,0.0,0.2888,0.8698,0.3421,0.7573,0.4805,-0.3597,-0.2574
713,0.0,0.0,0.0,0.0,0.0,0.0,0.2925,0.8959,0.3560,0.7574,0.4794,-0.3606,-0.2577
714,0.0,0.0,0.0,0.0,0.0,0.0,0.3000,0.9014,0.3608,0.7581,0.4775,-0.3608,-0.2589
715,0.0,0.0,0.0,0.0,0.0,0.0,0.2996,0.8869,0.3536,0.7583,0.4763,-0.3616,-0.2596
716,0.0,0.0,0.0,0.0,0.0,0.0,0.2989,0.8963,0.3504,0.7583,0.4752,-0.3627,-0.2602
717,0.0,0.0,0.0,0.0,0.0,0.0,0.3051,0.8908,0.3466,0.7580,0.4740,-0.3641,-0.2610
718,0.0,0.0,0.0,0.0,0.0,0.0,0.3080,0.8740,0.3478,0.7583,0.4719,-0.3655,-0.2620
719,0.0,0.0,0.0,0.0,0.0,0.0,0.3198,0.8757,0.3436,0.7584,0.4706,-0.3669,-0.2624
720,0.0,0.0,0.0,0.0,0.0,0.0,0.3280,0.8701,0.3417,0.7583,0.4696,-0.3684,-0.2623
721,0.0,0.0,0.0,0.0,0.0,0.0,0.3307,0.8802,0.3507,0.7581,0.4687,-0.3703,-0.2617
722,0.0,0.0,0.0,0.0,0.0,0.0,0.3350,0.8741,0.3544,0.7584,0.4675,-0.3716,-0.2612
723,0.0,0.0,0.0,0.0,0.0,0.0,0.3498,0.8810,0.3531,0.7586,0.4658,-0.3732,-0.2612
724,0.0,0.0,0.0,0.0,0.0,0.0,0.3542,0.8780,0.3526,0.7594,0.4633,-0.3743,-0.2618
725,0.0,0.0,0.0,0.0,0.0,0.0,0.3454,0.8966,0.3626,0.7593,0.4623,-0.3759,-0.2616
726,0.0,0.0,0.0,0.0,0.0,0.0,0.3333,0.9032,0.3688,0.7597,0.4618,-0.3760,-0.2612
727,0.0,0.0,0.0,0.0,0.0,0.0,0.3481,0.8713,0.3549,0.7606,0.4601,-0.3759,-0.2617
728,0.0,0.0,0.0,0.0,0.0,0.0,0.3561,0.8764,0.3578,0.7602,0.4614,-0.3767,-0.2596
729,0.0,0.0,0.0,0.0,0.0,0.0,0.3446,0.8846,0.3531,0.7599,0.4642,-0.3763,-0.2559
730,0.0,0.0,0.0,0.0,0.0,0.0,0.3288,0.8988,0.3499,0.7592,0.4686,-0.3755,-0.2511
731,0.0,0.0,0.0,0.0,0.0,0.0,0.3250,0.8874,0.3644,0.7603,0.4696,-0.3731,-0.2492
732,0.0,0.0,0.0,0.0,0.0,0.0,0.3367,0.8640,0.3445,0.7620,0.4685,-0.3715,-0.2488
733,0.0,0.0,0.0,0.0,0.0,0.0,0.3330,0.8576,0.3524,0.7629,0.4683,-0.3707,-0.2476
734,0.0,0.0,0.0,0.0,0.0,0.0,0.3349,0.8541,0.3505,0.7636,0.4682,-0.3701,-0.2465
735,0.0,0.0,0.0,0.0,0.0,0.0,0.3382,0.8691,0.3568,0.7636,0.4682,-0.3708,-0.2455
736,0.0,0.0,0.0,0.0,0.0,0.0,0.3411,0.8840,0.3654,0.7639,0.4672,-0.3714,-0.2455
737,0.0,0.0,0.0,0.0,0.0,0.0,0.3423,0.8928,0.3664,0.7642,0.4662,-0.3717,-0.2459
738,0.0,0.0,0.0,0.0,0.0,0.0,0.3449,0.8781,0.3625,0.7639,0.4671,-0.3718,-0.2449
739,0.0,0.0,0.0,0.0,0.0,0.0,0.3465,0.8658,0.3610,0.7635,0.4685,-0.3720,-0.2432
740,0.0,0.0,0.0,0.0,0.0,0.0,0.3463,0.8766,0.3606,0.7636,0.4688,-0.3724,-0.2418
741,0.0,0.0,0.0,0.0,0.0,0.0,0.3424,0.8762,0.3606,0.7641,0.4682,-0.3725,-0.2413
742,0.0,0.0,0.0,0.0,0.0,0.0,0.3383,0.8725,0.3568,0.7646,0.4679,-0.3724,-0.2402
743,0.0,0.0,0.0,0.0,0.0,0.0,0.3419,0.8787,0.3597,0.7649,0.4683,-0.3724,-0.2388
744,0.0,0.0,0.0,0.0,0.0,0.0,0.3438,0.8747,0.3592,0.7661,0.4668,-0.3719,-0.2384
745,0.0,0.0,0.0,0.0,0.0,0.0,0.3477,0.8731,0.3606,0.7670,0.4659,-0.3718,-0.2376
746,0.0,0.0,0.0,0.0,0.0,0.0,0.3540,0.8719,0.3648,0.7676,0.4658,-0.3717,-0.2359
747,0.0,0.0,0.0,0.0,0.0,0.0,0.3526,0.8744,0.3653,0.7687,0.4645,-0.3715,-0.2352
748,0.0,0.0,0.0,0.0,0.0,0.0,0.3486,0.8720,0.3676,0.7698,0.4631,-0.3712,-0.2347
749,0.0,0.0,0.0,0.0,0.0,0.0,0.3489,0.8671,0.3685,0.7710,0.4620,-0.3705,-0.2341
750,0.0,0.0,0.0,0.0,0.0,0.0,0.3521,0.8559,0.3642,0.7723,0.4604,-0.3700,-0.2338
751,0.0,0.0,0.0,0.0,0.0,0.0,0.3542,0.8630,0.3694,0.7731,0.4592,-0.3701,-0.2334
752,0.0,0.0,0.0,0.0,0.0,0.0,0.3491,0.8895,0.3762,0.7733,0.4596,-0.3700,-0.2322
753,0.0,0.0,0.0,0.0,0.0,0.0,0.3426,0.8697,0.3718,0.7740,0.4595,-0.3690,-0.2317
754,0.0,0.0,0.0,0.0,0.0,0.0,0.3466,0.8525,0.3679,0.7745,0.4594,-0.3684,-0.2310
755,0.0,0.0,0.0,0.0,0.0,0.0,0.3414,0.8780,0.3752,0.7747,0.4608,-0.3672,-0.2295
756,0.0,0.0,0.0,0.0,0.0,0.0,0.3345,0.8947,0.3814,0.7749,0.4617,-0.3657,-0.2292
757,0.0,0.0,0.0,0.0,0.0,0.0,0.3431,0.8692,0.3732,0.7753,0.4623,-0.3639,-0.2296
758,0.0,0.0,0.0,0.0,0.0,0.0,0.3463,0.8608,0.3718,0.7748,0.4633,-0.3634,-0.2301
759,0.0,0.0,0.0,0.0,0.0,0.0,0.3424,0.8969,0.3843,0.7740,0.4654,-0.3622,-0.2302
760,0.0,0.0,0.0,0.0,0.0,0.0,0.3371,0.8810,0.3766,0.7735,0.4677,-0.3601,-0.2306
761,0.0,0.0,0.0,0.0,0.0,0.0,0.3363,0.8718,0.3718,0.7731,0.4691,-0.3586,-0.2315
762,0.0,0.0,0.0,0.0,0.0,0.0,0.3399,0.8601,0.3685,0.7732,0.4700,-0.3567,-0.2323
763,0.0,0.0,0.0,0.0,0.0,0.0,0.3313,0.8667,0.3680,0.7723,0.4725,-0.3554,-0.2322
764,0.0,0.0,0.0,0.0,0.0,0.0,0.3277,0.8595,0.3642,0.7720,0.4740,-0.3539,-0.2326
765,0.0,0.0,0.0,0.0,0.0,0.0,0.3295,0.8536,0.3642,0.7716,0.4750,-0.3531,-0.2330
766,0.0,0.0,0.0,0.0,0.0,0.0,0.3260,0.8703,0.3671,0.7708,0.4767,-0.3526,-0.2331
767,0.0,0.0,0.0,0.0,0.0,0.0,0.3269,0.8493,0.3655,0.7707,0.4768,-0.3521,-0.2339
768,0.0,0.0,0.0,0.0,0.0,0.0,0.3166,0.8477,0.3575,0.7708,0.4764,-0.3520,-0.2345
769,0.0,0.0,0.0,0.0,0.0,0.0,0.3122,0.8654,0.3605,0.7702,0.4763,-0.3530,-0.2352
770,0.0,0.0,0.0,0.0,0.0,0.0,0.3238,0.8591,0.3675,0.7704,0.4746,-0.3537,-0.2370
771,0.0,0.0,0.0,0.0,0.0,0.0,0.3157,0.8517,0.3585,0.7701,0.4737,-0.3548,-0.2381
772,0.0,0.0,0.0,0.0,0.0,0.0,0.3274,0.8658,0.3694,0.7697,0.4729,-0.3565,-0.2382
773,0.0,0.0,0.0,0.0,0.0,0.0,0.3384,0.8743,0.3653,0.7702,0.4714,-0.3576,-0.2383
774,0.0,0.0,0.0,0.0,0.0,0.0,0.3287,0.8614,0.3689,0.7708,0.4692,-0.3588,-0.2388
775,0.0,0.0,0.0,0.0,0.0,0.0,0.3294,0.8702,0.3676,0.7714,0.4674,-0.3598,-0.2387
776,0.0,0.0,0.0,0.0,0.0,0.0,0.3303,0.8846,0.3771,0.7716,0.4666,-0.3608,-0.2382
777,0.0,0.0,0.0,0.0,0.0,0.0,0.3299,0.8852,0.3724,0.7725,0.4644,-0.3615,-0.2386
778,0.0,0.0,0.0,0.0,0.0,0.0,0.3367,0.8688,0.3756,0.7733,0.4628,-0.3620,-0.2384
779,0.0,0.0,0.0,0.0,0.0,0.0,0.3411,0.8843,0.3804,0.7726,0.4643,-0.3633,-0.2358
780,0.0,0.0,0.0,0.0,0.0,0.0,0.3280,0.8726,0.3728,0.7733,0.4643,-0.3626,-0.2345
781,0.0,0.0,0.0,0.0,0.0,0.0,0.3322,0.8802,0.3743,0.7725,0.4661,-0.3634,-0.2324
782,0.0,0.0,0.0,0.0,0.0,0.0,0.3443,0.9288,0.3991,0.7723,0.4682,-0.3625,-0.2300
783,0.0,0.0,0.0,0.0,0.0,0.0,0.3368,0.9238,0.3897,0.7724,0.4710,-0.3604,-0.2272
784,0.0,0.0,0.0,0.0,0.0,0.0,0.3509,0.9405,0.4223,0.7733,0.4723,-0.3575,-0.2259
785,0.0,0.0,0.0,0.0,0.0,0.0,0.3647,0.9248,0.4005,0.7760,0.4716,-0.3525,-0.2261
786,0.0,0.0,0.0,0.0,0.0,0.0,0.3566,0.8806,0.3969,0.7780,0.4713,-0.3486,-0.2259
787,0.0,0.0,0.0,0.0,0.0,0.0,0.3496,0.8221,0.3705,0.7813,0.4696,-0.3437,-0.2257
788,0.0,0.0,0.0,0.0,0.0,0.0,0.3489,0.7944,0.3628,0.7832,0.4686,-0.3414,-0.2245
789,0.0,0.0,0.0,0.0,0.0,0.0,0.3503,0.7933,0.3703,0.7854,0.4667,-0.3396,-0.2237
790,0.0,0.0,0.0,0.0,0.0,0.0,0.3561,0.7892,0.3721,0.7870,0.4644,-0.3396,-0.2227
791,0.0,0.0,0.0,0.0,0.0,0.0,0.3723,0.7745,0.3748,0.7882,0.4610,-0.3415,-0.2229
792,0.0,0.0,0.0,0.0,0.0,0.0,0.3691,0.7998,0.3887,0.7878,0.4578,-0.3460,-0.2237
793,0.0,0.0,0.0,0.0,0.0,0.0,0.3448,0.8610,0.4226,0.7869,0.4567,-0.3495,-0.2238
794,0.0,0.0,0.0,0.0,0.0,0.0,0.3553,0.8681,0.4184,0.7861,0.4561,-0.3513,-0.2249
795,0.0,0.0,0.0,0.0,0.0,0.0,0.3775,0.8580,0.3944,0.7852,0.4550,-0.3537,-0.2265
796,0.0,0.0,0.0,0.0,0.0,0.0,0.3587,0.8664,0.3972,0.7839,0.4543,-0.3563,-0.2284
797,0.0,0.0,0.0,0.0,0.0,0.0,0.3596,0.8459,0.3919,0.7829,0.4534,-0.3582,-0.2305
798,0.0,0.0,0.0,0.0,0.0,0.0,0.3659,0.8811,0.4091,0.7823,0.4527,-0.3599,-0.2316
799,0.0,0.0,0.0,0.0,0.0,0.0,0.3372,0.8884,0.4049,0.7831,0.4514,-0.3588,-0.2328
800,0.0,0.0,0.0,0.0,0.0,0.0,0.3116,0.8645,0.3906,0.7827,0.4517,-0.3584,-0.2341
801,0.0,0.0,0.0,0.0,0.0,0.0,0.3216,0.8341,0.3781,0.7826,0.4521,-0.3578,-0.2350
802,0.0,0.0,0.0,0.0,0.0,0.0,0.3193,0.8598,0.3943,0.7806,0.4553,-0.3589,-0.2335
803,0.0,0.0,0.0,0.0,0.0,0.0,0.3148,0.8722,0.3916,0.7795,0.4580,-0.3587,-0.2322
804,0.0,0.0,0.0,0.0,0.0,0.0,0.3078,0.8837,0.3860,0.7781,0.4613,-0.3586,-0.2306
805,0.0,0.0,0.0,0.0,0.0,0.0,0.3010,0.8694,0.3779,0.7771,0.4641,-0.3576,-0.2298
806,0.0,0.0,0.0,0.0,0.0,0.0,0.3179,0.8583,0.3698,0.7760,0.4660,-0.3577,-0.2295
807,0.0,0.0,0.0,0.0,0.0,0.0,0.3140,0.8793,0.3761,0.7747,0.4679,-0.3582,-0.2294
808,0.0,0.0,0.0,0.0,0.0,0.0,0.2997,0.8751,0.3620,0.7729,0.4701,-0.3588,-0.2300
809,0.0,0.0,0.0,0.0,0.0,0.0,0.3191,0.8860,0.3719,0.7702,0.4722,-0.3610,-0.2311
810,0.0,0.0,0.0,0.0,0.0,0.0,0.3255,0.9062,0.3834,0.7682,0.4740,-0.3619,-0.2328
811,0.0,0.0,0.0,0.0,0.0,0.0,0.3180,0.8813,0.3639,0.7670,0.4745,-0.3622,-0.2355
812,0.0,0.0,0.0,0.0,0.0,0.0,0.3391,0.8664,0.3690,0.7658,0.4745,-0.3630,-0.2380
813,0.0,0.0,0.0,0.0,0.0,0.0,0.3320,0.8737,0.3573,0.7646,0.4756,-0.3632,-0.2394
814,0.0,0.0,0.0,0.0,0.0,0.0,0.3388,0.8713,0.3676,0.7639,0.4765,-0.3626,-0.2406
815,0.0,0.0,0.0,0.0,0.0,0.0,0.3343,0.8489,0.3458,0.7632,0.4779,-0.3618,-0.2413
816,0.0,0.0,0.0,0.0,0.0,0.0,0.3316,0.8776,0.3554,0.7622,0.4797,-0.3617,-0.2409
817,0.0,0.0,0.0,0.0,0.0,0.0,0.3196,0.8839,0.3522,0.7623,0.4798,-0.3614,-0.2409
818,0.0,0.0,0.0,0.0,0.0,0.0,0.3056,0.8927,0.3480,0.7624,0.4802,-0.3607,-0.2411
819,0.0,0.0,0.0,0.0,0.0,0.0,0.3195,0.8805,0.3517,0.7615,0.4810,-0.3611,-0.2417
820,0.0,0.0,0.0,0.0,0.0,0.0,0.3219,0.8790,0.3474,0.7608,0.4816,-0.3615,-0.2419
821,0.0,0.0,0.0,0.0,0.0,0.0,0.3178,0.8894,0.3456,0.7598,0.4821,-0.3626,-0.2427
822,0.0,0.0,0.0,0.0,0.0,0.0,0.3157,0.8865,0.3484,0.7594,0.4820,-0.3628,-0.2437
823,0.0,0.0,0.0,0.0,0.0,0.0,0.3166,0.8817,0.3446,0.7586,0.4827,-0.3634,-0.2439
824,0.0,0.0,0.0,0.0,0.0,0.0,0.3154,0.8734,0.3436,0.7586,0.4823,-0.3633,-0.2449
825,0.0,0.0,0.0,0.0,0.0,0.0,0.3192,0.8713,0.3459,0.7582,0.4820,-0.3639,-0.2457
826,0.0,0.0,0.0,0.0,0.0,0.0,0.3270,0.8705,0.3502,0.7586,0.4813,-0.3635,-0.2464
827,0.0,0.0,0.0,0.0,0.0,0.0,0.3331,0.8577,0.3449,0.7586,0.4806,-0.3641,-0.2469
828,0.0,0.0,0.0,0.0,0.0,0.0,0.3407,0.8497,0.3444,0.7589,0.4785,-0.3652,-0.2484
829,0.0,0.0,0.0,0.0,0.0,0.0,0.3456,0.8349,0.3438,0.7586,0.4758,-0.3682,-0.2502
830,0.0,0.0,0.0,0.0,0.0,0.0,0.3419,0.8772,0.3653,0.7579,0.4732,-0.3716,-0.2521
831,0.0,0.0,0.0,0.0,0.0,0.0,0.3459,0.8606,0.3525,0.7577,0.4702,-0.3741,-0.2546
832,0.0,0.0,0.0,0.0,0.0,0.0,0.3538,0.8657,0.3591,0.7561,0.4693,-0.3779,-0.2557
833,0.0,0.0,0.0,0.0,0.0,0.0,0.3605,0.8766,0.3620,0.7555,0.4672,-0.3806,-0.2571
834,0.0,0.0,0.0,0.0,0.0,0.0,0.3623,0.8690,0.3469,0.7555,0.4632,-0.3834,-0.2599
835,0.0,0.0,0.0,0.0,0.0,0.0,0.3746,0.8716,0.3427,0.7550,0.4607,-0.3866,-0.2613
836,0.0,0.0,0.0,0.0,0.0,0.0,0.3750,0.8873,0.3409,0.7537,0.4601,-0.3901,-0.2608
837,0.0,0.0,0.0,0.0,0.0,0.0,0.3740,0.8859,0.3400,0.7529,0.4589,-0.3930,-0.2609
838,0.0,0.0,0.0,0.0,0.0,0.0,0.3754,0.8669,0.3323,0.7523,0.4580,-0.3958,-0.2602
839,0.0,0.0,0.0,0.0,0.0,0.0,0.3782,0.8793,0.3470,0.7518,0.4577,-0.3982,-0.2585
840,0.0,0.0,0.0,0.0,0.0,0.0,0.3848,0.8510,0.3293,0.7518,0.4573,-0.3999,-0.2565
841,0.0,0.0,0.0,0.0,0.0,0.0,0.3781,0.8561,0.3294,0.7513,0.4575,-0.4021,-0.2540
842,0.0,0.0,0.0,0.0,0.0,0.0,0.3828,0.8667,0.3281,0.7515,0.4563,-0.4039,-0.2528
843,0.0,0.0,0.0,0.0,0.0,0.0,0.3882,0.8665,0.3304,0.7522,0.4537,-0.4057,-0.2525
844,0.0,0.0,0.0,0.0,0.0,0.0,0.3960,0.8663,0.3295,0.7527,0.4518,-0.4074,-0.2517
845,0.0,0.0,0.0,0.0,0.0,0.0,0.4034,0.8675,0.3309,0.7529,0.4506,-0.4091,-0.2505
846,0.0,0.0,0.0,0.0,0.0,0.0,0.4073,0.8698,0.3314,0.7528,0.4494,-0.4112,-0.2494
847,0.0,0.0,0.0,0.0,0.0,0.0,0.4108,0.8716,0.3356,0.7528,0.4488,-0.4128,-0.2480
848,0.0,0.0,0.0,0.0,0.0,0.0,0.4115,0.8779,0.3357,0.7529,0.4480,-0.4139,-0.2473
849,0.0,0.0,0.0,0.0,0.0,0.0,0.4205,0.8835,0.3367,0.7530,0.4474,-0.4147,-0.2468
850,0.0,0.0,0.0,0.0,0.0,0.0,0.4251,0.8761,0.3333,0.7534,0.4464,-0.4152,-0.2466
851,0.0,0.0,0.0,0.0,0.0,0.0,0.4281,0.8755,0.3362,0.7532,0.4465,-0.4157,-0.2460
852,0.0,0.0,0.0,0.0,0.0,0.0,0.4373,0.8742,0.3366,0.7532,0.4469,-0.4156,-0.2454
853,0.0,0.0,0.0,0.0,0.0,0.0,0.4341,0.8646,0.3314,0.7536,0.4464,-0.4153,-0.2457
854,0.0,0.0,0.0,0.0,0.0,0.0,0.4305,0.8580,0.3275,0.7537,0.4468,-0.4147,-0.2456
855,0.0,0.0,0.0,0.0,0.0,0.0,0.4289,0.8536,0.3284,0.7538,0.4473,-0.4142,-0.2454
856,0.0,0.0,0.0,0.0,0.0,0.0,0.4264,0.8517,0.3284,0.7538,0.4479,-0.4136,-0.2452
857,0.0,0.0,0.0,0.0,0.0,0.0,0.4235,0.8523,0.3289,0.7536,0.4492,-0.4130,-0.2445
858,0.0,0.0,0.0,0.0,0.0,0.0,0.4234,0.8489,0.3279,0.7536,0.4494,-0.4126,-0.2446
859,0.0,0.0,0.0,0.0,0.0,0.0,0.4213,0.8441,0.3246,0.7537,0.4496,-0.4122,-0.2449
860,0.0,0.0,0.0,0.0,0.0,0.0,0.4179,0.8443,0.3199,0.7528,0.4511,-0.4124,-0.2444
861,0.0,0.0,0.0,0.0,0.0,0.0,0.4200,0.8500,0.3237,0.7520,0.4523,-0.4129,-0.2439
862,0.0,0.0,0.0,0.0,0.0,0.0,0.4181,0.8511,0.3223,0.7518,0.4531,-0.4127,-0.2434
863,0.0,0.0,0.0,0.0,0.0,0.0,0.4138,0.8557,0.3190,0.7517,0.4541,-0.4121,-0.2427
864,0.0,0.0,0.0,0.0,0.0,0.0,0.4145,0.8610,0.3196,0.7520,0.4538,-0.4116,-0.2430
865,0.0,0.0,0.0,0.0,0.0,0.0,0.4120,0.8601,0.3210,0.7526,0.4534,-0.4110,-0.2432
866,0.0,0.0,0.0,0.0,0.0,0.0,0.4150,0.8610,0.3196,0.7531,0.4534,-0.4101,-0.2432
867,0.0,0.0,0.0,0.0,0.0,0.0,0.4184,0.8629,0.3168,0.7535,0.4538,-0.4091,-0.2428
868,0.0,0.0,0.0,0.0,0.0,0.0,0.4204,0.8619,0.3163,0.7538,0.4549,-0.4080,-0.2418
869,0.0,0.0,0.0,0.0,0.0,0.0,0.4191,0.8686,0.3220,0.7541,0.4565,-0.4066,-0.2400
870,0.0,0.0,0.0,0.0,0.0,0.0,0.4095,0.8776,0.3300,0.7546,0.4582,-0.4047,-0.2383
871,0.0,0.0,0.0,0.0,0.0,0.0,0.4042,0.8802,0.3324,0.7560,0.4583,-0.4021,-0.2382
872,0.0,0.0,0.0,0.0,0.0,0.0,0.4055,0.8899,0.3334,0.7570,0.4585,-0.3999,-0.2383
873,0.0,0.0,0.0,0.0,0.0,0.0,0.4102,0.9022,0.3524,0.7594,0.4566,-0.3967,-0.2399
874,0.0,0.0,0.0,0.0,0.0,0.0,0.4100,0.8968,0.3528,0.7612,0.4564,-0.3929,-0.2406
875,0.0,0.0,0.0,0.0,0.0,0.0,0.4081,0.8797,0.3545,0.7619,0.4581,-0.3896,-0.2407
876,0.0,0.0,0.0,0.0,0.0,0.0,0.4077,0.8839,0.3696,0.7630,0.4591,-0.3858,-0.2414
877,0.0,0.0,0.0,0.0,0.0,0.0,0.4010,0.8912,0.3810,0.7643,0.4604,-0.3811,-0.2423
878,0.0,0.0,0.0,0.0,0.0,0.0,0.3959,0.8675,0.3808,0.7656,0.4619,-0.3761,-0.2430
879,0.0,0.0,0.0,0.0,0.0,0.0,0.3862,0.8517,0.3783,0.7668,0.4637,-0.3712,-0.2434
880,0.0,0.0,0.0,0.0,0.0,0.0,0.3741,0.8563,0.3845,0.7670,0.4673,-0.3665,-0.2429
881,0.0,0.0,0.0,0.0,0.0,0.0,0.3503,0.8470,0.3745,0.7682,0.4685,-0.3614,-0.2447
882,0.0,0.0,0.0,0.0,0.0,0.0,0.3142,0.8328,0.3475,0.7680,0.4689,-0.3584,-0.2485
883,0.0,0.0,0.0,0.0,0.0,0.0,0.3224,0.8459,0.3707,0.7664,0.4721,-0.3562,-0.2506
884,0.0,0.0,0.0,0.0,0.0,0.0,0.2904,0.8739,0.3582,0.7647,0.4766,-0.3534,-0.2515
885,0.0,0.0,0.0,0.0,0.0,0.0,0.2896,0.8796,0.3709,0.7639,0.4794,-0.3501,-0.2530
886,0.0,0.0,0.0,0.0,0.0,0.0,0.2975,0.8838,0.3710,0.7638,0.4818,-0.3462,-0.2542
887,0.0,0.0,0.0,0.0,0.0,0.0,0.2763,0.8952,0.3654,0.7636,0.4853,-0.3416,-0.2543
888,0.0,0.0,0.0,0.0,0.0,0.0,0.2549,0.9003,0.3650,0.7638,0.4882,-0.3370,-0.2545
889,0.0,0.0,0.0,0.0,0.0,0.0,0.2343,0.8999,0.3654,0.7646,0.4904,-0.3317,-0.2546
890,0.0,0.0,0.0,0.0,0.0,0.0,0.2059,0.8986,0.3508,0.7649,0.4938,-0.3270,-0.2534
891,0.0,0.0,0.0,0.0,0.0,0.0,0.1935,0.8917,0.3441,0.7653,0.4966,-0.3220,-0.2530
892,0.0,0.0,0.0,0.0,0.0,0.0,0.1883,0.8458,0.3221,0.7655,0.4988,-0.3176,-0.2536
893,0.0,0.0,0.0,0.0,0.0,0.0,0.1953,0.8689,0.3341,0.7638,0.5023,-0.3162,-0.2536
894,0.0,0.0,0.0,0.0,0.0,0.0,0.2046,0.8700,0.3383,0.7627,0.5056,-0.3144,-0.2527
895,0.0,0.0,0.0,0.0,0.0,0.0,0.1765,0.8982,0.3348,0.7607,0.5095,-0.3140,-0.2513
896,0.0,0.0,0.0,0.0,0.0,0.0,0.1721,0.9682,0.3716,0.7589,0.5141,-0.3128,-0.2489
897,0.0,0.0,0.0,0.0,0.0,0.0,0.1667,0.9685,0.3617,0.7583,0.5177,-0.3095,-0.2471
898,0.0,0.0,0.0,0.0,0.0,0.0,0.1677,0.9154,0.3471,0.7586,0.5206,-0.3055,-0.2455
899,0.0,0.0,0.0,0.0,0.0,0.0,0.1784,0.9117,0.3481,0.7583,0.5231,-0.3032,-0.2438
900,0.0,0.0,0.0,0.0,0.0,0.0,0.2024,0.8793,0.3384,0.7582,0.5239,-0.3024,-0.2433
901,0.0,0.0,0.0,0.0,0.0,0.0,0.2001,0.9349,0.3506,0.7566,0.5254,-0.3039,-0.2432
902,0.0,0.0,0.0,0.0,0.0,0.0,0.1941,0.9685,0.3678,0.7562,0.5257,-0.3034,-0.2445
903,0.0,0.0,0.0,0.0,0.0,0.0,0.1902,0.9507,0.3569,0.7559,0.5258,-0.3022,-0.2468
904,0.0,0.0,0.0,0.0,0.0,0.0,0.1893,0.8991,0.3494,0.7555,0.5250,-0.3022,-0.2496
905,0.0,0.0,0.0,0.0,0.0,0.0,0.1966,0.9157,0.3674,0.7548,0.5240,-0.3032,-0.2527
906,0.0,0.0,0.0,0.0,0.0,0.0,0.1820,0.9212,0.3580,0.7544,0.5218,-0.3042,-0.2571
907,0.0,0.0,0.0,0.0,0.0,0.0,0.1620,0.9241,0.3632,0.7539,0.5198,-0.3047,-0.2619
908,0.0,0.0,0.0,0.0,0.0,0.0,0.1516,0.9174,0.3429,0.7528,0.5193,-0.3048,-0.2660
909,0.0,0.0,0.0,0.0,0.0,0.0,0.1344,0.9337,0.3369,0.7511,0.5201,-0.3045,-0.2696
910,0.0,0.0,0.0,0.0,0.0,0.0,0.1395,0.9217,0.3429,0.7496,0.5199,-0.3046,-0.2739
911,0.0,0.0,0.0,0.0,0.0,0.0,0.1728,0.8893,0.3545,0.7496,0.5178,-0.3047,-0.2777
912,0.0,0.0,0.0,0.0,0.0,0.0,0.1700,0.8771,0.3558,0.7489,0.5164,-0.3065,-0.2803
913,0.0,0.0,0.0,0.0,0.0,0.0,0.1570,0.8677,0.3580,0.7494,0.5137,-0.3075,-0.2827
914,0.0,0.0,0.0,0.0,0.0,0.0,0.1665,0.8557,0.3561,0.7503,0.5102,-0.3094,-0.2846
915,0.0,0.0,0.0,0.0,0.0,0.0,0.1694,0.8737,0.3595,0.7507,0.5081,-0.3118,-0.2847
916,0.0,0.0,0.0,0.0,0.0,0.0,0.1553,0.8950,0.3639,0.7509,0.5067,-0.3142,-0.2838
917,0.0,0.0,0.0,0.0,0.0,0.0,0.1685,0.9116,0.3683,0.7510,0.5066,-0.3161,-0.2819
918,0.0,0.0,0.0,0.0,0.0,0.0,0.1785,0.8654,0.3402,0.7518,0.5051,-0.3180,-0.2803
919,0.0,0.0,0.0,0.0,0.0,0.0,0.1907,0.9160,0.3608,0.7519,0.5030,-0.3223,-0.2788
920,0.0,0.0,0.0,0.0,0.0,0.0,0.1974,0.9294,0.3609,0.7526,0.5012,-0.3248,-0.2771
921,0.0,0.0,0.0,0.0,0.0,0.0,0.2016,0.9206,0.3538,0.7535,0.4984,-0.3279,-0.2763
922,0.0,0.0,0.0,0.0,0.0,0.0,0.2060,0.9380,0.3601,0.7546,0.4948,-0.3305,-0.2766
923,0.0,0.0,0.0,0.0,0.0,0.0,0.2187,0.9366,0.3610,0.7554,0.4920,-0.3325,-0.2771
924,0.0,0.0,0.0,0.0,0.0,0.0,0.2283,0.9489,0.3710,0.7556,0.4897,-0.3350,-0.2776
925,0.0,0.0,0.0,0.0,0.0,0.0,0.2339,0.9399,0.3723,0.7561,0.4872,-0.3364,-0.2788
926,0.0,0.0,0.0,0.0,0.0,0.0,0.2429,0.9279,0.3694,0.7563,0.4847,-0.3382,-0.2805
927,0.0,0.0,0.0,0.0,0.0,0.0,0.2462,0.9225,0.3694,0.7561,0.4827,-0.3398,-0.2825
928,0.0,0.0,0.0,0.0,0.0,0.0,0.2480,0.9180,0.3707,0.7558,0.4802,-0.3417,-0.2852
929,0.0,0.0,0.0,0.0,0.0,0.0,0.2536,0.9061,0.3739,0.7558,0.4777,-0.3431,-0.2879
930,0.0,0.0,0.0,0.0,0.0,0.0,0.2509,0.8964,0.3696,0.7548,0.4769,-0.3446,-0.2901
931,0.0,0.0,0.0,0.0,0.0,0.0,0.2546,0.8919,0.3705,0.7535,0.4763,-0.3464,-0.2921
932,0.0,0.0,0.0,0.0,0.0,0.0,0.2512,0.8925,0.3687,0.7522,0.4756,-0.3482,-0.2944
933,0.0,0.0,0.0,0.0,0.0,0.0,0.2479,0.8975,0.3696,0.7511,0.4743,-0.3500,-0.2975
934,0.0,0.0,0.0,0.0,0.0,0.0,0.2505,0.9018,0.3716,0.7500,0.4729,-0.3517,-0.3003
935,0.0,0.0,0.0,0.0,0.0,0.0,0.2486,0.9033,0.3716,0.7486,0.4723,-0.3530,-0.3030
936,0.0,0.0,0.0,0.0,0.0,0.0,0.2501,0.9032,0.3749,0.7471,0.4724,-0.3544,-0.3051
937,0.0,0.0,0.0,0.0,0.0,0.0,0.2503,0.9129,0.3806,0.7457,0.4722,-0.3555,-0.3074
938,0.0,0.0,0.0,0.0,0.0,0.0,0.2601,0.8601,0.3632,0.7455,0.4700,-0.3558,-0.3110
939,0.0,0.0,0.0,0.0,0.0,0.0,0.2633,0.8504,0.3528,0.7443,0.4683,-0.3582,-0.3137
940,0.0,0.0,0.0,0.0,0.0,0.0,0.2687,0.8672,0.3642,0.7426,0.4674,-0.3612,-0.3157
941,0.0,0.0,0.0,0.0,0.0,0.0,0.2811,0.8741,0.3671,0.7407,0.4668,-0.3646,-0.3172
942,0.0,0.0,0.0,0.0,0.0,0.0,0.2902,0.8670,0.3652,0.7392,0.4657,-0.3678,-0.3185
943,0.0,0.0,0.0,0.0,0.0,0.0,0.3046,0.8569,0.3604,0.7383,0.4635,-0.3714,-0.3195
944,0.0,0.0,0.0,0.0,0.0,0.0,0.3117,0.8650,0.3591,0.7375,0.4616,-0.3751,-0.3199
945,0.0,0.0,0.0,0.0,0.0,0.0,0.3158,0.8716,0.3648,0.7366,0.4602,-0.3790,-0.3193
946,0.0,0.0,0.0,0.0,0.0,0.0,0.3286,0.8755,0.3686,0.7360,0.4592,-0.3827,-0.3180
947,0.0,0.0,0.0,0.0,0.0,0.0,0.3399,0.8597,0.3614,0.7359,0.4581,-0.3860,-0.3156
948,0.0,0.0,0.0,0.0,0.0,0.0,0.3498,0.8628,0.3619,0.7360,0.4571,-0.3897,-0.3122
949,0.0,0.0,0.0,0.0,0.0,0.0,0.3474,0.8799,0.3644,0.7366,0.4566,-0.3928,-0.3077
950,0.0,0.0,0.0,0.0,0.0,0.0,0.3405,0.9157,0.3708,0.7367,0.4583,-0.3955,-0.3013
951,0.0,0.0,0.0,0.0,0.0,0.0,0.3435,0.9370,0.3785,0.7378,0.4597,-0.3961,-0.2957
952,0.0,0.0,0.0,0.0,0.0,0.0,0.3437,0.9259,0.3695,0.7398,0.4600,-0.3952,-0.2914
953,0.0,0.0,0.0,0.0,0.0,0.0,0.3469,0.9157,0.3600,0.7413,0.4620,-0.3940,-0.2860
954,0.0,0.0,0.0,0.0,0.0,0.0,0.3468,0.9138,0.3529,0.7427,0.4646,-0.3926,-0.2801
955,0.0,0.0,0.0,0.0,0.0,0.0,0.3418,0.9068,0.3462,0.7453,0.4650,-0.3902,-0.2756
956,0.0,0.0,0.0,0.0,0.0,0.0,0.3322,0.8969,0.3363,0.7477,0.4658,-0.3879,-0.2711
957,0.0,0.0,0.0,0.0,0.0,0.0,0.3280,0.8849,0.3324,0.7495,0.4679,-0.3856,-0.2656
958,0.0,0.0,0.0,0.0,0.0,0.0,0.3208,0.8915,0.3292,0.7513,0.4700,-0.3833,-0.2602
959,0.0,0.0,0.0,0.0,0.0,0.0,0.3120,0.8924,0.3235,0.7528,0.4720,-0.3810,-0.2556
960,0.0,0.0,0.0,0.0,0.0,0.0,0.3067,0.8949,0.3259,0.7539,0.4740,-0.3793,-0.2512
961,0.0,0.0,0.0,0.0,0.0,0.0,0.2980,0.9002,0.3184,0.7548,0.4754,-0.3778,-0.2481
962,0.0,0.0,0.0,0.0,0.0,0.0,0.2877,0.9137,0.3166,0.7547,0.4776,-0.3770,-0.2454
963,0.0,0.0,0.0,0.0,0.0,0.0,0.2987,0.9240,0.3289,0.7549,0.4796,-0.3755,-0.2431
964,0.0,0.0,0.0,0.0,0.0,0.0,0.3017,0.9089,0.3161,0.7552,0.4810,-0.3741,-0.2416
965,0.0,0.0,0.0,0.0,0.0,0.0,0.2976,0.9008,0.3132,0.7551,0.4825,-0.3730,-0.2405
966,0.0,0.0,0.0,0.0,0.0,0.0,0.3039,0.8986,0.3132,0.7553,0.4831,-0.3722,-0.2401
967,0.0,0.0,0.0,0.0,0.0,0.0,0.3039,0.8987,0.3108,0.7549,0.4842,-0.3718,-0.2396
968,0.0,0.0,0.0,0.0,0.0,0.0,0.2984,0.9110,0.3147,0.7541,0.4861,-0.3715,-0.2389
969,0.0,0.0,0.0,0.0,0.0,0.0,0.3003,0.9109,0.3171,0.7536,0.4871,-0.3709,-0.2392
970,0.0,0.0,0.0,0.0,0.0,0.0,0.3028,0.9113,0.3180,0.7532,0.4876,-0.3707,-0.2400
971,0.0,0.0,0.0,0.0,0.0,0.0,0.3074,0.9009,0.3179,0.7529,0.4879,-0.3702,-0.2410
972,0.0,0.0,0.0,0.0,0.0,0.0,0.3130,0.8914,0.3183,0.7525,0.4880,-0.3702,-0.2420
973,0.0,0.0,0.0,0.0,0.0,0.0,0.3150,0.8947,0.3226,0.7518,0.4886,-0.3704,-0.2426
974,0.0,0.0,0.0,0.0,0.0,0.0,0.3178,0.8907,0.3244,0.7513,0.4887,-0.3707,-0.2435
975,0.0,0.0,0.0,0.0,0.0,0.0,0.3203,0.8897,0.3254,0.7516,0.4876,-0.3708,-0.2447
976,0.0,0.0,0.0,0.0,0.0,0.0,0.3209,0.8935,0.3282,0.7513,0.4876,-0.3711,-0.2452
977,0.0,0.0,0.0,0.0,0.0,0.0,0.3208,0.8920,0.3301,0.7516,0.4865,-0.3712,-0.2463
978,0.0,0.0,0.0,0.0,0.0,0.0,0.3203,0.8925,0.3325,0.7520,0.4848,-0.3715,-0.2478
979,0.0,0.0,0.0,0.0,0.0,0.0,0.3168,0.8887,0.3320,0.7521,0.4841,-0.3716,-0.2488
980,0.0,0.0,0.0,0.0,0.0,0.0,0.3179,0.8925,0.3343,0.7519,0.4837,-0.3719,-0.2497
981,0.0,0.0,0.0,0.0,0.0,0.0,0.3193,0.8924,0.3381,0.7521,0.4830,-0.3718,-0.2506
982,0.0,0.0,0.0,0.0,0.0,0.0,0.3202,0.8866,0.3357,0.7523,0.4825,-0.3717,-0.2513
983,0.0,0.0,0.0,0.0,0.0,0.0,0.3177,0.8871,0.3404,0.7526,0.4816,-0.3716,-0.2522
984,0.0,0.0,0.0,0.0,0.0,0.0,0.3144,0.8906,0.3390,0.7529,0.4809,-0.3713,-0.2531
985,0.0,0.0,0.0,0.0,0.0,0.0,0.3138,0.8862,0.3399,0.7529,0.4803,-0.3714,-0.2539
986,0.0,0.0,0.0,0.0,0.0,0.0,0.3128,0.8857,0.3413,0.7533,0.4794,-0.3713,-0.2547
987,0.0,0.0,0.0,0.0,0.0,0.0,0.3095,0.8892,0.3433,0.7532,0.4795,-0.3713,-0.2549
988,0.0,0.0,0.0,0.0,0.0,0.0,0.3069,0.8864,0.3432,0.7532,0.4793,-0.3712,-0.2554
989,0.0,0.0,0.0,0.0,0.0,0.0,0.3035,0.8855,0.3442,0.7531,0.4792,-0.3713,-0.2555
990,0.0,0.0,0.0,0.0,0.0,0.0,0.3012,0.8938,0.3503,0.7533,0.4793,-0.3712,-0.2551
991,0.0,0.0,0.0,0.0,0.0,0.0,0.2984,0.8977,0.3537,0.7539,0.4788,-0.3706,-0.2549
992,0.0,0.0,0.0,0.0,0.0,0.0,0.2931,0.9012,0.3575,0.7547,0.4782,-0.3698,-0.2550
993,0.0,0.0,0.0,0.0,0.0,0.0,0.2821,0.9093,0.3585,0.7555,0.4773,-0.3688,-0.2557
994,0.0,0.0,0.0,0.0,0.0,0.0,0.2768,0.9134,0.3608,0.7561,0.4769,-0.3677,-0.2562
995,0.0,0.0,0.0,0.0,0.0,0.0,0.2800,0.9065,0.3575,0.7567,0.4771,-0.3662,-0.2563
996,0.0,0.0,0.0,0.0,0.0,0.0,0.2842,0.8792,0.3455,0.7580,0.4763,-0.3641,-0.2570
997,0.0,0.0,0.0,0.0,0.0,0.0,0.2876,0.8597,0.3345,0.7594,0.4745,-0.3627,-0.2582
998,0.0,0.0,0.0,0.0,0.0,0.0,0.2934,0.8586,0.3322,0.7598,0.4736,-0.3625,-0.2587
999,0.0,0.0,0.0,0.0,0.0,0.0,0.3066,0.8572,0.3345,0.7595,0.4732,-0.3636,-0.2587
1000,0.0,0.0,0.0,0.0,0.0,0.0,0.3156,0.8642,0.3393,0.7595,0.4722,-0.3648,-0.2591
1001,0.0,0.0,0.0,0.0,0.0,0.0,0.3280,0.8710,0.3464,0.7587,0.4696,-0.3682,-0.2612
1002,0.0,0.0,0.0,0.0,0.0,0.0,0.3463,0.8762,0.3545,0.7585,0.4683,-0.3700,-0.2616
1003,0.0,0.0,0.0,0.0,0.0,0.0,0.3633,0.8737,0.3596,0.7582,0.4676,-0.3718,-0.2614
1004,0.0,0.0,0.0,0.0,0.0,0.0,0.3746,0.8753,0.3601,0.7581,0.4662,-0.3733,-0.2617
1005,0.0,0.0,0.0,0.0,0.0,0.0,0.3773,0.8811,0.3588,0.7579,0.4651,-0.3751,-0.2618
1006,0.0,0.0,0.0,0.0,0.0,0.0,0.3819,0.8901,0.3668,0.7580,0.4637,-0.3765,-0.2622
1007,0.0,0.0,0.0,0.0,0.0,0.0,0.3833,0.8891,0.3678,0.7585,0.4623,-0.3771,-0.2624
1008,0.0,0.0,0.0,0.0,0.0,0.0,0.3770,0.8908,0.3621,0.7587,0.4619,-0.3774,-0.2619
1009,0.0,0.0,0.0,0.0,0.0,0.0,0.3697,0.8901,0.3598,0.7589,0.4619,-0.3772,-0.2615
1010,0.0,0.0,0.0,0.0,0.0,0.0,0.3576,0.8764,0.3507,0.7596,0.4613,-0.3766,-0.2615
1011,0.0,0.0,0.0,0.0,0.0,0.0,0.3529,0.8673,0.3483,0.7600,0.4615,-0.3761,-0.2608
1012,0.0,0.0,0.0,0.0,0.0,0.0,0.3495,0.8680,0.3450,0.7603,0.4617,-0.3756,-0.2601
1013,0.0,0.0,0.0,0.0,0.0,0.0,0.3498,0.8780,0.3564,0.7605,0.4621,-0.3756,-0.2591
1014,0.0,0.0,0.0,0.0,0.0,0.0,0.3433,0.8753,0.3559,0.7609,0.4626,-0.3750,-0.2577
1015,0.0,0.0,0.0,0.0,0.0,0.0,0.3399,0.8773,0.3597,0.7616,0.4620,-0.3748,-0.2570
1016,0.0,0.0,0.0,0.0,0.0,0.0,0.3394,0.8767,0.3648,0.7629,0.4608,-0.3740,-0.2566
1017,0.0,0.0,0.0,0.0,0.0,0.0,0.3368,0.8710,0.3643,0.7635,0.4609,-0.3734,-0.2554
1018,0.0,0.0,0.0,0.0,0.0,0.0,0.3348,0.8676,0.3643,0.7641,0.4611,-0.3726,-0.2544
1019,0.0,0.0,0.0,0.0,0.0,0.0,0.3328,0.8672,0.3662,0.7645,0.4613,-0.3721,-0.2535
1020,0.0,0.0,0.0,0.0,0.0,0.0,0.3299,0.8691,0.3704,0.7651,0.4609,-0.3715,-0.2532
1021,0.0,0.0,0.0,0.0,0.0,0.0,0.3251,0.8713,0.3690,0.7656,0.4607,-0.3710,-0.2530
1022,0.0,0.0,0.0,0.0,0.0,0.0,0.3237,0.8762,0.3690,0.7658,0.4610,-0.3703,-0.2528
1023,0.0,0.0,0.0,0.0,0.0,0.0,0.3193,0.8763,0.3676,0.7658,0.4616,-0.3697,-0.2526
1024,0.0,0.0,0.0,0.0,0.0,0.0,0.3203,0.8753,0.3681,0.7656,0.4630,-0.3689,-0.2519
1025,0.0,0.0,0.0,0.0,0.0,0.0,0.3189,0.8798,0.3677,0.7651,0.4650,-0.3679,-0.2511
1026,0.0,0.0,0.0,0.0,0.0,0.0,0.3171,0.8842,0.3663,0.7644,0.4671,-0.3671,-0.2504
1027,0.0,0.0,0.0,0.0,0.0,0.0,0.3152,0.8843,0.3649,0.7643,0.4679,-0.3663,-0.2504
1028,0.0,0.0,0.0,0.0,0.0,0.0,0.3110,0.8762,0.3582,0.7643,0.4687,-0.3655,-0.2501
1029,0.0,0.0,0.0,0.0,0.0,0.0,0.3087,0.8816,0.3606,0.7637,0.4705,-0.3650,-0.2493
1030,0.0,0.0,0.0,0.0,0.0,0.0,0.3098,0.8846,0.3597,0.7636,0.4715,-0.3643,-0.2488
1031,0.0,0.0,0.0,0.0,0.0,0.0,0.3117,0.8830,0.3592,0.7635,0.4725,-0.3636,-0.2483
1032,0.0,0.0,0.0,0.0,0.0,0.0,0.3101,0.8768,0.3577,0.7637,0.4726,-0.3630,-0.2485
1033,0.0,0.0,0.0,0.0,0.0,0.0,0.3118,0.8699,0.3539,0.7638,0.4728,-0.3625,-0.2484
1034,0.0,0.0,0.0,0.0,0.0,0.0,0.3167,0.8688,0.3534,0.7638,0.4730,-0.3624,-0.2480
1035,0.0,0.0,0.0,0.0,0.0,0.0,0.3195,0.8629,0.3506,0.7641,0.4725,-0.3626,-0.2480
1036,0.0,0.0,0.0,0.0,0.0,0.0,0.3265,0.8675,0.3549,0.7637,0.4732,-0.3631,-0.2470
1037,0.0,0.0,0.0,0.0,0.0,0.0,0.3286,0.8743,0.3573,0.7636,0.4733,-0.3637,-0.2461
1038,0.0,0.0,0.0,0.0,0.0,0.0,0.3317,0.8810,0.3583,0.7640,0.4723,-0.3643,-0.2461
1039,0.0,0.0,0.0,0.0,0.0,0.0,0.3353,0.8862,0.3597,0.7639,0.4721,-0.3647,-0.2461
1040,0.0,0.0,0.0,0.0,0.0,0.0,0.3399,0.8740,0.3540,0.7644,0.4713,-0.3646,-0.2461
