,Position_X,Position_Y,Position_Z,Velocity_X,Velocity_Y,Velocity_Z,Acceleration_X,Acceleration_Y,Acceleration_Z,Quaterion_0,Quaterion_1,Quaterion_2,Quaterion_3
51,0.0,0.0,0.0,0.0,0.0,0.0,0.0290,-0.9675,0.1099,0.7343,-0.6092,-0.2322,0.1891
52,0.0,0.0,0.0,0.0,0.0,0.0,0.0305,-0.9622,0.1110,0.7351,-0.6087,-0.2307,0.1897
53,0.0,0.0,0.0,0.0,0.0,0.0,0.0348,-0.9617,0.1133,0.7356,-0.6082,-0.2295,0.1905
54,0.0,0.0,0.0,0.0,0.0,0.0,0.0396,-0.9622,0.1156,0.7361,-0.6077,-0.2285,0.1912
55,0.0,0.0,0.0,0.0,0.0,0.0,0.0435,-0.9632,0.1175,0.7365,-0.6072,-0.2278,0.1921
56,0.0,0.0,0.0,0.0,0.0,0.0,0.0450,-0.9612,0.1141,0.7368,-0.6069,-0.2272,0.1927
57,0.0,0.0,0.0,0.0,0.0,0.0,0.0451,-0.9244,0.0902,0.7365,-0.6071,-0.2273,0.1932
58,0.0,0.0,0.0,0.0,0.0,0.0,0.0531,-0.9588,0.0990,0.7360,-0.6075,-0.2278,0.1936
59,0.0,0.0,0.0,0.0,0.0,0.0,0.0589,-0.9768,0.1038,0.7356,-0.6076,-0.2283,0.1936
60,0.0,0.0,0.0,0.0,0.0,0.0,0.0502,-0.9792,0.0977,0.7352,-0.6081,-0.2287,0.1935
61,0.0,0.0,0.0,0.0,0.0,0.0,0.0520,-1.0059,0.1034,0.7349,-0.6084,-0.2289,0.1932
62,0.0,0.0,0.0,0.0,0.0,0.0,0.0467,-1.0010,0.0993,0.7348,-0.6087,-0.2288,0.1930
63,0.0,0.0,0.0,0.0,0.0,0.0,0.0366,-0.9952,0.0957,0.7347,-0.6089,-0.2285,0.1929
64,0.0,0.0,0.0,0.0,0.0,0.0,0.0287,-0.9918,0.0984,0.7348,-0.6090,-0.2281,0.1929
65,0.0,0.0,0.0,0.0,0.0,0.0,0.0272,-0.9884,0.1013,0.7350,-0.6088,-0.2276,0.1931
66,0.0,0.0,0.0,0.0,0.0,0.0,0.0330,-0.9826,0.1042,0.7352,-0.6085,-0.2274,0.1937
67,0.0,0.0,0.0,0.0,0.0,0.0,0.0423,-0.9758,0.1052,0.7355,-0.6079,-0.2276,0.1942
68,0.0,0.0,0.0,0.0,0.0,0.0,0.0530,-0.9690,0.1056,0.7357,-0.6072,-0.2282,0.1950
69,0.0,0.0,0.0,0.0,0.0,0.0,0.0608,-0.9656,0.1040,0.7358,-0.6065,-0.2291,0.1958
70,0.0,0.0,0.0,0.0,0.0,0.0,0.0682,-0.9612,0.1015,0.7357,-0.6058,-0.2304,0.1964
71,0.0,0.0,0.0,0.0,0.0,0.0,0.0721,-0.9608,0.1005,0.7356,-0.6053,-0.2318,0.1970
72,0.0,0.0,0.0,0.0,0.0,0.0,0.0779,-0.9700,0.1017,0.7353,-0.6049,-0.2332,0.1975
73,0.0,0.0,0.0,0.0,0.0,0.0,0.0817,-0.9797,0.1053,0.7350,-0.6045,-0.2346,0.1980
74,0.0,0.0,0.0,0.0,0.0,0.0,0.0807,-0.9874,0.1071,0.7349,-0.6042,-0.2356,0.1984
75,0.0,0.0,0.0,0.0,0.0,0.0,0.0792,-0.9904,0.1070,0.7348,-0.6039,-0.2363,0.1987
76,0.0,0.0,0.0,0.0,0.0,0.0,0.0758,-0.9899,0.1076,0.7349,-0.6036,-0.2367,0.1990
77,0.0,0.0,0.0,0.0,0.0,0.0,0.0733,-0.9904,0.1096,0.7352,-0.6031,-0.2368,0.1990
78,0.0,0.0,0.0,0.0,0.0,0.0,0.0699,-0.9884,0.1126,0.7356,-0.6026,-0.2368,0.1991
79,0.0,0.0,0.0,0.0,0.0,0.0,0.0659,-0.9811,0.1152,0.7362,-0.6020,-0.2366,0.1990
80,0.0,0.0,0.0,0.0,0.0,0.0,0.0683,-0.9744,0.1182,0.7369,-0.6012,-0.2365,0.1989
81,0.0,0.0,0.0,0.0,0.0,0.0,0.0668,-0.9695,0.1207,0.7376,-0.6005,-0.2363,0.1987
82,0.0,0.0,0.0,0.0,0.0,0.0,0.0634,-0.9671,0.1218,0.7382,-0.5999,-0.2361,0.1985
83,0.0,0.0,0.0,0.0,0.0,0.0,0.0634,-0.9613,0.1219,0.7387,-0.5994,-0.2359,0.1984
84,0.0,0.0,0.0,0.0,0.0,0.0,0.0629,-0.9598,0.1220,0.7391,-0.5990,-0.2358,0.1983
85,0.0,0.0,0.0,0.0,0.0,0.0,0.0629,-0.9593,0.1220,0.7393,-0.5987,-0.2357,0.1983
86,0.0,0.0,0.0,0.0,0.0,0.0,0.0619,-0.9598,0.1220,0.7395,-0.5986,-0.2357,0.1982
87,0.0,0.0,0.0,0.0,0.0,0.0,0.0615,-0.9656,0.1214,0.7396,-0.5985,-0.2358,0.1982
88,0.0,0.0,0.0,0.0,0.0,0.0,0.0629,-0.9690,0.1218,0.7396,-0.5985,-0.2358,0.1982
89,0.0,0.0,0.0,0.0,0.0,0.0,0.0624,-0.9719,0.1198,0.7395,-0.5985,-0.2358,0.1982
90,0.0,0.0,0.0,0.0,0.0,0.0,0.0589,-0.9486,0.1049,0.7392,-0.5988,-0.2359,0.1983
91,0.0,0.0,0.0,0.0,0.0,0.0,0.0630,-0.9457,0.0942,0.7384,-0.5995,-0.2366,0.1985
92,0.0,0.0,0.0,0.0,0.0,0.0,0.0763,-0.9918,0.1090,0.7379,-0.5999,-0.2372,0.1986
93,0.0,0.0,0.0,0.0,0.0,0.0,0.0702,-0.9738,0.0969,0.7372,-0.6004,-0.2379,0.1984
94,0.0,0.0,0.0,0.0,0.0,0.0,0.0652,-1.0015,0.1027,0.7367,-0.6010,-0.2383,0.1982
95,0.0,0.0,0.0,0.0,0.0,0.0,0.0622,-1.0107,0.1050,0.7364,-0.6014,-0.2383,0.1983
96,0.0,0.0,0.0,0.0,0.0,0.0,0.0544,-1.0005,0.1054,0.7364,-0.6016,-0.2379,0.1982
97,0.0,0.0,0.0,0.0,0.0,0.0,0.0505,-0.9942,0.1075,0.7366,-0.6016,-0.2373,0.1982
98,0.0,0.0,0.0,0.0,0.0,0.0,0.0480,-0.9865,0.1101,0.7369,-0.6014,-0.2366,0.1983
99,0.0,0.0,0.0,0.0,0.0,0.0,0.0499,-0.9763,0.1122,0.7373,-0.6010,-0.2361,0.1986
100,0.0,0.0,0.0,0.0,0.0,0.0,0.0573,-0.9666,0.1118,0.7376,-0.6006,-0.2358,0.1989
101,0.0,0.0,0.0,0.0,0.0,0.0,0.0656,-0.9540,0.1109,0.7378,-0.6002,-0.2360,0.1992
102,0.0,0.0,0.0,0.0,0.0,0.0,0.0666,-0.9530,0.1109,0.7378,-0.6000,-0.2363,0.1995
103,0.0,0.0,0.0,0.0,0.0,0.0,0.0685,-0.9574,0.1122,0.7378,-0.5999,-0.2367,0.1994
104,0.0,0.0,0.0,0.0,0.0,0.0,0.0699,-0.9666,0.1149,0.7376,-0.6000,-0.2370,0.1994
105,0.0,0.0,0.0,0.0,0.0,0.0,0.0688,-0.9763,0.1172,0.7375,-0.6001,-0.2372,0.1992
106,0.0,0.0,0.0,0.0,0.0,0.0,0.0644,-0.9807,0.1181,0.7375,-0.6003,-0.2372,0.1990
107,0.0,0.0,0.0,0.0,0.0,0.0,0.0625,-0.9821,0.1186,0.7375,-0.6004,-0.2370,0.1988
108,0.0,0.0,0.0,0.0,0.0,0.0,0.0595,-0.9792,0.1183,0.7376,-0.6004,-0.2367,0.1986
109,0.0,0.0,0.0,0.0,0.0,0.0,0.0567,-0.9743,0.1165,0.7377,-0.6005,-0.2364,0.1983
110,0.0,0.0,0.0,0.0,0.0,0.0,0.0557,-0.9719,0.1170,0.7378,-0.6005,-0.2361,0.1981
111,0.0,0.0,0.0,0.0,0.0,0.0,0.0557,-0.9695,0.1176,0.7379,-0.6006,-0.2357,0.1980
112,0.0,0.0,0.0,0.0,0.0,0.0,0.0557,-0.9690,0.1181,0.7380,-0.6006,-0.2354,0.1979
113,0.0,0.0,0.0,0.0,0.0,0.0,0.0576,-0.9700,0.1185,0.7380,-0.6008,-0.2351,0.1978
114,0.0,0.0,0.0,0.0,0.0,0.0,0.0503,-0.9676,0.1163,0.7379,-0.6011,-0.2348,0.1975
115,0.0,0.0,0.0,0.0,0.0,0.0,0.0528,-0.9685,0.1157,0.7377,-0.6014,-0.2348,0.1974
116,0.0,0.0,0.0,0.0,0.0,0.0,0.0504,-0.9724,0.1147,0.7376,-0.6017,-0.2347,0.1972
117,0.0,0.0,0.0,0.0,0.0,0.0,0.0484,-0.9753,0.1133,0.7373,-0.6020,-0.2346,0.1972
118,0.0,0.0,0.0,0.0,0.0,0.0,0.0465,-0.9763,0.1109,0.7371,-0.6024,-0.2345,0.1971
119,0.0,0.0,0.0,0.0,0.0,0.0,0.0446,-0.9777,0.1075,0.7367,-0.6029,-0.2344,0.1971
120,0.0,0.0,0.0,0.0,0.0,0.0,0.0427,-0.9821,0.1065,0.7364,-0.6033,-0.2343,0.1972
121,0.0,0.0,0.0,0.0,0.0,0.0,0.0437,-0.9860,0.1069,0.7360,-0.6037,-0.2342,0.1975
122,0.0,0.0,0.0,0.0,0.0,0.0,0.0452,-0.9826,0.1030,0.7357,-0.6039,-0.2342,0.1978
123,0.0,0.0,0.0,0.0,0.0,0.0,0.0503,-0.9156,0.0714,0.7348,-0.6046,-0.2351,0.1982
124,0.0,0.0,0.0,0.0,0.0,0.0,0.0595,-0.9889,0.0930,0.7337,-0.6054,-0.2361,0.1986
125,0.0,0.0,0.0,0.0,0.0,0.0,0.0703,-0.9806,0.0895,0.7330,-0.6058,-0.2372,0.1986
126,0.0,0.0,0.0,0.0,0.0,0.0,0.0622,-0.9743,0.0811,0.7321,-0.6065,-0.2381,0.1987
127,0.0,0.0,0.0,0.0,0.0,0.0,0.0586,-1.0020,0.0884,0.7314,-0.6071,-0.2387,0.1988
128,0.0,0.0,0.0,0.0,0.0,0.0,0.0537,-0.9976,0.0886,0.7309,-0.6076,-0.2389,0.1989
129,0.0,0.0,0.0,0.0,0.0,0.0,0.0484,-0.9932,0.0873,0.7305,-0.6080,-0.2389,0.1991
130,0.0,0.0,0.0,0.0,0.0,0.0,0.0499,-0.9908,0.0878,0.7303,-0.6083,-0.2388,0.1992
131,0.0,0.0,0.0,0.0,0.0,0.0,0.0563,-0.9830,0.0864,0.7302,-0.6083,-0.2389,0.1993
132,0.0,0.0,0.0,0.0,0.0,0.0,0.0568,-0.9724,0.0832,0.7300,-0.6083,-0.2392,0.1995
133,0.0,0.0,0.0,0.0,0.0,0.0,0.0549,-0.9743,0.0808,0.7298,-0.6085,-0.2393,0.1995
134,0.0,0.0,0.0,0.0,0.0,0.0,0.0545,-0.9694,0.0775,0.7295,-0.6088,-0.2395,0.1996
135,0.0,0.0,0.0,0.0,0.0,0.0,0.0535,-0.9714,0.0770,0.7290,-0.6093,-0.2396,0.1998
136,0.0,0.0,0.0,0.0,0.0,0.0,0.0490,-0.9830,0.0812,0.7286,-0.6097,-0.2395,0.2001
137,0.0,0.0,0.0,0.0,0.0,0.0,0.0465,-0.9918,0.0854,0.7283,-0.6101,-0.2392,0.2004
138,0.0,0.0,0.0,0.0,0.0,0.0,0.0411,-0.9918,0.0865,0.7281,-0.6104,-0.2387,0.2009
139,0.0,0.0,0.0,0.0,0.0,0.0,0.0376,-0.9918,0.0900,0.7279,-0.6106,-0.2380,0.2016
140,0.0,0.0,0.0,0.0,0.0,0.0,0.0366,-0.9879,0.0939,0.7280,-0.6105,-0.2374,0.2024
141,0.0,0.0,0.0,0.0,0.0,0.0,0.0381,-0.9777,0.0955,0.7281,-0.6102,-0.2369,0.2034
142,0.0,0.0,0.0,0.0,0.0,0.0,0.0405,-0.9685,0.0966,0.7282,-0.6098,-0.2368,0.2044
143,0.0,0.0,0.0,0.0,0.0,0.0,0.0414,-0.9646,0.0986,0.7283,-0.6094,-0.2369,0.2054
144,0.0,0.0,0.0,0.0,0.0,0.0,0.0458,-0.9651,0.1010,0.7282,-0.6089,-0.2371,0.2065
145,0.0,0.0,0.0,0.0,0.0,0.0,0.0443,-0.9651,0.1019,0.7281,-0.6086,-0.2374,0.2077
146,0.0,0.0,0.0,0.0,0.0,0.0,0.0419,-0.9564,0.0988,0.7279,-0.6083,-0.2377,0.2089
147,0.0,0.0,0.0,0.0,0.0,0.0,0.0444,-0.9554,0.0968,0.7273,-0.6083,-0.2383,0.2103
148,0.0,0.0,0.0,0.0,0.0,0.0,0.0473,-0.9617,0.0971,0.7267,-0.6082,-0.2390,0.2117
149,0.0,0.0,0.0,0.0,0.0,0.0,0.0478,-0.9675,0.0970,0.7260,-0.6082,-0.2400,0.2131
150,0.0,0.0,0.0,0.0,0.0,0.0,0.0473,-0.9714,0.0945,0.7253,-0.6082,-0.2410,0.2145
151,0.0,0.0,0.0,0.0,0.0,0.0,0.0523,-0.9733,0.0905,0.7244,-0.6083,-0.2423,0.2158
152,0.0,0.0,0.0,0.0,0.0,0.0,0.0499,-0.9801,0.0871,0.7234,-0.6085,-0.2435,0.2171
153,0.0,0.0,0.0,0.0,0.0,0.0,0.0488,-0.9971,0.0906,0.7225,-0.6086,-0.2446,0.2184
154,0.0,0.0,0.0,0.0,0.0,0.0,0.0491,-1.0204,0.0998,0.7221,-0.6084,-0.2455,0.2197
155,0.0,0.0,0.0,0.0,0.0,0.0,0.0467,-1.0189,0.0999,0.7219,-0.6078,-0.2461,0.2209
156,0.0,0.0,0.0,0.0,0.0,0.0,0.0482,-1.0039,0.0968,0.7221,-0.6069,-0.2468,0.2222
157,0.0,0.0,0.0,0.0,0.0,0.0,0.0501,-1.0083,0.1010,0.7224,-0.6059,-0.2473,0.2234
158,0.0,0.0,0.0,0.0,0.0,0.0,0.0504,-1.0228,0.1094,0.7231,-0.6045,-0.2476,0.2246
159,0.0,0.0,0.0,0.0,0.0,0.0,0.0506,-1.0054,0.1010,0.7240,-0.6027,-0.2481,0.2258
160,0.0,0.0,0.0,0.0,0.0,0.0,0.0539,-0.9636,0.0854,0.7247,-0.6011,-0.2491,0.2269
161,0.0,0.0,0.0,0.0,0.0,0.0,0.0573,-0.9893,0.0829,0.7251,-0.5997,-0.2502,0.2280
162,0.0,0.0,0.0,0.0,0.0,0.0,0.0565,-0.9874,0.0737,0.7256,-0.5983,-0.2515,0.2288
163,0.0,0.0,0.0,0.0,0.0,0.0,0.0576,-0.9796,0.0686,0.7258,-0.5971,-0.2529,0.2296
164,0.0,0.0,0.0,0.0,0.0,0.0,0.0575,-0.9854,0.0699,0.7262,-0.5958,-0.2543,0.2302
165,0.0,0.0,0.0,0.0,0.0,0.0,0.0594,-0.9787,0.0734,0.7267,-0.5945,-0.2558,0.2304
166,0.0,0.0,0.0,0.0,0.0,0.0,0.0550,-0.9821,0.0763,0.7272,-0.5933,-0.2572,0.2303
167,0.0,0.0,0.0,0.0,0.0,0.0,0.0588,-0.9859,0.0819,0.7278,-0.5921,-0.2586,0.2298
168,0.0,0.0,0.0,0.0,0.0,0.0,0.0583,-0.9699,0.0808,0.7284,-0.5912,-0.2598,0.2291
169,0.0,0.0,0.0,0.0,0.0,0.0,0.0546,-0.9408,0.0761,0.7287,-0.5907,-0.2608,0.2282
170,0.0,0.0,0.0,0.0,0.0,0.0,0.0473,-0.9297,0.0780,0.7288,-0.5906,-0.2615,0.2273
171,0.0,0.0,0.0,0.0,0.0,0.0,0.0405,-0.9166,0.0774,0.7286,-0.5909,-0.2622,0.2264
172,0.0,0.0,0.0,0.0,0.0,0.0,0.0410,-0.9078,0.0766,0.7279,-0.5916,-0.2632,0.2256
173,0.0,0.0,0.0,0.0,0.0,0.0,0.0511,-0.9127,0.0797,0.7268,-0.5926,-0.2645,0.2248
174,0.0,0.0,0.0,0.0,0.0,0.0,0.0604,-0.9253,0.0807,0.7254,-0.5938,-0.2663,0.2240
175,0.0,0.0,0.0,0.0,0.0,0.0,0.0692,-0.9341,0.0789,0.7238,-0.5953,-0.2684,0.2229
176,0.0,0.0,0.0,0.0,0.0,0.0,0.0764,-0.9486,0.0794,0.7218,-0.5971,-0.2706,0.2218
177,0.0,0.0,0.0,0.0,0.0,0.0,0.0823,-0.9598,0.0786,0.7198,-0.5991,-0.2726,0.2206
178,0.0,0.0,0.0,0.0,0.0,0.0,0.0867,-0.9700,0.0754,0.7177,-0.6013,-0.2746,0.2191
179,0.0,0.0,0.0,0.0,0.0,0.0,0.0830,-0.9738,0.0662,0.7154,-0.6039,-0.2762,0.2174
180,0.0,0.0,0.0,0.0,0.0,0.0,0.0817,-0.9830,0.0564,0.7132,-0.6066,-0.2775,0.2155
181,0.0,0.0,0.0,0.0,0.0,0.0,0.0785,-1.0034,0.0435,0.7109,-0.6094,-0.2787,0.2134
182,0.0,0.0,0.0,0.0,0.0,0.0,0.0782,-1.0126,0.0332,0.7090,-0.6118,-0.2800,0.2111
183,0.0,0.0,0.0,0.0,0.0,0.0,0.0756,-0.9975,0.0196,0.7075,-0.6138,-0.2814,0.2086
184,0.0,0.0,0.0,0.0,0.0,0.0,0.0685,-0.9863,0.0064,0.7059,-0.6158,-0.2829,0.2061
185,0.0,0.0,0.0,0.0,0.0,0.0,0.0712,-0.9728,-0.0040,0.7041,-0.6181,-0.2842,0.2036
186,0.0,0.0,0.0,0.0,0.0,0.0,0.0715,-0.9504,-0.0161,0.7020,-0.6206,-0.2855,0.2014
187,0.0,0.0,0.0,0.0,0.0,0.0,0.0737,-0.9436,-0.0301,0.6994,-0.6233,-0.2873,0.1995
188,0.0,0.0,0.0,0.0,0.0,0.0,0.0835,-0.9509,-0.0357,0.6965,-0.6262,-0.2892,0.1979
189,0.0,0.0,0.0,0.0,0.0,0.0,0.0898,-0.9718,-0.0343,0.6934,-0.6292,-0.2911,0.1964
190,0.0,0.0,0.0,0.0,0.0,0.0,0.0976,-0.9863,-0.0357,0.6903,-0.6323,-0.2927,0.1950
191,0.0,0.0,0.0,0.0,0.0,0.0,0.1106,-1.0217,-0.0309,0.6876,-0.6349,-0.2943,0.1937
192,0.0,0.0,0.0,0.0,0.0,0.0,0.0904,-1.0309,-0.0437,0.6851,-0.6376,-0.2951,0.1923
193,0.0,0.0,0.0,0.0,0.0,0.0,0.0723,-1.0163,-0.0648,0.6824,-0.6407,-0.2953,0.1914
194,0.0,0.0,0.0,0.0,0.0,0.0,0.0817,-1.0464,-0.0762,0.6797,-0.6436,-0.2957,0.1908
195,0.0,0.0,0.0,0.0,0.0,0.0,0.0793,-1.0537,-0.0758,0.6776,-0.6459,-0.2958,0.1903
196,0.0,0.0,0.0,0.0,0.0,0.0,0.0851,-1.0881,-0.0785,0.6761,-0.6475,-0.2958,0.1900
197,0.0,0.0,0.0,0.0,0.0,0.0,0.0742,-1.0541,-0.0916,0.6750,-0.6488,-0.2954,0.1899
198,0.0,0.0,0.0,0.0,0.0,0.0,0.0835,-0.9794,-0.1102,0.6737,-0.6500,-0.2958,0.1900
199,0.0,0.0,0.0,0.0,0.0,0.0,0.0926,-0.9950,-0.1068,0.6725,-0.6510,-0.2965,0.1900
200,0.0,0.0,0.0,0.0,0.0,0.0,0.0881,-1.0056,-0.1006,0.6716,-0.6516,-0.2969,0.1903
201,0.0,0.0,0.0,0.0,0.0,0.0,0.0856,-1.0187,-0.0994,0.6711,-0.6519,-0.2970,0.1909
202,0.0,0.0,0.0,0.0,0.0,0.0,0.0781,-1.0537,-0.0927,0.6712,-0.6517,-0.2967,0.1919
203,0.0,0.0,0.0,0.0,0.0,0.0,0.0873,-1.0677,-0.0869,0.6720,-0.6507,-0.2962,0.1931
204,0.0,0.0,0.0,0.0,0.0,0.0,0.0878,-1.0537,-0.0866,0.6732,-0.6493,-0.2955,0.1947
205,0.0,0.0,0.0,0.0,0.0,0.0,0.0884,-1.0362,-0.0906,0.6747,-0.6475,-0.2946,0.1966
206,0.0,0.0,0.0,0.0,0.0,0.0,0.0941,-0.9940,-0.1044,0.6760,-0.6457,-0.2942,0.1986
207,0.0,0.0,0.0,0.0,0.0,0.0,0.1002,-1.0115,-0.0932,0.6775,-0.6438,-0.2938,0.2006
208,0.0,0.0,0.0,0.0,0.0,0.0,0.0955,-1.0202,-0.0827,0.6793,-0.6418,-0.2927,0.2023
209,0.0,0.0,0.0,0.0,0.0,0.0,0.0980,-0.9834,-0.0782,0.6814,-0.6393,-0.2920,0.2041
210,0.0,0.0,0.0,0.0,0.0,0.0,0.0904,-0.9722,-0.0657,0.6834,-0.6369,-0.2913,0.2059
211,0.0,0.0,0.0,0.0,0.0,0.0,0.0779,-0.9664,-0.0499,0.6854,-0.6346,-0.2904,0.2077
212,0.0,0.0,0.0,0.0,0.0,0.0,0.0685,-0.9329,-0.0389,0.6871,-0.6326,-0.2895,0.2095
213,0.0,0.0,0.0,0.0,0.0,0.0,0.0673,-0.9189,-0.0246,0.6883,-0.6311,-0.2888,0.2110
214,0.0,0.0,0.0,0.0,0.0,0.0,0.0873,-0.9543,-0.0054,0.6893,-0.6298,-0.2885,0.2122
215,0.0,0.0,0.0,0.0,0.0,0.0,0.1201,-0.9553,-0.0129,0.6904,-0.6291,-0.2882,0.2107
216,0.0,0.0,0.0,0.0,0.0,0.0,0.1014,-0.9335,-0.0270,0.6905,-0.6288,-0.2891,0.2106
217,0.0,0.0,0.0,0.0,0.0,0.0,0.0666,-0.9514,-0.0185,0.6903,-0.6293,-0.2888,0.2101
218,0.0,0.0,0.0,0.0,0.0,0.0,0.0561,-0.9781,-0.0067,0.6900,-0.6300,-0.2878,0.2101
219,0.0,0.0,0.0,0.0,0.0,0.0,0.0612,-1.0057,0.0037,0.6899,-0.6306,-0.2867,0.2102
220,0.0,0.0,0.0,0.0,0.0,0.0,0.0750,-1.0038,-0.0018,0.6900,-0.6309,-0.2862,0.2100
221,0.0,0.0,0.0,0.0,0.0,0.0,0.0700,-0.9640,-0.0188,0.6895,-0.6315,-0.2860,0.2097
222,0.0,0.0,0.0,0.0,0.0,0.0,0.0764,-0.9601,-0.0184,0.6889,-0.6323,-0.2863,0.2089
223,0.0,0.0,0.0,0.0,0.0,0.0,0.0696,-1.0043,-0.0027,0.6889,-0.6327,-0.2862,0.2079
224,0.0,0.0,0.0,0.0,0.0,0.0,0.0725,-1.0087,0.0010,0.6893,-0.6327,-0.2860,0.2067
225,0.0,0.0,0.0,0.0,0.0,0.0,0.0769,-1.0154,-0.0006,0.6899,-0.6327,-0.2857,0.2053
226,0.0,0.0,0.0,0.0,0.0,0.0,0.0769,-1.0169,0.0018,0.6909,-0.6323,-0.2852,0.2038
227,0.0,0.0,0.0,0.0,0.0,0.0,0.0734,-1.0019,0.0070,0.6922,-0.6319,-0.2842,0.2021
228,0.0,0.0,0.0,0.0,0.0,0.0,0.0679,-0.9917,0.0111,0.6935,-0.6316,-0.2827,0.2006
229,0.0,0.0,0.0,0.0,0.0,0.0,0.0670,-0.9640,0.0127,0.6947,-0.6313,-0.2812,0.1993
230,0.0,0.0,0.0,0.0,0.0,0.0,0.0659,-0.9611,0.0166,0.6958,-0.6312,-0.2798,0.1980
231,0.0,0.0,0.0,0.0,0.0,0.0,0.0610,-0.9641,0.0205,0.6967,-0.6313,-0.2782,0.1967
232,0.0,0.0,0.0,0.0,0.0,0.0,0.0595,-0.9602,0.0235,0.6974,-0.6316,-0.2766,0.1955
233,0.0,0.0,0.0,0.0,0.0,0.0,0.0545,-0.9587,0.0270,0.6980,-0.6320,-0.2748,0.1945
234,0.0,0.0,0.0,0.0,0.0,0.0,0.0541,-0.9514,0.0233,0.6984,-0.6326,-0.2732,0.1937
235,0.0,0.0,0.0,0.0,0.0,0.0,0.0576,-0.9500,0.0194,0.6984,-0.6333,-0.2717,0.1930
236,0.0,0.0,0.0,0.0,0.0,0.0,0.0534,-0.9534,0.0127,0.6981,-0.6345,-0.2703,0.1923
237,0.0,0.0,0.0,0.0,0.0,0.0,0.0573,-0.9602,0.0105,0.6975,-0.6359,-0.2691,0.1918
238,0.0,0.0,0.0,0.0,0.0,0.0,0.0699,-0.9742,0.0105,0.6968,-0.6371,-0.2684,0.1913
239,0.0,0.0,0.0,0.0,0.0,0.0,0.0656,-0.9791,0.0066,0.6960,-0.6384,-0.2678,0.1906
240,0.0,0.0,0.0,0.0,0.0,0.0,0.0545,-0.9737,0.0021,0.6953,-0.6397,-0.2670,0.1898
241,0.0,0.0,0.0,0.0,0.0,0.0,0.0577,-0.9669,-0.0089,0.6944,-0.6411,-0.2668,0.1887
242,0.0,0.0,0.0,0.0,0.0,0.0,0.0495,-0.9795,-0.0153,0.6934,-0.6427,-0.2664,0.1877
243,0.0,0.0,0.0,0.0,0.0,0.0,0.0462,-0.9912,-0.0227,0.6924,-0.6441,-0.2660,0.1871
244,0.0,0.0,0.0,0.0,0.0,0.0,0.0532,-0.9839,-0.0309,0.6913,-0.6455,-0.2658,0.1866
245,0.0,0.0,0.0,0.0,0.0,0.0,0.0485,-0.9746,-0.0384,0.6901,-0.6470,-0.2658,0.1860
246,0.0,0.0,0.0,0.0,0.0,0.0,0.0530,-0.9790,-0.0458,0.6887,-0.6484,-0.2661,0.1858
247,0.0,0.0,0.0,0.0,0.0,0.0,0.0540,-1.0008,-0.0516,0.6873,-0.6499,-0.2663,0.1855
248,0.0,0.0,0.0,0.0,0.0,0.0,0.0513,-1.0042,-0.0612,0.6858,-0.6514,-0.2665,0.1855
249,0.0,0.0,0.0,0.0,0.0,0.0,0.0705,-0.9877,-0.0690,0.6842,-0.6527,-0.2674,0.1853
250,0.0,0.0,0.0,0.0,0.0,0.0,0.0781,-1.0125,-0.0643,0.6830,-0.6535,-0.2688,0.1849
251,0.0,0.0,0.0,0.0,0.0,0.0,0.0653,-1.0643,-0.0627,0.6825,-0.6540,-0.2691,0.1847
252,0.0,0.0,0.0,0.0,0.0,0.0,0.0580,-1.1070,-0.0634,0.6830,-0.6535,-0.2686,0.1852
253,0.0,0.0,0.0,0.0,0.0,0.0,0.0576,-1.0799,-0.0657,0.6845,-0.6520,-0.2679,0.1859
254,0.0,0.0,0.0,0.0,0.0,0.0,0.0676,-1.0110,-0.0718,0.6861,-0.6502,-0.2681,0.1863
255,0.0,0.0,0.0,0.0,0.0,0.0,0.0715,-0.9737,-0.0697,0.6872,-0.6487,-0.2685,0.1866
256,0.0,0.0,0.0,0.0,0.0,0.0,0.0776,-0.9766,-0.0564,0.6882,-0.6473,-0.2691,0.1869
257,0.0,0.0,0.0,0.0,0.0,0.0,0.0794,-0.9761,-0.0496,0.6890,-0.6460,-0.2697,0.1877
258,0.0,0.0,0.0,0.0,0.0,0.0,0.0833,-0.9630,-0.0499,0.6894,-0.6449,-0.2707,0.1884
259,0.0,0.0,0.0,0.0,0.0,0.0,0.0749,-0.9713,-0.0466,0.6895,-0.6442,-0.2715,0.1894
260,0.0,0.0,0.0,0.0,0.0,0.0,0.0682,-0.9693,-0.0478,0.6894,-0.6439,-0.2721,0.1901
261,0.0,0.0,0.0,0.0,0.0,0.0,0.0652,-0.9761,-0.0465,0.6887,-0.6445,-0.2717,0.1909
262,0.0,0.0,0.0,0.0,0.0,0.0,0.0718,-0.9936,-0.0387,0.6879,-0.6456,-0.2708,0.1916
263,0.0,0.0,0.0,0.0,0.0,0.0,0.0815,-1.0203,-0.0356,0.6873,-0.6462,-0.2702,0.1923
264,0.0,0.0,0.0,0.0,0.0,0.0,0.0787,-0.9844,-0.0392,0.6870,-0.6467,-0.2698,0.1924
265,0.0,0.0,0.0,0.0,0.0,0.0,0.0768,-0.9781,-0.0405,0.6866,-0.6471,-0.2696,0.1925
266,0.0,0.0,0.0,0.0,0.0,0.0,0.0773,-0.9814,-0.0415,0.6864,-0.6473,-0.2696,0.1927
267,0.0,0.0,0.0,0.0,0.0,0.0,0.0738,-0.9853,-0.0367,0.6863,-0.6474,-0.2696,0.1928
268,0.0,0.0,0.0,0.0,0.0,0.0,0.0664,-0.9960,-0.0348,0.6864,-0.6474,-0.2693,0.1927
269,0.0,0.0,0.0,0.0,0.0,0.0,0.0627,-0.9703,-0.0439,0.6863,-0.6476,-0.2691,0.1928
270,0.0,0.0,0.0,0.0,0.0,0.0,0.0656,-0.9776,-0.0422,0.6862,-0.6477,-0.2691,0.1928
271,0.0,0.0,0.0,0.0,0.0,0.0,0.0681,-0.9829,-0.0442,0.6861,-0.6478,-0.2693,0.1928
272,0.0,0.0,0.0,0.0,0.0,0.0,0.0676,-0.9805,-0.0480,0.6858,-0.6480,-0.2695,0.1929
273,0.0,0.0,0.0,0.0,0.0,0.0,0.0711,-0.9853,-0.0482,0.6855,-0.6482,-0.2698,0.1929
274,0.0,0.0,0.0,0.0,0.0,0.0,0.0715,-0.9950,-0.0455,0.6853,-0.6482,-0.2701,0.1930
275,0.0,0.0,0.0,0.0,0.0,0.0,0.0690,-0.9979,-0.0436,0.6852,-0.6483,-0.2701,0.1930
276,0.0,0.0,0.0,0.0,0.0,0.0,0.0694,-1.0130,-0.0391,0.6854,-0.6482,-0.2700,0.1929
277,0.0,0.0,0.0,0.0,0.0,0.0,0.0679,-1.0144,-0.0386,0.6857,-0.6480,-0.2697,0.1928
278,0.0,0.0,0.0,0.0,0.0,0.0,0.0636,-1.0062,-0.0407,0.6861,-0.6478,-0.2692,0.1928
279,0.0,0.0,0.0,0.0,0.0,0.0,0.0641,-0.9907,-0.0429,0.6865,-0.6476,-0.2686,0.1928
280,0.0,0.0,0.0,0.0,0.0,0.0,0.0622,-0.9931,-0.0429,0.6869,-0.6473,-0.2680,0.1930
281,0.0,0.0,0.0,0.0,0.0,0.0,0.0603,-0.9868,-0.0442,0.6872,-0.6472,-0.2675,0.1934
282,0.0,0.0,0.0,0.0,0.0,0.0,0.0578,-0.9853,-0.0436,0.6874,-0.6470,-0.2670,0.1937
283,0.0,0.0,0.0,0.0,0.0,0.0,0.0573,-0.9863,-0.0441,0.6875,-0.6469,-0.2666,0.1942
284,0.0,0.0,0.0,0.0,0.0,0.0,0.0538,-0.9999,-0.0399,0.6877,-0.6468,-0.2663,0.1945
285,0.0,0.0,0.0,0.0,0.0,0.0,0.0480,-0.9843,-0.0419,0.6878,-0.6467,-0.2659,0.1950
286,0.0,0.0,0.0,0.0,0.0,0.0,0.0474,-0.9955,-0.0334,0.6880,-0.6465,-0.2654,0.1956
287,0.0,0.0,0.0,0.0,0.0,0.0,0.0417,-1.0106,-0.0196,0.6885,-0.6460,-0.2646,0.1963
288,0.0,0.0,0.0,0.0,0.0,0.0,0.0331,-1.0455,-0.0071,0.6895,-0.6451,-0.2633,0.1975
289,0.0,0.0,0.0,0.0,0.0,0.0,0.0311,-1.0562,-0.0029,0.6911,-0.6437,-0.2616,0.1988
290,0.0,0.0,0.0,0.0,0.0,0.0,0.0394,-1.0285,-0.0059,0.6931,-0.6418,-0.2601,0.2002
291,0.0,0.0,0.0,0.0,0.0,0.0,0.0350,-0.9664,-0.0206,0.6947,-0.6401,-0.2588,0.2020
292,0.0,0.0,0.0,0.0,0.0,0.0,0.0402,-0.9606,-0.0114,0.6958,-0.6385,-0.2577,0.2041
293,0.0,0.0,0.0,0.0,0.0,0.0,0.0449,-1.0314,0.0132,0.6975,-0.6365,-0.2565,0.2063
294,0.0,0.0,0.0,0.0,0.0,0.0,0.0265,-1.0130,0.0120,0.6993,-0.6344,-0.2549,0.2087
295,0.0,0.0,0.0,0.0,0.0,0.0,0.0371,-1.0140,0.0152,0.7010,-0.6321,-0.2536,0.2113
296,0.0,0.0,0.0,0.0,0.0,0.0,0.0489,-0.9825,0.0136,0.7028,-0.6297,-0.2527,0.2138
297,0.0,0.0,0.0,0.0,0.0,0.0,0.0422,-0.9601,0.0098,0.7043,-0.6275,-0.2521,0.2161
298,0.0,0.0,0.0,0.0,0.0,0.0,0.0463,-0.9781,0.0205,0.7056,-0.6253,-0.2521,0.2182
299,0.0,0.0,0.0,0.0,0.0,0.0,0.0554,-0.9902,0.0273,0.7069,-0.6231,-0.2524,0.2199
300,0.0,0.0,0.0,0.0,0.0,0.0,0.0617,-0.9922,0.0330,0.7086,-0.6205,-0.2529,0.2211
301,0.0,0.0,0.0,0.0,0.0,0.0,0.0664,-0.9869,0.0422,0.7106,-0.6178,-0.2534,0.2219
302,0.0,0.0,0.0,0.0,0.0,0.0,0.0647,-0.9830,0.0543,0.7127,-0.6150,-0.2538,0.2222
303,0.0,0.0,0.0,0.0,0.0,0.0,0.0615,-0.9874,0.0664,0.7150,-0.6123,-0.2540,0.2222
304,0.0,0.0,0.0,0.0,0.0,0.0,0.0565,-0.9782,0.0720,0.7174,-0.6096,-0.2539,0.2218
305,0.0,0.0,0.0,0.0,0.0,0.0,0.0574,-0.9690,0.0770,0.7196,-0.6072,-0.2537,0.2215
306,0.0,0.0,0.0,0.0,0.0,0.0,0.0544,-0.9602,0.0830,0.7218,-0.6050,-0.2532,0.2208
307,0.0,0.0,0.0,0.0,0.0,0.0,0.0559,-0.9365,0.0863,0.7238,-0.6031,-0.2528,0.2201
308,0.0,0.0,0.0,0.0,0.0,0.0,0.0586,-0.9360,0.0931,0.7256,-0.6013,-0.2527,0.2193
309,0.0,0.0,0.0,0.0,0.0,0.0,0.0600,-0.9263,0.0990,0.7270,-0.5999,-0.2528,0.2184
310,0.0,0.0,0.0,0.0,0.0,0.0,0.0622,-0.9317,0.1134,0.7283,-0.5986,-0.2529,0.2173
311,0.0,0.0,0.0,0.0,0.0,0.0,0.0596,-0.9389,0.1205,0.7296,-0.5976,-0.2529,0.2161
312,0.0,0.0,0.0,0.0,0.0,0.0,0.0590,-0.9511,0.1232,0.7306,-0.5968,-0.2528,0.2148
313,0.0,0.0,0.0,0.0,0.0,0.0,0.0621,-0.9297,0.1153,0.7313,-0.5964,-0.2529,0.2135
314,0.0,0.0,0.0,0.0,0.0,0.0,0.0601,-0.9486,0.1189,0.7317,-0.5963,-0.2530,0.2123
315,0.0,0.0,0.0,0.0,0.0,0.0,0.0605,-0.9710,0.1223,0.7319,-0.5964,-0.2530,0.2111
316,0.0,0.0,0.0,0.0,0.0,0.0,0.0610,-0.9714,0.1213,0.7322,-0.5964,-0.2531,0.2098
317,0.0,0.0,0.0,0.0,0.0,0.0,0.0610,-0.9753,0.1207,0.7326,-0.5964,-0.2532,0.2087
318,0.0,0.0,0.0,0.0,0.0,0.0,0.0648,-0.9792,0.1215,0.7329,-0.5963,-0.2532,0.2076
319,0.0,0.0,0.0,0.0,0.0,0.0,0.0654,-0.9729,0.1188,0.7332,-0.5964,-0.2532,0.2067
320,0.0,0.0,0.0,0.0,0.0,0.0,0.0706,-0.9991,0.1235,0.7335,-0.5963,-0.2530,0.2060
321,0.0,0.0,0.0,0.0,0.0,0.0,0.0663,-0.9792,0.1205,0.7340,-0.5961,-0.2525,0.2051
322,0.0,0.0,0.0,0.0,0.0,0.0,0.0612,-0.9443,0.1112,0.7343,-0.5962,-0.2521,0.2045
323,0.0,0.0,0.0,0.0,0.0,0.0,0.0621,-0.9574,0.1143,0.7345,-0.5964,-0.2516,0.2038
324,0.0,0.0,0.0,0.0,0.0,0.0,0.0636,-0.9559,0.1138,0.7344,-0.5967,-0.2515,0.2032
325,0.0,0.0,0.0,0.0,0.0,0.0,0.0641,-0.9535,0.1105,0.7342,-0.5972,-0.2516,0.2025
326,0.0,0.0,0.0,0.0,0.0,0.0,0.0656,-0.9637,0.1093,0.7339,-0.5977,-0.2517,0.2019
327,0.0,0.0,0.0,0.0,0.0,0.0,0.0686,-0.9671,0.1053,0.7335,-0.5983,-0.2520,0.2015
328,0.0,0.0,0.0,0.0,0.0,0.0,0.0697,-0.9603,0.0977,0.7329,-0.5989,-0.2525,0.2011
329,0.0,0.0,0.0,0.0,0.0,0.0,0.0656,-0.9462,0.0860,0.7320,-0.5999,-0.2531,0.2008
330,0.0,0.0,0.0,0.0,0.0,0.0,0.0670,-0.9709,0.0850,0.7308,-0.6010,-0.2538,0.2007
331,0.0,0.0,0.0,0.0,0.0,0.0,0.0756,-0.9699,0.0713,0.7295,-0.6022,-0.2548,0.2006
332,0.0,0.0,0.0,0.0,0.0,0.0,0.0765,-0.9568,0.0527,0.7278,-0.6037,-0.2562,0.2006
333,0.0,0.0,0.0,0.0,0.0,0.0,0.0947,-0.9457,0.0439,0.7258,-0.6053,-0.2582,0.2005
334,0.0,0.0,0.0,0.0,0.0,0.0,0.0974,-0.9806,0.0499,0.7237,-0.6070,-0.2601,0.2002
335,0.0,0.0,0.0,0.0,0.0,0.0,0.0847,-1.0194,0.0494,0.7219,-0.6088,-0.2613,0.2001
336,0.0,0.0,0.0,0.0,0.0,0.0,0.0694,-0.9990,0.0337,0.7200,-0.6107,-0.2620,0.2000
337,0.0,0.0,0.0,0.0,0.0,0.0,0.0651,-1.0140,0.0301,0.7182,-0.6126,-0.2623,0.2003
338,0.0,0.0,0.0,0.0,0.0,0.0,0.0763,-1.0218,0.0302,0.7167,-0.6140,-0.2628,0.2008
339,0.0,0.0,0.0,0.0,0.0,0.0,0.0758,-0.9980,0.0345,0.7156,-0.6149,-0.2633,0.2013
340,0.0,0.0,0.0,0.0,0.0,0.0,0.0724,-0.9956,0.0303,0.7147,-0.6157,-0.2635,0.2017
341,0.0,0.0,0.0,0.0,0.0,0.0,0.0787,-0.9490,0.0113,0.7132,-0.6169,-0.2643,0.2024
342,0.0,0.0,0.0,0.0,0.0,0.0,0.0858,-0.9757,0.0236,0.7119,-0.6179,-0.2652,0.2029
343,0.0,0.0,0.0,0.0,0.0,0.0,0.0672,-0.9718,0.0236,0.7106,-0.6190,-0.2655,0.2034
344,0.0,0.0,0.0,0.0,0.0,0.0,0.0552,-0.9577,0.0159,0.7090,-0.6205,-0.2658,0.2041
345,0.0,0.0,0.0,0.0,0.0,0.0,0.0612,-0.9621,0.0118,0.7071,-0.6221,-0.2664,0.2049
346,0.0,0.0,0.0,0.0,0.0,0.0,0.0583,-0.9635,0.0056,0.7050,-0.6238,-0.2672,0.2058
347,0.0,0.0,0.0,0.0,0.0,0.0,0.0549,-0.9791,0.0058,0.7028,-0.6256,-0.2681,0.2068
348,0.0,0.0,0.0,0.0,0.0,0.0,0.0298,-1.0397,0.0124,0.7009,-0.6272,-0.2681,0.2084
349,0.0,0.0,0.0,0.0,0.0,0.0,0.0406,-1.0465,0.0091,0.6995,-0.6282,-0.2681,0.2104
350,0.0,0.0,0.0,0.0,0.0,0.0,0.0437,-1.0145,0.0010,0.6981,-0.6289,-0.2682,0.2127
351,0.0,0.0,0.0,0.0,0.0,0.0,0.0469,-0.9931,-0.0097,0.6968,-0.6294,-0.2685,0.2150
352,0.0,0.0,0.0,0.0,0.0,0.0,0.0508,-0.9475,-0.0321,0.6948,-0.6303,-0.2696,0.2175
353,0.0,0.0,0.0,0.0,0.0,0.0,0.0615,-0.9761,-0.0314,0.6925,-0.6313,-0.2710,0.2200
354,0.0,0.0,0.0,0.0,0.0,0.0,0.0727,-0.9815,-0.0332,0.6904,-0.6322,-0.2726,0.2222
355,0.0,0.0,0.0,0.0,0.0,0.0,0.0705,-0.9790,-0.0437,0.6881,-0.6334,-0.2743,0.2238
356,0.0,0.0,0.0,0.0,0.0,0.0,0.0712,-0.9824,-0.0539,0.6857,-0.6347,-0.2762,0.2251
357,0.0,0.0,0.0,0.0,0.0,0.0,0.0823,-0.9940,-0.0515,0.6835,-0.6359,-0.2784,0.2257
358,0.0,0.0,0.0,0.0,0.0,0.0,0.1048,-1.0518,-0.0367,0.6822,-0.6365,-0.2806,0.2253
359,0.0,0.0,0.0,0.0,0.0,0.0,0.1158,-1.0479,-0.0479,0.6816,-0.6369,-0.2826,0.2236
360,0.0,0.0,0.0,0.0,0.0,0.0,0.0967,-1.0299,-0.0694,0.6810,-0.6377,-0.2840,0.2212
361,0.0,0.0,0.0,0.0,0.0,0.0,0.0758,-1.0357,-0.0691,0.6808,-0.6387,-0.2845,0.2183
362,0.0,0.0,0.0,0.0,0.0,0.0,0.0711,-1.0353,-0.0535,0.6813,-0.6394,-0.2843,0.2150
363,0.0,0.0,0.0,0.0,0.0,0.0,0.0674,-1.0241,-0.0407,0.6825,-0.6396,-0.2836,0.2114
364,0.0,0.0,0.0,0.0,0.0,0.0,0.0664,-1.0013,-0.0368,0.6840,-0.6397,-0.2827,0.2074
365,0.0,0.0,0.0,0.0,0.0,0.0,0.0653,-0.9887,-0.0288,0.6857,-0.6397,-0.2816,0.2031
366,0.0,0.0,0.0,0.0,0.0,0.0,0.0654,-1.0077,-0.0099,0.6880,-0.6394,-0.2802,0.1982
367,0.0,0.0,0.0,0.0,0.0,0.0,0.0591,-0.9839,-0.0083,0.6905,-0.6391,-0.2785,0.1930
368,0.0,0.0,0.0,0.0,0.0,0.0,0.0550,-0.9897,0.0008,0.6930,-0.6388,-0.2765,0.1877
369,0.0,0.0,0.0,0.0,0.0,0.0,0.0421,-0.9980,0.0120,0.6956,-0.6386,-0.2739,0.1825
370,0.0,0.0,0.0,0.0,0.0,0.0,0.0389,-0.9985,0.0232,0.6984,-0.6382,-0.2709,0.1774
371,0.0,0.0,0.0,0.0,0.0,0.0,0.0312,-0.9868,0.0226,0.7011,-0.6379,-0.2678,0.1727
372,0.0,0.0,0.0,0.0,0.0,0.0,0.0259,-0.9723,0.0206,0.7035,-0.6378,-0.2645,0.1685
373,0.0,0.0,0.0,0.0,0.0,0.0,0.0273,-0.9572,0.0242,0.7055,-0.6377,-0.2615,0.1648
374,0.0,0.0,0.0,0.0,0.0,0.0,0.0312,-0.9480,0.0248,0.7073,-0.6377,-0.2586,0.1616
375,0.0,0.0,0.0,0.0,0.0,0.0,0.0337,-0.9369,0.0230,0.7086,-0.6380,-0.2561,0.1593
376,0.0,0.0,0.0,0.0,0.0,0.0,0.0371,-0.9282,0.0217,0.7094,-0.6383,-0.2540,0.1573
377,0.0,0.0,0.0,0.0,0.0,0.0,0.0354,-0.9175,0.0137,0.7095,-0.6391,-0.2524,0.1561
378,0.0,0.0,0.0,0.0,0.0,0.0,0.0341,-0.9155,0.0056,0.7089,-0.6403,-0.2516,0.1556
379,0.0,0.0,0.0,0.0,0.0,0.0,0.0424,-0.9189,0.0005,0.7076,-0.6417,-0.2516,0.1557
380,0.0,0.0,0.0,0.0,0.0,0.0,0.0570,-0.9466,0.0026,0.7060,-0.6430,-0.2524,0.1563
381,0.0,0.0,0.0,0.0,0.0,0.0,0.0580,-0.9713,-0.0003,0.7041,-0.6443,-0.2536,0.1576
382,0.0,0.0,0.0,0.0,0.0,0.0,0.0750,-1.0023,-0.0042,0.7022,-0.6453,-0.2554,0.1591
383,0.0,0.0,0.0,0.0,0.0,0.0,0.0753,-1.0096,-0.0159,0.7002,-0.6462,-0.2574,0.1610
384,0.0,0.0,0.0,0.0,0.0,0.0,0.0790,-1.0028,-0.0333,0.6981,-0.6470,-0.2595,0.1634
385,0.0,0.0,0.0,0.0,0.0,0.0,0.0894,-1.0149,-0.0405,0.6959,-0.6476,-0.2618,0.1664
386,0.0,0.0,0.0,0.0,0.0,0.0,0.0982,-1.0193,-0.0436,0.6941,-0.6479,-0.2641,0.1695
387,0.0,0.0,0.0,0.0,0.0,0.0,0.1070,-1.0212,-0.0462,0.6924,-0.6478,-0.2664,0.1730
388,0.0,0.0,0.0,0.0,0.0,0.0,0.1164,-1.0023,-0.0480,0.6909,-0.6474,-0.2686,0.1770
389,0.0,0.0,0.0,0.0,0.0,0.0,0.1180,-0.9892,-0.0560,0.6894,-0.6471,-0.2706,0.1810
390,0.0,0.0,0.0,0.0,0.0,0.0,0.1212,-0.9717,-0.0687,0.6876,-0.6471,-0.2725,0.1850
391,0.0,0.0,0.0,0.0,0.0,0.0,0.1270,-1.0202,-0.0708,0.6860,-0.6472,-0.2735,0.1890
392,0.0,0.0,0.0,0.0,0.0,0.0,0.1279,-0.9795,-0.0888,0.6847,-0.6470,-0.2746,0.1929
393,0.0,0.0,0.0,0.0,0.0,0.0,0.1213,-0.9673,-0.0962,0.6829,-0.6471,-0.2762,0.1965
394,0.0,0.0,0.0,0.0,0.0,0.0,0.1147,-1.0105,-0.0882,0.6814,-0.6473,-0.2773,0.1994
395,0.0,0.0,0.0,0.0,0.0,0.0,0.1098,-1.0066,-0.0900,0.6800,-0.6475,-0.2784,0.2019
396,0.0,0.0,0.0,0.0,0.0,0.0,0.1122,-1.0163,-0.0854,0.6789,-0.6476,-0.2798,0.2035
397,0.0,0.0,0.0,0.0,0.0,0.0,0.1114,-1.0115,-0.0935,0.6778,-0.6478,-0.2815,0.2044
398,0.0,0.0,0.0,0.0,0.0,0.0,0.0969,-0.9925,-0.1020,0.6765,-0.6482,-0.2833,0.2048
399,0.0,0.0,0.0,0.0,0.0,0.0,0.0891,-0.9867,-0.0964,0.6753,-0.6487,-0.2848,0.2049
400,0.0,0.0,0.0,0.0,0.0,0.0,0.0777,-0.9877,-0.0914,0.6742,-0.6495,-0.2859,0.2047
401,0.0,0.0,0.0,0.0,0.0,0.0,0.0675,-0.9877,-0.0916,0.6730,-0.6505,-0.2868,0.2042
402,0.0,0.0,0.0,0.0,0.0,0.0,0.0825,-0.9993,-0.0849,0.6720,-0.6513,-0.2877,0.2035
403,0.0,0.0,0.0,0.0,0.0,0.0,0.0772,-0.9843,-0.0898,0.6711,-0.6521,-0.2887,0.2027
404,0.0,0.0,0.0,0.0,0.0,0.0,0.0797,-0.9736,-0.0926,0.6702,-0.6528,-0.2899,0.2017
405,0.0,0.0,0.0,0.0,0.0,0.0,0.0803,-0.9775,-0.0946,0.6693,-0.6535,-0.2911,0.2006
406,0.0,0.0,0.0,0.0,0.0,0.0,0.0818,-0.9804,-0.0990,0.6684,-0.6543,-0.2924,0.1994
407,0.0,0.0,0.0,0.0,0.0,0.0,0.0823,-0.9857,-0.1025,0.6675,-0.6550,-0.2935,0.1979
408,0.0,0.0,0.0,0.0,0.0,0.0,0.0848,-0.9920,-0.1046,0.6667,-0.6558,-0.2945,0.1966
409,0.0,0.0,0.0,0.0,0.0,0.0,0.0877,-1.0056,-0.1025,0.6662,-0.6564,-0.2954,0.1952
410,0.0,0.0,0.0,0.0,0.0,0.0,0.0873,-0.9988,-0.1067,0.6658,-0.6569,-0.2962,0.1937
411,0.0,0.0,0.0,0.0,0.0,0.0,0.0907,-1.0037,-0.1074,0.6655,-0.6573,-0.2968,0.1922
412,0.0,0.0,0.0,0.0,0.0,0.0,0.0853,-1.0032,-0.1053,0.6654,-0.6577,-0.2971,0.1907
413,0.0,0.0,0.0,0.0,0.0,0.0,0.0868,-0.9916,-0.1071,0.6654,-0.6580,-0.2972,0.1893
414,0.0,0.0,0.0,0.0,0.0,0.0,0.0901,-1.0081,-0.1017,0.6656,-0.6582,-0.2972,0.1878
415,0.0,0.0,0.0,0.0,0.0,0.0,0.0900,-1.0183,-0.0961,0.6662,-0.6582,-0.2969,0.1864
416,0.0,0.0,0.0,0.0,0.0,0.0,0.0888,-1.0314,-0.0881,0.6673,-0.6580,-0.2961,0.1848
417,0.0,0.0,0.0,0.0,0.0,0.0,0.0819,-1.0304,-0.0860,0.6686,-0.6576,-0.2946,0.1835
418,0.0,0.0,0.0,0.0,0.0,0.0,0.0790,-1.0158,-0.0852,0.6702,-0.6571,-0.2929,0.1823
419,0.0,0.0,0.0,0.0,0.0,0.0,0.0751,-1.0081,-0.0816,0.6719,-0.6565,-0.2908,0.1815
420,0.0,0.0,0.0,0.0,0.0,0.0,0.0736,-1.0042,-0.0800,0.6737,-0.6559,-0.2885,0.1810
421,0.0,0.0,0.0,0.0,0.0,0.0,0.0736,-0.9935,-0.0813,0.6753,-0.6552,-0.2863,0.1807
422,0.0,0.0,0.0,0.0,0.0,0.0,0.0721,-0.9858,-0.0791,0.6769,-0.6545,-0.2841,0.1807
423,0.0,0.0,0.0,0.0,0.0,0.0,0.0717,-0.9829,-0.0810,0.6782,-0.6540,-0.2821,0.1809
424,0.0,0.0,0.0,0.0,0.0,0.0,0.0736,-0.9964,-0.0784,0.6795,-0.6534,-0.2804,0.1812
425,0.0,0.0,0.0,0.0,0.0,0.0,0.0700,-1.0076,-0.0704,0.6809,-0.6526,-0.2786,0.1813
426,0.0,0.0,0.0,0.0,0.0,0.0,0.0640,-1.0076,-0.0611,0.6825,-0.6517,-0.2768,0.1814
427,0.0,0.0,0.0,0.0,0.0,0.0,0.0614,-0.9974,-0.0531,0.6842,-0.6506,-0.2748,0.1817
428,0.0,0.0,0.0,0.0,0.0,0.0,0.0554,-0.9868,-0.0436,0.6860,-0.6494,-0.2728,0.1821
429,0.0,0.0,0.0,0.0,0.0,0.0,0.0542,-0.9839,-0.0358,0.6878,-0.6482,-0.2709,0.1828
430,0.0,0.0,0.0,0.0,0.0,0.0,0.0541,-0.9795,-0.0260,0.6896,-0.6469,-0.2689,0.1836
431,0.0,0.0,0.0,0.0,0.0,0.0,0.0539,-0.9722,-0.0177,0.6913,-0.6455,-0.2672,0.1845
432,0.0,0.0,0.0,0.0,0.0,0.0,0.0533,-0.9713,-0.0118,0.6929,-0.6442,-0.2656,0.1855
433,0.0,0.0,0.0,0.0,0.0,0.0,0.0527,-0.9679,-0.0069,0.6943,-0.6428,-0.2643,0.1867
434,0.0,0.0,0.0,0.0,0.0,0.0,0.0522,-0.9640,-0.0025,0.6956,-0.6415,-0.2632,0.1879
435,0.0,0.0,0.0,0.0,0.0,0.0,0.0593,-0.9669,0.0041,0.6967,-0.6402,-0.2624,0.1893
436,0.0,0.0,0.0,0.0,0.0,0.0,0.0607,-0.9718,0.0107,0.6978,-0.6389,-0.2617,0.1906
437,0.0,0.0,0.0,0.0,0.0,0.0,0.0644,-0.9786,0.0182,0.6989,-0.6376,-0.2610,0.1919
438,0.0,0.0,0.0,0.0,0.0,0.0,0.0663,-0.9810,0.0230,0.7001,-0.6362,-0.2604,0.1931
439,0.0,0.0,0.0,0.0,0.0,0.0,0.0653,-0.9699,0.0222,0.7011,-0.6350,-0.2598,0.1943
440,0.0,0.0,0.0,0.0,0.0,0.0,0.0687,-0.9762,0.0259,0.7020,-0.6338,-0.2594,0.1954
441,0.0,0.0,0.0,0.0,0.0,0.0,0.0666,-0.9844,0.0316,0.7030,-0.6326,-0.2588,0.1963
442,0.0,0.0,0.0,0.0,0.0,0.0,0.0646,-0.9849,0.0331,0.7040,-0.6316,-0.2582,0.1972
443,0.0,0.0,0.0,0.0,0.0,0.0,0.0626,-0.9835,0.0360,0.7050,-0.6305,-0.2575,0.1979
444,0.0,0.0,0.0,0.0,0.0,0.0,0.0597,-0.9840,0.0370,0.7060,-0.6295,-0.2566,0.1985
445,0.0,0.0,0.0,0.0,0.0,0.0,0.0557,-0.9888,0.0385,0.7069,-0.6286,-0.2558,0.1992
446,0.0,0.0,0.0,0.0,0.0,0.0,0.0533,-0.9941,0.0389,0.7080,-0.6276,-0.2549,0.1998
447,0.0,0.0,0.0,0.0,0.0,0.0,0.0517,-0.9985,0.0422,0.7090,-0.6265,-0.2539,0.2006
448,0.0,0.0,0.0,0.0,0.0,0.0,0.0502,-0.9975,0.0447,0.7103,-0.6253,-0.2529,0.2014
449,0.0,0.0,0.0,0.0,0.0,0.0,0.0478,-0.9946,0.0453,0.7115,-0.6240,-0.2520,0.2022
450,0.0,0.0,0.0,0.0,0.0,0.0,0.0481,-1.0005,0.0529,0.7129,-0.6225,-0.2510,0.2033
451,0.0,0.0,0.0,0.0,0.0,0.0,0.0562,-1.0058,0.0603,0.7145,-0.6206,-0.2503,0.2045
452,0.0,0.0,0.0,0.0,0.0,0.0,0.0673,-0.9951,0.0676,0.7162,-0.6183,-0.2497,0.2059
453,0.0,0.0,0.0,0.0,0.0,0.0,0.0779,-0.9855,0.0738,0.7181,-0.6159,-0.2492,0.2073
454,0.0,0.0,0.0,0.0,0.0,0.0,0.0803,-0.9685,0.0770,0.7199,-0.6136,-0.2482,0.2087
455,0.0,0.0,0.0,0.0,0.0,0.0,0.0822,-0.9603,0.0805,0.7215,-0.6117,-0.2470,0.2103
456,0.0,0.0,0.0,0.0,0.0,0.0,0.0760,-0.9530,0.0774,0.7228,-0.6103,-0.2455,0.2118
457,0.0,0.0,0.0,0.0,0.0,0.0,0.0635,-0.9370,0.0712,0.7236,-0.6096,-0.2439,0.2129
458,0.0,0.0,0.0,0.0,0.0,0.0,0.0523,-0.9360,0.0671,0.7239,-0.6095,-0.2422,0.2141
459,0.0,0.0,0.0,0.0,0.0,0.0,0.0362,-0.9554,0.0675,0.7239,-0.6099,-0.2404,0.2152
460,0.0,0.0,0.0,0.0,0.0,0.0,0.0231,-0.9573,0.0620,0.7236,-0.6106,-0.2386,0.2160
461,0.0,0.0,0.0,0.0,0.0,0.0,0.0159,-0.9612,0.0567,0.7230,-0.6116,-0.2372,0.2168
462,0.0,0.0,0.0,0.0,0.0,0.0,0.0135,-0.9709,0.0556,0.7223,-0.6126,-0.2361,0.2176
463,0.0,0.0,0.0,0.0,0.0,0.0,0.0173,-0.9844,0.0582,0.7216,-0.6134,-0.2354,0.2181
464,0.0,0.0,0.0,0.0,0.0,0.0,0.0119,-0.9936,0.0581,0.7211,-0.6142,-0.2347,0.2183
465,0.0,0.0,0.0,0.0,0.0,0.0,0.0115,-1.0024,0.0570,0.7206,-0.6149,-0.2343,0.2182
466,0.0,0.0,0.0,0.0,0.0,0.0,0.0075,-1.0111,0.0588,0.7205,-0.6154,-0.2339,0.2179
467,0.0,0.0,0.0,0.0,0.0,0.0,-0.0002,-1.0048,0.0557,0.7205,-0.6157,-0.2334,0.2176
468,0.0,0.0,0.0,0.0,0.0,0.0,-0.0007,-1.0024,0.0533,0.7205,-0.6160,-0.2329,0.2175
469,0.0,0.0,0.0,0.0,0.0,0.0,0.0052,-0.9873,0.0540,0.7205,-0.6160,-0.2326,0.2174
470,0.0,0.0,0.0,0.0,0.0,0.0,-0.0017,-0.9859,0.0600,0.7207,-0.6160,-0.2322,0.2173
471,0.0,0.0,0.0,0.0,0.0,0.0,0.0069,-0.9874,0.0675,0.7210,-0.6157,-0.2320,0.2174
472,0.0,0.0,0.0,0.0,0.0,0.0,0.0136,-0.9878,0.0722,0.7214,-0.6152,-0.2322,0.2173
473,0.0,0.0,0.0,0.0,0.0,0.0,0.0106,-1.0009,0.0773,0.7219,-0.6145,-0.2324,0.2172
474,0.0,0.0,0.0,0.0,0.0,0.0,0.0158,-1.0111,0.0833,0.7228,-0.6134,-0.2328,0.2169
475,0.0,0.0,0.0,0.0,0.0,0.0,0.0211,-1.0073,0.0895,0.7241,-0.6118,-0.2333,0.2167
476,0.0,0.0,0.0,0.0,0.0,0.0,0.0254,-0.9835,0.0928,0.7256,-0.6099,-0.2339,0.2164
477,0.0,0.0,0.0,0.0,0.0,0.0,0.0271,-1.0049,0.1059,0.7272,-0.6079,-0.2343,0.2162
478,0.0,0.0,0.0,0.0,0.0,0.0,0.0309,-1.0155,0.1114,0.7291,-0.6057,-0.2344,0.2160
479,0.0,0.0,0.0,0.0,0.0,0.0,0.0381,-1.0156,0.1141,0.7311,-0.6033,-0.2342,0.2160
480,0.0,0.0,0.0,0.0,0.0,0.0,0.0397,-0.9855,0.1103,0.7332,-0.6008,-0.2340,0.2160
481,0.0,0.0,0.0,0.0,0.0,0.0,0.0425,-0.9768,0.1172,0.7353,-0.5984,-0.2337,0.2161
482,0.0,0.0,0.0,0.0,0.0,0.0,0.0476,-0.9797,0.1286,0.7374,-0.5958,-0.2334,0.2161
483,0.0,0.0,0.0,0.0,0.0,0.0,0.0453,-0.9598,0.1262,0.7394,-0.5935,-0.2331,0.2161
484,0.0,0.0,0.0,0.0,0.0,0.0,0.0397,-0.9103,0.1186,0.7409,-0.5917,-0.2328,0.2163
485,0.0,0.0,0.0,0.0,0.0,0.0,0.0359,-0.9326,0.1346,0.7420,-0.5904,-0.2323,0.2167
486,0.0,0.0,0.0,0.0,0.0,0.0,0.0355,-0.9545,0.1516,0.7431,-0.5890,-0.2317,0.2172
487,0.0,0.0,0.0,0.0,0.0,0.0,0.0390,-0.9336,0.1514,0.7441,-0.5878,-0.2314,0.2177
488,0.0,0.0,0.0,0.0,0.0,0.0,0.0306,-0.9322,0.1545,0.7448,-0.5869,-0.2308,0.2182
489,0.0,0.0,0.0,0.0,0.0,0.0,0.0376,-0.9104,0.1519,0.7452,-0.5862,-0.2308,0.2189
490,0.0,0.0,0.0,0.0,0.0,0.0,0.0435,-0.9011,0.1505,0.7450,-0.5860,-0.2312,0.2194
491,0.0,0.0,0.0,0.0,0.0,0.0,0.0370,-0.9176,0.1542,0.7445,-0.5862,-0.2316,0.2200
492,0.0,0.0,0.0,0.0,0.0,0.0,0.0370,-0.9351,0.1529,0.7436,-0.5869,-0.2323,0.2206
493,0.0,0.0,0.0,0.0,0.0,0.0,0.0389,-0.9521,0.1525,0.7426,-0.5877,-0.2331,0.2211
494,0.0,0.0,0.0,0.0,0.0,0.0,0.0414,-0.9540,0.1491,0.7415,-0.5885,-0.2340,0.2217
495,0.0,0.0,0.0,0.0,0.0,0.0,0.0464,-0.9593,0.1460,0.7403,-0.5894,-0.2351,0.2220
496,0.0,0.0,0.0,0.0,0.0,0.0,0.0445,-0.9622,0.1401,0.7390,-0.5905,-0.2361,0.2224
497,0.0,0.0,0.0,0.0,0.0,0.0,0.0418,-0.9583,0.1287,0.7375,-0.5918,-0.2372,0.2227
498,0.0,0.0,0.0,0.0,0.0,0.0,0.0401,-0.9578,0.1186,0.7358,-0.5935,-0.2383,0.2228
499,0.0,0.0,0.0,0.0,0.0,0.0,0.0389,-0.9486,0.1043,0.7337,-0.5954,-0.2395,0.2231
500,0.0,0.0,0.0,0.0,0.0,0.0,0.0405,-0.9486,0.0999,0.7314,-0.5976,-0.2410,0.2232
501,0.0,0.0,0.0,0.0,0.0,0.0,0.0399,-0.9801,0.1003,0.7291,-0.5999,-0.2424,0.2232
502,0.0,0.0,0.0,0.0,0.0,0.0,0.0364,-1.0020,0.1014,0.7270,-0.6020,-0.2436,0.2231
503,0.0,0.0,0.0,0.0,0.0,0.0,0.0347,-1.0131,0.0906,0.7250,-0.6039,-0.2448,0.2231
504,0.0,0.0,0.0,0.0,0.0,0.0,0.0321,-0.9903,0.0751,0.7230,-0.6058,-0.2459,0.2231
505,0.0,0.0,0.0,0.0,0.0,0.0,0.0404,-0.9888,0.0740,0.7212,-0.6075,-0.2471,0.2231
506,0.0,0.0,0.0,0.0,0.0,0.0,0.0467,-1.0044,0.0731,0.7195,-0.6089,-0.2486,0.2228
507,0.0,0.0,0.0,0.0,0.0,0.0,0.0534,-1.0228,0.0779,0.7182,-0.6100,-0.2500,0.2225
508,0.0,0.0,0.0,0.0,0.0,0.0,0.0544,-1.0233,0.0755,0.7174,-0.6106,-0.2514,0.2218
509,0.0,0.0,0.0,0.0,0.0,0.0,0.0562,-0.9985,0.0644,0.7168,-0.6111,-0.2527,0.2211
510,0.0,0.0,0.0,0.0,0.0,0.0,0.0495,-0.9879,0.0584,0.7162,-0.6116,-0.2538,0.2203
511,0.0,0.0,0.0,0.0,0.0,0.0,0.0496,-0.9820,0.0542,0.7156,-0.6122,-0.2548,0.2194
512,0.0,0.0,0.0,0.0,0.0,0.0,0.0498,-0.9670,0.0458,0.7149,-0.6129,-0.2560,0.2185
513,0.0,0.0,0.0,0.0,0.0,0.0,0.0561,-0.9733,0.0441,0.7140,-0.6136,-0.2573,0.2178
514,0.0,0.0,0.0,0.0,0.0,0.0,0.0513,-0.9815,0.0402,0.7130,-0.6146,-0.2584,0.2170
515,0.0,0.0,0.0,0.0,0.0,0.0,0.0524,-0.9830,0.0358,0.7120,-0.6156,-0.2595,0.2164
516,0.0,0.0,0.0,0.0,0.0,0.0,0.0534,-0.9854,0.0318,0.7109,-0.6166,-0.2605,0.2158
517,0.0,0.0,0.0,0.0,0.0,0.0,0.0525,-0.9917,0.0288,0.7097,-0.6177,-0.2615,0.2154
518,0.0,0.0,0.0,0.0,0.0,0.0,0.0535,-1.0014,0.0281,0.7087,-0.6187,-0.2623,0.2150
519,0.0,0.0,0.0,0.0,0.0,0.0,0.0554,-1.0087,0.0284,0.7078,-0.6194,-0.2631,0.2147
520,0.0,0.0,0.0,0.0,0.0,0.0,0.0523,-1.0354,0.0333,0.7073,-0.6199,-0.2635,0.2146
521,0.0,0.0,0.0,0.0,0.0,0.0,0.0546,-0.9995,0.0219,0.7070,-0.6201,-0.2640,0.2144
522,0.0,0.0,0.0,0.0,0.0,0.0,0.0557,-0.9747,0.0146,0.7064,-0.6205,-0.2646,0.2144
523,0.0,0.0,0.0,0.0,0.0,0.0,0.0530,-1.0116,0.0255,0.7061,-0.6208,-0.2647,0.2144
524,0.0,0.0,0.0,0.0,0.0,0.0,0.0569,-0.9946,0.0267,0.7059,-0.6210,-0.2648,0.2144
525,0.0,0.0,0.0,0.0,0.0,0.0,0.0511,-0.9849,0.0280,0.7057,-0.6213,-0.2647,0.2143
526,0.0,0.0,0.0,0.0,0.0,0.0,0.0527,-1.0155,0.0385,0.7059,-0.6212,-0.2644,0.2143
527,0.0,0.0,0.0,0.0,0.0,0.0,0.0539,-0.9742,0.0311,0.7061,-0.6211,-0.2641,0.2142
528,0.0,0.0,0.0,0.0,0.0,0.0,0.0516,-0.9718,0.0283,0.7061,-0.6212,-0.2639,0.2142
529,0.0,0.0,0.0,0.0,0.0,0.0,0.0462,-0.9723,0.0284,0.7060,-0.6215,-0.2636,0.2141
530,0.0,0.0,0.0,0.0,0.0,0.0,0.0457,-0.9689,0.0265,0.7057,-0.6219,-0.2634,0.2140
531,0.0,0.0,0.0,0.0,0.0,0.0,0.0419,-0.9723,0.0251,0.7053,-0.6225,-0.2632,0.2139
532,0.0,0.0,0.0,0.0,0.0,0.0,0.0404,-0.9757,0.0255,0.7049,-0.6230,-0.2632,0.2137
533,0.0,0.0,0.0,0.0,0.0,0.0,0.0403,-0.9878,0.0272,0.7045,-0.6236,-0.2631,0.2137
534,0.0,0.0,0.0,0.0,0.0,0.0,0.0371,-0.9791,0.0212,0.7039,-0.6242,-0.2631,0.2138
535,0.0,0.0,0.0,0.0,0.0,0.0,0.0376,-0.9757,0.0203,0.7033,-0.6248,-0.2631,0.2139
536,0.0,0.0,0.0,0.0,0.0,0.0,0.0360,-0.9878,0.0229,0.7027,-0.6255,-0.2630,0.2141
537,0.0,0.0,0.0,0.0,0.0,0.0,0.0375,-0.9854,0.0230,0.7021,-0.6261,-0.2630,0.2143
538,0.0,0.0,0.0,0.0,0.0,0.0,0.0380,-0.9854,0.0244,0.7016,-0.6265,-0.2631,0.2145
539,0.0,0.0,0.0,0.0,0.0,0.0,0.0416,-1.0169,0.0334,0.7013,-0.6268,-0.2630,0.2147
540,0.0,0.0,0.0,0.0,0.0,0.0,0.0470,-1.0198,0.0318,0.7014,-0.6267,-0.2630,0.2148
541,0.0,0.0,0.0,0.0,0.0,0.0,0.0438,-1.0101,0.0238,0.7015,-0.6266,-0.2628,0.2150
542,0.0,0.0,0.0,0.0,0.0,0.0,0.0416,-1.0057,0.0123,0.7016,-0.6265,-0.2627,0.2151
543,0.0,0.0,0.0,0.0,0.0,0.0,0.0414,-1.0339,0.0186,0.7020,-0.6262,-0.2624,0.2153
544,0.0,0.0,0.0,0.0,0.0,0.0,0.0399,-1.0339,0.0200,0.7027,-0.6255,-0.2617,0.2156
545,0.0,0.0,0.0,0.0,0.0,0.0,0.0332,-1.0159,0.0167,0.7036,-0.6247,-0.2607,0.2161
546,0.0,0.0,0.0,0.0,0.0,0.0,0.0385,-0.9859,0.0196,0.7046,-0.6238,-0.2598,0.2168
547,0.0,0.0,0.0,0.0,0.0,0.0,0.0336,-0.9650,0.0230,0.7054,-0.6230,-0.2589,0.2175
548,0.0,0.0,0.0,0.0,0.0,0.0,0.0332,-0.9408,0.0220,0.7058,-0.6224,-0.2585,0.2182
549,0.0,0.0,0.0,0.0,0.0,0.0,0.0302,-0.9456,0.0244,0.7059,-0.6222,-0.2583,0.2190
550,0.0,0.0,0.0,0.0,0.0,0.0,0.0318,-0.9388,0.0187,0.7056,-0.6222,-0.2586,0.2195
551,0.0,0.0,0.0,0.0,0.0,0.0,0.0366,-0.9519,0.0212,0.7050,-0.6223,-0.2594,0.2201
552,0.0,0.0,0.0,0.0,0.0,0.0,0.0390,-0.9660,0.0219,0.7043,-0.6226,-0.2604,0.2205
553,0.0,0.0,0.0,0.0,0.0,0.0,0.0419,-0.9834,0.0244,0.7036,-0.6228,-0.2615,0.2208
554,0.0,0.0,0.0,0.0,0.0,0.0,0.0463,-0.9936,0.0197,0.7028,-0.6230,-0.2627,0.2211
555,0.0,0.0,0.0,0.0,0.0,0.0,0.0503,-1.0096,0.0160,0.7021,-0.6232,-0.2641,0.2213
556,0.0,0.0,0.0,0.0,0.0,0.0,0.0481,-0.9985,0.0056,0.7015,-0.6234,-0.2654,0.2212
557,0.0,0.0,0.0,0.0,0.0,0.0,0.0462,-0.9936,0.0019,0.7009,-0.6236,-0.2666,0.2210
558,0.0,0.0,0.0,0.0,0.0,0.0,0.0563,-1.0019,0.0078,0.7004,-0.6235,-0.2680,0.2208
559,0.0,0.0,0.0,0.0,0.0,0.0,0.0640,-1.0179,0.0131,0.7004,-0.6232,-0.2693,0.2203
560,0.0,0.0,0.0,0.0,0.0,0.0,0.0761,-1.0324,0.0126,0.7008,-0.6225,-0.2709,0.2193
561,0.0,0.0,0.0,0.0,0.0,0.0,0.0849,-1.0436,0.0103,0.7015,-0.6213,-0.2723,0.2183
562,0.0,0.0,0.0,0.0,0.0,0.0,0.0900,-1.0669,0.0213,0.7033,-0.6196,-0.2729,0.2168
563,0.0,0.0,0.0,0.0,0.0,0.0,0.0773,-0.9917,0.0042,0.7052,-0.6180,-0.2727,0.2153
564,0.0,0.0,0.0,0.0,0.0,0.0,0.0761,-0.8724,-0.0210,0.7061,-0.6174,-0.2729,0.2139
565,0.0,0.0,0.0,0.0,0.0,0.0,0.0812,-0.8923,-0.0084,0.7060,-0.6177,-0.2738,0.2123
566,0.0,0.0,0.0,0.0,0.0,0.0,0.0811,-0.8986,-0.0076,0.7054,-0.6186,-0.2748,0.2104
567,0.0,0.0,0.0,0.0,0.0,0.0,0.0769,-0.8947,-0.0137,0.7040,-0.6204,-0.2761,0.2081
568,0.0,0.0,0.0,0.0,0.0,0.0,0.0754,-0.9160,-0.0170,0.7022,-0.6227,-0.2773,0.2057
569,0.0,0.0,0.0,0.0,0.0,0.0,0.0677,-0.9320,-0.0205,0.7000,-0.6255,-0.2784,0.2030
570,0.0,0.0,0.0,0.0,0.0,0.0,0.0589,-0.9553,-0.0198,0.6978,-0.6286,-0.2790,0.2002
571,0.0,0.0,0.0,0.0,0.0,0.0,0.0563,-0.9941,-0.0157,0.6957,-0.6318,-0.2793,0.1972
572,0.0,0.0,0.0,0.0,0.0,0.0,0.0602,-1.0110,-0.0195,0.6938,-0.6346,-0.2796,0.1943
573,0.0,0.0,0.0,0.0,0.0,0.0,0.0607,-1.0314,-0.0228,0.6921,-0.6372,-0.2797,0.1915
574,0.0,0.0,0.0,0.0,0.0,0.0,0.0593,-1.0358,-0.0243,0.6908,-0.6394,-0.2797,0.1888
575,0.0,0.0,0.0,0.0,0.0,0.0,0.0567,-1.0358,-0.0185,0.6899,-0.6413,-0.2795,0.1863
576,0.0,0.0,0.0,0.0,0.0,0.0,0.0557,-1.0528,-0.0149,0.6895,-0.6426,-0.2789,0.1840
577,0.0,0.0,0.0,0.0,0.0,0.0,0.0522,-1.0586,-0.0131,0.6895,-0.6435,-0.2780,0.1823
578,0.0,0.0,0.0,0.0,0.0,0.0,0.0575,-1.0566,-0.0073,0.6899,-0.6438,-0.2770,0.1811
579,0.0,0.0,0.0,0.0,0.0,0.0,0.0584,-1.0431,-0.0056,0.6907,-0.6438,-0.2758,0.1802
580,0.0,0.0,0.0,0.0,0.0,0.0,0.0539,-1.0377,-0.0001,0.6917,-0.6433,-0.2744,0.1798
581,0.0,0.0,0.0,0.0,0.0,0.0,0.0534,-1.0222,0.0036,0.6930,-0.6426,-0.2729,0.1799
582,0.0,0.0,0.0,0.0,0.0,0.0,0.0621,-1.0125,0.0089,0.6944,-0.6415,-0.2716,0.1804
583,0.0,0.0,0.0,0.0,0.0,0.0,0.0653,-1.0087,0.0181,0.6961,-0.6400,-0.2703,0.1812
584,0.0,0.0,0.0,0.0,0.0,0.0,0.0672,-1.0111,0.0233,0.6979,-0.6382,-0.2690,0.1823
585,0.0,0.0,0.0,0.0,0.0,0.0,0.0667,-0.9951,0.0256,0.6998,-0.6363,-0.2676,0.1838
586,0.0,0.0,0.0,0.0,0.0,0.0,0.0691,-0.9820,0.0267,0.7015,-0.6345,-0.2664,0.1855
587,0.0,0.0,0.0,0.0,0.0,0.0,0.0692,-0.9578,0.0238,0.7029,-0.6328,-0.2654,0.1872
588,0.0,0.0,0.0,0.0,0.0,0.0,0.0663,-0.9539,0.0225,0.7041,-0.6313,-0.2647,0.1890
589,0.0,0.0,0.0,0.0,0.0,0.0,0.0667,-0.9631,0.0252,0.7050,-0.6298,-0.2643,0.1909
590,0.0,0.0,0.0,0.0,0.0,0.0,0.0683,-0.9626,0.0214,0.7057,-0.6285,-0.2642,0.1928
591,0.0,0.0,0.0,0.0,0.0,0.0,0.0654,-0.9665,0.0194,0.7061,-0.6274,-0.2643,0.1949
592,0.0,0.0,0.0,0.0,0.0,0.0,0.0673,-0.9742,0.0187,0.7064,-0.6263,-0.2646,0.1969
593,0.0,0.0,0.0,0.0,0.0,0.0,0.0699,-0.9728,0.0144,0.7065,-0.6253,-0.2652,0.1989
594,0.0,0.0,0.0,0.0,0.0,0.0,0.0637,-0.9660,0.0083,0.7062,-0.6246,-0.2659,0.2011
595,0.0,0.0,0.0,0.0,0.0,0.0,0.0685,-0.9767,0.0090,0.7058,-0.6239,-0.2668,0.2034
596,0.0,0.0,0.0,0.0,0.0,0.0,0.0723,-0.9902,0.0106,0.7054,-0.6232,-0.2679,0.2057
597,0.0,0.0,0.0,0.0,0.0,0.0,0.0718,-0.9946,0.0110,0.7050,-0.6224,-0.2690,0.2080
598,0.0,0.0,0.0,0.0,0.0,0.0,0.0723,-1.0004,0.0143,0.7047,-0.6215,-0.2701,0.2103
599,0.0,0.0,0.0,0.0,0.0,0.0,0.0727,-1.0101,0.0155,0.7046,-0.6204,-0.2710,0.2127
600,0.0,0.0,0.0,0.0,0.0,0.0,0.0746,-1.0130,0.0198,0.7047,-0.6191,-0.2718,0.2151
601,0.0,0.0,0.0,0.0,0.0,0.0,0.0755,-1.0077,0.0223,0.7049,-0.6177,-0.2725,0.2173
602,0.0,0.0,0.0,0.0,0.0,0.0,0.0779,-0.9985,0.0234,0.7052,-0.6163,-0.2731,0.2196
603,0.0,0.0,0.0,0.0,0.0,0.0,0.0876,-0.9864,0.0258,0.7057,-0.6147,-0.2738,0.2217
604,0.0,0.0,0.0,0.0,0.0,0.0,0.0886,-0.9777,0.0255,0.7061,-0.6131,-0.2746,0.2238
605,0.0,0.0,0.0,0.0,0.0,0.0,0.0726,-0.9772,0.0239,0.7064,-0.6119,-0.2749,0.2258
606,0.0,0.0,0.0,0.0,0.0,0.0,0.0661,-0.9907,0.0300,0.7067,-0.6108,-0.2749,0.2278
607,0.0,0.0,0.0,0.0,0.0,0.0,0.0635,-1.0048,0.0385,0.7071,-0.6096,-0.2747,0.2300
608,0.0,0.0,0.0,0.0,0.0,0.0,0.0657,-1.0199,0.0502,0.7079,-0.6080,-0.2745,0.2322
609,0.0,0.0,0.0,0.0,0.0,0.0,0.0655,-1.0107,0.0572,0.7091,-0.6059,-0.2741,0.2342
610,0.0,0.0,0.0,0.0,0.0,0.0,0.0647,-0.9714,0.0546,0.7103,-0.6039,-0.2739,0.2361
611,0.0,0.0,0.0,0.0,0.0,0.0,0.0658,-0.9859,0.0692,0.7115,-0.6019,-0.2736,0.2379
612,0.0,0.0,0.0,0.0,0.0,0.0,0.0660,-1.0024,0.0834,0.7130,-0.5996,-0.2731,0.2397
613,0.0,0.0,0.0,0.0,0.0,0.0,0.0625,-1.0112,0.0896,0.7148,-0.5973,-0.2721,0.2413
614,0.0,0.0,0.0,0.0,0.0,0.0,0.0630,-0.9782,0.0931,0.7168,-0.5948,-0.2710,0.2428
615,0.0,0.0,0.0,0.0,0.0,0.0,0.0619,-0.9685,0.0981,0.7189,-0.5923,-0.2699,0.2441
616,0.0,0.0,0.0,0.0,0.0,0.0,0.0645,-0.9826,0.1138,0.7211,-0.5897,-0.2688,0.2450
617,0.0,0.0,0.0,0.0,0.0,0.0,0.0575,-0.9797,0.1222,0.7235,-0.5872,-0.2673,0.2457
618,0.0,0.0,0.0,0.0,0.0,0.0,0.0590,-0.9666,0.1219,0.7258,-0.5848,-0.2656,0.2463
619,0.0,0.0,0.0,0.0,0.0,0.0,0.0667,-0.9467,0.1270,0.7281,-0.5825,-0.2642,0.2467
620,0.0,0.0,0.0,0.0,0.0,0.0,0.0663,-0.9652,0.1455,0.7305,-0.5801,-0.2628,0.2465
621,0.0,0.0,0.0,0.0,0.0,0.0,0.0625,-0.9482,0.1449,0.7329,-0.5779,-0.2614,0.2459
622,0.0,0.0,0.0,0.0,0.0,0.0,0.0567,-0.9288,0.1444,0.7351,-0.5761,-0.2599,0.2453
623,0.0,0.0,0.0,0.0,0.0,0.0,0.0556,-0.9366,0.1511,0.7371,-0.5746,-0.2585,0.2444
624,0.0,0.0,0.0,0.0,0.0,0.0,0.0540,-0.9366,0.1554,0.7388,-0.5734,-0.2572,0.2434
625,0.0,0.0,0.0,0.0,0.0,0.0,0.0558,-0.9555,0.1623,0.7404,-0.5724,-0.2560,0.2421
626,0.0,0.0,0.0,0.0,0.0,0.0,0.0574,-0.9337,0.1578,0.7419,-0.5716,-0.2549,0.2405
627,0.0,0.0,0.0,0.0,0.0,0.0,0.0549,-0.9375,0.1597,0.7431,-0.5711,-0.2538,0.2391
628,0.0,0.0,0.0,0.0,0.0,0.0,0.0557,-0.9579,0.1666,0.7442,-0.5709,-0.2527,0.2376
629,0.0,0.0,0.0,0.0,0.0,0.0,0.0565,-0.9739,0.1769,0.7454,-0.5705,-0.2515,0.2359
630,0.0,0.0,0.0,0.0,0.0,0.0,0.0518,-0.9332,0.1696,0.7466,-0.5703,-0.2502,0.2339
631,0.0,0.0,0.0,0.0,0.0,0.0,0.0562,-1.0026,0.1898,0.7479,-0.5701,-0.2488,0.2318
632,0.0,0.0,0.0,0.0,0.0,0.0,0.0476,-0.9764,0.1813,0.7495,-0.5697,-0.2471,0.2296
633,0.0,0.0,0.0,0.0,0.0,0.0,0.0416,-0.9346,0.1668,0.7507,-0.5696,-0.2452,0.2276
634,0.0,0.0,0.0,0.0,0.0,0.0,0.0403,-0.9094,0.1625,0.7516,-0.5700,-0.2436,0.2257
635,0.0,0.0,0.0,0.0,0.0,0.0,0.0455,-0.9046,0.1693,0.7521,-0.5706,-0.2422,0.2238
636,0.0,0.0,0.0,0.0,0.0,0.0,0.0458,-0.9371,0.1788,0.7523,-0.5716,-0.2410,0.2219
637,0.0,0.0,0.0,0.0,0.0,0.0,0.0289,-0.9278,0.1706,0.7523,-0.5730,-0.2394,0.2200
638,0.0,0.0,0.0,0.0,0.0,0.0,0.0044,-0.9176,0.1534,0.7516,-0.5753,-0.2375,0.2186
639,0.0,0.0,0.0,0.0,0.0,0.0,0.0111,-0.9554,0.1550,0.7505,-0.5776,-0.2362,0.2175
640,0.0,0.0,0.0,0.0,0.0,0.0,0.0159,-0.9923,0.1541,0.7494,-0.5797,-0.2355,0.2167
641,0.0,0.0,0.0,0.0,0.0,0.0,0.0237,-0.9875,0.1579,0.7486,-0.5812,-0.2349,0.2159
642,0.0,0.0,0.0,0.0,0.0,0.0,0.0384,-1.0025,0.1747,0.7483,-0.5819,-0.2345,0.2153
643,0.0,0.0,0.0,0.0,0.0,0.0,0.0404,-0.9506,0.1540,0.7482,-0.5825,-0.2342,0.2144
644,0.0,0.0,0.0,0.0,0.0,0.0,0.0346,-0.9584,0.1501,0.7478,-0.5835,-0.2341,0.2136
645,0.0,0.0,0.0,0.0,0.0,0.0,0.0320,-0.9773,0.1565,0.7475,-0.5842,-0.2338,0.2127
646,0.0,0.0,0.0,0.0,0.0,0.0,0.0220,-0.9457,0.1443,0.7471,-0.5852,-0.2334,0.2121
647,0.0,0.0,0.0,0.0,0.0,0.0,0.0268,-0.9647,0.1501,0.7464,-0.5861,-0.2333,0.2119
648,0.0,0.0,0.0,0.0,0.0,0.0,0.0320,-0.9783,0.1555,0.7459,-0.5868,-0.2334,0.2117
649,0.0,0.0,0.0,0.0,0.0,0.0,0.0294,-0.9472,0.1446,0.7453,-0.5875,-0.2336,0.2117
650,0.0,0.0,0.0,0.0,0.0,0.0,0.0359,-0.9346,0.1370,0.7443,-0.5884,-0.2342,0.2120
651,0.0,0.0,0.0,0.0,0.0,0.0,0.0384,-1.0840,0.1408,0.7429,-0.5897,-0.2350,0.2124
652,0.0,0.0,0.0,0.0,0.0,0.0,0.0411,-0.9748,0.1405,0.7418,-0.5907,-0.2358,0.2128
653,0.0,0.0,0.0,0.0,0.0,0.0,0.0442,-0.9642,0.1290,0.7405,-0.5917,-0.2366,0.2132
654,0.0,0.0,0.0,0.0,0.0,0.0,0.0458,-0.9753,0.1234,0.7391,-0.5929,-0.2376,0.2137
655,0.0,0.0,0.0,0.0,0.0,0.0,0.0449,-0.9797,0.1181,0.7377,-0.5941,-0.2386,0.2141
656,0.0,0.0,0.0,0.0,0.0,0.0,0.0431,-0.9782,0.1099,0.7362,-0.5954,-0.2396,0.2145
657,0.0,0.0,0.0,0.0,0.0,0.0,0.0456,-0.9860,0.1063,0.7348,-0.5967,-0.2407,0.2149
658,0.0,0.0,0.0,0.0,0.0,0.0,0.0418,-0.9981,0.1023,0.7334,-0.5978,-0.2417,0.2152
659,0.0,0.0,0.0,0.0,0.0,0.0,0.0365,-0.9986,0.0961,0.7321,-0.5989,-0.2425,0.2156
660,0.0,0.0,0.0,0.0,0.0,0.0,0.0382,-0.9903,0.0876,0.7309,-0.5999,-0.2435,0.2160
661,0.0,0.0,0.0,0.0,0.0,0.0,0.0344,-0.9864,0.0814,0.7297,-0.6008,-0.2444,0.2164
662,0.0,0.0,0.0,0.0,0.0,0.0,0.0355,-0.9850,0.0771,0.7284,-0.6017,-0.2455,0.2170
663,0.0,0.0,0.0,0.0,0.0,0.0,0.0370,-0.9937,0.0740,0.7271,-0.6025,-0.2467,0.2178
664,0.0,0.0,0.0,0.0,0.0,0.0,0.0366,-0.9932,0.0692,0.7258,-0.6033,-0.2479,0.2186
665,0.0,0.0,0.0,0.0,0.0,0.0,0.0382,-0.9849,0.0630,0.7246,-0.6039,-0.2492,0.2195
666,0.0,0.0,0.0,0.0,0.0,0.0,0.0378,-0.9811,0.0602,0.7232,-0.6046,-0.2506,0.2206
667,0.0,0.0,0.0,0.0,0.0,0.0,0.0432,-0.9791,0.0563,0.7218,-0.6052,-0.2522,0.2218
668,0.0,0.0,0.0,0.0,0.0,0.0,0.0457,-0.9806,0.0548,0.7203,-0.6057,-0.2540,0.2231
669,0.0,0.0,0.0,0.0,0.0,0.0,0.0501,-0.9786,0.0499,0.7187,-0.6063,-0.2559,0.2245
670,0.0,0.0,0.0,0.0,0.0,0.0,0.0527,-0.9801,0.0450,0.7171,-0.6069,-0.2580,0.2256
671,0.0,0.0,0.0,0.0,0.0,0.0,0.0522,-0.9849,0.0415,0.7155,-0.6075,-0.2600,0.2268
672,0.0,0.0,0.0,0.0,0.0,0.0,0.0634,-0.9942,0.0450,0.7140,-0.6079,-0.2622,0.2279
673,0.0,0.0,0.0,0.0,0.0,0.0,0.0614,-0.9898,0.0456,0.7126,-0.6083,-0.2641,0.2289
674,0.0,0.0,0.0,0.0,0.0,0.0,0.0644,-0.9748,0.0439,0.7113,-0.6087,-0.2661,0.2297
675,0.0,0.0,0.0,0.0,0.0,0.0,0.0684,-0.9704,0.0415,0.7099,-0.6092,-0.2682,0.2304
676,0.0,0.0,0.0,0.0,0.0,0.0,0.0697,-0.9932,0.0458,0.7085,-0.6097,-0.2700,0.2310
677,0.0,0.0,0.0,0.0,0.0,0.0,0.0678,-0.9942,0.0434,0.7074,-0.6102,-0.2716,0.2314
678,0.0,0.0,0.0,0.0,0.0,0.0,0.0689,-0.9883,0.0382,0.7062,-0.6107,-0.2731,0.2317
679,0.0,0.0,0.0,0.0,0.0,0.0,0.0684,-0.9878,0.0387,0.7052,-0.6111,-0.2746,0.2319
680,0.0,0.0,0.0,0.0,0.0,0.0,0.0717,-1.0140,0.0420,0.7044,-0.6115,-0.2759,0.2318
681,0.0,0.0,0.0,0.0,0.0,0.0,0.0740,-1.0364,0.0454,0.7041,-0.6115,-0.2770,0.2315
682,0.0,0.0,0.0,0.0,0.0,0.0,0.0742,-1.0102,0.0401,0.7041,-0.6113,-0.2778,0.2311
683,0.0,0.0,0.0,0.0,0.0,0.0,0.0737,-1.0135,0.0376,0.7043,-0.6110,-0.2784,0.2306
684,0.0,0.0,0.0,0.0,0.0,0.0,0.0699,-1.0063,0.0340,0.7046,-0.6108,-0.2787,0.2299
685,0.0,0.0,0.0,0.0,0.0,0.0,0.0675,-0.9980,0.0327,0.7050,-0.6105,-0.2790,0.2291
686,0.0,0.0,0.0,0.0,0.0,0.0,0.0612,-1.0009,0.0323,0.7054,-0.6103,-0.2789,0.2283
687,0.0,0.0,0.0,0.0,0.0,0.0,0.0613,-0.9830,0.0264,0.7058,-0.6101,-0.2789,0.2276
688,0.0,0.0,0.0,0.0,0.0,0.0,0.0662,-0.9835,0.0253,0.7061,-0.6100,-0.2790,0.2270
689,0.0,0.0,0.0,0.0,0.0,0.0,0.0626,-1.0067,0.0336,0.7065,-0.6099,-0.2788,0.2262
690,0.0,0.0,0.0,0.0,0.0,0.0,0.0635,-1.0063,0.0360,0.7071,-0.6096,-0.2784,0.2254
691,0.0,0.0,0.0,0.0,0.0,0.0,0.0666,-0.9815,0.0331,0.7078,-0.6093,-0.2781,0.2247
692,0.0,0.0,0.0,0.0,0.0,0.0,0.0655,-0.9869,0.0383,0.7084,-0.6090,-0.2776,0.2239
693,0.0,0.0,0.0,0.0,0.0,0.0,0.0635,-0.9806,0.0409,0.7091,-0.6088,-0.2771,0.2230
694,0.0,0.0,0.0,0.0,0.0,0.0,0.0590,-0.9820,0.0439,0.7098,-0.6087,-0.2763,0.2221
695,0.0,0.0,0.0,0.0,0.0,0.0,0.0605,-0.9670,0.0465,0.7104,-0.6085,-0.2757,0.2213
696,0.0,0.0,0.0,0.0,0.0,0.0,0.0651,-0.9714,0.0594,0.7111,-0.6083,-0.2752,0.2204
697,0.0,0.0,0.0,0.0,0.0,0.0,0.0620,-0.9801,0.0665,0.7119,-0.6080,-0.2744,0.2194
698,0.0,0.0,0.0,0.0,0.0,0.0,0.0611,-0.9680,0.0663,0.7127,-0.6078,-0.2736,0.2183
699,0.0,0.0,0.0,0.0,0.0,0.0,0.0601,-0.9568,0.0670,0.7134,-0.6078,-0.2730,0.2172
700,0.0,0.0,0.0,0.0,0.0,0.0,0.0527,-0.9602,0.0715,0.7139,-0.6079,-0.2721,0.2161
701,0.0,0.0,0.0,0.0,0.0,0.0,0.0439,-0.9733,0.0733,0.7144,-0.6081,-0.2711,0.2150
702,0.0,0.0,0.0,0.0,0.0,0.0,0.0420,-0.9626,0.0692,0.7148,-0.6085,-0.2702,0.2141
703,0.0,0.0,0.0,0.0,0.0,0.0,0.0561,-0.9607,0.0704,0.7150,-0.6088,-0.2697,0.2133
704,0.0,0.0,0.0,0.0,0.0,0.0,0.0481,-0.9806,0.0779,0.7152,-0.6091,-0.2689,0.2126
705,0.0,0.0,0.0,0.0,0.0,0.0,0.0456,-0.9888,0.0807,0.7155,-0.6093,-0.2681,0.2120
706,0.0,0.0,0.0,0.0,0.0,0.0,0.0475,-1.0019,0.0847,0.7159,-0.6094,-0.2672,0.2117
707,0.0,0.0,0.0,0.0,0.0,0.0,0.0515,-0.9796,0.0803,0.7163,-0.6092,-0.2664,0.2115
708,0.0,0.0,0.0,0.0,0.0,0.0,0.0552,-0.9573,0.0700,0.7166,-0.6092,-0.2660,0.2113
709,0.0,0.0,0.0,0.0,0.0,0.0,0.0630,-0.9593,0.0669,0.7165,-0.6093,-0.2660,0.2111
710,0.0,0.0,0.0,0.0,0.0,0.0,0.0605,-0.9748,0.0676,0.7164,-0.6096,-0.2659,0.2108
711,0.0,0.0,0.0,0.0,0.0,0.0,0.0606,-0.9762,0.0637,0.7161,-0.6101,-0.2658,0.2107
712,0.0,0.0,0.0,0.0,0.0,0.0,0.0616,-0.9772,0.0632,0.7157,-0.6106,-0.2657,0.2107
713,0.0,0.0,0.0,0.0,0.0,0.0,0.0720,-0.9762,0.0548,0.7150,-0.6112,-0.2660,0.2107
714,0.0,0.0,0.0,0.0,0.0,0.0,0.0708,-0.9646,0.0435,0.7142,-0.6121,-0.2665,0.2107
715,0.0,0.0,0.0,0.0,0.0,0.0,0.0665,-0.9694,0.0391,0.7132,-0.6131,-0.2668,0.2106
716,0.0,0.0,0.0,0.0,0.0,0.0,0.0676,-0.9694,0.0285,0.7119,-0.6144,-0.2673,0.2105
717,0.0,0.0,0.0,0.0,0.0,0.0,0.0652,-0.9864,0.0267,0.7106,-0.6157,-0.2678,0.2105
718,0.0,0.0,0.0,0.0,0.0,0.0,0.0589,-0.9888,0.0230,0.7093,-0.6170,-0.2682,0.2104
719,0.0,0.0,0.0,0.0,0.0,0.0,0.0576,-0.9927,0.0161,0.7081,-0.6183,-0.2686,0.2103
720,0.0,0.0,0.0,0.0,0.0,0.0,0.0583,-0.9888,0.0075,0.7067,-0.6195,-0.2693,0.2103
721,0.0,0.0,0.0,0.0,0.0,0.0,0.0615,-1.0028,0.0144,0.7055,-0.6207,-0.2698,0.2104
722,0.0,0.0,0.0,0.0,0.0,0.0,0.0618,-1.0218,0.0227,0.7047,-0.6214,-0.2701,0.2104
723,0.0,0.0,0.0,0.0,0.0,0.0,0.0586,-0.9980,0.0160,0.7040,-0.6221,-0.2703,0.2106
724,0.0,0.0,0.0,0.0,0.0,0.0,0.0533,-0.9985,0.0103,0.7033,-0.6228,-0.2704,0.2108
725,0.0,0.0,0.0,0.0,0.0,0.0,0.0503,-1.0130,0.0130,0.7027,-0.6234,-0.2704,0.2111
726,0.0,0.0,0.0,0.0,0.0,0.0,0.0613,-1.0256,0.0217,0.7025,-0.6234,-0.2705,0.2114
727,0.0,0.0,0.0,0.0,0.0,0.0,0.0643,-1.0082,0.0230,0.7027,-0.6230,-0.2707,0.2115
728,0.0,0.0,0.0,0.0,0.0,0.0,0.0635,-0.9801,0.0163,0.7028,-0.6227,-0.2708,0.2119
729,0.0,0.0,0.0,0.0,0.0,0.0,0.0591,-0.9626,0.0153,0.7028,-0.6226,-0.2710,0.2123
730,0.0,0.0,0.0,0.0,0.0,0.0,0.0572,-0.9558,0.0145,0.7026,-0.6226,-0.2712,0.2126
731,0.0,0.0,0.0,0.0,0.0,0.0,0.0572,-0.9679,0.0157,0.7022,-0.6228,-0.2716,0.2129
732,0.0,0.0,0.0,0.0,0.0,0.0,0.0556,-0.9849,0.0183,0.7017,-0.6230,-0.2720,0.2132
733,0.0,0.0,0.0,0.0,0.0,0.0,0.0551,-0.9917,0.0196,0.7013,-0.6232,-0.2723,0.2134
734,0.0,0.0,0.0,0.0,0.0,0.0,0.0561,-0.9961,0.0166,0.7009,-0.6235,-0.2727,0.2137
735,0.0,0.0,0.0,0.0,0.0,0.0,0.0508,-0.9893,0.0139,0.7004,-0.6238,-0.2729,0.2142
736,0.0,0.0,0.0,0.0,0.0,0.0,0.0489,-0.9815,0.0141,0.6999,-0.6241,-0.2730,0.2147
737,0.0,0.0,0.0,0.0,0.0,0.0,0.0567,-0.9771,0.0136,0.6992,-0.6245,-0.2734,0.2154
738,0.0,0.0,0.0,0.0,0.0,0.0,0.0552,-0.9820,0.0145,0.6985,-0.6249,-0.2736,0.2161
739,0.0,0.0,0.0,0.0,0.0,0.0,0.0557,-0.9893,0.0158,0.6977,-0.6253,-0.2738,0.2171
740,0.0,0.0,0.0,0.0,0.0,0.0,0.0553,-0.9820,0.0116,0.6970,-0.6258,-0.2739,0.2181
741,0.0,0.0,0.0,0.0,0.0,0.0,0.0568,-0.9810,0.0101,0.6962,-0.6263,-0.2741,0.2190
742,0.0,0.0,0.0,0.0,0.0,0.0,0.0500,-0.9849,0.0063,0.6952,-0.6270,-0.2741,0.2200
743,0.0,0.0,0.0,0.0,0.0,0.0,0.0476,-0.9888,0.0034,0.6943,-0.6278,-0.2739,0.2210
744,0.0,0.0,0.0,0.0,0.0,0.0,0.0481,-0.9965,0.0042,0.6934,-0.6285,-0.2738,0.2220
745,0.0,0.0,0.0,0.0,0.0,0.0,0.0432,-0.9980,0.0047,0.6926,-0.6291,-0.2735,0.2231
746,0.0,0.0,0.0,0.0,0.0,0.0,0.0428,-0.9868,-0.0008,0.6918,-0.6297,-0.2734,0.2242
747,0.0,0.0,0.0,0.0,0.0,0.0,0.0424,-0.9844,-0.0032,0.6909,-0.6302,-0.2734,0.2252
748,0.0,0.0,0.0,0.0,0.0,0.0,0.0408,-1.0125,0.0035,0.6902,-0.6307,-0.2734,0.2262
749,0.0,0.0,0.0,0.0,0.0,0.0,0.0411,-1.0179,0.0078,0.6899,-0.6307,-0.2733,0.2271
750,0.0,0.0,0.0,0.0,0.0,0.0,0.0398,-0.9975,0.0024,0.6897,-0.6306,-0.2733,0.2278
751,0.0,0.0,0.0,0.0,0.0,0.0,0.0398,-1.0062,0.0037,0.6897,-0.6304,-0.2735,0.2284
752,0.0,0.0,0.0,0.0,0.0,0.0,0.0450,-1.0358,0.0112,0.6900,-0.6298,-0.2736,0.2289
753,0.0,0.0,0.0,0.0,0.0,0.0,0.0426,-1.0164,0.0063,0.6908,-0.6288,-0.2736,0.2293
754,0.0,0.0,0.0,0.0,0.0,0.0,0.0443,-0.9907,0.0005,0.6915,-0.6278,-0.2739,0.2296
755,0.0,0.0,0.0,0.0,0.0,0.0,0.0421,-1.0135,0.0112,0.6925,-0.6267,-0.2739,0.2296
756,0.0,0.0,0.0,0.0,0.0,0.0,0.0400,-1.0164,0.0170,0.6938,-0.6254,-0.2737,0.2296
757,0.0,0.0,0.0,0.0,0.0,0.0,0.0409,-1.0159,0.0189,0.6953,-0.6238,-0.2735,0.2295
758,0.0,0.0,0.0,0.0,0.0,0.0,0.0416,-0.9863,0.0137,0.6967,-0.6222,-0.2734,0.2296
759,0.0,0.0,0.0,0.0,0.0,0.0,0.0439,-0.9844,0.0190,0.6981,-0.6206,-0.2735,0.2296
760,0.0,0.0,0.0,0.0,0.0,0.0,0.0453,-0.9733,0.0216,0.6994,-0.6191,-0.2737,0.2296
761,0.0,0.0,0.0,0.0,0.0,0.0,0.0479,-0.9539,0.0195,0.7004,-0.6177,-0.2740,0.2297
762,0.0,0.0,0.0,0.0,0.0,0.0,0.0486,-0.9597,0.0286,0.7012,-0.6166,-0.2744,0.2297
763,0.0,0.0,0.0,0.0,0.0,0.0,0.0457,-0.9544,0.0311,0.7019,-0.6157,-0.2746,0.2298
764,0.0,0.0,0.0,0.0,0.0,0.0,0.0423,-0.9427,0.0300,0.7022,-0.6151,-0.2750,0.2300
765,0.0,0.0,0.0,0.0,0.0,0.0,0.0500,-0.9485,0.0365,0.7022,-0.6147,-0.2756,0.2304
766,0.0,0.0,0.0,0.0,0.0,0.0,0.0510,-0.9437,0.0366,0.7021,-0.6145,-0.2763,0.2305
767,0.0,0.0,0.0,0.0,0.0,0.0,0.0490,-0.9398,0.0352,0.7015,-0.6147,-0.2771,0.2307
768,0.0,0.0,0.0,0.0,0.0,0.0,0.0525,-0.9510,0.0325,0.7007,-0.6152,-0.2781,0.2307
769,0.0,0.0,0.0,0.0,0.0,0.0,0.0453,-0.9708,0.0245,0.6993,-0.6162,-0.2789,0.2310
770,0.0,0.0,0.0,0.0,0.0,0.0,0.0493,-0.9776,0.0195,0.6979,-0.6173,-0.2799,0.2313
771,0.0,0.0,0.0,0.0,0.0,0.0,0.0493,-0.9830,0.0194,0.6965,-0.6184,-0.2809,0.2315
772,0.0,0.0,0.0,0.0,0.0,0.0,0.0556,-0.9912,0.0210,0.6951,-0.6194,-0.2819,0.2317
773,0.0,0.0,0.0,0.0,0.0,0.0,0.0566,-0.9975,0.0195,0.6939,-0.6204,-0.2827,0.2318
774,0.0,0.0,0.0,0.0,0.0,0.0,0.0587,-0.9883,0.0128,0.6926,-0.6214,-0.2835,0.2319
775,0.0,0.0,0.0,0.0,0.0,0.0,0.0523,-1.0101,0.0135,0.6915,-0.6225,-0.2839,0.2320
776,0.0,0.0,0.0,0.0,0.0,0.0,0.0524,-1.0057,0.0087,0.6905,-0.6235,-0.2840,0.2320
777,0.0,0.0,0.0,0.0,0.0,0.0,0.0655,-1.0062,0.0085,0.6898,-0.6241,-0.2844,0.2319
778,0.0,0.0,0.0,0.0,0.0,0.0,0.0522,-1.0421,0.0133,0.6896,-0.6245,-0.2841,0.2318
779,0.0,0.0,0.0,0.0,0.0,0.0,0.0482,-1.0678,0.0178,0.6900,-0.6246,-0.2830,0.2317
780,0.0,0.0,0.0,0.0,0.0,0.0,0.0422,-1.0950,0.0222,0.6911,-0.6241,-0.2811,0.2320
781,0.0,0.0,0.0,0.0,0.0,0.0,0.0335,-1.0853,0.0177,0.6928,-0.6232,-0.2784,0.2327
782,0.0,0.0,0.0,0.0,0.0,0.0,0.0343,-1.0213,0.0093,0.6946,-0.6220,-0.2755,0.2338
783,0.0,0.0,0.0,0.0,0.0,0.0,0.0296,-0.9635,0.0042,0.6960,-0.6211,-0.2727,0.2355
784,0.0,0.0,0.0,0.0,0.0,0.0,0.0279,-0.8995,-0.0012,0.6967,-0.6207,-0.2703,0.2374
785,0.0,0.0,0.0,0.0,0.0,0.0,0.0266,-0.8806,-0.0086,0.6963,-0.6210,-0.2687,0.2395
786,0.0,0.0,0.0,0.0,0.0,0.0,0.0188,-0.9092,-0.0133,0.6950,-0.6221,-0.2675,0.2415
787,0.0,0.0,0.0,0.0,0.0,0.0,0.0064,-0.9029,-0.0250,0.6930,-0.6239,-0.2669,0.2434
788,0.0,0.0,0.0,0.0,0.0,0.0,0.0035,-0.8980,-0.0258,0.6902,-0.6263,-0.2670,0.2452
789,0.0,0.0,0.0,0.0,0.0,0.0,0.0049,-0.9805,-0.0062,0.6876,-0.6284,-0.2674,0.2466
790,0.0,0.0,0.0,0.0,0.0,0.0,-0.0046,-1.0329,0.0021,0.6857,-0.6300,-0.2676,0.2477
791,0.0,0.0,0.0,0.0,0.0,0.0,0.0007,-1.0299,-0.0177,0.6837,-0.6315,-0.2682,0.2486
792,0.0,0.0,0.0,0.0,0.0,0.0,0.0070,-1.0411,-0.0195,0.6822,-0.6324,-0.2692,0.2492
793,0.0,0.0,0.0,0.0,0.0,0.0,0.0080,-1.0173,-0.0162,0.6812,-0.6330,-0.2702,0.2496
794,0.0,0.0,0.0,0.0,0.0,0.0,0.0141,-1.0169,-0.0071,0.6806,-0.6332,-0.2711,0.2498
795,0.0,0.0,0.0,0.0,0.0,0.0,0.0099,-1.0241,0.0116,0.6805,-0.6331,-0.2715,0.2498
796,0.0,0.0,0.0,0.0,0.0,0.0,0.0124,-1.0251,0.0304,0.6811,-0.6325,-0.2717,0.2496
797,0.0,0.0,0.0,0.0,0.0,0.0,0.0111,-0.9781,0.0260,0.6818,-0.6317,-0.2720,0.2493
798,0.0,0.0,0.0,0.0,0.0,0.0,0.0042,-0.9888,0.0308,0.6825,-0.6311,-0.2722,0.2487
799,0.0,0.0,0.0,0.0,0.0,0.0,0.0050,-0.9980,0.0369,0.6834,-0.6302,-0.2725,0.2480
800,0.0,0.0,0.0,0.0,0.0,0.0,0.0142,-1.0062,0.0404,0.6845,-0.6292,-0.2730,0.2473
801,0.0,0.0,0.0,0.0,0.0,0.0,0.0249,-1.0009,0.0427,0.6858,-0.6278,-0.2736,0.2464
802,0.0,0.0,0.0,0.0,0.0,0.0,0.0276,-0.9674,0.0317,0.6870,-0.6266,-0.2743,0.2454
803,0.0,0.0,0.0,0.0,0.0,0.0,0.0291,-0.9718,0.0287,0.6879,-0.6256,-0.2750,0.2443
804,0.0,0.0,0.0,0.0,0.0,0.0,0.0305,-0.9786,0.0324,0.6889,-0.6248,-0.2757,0.2430
805,0.0,0.0,0.0,0.0,0.0,0.0,0.0305,-0.9907,0.0336,0.6899,-0.6240,-0.2762,0.2417
806,0.0,0.0,0.0,0.0,0.0,0.0,0.0289,-1.0111,0.0352,0.6910,-0.6232,-0.2764,0.2405
807,0.0,0.0,0.0,0.0,0.0,0.0,0.0324,-0.9985,0.0334,0.6922,-0.6223,-0.2763,0.2393
808,0.0,0.0,0.0,0.0,0.0,0.0,0.0296,-0.9839,0.0285,0.6934,-0.6215,-0.2761,0.2381
809,0.0,0.0,0.0,0.0,0.0,0.0,0.0374,-0.9878,0.0273,0.6945,-0.6208,-0.2760,0.2370
810,0.0,0.0,0.0,0.0,0.0,0.0,0.0360,-0.9762,0.0246,0.6956,-0.6201,-0.2759,0.2357
811,0.0,0.0,0.0,0.0,0.0,0.0,0.0385,-0.9592,0.0215,0.6964,-0.6197,-0.2760,0.2343
812,0.0,0.0,0.0,0.0,0.0,0.0,0.0424,-0.9733,0.0221,0.6971,-0.6194,-0.2762,0.2327
813,0.0,0.0,0.0,0.0,0.0,0.0,0.0437,-0.9888,0.0286,0.6978,-0.6192,-0.2763,0.2309
814,0.0,0.0,0.0,0.0,0.0,0.0,0.0476,-0.9932,0.0313,0.6986,-0.6190,-0.2764,0.2291
815,0.0,0.0,0.0,0.0,0.0,0.0,0.0491,-0.9781,0.0282,0.6994,-0.6188,-0.2764,0.2271
816,0.0,0.0,0.0,0.0,0.0,0.0,0.0492,-0.9694,0.0250,0.6999,-0.6189,-0.2763,0.2252
817,0.0,0.0,0.0,0.0,0.0,0.0,0.0544,-0.9835,0.0289,0.7005,-0.6191,-0.2761,0.2233
818,0.0,0.0,0.0,0.0,0.0,0.0,0.0573,-0.9873,0.0312,0.7011,-0.6194,-0.2757,0.2211
819,0.0,0.0,0.0,0.0,0.0,0.0,0.0563,-0.9907,0.0307,0.7017,-0.6197,-0.2750,0.2191
820,0.0,0.0,0.0,0.0,0.0,0.0,0.0550,-0.9849,0.0279,0.7025,-0.6199,-0.2741,0.2170
821,0.0,0.0,0.0,0.0,0.0,0.0,0.0545,-0.9767,0.0262,0.7033,-0.6202,-0.2731,0.2149
822,0.0,0.0,0.0,0.0,0.0,0.0,0.0497,-0.9723,0.0235,0.7040,-0.6205,-0.2720,0.2130
823,0.0,0.0,0.0,0.0,0.0,0.0,0.0469,-0.9606,0.0189,0.7044,-0.6212,-0.2710,0.2109
824,0.0,0.0,0.0,0.0,0.0,0.0,0.0461,-0.9427,0.0120,0.7045,-0.6221,-0.2703,0.2089
825,0.0,0.0,0.0,0.0,0.0,0.0,0.0434,-0.9184,0.0039,0.7040,-0.6235,-0.2701,0.2068
826,0.0,0.0,0.0,0.0,0.0,0.0,0.0362,-0.9689,0.0161,0.7032,-0.6251,-0.2699,0.2048
827,0.0,0.0,0.0,0.0,0.0,0.0,0.0352,-0.9747,0.0150,0.7024,-0.6267,-0.2698,0.2029
828,0.0,0.0,0.0,0.0,0.0,0.0,0.0397,-0.9776,0.0110,0.7014,-0.6282,-0.2701,0.2012
829,0.0,0.0,0.0,0.0,0.0,0.0,0.0426,-0.9985,0.0101,0.7005,-0.6296,-0.2703,0.1996
830,0.0,0.0,0.0,0.0,0.0,0.0,0.0467,-0.9917,-0.0020,0.6993,-0.6311,-0.2707,0.1984
831,0.0,0.0,0.0,0.0,0.0,0.0,0.0582,-0.9839,-0.0127,0.6978,-0.6326,-0.2717,0.1974
832,0.0,0.0,0.0,0.0,0.0,0.0,0.0655,-0.9931,-0.0154,0.6962,-0.6342,-0.2729,0.1966
833,0.0,0.0,0.0,0.0,0.0,0.0,0.0763,-0.9931,-0.0176,0.6946,-0.6357,-0.2742,0.1955
834,0.0,0.0,0.0,0.0,0.0,0.0,0.0740,-0.9858,-0.0227,0.6930,-0.6373,-0.2752,0.1945
835,0.0,0.0,0.0,0.0,0.0,0.0,0.0690,-1.0004,-0.0200,0.6915,-0.6392,-0.2755,0.1935
836,0.0,0.0,0.0,0.0,0.0,0.0,0.0580,-0.9781,-0.0261,0.6899,-0.6411,-0.2754,0.1927
837,0.0,0.0,0.0,0.0,0.0,0.0,0.0614,-0.9737,-0.0270,0.6883,-0.6430,-0.2756,0.1921
838,0.0,0.0,0.0,0.0,0.0,0.0,0.0712,-0.9810,-0.0303,0.6866,-0.6446,-0.2763,0.1917
839,0.0,0.0,0.0,0.0,0.0,0.0,0.0724,-0.9829,-0.0395,0.6849,-0.6461,-0.2772,0.1913
840,0.0,0.0,0.0,0.0,0.0,0.0,0.0744,-0.9887,-0.0440,0.6832,-0.6476,-0.2782,0.1908
841,0.0,0.0,0.0,0.0,0.0,0.0,0.0740,-0.9911,-0.0498,0.6815,-0.6491,-0.2791,0.1904
842,0.0,0.0,0.0,0.0,0.0,0.0,0.0721,-1.0003,-0.0543,0.6799,-0.6505,-0.2800,0.1900
843,0.0,0.0,0.0,0.0,0.0,0.0,0.0702,-1.0115,-0.0559,0.6785,-0.6518,-0.2808,0.1897
844,0.0,0.0,0.0,0.0,0.0,0.0,0.0727,-1.0173,-0.0585,0.6773,-0.6528,-0.2815,0.1895
845,0.0,0.0,0.0,0.0,0.0,0.0,0.0747,-1.0231,-0.0640,0.6762,-0.6537,-0.2820,0.1893
846,0.0,0.0,0.0,0.0,0.0,0.0,0.0744,-1.0246,-0.0713,0.6754,-0.6544,-0.2823,0.1893
847,0.0,0.0,0.0,0.0,0.0,0.0,0.0749,-1.0285,-0.0757,0.6749,-0.6549,-0.2825,0.1892
848,0.0,0.0,0.0,0.0,0.0,0.0,0.0735,-1.0265,-0.0800,0.6746,-0.6553,-0.2825,0.1891
849,0.0,0.0,0.0,0.0,0.0,0.0,0.0732,-1.0168,-0.0851,0.6743,-0.6555,-0.2824,0.1892
850,0.0,0.0,0.0,0.0,0.0,0.0,0.0732,-1.0115,-0.0850,0.6743,-0.6556,-0.2822,0.1892
851,0.0,0.0,0.0,0.0,0.0,0.0,0.0697,-1.0071,-0.0824,0.6744,-0.6556,-0.2819,0.1894
852,0.0,0.0,0.0,0.0,0.0,0.0,0.0687,-1.0018,-0.0808,0.6747,-0.6554,-0.2815,0.1895
853,0.0,0.0,0.0,0.0,0.0,0.0,0.0658,-0.9959,-0.0787,0.6751,-0.6551,-0.2811,0.1897
854,0.0,0.0,0.0,0.0,0.0,0.0,0.0658,-0.9901,-0.0767,0.6756,-0.6548,-0.2806,0.1900
855,0.0,0.0,0.0,0.0,0.0,0.0,0.0628,-0.9867,-0.0751,0.6760,-0.6545,-0.2802,0.1904
856,0.0,0.0,0.0,0.0,0.0,0.0,0.0633,-0.9843,-0.0731,0.6764,-0.6541,-0.2799,0.1908
857,0.0,0.0,0.0,0.0,0.0,0.0,0.0637,-0.9843,-0.0693,0.6768,-0.6536,-0.2796,0.1913
858,0.0,0.0,0.0,0.0,0.0,0.0,0.0622,-0.9838,-0.0693,0.6771,-0.6532,-0.2794,0.1917
859,0.0,0.0,0.0,0.0,0.0,0.0,0.0670,-0.9838,-0.0669,0.6774,-0.6527,-0.2794,0.1922
860,0.0,0.0,0.0,0.0,0.0,0.0,0.0704,-0.9829,-0.0655,0.6777,-0.6523,-0.2794,0.1926
861,0.0,0.0,0.0,0.0,0.0,0.0,0.0704,-0.9877,-0.0632,0.6779,-0.6520,-0.2794,0.1932
862,0.0,0.0,0.0,0.0,0.0,0.0,0.0684,-0.9926,-0.0628,0.6781,-0.6516,-0.2792,0.1940
863,0.0,0.0,0.0,0.0,0.0,0.0,0.0699,-0.9940,-0.0657,0.6783,-0.6512,-0.2791,0.1948
864,0.0,0.0,0.0,0.0,0.0,0.0,0.0709,-0.9931,-0.0677,0.6785,-0.6508,-0.2790,0.1955
865,0.0,0.0,0.0,0.0,0.0,0.0,0.0680,-0.9969,-0.0672,0.6787,-0.6505,-0.2788,0.1963
866,0.0,0.0,0.0,0.0,0.0,0.0,0.0674,-1.0062,-0.0616,0.6790,-0.6500,-0.2784,0.1972
867,0.0,0.0,0.0,0.0,0.0,0.0,0.0712,-1.0125,-0.0574,0.6795,-0.6494,-0.2779,0.1983
868,0.0,0.0,0.0,0.0,0.0,0.0,0.0701,-1.0236,-0.0518,0.6803,-0.6486,-0.2770,0.1995
869,0.0,0.0,0.0,0.0,0.0,0.0,0.0675,-1.0396,-0.0473,0.6814,-0.6475,-0.2758,0.2007
870,0.0,0.0,0.0,0.0,0.0,0.0,0.0563,-1.0469,-0.0448,0.6829,-0.6462,-0.2742,0.2021
871,0.0,0.0,0.0,0.0,0.0,0.0,0.0534,-1.0333,-0.0469,0.6845,-0.6448,-0.2724,0.2036
872,0.0,0.0,0.0,0.0,0.0,0.0,0.0401,-1.0406,-0.0400,0.6865,-0.6431,-0.2701,0.2054
873,0.0,0.0,0.0,0.0,0.0,0.0,0.0266,-1.0639,-0.0271,0.6889,-0.6411,-0.2673,0.2074
874,0.0,0.0,0.0,0.0,0.0,0.0,0.0173,-1.0585,-0.0206,0.6918,-0.6386,-0.2641,0.2094
875,0.0,0.0,0.0,0.0,0.0,0.0,0.0089,-1.0227,-0.0153,0.6950,-0.6354,-0.2612,0.2122
876,0.0,0.0,0.0,0.0,0.0,0.0,0.0024,-0.9955,-0.0016,0.6983,-0.6318,-0.2583,0.2155
877,0.0,0.0,0.0,0.0,0.0,0.0,-0.0086,-0.9771,0.0134,0.7017,-0.6282,-0.2551,0.2188
878,0.0,0.0,0.0,0.0,0.0,0.0,-0.0088,-0.9509,0.0260,0.7047,-0.6245,-0.2527,0.2225
879,0.0,0.0,0.0,0.0,0.0,0.0,0.0051,-0.9451,0.0403,0.7074,-0.6206,-0.2513,0.2264
880,0.0,0.0,0.0,0.0,0.0,0.0,0.0134,-0.9578,0.0607,0.7099,-0.6165,-0.2507,0.2305
881,0.0,0.0,0.0,0.0,0.0,0.0,0.0258,-0.9689,0.0747,0.7123,-0.6123,-0.2507,0.2343
882,0.0,0.0,0.0,0.0,0.0,0.0,0.0395,-0.9525,0.0733,0.7143,-0.6083,-0.2512,0.2380
883,0.0,0.0,0.0,0.0,0.0,0.0,0.0412,-0.9622,0.0837,0.7161,-0.6046,-0.2519,0.2412
884,0.0,0.0,0.0,0.0,0.0,0.0,0.0550,-0.9777,0.0996,0.7179,-0.6009,-0.2529,0.2441
885,0.0,0.0,0.0,0.0,0.0,0.0,0.0581,-0.9826,0.1148,0.7199,-0.5972,-0.2537,0.2462
886,0.0,0.0,0.0,0.0,0.0,0.0,0.0564,-0.9782,0.1275,0.7222,-0.5936,-0.2544,0.2478
887,0.0,0.0,0.0,0.0,0.0,0.0,0.0582,-0.9666,0.1364,0.7246,-0.5899,-0.2549,0.2490
888,0.0,0.0,0.0,0.0,0.0,0.0,0.0594,-0.9084,0.1332,0.7270,-0.5864,-0.2553,0.2500
889,0.0,0.0,0.0,0.0,0.0,0.0,0.0666,-0.9041,0.1380,0.7290,-0.5833,-0.2561,0.2505
890,0.0,0.0,0.0,0.0,0.0,0.0,0.0651,-0.8953,0.1391,0.7306,-0.5808,-0.2571,0.2505
891,0.0,0.0,0.0,0.0,0.0,0.0,0.0682,-0.9099,0.1537,0.7320,-0.5787,-0.2582,0.2503
892,0.0,0.0,0.0,0.0,0.0,0.0,0.0699,-0.9914,0.1864,0.7336,-0.5767,-0.2587,0.2498
893,0.0,0.0,0.0,0.0,0.0,0.0,0.0692,-1.0317,0.1914,0.7356,-0.5744,-0.2586,0.2491
894,0.0,0.0,0.0,0.0,0.0,0.0,0.0714,-0.9856,0.1850,0.7381,-0.5718,-0.2580,0.2485
895,0.0,0.0,0.0,0.0,0.0,0.0,0.0705,-0.9638,0.1806,0.7406,-0.5693,-0.2571,0.2479
896,0.0,0.0,0.0,0.0,0.0,0.0,0.0701,-0.8891,0.1618,0.7426,-0.5673,-0.2561,0.2472
897,0.0,0.0,0.0,0.0,0.0,0.0,0.0665,-0.9099,0.1678,0.7439,-0.5662,-0.2555,0.2465
898,0.0,0.0,0.0,0.0,0.0,0.0,0.0730,-0.9638,0.1821,0.7451,-0.5653,-0.2548,0.2456
899,0.0,0.0,0.0,0.0,0.0,0.0,0.0625,-0.9822,0.1901,0.7464,-0.5646,-0.2536,0.2447
900,0.0,0.0,0.0,0.0,0.0,0.0,0.0568,-0.9526,0.1855,0.7476,-0.5640,-0.2522,0.2438
901,0.0,0.0,0.0,0.0,0.0,0.0,0.0432,-0.9400,0.1875,0.7487,-0.5636,-0.2506,0.2429
902,0.0,0.0,0.0,0.0,0.0,0.0,0.0381,-0.9424,0.1962,0.7497,-0.5633,-0.2491,0.2421
903,0.0,0.0,0.0,0.0,0.0,0.0,0.0461,-0.9551,0.2103,0.7507,-0.5629,-0.2478,0.2412
904,0.0,0.0,0.0,0.0,0.0,0.0,0.0509,-0.9507,0.2127,0.7518,-0.5623,-0.2467,0.2402
905,0.0,0.0,0.0,0.0,0.0,0.0,0.0679,-0.9493,0.2196,0.7531,-0.5615,-0.2459,0.2388
906,0.0,0.0,0.0,0.0,0.0,0.0,0.0796,-0.9396,0.2176,0.7545,-0.5607,-0.2454,0.2371
907,0.0,0.0,0.0,0.0,0.0,0.0,0.0527,-0.9056,0.2019,0.7556,-0.5605,-0.2442,0.2352
908,0.0,0.0,0.0,0.0,0.0,0.0,0.0270,-0.8954,0.1959,0.7561,-0.5613,-0.2425,0.2336
909,0.0,0.0,0.0,0.0,0.0,0.0,0.0244,-0.9002,0.2016,0.7562,-0.5623,-0.2409,0.2322
910,0.0,0.0,0.0,0.0,0.0,0.0,0.0127,-0.8949,0.2049,0.7559,-0.5637,-0.2395,0.2312
911,0.0,0.0,0.0,0.0,0.0,0.0,0.0093,-0.8949,0.2050,0.7554,-0.5653,-0.2384,0.2302
912,0.0,0.0,0.0,0.0,0.0,0.0,0.0233,-0.9148,0.2096,0.7543,-0.5670,-0.2384,0.2294
913,0.0,0.0,0.0,0.0,0.0,0.0,0.0257,-0.9400,0.2062,0.7531,-0.5688,-0.2387,0.2287
914,0.0,0.0,0.0,0.0,0.0,0.0,0.0433,-0.9012,0.1819,0.7513,-0.5709,-0.2399,0.2280
915,0.0,0.0,0.0,0.0,0.0,0.0,0.0523,-0.9225,0.1712,0.7490,-0.5736,-0.2415,0.2274
916,0.0,0.0,0.0,0.0,0.0,0.0,0.0572,-0.9502,0.1638,0.7464,-0.5765,-0.2430,0.2268
917,0.0,0.0,0.0,0.0,0.0,0.0,0.0632,-0.9671,0.1547,0.7438,-0.5796,-0.2445,0.2260
918,0.0,0.0,0.0,0.0,0.0,0.0,0.0662,-0.9962,0.1506,0.7412,-0.5827,-0.2458,0.2251
919,0.0,0.0,0.0,0.0,0.0,0.0,0.0688,-1.0030,0.1393,0.7390,-0.5856,-0.2468,0.2239
920,0.0,0.0,0.0,0.0,0.0,0.0,0.0700,-1.0200,0.1303,0.7370,-0.5882,-0.2476,0.2225
921,0.0,0.0,0.0,0.0,0.0,0.0,0.0662,-1.0243,0.1226,0.7356,-0.5905,-0.2478,0.2209
922,0.0,0.0,0.0,0.0,0.0,0.0,0.0620,-1.0146,0.1137,0.7344,-0.5927,-0.2477,0.2190
923,0.0,0.0,0.0,0.0,0.0,0.0,0.0612,-1.0112,0.1070,0.7335,-0.5946,-0.2475,0.2170
924,0.0,0.0,0.0,0.0,0.0,0.0,0.0602,-1.0112,0.1051,0.7330,-0.5963,-0.2470,0.2148
925,0.0,0.0,0.0,0.0,0.0,0.0,0.0550,-1.0092,0.1004,0.7328,-0.5978,-0.2462,0.2122
926,0.0,0.0,0.0,0.0,0.0,0.0,0.0478,-0.9961,0.0955,0.7329,-0.5991,-0.2451,0.2094
927,0.0,0.0,0.0,0.0,0.0,0.0,0.0424,-0.9903,0.0962,0.7332,-0.6002,-0.2440,0.2065
928,0.0,0.0,0.0,0.0,0.0,0.0,0.0444,-0.9801,0.0934,0.7335,-0.6013,-0.2430,0.2036
929,0.0,0.0,0.0,0.0,0.0,0.0,0.0498,-0.9821,0.0947,0.7338,-0.6022,-0.2421,0.2007
930,0.0,0.0,0.0,0.0,0.0,0.0,0.0502,-0.9874,0.0956,0.7343,-0.6030,-0.2411,0.1975
931,0.0,0.0,0.0,0.0,0.0,0.0,0.0532,-0.9894,0.0945,0.7349,-0.6038,-0.2401,0.1943
932,0.0,0.0,0.0,0.0,0.0,0.0,0.0521,-0.9855,0.0980,0.7356,-0.6045,-0.2390,0.1908
933,0.0,0.0,0.0,0.0,0.0,0.0,0.0457,-0.9991,0.1037,0.7364,-0.6052,-0.2375,0.1871
934,0.0,0.0,0.0,0.0,0.0,0.0,0.0437,-0.8439,0.0947,0.7375,-0.6056,-0.2360,0.1835
935,0.0,0.0,0.0,0.0,0.0,0.0,0.0384,-0.9350,0.0829,0.7379,-0.6066,-0.2347,0.1799
936,0.0,0.0,0.0,0.0,0.0,0.0,0.0451,-0.9505,0.0848,0.7381,-0.6078,-0.2338,0.1764
937,0.0,0.0,0.0,0.0,0.0,0.0,0.0379,-0.9588,0.0805,0.7380,-0.6092,-0.2331,0.1729
938,0.0,0.0,0.0,0.0,0.0,0.0,0.0381,-0.9525,0.0714,0.7376,-0.6108,-0.2326,0.1697
939,0.0,0.0,0.0,0.0,0.0,0.0,0.0344,-0.9495,0.0619,0.7368,-0.6127,-0.2322,0.1669
940,0.0,0.0,0.0,0.0,0.0,0.0,0.0359,-0.9553,0.0564,0.7356,-0.6147,-0.2322,0.1646
941,0.0,0.0,0.0,0.0,0.0,0.0,0.0408,-0.9626,0.0533,0.7341,-0.6168,-0.2326,0.1627
942,0.0,0.0,0.0,0.0,0.0,0.0,0.0371,-0.9675,0.0470,0.7324,-0.6190,-0.2332,0.1613
943,0.0,0.0,0.0,0.0,0.0,0.0,0.0358,-0.9568,0.0380,0.7303,-0.6214,-0.2339,0.1606
944,0.0,0.0,0.0,0.0,0.0,0.0,0.0300,-0.9640,0.0346,0.7279,-0.6240,-0.2347,0.1605
945,0.0,0.0,0.0,0.0,0.0,0.0,0.0285,-0.9791,0.0353,0.7253,-0.6264,-0.2357,0.1612
946,0.0,0.0,0.0,0.0,0.0,0.0,0.0351,-1.0252,0.0435,0.7228,-0.6284,-0.2370,0.1627
947,0.0,0.0,0.0,0.0,0.0,0.0,0.0399,-1.0577,0.0452,0.7209,-0.6295,-0.2385,0.1649
948,0.0,0.0,0.0,0.0,0.0,0.0,0.0503,-1.0489,0.0379,0.7193,-0.6300,-0.2401,0.1675
949,0.0,0.0,0.0,0.0,0.0,0.0,0.0582,-1.0310,0.0303,0.7180,-0.6300,-0.2419,0.1707
950,0.0,0.0,0.0,0.0,0.0,0.0,0.0682,-1.0135,0.0233,0.7166,-0.6298,-0.2438,0.1743
951,0.0,0.0,0.0,0.0,0.0,0.0,0.0716,-1.0063,0.0199,0.7152,-0.6294,-0.2458,0.1785
952,0.0,0.0,0.0,0.0,0.0,0.0,0.0785,-0.9970,0.0195,0.7139,-0.6289,-0.2478,0.1831
953,0.0,0.0,0.0,0.0,0.0,0.0,0.0790,-0.9912,0.0201,0.7125,-0.6282,-0.2499,0.1878
954,0.0,0.0,0.0,0.0,0.0,0.0,0.0824,-0.9849,0.0226,0.7112,-0.6273,-0.2522,0.1924
955,0.0,0.0,0.0,0.0,0.0,0.0,0.0921,-0.9796,0.0244,0.7100,-0.6263,-0.2548,0.1970
956,0.0,0.0,0.0,0.0,0.0,0.0,0.0999,-0.9772,0.0248,0.7087,-0.6252,-0.2577,0.2013
957,0.0,0.0,0.0,0.0,0.0,0.0,0.1081,-0.9801,0.0260,0.7074,-0.6240,-0.2607,0.2054
958,0.0,0.0,0.0,0.0,0.0,0.0,0.1193,-0.9893,0.0290,0.7064,-0.6228,-0.2638,0.2087
959,0.0,0.0,0.0,0.0,0.0,0.0,0.1212,-1.0039,0.0282,0.7057,-0.6215,-0.2667,0.2115
960,0.0,0.0,0.0,0.0,0.0,0.0,0.1154,-0.9990,0.0240,0.7051,-0.6202,-0.2692,0.2137
961,0.0,0.0,0.0,0.0,0.0,0.0,0.1169,-0.9971,0.0221,0.7048,-0.6190,-0.2716,0.2154
962,0.0,0.0,0.0,0.0,0.0,0.0,0.1189,-0.9908,0.0208,0.7047,-0.6178,-0.2738,0.2165
963,0.0,0.0,0.0,0.0,0.0,0.0,0.1190,-0.9791,0.0186,0.7046,-0.6167,-0.2759,0.2170
964,0.0,0.0,0.0,0.0,0.0,0.0,0.1179,-0.9879,0.0247,0.7048,-0.6157,-0.2777,0.2171
965,0.0,0.0,0.0,0.0,0.0,0.0,0.1188,-0.9879,0.0285,0.7052,-0.6147,-0.2791,0.2168
966,0.0,0.0,0.0,0.0,0.0,0.0,0.1153,-0.9859,0.0301,0.7056,-0.6139,-0.2802,0.2162
967,0.0,0.0,0.0,0.0,0.0,0.0,0.1095,-0.9830,0.0317,0.7062,-0.6132,-0.2808,0.2153
968,0.0,0.0,0.0,0.0,0.0,0.0,0.1013,-0.9743,0.0292,0.7067,-0.6128,-0.2811,0.2144
969,0.0,0.0,0.0,0.0,0.0,0.0,0.0939,-0.9743,0.0308,0.7072,-0.6126,-0.2810,0.2134
970,0.0,0.0,0.0,0.0,0.0,0.0,0.0885,-0.9767,0.0313,0.7077,-0.6126,-0.2807,0.2123
971,0.0,0.0,0.0,0.0,0.0,0.0,0.0847,-0.9747,0.0290,0.7080,-0.6128,-0.2803,0.2113
972,0.0,0.0,0.0,0.0,0.0,0.0,0.0827,-0.9752,0.0290,0.7082,-0.6131,-0.2797,0.2104
973,0.0,0.0,0.0,0.0,0.0,0.0,0.0793,-0.9772,0.0300,0.7084,-0.6135,-0.2791,0.2095
974,0.0,0.0,0.0,0.0,0.0,0.0,0.0758,-0.9830,0.0319,0.7085,-0.6140,-0.2783,0.2086
975,0.0,0.0,0.0,0.0,0.0,0.0,0.0744,-0.9840,0.0324,0.7087,-0.6144,-0.2776,0.2078
976,0.0,0.0,0.0,0.0,0.0,0.0,0.0739,-0.9840,0.0329,0.7089,-0.6149,-0.2768,0.2070
977,0.0,0.0,0.0,0.0,0.0,0.0,0.0724,-0.9869,0.0333,0.7090,-0.6153,-0.2760,0.2062
978,0.0,0.0,0.0,0.0,0.0,0.0,0.0704,-0.9844,0.0349,0.7092,-0.6156,-0.2753,0.2055
979,0.0,0.0,0.0,0.0,0.0,0.0,0.0680,-0.9825,0.0359,0.7094,-0.6159,-0.2745,0.2049
980,0.0,0.0,0.0,0.0,0.0,0.0,0.0660,-0.9849,0.0383,0.7096,-0.6162,-0.2737,0.2044
981,0.0,0.0,0.0,0.0,0.0,0.0,0.0635,-0.9820,0.0394,0.7099,-0.6164,-0.2729,0.2040
982,0.0,0.0,0.0,0.0,0.0,0.0,0.0630,-0.9796,0.0400,0.7100,-0.6166,-0.2722,0.2037
983,0.0,0.0,0.0,0.0,0.0,0.0,0.0639,-0.9801,0.0423,0.7102,-0.6168,-0.2716,0.2034
984,0.0,0.0,0.0,0.0,0.0,0.0,0.0624,-0.9786,0.0453,0.7104,-0.6169,-0.2710,0.2032
985,0.0,0.0,0.0,0.0,0.0,0.0,0.0614,-0.9733,0.0483,0.7105,-0.6171,-0.2703,0.2032
986,0.0,0.0,0.0,0.0,0.0,0.0,0.0599,-0.9767,0.0517,0.7107,-0.6172,-0.2696,0.2033
987,0.0,0.0,0.0,0.0,0.0,0.0,0.0583,-0.9791,0.0584,0.7109,-0.6173,-0.2687,0.2035
988,0.0,0.0,0.0,0.0,0.0,0.0,0.0587,-0.9786,0.0628,0.7110,-0.6174,-0.2678,0.2038
989,0.0,0.0,0.0,0.0,0.0,0.0,0.0580,-0.9903,0.0698,0.7113,-0.6174,-0.2666,0.2044
990,0.0,0.0,0.0,0.0,0.0,0.0,0.0578,-1.0005,0.0788,0.7118,-0.6172,-0.2653,0.2049
991,0.0,0.0,0.0,0.0,0.0,0.0,0.0569,-0.9995,0.0793,0.7124,-0.6168,-0.2639,0.2056
992,0.0,0.0,0.0,0.0,0.0,0.0,0.0590,-0.9840,0.0713,0.7130,-0.6165,-0.2629,0.2063
993,0.0,0.0,0.0,0.0,0.0,0.0,0.0642,-0.9607,0.0572,0.7133,-0.6162,-0.2623,0.2069
994,0.0,0.0,0.0,0.0,0.0,0.0,0.0713,-0.9457,0.0429,0.7131,-0.6162,-0.2624,0.2071
995,0.0,0.0,0.0,0.0,0.0,0.0,0.0720,-0.9442,0.0318,0.7125,-0.6167,-0.2628,0.2072
996,0.0,0.0,0.0,0.0,0.0,0.0,0.0737,-0.9544,0.0204,0.7115,-0.6175,-0.2637,0.2070
997,0.0,0.0,0.0,0.0,0.0,0.0,0.0742,-0.9704,0.0148,0.7104,-0.6186,-0.2646,0.2064
998,0.0,0.0,0.0,0.0,0.0,0.0,0.0696,-0.9791,0.0027,0.7091,-0.6200,-0.2656,0.2055
999,0.0,0.0,0.0,0.0,0.0,0.0,0.0614,-0.9936,-0.0042,0.7078,-0.6215,-0.2664,0.2045
1000,0.0,0.0,0.0,0.0,0.0,0.0,0.0532,-1.0043,-0.0106,0.7064,-0.6231,-0.2670,0.2036
1001,0.0,0.0,0.0,0.0,0.0,0.0,0.0508,-1.0144,-0.0122,0.7052,-0.6245,-0.2675,0.2029
1002,0.0,0.0,0.0,0.0,0.0,0.0,0.0508,-1.0212,-0.0113,0.7042,-0.6256,-0.2679,0.2025
1003,0.0,0.0,0.0,0.0,0.0,0.0,0.0498,-1.0203,-0.0118,0.7033,-0.6264,-0.2682,0.2024
1004,0.0,0.0,0.0,0.0,0.0,0.0,0.0527,-1.0169,-0.0103,0.7026,-0.6270,-0.2685,0.2026
1005,0.0,0.0,0.0,0.0,0.0,0.0,0.0600,-1.0111,-0.0070,0.7021,-0.6273,-0.2688,0.2032
1006,0.0,0.0,0.0,0.0,0.0,0.0,0.0663,-0.9989,-0.0059,0.7017,-0.6274,-0.2691,0.2040
1007,0.0,0.0,0.0,0.0,0.0,0.0,0.0687,-0.9873,-0.0038,0.7013,-0.6273,-0.2694,0.2050
1008,0.0,0.0,0.0,0.0,0.0,0.0,0.0682,-0.9800,-0.0017,0.7010,-0.6273,-0.2697,0.2061
1009,0.0,0.0,0.0,0.0,0.0,0.0,0.0686,-0.9820,0.0021,0.7006,-0.6272,-0.2700,0.2073
1010,0.0,0.0,0.0,0.0,0.0,0.0,0.0661,-0.9791,0.0042,0.7001,-0.6272,-0.2702,0.2085
1011,0.0,0.0,0.0,0.0,0.0,0.0,0.0651,-0.9810,0.0085,0.6997,-0.6273,-0.2702,0.2097
1012,0.0,0.0,0.0,0.0,0.0,0.0,0.0602,-0.9825,0.0110,0.6992,-0.6274,-0.2700,0.2110
1013,0.0,0.0,0.0,0.0,0.0,0.0,0.0567,-0.9830,0.0110,0.6987,-0.6277,-0.2697,0.2123
1014,0.0,0.0,0.0,0.0,0.0,0.0,0.0523,-0.9854,0.0130,0.6982,-0.6280,-0.2693,0.2135
1015,0.0,0.0,0.0,0.0,0.0,0.0,0.0498,-0.9897,0.0154,0.6979,-0.6282,-0.2689,0.2147
1016,0.0,0.0,0.0,0.0,0.0,0.0,0.0449,-0.9960,0.0197,0.6977,-0.6282,-0.2685,0.2157
1017,0.0,0.0,0.0,0.0,0.0,0.0,0.0433,-1.0009,0.0235,0.6977,-0.6281,-0.2681,0.2165
1018,0.0,0.0,0.0,0.0,0.0,0.0,0.0437,-1.0028,0.0268,0.6979,-0.6276,-0.2679,0.2173
1019,0.0,0.0,0.0,0.0,0.0,0.0,0.0451,-1.0024,0.0297,0.6983,-0.6269,-0.2679,0.2180
1020,0.0,0.0,0.0,0.0,0.0,0.0,0.0471,-0.9946,0.0313,0.6989,-0.6261,-0.2681,0.2185
1021,0.0,0.0,0.0,0.0,0.0,0.0,0.0480,-0.9902,0.0347,0.6995,-0.6251,-0.2683,0.2189
1022,0.0,0.0,0.0,0.0,0.0,0.0,0.0513,-0.9878,0.0376,0.7002,-0.6241,-0.2687,0.2193
1023,0.0,0.0,0.0,0.0,0.0,0.0,0.0547,-0.9801,0.0391,0.7008,-0.6231,-0.2691,0.2196
1024,0.0,0.0,0.0,0.0,0.0,0.0,0.0567,-0.9743,0.0387,0.7014,-0.6222,-0.2695,0.2199
1025,0.0,0.0,0.0,0.0,0.0,0.0,0.0591,-0.9767,0.0411,0.7018,-0.6214,-0.2698,0.2202
1026,0.0,0.0,0.0,0.0,0.0,0.0,0.0596,-0.9767,0.0420,0.7022,-0.6207,-0.2702,0.2205
1027,0.0,0.0,0.0,0.0,0.0,0.0,0.0601,-0.9733,0.0397,0.7025,-0.6201,-0.2705,0.2209
1028,0.0,0.0,0.0,0.0,0.0,0.0,0.0606,-0.9723,0.0382,0.7026,-0.6197,-0.2708,0.2212
1029,0.0,0.0,0.0,0.0,0.0,0.0,0.0607,-0.9699,0.0358,0.7027,-0.6194,-0.2712,0.2215
1030,0.0,0.0,0.0,0.0,0.0,0.0,0.0593,-0.9684,0.0330,0.7025,-0.6193,-0.2715,0.2217
1031,0.0,0.0,0.0,0.0,0.0,0.0,0.0579,-0.9670,0.0292,0.7022,-0.6194,-0.2719,0.2219
1032,0.0,0.0,0.0,0.0,0.0,0.0,0.0560,-0.9699,0.0248,0.7018,-0.6197,-0.2724,0.2221
1033,0.0,0.0,0.0,0.0,0.0,0.0,0.0565,-0.9771,0.0227,0.7011,-0.6200,-0.2731,0.2223
1034,0.0,0.0,0.0,0.0,0.0,0.0,0.0575,-0.9873,0.0211,0.7005,-0.6204,-0.2737,0.2223
1035,0.0,0.0,0.0,0.0,0.0,0.0,0.0570,-0.9946,0.0200,0.7000,-0.6207,-0.2744,0.2223
1036,0.0,0.0,0.0,0.0,0.0,0.0,0.0581,-0.9951,0.0151,0.6994,-0.6210,-0.2752,0.2223
1037,0.0,0.0,0.0,0.0,0.0,0.0,0.0606,-0.9956,0.0136,0.6989,-0.6212,-0.2761,0.2223
1038,0.0,0.0,0.0,0.0,0.0,0.0,0.0601,-0.9912,0.0118,0.6984,-0.6214,-0.2769,0.2223
1039,0.0,0.0,0.0,0.0,0.0,0.0,0.0635,-0.9883,0.0118,0.6980,-0.6215,-0.2778,0.2224
1040,0.0,0.0,0.0,0.0,0.0,0.0,0.0675,-0.9859,0.0093,0.6975,-0.6215,-0.2788,0.2224
