,Position_X,Position_Y,Position_Z,Velocity_X,Velocity_Y,Velocity_Z,Acceleration_X,Acceleration_Y,Acceleration_Z,Quaterion_0,Quaterion_1,Quaterion_2,Quaterion_3
51,0.0,0.0,0.0,0.0,0.0,0.0,0.0611,-1.0016,0.1951,0.7942,-0.6003,-0.0748,0.0577
52,0.0,0.0,0.0,0.0,0.0,0.0,0.0537,-0.9967,0.1990,0.7946,-0.6001,-0.0729,0.0570
53,0.0,0.0,0.0,0.0,0.0,0.0,0.0459,-0.9913,0.2033,0.7950,-0.5998,-0.0709,0.0566
54,0.0,0.0,0.0,0.0,0.0,0.0,0.0425,-0.9860,0.2048,0.7955,-0.5993,-0.0689,0.0564
55,0.0,0.0,0.0,0.0,0.0,0.0,0.0410,-0.9806,0.2082,0.7962,-0.5986,-0.0670,0.0564
56,0.0,0.0,0.0,0.0,0.0,0.0,0.0405,-0.9723,0.2087,0.7968,-0.5980,-0.0654,0.0565
57,0.0,0.0,0.0,0.0,0.0,0.0,0.0420,-0.9665,0.2087,0.7973,-0.5974,-0.0641,0.0568
58,0.0,0.0,0.0,0.0,0.0,0.0,0.0459,-0.9650,0.2107,0.7978,-0.5969,-0.0630,0.0574
59,0.0,0.0,0.0,0.0,0.0,0.0,0.0503,-0.9674,0.2136,0.7981,-0.5964,-0.0623,0.0580
60,0.0,0.0,0.0,0.0,0.0,0.0,0.0528,-0.9689,0.2161,0.7986,-0.5959,-0.0616,0.0586
61,0.0,0.0,0.0,0.0,0.0,0.0,0.0547,-0.9679,0.2161,0.7990,-0.5953,-0.0612,0.0591
62,0.0,0.0,0.0,0.0,0.0,0.0,0.0581,-0.9450,0.1975,0.7991,-0.5951,-0.0611,0.0593
63,0.0,0.0,0.0,0.0,0.0,0.0,0.0674,-0.9596,0.1965,0.7987,-0.5956,-0.0621,0.0593
64,0.0,0.0,0.0,0.0,0.0,0.0,0.0738,-0.9884,0.2092,0.7984,-0.5959,-0.0631,0.0590
65,0.0,0.0,0.0,0.0,0.0,0.0,0.0679,-0.9796,0.1999,0.7978,-0.5966,-0.0640,0.0585
66,0.0,0.0,0.0,0.0,0.0,0.0,0.0675,-1.0065,0.2063,0.7972,-0.5974,-0.0647,0.0581
67,0.0,0.0,0.0,0.0,0.0,0.0,0.0650,-1.0055,0.2034,0.7969,-0.5978,-0.0649,0.0576
68,0.0,0.0,0.0,0.0,0.0,0.0,0.0567,-0.9991,0.1990,0.7968,-0.5981,-0.0647,0.0570
69,0.0,0.0,0.0,0.0,0.0,0.0,0.0469,-0.9977,0.2009,0.7969,-0.5980,-0.0643,0.0568
70,0.0,0.0,0.0,0.0,0.0,0.0,0.0420,-0.9947,0.2033,0.7972,-0.5976,-0.0638,0.0569
71,0.0,0.0,0.0,0.0,0.0,0.0,0.0444,-0.9894,0.2063,0.7977,-0.5971,-0.0634,0.0571
72,0.0,0.0,0.0,0.0,0.0,0.0,0.0537,-0.9821,0.2097,0.7981,-0.5963,-0.0634,0.0577
73,0.0,0.0,0.0,0.0,0.0,0.0,0.0625,-0.9767,0.2117,0.7988,-0.5954,-0.0637,0.0582
74,0.0,0.0,0.0,0.0,0.0,0.0,0.0718,-0.9714,0.2122,0.7994,-0.5945,-0.0645,0.0587
75,0.0,0.0,0.0,0.0,0.0,0.0,0.0782,-0.9665,0.2097,0.7998,-0.5938,-0.0657,0.0591
76,0.0,0.0,0.0,0.0,0.0,0.0,0.0851,-0.9631,0.2078,0.7998,-0.5935,-0.0673,0.0595
77,0.0,0.0,0.0,0.0,0.0,0.0,0.0909,-0.9675,0.2112,0.7998,-0.5933,-0.0689,0.0598
78,0.0,0.0,0.0,0.0,0.0,0.0,0.0944,-0.9777,0.2132,0.7999,-0.5930,-0.0705,0.0602
79,0.0,0.0,0.0,0.0,0.0,0.0,0.0944,-0.9855,0.2161,0.7998,-0.5929,-0.0717,0.0605
80,0.0,0.0,0.0,0.0,0.0,0.0,0.0924,-0.9904,0.2176,0.7999,-0.5926,-0.0725,0.0607
81,0.0,0.0,0.0,0.0,0.0,0.0,0.0905,-0.9919,0.2171,0.8001,-0.5923,-0.0731,0.0610
82,0.0,0.0,0.0,0.0,0.0,0.0,0.0866,-0.9924,0.2181,0.8003,-0.5920,-0.0732,0.0611
83,0.0,0.0,0.0,0.0,0.0,0.0,0.0812,-0.9919,0.2215,0.8007,-0.5915,-0.0730,0.0613
84,0.0,0.0,0.0,0.0,0.0,0.0,0.0758,-0.9870,0.2234,0.8011,-0.5909,-0.0726,0.0613
85,0.0,0.0,0.0,0.0,0.0,0.0,0.0777,-0.9792,0.2229,0.8015,-0.5904,-0.0723,0.0614
86,0.0,0.0,0.0,0.0,0.0,0.0,0.0753,-0.9733,0.2254,0.8021,-0.5897,-0.0719,0.0614
87,0.0,0.0,0.0,0.0,0.0,0.0,0.0714,-0.9709,0.2273,0.8026,-0.5890,-0.0715,0.0613
88,0.0,0.0,0.0,0.0,0.0,0.0,0.0704,-0.9636,0.2268,0.8030,-0.5885,-0.0711,0.0612
89,0.0,0.0,0.0,0.0,0.0,0.0,0.0694,-0.9611,0.2273,0.8034,-0.5880,-0.0709,0.0612
90,0.0,0.0,0.0,0.0,0.0,0.0,0.0699,-0.9616,0.2283,0.8036,-0.5878,-0.0708,0.0612
91,0.0,0.0,0.0,0.0,0.0,0.0,0.0694,-0.9631,0.2283,0.8037,-0.5876,-0.0708,0.0612
92,0.0,0.0,0.0,0.0,0.0,0.0,0.0694,-0.9665,0.2268,0.8040,-0.5873,-0.0707,0.0612
93,0.0,0.0,0.0,0.0,0.0,0.0,0.0709,-0.9689,0.2254,0.8041,-0.5871,-0.0707,0.0614
94,0.0,0.0,0.0,0.0,0.0,0.0,0.0719,-0.9738,0.2259,0.8039,-0.5874,-0.0708,0.0614
95,0.0,0.0,0.0,0.0,0.0,0.0,0.0709,-0.9670,0.2161,0.8035,-0.5878,-0.0710,0.0613
96,0.0,0.0,0.0,0.0,0.0,0.0,0.0762,-0.9333,0.1951,0.8027,-0.5889,-0.0719,0.0613
97,0.0,0.0,0.0,0.0,0.0,0.0,0.0876,-0.9997,0.2200,0.8017,-0.5901,-0.0731,0.0612
98,0.0,0.0,0.0,0.0,0.0,0.0,0.0885,-0.9811,0.2063,0.8010,-0.5909,-0.0742,0.0610
99,0.0,0.0,0.0,0.0,0.0,0.0,0.0797,-0.9992,0.2073,0.8004,-0.5916,-0.0749,0.0608
100,0.0,0.0,0.0,0.0,0.0,0.0,0.0797,-1.0109,0.2122,0.7999,-0.5923,-0.0751,0.0607
101,0.0,0.0,0.0,0.0,0.0,0.0,0.0699,-1.0031,0.2107,0.7998,-0.5926,-0.0747,0.0607
102,0.0,0.0,0.0,0.0,0.0,0.0,0.0645,-0.9982,0.2122,0.7998,-0.5926,-0.0743,0.0607
103,0.0,0.0,0.0,0.0,0.0,0.0,0.0616,-0.9914,0.2156,0.7999,-0.5924,-0.0737,0.0610
104,0.0,0.0,0.0,0.0,0.0,0.0,0.0606,-0.9826,0.2166,0.8002,-0.5921,-0.0731,0.0615
105,0.0,0.0,0.0,0.0,0.0,0.0,0.0674,-0.9719,0.2166,0.8006,-0.5915,-0.0728,0.0619
106,0.0,0.0,0.0,0.0,0.0,0.0,0.0753,-0.9611,0.2146,0.8012,-0.5907,-0.0726,0.0624
107,0.0,0.0,0.0,0.0,0.0,0.0,0.0772,-0.9563,0.2132,0.8015,-0.5903,-0.0727,0.0626
108,0.0,0.0,0.0,0.0,0.0,0.0,0.0777,-0.9597,0.2156,0.8015,-0.5902,-0.0730,0.0626
109,0.0,0.0,0.0,0.0,0.0,0.0,0.0812,-0.9680,0.2190,0.8015,-0.5902,-0.0736,0.0626
110,0.0,0.0,0.0,0.0,0.0,0.0,0.0792,-0.9782,0.2205,0.8012,-0.5905,-0.0740,0.0625
111,0.0,0.0,0.0,0.0,0.0,0.0,0.0763,-0.9841,0.2215,0.8011,-0.5907,-0.0741,0.0622
112,0.0,0.0,0.0,0.0,0.0,0.0,0.0729,-0.9870,0.2220,0.8011,-0.5908,-0.0739,0.0620
113,0.0,0.0,0.0,0.0,0.0,0.0,0.0689,-0.9831,0.2224,0.8011,-0.5907,-0.0736,0.0618
114,0.0,0.0,0.0,0.0,0.0,0.0,0.0675,-0.9792,0.2205,0.8011,-0.5908,-0.0733,0.0617
115,0.0,0.0,0.0,0.0,0.0,0.0,0.0670,-0.9763,0.2200,0.8011,-0.5909,-0.0732,0.0615
116,0.0,0.0,0.0,0.0,0.0,0.0,0.0655,-0.9728,0.2210,0.8012,-0.5908,-0.0728,0.0614
117,0.0,0.0,0.0,0.0,0.0,0.0,0.0660,-0.9728,0.2190,0.8011,-0.5910,-0.0726,0.0614
118,0.0,0.0,0.0,0.0,0.0,0.0,0.0694,-0.9758,0.2195,0.8008,-0.5913,-0.0726,0.0612
119,0.0,0.0,0.0,0.0,0.0,0.0,0.0616,-0.9748,0.2190,0.8009,-0.5913,-0.0723,0.0610
120,0.0,0.0,0.0,0.0,0.0,0.0,0.0635,-0.9719,0.2166,0.8008,-0.5915,-0.0722,0.0608
121,0.0,0.0,0.0,0.0,0.0,0.0,0.0616,-0.9758,0.2156,0.8006,-0.5917,-0.0722,0.0606
122,0.0,0.0,0.0,0.0,0.0,0.0,0.0611,-0.9782,0.2141,0.8005,-0.5919,-0.0721,0.0606
123,0.0,0.0,0.0,0.0,0.0,0.0,0.0596,-0.9801,0.2126,0.8005,-0.5919,-0.0720,0.0605
124,0.0,0.0,0.0,0.0,0.0,0.0,0.0581,-0.9806,0.2087,0.8001,-0.5924,-0.0721,0.0605
125,0.0,0.0,0.0,0.0,0.0,0.0,0.0577,-0.9835,0.2082,0.7996,-0.5930,-0.0722,0.0606
126,0.0,0.0,0.0,0.0,0.0,0.0,0.0577,-0.9894,0.2092,0.7995,-0.5932,-0.0721,0.0608
127,0.0,0.0,0.0,0.0,0.0,0.0,0.0606,-0.9884,0.2082,0.7996,-0.5931,-0.0721,0.0611
128,0.0,0.0,0.0,0.0,0.0,0.0,0.0679,-0.9357,0.1789,0.7993,-0.5934,-0.0726,0.0613
129,0.0,0.0,0.0,0.0,0.0,0.0,0.0782,-0.9733,0.1902,0.7983,-0.5945,-0.0743,0.0616
130,0.0,0.0,0.0,0.0,0.0,0.0,0.0875,-0.9948,0.2005,0.7978,-0.5951,-0.0756,0.0615
131,0.0,0.0,0.0,0.0,0.0,0.0,0.0841,-0.9728,0.1853,0.7971,-0.5958,-0.0769,0.0614
132,0.0,0.0,0.0,0.0,0.0,0.0,0.0782,-1.0016,0.1951,0.7964,-0.5966,-0.0778,0.0613
133,0.0,0.0,0.0,0.0,0.0,0.0,0.0758,-1.0016,0.1951,0.7960,-0.5971,-0.0782,0.0612
134,0.0,0.0,0.0,0.0,0.0,0.0,0.0694,-0.9962,0.1916,0.7957,-0.5974,-0.0782,0.0613
135,0.0,0.0,0.0,0.0,0.0,0.0,0.0679,-0.9962,0.1926,0.7957,-0.5976,-0.0779,0.0615
136,0.0,0.0,0.0,0.0,0.0,0.0,0.0753,-0.9899,0.1917,0.7955,-0.5977,-0.0779,0.0618
137,0.0,0.0,0.0,0.0,0.0,0.0,0.0792,-0.9791,0.1882,0.7953,-0.5980,-0.0782,0.0620
138,0.0,0.0,0.0,0.0,0.0,0.0,0.0762,-0.9786,0.1848,0.7949,-0.5985,-0.0785,0.0621
139,0.0,0.0,0.0,0.0,0.0,0.0,0.0747,-0.9747,0.1824,0.7945,-0.5990,-0.0786,0.0621
140,0.0,0.0,0.0,0.0,0.0,0.0,0.0772,-0.9743,0.1804,0.7941,-0.5995,-0.0789,0.0621
141,0.0,0.0,0.0,0.0,0.0,0.0,0.0708,-0.9864,0.1829,0.7935,-0.6002,-0.0790,0.0622
142,0.0,0.0,0.0,0.0,0.0,0.0,0.0684,-0.9952,0.1868,0.7931,-0.6008,-0.0788,0.0625
143,0.0,0.0,0.0,0.0,0.0,0.0,0.0611,-0.9967,0.1887,0.7926,-0.6014,-0.0784,0.0630
144,0.0,0.0,0.0,0.0,0.0,0.0,0.0576,-0.9972,0.1926,0.7923,-0.6018,-0.0779,0.0636
145,0.0,0.0,0.0,0.0,0.0,0.0,0.0557,-0.9952,0.1960,0.7922,-0.6019,-0.0774,0.0644
146,0.0,0.0,0.0,0.0,0.0,0.0,0.0542,-0.9884,0.1980,0.7924,-0.6017,-0.0770,0.0652
147,0.0,0.0,0.0,0.0,0.0,0.0,0.0552,-0.9767,0.1990,0.7925,-0.6013,-0.0768,0.0660
148,0.0,0.0,0.0,0.0,0.0,0.0,0.0552,-0.9713,0.1994,0.7928,-0.6010,-0.0767,0.0671
149,0.0,0.0,0.0,0.0,0.0,0.0,0.0601,-0.9689,0.2019,0.7929,-0.6006,-0.0770,0.0681
150,0.0,0.0,0.0,0.0,0.0,0.0,0.0576,-0.9694,0.2034,0.7930,-0.6003,-0.0772,0.0691
151,0.0,0.0,0.0,0.0,0.0,0.0,0.0547,-0.9621,0.1989,0.7930,-0.6002,-0.0776,0.0701
152,0.0,0.0,0.0,0.0,0.0,0.0,0.0586,-0.9606,0.1980,0.7927,-0.6004,-0.0784,0.0710
153,0.0,0.0,0.0,0.0,0.0,0.0,0.0615,-0.9670,0.1999,0.7925,-0.6004,-0.0793,0.0721
154,0.0,0.0,0.0,0.0,0.0,0.0,0.0630,-0.9723,0.1990,0.7920,-0.6007,-0.0804,0.0732
155,0.0,0.0,0.0,0.0,0.0,0.0,0.0630,-0.9777,0.1970,0.7915,-0.6011,-0.0817,0.0742
156,0.0,0.0,0.0,0.0,0.0,0.0,0.0674,-0.9791,0.1936,0.7910,-0.6015,-0.0832,0.0751
157,0.0,0.0,0.0,0.0,0.0,0.0,0.0684,-0.9825,0.1887,0.7905,-0.6019,-0.0846,0.0761
158,0.0,0.0,0.0,0.0,0.0,0.0,0.0665,-0.9982,0.1926,0.7899,-0.6022,-0.0859,0.0772
159,0.0,0.0,0.0,0.0,0.0,0.0,0.0665,-1.0182,0.2034,0.7895,-0.6025,-0.0872,0.0783
160,0.0,0.0,0.0,0.0,0.0,0.0,0.0641,-1.0255,0.2053,0.7894,-0.6023,-0.0879,0.0794
161,0.0,0.0,0.0,0.0,0.0,0.0,0.0665,-1.0084,0.2000,0.7896,-0.6018,-0.0884,0.0808
162,0.0,0.0,0.0,0.0,0.0,0.0,0.0670,-1.0099,0.2063,0.7901,-0.6009,-0.0888,0.0822
163,0.0,0.0,0.0,0.0,0.0,0.0,0.0650,-1.0250,0.2156,0.7909,-0.5996,-0.0888,0.0837
164,0.0,0.0,0.0,0.0,0.0,0.0,0.0675,-1.0216,0.2107,0.7921,-0.5979,-0.0887,0.0852
165,0.0,0.0,0.0,0.0,0.0,0.0,0.0704,-0.9757,0.1897,0.7932,-0.5962,-0.0887,0.0867
166,0.0,0.0,0.0,0.0,0.0,0.0,0.0753,-0.9894,0.1873,0.7941,-0.5947,-0.0890,0.0884
167,0.0,0.0,0.0,0.0,0.0,0.0,0.0792,-0.9982,0.1819,0.7949,-0.5934,-0.0894,0.0898
168,0.0,0.0,0.0,0.0,0.0,0.0,0.0806,-0.9894,0.1736,0.7958,-0.5919,-0.0897,0.0911
169,0.0,0.0,0.0,0.0,0.0,0.0,0.0792,-0.9928,0.1746,0.7970,-0.5900,-0.0900,0.0925
170,0.0,0.0,0.0,0.0,0.0,0.0,0.0792,-0.9928,0.1790,0.7979,-0.5885,-0.0906,0.0934
171,0.0,0.0,0.0,0.0,0.0,0.0,0.0728,-0.9903,0.1814,0.7989,-0.5871,-0.0910,0.0939
172,0.0,0.0,0.0,0.0,0.0,0.0,0.0728,-0.9908,0.1848,0.7998,-0.5857,-0.0912,0.0942
173,0.0,0.0,0.0,0.0,0.0,0.0,0.0708,-0.9811,0.1848,0.8006,-0.5847,-0.0913,0.0943
174,0.0,0.0,0.0,0.0,0.0,0.0,0.0674,-0.9479,0.1765,0.8009,-0.5842,-0.0915,0.0940
175,0.0,0.0,0.0,0.0,0.0,0.0,0.0610,-0.9367,0.1775,0.8009,-0.5843,-0.0918,0.0935
176,0.0,0.0,0.0,0.0,0.0,0.0,0.0507,-0.9235,0.1774,0.8006,-0.5848,-0.0921,0.0926
177,0.0,0.0,0.0,0.0,0.0,0.0,0.0502,-0.9133,0.1779,0.7998,-0.5859,-0.0931,0.0915
178,0.0,0.0,0.0,0.0,0.0,0.0,0.0576,-0.9186,0.1848,0.7985,-0.5876,-0.0948,0.0902
179,0.0,0.0,0.0,0.0,0.0,0.0,0.0674,-0.9289,0.1882,0.7971,-0.5894,-0.0970,0.0887
180,0.0,0.0,0.0,0.0,0.0,0.0,0.0781,-0.9367,0.1882,0.7952,-0.5917,-0.0999,0.0872
181,0.0,0.0,0.0,0.0,0.0,0.0,0.0870,-0.9470,0.1902,0.7930,-0.5944,-0.1031,0.0853
182,0.0,0.0,0.0,0.0,0.0,0.0,0.0938,-0.9601,0.1912,0.7906,-0.5972,-0.1062,0.0832
183,0.0,0.0,0.0,0.0,0.0,0.0,0.1017,-0.9699,0.1893,0.7882,-0.6001,-0.1093,0.0812
184,0.0,0.0,0.0,0.0,0.0,0.0,0.1017,-0.9757,0.1809,0.7856,-0.6033,-0.1120,0.0789
185,0.0,0.0,0.0,0.0,0.0,0.0,0.1036,-0.9840,0.1712,0.7828,-0.6069,-0.1145,0.0765
186,0.0,0.0,0.0,0.0,0.0,0.0,0.1056,-1.0064,0.1658,0.7799,-0.6104,-0.1166,0.0740
187,0.0,0.0,0.0,0.0,0.0,0.0,0.1066,-1.0211,0.1551,0.7776,-0.6133,-0.1183,0.0718
188,0.0,0.0,0.0,0.0,0.0,0.0,0.1100,-1.0181,0.1458,0.7763,-0.6149,-0.1195,0.0701
189,0.0,0.0,0.0,0.0,0.0,0.0,0.1026,-0.9957,0.1296,0.7754,-0.6160,-0.1206,0.0686
190,0.0,0.0,0.0,0.0,0.0,0.0,0.1055,-0.9815,0.1204,0.7744,-0.6171,-0.1220,0.0675
191,0.0,0.0,0.0,0.0,0.0,0.0,0.1089,-0.9591,0.1096,0.7731,-0.6186,-0.1237,0.0662
192,0.0,0.0,0.0,0.0,0.0,0.0,0.1118,-0.9527,0.1008,0.7712,-0.6208,-0.1256,0.0647
193,0.0,0.0,0.0,0.0,0.0,0.0,0.1197,-0.9512,0.0940,0.7686,-0.6235,-0.1281,0.0633
194,0.0,0.0,0.0,0.0,0.0,0.0,0.1275,-0.9693,0.0984,0.7659,-0.6265,-0.1309,0.0617
195,0.0,0.0,0.0,0.0,0.0,0.0,0.1378,-0.9869,0.1004,0.7626,-0.6300,-0.1338,0.0597
196,0.0,0.0,0.0,0.0,0.0,0.0,0.1545,-1.0186,0.1092,0.7595,-0.6334,-0.1367,0.0577
197,0.0,0.0,0.0,0.0,0.0,0.0,0.1413,-1.0347,0.0984,0.7566,-0.6366,-0.1386,0.0555
198,0.0,0.0,0.0,0.0,0.0,0.0,0.1275,-1.0176,0.0735,0.7536,-0.6400,-0.1401,0.0533
199,0.0,0.0,0.0,0.0,0.0,0.0,0.1393,-1.0488,0.0671,0.7508,-0.6431,-0.1417,0.0516
200,0.0,0.0,0.0,0.0,0.0,0.0,0.1427,-1.0595,0.0667,0.7483,-0.6458,-0.1427,0.0501
201,0.0,0.0,0.0,0.0,0.0,0.0,0.1487,-1.0932,0.0677,0.7466,-0.6479,-0.1431,0.0492
202,0.0,0.0,0.0,0.0,0.0,0.0,0.1467,-1.0736,0.0530,0.7458,-0.6489,-0.1427,0.0489
203,0.0,0.0,0.0,0.0,0.0,0.0,0.1485,-0.9980,0.0295,0.7450,-0.6497,-0.1427,0.0491
204,0.0,0.0,0.0,0.0,0.0,0.0,0.1661,-1.0034,0.0310,0.7443,-0.6503,-0.1435,0.0494
205,0.0,0.0,0.0,0.0,0.0,0.0,0.1583,-1.0112,0.0339,0.7439,-0.6507,-0.1440,0.0500
206,0.0,0.0,0.0,0.0,0.0,0.0,0.1578,-1.0170,0.0359,0.7436,-0.6509,-0.1443,0.0507
207,0.0,0.0,0.0,0.0,0.0,0.0,0.1486,-1.0531,0.0442,0.7440,-0.6505,-0.1435,0.0518
208,0.0,0.0,0.0,0.0,0.0,0.0,0.1569,-1.0736,0.0496,0.7453,-0.6492,-0.1423,0.0534
209,0.0,0.0,0.0,0.0,0.0,0.0,0.1574,-1.0585,0.0481,0.7469,-0.6475,-0.1409,0.0556
210,0.0,0.0,0.0,0.0,0.0,0.0,0.1554,-1.0502,0.0486,0.7489,-0.6454,-0.1390,0.0582
211,0.0,0.0,0.0,0.0,0.0,0.0,0.1603,-1.0092,0.0330,0.7509,-0.6431,-0.1372,0.0609
212,0.0,0.0,0.0,0.0,0.0,0.0,0.1706,-1.0136,0.0364,0.7530,-0.6407,-0.1361,0.0639
213,0.0,0.0,0.0,0.0,0.0,0.0,0.1613,-1.0288,0.0501,0.7553,-0.6379,-0.1346,0.0669
214,0.0,0.0,0.0,0.0,0.0,0.0,0.1593,-1.0044,0.0545,0.7579,-0.6349,-0.1325,0.0700
215,0.0,0.0,0.0,0.0,0.0,0.0,0.1524,-0.9815,0.0569,0.7605,-0.6319,-0.1305,0.0729
216,0.0,0.0,0.0,0.0,0.0,0.0,0.1329,-0.9780,0.0696,0.7629,-0.6291,-0.1282,0.0757
217,0.0,0.0,0.0,0.0,0.0,0.0,0.1191,-0.9517,0.0759,0.7650,-0.6267,-0.1262,0.0781
218,0.0,0.0,0.0,0.0,0.0,0.0,0.1079,-0.9283,0.0852,0.7664,-0.6250,-0.1248,0.0800
219,0.0,0.0,0.0,0.0,0.0,0.0,0.1182,-0.9600,0.1077,0.7675,-0.6236,-0.1243,0.0815
220,0.0,0.0,0.0,0.0,0.0,0.0,0.1564,-0.9762,0.1131,0.7682,-0.6225,-0.1254,0.0820
221,0.0,0.0,0.0,0.0,0.0,0.0,0.1554,-0.9440,0.0931,0.7682,-0.6223,-0.1269,0.0813
222,0.0,0.0,0.0,0.0,0.0,0.0,0.1118,-0.9503,0.0925,0.7674,-0.6233,-0.1273,0.0801
223,0.0,0.0,0.0,0.0,0.0,0.0,0.0991,-0.9727,0.1023,0.7664,-0.6247,-0.1270,0.0788
224,0.0,0.0,0.0,0.0,0.0,0.0,0.1021,-1.0078,0.1169,0.7654,-0.6262,-0.1267,0.0775
225,0.0,0.0,0.0,0.0,0.0,0.0,0.1163,-1.0196,0.1223,0.7650,-0.6268,-0.1267,0.0762
226,0.0,0.0,0.0,0.0,0.0,0.0,0.1226,-0.9781,0.0984,0.7645,-0.6276,-0.1270,0.0748
227,0.0,0.0,0.0,0.0,0.0,0.0,0.1216,-0.9698,0.0950,0.7636,-0.6286,-0.1277,0.0737
228,0.0,0.0,0.0,0.0,0.0,0.0,0.1232,-1.0069,0.1135,0.7633,-0.6290,-0.1282,0.0725
229,0.0,0.0,0.0,0.0,0.0,0.0,0.1202,-1.0186,0.1174,0.7634,-0.6291,-0.1281,0.0713
230,0.0,0.0,0.0,0.0,0.0,0.0,0.1281,-1.0205,0.1155,0.7638,-0.6288,-0.1279,0.0699
231,0.0,0.0,0.0,0.0,0.0,0.0,0.1286,-1.0264,0.1194,0.7645,-0.6283,-0.1271,0.0687
232,0.0,0.0,0.0,0.0,0.0,0.0,0.1237,-1.0044,0.1189,0.7655,-0.6274,-0.1257,0.0673
233,0.0,0.0,0.0,0.0,0.0,0.0,0.1124,-0.9962,0.1238,0.7666,-0.6266,-0.1237,0.0661
234,0.0,0.0,0.0,0.0,0.0,0.0,0.1090,-0.9771,0.1257,0.7677,-0.6258,-0.1217,0.0650
235,0.0,0.0,0.0,0.0,0.0,0.0,0.1055,-0.9669,0.1296,0.7684,-0.6254,-0.1200,0.0638
236,0.0,0.0,0.0,0.0,0.0,0.0,0.1006,-0.9688,0.1326,0.7690,-0.6251,-0.1181,0.0627
237,0.0,0.0,0.0,0.0,0.0,0.0,0.0992,-0.9649,0.1350,0.7697,-0.6246,-0.1164,0.0618
238,0.0,0.0,0.0,0.0,0.0,0.0,0.0938,-0.9630,0.1365,0.7701,-0.6245,-0.1148,0.0610
239,0.0,0.0,0.0,0.0,0.0,0.0,0.0913,-0.9557,0.1345,0.7702,-0.6248,-0.1134,0.0604
240,0.0,0.0,0.0,0.0,0.0,0.0,0.0967,-0.9566,0.1326,0.7700,-0.6252,-0.1124,0.0598
241,0.0,0.0,0.0,0.0,0.0,0.0,0.0957,-0.9566,0.1238,0.7692,-0.6263,-0.1117,0.0592
242,0.0,0.0,0.0,0.0,0.0,0.0,0.0977,-0.9639,0.1238,0.7682,-0.6277,-0.1113,0.0587
243,0.0,0.0,0.0,0.0,0.0,0.0,0.1129,-0.9825,0.1282,0.7672,-0.6290,-0.1112,0.0580
244,0.0,0.0,0.0,0.0,0.0,0.0,0.1119,-0.9883,0.1243,0.7664,-0.6301,-0.1112,0.0570
245,0.0,0.0,0.0,0.0,0.0,0.0,0.1011,-0.9888,0.1199,0.7655,-0.6313,-0.1110,0.0561
246,0.0,0.0,0.0,0.0,0.0,0.0,0.1065,-0.9810,0.1116,0.7646,-0.6324,-0.1112,0.0553
247,0.0,0.0,0.0,0.0,0.0,0.0,0.1026,-0.9820,0.1028,0.7636,-0.6337,-0.1115,0.0545
248,0.0,0.0,0.0,0.0,0.0,0.0,0.0967,-0.9981,0.0983,0.7625,-0.6351,-0.1113,0.0538
249,0.0,0.0,0.0,0.0,0.0,0.0,0.1079,-0.9941,0.0896,0.7615,-0.6362,-0.1116,0.0531
250,0.0,0.0,0.0,0.0,0.0,0.0,0.1035,-0.9883,0.0842,0.7605,-0.6374,-0.1118,0.0525
251,0.0,0.0,0.0,0.0,0.0,0.0,0.1084,-0.9834,0.0769,0.7591,-0.6391,-0.1124,0.0519
252,0.0,0.0,0.0,0.0,0.0,0.0,0.1148,-1.0044,0.0735,0.7576,-0.6408,-0.1131,0.0513
253,0.0,0.0,0.0,0.0,0.0,0.0,0.1133,-1.0122,0.0656,0.7560,-0.6426,-0.1137,0.0510
254,0.0,0.0,0.0,0.0,0.0,0.0,0.1295,-1.0083,0.0617,0.7547,-0.6440,-0.1149,0.0506
255,0.0,0.0,0.0,0.0,0.0,0.0,0.1432,-1.0151,0.0642,0.7536,-0.6450,-0.1165,0.0501
256,0.0,0.0,0.0,0.0,0.0,0.0,0.1320,-1.0610,0.0725,0.7530,-0.6456,-0.1173,0.0497
257,0.0,0.0,0.0,0.0,0.0,0.0,0.1281,-1.1034,0.0740,0.7528,-0.6460,-0.1162,0.0499
258,0.0,0.0,0.0,0.0,0.0,0.0,0.1198,-1.1024,0.0691,0.7535,-0.6455,-0.1138,0.0511
259,0.0,0.0,0.0,0.0,0.0,0.0,0.1256,-1.0439,0.0583,0.7553,-0.6436,-0.1120,0.0529
260,0.0,0.0,0.0,0.0,0.0,0.0,0.1260,-0.9824,0.0544,0.7574,-0.6411,-0.1113,0.0548
261,0.0,0.0,0.0,0.0,0.0,0.0,0.1280,-0.9814,0.0652,0.7592,-0.6388,-0.1112,0.0562
262,0.0,0.0,0.0,0.0,0.0,0.0,0.1260,-0.9888,0.0774,0.7606,-0.6371,-0.1110,0.0572
263,0.0,0.0,0.0,0.0,0.0,0.0,0.1304,-0.9673,0.0764,0.7616,-0.6358,-0.1113,0.0577
264,0.0,0.0,0.0,0.0,0.0,0.0,0.1236,-0.9800,0.0798,0.7619,-0.6353,-0.1117,0.0578
265,0.0,0.0,0.0,0.0,0.0,0.0,0.1172,-0.9736,0.0735,0.7621,-0.6351,-0.1119,0.0574
266,0.0,0.0,0.0,0.0,0.0,0.0,0.1143,-0.9624,0.0671,0.7612,-0.6363,-0.1122,0.0564
267,0.0,0.0,0.0,0.0,0.0,0.0,0.1202,-0.9937,0.0798,0.7597,-0.6380,-0.1125,0.0554
268,0.0,0.0,0.0,0.0,0.0,0.0,0.1320,-1.0303,0.0940,0.7587,-0.6393,-0.1130,0.0546
269,0.0,0.0,0.0,0.0,0.0,0.0,0.1339,-1.0034,0.0906,0.7584,-0.6396,-0.1134,0.0541
270,0.0,0.0,0.0,0.0,0.0,0.0,0.1319,-0.9873,0.0808,0.7581,-0.6398,-0.1139,0.0542
271,0.0,0.0,0.0,0.0,0.0,0.0,0.1354,-0.9942,0.0798,0.7576,-0.6402,-0.1147,0.0542
272,0.0,0.0,0.0,0.0,0.0,0.0,0.1334,-0.9912,0.0808,0.7573,-0.6406,-0.1153,0.0543
273,0.0,0.0,0.0,0.0,0.0,0.0,0.1251,-1.0044,0.0837,0.7571,-0.6407,-0.1153,0.0544
274,0.0,0.0,0.0,0.0,0.0,0.0,0.1226,-0.9849,0.0740,0.7570,-0.6409,-0.1153,0.0545
275,0.0,0.0,0.0,0.0,0.0,0.0,0.1255,-0.9863,0.0740,0.7567,-0.6412,-0.1155,0.0545
276,0.0,0.0,0.0,0.0,0.0,0.0,0.1300,-0.9946,0.0749,0.7567,-0.6411,-0.1159,0.0547
277,0.0,0.0,0.0,0.0,0.0,0.0,0.1299,-0.9888,0.0705,0.7567,-0.6410,-0.1162,0.0547
278,0.0,0.0,0.0,0.0,0.0,0.0,0.1309,-0.9917,0.0705,0.7566,-0.6411,-0.1166,0.0547
279,0.0,0.0,0.0,0.0,0.0,0.0,0.1334,-1.0010,0.0720,0.7565,-0.6412,-0.1168,0.0547
280,0.0,0.0,0.0,0.0,0.0,0.0,0.1305,-1.0044,0.0725,0.7566,-0.6410,-0.1169,0.0547
281,0.0,0.0,0.0,0.0,0.0,0.0,0.1310,-1.0166,0.0769,0.7569,-0.6406,-0.1167,0.0549
282,0.0,0.0,0.0,0.0,0.0,0.0,0.1290,-1.0215,0.0803,0.7574,-0.6402,-0.1162,0.0551
283,0.0,0.0,0.0,0.0,0.0,0.0,0.1251,-1.0161,0.0774,0.7578,-0.6398,-0.1157,0.0554
284,0.0,0.0,0.0,0.0,0.0,0.0,0.1251,-0.9985,0.0720,0.7581,-0.6395,-0.1152,0.0557
285,0.0,0.0,0.0,0.0,0.0,0.0,0.1236,-1.0005,0.0749,0.7584,-0.6392,-0.1147,0.0561
286,0.0,0.0,0.0,0.0,0.0,0.0,0.1197,-0.9961,0.0739,0.7588,-0.6388,-0.1140,0.0565
287,0.0,0.0,0.0,0.0,0.0,0.0,0.1197,-0.9946,0.0700,0.7591,-0.6384,-0.1134,0.0570
288,0.0,0.0,0.0,0.0,0.0,0.0,0.1182,-0.9975,0.0700,0.7594,-0.6382,-0.1129,0.0574
289,0.0,0.0,0.0,0.0,0.0,0.0,0.1163,-1.0102,0.0749,0.7597,-0.6378,-0.1127,0.0579
290,0.0,0.0,0.0,0.0,0.0,0.0,0.1094,-0.9941,0.0720,0.7600,-0.6374,-0.1125,0.0586
291,0.0,0.0,0.0,0.0,0.0,0.0,0.1065,-0.9990,0.0793,0.7605,-0.6369,-0.1122,0.0593
292,0.0,0.0,0.0,0.0,0.0,0.0,0.1011,-1.0122,0.0900,0.7609,-0.6364,-0.1115,0.0600
293,0.0,0.0,0.0,0.0,0.0,0.0,0.0914,-1.0483,0.1047,0.7615,-0.6358,-0.1102,0.0610
294,0.0,0.0,0.0,0.0,0.0,0.0,0.0860,-1.0624,0.1110,0.7627,-0.6345,-0.1083,0.0623
295,0.0,0.0,0.0,0.0,0.0,0.0,0.0909,-1.0459,0.1115,0.7648,-0.6322,-0.1063,0.0640
296,0.0,0.0,0.0,0.0,0.0,0.0,0.0898,-0.9883,0.0939,0.7668,-0.6300,-0.1041,0.0659
297,0.0,0.0,0.0,0.0,0.0,0.0,0.0908,-0.9585,0.0920,0.7682,-0.6282,-0.1025,0.0682
298,0.0,0.0,0.0,0.0,0.0,0.0,0.0938,-1.0327,0.1233,0.7698,-0.6263,-0.1010,0.0706
299,0.0,0.0,0.0,0.0,0.0,0.0,0.0767,-1.0254,0.1218,0.7713,-0.6245,-0.0990,0.0729
300,0.0,0.0,0.0,0.0,0.0,0.0,0.0816,-1.0195,0.1232,0.7728,-0.6226,-0.0972,0.0757
301,0.0,0.0,0.0,0.0,0.0,0.0,0.0948,-1.0039,0.1233,0.7745,-0.6204,-0.0958,0.0783
302,0.0,0.0,0.0,0.0,0.0,0.0,0.0884,-0.9756,0.1140,0.7761,-0.6182,-0.0945,0.0808
303,0.0,0.0,0.0,0.0,0.0,0.0,0.0913,-0.9917,0.1223,0.7779,-0.6158,-0.0937,0.0832
304,0.0,0.0,0.0,0.0,0.0,0.0,0.0958,-1.0020,0.1301,0.7799,-0.6131,-0.0931,0.0853
305,0.0,0.0,0.0,0.0,0.0,0.0,0.1002,-1.0069,0.1360,0.7820,-0.6101,-0.0931,0.0872
306,0.0,0.0,0.0,0.0,0.0,0.0,0.1031,-0.9967,0.1453,0.7841,-0.6072,-0.0931,0.0888
307,0.0,0.0,0.0,0.0,0.0,0.0,0.0997,-0.9918,0.1565,0.7865,-0.6039,-0.0926,0.0899
308,0.0,0.0,0.0,0.0,0.0,0.0,0.0924,-0.9952,0.1697,0.7890,-0.6007,-0.0919,0.0906
309,0.0,0.0,0.0,0.0,0.0,0.0,0.0836,-0.9840,0.1731,0.7912,-0.5979,-0.0911,0.0908
310,0.0,0.0,0.0,0.0,0.0,0.0,0.0821,-0.9743,0.1804,0.7935,-0.5950,-0.0900,0.0909
311,0.0,0.0,0.0,0.0,0.0,0.0,0.0782,-0.9674,0.1882,0.7958,-0.5921,-0.0887,0.0907
312,0.0,0.0,0.0,0.0,0.0,0.0,0.0757,-0.9460,0.1887,0.7976,-0.5899,-0.0877,0.0904
313,0.0,0.0,0.0,0.0,0.0,0.0,0.0762,-0.9431,0.1960,0.7990,-0.5882,-0.0871,0.0898
314,0.0,0.0,0.0,0.0,0.0,0.0,0.0762,-0.9314,0.2014,0.8000,-0.5869,-0.0869,0.0889
315,0.0,0.0,0.0,0.0,0.0,0.0,0.0747,-0.9333,0.2117,0.8009,-0.5860,-0.0868,0.0878
316,0.0,0.0,0.0,0.0,0.0,0.0,0.0709,-0.9421,0.2239,0.8015,-0.5854,-0.0866,0.0866
317,0.0,0.0,0.0,0.0,0.0,0.0,0.0689,-0.9519,0.2258,0.8016,-0.5854,-0.0865,0.0852
318,0.0,0.0,0.0,0.0,0.0,0.0,0.0723,-0.9372,0.2205,0.8016,-0.5856,-0.0864,0.0835
319,0.0,0.0,0.0,0.0,0.0,0.0,0.0713,-0.9436,0.2229,0.8014,-0.5861,-0.0866,0.0819
320,0.0,0.0,0.0,0.0,0.0,0.0,0.0704,-0.9724,0.2293,0.8010,-0.5868,-0.0870,0.0803
321,0.0,0.0,0.0,0.0,0.0,0.0,0.0719,-0.9738,0.2303,0.8008,-0.5873,-0.0873,0.0789
322,0.0,0.0,0.0,0.0,0.0,0.0,0.0704,-0.9772,0.2303,0.8010,-0.5871,-0.0871,0.0776
323,0.0,0.0,0.0,0.0,0.0,0.0,0.0753,-0.9807,0.2303,0.8016,-0.5865,-0.0869,0.0764
324,0.0,0.0,0.0,0.0,0.0,0.0,0.0758,-0.9724,0.2303,0.8021,-0.5861,-0.0868,0.0752
325,0.0,0.0,0.0,0.0,0.0,0.0,0.0822,-0.9895,0.2357,0.8021,-0.5861,-0.0868,0.0743
326,0.0,0.0,0.0,0.0,0.0,0.0,0.0783,-0.9904,0.2356,0.8024,-0.5859,-0.0865,0.0734
327,0.0,0.0,0.0,0.0,0.0,0.0,0.0723,-0.9431,0.2229,0.8026,-0.5857,-0.0860,0.0727
328,0.0,0.0,0.0,0.0,0.0,0.0,0.0723,-0.9563,0.2249,0.8023,-0.5862,-0.0860,0.0720
329,0.0,0.0,0.0,0.0,0.0,0.0,0.0748,-0.9621,0.2268,0.8020,-0.5867,-0.0864,0.0715
330,0.0,0.0,0.0,0.0,0.0,0.0,0.0753,-0.9558,0.2229,0.8018,-0.5870,-0.0869,0.0711
331,0.0,0.0,0.0,0.0,0.0,0.0,0.0763,-0.9611,0.2220,0.8013,-0.5876,-0.0875,0.0707
332,0.0,0.0,0.0,0.0,0.0,0.0,0.0812,-0.9709,0.2225,0.8006,-0.5884,-0.0884,0.0703
333,0.0,0.0,0.0,0.0,0.0,0.0,0.0851,-0.9626,0.2137,0.8001,-0.5891,-0.0893,0.0699
334,0.0,0.0,0.0,0.0,0.0,0.0,0.0840,-0.9450,0.2009,0.7990,-0.5904,-0.0904,0.0694
335,0.0,0.0,0.0,0.0,0.0,0.0,0.0870,-0.9704,0.2024,0.7978,-0.5919,-0.0919,0.0691
336,0.0,0.0,0.0,0.0,0.0,0.0,0.0948,-0.9758,0.1956,0.7966,-0.5933,-0.0935,0.0688
337,0.0,0.0,0.0,0.0,0.0,0.0,0.1007,-0.9601,0.1765,0.7951,-0.5950,-0.0952,0.0685
338,0.0,0.0,0.0,0.0,0.0,0.0,0.1183,-0.9518,0.1668,0.7935,-0.5968,-0.0977,0.0681
339,0.0,0.0,0.0,0.0,0.0,0.0,0.1300,-0.9621,0.1712,0.7916,-0.5990,-0.1006,0.0675
340,0.0,0.0,0.0,0.0,0.0,0.0,0.1179,-1.0231,0.1780,0.7896,-0.6014,-0.1026,0.0666
341,0.0,0.0,0.0,0.0,0.0,0.0,0.1080,-0.9991,0.1565,0.7875,-0.6039,-0.1041,0.0659
342,0.0,0.0,0.0,0.0,0.0,0.0,0.1022,-1.0084,0.1511,0.7854,-0.6065,-0.1052,0.0656
343,0.0,0.0,0.0,0.0,0.0,0.0,0.1105,-1.0342,0.1556,0.7836,-0.6086,-0.1061,0.0656
344,0.0,0.0,0.0,0.0,0.0,0.0,0.1120,-1.0025,0.1560,0.7822,-0.6102,-0.1072,0.0657
345,0.0,0.0,0.0,0.0,0.0,0.0,0.1100,-1.0074,0.1580,0.7815,-0.6110,-0.1077,0.0659
346,0.0,0.0,0.0,0.0,0.0,0.0,0.1168,-0.9542,0.1297,0.7802,-0.6124,-0.1087,0.0663
347,0.0,0.0,0.0,0.0,0.0,0.0,0.1271,-0.9767,0.1394,0.7788,-0.6139,-0.1102,0.0666
348,0.0,0.0,0.0,0.0,0.0,0.0,0.1085,-0.9767,0.1404,0.7775,-0.6154,-0.1110,0.0666
349,0.0,0.0,0.0,0.0,0.0,0.0,0.0943,-0.9625,0.1316,0.7760,-0.6172,-0.1117,0.0670
350,0.0,0.0,0.0,0.0,0.0,0.0,0.1006,-0.9688,0.1277,0.7741,-0.6192,-0.1129,0.0674
351,0.0,0.0,0.0,0.0,0.0,0.0,0.1011,-0.9747,0.1238,0.7724,-0.6210,-0.1141,0.0678
352,0.0,0.0,0.0,0.0,0.0,0.0,0.1011,-0.9752,0.1189,0.7707,-0.6229,-0.1158,0.0684
353,0.0,0.0,0.0,0.0,0.0,0.0,0.0752,-1.0317,0.1276,0.7687,-0.6250,-0.1167,0.0694
354,0.0,0.0,0.0,0.0,0.0,0.0,0.0846,-1.0532,0.1301,0.7675,-0.6262,-0.1174,0.0710
355,0.0,0.0,0.0,0.0,0.0,0.0,0.0914,-1.0205,0.1174,0.7665,-0.6270,-0.1180,0.0731
356,0.0,0.0,0.0,0.0,0.0,0.0,0.0948,-1.0103,0.1062,0.7656,-0.6278,-0.1185,0.0754
357,0.0,0.0,0.0,0.0,0.0,0.0,0.1001,-0.9605,0.0817,0.7643,-0.6289,-0.1195,0.0776
358,0.0,0.0,0.0,0.0,0.0,0.0,0.1123,-0.9771,0.0788,0.7626,-0.6303,-0.1213,0.0798
359,0.0,0.0,0.0,0.0,0.0,0.0,0.1270,-0.9966,0.0808,0.7612,-0.6315,-0.1233,0.0818
360,0.0,0.0,0.0,0.0,0.0,0.0,0.1265,-0.9883,0.0696,0.7594,-0.6330,-0.1252,0.0833
361,0.0,0.0,0.0,0.0,0.0,0.0,0.1290,-1.0000,0.0617,0.7575,-0.6347,-0.1273,0.0844
362,0.0,0.0,0.0,0.0,0.0,0.0,0.1417,-1.0019,0.0603,0.7557,-0.6363,-0.1295,0.0848
363,0.0,0.0,0.0,0.0,0.0,0.0,0.1614,-1.0586,0.0804,0.7545,-0.6373,-0.1317,0.0846
364,0.0,0.0,0.0,0.0,0.0,0.0,0.1766,-1.0703,0.0760,0.7536,-0.6382,-0.1337,0.0832
365,0.0,0.0,0.0,0.0,0.0,0.0,0.1716,-1.0376,0.0540,0.7526,-0.6393,-0.1351,0.0809
366,0.0,0.0,0.0,0.0,0.0,0.0,0.1471,-1.0409,0.0481,0.7520,-0.6404,-0.1351,0.0782
367,0.0,0.0,0.0,0.0,0.0,0.0,0.1364,-1.0463,0.0632,0.7521,-0.6408,-0.1342,0.0755
368,0.0,0.0,0.0,0.0,0.0,0.0,0.1285,-1.0380,0.0749,0.7527,-0.6408,-0.1326,0.0723
369,0.0,0.0,0.0,0.0,0.0,0.0,0.1241,-1.0195,0.0774,0.7536,-0.6406,-0.1304,0.0689
370,0.0,0.0,0.0,0.0,0.0,0.0,0.1217,-1.0005,0.0813,0.7546,-0.6403,-0.1279,0.0651
371,0.0,0.0,0.0,0.0,0.0,0.0,0.1188,-1.0215,0.1023,0.7561,-0.6395,-0.1252,0.0612
372,0.0,0.0,0.0,0.0,0.0,0.0,0.1094,-0.9966,0.1013,0.7579,-0.6383,-0.1220,0.0570
373,0.0,0.0,0.0,0.0,0.0,0.0,0.1016,-0.9976,0.1086,0.7598,-0.6371,-0.1185,0.0528
374,0.0,0.0,0.0,0.0,0.0,0.0,0.0884,-1.0015,0.1198,0.7618,-0.6357,-0.1146,0.0485
375,0.0,0.0,0.0,0.0,0.0,0.0,0.0791,-1.0049,0.1340,0.7639,-0.6343,-0.1105,0.0443
376,0.0,0.0,0.0,0.0,0.0,0.0,0.0713,-0.9937,0.1350,0.7657,-0.6330,-0.1062,0.0403
377,0.0,0.0,0.0,0.0,0.0,0.0,0.0634,-0.9781,0.1330,0.7675,-0.6318,-0.1019,0.0367
378,0.0,0.0,0.0,0.0,0.0,0.0,0.0639,-0.9639,0.1354,0.7694,-0.6303,-0.0978,0.0334
379,0.0,0.0,0.0,0.0,0.0,0.0,0.0668,-0.9527,0.1379,0.7710,-0.6291,-0.0943,0.0308
380,0.0,0.0,0.0,0.0,0.0,0.0,0.0678,-0.9415,0.1374,0.7720,-0.6284,-0.0913,0.0285
381,0.0,0.0,0.0,0.0,0.0,0.0,0.0688,-0.9342,0.1369,0.7730,-0.6275,-0.0892,0.0269
382,0.0,0.0,0.0,0.0,0.0,0.0,0.0737,-0.9269,0.1330,0.7735,-0.6272,-0.0880,0.0255
383,0.0,0.0,0.0,0.0,0.0,0.0,0.0722,-0.9220,0.1271,0.7731,-0.6277,-0.0877,0.0244
384,0.0,0.0,0.0,0.0,0.0,0.0,0.0825,-0.9264,0.1242,0.7725,-0.6284,-0.0885,0.0237
385,0.0,0.0,0.0,0.0,0.0,0.0,0.0967,-0.9435,0.1272,0.7713,-0.6296,-0.0902,0.0235
386,0.0,0.0,0.0,0.0,0.0,0.0,0.1011,-0.9727,0.1277,0.7701,-0.6308,-0.0923,0.0235
387,0.0,0.0,0.0,0.0,0.0,0.0,0.1202,-1.0020,0.1302,0.7689,-0.6318,-0.0953,0.0240
388,0.0,0.0,0.0,0.0,0.0,0.0,0.1271,-1.0108,0.1194,0.7681,-0.6322,-0.0984,0.0252
389,0.0,0.0,0.0,0.0,0.0,0.0,0.1334,-0.9996,0.1028,0.7671,-0.6328,-0.1016,0.0268
390,0.0,0.0,0.0,0.0,0.0,0.0,0.1437,-1.0113,0.1009,0.7659,-0.6336,-0.1049,0.0289
391,0.0,0.0,0.0,0.0,0.0,0.0,0.1545,-1.0186,0.0975,0.7651,-0.6339,-0.1083,0.0317
392,0.0,0.0,0.0,0.0,0.0,0.0,0.1648,-1.0176,0.0970,0.7649,-0.6335,-0.1114,0.0351
393,0.0,0.0,0.0,0.0,0.0,0.0,0.1726,-1.0001,0.0921,0.7645,-0.6331,-0.1145,0.0389
394,0.0,0.0,0.0,0.0,0.0,0.0,0.1760,-0.9903,0.0833,0.7640,-0.6330,-0.1176,0.0428
395,0.0,0.0,0.0,0.0,0.0,0.0,0.1804,-0.9674,0.0687,0.7630,-0.6333,-0.1207,0.0468
396,0.0,0.0,0.0,0.0,0.0,0.0,0.1912,-1.0049,0.0672,0.7614,-0.6343,-0.1236,0.0506
397,0.0,0.0,0.0,0.0,0.0,0.0,0.1951,-0.9971,0.0511,0.7598,-0.6356,-0.1254,0.0544
398,0.0,0.0,0.0,0.0,0.0,0.0,0.1926,-0.9751,0.0350,0.7580,-0.6370,-0.1274,0.0578
399,0.0,0.0,0.0,0.0,0.0,0.0,0.1853,-1.0166,0.0433,0.7565,-0.6383,-0.1291,0.0606
400,0.0,0.0,0.0,0.0,0.0,0.0,0.1794,-1.0200,0.0408,0.7548,-0.6398,-0.1305,0.0626
401,0.0,0.0,0.0,0.0,0.0,0.0,0.1809,-1.0327,0.0447,0.7532,-0.6412,-0.1321,0.0641
402,0.0,0.0,0.0,0.0,0.0,0.0,0.1823,-1.0341,0.0389,0.7524,-0.6418,-0.1337,0.0648
403,0.0,0.0,0.0,0.0,0.0,0.0,0.1720,-1.0097,0.0257,0.7513,-0.6427,-0.1352,0.0649
404,0.0,0.0,0.0,0.0,0.0,0.0,0.1622,-0.9990,0.0242,0.7500,-0.6440,-0.1364,0.0643
405,0.0,0.0,0.0,0.0,0.0,0.0,0.1514,-0.9980,0.0256,0.7488,-0.6454,-0.1372,0.0634
406,0.0,0.0,0.0,0.0,0.0,0.0,0.1387,-0.9965,0.0280,0.7474,-0.6469,-0.1377,0.0622
407,0.0,0.0,0.0,0.0,0.0,0.0,0.1515,-1.0092,0.0378,0.7463,-0.6481,-0.1385,0.0610
408,0.0,0.0,0.0,0.0,0.0,0.0,0.1515,-1.0029,0.0329,0.7454,-0.6491,-0.1393,0.0598
409,0.0,0.0,0.0,0.0,0.0,0.0,0.1490,-0.9873,0.0305,0.7448,-0.6498,-0.1402,0.0586
410,0.0,0.0,0.0,0.0,0.0,0.0,0.1544,-0.9868,0.0290,0.7440,-0.6505,-0.1413,0.0573
411,0.0,0.0,0.0,0.0,0.0,0.0,0.1534,-0.9892,0.0251,0.7432,-0.6513,-0.1424,0.0563
412,0.0,0.0,0.0,0.0,0.0,0.0,0.1617,-0.9926,0.0227,0.7424,-0.6520,-0.1436,0.0551
413,0.0,0.0,0.0,0.0,0.0,0.0,0.1622,-0.9999,0.0212,0.7417,-0.6528,-0.1444,0.0538
414,0.0,0.0,0.0,0.0,0.0,0.0,0.1647,-1.0136,0.0247,0.7413,-0.6532,-0.1450,0.0526
415,0.0,0.0,0.0,0.0,0.0,0.0,0.1671,-1.0087,0.0208,0.7409,-0.6537,-0.1455,0.0514
416,0.0,0.0,0.0,0.0,0.0,0.0,0.1701,-1.0102,0.0217,0.7406,-0.6540,-0.1459,0.0502
417,0.0,0.0,0.0,0.0,0.0,0.0,0.1657,-1.0102,0.0227,0.7404,-0.6544,-0.1460,0.0490
418,0.0,0.0,0.0,0.0,0.0,0.0,0.1642,-1.0004,0.0208,0.7403,-0.6545,-0.1457,0.0480
419,0.0,0.0,0.0,0.0,0.0,0.0,0.1676,-1.0117,0.0256,0.7408,-0.6541,-0.1453,0.0471
420,0.0,0.0,0.0,0.0,0.0,0.0,0.1667,-1.0200,0.0320,0.7415,-0.6536,-0.1443,0.0463
421,0.0,0.0,0.0,0.0,0.0,0.0,0.1647,-1.0356,0.0408,0.7426,-0.6526,-0.1431,0.0456
422,0.0,0.0,0.0,0.0,0.0,0.0,0.1584,-1.0331,0.0432,0.7441,-0.6513,-0.1415,0.0451
423,0.0,0.0,0.0,0.0,0.0,0.0,0.1525,-1.0214,0.0442,0.7457,-0.6500,-0.1394,0.0448
424,0.0,0.0,0.0,0.0,0.0,0.0,0.1466,-1.0112,0.0461,0.7473,-0.6487,-0.1370,0.0450
425,0.0,0.0,0.0,0.0,0.0,0.0,0.1451,-1.0088,0.0481,0.7487,-0.6475,-0.1343,0.0455
426,0.0,0.0,0.0,0.0,0.0,0.0,0.1436,-0.9990,0.0456,0.7501,-0.6465,-0.1316,0.0459
427,0.0,0.0,0.0,0.0,0.0,0.0,0.1436,-0.9927,0.0452,0.7513,-0.6456,-0.1289,0.0463
428,0.0,0.0,0.0,0.0,0.0,0.0,0.1436,-0.9917,0.0422,0.7522,-0.6451,-0.1263,0.0465
429,0.0,0.0,0.0,0.0,0.0,0.0,0.1441,-1.0048,0.0447,0.7529,-0.6446,-0.1240,0.0468
430,0.0,0.0,0.0,0.0,0.0,0.0,0.1407,-1.0175,0.0530,0.7542,-0.6435,-0.1219,0.0472
431,0.0,0.0,0.0,0.0,0.0,0.0,0.1329,-1.0166,0.0608,0.7556,-0.6423,-0.1196,0.0476
432,0.0,0.0,0.0,0.0,0.0,0.0,0.1260,-1.0073,0.0657,0.7570,-0.6410,-0.1171,0.0481
433,0.0,0.0,0.0,0.0,0.0,0.0,0.1182,-0.9956,0.0700,0.7584,-0.6398,-0.1145,0.0485
434,0.0,0.0,0.0,0.0,0.0,0.0,0.1118,-0.9917,0.0803,0.7600,-0.6384,-0.1118,0.0489
435,0.0,0.0,0.0,0.0,0.0,0.0,0.1089,-0.9883,0.0881,0.7614,-0.6371,-0.1092,0.0496
436,0.0,0.0,0.0,0.0,0.0,0.0,0.1050,-0.9829,0.0954,0.7628,-0.6358,-0.1068,0.0503
437,0.0,0.0,0.0,0.0,0.0,0.0,0.1031,-0.9815,0.1008,0.7642,-0.6344,-0.1048,0.0512
438,0.0,0.0,0.0,0.0,0.0,0.0,0.1016,-0.9766,0.1047,0.7654,-0.6331,-0.1032,0.0523
439,0.0,0.0,0.0,0.0,0.0,0.0,0.1011,-0.9737,0.1081,0.7667,-0.6317,-0.1018,0.0532
440,0.0,0.0,0.0,0.0,0.0,0.0,0.1050,-0.9761,0.1169,0.7679,-0.6302,-0.1009,0.0544
441,0.0,0.0,0.0,0.0,0.0,0.0,0.1050,-0.9776,0.1208,0.7691,-0.6288,-0.1002,0.0555
442,0.0,0.0,0.0,0.0,0.0,0.0,0.1065,-0.9844,0.1287,0.7701,-0.6275,-0.0997,0.0567
443,0.0,0.0,0.0,0.0,0.0,0.0,0.1065,-0.9879,0.1345,0.7713,-0.6261,-0.0992,0.0577
444,0.0,0.0,0.0,0.0,0.0,0.0,0.1060,-0.9781,0.1311,0.7724,-0.6247,-0.0985,0.0588
445,0.0,0.0,0.0,0.0,0.0,0.0,0.1095,-0.9806,0.1345,0.7734,-0.6235,-0.0982,0.0598
446,0.0,0.0,0.0,0.0,0.0,0.0,0.1070,-0.9908,0.1394,0.7741,-0.6225,-0.0979,0.0607
447,0.0,0.0,0.0,0.0,0.0,0.0,0.1046,-0.9908,0.1404,0.7748,-0.6216,-0.0975,0.0617
448,0.0,0.0,0.0,0.0,0.0,0.0,0.1021,-0.9884,0.1414,0.7754,-0.6208,-0.0971,0.0624
449,0.0,0.0,0.0,0.0,0.0,0.0,0.0972,-0.9884,0.1428,0.7761,-0.6200,-0.0963,0.0630
450,0.0,0.0,0.0,0.0,0.0,0.0,0.0938,-0.9962,0.1467,0.7771,-0.6189,-0.0953,0.0637
451,0.0,0.0,0.0,0.0,0.0,0.0,0.0904,-0.9996,0.1482,0.7782,-0.6176,-0.0941,0.0644
452,0.0,0.0,0.0,0.0,0.0,0.0,0.0889,-1.0040,0.1511,0.7794,-0.6161,-0.0929,0.0651
453,0.0,0.0,0.0,0.0,0.0,0.0,0.0865,-1.0054,0.1521,0.7806,-0.6147,-0.0917,0.0660
454,0.0,0.0,0.0,0.0,0.0,0.0,0.0840,-0.9996,0.1531,0.7818,-0.6133,-0.0905,0.0670
455,0.0,0.0,0.0,0.0,0.0,0.0,0.0826,-1.0054,0.1594,0.7829,-0.6119,-0.0893,0.0681
456,0.0,0.0,0.0,0.0,0.0,0.0,0.0865,-1.0099,0.1702,0.7844,-0.6100,-0.0882,0.0692
457,0.0,0.0,0.0,0.0,0.0,0.0,0.0944,-0.9987,0.1770,0.7861,-0.6078,-0.0873,0.0706
458,0.0,0.0,0.0,0.0,0.0,0.0,0.1027,-0.9865,0.1824,0.7879,-0.6054,-0.0865,0.0724
459,0.0,0.0,0.0,0.0,0.0,0.0,0.1061,-0.9650,0.1839,0.7897,-0.6030,-0.0855,0.0741
460,0.0,0.0,0.0,0.0,0.0,0.0,0.1056,-0.9572,0.1873,0.7912,-0.6010,-0.0843,0.0760
461,0.0,0.0,0.0,0.0,0.0,0.0,0.1007,-0.9553,0.1849,0.7921,-0.5996,-0.0831,0.0779
462,0.0,0.0,0.0,0.0,0.0,0.0,0.0933,-0.9430,0.1736,0.7926,-0.5989,-0.0818,0.0795
463,0.0,0.0,0.0,0.0,0.0,0.0,0.0820,-0.9406,0.1662,0.7926,-0.5990,-0.0804,0.0809
464,0.0,0.0,0.0,0.0,0.0,0.0,0.0698,-0.9576,0.1653,0.7920,-0.5998,-0.0793,0.0820
465,0.0,0.0,0.0,0.0,0.0,0.0,0.0546,-0.9703,0.1589,0.7912,-0.6009,-0.0781,0.0829
466,0.0,0.0,0.0,0.0,0.0,0.0,0.0478,-0.9722,0.1520,0.7903,-0.6021,-0.0772,0.0835
467,0.0,0.0,0.0,0.0,0.0,0.0,0.0473,-0.9815,0.1491,0.7890,-0.6038,-0.0766,0.0839
468,0.0,0.0,0.0,0.0,0.0,0.0,0.0498,-0.9991,0.1515,0.7878,-0.6054,-0.0763,0.0841
469,0.0,0.0,0.0,0.0,0.0,0.0,0.0473,-1.0049,0.1496,0.7868,-0.6068,-0.0760,0.0840
470,0.0,0.0,0.0,0.0,0.0,0.0,0.0459,-1.0152,0.1515,0.7859,-0.6079,-0.0757,0.0838
471,0.0,0.0,0.0,0.0,0.0,0.0,0.0473,-1.0230,0.1535,0.7856,-0.6084,-0.0753,0.0834
472,0.0,0.0,0.0,0.0,0.0,0.0,0.0361,-1.0161,0.1486,0.7855,-0.6088,-0.0747,0.0830
473,0.0,0.0,0.0,0.0,0.0,0.0,0.0351,-1.0146,0.1466,0.7854,-0.6090,-0.0740,0.0828
474,0.0,0.0,0.0,0.0,0.0,0.0,0.0380,-1.0005,0.1452,0.7854,-0.6090,-0.0735,0.0826
475,0.0,0.0,0.0,0.0,0.0,0.0,0.0321,-0.9951,0.1505,0.7854,-0.6092,-0.0730,0.0823
476,0.0,0.0,0.0,0.0,0.0,0.0,0.0336,-0.9995,0.1608,0.7855,-0.6091,-0.0726,0.0821
477,0.0,0.0,0.0,0.0,0.0,0.0,0.0420,-0.9986,0.1677,0.7859,-0.6086,-0.0726,0.0818
478,0.0,0.0,0.0,0.0,0.0,0.0,0.0395,-1.0083,0.1711,0.7865,-0.6079,-0.0723,0.0815
479,0.0,0.0,0.0,0.0,0.0,0.0,0.0415,-1.0215,0.1784,0.7874,-0.6068,-0.0721,0.0812
480,0.0,0.0,0.0,0.0,0.0,0.0,0.0444,-1.0206,0.1887,0.7887,-0.6052,-0.0718,0.0809
481,0.0,0.0,0.0,0.0,0.0,0.0,0.0464,-0.9942,0.1901,0.7905,-0.6029,-0.0714,0.0805
482,0.0,0.0,0.0,0.0,0.0,0.0,0.0464,-1.0021,0.2009,0.7923,-0.6006,-0.0711,0.0803
483,0.0,0.0,0.0,0.0,0.0,0.0,0.0469,-1.0143,0.2092,0.7941,-0.5984,-0.0706,0.0804
484,0.0,0.0,0.0,0.0,0.0,0.0,0.0557,-1.0187,0.2151,0.7962,-0.5955,-0.0698,0.0807
485,0.0,0.0,0.0,0.0,0.0,0.0,0.0547,-0.9943,0.2107,0.7986,-0.5924,-0.0688,0.0811
486,0.0,0.0,0.0,0.0,0.0,0.0,0.0562,-0.9777,0.2151,0.8008,-0.5894,-0.0677,0.0817
487,0.0,0.0,0.0,0.0,0.0,0.0,0.0587,-0.9860,0.2278,0.8032,-0.5858,-0.0683,0.0836
488,0.0,0.0,0.0,0.0,0.0,0.0,0.0562,-0.9660,0.2283,0.8057,-0.5825,-0.0673,0.0841
489,0.0,0.0,0.0,0.0,0.0,0.0,0.0512,-0.9158,0.2146,0.8077,-0.5798,-0.0663,0.0846
490,0.0,0.0,0.0,0.0,0.0,0.0,0.0449,-0.9270,0.2283,0.8088,-0.5782,-0.0656,0.0850
491,0.0,0.0,0.0,0.0,0.0,0.0,0.0381,-0.9587,0.2483,0.8097,-0.5770,-0.0650,0.0852
492,0.0,0.0,0.0,0.0,0.0,0.0,0.0420,-0.9358,0.2458,0.8104,-0.5760,-0.0647,0.0854
493,0.0,0.0,0.0,0.0,0.0,0.0,0.0351,-0.9338,0.2483,0.8108,-0.5754,-0.0644,0.0857
494,0.0,0.0,0.0,0.0,0.0,0.0,0.0351,-0.9168,0.2468,0.8111,-0.5751,-0.0644,0.0858
495,0.0,0.0,0.0,0.0,0.0,0.0,0.0449,-0.9016,0.2439,0.8110,-0.5750,-0.0651,0.0859
496,0.0,0.0,0.0,0.0,0.0,0.0,0.0395,-0.9182,0.2458,0.8103,-0.5759,-0.0663,0.0859
497,0.0,0.0,0.0,0.0,0.0,0.0,0.0386,-0.9343,0.2473,0.8093,-0.5771,-0.0677,0.0859
498,0.0,0.0,0.0,0.0,0.0,0.0,0.0400,-0.9514,0.2497,0.8083,-0.5784,-0.0691,0.0858
499,0.0,0.0,0.0,0.0,0.0,0.0,0.0464,-0.9568,0.2459,0.8070,-0.5800,-0.0709,0.0857
500,0.0,0.0,0.0,0.0,0.0,0.0,0.0518,-0.9607,0.2444,0.8057,-0.5816,-0.0727,0.0856
501,0.0,0.0,0.0,0.0,0.0,0.0,0.0528,-0.9646,0.2400,0.8044,-0.5833,-0.0744,0.0853
502,0.0,0.0,0.0,0.0,0.0,0.0,0.0523,-0.9621,0.2292,0.8029,-0.5851,-0.0760,0.0849
503,0.0,0.0,0.0,0.0,0.0,0.0,0.0542,-0.9611,0.2175,0.8011,-0.5874,-0.0779,0.0844
504,0.0,0.0,0.0,0.0,0.0,0.0,0.0566,-0.9587,0.2063,0.7991,-0.5900,-0.0798,0.0840
505,0.0,0.0,0.0,0.0,0.0,0.0,0.0596,-0.9523,0.1960,0.7969,-0.5926,-0.0820,0.0835
506,0.0,0.0,0.0,0.0,0.0,0.0,0.0596,-0.9801,0.1999,0.7946,-0.5955,-0.0844,0.0829
507,0.0,0.0,0.0,0.0,0.0,0.0,0.0572,-1.0045,0.2009,0.7924,-0.5982,-0.0864,0.0822
508,0.0,0.0,0.0,0.0,0.0,0.0,0.0591,-1.0182,0.1965,0.7904,-0.6008,-0.0881,0.0814
509,0.0,0.0,0.0,0.0,0.0,0.0,0.0606,-0.9986,0.1775,0.7884,-0.6032,-0.0897,0.0807
510,0.0,0.0,0.0,0.0,0.0,0.0,0.0674,-0.9928,0.1765,0.7866,-0.6053,-0.0915,0.0804
511,0.0,0.0,0.0,0.0,0.0,0.0,0.0777,-1.0089,0.1790,0.7850,-0.6071,-0.0933,0.0799
512,0.0,0.0,0.0,0.0,0.0,0.0,0.0817,-1.0289,0.1834,0.7838,-0.6085,-0.0951,0.0794
513,0.0,0.0,0.0,0.0,0.0,0.0,0.0826,-1.0352,0.1853,0.7831,-0.6093,-0.0964,0.0789
514,0.0,0.0,0.0,0.0,0.0,0.0,0.0890,-1.0079,0.1707,0.7825,-0.6100,-0.0975,0.0782
515,0.0,0.0,0.0,0.0,0.0,0.0,0.0840,-0.9937,0.1643,0.7821,-0.6104,-0.0984,0.0774
516,0.0,0.0,0.0,0.0,0.0,0.0,0.0836,-0.9894,0.1623,0.7818,-0.6108,-0.0991,0.0767
517,0.0,0.0,0.0,0.0,0.0,0.0,0.0835,-0.9732,0.1545,0.7814,-0.6113,-0.0998,0.0759
518,0.0,0.0,0.0,0.0,0.0,0.0,0.0914,-0.9762,0.1511,0.7807,-0.6121,-0.1008,0.0750
519,0.0,0.0,0.0,0.0,0.0,0.0,0.0899,-0.9864,0.1501,0.7800,-0.6129,-0.1019,0.0742
520,0.0,0.0,0.0,0.0,0.0,0.0,0.0904,-0.9869,0.1443,0.7791,-0.6140,-0.1030,0.0735
521,0.0,0.0,0.0,0.0,0.0,0.0,0.0943,-0.9898,0.1409,0.7780,-0.6152,-0.1042,0.0728
522,0.0,0.0,0.0,0.0,0.0,0.0,0.0938,-0.9923,0.1379,0.7771,-0.6163,-0.1053,0.0722
523,0.0,0.0,0.0,0.0,0.0,0.0,0.0948,-1.0040,0.1394,0.7762,-0.6173,-0.1060,0.0717
524,0.0,0.0,0.0,0.0,0.0,0.0,0.0973,-1.0118,0.1409,0.7756,-0.6180,-0.1067,0.0715
525,0.0,0.0,0.0,0.0,0.0,0.0,0.0953,-1.0337,0.1433,0.7754,-0.6182,-0.1072,0.0715
526,0.0,0.0,0.0,0.0,0.0,0.0,0.0973,-1.0201,0.1389,0.7754,-0.6182,-0.1073,0.0717
527,0.0,0.0,0.0,0.0,0.0,0.0,0.1011,-0.9737,0.1243,0.7751,-0.6184,-0.1078,0.0718
528,0.0,0.0,0.0,0.0,0.0,0.0,0.0968,-1.0127,0.1350,0.7748,-0.6188,-0.1078,0.0720
529,0.0,0.0,0.0,0.0,0.0,0.0,0.1002,-1.0074,0.1379,0.7748,-0.6187,-0.1078,0.0721
530,0.0,0.0,0.0,0.0,0.0,0.0,0.0928,-0.9869,0.1340,0.7747,-0.6189,-0.1076,0.0722
531,0.0,0.0,0.0,0.0,0.0,0.0,0.0934,-1.0215,0.1467,0.7748,-0.6188,-0.1072,0.0724
532,0.0,0.0,0.0,0.0,0.0,0.0,0.0938,-0.9854,0.1404,0.7752,-0.6184,-0.1066,0.0727
533,0.0,0.0,0.0,0.0,0.0,0.0,0.0948,-0.9747,0.1330,0.7754,-0.6181,-0.1062,0.0728
534,0.0,0.0,0.0,0.0,0.0,0.0,0.0889,-0.9796,0.1345,0.7754,-0.6183,-0.1058,0.0728
535,0.0,0.0,0.0,0.0,0.0,0.0,0.0874,-0.9771,0.1330,0.7753,-0.6185,-0.1056,0.0729
536,0.0,0.0,0.0,0.0,0.0,0.0,0.0830,-0.9810,0.1325,0.7750,-0.6188,-0.1054,0.0731
537,0.0,0.0,0.0,0.0,0.0,0.0,0.0815,-0.9820,0.1325,0.7745,-0.6195,-0.1055,0.0731
538,0.0,0.0,0.0,0.0,0.0,0.0,0.0825,-0.9932,0.1345,0.7740,-0.6200,-0.1056,0.0731
539,0.0,0.0,0.0,0.0,0.0,0.0,0.0806,-0.9917,0.1316,0.7736,-0.6205,-0.1055,0.0732
540,0.0,0.0,0.0,0.0,0.0,0.0,0.0806,-0.9820,0.1262,0.7729,-0.6213,-0.1057,0.0733
541,0.0,0.0,0.0,0.0,0.0,0.0,0.0801,-0.9947,0.1306,0.7722,-0.6222,-0.1059,0.0735
542,0.0,0.0,0.0,0.0,0.0,0.0,0.0821,-0.9976,0.1330,0.7716,-0.6228,-0.1061,0.0737
543,0.0,0.0,0.0,0.0,0.0,0.0,0.0801,-0.9913,0.1320,0.7711,-0.6234,-0.1064,0.0739
544,0.0,0.0,0.0,0.0,0.0,0.0,0.0816,-1.0113,0.1404,0.7706,-0.6240,-0.1065,0.0742
545,0.0,0.0,0.0,0.0,0.0,0.0,0.0894,-1.0303,0.1409,0.7704,-0.6242,-0.1065,0.0745
546,0.0,0.0,0.0,0.0,0.0,0.0,0.0899,-1.0152,0.1350,0.7707,-0.6238,-0.1061,0.0747
547,0.0,0.0,0.0,0.0,0.0,0.0,0.0879,-1.0122,0.1233,0.7711,-0.6234,-0.1056,0.0750
548,0.0,0.0,0.0,0.0,0.0,0.0,0.0875,-1.0332,0.1281,0.7714,-0.6231,-0.1052,0.0753
549,0.0,0.0,0.0,0.0,0.0,0.0,0.0875,-1.0400,0.1316,0.7720,-0.6224,-0.1042,0.0757
550,0.0,0.0,0.0,0.0,0.0,0.0,0.0811,-1.0269,0.1276,0.7729,-0.6215,-0.1027,0.0764
551,0.0,0.0,0.0,0.0,0.0,0.0,0.0825,-0.9971,0.1262,0.7737,-0.6206,-0.1013,0.0773
552,0.0,0.0,0.0,0.0,0.0,0.0,0.0757,-0.9786,0.1271,0.7744,-0.6198,-0.1000,0.0781
553,0.0,0.0,0.0,0.0,0.0,0.0,0.0737,-0.9537,0.1223,0.7750,-0.6192,-0.0991,0.0789
554,0.0,0.0,0.0,0.0,0.0,0.0,0.0712,-0.9566,0.1237,0.7752,-0.6189,-0.0986,0.0795
555,0.0,0.0,0.0,0.0,0.0,0.0,0.0717,-0.9542,0.1203,0.7749,-0.6191,-0.0988,0.0801
556,0.0,0.0,0.0,0.0,0.0,0.0,0.0781,-0.9625,0.1223,0.7746,-0.6193,-0.0996,0.0804
557,0.0,0.0,0.0,0.0,0.0,0.0,0.0801,-0.9737,0.1252,0.7740,-0.6199,-0.1008,0.0806
558,0.0,0.0,0.0,0.0,0.0,0.0,0.0840,-0.9898,0.1276,0.7733,-0.6205,-0.1021,0.0807
559,0.0,0.0,0.0,0.0,0.0,0.0,0.0889,-1.0000,0.1267,0.7727,-0.6210,-0.1034,0.0807
560,0.0,0.0,0.0,0.0,0.0,0.0,0.0948,-1.0166,0.1272,0.7723,-0.6214,-0.1048,0.0805
561,0.0,0.0,0.0,0.0,0.0,0.0,0.0958,-1.0093,0.1184,0.7720,-0.6216,-0.1060,0.0803
562,0.0,0.0,0.0,0.0,0.0,0.0,0.0938,-1.0015,0.1110,0.7716,-0.6219,-0.1072,0.0800
563,0.0,0.0,0.0,0.0,0.0,0.0,0.1011,-1.0113,0.1194,0.7713,-0.6220,-0.1086,0.0799
564,0.0,0.0,0.0,0.0,0.0,0.0,0.1090,-1.0298,0.1282,0.7717,-0.6213,-0.1098,0.0799
565,0.0,0.0,0.0,0.0,0.0,0.0,0.1218,-1.0362,0.1311,0.7728,-0.6197,-0.1109,0.0799
566,0.0,0.0,0.0,0.0,0.0,0.0,0.1306,-1.0474,0.1312,0.7741,-0.6179,-0.1119,0.0800
567,0.0,0.0,0.0,0.0,0.0,0.0,0.1375,-1.0684,0.1405,0.7758,-0.6157,-0.1122,0.0803
568,0.0,0.0,0.0,0.0,0.0,0.0,0.1286,-1.0128,0.1243,0.7778,-0.6135,-0.1108,0.0801
569,0.0,0.0,0.0,0.0,0.0,0.0,0.1181,-0.8961,0.0881,0.7788,-0.6125,-0.1096,0.0795
570,0.0,0.0,0.0,0.0,0.0,0.0,0.1245,-0.8932,0.0984,0.7786,-0.6128,-0.1100,0.0782
571,0.0,0.0,0.0,0.0,0.0,0.0,0.1245,-0.9118,0.1057,0.7776,-0.6142,-0.1111,0.0760
572,0.0,0.0,0.0,0.0,0.0,0.0,0.1211,-0.9020,0.0969,0.7759,-0.6164,-0.1125,0.0733
573,0.0,0.0,0.0,0.0,0.0,0.0,0.1226,-0.9230,0.0954,0.7738,-0.6191,-0.1140,0.0703
574,0.0,0.0,0.0,0.0,0.0,0.0,0.1167,-0.9351,0.0906,0.7711,-0.6226,-0.1155,0.0666
575,0.0,0.0,0.0,0.0,0.0,0.0,0.1104,-0.9571,0.0915,0.7680,-0.6266,-0.1170,0.0625
576,0.0,0.0,0.0,0.0,0.0,0.0,0.1085,-1.0000,0.1008,0.7652,-0.6302,-0.1182,0.0585
577,0.0,0.0,0.0,0.0,0.0,0.0,0.1124,-1.0195,0.1018,0.7628,-0.6331,-0.1193,0.0548
578,0.0,0.0,0.0,0.0,0.0,0.0,0.1178,-1.0361,0.0984,0.7607,-0.6358,-0.1202,0.0515
579,0.0,0.0,0.0,0.0,0.0,0.0,0.1178,-1.0459,0.0979,0.7589,-0.6382,-0.1207,0.0484
580,0.0,0.0,0.0,0.0,0.0,0.0,0.1114,-1.0390,0.1008,0.7576,-0.6399,-0.1207,0.0458
581,0.0,0.0,0.0,0.0,0.0,0.0,0.1115,-1.0566,0.1077,0.7567,-0.6410,-0.1204,0.0438
582,0.0,0.0,0.0,0.0,0.0,0.0,0.1100,-1.0615,0.1077,0.7563,-0.6418,-0.1198,0.0420
583,0.0,0.0,0.0,0.0,0.0,0.0,0.1129,-1.0610,0.1126,0.7566,-0.6418,-0.1188,0.0409
584,0.0,0.0,0.0,0.0,0.0,0.0,0.1139,-1.0474,0.1150,0.7572,-0.6413,-0.1176,0.0401
585,0.0,0.0,0.0,0.0,0.0,0.0,0.1071,-1.0420,0.1184,0.7580,-0.6407,-0.1161,0.0399
586,0.0,0.0,0.0,0.0,0.0,0.0,0.1036,-1.0259,0.1204,0.7593,-0.6394,-0.1143,0.0402
587,0.0,0.0,0.0,0.0,0.0,0.0,0.1080,-1.0161,0.1257,0.7610,-0.6376,-0.1124,0.0409
588,0.0,0.0,0.0,0.0,0.0,0.0,0.1119,-1.0108,0.1326,0.7630,-0.6355,-0.1107,0.0420
589,0.0,0.0,0.0,0.0,0.0,0.0,0.1100,-1.0113,0.1380,0.7648,-0.6334,-0.1090,0.0435
590,0.0,0.0,0.0,0.0,0.0,0.0,0.1080,-1.0025,0.1389,0.7670,-0.6311,-0.1072,0.0451
591,0.0,0.0,0.0,0.0,0.0,0.0,0.1080,-0.9874,0.1389,0.7691,-0.6286,-0.1055,0.0468
592,0.0,0.0,0.0,0.0,0.0,0.0,0.1094,-0.9718,0.1350,0.7711,-0.6262,-0.1042,0.0488
593,0.0,0.0,0.0,0.0,0.0,0.0,0.1075,-0.9581,0.1326,0.7728,-0.6241,-0.1033,0.0506
594,0.0,0.0,0.0,0.0,0.0,0.0,0.1070,-0.9723,0.1350,0.7741,-0.6225,-0.1028,0.0525
595,0.0,0.0,0.0,0.0,0.0,0.0,0.1090,-0.9698,0.1321,0.7752,-0.6209,-0.1027,0.0545
596,0.0,0.0,0.0,0.0,0.0,0.0,0.1085,-0.9713,0.1292,0.7763,-0.6194,-0.1028,0.0564
597,0.0,0.0,0.0,0.0,0.0,0.0,0.1090,-0.9810,0.1296,0.7772,-0.6180,-0.1031,0.0584
598,0.0,0.0,0.0,0.0,0.0,0.0,0.1129,-0.9810,0.1287,0.7779,-0.6168,-0.1038,0.0603
599,0.0,0.0,0.0,0.0,0.0,0.0,0.1094,-0.9732,0.1228,0.7785,-0.6158,-0.1045,0.0622
600,0.0,0.0,0.0,0.0,0.0,0.0,0.1124,-0.9801,0.1223,0.7787,-0.6151,-0.1056,0.0641
601,0.0,0.0,0.0,0.0,0.0,0.0,0.1173,-0.9957,0.1248,0.7790,-0.6143,-0.1070,0.0661
602,0.0,0.0,0.0,0.0,0.0,0.0,0.1178,-1.0006,0.1272,0.7792,-0.6136,-0.1084,0.0682
603,0.0,0.0,0.0,0.0,0.0,0.0,0.1188,-1.0059,0.1306,0.7795,-0.6127,-0.1096,0.0703
604,0.0,0.0,0.0,0.0,0.0,0.0,0.1168,-1.0118,0.1311,0.7800,-0.6117,-0.1106,0.0725
605,0.0,0.0,0.0,0.0,0.0,0.0,0.1193,-1.0167,0.1341,0.7804,-0.6107,-0.1116,0.0749
606,0.0,0.0,0.0,0.0,0.0,0.0,0.1212,-1.0123,0.1350,0.7811,-0.6093,-0.1125,0.0772
607,0.0,0.0,0.0,0.0,0.0,0.0,0.1217,-1.0020,0.1355,0.7820,-0.6078,-0.1131,0.0797
608,0.0,0.0,0.0,0.0,0.0,0.0,0.1276,-0.9952,0.1409,0.7828,-0.6063,-0.1137,0.0823
609,0.0,0.0,0.0,0.0,0.0,0.0,0.1310,-0.9835,0.1375,0.7837,-0.6046,-0.1144,0.0847
610,0.0,0.0,0.0,0.0,0.0,0.0,0.1183,-0.9776,0.1336,0.7845,-0.6032,-0.1148,0.0869
611,0.0,0.0,0.0,0.0,0.0,0.0,0.1080,-0.9918,0.1389,0.7848,-0.6024,-0.1150,0.0892
612,0.0,0.0,0.0,0.0,0.0,0.0,0.1036,-1.0074,0.1463,0.7853,-0.6014,-0.1151,0.0914
613,0.0,0.0,0.0,0.0,0.0,0.0,0.1027,-1.0191,0.1614,0.7862,-0.6000,-0.1149,0.0937
614,0.0,0.0,0.0,0.0,0.0,0.0,0.1002,-1.0225,0.1692,0.7875,-0.5980,-0.1142,0.0961
615,0.0,0.0,0.0,0.0,0.0,0.0,0.0992,-0.9806,0.1594,0.7888,-0.5960,-0.1136,0.0984
616,0.0,0.0,0.0,0.0,0.0,0.0,0.0978,-0.9874,0.1717,0.7900,-0.5941,-0.1130,0.1007
617,0.0,0.0,0.0,0.0,0.0,0.0,0.0958,-1.0035,0.1858,0.7914,-0.5921,-0.1122,0.1028
618,0.0,0.0,0.0,0.0,0.0,0.0,0.0910,-1.0143,0.1936,0.7929,-0.5900,-0.1108,0.1048
619,0.0,0.0,0.0,0.0,0.0,0.0,0.0880,-0.9904,0.1927,0.7946,-0.5875,-0.1091,0.1069
620,0.0,0.0,0.0,0.0,0.0,0.0,0.0855,-0.9743,0.1980,0.7966,-0.5849,-0.1072,0.1086
621,0.0,0.0,0.0,0.0,0.0,0.0,0.0851,-0.9826,0.2098,0.7985,-0.5823,-0.1054,0.1102
622,0.0,0.0,0.0,0.0,0.0,0.0,0.0753,-0.9850,0.2180,0.8003,-0.5800,-0.1034,0.1115
623,0.0,0.0,0.0,0.0,0.0,0.0,0.0738,-0.9714,0.2176,0.8020,-0.5777,-0.1013,0.1128
624,0.0,0.0,0.0,0.0,0.0,0.0,0.0802,-0.9587,0.2210,0.8035,-0.5758,-0.0995,0.1137
625,0.0,0.0,0.0,0.0,0.0,0.0,0.0777,-0.9680,0.2356,0.8050,-0.5738,-0.0978,0.1143
626,0.0,0.0,0.0,0.0,0.0,0.0,0.0709,-0.9597,0.2386,0.8067,-0.5718,-0.0957,0.1145
627,0.0,0.0,0.0,0.0,0.0,0.0,0.0630,-0.9324,0.2332,0.8081,-0.5702,-0.0936,0.1145
628,0.0,0.0,0.0,0.0,0.0,0.0,0.0616,-0.9426,0.2429,0.8094,-0.5688,-0.0917,0.1141
629,0.0,0.0,0.0,0.0,0.0,0.0,0.0572,-0.9412,0.2468,0.8104,-0.5678,-0.0898,0.1135
630,0.0,0.0,0.0,0.0,0.0,0.0,0.0577,-0.9568,0.2537,0.8113,-0.5669,-0.0883,0.1124
631,0.0,0.0,0.0,0.0,0.0,0.0,0.0611,-0.9426,0.2517,0.8122,-0.5660,-0.0868,0.1111
632,0.0,0.0,0.0,0.0,0.0,0.0,0.0572,-0.9378,0.2517,0.8127,-0.5659,-0.0855,0.1097
633,0.0,0.0,0.0,0.0,0.0,0.0,0.0572,-0.9568,0.2615,0.8131,-0.5657,-0.0843,0.1084
634,0.0,0.0,0.0,0.0,0.0,0.0,0.0577,-0.9763,0.2732,0.8136,-0.5653,-0.0831,0.1071
635,0.0,0.0,0.0,0.0,0.0,0.0,0.0513,-0.9387,0.2630,0.8146,-0.5645,-0.0816,0.1057
636,0.0,0.0,0.0,0.0,0.0,0.0,0.0538,-0.9954,0.2845,0.8155,-0.5635,-0.0803,0.1045
637,0.0,0.0,0.0,0.0,0.0,0.0,0.0504,-0.9871,0.2820,0.8167,-0.5624,-0.0786,0.1029
638,0.0,0.0,0.0,0.0,0.0,0.0,0.0415,-0.9373,0.2639,0.8174,-0.5619,-0.0768,0.1013
639,0.0,0.0,0.0,0.0,0.0,0.0,0.0415,-0.9178,0.2585,0.8177,-0.5620,-0.0752,0.0996
640,0.0,0.0,0.0,0.0,0.0,0.0,0.0430,-0.9036,0.2610,0.8177,-0.5624,-0.0743,0.0979
641,0.0,0.0,0.0,0.0,0.0,0.0,0.0459,-0.9319,0.2732,0.8172,-0.5635,-0.0738,0.0960
642,0.0,0.0,0.0,0.0,0.0,0.0,0.0347,-0.9324,0.2693,0.8164,-0.5651,-0.0728,0.0938
643,0.0,0.0,0.0,0.0,0.0,0.0,0.0082,-0.9128,0.2453,0.8150,-0.5678,-0.0713,0.0916
644,0.0,0.0,0.0,0.0,0.0,0.0,0.0141,-0.9519,0.2487,0.8133,-0.5706,-0.0704,0.0897
645,0.0,0.0,0.0,0.0,0.0,0.0,0.0230,-0.9953,0.2531,0.8114,-0.5736,-0.0700,0.0878
646,0.0,0.0,0.0,0.0,0.0,0.0,0.0269,-0.9938,0.2546,0.8097,-0.5762,-0.0699,0.0861
647,0.0,0.0,0.0,0.0,0.0,0.0,0.0391,-1.0017,0.2703,0.8088,-0.5778,-0.0700,0.0846
648,0.0,0.0,0.0,0.0,0.0,0.0,0.0450,-0.9758,0.2590,0.8083,-0.5788,-0.0698,0.0830
649,0.0,0.0,0.0,0.0,0.0,0.0,0.0410,-0.9543,0.2463,0.8074,-0.5801,-0.0699,0.0817
650,0.0,0.0,0.0,0.0,0.0,0.0,0.0381,-0.9914,0.2581,0.8068,-0.5812,-0.0699,0.0805
651,0.0,0.0,0.0,0.0,0.0,0.0,0.0288,-0.9484,0.2375,0.8061,-0.5823,-0.0698,0.0793
652,0.0,0.0,0.0,0.0,0.0,0.0,0.0312,-0.9626,0.2448,0.8054,-0.5834,-0.0701,0.0785
653,0.0,0.0,0.0,0.0,0.0,0.0,0.0367,-0.9826,0.2537,0.8048,-0.5841,-0.0706,0.0779
654,0.0,0.0,0.0,0.0,0.0,0.0,0.0352,-0.9577,0.2444,0.8042,-0.5851,-0.0711,0.0772
655,0.0,0.0,0.0,0.0,0.0,0.0,0.0395,-0.9372,0.2331,0.8034,-0.5861,-0.0720,0.0770
656,0.0,0.0,0.0,0.0,0.0,0.0,0.0464,-0.9587,0.2380,0.8024,-0.5873,-0.0734,0.0767
657,0.0,0.0,0.0,0.0,0.0,0.0,0.0484,-0.9782,0.2395,0.8013,-0.5886,-0.0748,0.0766
658,0.0,0.0,0.0,0.0,0.0,0.0,0.0552,-0.9670,0.2288,0.8002,-0.5899,-0.0763,0.0765
659,0.0,0.0,0.0,0.0,0.0,0.0,0.0582,-0.9743,0.2239,0.7989,-0.5914,-0.0780,0.0765
660,0.0,0.0,0.0,0.0,0.0,0.0,0.0616,-0.9841,0.2190,0.7975,-0.5931,-0.0797,0.0765
661,0.0,0.0,0.0,0.0,0.0,0.0,0.0611,-0.9816,0.2107,0.7962,-0.5947,-0.0813,0.0763
662,0.0,0.0,0.0,0.0,0.0,0.0,0.0635,-0.9909,0.2073,0.7949,-0.5962,-0.0829,0.0763
663,0.0,0.0,0.0,0.0,0.0,0.0,0.0645,-1.0006,0.2034,0.7936,-0.5977,-0.0844,0.0763
664,0.0,0.0,0.0,0.0,0.0,0.0,0.0606,-1.0045,0.1985,0.7925,-0.5989,-0.0856,0.0763
665,0.0,0.0,0.0,0.0,0.0,0.0,0.0621,-0.9986,0.1926,0.7917,-0.5999,-0.0867,0.0764
666,0.0,0.0,0.0,0.0,0.0,0.0,0.0601,-0.9933,0.1828,0.7910,-0.6007,-0.0877,0.0766
667,0.0,0.0,0.0,0.0,0.0,0.0,0.0625,-0.9908,0.1794,0.7902,-0.6014,-0.0889,0.0769
668,0.0,0.0,0.0,0.0,0.0,0.0,0.0655,-0.9981,0.1784,0.7894,-0.6022,-0.0902,0.0774
669,0.0,0.0,0.0,0.0,0.0,0.0,0.0655,-0.9986,0.1731,0.7887,-0.6029,-0.0913,0.0781
670,0.0,0.0,0.0,0.0,0.0,0.0,0.0684,-0.9923,0.1672,0.7881,-0.6034,-0.0926,0.0789
671,0.0,0.0,0.0,0.0,0.0,0.0,0.0698,-0.9879,0.1638,0.7874,-0.6040,-0.0941,0.0798
672,0.0,0.0,0.0,0.0,0.0,0.0,0.0752,-0.9845,0.1609,0.7866,-0.6046,-0.0959,0.0808
673,0.0,0.0,0.0,0.0,0.0,0.0,0.0796,-0.9889,0.1609,0.7857,-0.6053,-0.0978,0.0817
674,0.0,0.0,0.0,0.0,0.0,0.0,0.0816,-0.9859,0.1560,0.7849,-0.6060,-0.0997,0.0826
675,0.0,0.0,0.0,0.0,0.0,0.0,0.0875,-0.9859,0.1511,0.7842,-0.6064,-0.1018,0.0836
676,0.0,0.0,0.0,0.0,0.0,0.0,0.0884,-0.9898,0.1482,0.7831,-0.6073,-0.1040,0.0846
677,0.0,0.0,0.0,0.0,0.0,0.0,0.0973,-0.9996,0.1511,0.7819,-0.6083,-0.1063,0.0856
678,0.0,0.0,0.0,0.0,0.0,0.0,0.0982,-0.9962,0.1526,0.7813,-0.6086,-0.1083,0.0863
679,0.0,0.0,0.0,0.0,0.0,0.0,0.0982,-0.9830,0.1511,0.7806,-0.6090,-0.1103,0.0871
680,0.0,0.0,0.0,0.0,0.0,0.0,0.1016,-0.9757,0.1487,0.7798,-0.6096,-0.1124,0.0877
681,0.0,0.0,0.0,0.0,0.0,0.0,0.1051,-0.9947,0.1546,0.7789,-0.6103,-0.1143,0.0882
682,0.0,0.0,0.0,0.0,0.0,0.0,0.1041,-0.9991,0.1531,0.7780,-0.6110,-0.1161,0.0885
683,0.0,0.0,0.0,0.0,0.0,0.0,0.1065,-0.9933,0.1477,0.7770,-0.6119,-0.1179,0.0888
684,0.0,0.0,0.0,0.0,0.0,0.0,0.1061,-0.9972,0.1482,0.7761,-0.6128,-0.1194,0.0890
685,0.0,0.0,0.0,0.0,0.0,0.0,0.1100,-1.0069,0.1507,0.7753,-0.6135,-0.1210,0.0889
686,0.0,0.0,0.0,0.0,0.0,0.0,0.1149,-1.0460,0.1600,0.7748,-0.6139,-0.1220,0.0888
687,0.0,0.0,0.0,0.0,0.0,0.0,0.1120,-1.0133,0.1492,0.7748,-0.6138,-0.1225,0.0885
688,0.0,0.0,0.0,0.0,0.0,0.0,0.1154,-1.0177,0.1497,0.7750,-0.6136,-0.1227,0.0881
689,0.0,0.0,0.0,0.0,0.0,0.0,0.1105,-1.0128,0.1443,0.7754,-0.6132,-0.1224,0.0877
690,0.0,0.0,0.0,0.0,0.0,0.0,0.1075,-1.0040,0.1414,0.7760,-0.6126,-0.1220,0.0872
691,0.0,0.0,0.0,0.0,0.0,0.0,0.1026,-1.0064,0.1419,0.7764,-0.6123,-0.1213,0.0869
692,0.0,0.0,0.0,0.0,0.0,0.0,0.1026,-0.9927,0.1345,0.7767,-0.6121,-0.1207,0.0867
693,0.0,0.0,0.0,0.0,0.0,0.0,0.1085,-0.9874,0.1326,0.7770,-0.6119,-0.1203,0.0863
694,0.0,0.0,0.0,0.0,0.0,0.0,0.1056,-1.0074,0.1399,0.7774,-0.6115,-0.1196,0.0859
695,0.0,0.0,0.0,0.0,0.0,0.0,0.1031,-1.0132,0.1448,0.7779,-0.6111,-0.1186,0.0857
696,0.0,0.0,0.0,0.0,0.0,0.0,0.1070,-0.9913,0.1404,0.7787,-0.6104,-0.1176,0.0854
697,0.0,0.0,0.0,0.0,0.0,0.0,0.1031,-0.9908,0.1448,0.7793,-0.6099,-0.1166,0.0849
698,0.0,0.0,0.0,0.0,0.0,0.0,0.1021,-0.9859,0.1492,0.7797,-0.6095,-0.1158,0.0843
699,0.0,0.0,0.0,0.0,0.0,0.0,0.0968,-0.9894,0.1521,0.7803,-0.6091,-0.1148,0.0840
700,0.0,0.0,0.0,0.0,0.0,0.0,0.0943,-0.9781,0.1536,0.7807,-0.6088,-0.1138,0.0835
701,0.0,0.0,0.0,0.0,0.0,0.0,0.0972,-0.9742,0.1633,0.7813,-0.6082,-0.1130,0.0828
702,0.0,0.0,0.0,0.0,0.0,0.0,0.0929,-0.9850,0.1712,0.7820,-0.6076,-0.1120,0.0821
703,0.0,0.0,0.0,0.0,0.0,0.0,0.0924,-0.9772,0.1716,0.7825,-0.6073,-0.1109,0.0814
704,0.0,0.0,0.0,0.0,0.0,0.0,0.0889,-0.9650,0.1707,0.7829,-0.6070,-0.1099,0.0805
705,0.0,0.0,0.0,0.0,0.0,0.0,0.0821,-0.9645,0.1726,0.7832,-0.6070,-0.1089,0.0794
706,0.0,0.0,0.0,0.0,0.0,0.0,0.0733,-0.9738,0.1745,0.7833,-0.6071,-0.1079,0.0784
707,0.0,0.0,0.0,0.0,0.0,0.0,0.0679,-0.9728,0.1726,0.7836,-0.6071,-0.1067,0.0777
708,0.0,0.0,0.0,0.0,0.0,0.0,0.0826,-0.9660,0.1736,0.7837,-0.6072,-0.1060,0.0769
709,0.0,0.0,0.0,0.0,0.0,0.0,0.0762,-0.9816,0.1794,0.7836,-0.6075,-0.1055,0.0762
710,0.0,0.0,0.0,0.0,0.0,0.0,0.0728,-0.9899,0.1829,0.7838,-0.6075,-0.1047,0.0756
711,0.0,0.0,0.0,0.0,0.0,0.0,0.0733,-1.0035,0.1887,0.7841,-0.6072,-0.1039,0.0752
712,0.0,0.0,0.0,0.0,0.0,0.0,0.0777,-0.9889,0.1838,0.7844,-0.6070,-0.1031,0.0749
713,0.0,0.0,0.0,0.0,0.0,0.0,0.0821,-0.9679,0.1755,0.7848,-0.6067,-0.1026,0.0746
714,0.0,0.0,0.0,0.0,0.0,0.0,0.0914,-0.9591,0.1712,0.7849,-0.6065,-0.1027,0.0743
715,0.0,0.0,0.0,0.0,0.0,0.0,0.0884,-0.9767,0.1736,0.7847,-0.6068,-0.1028,0.0741
716,0.0,0.0,0.0,0.0,0.0,0.0,0.0904,-0.9786,0.1707,0.7842,-0.6074,-0.1031,0.0739
717,0.0,0.0,0.0,0.0,0.0,0.0,0.0919,-0.9806,0.1702,0.7837,-0.6080,-0.1034,0.0737
718,0.0,0.0,0.0,0.0,0.0,0.0,0.1036,-0.9816,0.1648,0.7831,-0.6087,-0.1041,0.0735
719,0.0,0.0,0.0,0.0,0.0,0.0,0.1070,-0.9708,0.1541,0.7821,-0.6098,-0.1051,0.0733
720,0.0,0.0,0.0,0.0,0.0,0.0,0.1016,-0.9728,0.1467,0.7810,-0.6111,-0.1059,0.0731
721,0.0,0.0,0.0,0.0,0.0,0.0,0.1060,-0.9762,0.1379,0.7798,-0.6126,-0.1069,0.0727
722,0.0,0.0,0.0,0.0,0.0,0.0,0.1070,-0.9908,0.1350,0.7784,-0.6142,-0.1081,0.0723
723,0.0,0.0,0.0,0.0,0.0,0.0,0.1021,-0.9981,0.1340,0.7771,-0.6157,-0.1089,0.0719
724,0.0,0.0,0.0,0.0,0.0,0.0,0.1011,-0.9981,0.1277,0.7759,-0.6171,-0.1097,0.0716
725,0.0,0.0,0.0,0.0,0.0,0.0,0.1065,-0.9976,0.1199,0.7747,-0.6185,-0.1107,0.0714
726,0.0,0.0,0.0,0.0,0.0,0.0,0.1075,-1.0015,0.1238,0.7734,-0.6199,-0.1119,0.0712
727,0.0,0.0,0.0,0.0,0.0,0.0,0.1075,-1.0293,0.1345,0.7727,-0.6207,-0.1125,0.0711
728,0.0,0.0,0.0,0.0,0.0,0.0,0.1036,-1.0079,0.1291,0.7723,-0.6212,-0.1126,0.0712
729,0.0,0.0,0.0,0.0,0.0,0.0,0.1011,-1.0020,0.1199,0.7716,-0.6220,-0.1128,0.0713
730,0.0,0.0,0.0,0.0,0.0,0.0,0.0958,-1.0171,0.1238,0.7711,-0.6226,-0.1128,0.0716
731,0.0,0.0,0.0,0.0,0.0,0.0,0.1046,-1.0318,0.1336,0.7709,-0.6227,-0.1130,0.0719
732,0.0,0.0,0.0,0.0,0.0,0.0,0.1080,-1.0245,0.1365,0.7712,-0.6223,-0.1130,0.0723
733,0.0,0.0,0.0,0.0,0.0,0.0,0.1065,-0.9879,0.1277,0.7717,-0.6216,-0.1128,0.0726
734,0.0,0.0,0.0,0.0,0.0,0.0,0.1040,-0.9718,0.1228,0.7720,-0.6213,-0.1127,0.0730
735,0.0,0.0,0.0,0.0,0.0,0.0,0.1006,-0.9635,0.1233,0.7720,-0.6212,-0.1128,0.0733
736,0.0,0.0,0.0,0.0,0.0,0.0,0.1001,-0.9713,0.1243,0.7719,-0.6213,-0.1131,0.0734
737,0.0,0.0,0.0,0.0,0.0,0.0,0.1006,-0.9918,0.1267,0.7716,-0.6215,-0.1135,0.0734
738,0.0,0.0,0.0,0.0,0.0,0.0,0.0997,-0.9976,0.1277,0.7713,-0.6219,-0.1140,0.0735
739,0.0,0.0,0.0,0.0,0.0,0.0,0.1002,-1.0005,0.1267,0.7710,-0.6222,-0.1145,0.0738
740,0.0,0.0,0.0,0.0,0.0,0.0,0.0967,-0.9947,0.1223,0.7706,-0.6224,-0.1148,0.0741
741,0.0,0.0,0.0,0.0,0.0,0.0,0.0928,-0.9869,0.1208,0.7702,-0.6228,-0.1151,0.0746
742,0.0,0.0,0.0,0.0,0.0,0.0,0.1001,-0.9849,0.1208,0.7698,-0.6232,-0.1157,0.0751
743,0.0,0.0,0.0,0.0,0.0,0.0,0.1006,-0.9859,0.1213,0.7692,-0.6237,-0.1162,0.0757
744,0.0,0.0,0.0,0.0,0.0,0.0,0.1011,-0.9942,0.1243,0.7686,-0.6243,-0.1168,0.0764
745,0.0,0.0,0.0,0.0,0.0,0.0,0.1006,-0.9908,0.1203,0.7681,-0.6248,-0.1171,0.0771
746,0.0,0.0,0.0,0.0,0.0,0.0,0.1021,-0.9859,0.1179,0.7675,-0.6254,-0.1176,0.0778
747,0.0,0.0,0.0,0.0,0.0,0.0,0.0987,-0.9898,0.1125,0.7666,-0.6263,-0.1180,0.0787
748,0.0,0.0,0.0,0.0,0.0,0.0,0.0977,-0.9956,0.1081,0.7656,-0.6273,-0.1182,0.0796
749,0.0,0.0,0.0,0.0,0.0,0.0,0.0972,-1.0010,0.1081,0.7647,-0.6282,-0.1186,0.0806
750,0.0,0.0,0.0,0.0,0.0,0.0,0.0953,-1.0068,0.1096,0.7639,-0.6290,-0.1188,0.0815
751,0.0,0.0,0.0,0.0,0.0,0.0,0.0923,-0.9990,0.1057,0.7631,-0.6298,-0.1189,0.0824
752,0.0,0.0,0.0,0.0,0.0,0.0,0.0952,-0.9922,0.1003,0.7624,-0.6306,-0.1193,0.0834
753,0.0,0.0,0.0,0.0,0.0,0.0,0.0948,-1.0156,0.1071,0.7617,-0.6312,-0.1196,0.0842
754,0.0,0.0,0.0,0.0,0.0,0.0,0.0919,-1.0307,0.1145,0.7614,-0.6315,-0.1197,0.0850
755,0.0,0.0,0.0,0.0,0.0,0.0,0.0904,-1.0107,0.1066,0.7613,-0.6315,-0.1196,0.0858
756,0.0,0.0,0.0,0.0,0.0,0.0,0.0918,-1.0127,0.1042,0.7613,-0.6314,-0.1196,0.0865
757,0.0,0.0,0.0,0.0,0.0,0.0,0.0963,-1.0429,0.1169,0.7615,-0.6310,-0.1196,0.0871
758,0.0,0.0,0.0,0.0,0.0,0.0,0.0948,-1.0351,0.1135,0.7625,-0.6299,-0.1190,0.0877
759,0.0,0.0,0.0,0.0,0.0,0.0,0.0972,-1.0049,0.1032,0.7635,-0.6287,-0.1185,0.0880
760,0.0,0.0,0.0,0.0,0.0,0.0,0.0943,-1.0161,0.1111,0.7647,-0.6273,-0.1179,0.0883
761,0.0,0.0,0.0,0.0,0.0,0.0,0.0879,-1.0269,0.1213,0.7662,-0.6256,-0.1168,0.0888
762,0.0,0.0,0.0,0.0,0.0,0.0,0.0899,-1.0254,0.1242,0.7679,-0.6237,-0.1158,0.0891
763,0.0,0.0,0.0,0.0,0.0,0.0,0.0884,-1.0020,0.1193,0.7696,-0.6217,-0.1147,0.0896
764,0.0,0.0,0.0,0.0,0.0,0.0,0.0884,-0.9922,0.1218,0.7711,-0.6199,-0.1139,0.0901
765,0.0,0.0,0.0,0.0,0.0,0.0,0.0884,-0.9864,0.1257,0.7727,-0.6180,-0.1131,0.0906
766,0.0,0.0,0.0,0.0,0.0,0.0,0.0898,-0.9610,0.1237,0.7742,-0.6162,-0.1127,0.0908
767,0.0,0.0,0.0,0.0,0.0,0.0,0.0898,-0.9639,0.1281,0.7752,-0.6149,-0.1124,0.0911
768,0.0,0.0,0.0,0.0,0.0,0.0,0.0869,-0.9649,0.1330,0.7759,-0.6140,-0.1124,0.0912
769,0.0,0.0,0.0,0.0,0.0,0.0,0.0825,-0.9488,0.1320,0.7764,-0.6134,-0.1125,0.0913
770,0.0,0.0,0.0,0.0,0.0,0.0,0.0850,-0.9562,0.1369,0.7766,-0.6131,-0.1129,0.0916
771,0.0,0.0,0.0,0.0,0.0,0.0,0.0903,-0.9537,0.1374,0.7766,-0.6128,-0.1137,0.0916
772,0.0,0.0,0.0,0.0,0.0,0.0,0.0854,-0.9444,0.1345,0.7764,-0.6129,-0.1147,0.0916
773,0.0,0.0,0.0,0.0,0.0,0.0,0.0908,-0.9542,0.1345,0.7757,-0.6136,-0.1161,0.0915
774,0.0,0.0,0.0,0.0,0.0,0.0,0.0859,-0.9683,0.1301,0.7745,-0.6148,-0.1175,0.0913
775,0.0,0.0,0.0,0.0,0.0,0.0,0.0923,-0.9854,0.1281,0.7734,-0.6159,-0.1191,0.0912
776,0.0,0.0,0.0,0.0,0.0,0.0,0.0928,-0.9859,0.1242,0.7723,-0.6170,-0.1207,0.0911
777,0.0,0.0,0.0,0.0,0.0,0.0,0.1007,-0.9981,0.1277,0.7710,-0.6182,-0.1224,0.0910
778,0.0,0.0,0.0,0.0,0.0,0.0,0.1041,-0.9996,0.1257,0.7698,-0.6195,-0.1241,0.0911
779,0.0,0.0,0.0,0.0,0.0,0.0,0.1051,-0.9961,0.1213,0.7686,-0.6206,-0.1255,0.0911
780,0.0,0.0,0.0,0.0,0.0,0.0,0.1036,-1.0005,0.1184,0.7673,-0.6221,-0.1267,0.0910
781,0.0,0.0,0.0,0.0,0.0,0.0,0.0997,-1.0147,0.1169,0.7662,-0.6233,-0.1273,0.0911
782,0.0,0.0,0.0,0.0,0.0,0.0,0.1158,-1.0132,0.1150,0.7652,-0.6243,-0.1281,0.0911
783,0.0,0.0,0.0,0.0,0.0,0.0,0.1031,-1.0410,0.1223,0.7646,-0.6251,-0.1282,0.0909
784,0.0,0.0,0.0,0.0,0.0,0.0,0.0988,-1.0644,0.1262,0.7643,-0.6256,-0.1275,0.0911
785,0.0,0.0,0.0,0.0,0.0,0.0,0.0978,-1.0913,0.1321,0.7647,-0.6253,-0.1257,0.0917
786,0.0,0.0,0.0,0.0,0.0,0.0,0.0851,-1.0893,0.1282,0.7657,-0.6245,-0.1227,0.0928
787,0.0,0.0,0.0,0.0,0.0,0.0,0.0855,-1.0307,0.1154,0.7671,-0.6232,-0.1194,0.0946
788,0.0,0.0,0.0,0.0,0.0,0.0,0.0776,-0.9771,0.1071,0.7685,-0.6217,-0.1157,0.0970
789,0.0,0.0,0.0,0.0,0.0,0.0,0.0746,-0.9190,0.0944,0.7694,-0.6208,-0.1129,0.0994
790,0.0,0.0,0.0,0.0,0.0,0.0,0.0731,-0.8912,0.0831,0.7691,-0.6211,-0.1112,0.1017
791,0.0,0.0,0.0,0.0,0.0,0.0,0.0711,-0.9156,0.0783,0.7678,-0.6225,-0.1104,0.1037
792,0.0,0.0,0.0,0.0,0.0,0.0,0.0638,-0.9273,0.0665,0.7663,-0.6242,-0.1101,0.1052
793,0.0,0.0,0.0,0.0,0.0,0.0,0.0613,-0.9136,0.0567,0.7637,-0.6269,-0.1111,0.1064
794,0.0,0.0,0.0,0.0,0.0,0.0,0.0595,-0.9838,0.0792,0.7610,-0.6299,-0.1128,0.1072
795,0.0,0.0,0.0,0.0,0.0,0.0,0.0532,-1.0458,0.0929,0.7589,-0.6321,-0.1139,0.1076
796,0.0,0.0,0.0,0.0,0.0,0.0,0.0600,-1.0487,0.0778,0.7569,-0.6342,-0.1152,0.1079
797,0.0,0.0,0.0,0.0,0.0,0.0,0.0708,-1.0619,0.0749,0.7556,-0.6355,-0.1165,0.1080
798,0.0,0.0,0.0,0.0,0.0,0.0,0.0678,-1.0351,0.0748,0.7547,-0.6364,-0.1175,0.1079
799,0.0,0.0,0.0,0.0,0.0,0.0,0.0727,-1.0268,0.0807,0.7538,-0.6372,-0.1187,0.1078
800,0.0,0.0,0.0,0.0,0.0,0.0,0.0649,-1.0351,0.0998,0.7538,-0.6372,-0.1192,0.1076
801,0.0,0.0,0.0,0.0,0.0,0.0,0.0591,-1.0473,0.1213,0.7543,-0.6372,-0.1175,0.1060
802,0.0,0.0,0.0,0.0,0.0,0.0,0.0566,-0.9956,0.1169,0.7553,-0.6361,-0.1171,0.1057
803,0.0,0.0,0.0,0.0,0.0,0.0,0.0507,-0.9980,0.1198,0.7562,-0.6351,-0.1167,0.1053
804,0.0,0.0,0.0,0.0,0.0,0.0,0.0493,-1.0093,0.1281,0.7572,-0.6341,-0.1164,0.1048
805,0.0,0.0,0.0,0.0,0.0,0.0,0.0547,-1.0137,0.1315,0.7585,-0.6327,-0.1161,0.1044
806,0.0,0.0,0.0,0.0,0.0,0.0,0.0654,-1.0151,0.1350,0.7600,-0.6310,-0.1158,0.1039
807,0.0,0.0,0.0,0.0,0.0,0.0,0.0693,-0.9825,0.1262,0.7614,-0.6296,-0.1156,0.1030
808,0.0,0.0,0.0,0.0,0.0,0.0,0.0727,-0.9786,0.1218,0.7626,-0.6282,-0.1155,0.1021
809,0.0,0.0,0.0,0.0,0.0,0.0,0.0727,-0.9869,0.1267,0.7635,-0.6273,-0.1155,0.1010
810,0.0,0.0,0.0,0.0,0.0,0.0,0.0723,-0.9937,0.1286,0.7643,-0.6265,-0.1152,0.0998
811,0.0,0.0,0.0,0.0,0.0,0.0,0.0713,-1.0151,0.1315,0.7650,-0.6260,-0.1147,0.0986
812,0.0,0.0,0.0,0.0,0.0,0.0,0.0737,-1.0059,0.1296,0.7658,-0.6254,-0.1141,0.0974
813,0.0,0.0,0.0,0.0,0.0,0.0,0.0708,-0.9912,0.1262,0.7664,-0.6249,-0.1133,0.0964
814,0.0,0.0,0.0,0.0,0.0,0.0,0.0811,-0.9956,0.1272,0.7673,-0.6240,-0.1126,0.0954
815,0.0,0.0,0.0,0.0,0.0,0.0,0.0796,-0.9898,0.1228,0.7686,-0.6228,-0.1117,0.0942
816,0.0,0.0,0.0,0.0,0.0,0.0,0.0825,-0.9712,0.1188,0.7695,-0.6220,-0.1113,0.0929
817,0.0,0.0,0.0,0.0,0.0,0.0,0.0879,-0.9810,0.1218,0.7700,-0.6215,-0.1113,0.0916
818,0.0,0.0,0.0,0.0,0.0,0.0,0.0869,-0.9966,0.1291,0.7705,-0.6211,-0.1113,0.0903
819,0.0,0.0,0.0,0.0,0.0,0.0,0.0894,-0.9991,0.1340,0.7712,-0.6205,-0.1112,0.0889
820,0.0,0.0,0.0,0.0,0.0,0.0,0.0914,-0.9922,0.1325,0.7719,-0.6199,-0.1107,0.0876
821,0.0,0.0,0.0,0.0,0.0,0.0,0.0918,-0.9747,0.1272,0.7723,-0.6196,-0.1103,0.0863
822,0.0,0.0,0.0,0.0,0.0,0.0,0.0962,-0.9854,0.1316,0.7725,-0.6196,-0.1100,0.0848
823,0.0,0.0,0.0,0.0,0.0,0.0,0.0977,-0.9913,0.1345,0.7726,-0.6197,-0.1098,0.0832
824,0.0,0.0,0.0,0.0,0.0,0.0,0.0963,-0.9937,0.1350,0.7729,-0.6197,-0.1091,0.0819
825,0.0,0.0,0.0,0.0,0.0,0.0,0.0967,-0.9932,0.1345,0.7731,-0.6197,-0.1083,0.0804
826,0.0,0.0,0.0,0.0,0.0,0.0,0.0972,-0.9849,0.1321,0.7732,-0.6200,-0.1077,0.0787
827,0.0,0.0,0.0,0.0,0.0,0.0,0.0933,-0.9820,0.1286,0.7734,-0.6200,-0.1070,0.0771
828,0.0,0.0,0.0,0.0,0.0,0.0,0.0908,-0.9693,0.1233,0.7736,-0.6201,-0.1062,0.0753
829,0.0,0.0,0.0,0.0,0.0,0.0,0.0903,-0.9581,0.1179,0.7735,-0.6206,-0.1056,0.0736
830,0.0,0.0,0.0,0.0,0.0,0.0,0.0893,-0.9298,0.1057,0.7728,-0.6218,-0.1055,0.0715
831,0.0,0.0,0.0,0.0,0.0,0.0,0.0854,-0.9717,0.1189,0.7716,-0.6235,-0.1059,0.0691
832,0.0,0.0,0.0,0.0,0.0,0.0,0.0811,-0.9883,0.1208,0.7707,-0.6248,-0.1059,0.0669
833,0.0,0.0,0.0,0.0,0.0,0.0,0.0869,-0.9815,0.1154,0.7696,-0.6262,-0.1064,0.0649
834,0.0,0.0,0.0,0.0,0.0,0.0,0.0899,-1.0020,0.1194,0.7684,-0.6278,-0.1072,0.0629
835,0.0,0.0,0.0,0.0,0.0,0.0,0.0972,-1.0000,0.1111,0.7670,-0.6295,-0.1082,0.0610
836,0.0,0.0,0.0,0.0,0.0,0.0,0.1094,-0.9912,0.1018,0.7655,-0.6312,-0.1096,0.0595
837,0.0,0.0,0.0,0.0,0.0,0.0,0.1212,-0.9961,0.0979,0.7641,-0.6327,-0.1116,0.0581
838,0.0,0.0,0.0,0.0,0.0,0.0,0.1315,-1.0005,0.0979,0.7628,-0.6340,-0.1138,0.0567
839,0.0,0.0,0.0,0.0,0.0,0.0,0.1324,-0.9864,0.0906,0.7614,-0.6355,-0.1157,0.0553
840,0.0,0.0,0.0,0.0,0.0,0.0,0.1295,-0.9991,0.0945,0.7598,-0.6372,-0.1172,0.0540
841,0.0,0.0,0.0,0.0,0.0,0.0,0.1172,-0.9859,0.0866,0.7584,-0.6388,-0.1180,0.0529
842,0.0,0.0,0.0,0.0,0.0,0.0,0.1182,-0.9820,0.0837,0.7567,-0.6407,-0.1192,0.0520
843,0.0,0.0,0.0,0.0,0.0,0.0,0.1295,-0.9922,0.0832,0.7550,-0.6424,-0.1207,0.0512
844,0.0,0.0,0.0,0.0,0.0,0.0,0.1344,-0.9917,0.0759,0.7536,-0.6439,-0.1221,0.0503
845,0.0,0.0,0.0,0.0,0.0,0.0,0.1383,-0.9951,0.0720,0.7520,-0.6455,-0.1236,0.0495
846,0.0,0.0,0.0,0.0,0.0,0.0,0.1397,-0.9976,0.0657,0.7505,-0.6471,-0.1252,0.0487
847,0.0,0.0,0.0,0.0,0.0,0.0,0.1397,-1.0039,0.0632,0.7491,-0.6485,-0.1264,0.0480
848,0.0,0.0,0.0,0.0,0.0,0.0,0.1383,-1.0190,0.0608,0.7480,-0.6497,-0.1274,0.0473
849,0.0,0.0,0.0,0.0,0.0,0.0,0.1412,-1.0224,0.0588,0.7468,-0.6509,-0.1284,0.0468
850,0.0,0.0,0.0,0.0,0.0,0.0,0.1461,-1.0273,0.0559,0.7462,-0.6515,-0.1290,0.0465
851,0.0,0.0,0.0,0.0,0.0,0.0,0.1486,-1.0292,0.0496,0.7458,-0.6519,-0.1295,0.0463
852,0.0,0.0,0.0,0.0,0.0,0.0,0.1505,-1.0331,0.0452,0.7454,-0.6523,-0.1297,0.0462
853,0.0,0.0,0.0,0.0,0.0,0.0,0.1500,-1.0341,0.0413,0.7453,-0.6524,-0.1295,0.0462
854,0.0,0.0,0.0,0.0,0.0,0.0,0.1490,-1.0263,0.0344,0.7453,-0.6524,-0.1291,0.0465
855,0.0,0.0,0.0,0.0,0.0,0.0,0.1500,-1.0195,0.0349,0.7455,-0.6523,-0.1286,0.0468
856,0.0,0.0,0.0,0.0,0.0,0.0,0.1471,-1.0165,0.0364,0.7459,-0.6520,-0.1279,0.0470
857,0.0,0.0,0.0,0.0,0.0,0.0,0.1436,-1.0112,0.0373,0.7464,-0.6515,-0.1272,0.0474
858,0.0,0.0,0.0,0.0,0.0,0.0,0.1407,-1.0063,0.0373,0.7471,-0.6509,-0.1263,0.0479
859,0.0,0.0,0.0,0.0,0.0,0.0,0.1382,-1.0009,0.0383,0.7476,-0.6504,-0.1254,0.0483
860,0.0,0.0,0.0,0.0,0.0,0.0,0.1348,-0.9980,0.0412,0.7482,-0.6499,-0.1246,0.0488
861,0.0,0.0,0.0,0.0,0.0,0.0,0.1338,-0.9956,0.0437,0.7488,-0.6492,-0.1239,0.0494
862,0.0,0.0,0.0,0.0,0.0,0.0,0.1338,-0.9946,0.0451,0.7494,-0.6486,-0.1233,0.0500
863,0.0,0.0,0.0,0.0,0.0,0.0,0.1334,-0.9956,0.0456,0.7499,-0.6481,-0.1229,0.0506
864,0.0,0.0,0.0,0.0,0.0,0.0,0.1373,-0.9922,0.0481,0.7504,-0.6474,-0.1227,0.0513
865,0.0,0.0,0.0,0.0,0.0,0.0,0.1382,-0.9902,0.0500,0.7509,-0.6468,-0.1226,0.0519
866,0.0,0.0,0.0,0.0,0.0,0.0,0.1378,-0.9936,0.0530,0.7513,-0.6464,-0.1225,0.0525
867,0.0,0.0,0.0,0.0,0.0,0.0,0.1343,-0.9990,0.0534,0.7518,-0.6457,-0.1221,0.0532
868,0.0,0.0,0.0,0.0,0.0,0.0,0.1368,-0.9990,0.0525,0.7522,-0.6453,-0.1219,0.0541
869,0.0,0.0,0.0,0.0,0.0,0.0,0.1397,-1.0005,0.0500,0.7525,-0.6449,-0.1218,0.0550
870,0.0,0.0,0.0,0.0,0.0,0.0,0.1368,-1.0029,0.0510,0.7529,-0.6444,-0.1216,0.0559
871,0.0,0.0,0.0,0.0,0.0,0.0,0.1334,-1.0083,0.0554,0.7532,-0.6440,-0.1213,0.0570
872,0.0,0.0,0.0,0.0,0.0,0.0,0.1383,-1.0161,0.0598,0.7537,-0.6434,-0.1209,0.0582
873,0.0,0.0,0.0,0.0,0.0,0.0,0.1388,-1.0258,0.0627,0.7544,-0.6425,-0.1202,0.0596
874,0.0,0.0,0.0,0.0,0.0,0.0,0.1344,-1.0395,0.0666,0.7554,-0.6414,-0.1191,0.0610
875,0.0,0.0,0.0,0.0,0.0,0.0,0.1246,-1.0551,0.0705,0.7568,-0.6400,-0.1172,0.0626
876,0.0,0.0,0.0,0.0,0.0,0.0,0.1222,-1.0414,0.0661,0.7584,-0.6384,-0.1149,0.0646
877,0.0,0.0,0.0,0.0,0.0,0.0,0.1099,-1.0463,0.0705,0.7602,-0.6364,-0.1122,0.0667
878,0.0,0.0,0.0,0.0,0.0,0.0,0.0943,-1.0678,0.0808,0.7624,-0.6341,-0.1088,0.0692
879,0.0,0.0,0.0,0.0,0.0,0.0,0.0821,-1.0722,0.0876,0.7652,-0.6311,-0.1049,0.0724
880,0.0,0.0,0.0,0.0,0.0,0.0,0.0723,-1.0453,0.0910,0.7684,-0.6274,-0.1007,0.0760
881,0.0,0.0,0.0,0.0,0.0,0.0,0.0590,-1.0043,0.0944,0.7719,-0.6233,-0.0963,0.0798
882,0.0,0.0,0.0,0.0,0.0,0.0,0.0375,-0.9951,0.1026,0.7754,-0.6191,-0.0917,0.0840
883,0.0,0.0,0.0,0.0,0.0,0.0,0.0277,-0.9746,0.1139,0.7787,-0.6149,-0.0879,0.0885
884,0.0,0.0,0.0,0.0,0.0,0.0,0.0360,-0.9629,0.1276,0.7818,-0.6107,-0.0853,0.0928
885,0.0,0.0,0.0,0.0,0.0,0.0,0.0394,-0.9668,0.1452,0.7848,-0.6064,-0.0839,0.0968
886,0.0,0.0,0.0,0.0,0.0,0.0,0.0488,-0.9849,0.1647,0.7879,-0.6018,-0.0830,0.1007
887,0.0,0.0,0.0,0.0,0.0,0.0,0.0605,-0.9635,0.1613,0.7906,-0.5977,-0.0829,0.1042
888,0.0,0.0,0.0,0.0,0.0,0.0,0.0640,-0.9718,0.1726,0.7925,-0.5945,-0.0834,0.1072
889,0.0,0.0,0.0,0.0,0.0,0.0,0.0728,-0.9850,0.1868,0.7944,-0.5914,-0.0844,0.1098
890,0.0,0.0,0.0,0.0,0.0,0.0,0.0753,-0.9938,0.2044,0.7966,-0.5879,-0.0853,0.1118
891,0.0,0.0,0.0,0.0,0.0,0.0,0.0675,-0.9894,0.2180,0.7991,-0.5842,-0.0855,0.1134
892,0.0,0.0,0.0,0.0,0.0,0.0,0.0679,-0.9743,0.2268,0.8017,-0.5803,-0.0853,0.1146
893,0.0,0.0,0.0,0.0,0.0,0.0,0.0615,-0.9255,0.2239,0.8044,-0.5765,-0.0851,0.1154
894,0.0,0.0,0.0,0.0,0.0,0.0,0.0713,-0.9080,0.2278,0.8065,-0.5734,-0.0856,0.1161
895,0.0,0.0,0.0,0.0,0.0,0.0,0.0708,-0.9070,0.2327,0.8083,-0.5708,-0.0860,0.1163
896,0.0,0.0,0.0,0.0,0.0,0.0,0.0689,-0.9075,0.2434,0.8098,-0.5684,-0.0867,0.1164
897,0.0,0.0,0.0,0.0,0.0,0.0,0.0675,-0.9832,0.2762,0.8110,-0.5667,-0.0875,0.1161
898,0.0,0.0,0.0,0.0,0.0,0.0,0.0647,-1.0271,0.2923,0.8122,-0.5650,-0.0873,0.1158
899,0.0,0.0,0.0,0.0,0.0,0.0,0.0680,-0.9949,0.2860,0.8140,-0.5627,-0.0862,0.1156
900,0.0,0.0,0.0,0.0,0.0,0.0,0.0655,-0.9602,0.2762,0.8157,-0.5605,-0.0847,0.1154
901,0.0,0.0,0.0,0.0,0.0,0.0,0.0674,-0.9031,0.2566,0.8172,-0.5586,-0.0834,0.1151
902,0.0,0.0,0.0,0.0,0.0,0.0,0.0640,-0.9002,0.2581,0.8180,-0.5576,-0.0827,0.1146
903,0.0,0.0,0.0,0.0,0.0,0.0,0.0685,-0.9578,0.2772,0.8183,-0.5573,-0.0823,0.1140
904,0.0,0.0,0.0,0.0,0.0,0.0,0.0612,-0.9832,0.2830,0.8185,-0.5573,-0.0815,0.1131
905,0.0,0.0,0.0,0.0,0.0,0.0,0.0523,-0.9602,0.2776,0.8191,-0.5568,-0.0800,0.1123
906,0.0,0.0,0.0,0.0,0.0,0.0,0.0406,-0.9451,0.2776,0.8196,-0.5565,-0.0783,0.1116
907,0.0,0.0,0.0,0.0,0.0,0.0,0.0288,-0.9441,0.2835,0.8198,-0.5566,-0.0768,0.1108
908,0.0,0.0,0.0,0.0,0.0,0.0,0.0337,-0.9583,0.2967,0.8201,-0.5565,-0.0756,0.1101
909,0.0,0.0,0.0,0.0,0.0,0.0,0.0367,-0.9568,0.3020,0.8206,-0.5560,-0.0745,0.1092
910,0.0,0.0,0.0,0.0,0.0,0.0,0.0484,-0.9530,0.3079,0.8211,-0.5555,-0.0739,0.1081
911,0.0,0.0,0.0,0.0,0.0,0.0,0.0656,-0.9457,0.3128,0.8219,-0.5548,-0.0736,0.1065
912,0.0,0.0,0.0,0.0,0.0,0.0,0.0469,-0.9085,0.2933,0.8225,-0.5544,-0.0725,0.1045
913,0.0,0.0,0.0,0.0,0.0,0.0,0.0180,-0.8934,0.2795,0.8223,-0.5551,-0.0709,0.1029
914,0.0,0.0,0.0,0.0,0.0,0.0,0.0136,-0.9027,0.2859,0.8218,-0.5564,-0.0698,0.1012
915,0.0,0.0,0.0,0.0,0.0,0.0,0.0043,-0.9012,0.2888,0.8210,-0.5579,-0.0690,0.0997
916,0.0,0.0,0.0,0.0,0.0,0.0,-0.0006,-0.9012,0.2878,0.8200,-0.5597,-0.0686,0.0983
917,0.0,0.0,0.0,0.0,0.0,0.0,0.0107,-0.9144,0.2932,0.8185,-0.5620,-0.0695,0.0967
918,0.0,0.0,0.0,0.0,0.0,0.0,0.0141,-0.9432,0.2981,0.8170,-0.5643,-0.0706,0.0951
919,0.0,0.0,0.0,0.0,0.0,0.0,0.0332,-0.9046,0.2747,0.8151,-0.5671,-0.0726,0.0936
920,0.0,0.0,0.0,0.0,0.0,0.0,0.0483,-0.9124,0.2634,0.8126,-0.5705,-0.0754,0.0920
921,0.0,0.0,0.0,0.0,0.0,0.0,0.0572,-0.9470,0.2625,0.8098,-0.5743,-0.0784,0.0904
922,0.0,0.0,0.0,0.0,0.0,0.0,0.0650,-0.9602,0.2537,0.8071,-0.5781,-0.0811,0.0888
923,0.0,0.0,0.0,0.0,0.0,0.0,0.0724,-0.9939,0.2523,0.8043,-0.5818,-0.0837,0.0872
924,0.0,0.0,0.0,0.0,0.0,0.0,0.0798,-1.0036,0.2449,0.8017,-0.5853,-0.0860,0.0856
925,0.0,0.0,0.0,0.0,0.0,0.0,0.0851,-1.0187,0.2357,0.7994,-0.5884,-0.0877,0.0840
926,0.0,0.0,0.0,0.0,0.0,0.0,0.0847,-1.0280,0.2298,0.7975,-0.5911,-0.0887,0.0824
927,0.0,0.0,0.0,0.0,0.0,0.0,0.0822,-1.0197,0.2205,0.7960,-0.5932,-0.0890,0.0807
928,0.0,0.0,0.0,0.0,0.0,0.0,0.0817,-1.0172,0.2127,0.7947,-0.5952,-0.0891,0.0789
929,0.0,0.0,0.0,0.0,0.0,0.0,0.0817,-1.0148,0.2093,0.7939,-0.5966,-0.0887,0.0771
930,0.0,0.0,0.0,0.0,0.0,0.0,0.0787,-1.0167,0.2063,0.7933,-0.5977,-0.0878,0.0751
931,0.0,0.0,0.0,0.0,0.0,0.0,0.0733,-1.0074,0.2019,0.7931,-0.5984,-0.0865,0.0731
932,0.0,0.0,0.0,0.0,0.0,0.0,0.0650,-0.9972,0.1999,0.7931,-0.5989,-0.0851,0.0710
933,0.0,0.0,0.0,0.0,0.0,0.0,0.0655,-0.9874,0.1960,0.7932,-0.5993,-0.0836,0.0688
934,0.0,0.0,0.0,0.0,0.0,0.0,0.0714,-0.9889,0.1970,0.7933,-0.5996,-0.0822,0.0665
935,0.0,0.0,0.0,0.0,0.0,0.0,0.0738,-0.9918,0.1980,0.7934,-0.5999,-0.0809,0.0636
936,0.0,0.0,0.0,0.0,0.0,0.0,0.0748,-0.9933,0.2009,0.7936,-0.6002,-0.0793,0.0607
937,0.0,0.0,0.0,0.0,0.0,0.0,0.0772,-0.9904,0.2014,0.7937,-0.6006,-0.0776,0.0575
938,0.0,0.0,0.0,0.0,0.0,0.0,0.0660,-1.0016,0.2092,0.7938,-0.6010,-0.0756,0.0542
939,0.0,0.0,0.0,0.0,0.0,0.0,0.0630,-0.9821,0.2029,0.7942,-0.6011,-0.0734,0.0508
940,0.0,0.0,0.0,0.0,0.0,0.0,0.0591,-0.9421,0.1853,0.7941,-0.6017,-0.0714,0.0472
941,0.0,0.0,0.0,0.0,0.0,0.0,0.0654,-0.9572,0.1902,0.7938,-0.6026,-0.0701,0.0437
942,0.0,0.0,0.0,0.0,0.0,0.0,0.0625,-0.9660,0.1897,0.7933,-0.6035,-0.0690,0.0401
943,0.0,0.0,0.0,0.0,0.0,0.0,0.0625,-0.9586,0.1814,0.7926,-0.6047,-0.0682,0.0366
944,0.0,0.0,0.0,0.0,0.0,0.0,0.0635,-0.9537,0.1726,0.7918,-0.6061,-0.0677,0.0334
945,0.0,0.0,0.0,0.0,0.0,0.0,0.0635,-0.9591,0.1687,0.7906,-0.6078,-0.0677,0.0305
946,0.0,0.0,0.0,0.0,0.0,0.0,0.0693,-0.9654,0.1662,0.7892,-0.6096,-0.0684,0.0280
947,0.0,0.0,0.0,0.0,0.0,0.0,0.0693,-0.9703,0.1623,0.7879,-0.6114,-0.0692,0.0259
948,0.0,0.0,0.0,0.0,0.0,0.0,0.0678,-0.9605,0.1511,0.7865,-0.6131,-0.0704,0.0243
949,0.0,0.0,0.0,0.0,0.0,0.0,0.0654,-0.9625,0.1477,0.7846,-0.6153,-0.0720,0.0232
950,0.0,0.0,0.0,0.0,0.0,0.0,0.0644,-0.9781,0.1501,0.7825,-0.6178,-0.0740,0.0229
951,0.0,0.0,0.0,0.0,0.0,0.0,0.0694,-1.0186,0.1613,0.7809,-0.6195,-0.0762,0.0233
952,0.0,0.0,0.0,0.0,0.0,0.0,0.0768,-1.0581,0.1707,0.7799,-0.6204,-0.0785,0.0246
953,0.0,0.0,0.0,0.0,0.0,0.0,0.0880,-1.0508,0.1629,0.7794,-0.6207,-0.0809,0.0265
954,0.0,0.0,0.0,0.0,0.0,0.0,0.0953,-1.0337,0.1526,0.7794,-0.6203,-0.0831,0.0292
955,0.0,0.0,0.0,0.0,0.0,0.0,0.1071,-1.0137,0.1448,0.7797,-0.6195,-0.0855,0.0325
956,0.0,0.0,0.0,0.0,0.0,0.0,0.1119,-1.0054,0.1419,0.7799,-0.6187,-0.0881,0.0360
957,0.0,0.0,0.0,0.0,0.0,0.0,0.1173,-0.9986,0.1404,0.7799,-0.6180,-0.0907,0.0399
958,0.0,0.0,0.0,0.0,0.0,0.0,0.1217,-0.9962,0.1414,0.7799,-0.6173,-0.0935,0.0440
959,0.0,0.0,0.0,0.0,0.0,0.0,0.1232,-0.9903,0.1424,0.7801,-0.6163,-0.0964,0.0482
960,0.0,0.0,0.0,0.0,0.0,0.0,0.1295,-0.9864,0.1438,0.7803,-0.6152,-0.0994,0.0525
961,0.0,0.0,0.0,0.0,0.0,0.0,0.1384,-0.9821,0.1429,0.7801,-0.6145,-0.1030,0.0565
962,0.0,0.0,0.0,0.0,0.0,0.0,0.1447,-0.9840,0.1424,0.7799,-0.6138,-0.1066,0.0602
963,0.0,0.0,0.0,0.0,0.0,0.0,0.1565,-0.9928,0.1478,0.7797,-0.6131,-0.1103,0.0636
964,0.0,0.0,0.0,0.0,0.0,0.0,0.1614,-1.0075,0.1507,0.7799,-0.6119,-0.1136,0.0667
965,0.0,0.0,0.0,0.0,0.0,0.0,0.1589,-1.0035,0.1454,0.7804,-0.6105,-0.1161,0.0690
966,0.0,0.0,0.0,0.0,0.0,0.0,0.1604,-1.0021,0.1439,0.7807,-0.6095,-0.1185,0.0709
967,0.0,0.0,0.0,0.0,0.0,0.0,0.1604,-0.9982,0.1439,0.7809,-0.6086,-0.1206,0.0723
968,0.0,0.0,0.0,0.0,0.0,0.0,0.1614,-0.9835,0.1395,0.7813,-0.6076,-0.1224,0.0733
969,0.0,0.0,0.0,0.0,0.0,0.0,0.1584,-0.9899,0.1454,0.7816,-0.6069,-0.1238,0.0739
970,0.0,0.0,0.0,0.0,0.0,0.0,0.1580,-0.9923,0.1498,0.7820,-0.6061,-0.1249,0.0742
971,0.0,0.0,0.0,0.0,0.0,0.0,0.1560,-0.9879,0.1512,0.7822,-0.6057,-0.1256,0.0741
972,0.0,0.0,0.0,0.0,0.0,0.0,0.1501,-0.9840,0.1507,0.7824,-0.6055,-0.1258,0.0736
973,0.0,0.0,0.0,0.0,0.0,0.0,0.1418,-0.9772,0.1483,0.7828,-0.6051,-0.1255,0.0732
974,0.0,0.0,0.0,0.0,0.0,0.0,0.1335,-0.9772,0.1487,0.7832,-0.6048,-0.1248,0.0727
975,0.0,0.0,0.0,0.0,0.0,0.0,0.1286,-0.9786,0.1482,0.7834,-0.6047,-0.1238,0.0723
976,0.0,0.0,0.0,0.0,0.0,0.0,0.1227,-0.9762,0.1468,0.7834,-0.6050,-0.1229,0.0716
977,0.0,0.0,0.0,0.0,0.0,0.0,0.1212,-0.9781,0.1463,0.7831,-0.6056,-0.1221,0.0711
978,0.0,0.0,0.0,0.0,0.0,0.0,0.1202,-0.9820,0.1458,0.7828,-0.6062,-0.1212,0.0705
979,0.0,0.0,0.0,0.0,0.0,0.0,0.1153,-0.9845,0.1448,0.7827,-0.6067,-0.1202,0.0699
980,0.0,0.0,0.0,0.0,0.0,0.0,0.1124,-0.9879,0.1477,0.7825,-0.6072,-0.1191,0.0692
981,0.0,0.0,0.0,0.0,0.0,0.0,0.1119,-0.9894,0.1487,0.7823,-0.6077,-0.1180,0.0687
982,0.0,0.0,0.0,0.0,0.0,0.0,0.1095,-0.9923,0.1497,0.7820,-0.6084,-0.1171,0.0682
983,0.0,0.0,0.0,0.0,0.0,0.0,0.1070,-0.9908,0.1502,0.7817,-0.6090,-0.1160,0.0678
984,0.0,0.0,0.0,0.0,0.0,0.0,0.1041,-0.9884,0.1487,0.7816,-0.6094,-0.1150,0.0674
985,0.0,0.0,0.0,0.0,0.0,0.0,0.1021,-0.9913,0.1511,0.7813,-0.6100,-0.1141,0.0669
986,0.0,0.0,0.0,0.0,0.0,0.0,0.0997,-0.9879,0.1526,0.7813,-0.6102,-0.1131,0.0667
987,0.0,0.0,0.0,0.0,0.0,0.0,0.0987,-0.9855,0.1536,0.7814,-0.6103,-0.1121,0.0663
988,0.0,0.0,0.0,0.0,0.0,0.0,0.0982,-0.9859,0.1560,0.7815,-0.6103,-0.1113,0.0661
989,0.0,0.0,0.0,0.0,0.0,0.0,0.0968,-0.9840,0.1585,0.7817,-0.6103,-0.1105,0.0659
990,0.0,0.0,0.0,0.0,0.0,0.0,0.0938,-0.9772,0.1589,0.7816,-0.6105,-0.1098,0.0658
991,0.0,0.0,0.0,0.0,0.0,0.0,0.0904,-0.9786,0.1624,0.7816,-0.6106,-0.1091,0.0658
992,0.0,0.0,0.0,0.0,0.0,0.0,0.0894,-0.9811,0.1677,0.7815,-0.6109,-0.1084,0.0659
993,0.0,0.0,0.0,0.0,0.0,0.0,0.0875,-0.9786,0.1702,0.7814,-0.6111,-0.1076,0.0661
994,0.0,0.0,0.0,0.0,0.0,0.0,0.0860,-0.9879,0.1780,0.7814,-0.6112,-0.1066,0.0666
995,0.0,0.0,0.0,0.0,0.0,0.0,0.0846,-1.0016,0.1873,0.7815,-0.6112,-0.1056,0.0673
996,0.0,0.0,0.0,0.0,0.0,0.0,0.0821,-1.0040,0.1902,0.7818,-0.6110,-0.1043,0.0681
997,0.0,0.0,0.0,0.0,0.0,0.0,0.0851,-0.9943,0.1829,0.7823,-0.6104,-0.1032,0.0689
998,0.0,0.0,0.0,0.0,0.0,0.0,0.0919,-0.9733,0.1687,0.7825,-0.6102,-0.1026,0.0694
999,0.0,0.0,0.0,0.0,0.0,0.0,0.1016,-0.9567,0.1546,0.7821,-0.6107,-0.1028,0.0697
1000,0.0,0.0,0.0,0.0,0.0,0.0,0.1085,-0.9552,0.1414,0.7814,-0.6114,-0.1035,0.0696
1001,0.0,0.0,0.0,0.0,0.0,0.0,0.1138,-0.9610,0.1311,0.7804,-0.6126,-0.1046,0.0693
1002,0.0,0.0,0.0,0.0,0.0,0.0,0.1168,-0.9771,0.1262,0.7792,-0.6140,-0.1058,0.0684
1003,0.0,0.0,0.0,0.0,0.0,0.0,0.1148,-0.9883,0.1155,0.7778,-0.6157,-0.1070,0.0673
1004,0.0,0.0,0.0,0.0,0.0,0.0,0.1129,-0.9986,0.1086,0.7764,-0.6174,-0.1080,0.0660
1005,0.0,0.0,0.0,0.0,0.0,0.0,0.1060,-1.0088,0.1037,0.7751,-0.6191,-0.1087,0.0648
1006,0.0,0.0,0.0,0.0,0.0,0.0,0.1041,-1.0185,0.1032,0.7738,-0.6206,-0.1093,0.0638
1007,0.0,0.0,0.0,0.0,0.0,0.0,0.1031,-1.0259,0.1052,0.7729,-0.6218,-0.1099,0.0630
1008,0.0,0.0,0.0,0.0,0.0,0.0,0.1031,-1.0259,0.1057,0.7723,-0.6226,-0.1102,0.0625
1009,0.0,0.0,0.0,0.0,0.0,0.0,0.1051,-1.0195,0.1067,0.7719,-0.6229,-0.1105,0.0626
1010,0.0,0.0,0.0,0.0,0.0,0.0,0.1100,-1.0142,0.1096,0.7716,-0.6233,-0.1108,0.0631
1011,0.0,0.0,0.0,0.0,0.0,0.0,0.1139,-1.0034,0.1101,0.7713,-0.6234,-0.1110,0.0639
1012,0.0,0.0,0.0,0.0,0.0,0.0,0.1163,-0.9942,0.1101,0.7712,-0.6234,-0.1113,0.0649
1013,0.0,0.0,0.0,0.0,0.0,0.0,0.1143,-0.9869,0.1111,0.7710,-0.6235,-0.1117,0.0660
1014,0.0,0.0,0.0,0.0,0.0,0.0,0.1163,-0.9908,0.1160,0.7709,-0.6234,-0.1121,0.0670
1015,0.0,0.0,0.0,0.0,0.0,0.0,0.1124,-0.9835,0.1150,0.7708,-0.6233,-0.1125,0.0682
1016,0.0,0.0,0.0,0.0,0.0,0.0,0.1104,-0.9849,0.1165,0.7706,-0.6234,-0.1128,0.0693
1017,0.0,0.0,0.0,0.0,0.0,0.0,0.1075,-0.9878,0.1194,0.7702,-0.6237,-0.1129,0.0704
1018,0.0,0.0,0.0,0.0,0.0,0.0,0.1045,-0.9888,0.1174,0.7698,-0.6241,-0.1130,0.0716
1019,0.0,0.0,0.0,0.0,0.0,0.0,0.1006,-0.9937,0.1174,0.7693,-0.6247,-0.1129,0.0728
1020,0.0,0.0,0.0,0.0,0.0,0.0,0.0967,-0.9986,0.1208,0.7688,-0.6251,-0.1128,0.0739
1021,0.0,0.0,0.0,0.0,0.0,0.0,0.0918,-1.0044,0.1223,0.7685,-0.6254,-0.1126,0.0748
1022,0.0,0.0,0.0,0.0,0.0,0.0,0.0870,-1.0117,0.1257,0.7685,-0.6254,-0.1122,0.0757
1023,0.0,0.0,0.0,0.0,0.0,0.0,0.0875,-1.0142,0.1301,0.7688,-0.6249,-0.1119,0.0765
1024,0.0,0.0,0.0,0.0,0.0,0.0,0.0879,-1.0147,0.1325,0.7694,-0.6241,-0.1116,0.0773
1025,0.0,0.0,0.0,0.0,0.0,0.0,0.0889,-1.0054,0.1330,0.7702,-0.6231,-0.1114,0.0779
1026,0.0,0.0,0.0,0.0,0.0,0.0,0.0889,-0.9996,0.1369,0.7713,-0.6218,-0.1112,0.0784
1027,0.0,0.0,0.0,0.0,0.0,0.0,0.0909,-0.9966,0.1399,0.7722,-0.6206,-0.1110,0.0789
1028,0.0,0.0,0.0,0.0,0.0,0.0,0.0928,-0.9893,0.1423,0.7729,-0.6197,-0.1111,0.0794
1029,0.0,0.0,0.0,0.0,0.0,0.0,0.0943,-0.9801,0.1418,0.7735,-0.6189,-0.1114,0.0797
1030,0.0,0.0,0.0,0.0,0.0,0.0,0.0953,-0.9801,0.1457,0.7742,-0.6179,-0.1115,0.0801
1031,0.0,0.0,0.0,0.0,0.0,0.0,0.0977,-0.9830,0.1487,0.7749,-0.6170,-0.1116,0.0805
1032,0.0,0.0,0.0,0.0,0.0,0.0,0.0982,-0.9796,0.1462,0.7753,-0.6163,-0.1117,0.0809
1033,0.0,0.0,0.0,0.0,0.0,0.0,0.0982,-0.9786,0.1443,0.7756,-0.6159,-0.1120,0.0812
1034,0.0,0.0,0.0,0.0,0.0,0.0,0.0977,-0.9762,0.1418,0.7757,-0.6157,-0.1122,0.0815
1035,0.0,0.0,0.0,0.0,0.0,0.0,0.0997,-0.9762,0.1394,0.7756,-0.6157,-0.1127,0.0817
1036,0.0,0.0,0.0,0.0,0.0,0.0,0.0987,-0.9747,0.1355,0.7753,-0.6159,-0.1132,0.0818
1037,0.0,0.0,0.0,0.0,0.0,0.0,0.0987,-0.9762,0.1321,0.7750,-0.6162,-0.1138,0.0819
1038,0.0,0.0,0.0,0.0,0.0,0.0,0.0992,-0.9835,0.1291,0.7746,-0.6166,-0.1145,0.0819
1039,0.0,0.0,0.0,0.0,0.0,0.0,0.1007,-0.9932,0.1301,0.7741,-0.6170,-0.1153,0.0818
1040,0.0,0.0,0.0,0.0,0.0,0.0,0.1016,-1.0030,0.1301,0.7739,-0.6172,-0.1159,0.0817
