,Position_X,Position_Y,Position_Z,Velocity_X,Velocity_Y,Velocity_Z,Acceleration_X,Acceleration_Y,Acceleration_Z,Quaterion_0,Quaterion_1,Quaterion_2,Quaterion_3
51,0.0,0.0,0.0,0.0,0.0,0.0,0.2017,-0.9822,0.0939,0.7589,-0.6309,-0.0076,-0.1608
52,0.0,0.0,0.0,0.0,0.0,0.0,0.1944,-0.9809,0.0983,0.7587,-0.6312,-0.0060,-0.1610
53,0.0,0.0,0.0,0.0,0.0,0.0,0.1915,-0.9794,0.0993,0.7585,-0.6316,-0.0045,-0.1607
54,0.0,0.0,0.0,0.0,0.0,0.0,0.1906,-0.9765,0.1013,0.7585,-0.6317,-0.0030,-0.1600
55,0.0,0.0,0.0,0.0,0.0,0.0,0.1901,-0.9702,0.1001,0.7590,-0.6312,-0.0010,-0.1596
56,0.0,0.0,0.0,0.0,0.0,0.0,0.1916,-0.9677,0.0997,0.7593,-0.6310,0.0003,-0.1590
57,0.0,0.0,0.0,0.0,0.0,0.0,0.1950,-0.9659,0.1022,0.7596,-0.6309,0.0010,-0.1582
58,0.0,0.0,0.0,0.0,0.0,0.0,0.1980,-0.9694,0.1040,0.7596,-0.6311,0.0014,-0.1576
59,0.0,0.0,0.0,0.0,0.0,0.0,0.2033,-0.9734,0.1049,0.7597,-0.6310,0.0016,-0.1571
60,0.0,0.0,0.0,0.0,0.0,0.0,0.2048,-0.9689,0.1036,0.7598,-0.6309,0.0019,-0.1568
61,0.0,0.0,0.0,0.0,0.0,0.0,0.2234,-0.9489,0.0839,0.7593,-0.6315,0.0013,-0.1569
62,0.0,0.0,0.0,0.0,0.0,0.0,0.2292,-0.9621,0.0985,0.7590,-0.6318,0.0001,-0.1574
63,0.0,0.0,0.0,0.0,0.0,0.0,0.2252,-0.9758,0.0995,0.7586,-0.6321,-0.0012,-0.1581
64,0.0,0.0,0.0,0.0,0.0,0.0,0.2203,-0.9819,0.0935,0.7579,-0.6327,-0.0024,-0.1590
65,0.0,0.0,0.0,0.0,0.0,0.0,0.2110,-0.9933,0.1018,0.7574,-0.6331,-0.0024,-0.1596
66,0.0,0.0,0.0,0.0,0.0,0.0,0.2192,-0.9938,0.0990,0.7576,-0.6327,-0.0017,-0.1603
67,0.0,0.0,0.0,0.0,0.0,0.0,0.2080,-0.9887,0.0952,0.7577,-0.6325,-0.0011,-0.1610
68,0.0,0.0,0.0,0.0,0.0,0.0,0.1964,-0.9857,0.0967,0.7575,-0.6326,-0.0006,-0.1612
69,0.0,0.0,0.0,0.0,0.0,0.0,0.1954,-0.9853,0.1001,0.7578,-0.6323,0.0002,-0.1610
70,0.0,0.0,0.0,0.0,0.0,0.0,0.1988,-0.9845,0.1045,0.7583,-0.6319,0.0007,-0.1606
71,0.0,0.0,0.0,0.0,0.0,0.0,0.2062,-0.9764,0.1072,0.7587,-0.6315,0.0007,-0.1598
72,0.0,0.0,0.0,0.0,0.0,0.0,0.2136,-0.9717,0.1093,0.7592,-0.6311,0.0001,-0.1592
73,0.0,0.0,0.0,0.0,0.0,0.0,0.2190,-0.9674,0.1110,0.7597,-0.6306,-0.0005,-0.1585
74,0.0,0.0,0.0,0.0,0.0,0.0,0.2283,-0.9620,0.1097,0.7601,-0.6302,-0.0017,-0.1582
75,0.0,0.0,0.0,0.0,0.0,0.0,0.2312,-0.9577,0.1118,0.7603,-0.6299,-0.0033,-0.1582
76,0.0,0.0,0.0,0.0,0.0,0.0,0.2327,-0.9597,0.1127,0.7608,-0.6294,-0.0044,-0.1582
77,0.0,0.0,0.0,0.0,0.0,0.0,0.2331,-0.9661,0.1140,0.7612,-0.6288,-0.0052,-0.1583
78,0.0,0.0,0.0,0.0,0.0,0.0,0.2297,-0.9740,0.1171,0.7614,-0.6286,-0.0061,-0.1583
79,0.0,0.0,0.0,0.0,0.0,0.0,0.2287,-0.9784,0.1174,0.7619,-0.6281,-0.0062,-0.1581
80,0.0,0.0,0.0,0.0,0.0,0.0,0.2277,-0.9775,0.1194,0.7624,-0.6276,-0.0059,-0.1579
81,0.0,0.0,0.0,0.0,0.0,0.0,0.2248,-0.9809,0.1198,0.7625,-0.6275,-0.0060,-0.1575
82,0.0,0.0,0.0,0.0,0.0,0.0,0.2189,-0.9838,0.1201,0.7626,-0.6275,-0.0059,-0.1570
83,0.0,0.0,0.0,0.0,0.0,0.0,0.2092,-0.9827,0.1196,0.7627,-0.6275,-0.0051,-0.1566
84,0.0,0.0,0.0,0.0,0.0,0.0,0.2243,-0.9752,0.1238,0.7630,-0.6272,-0.0045,-0.1564
85,0.0,0.0,0.0,0.0,0.0,0.0,0.2190,-0.9698,0.1235,0.7632,-0.6270,-0.0045,-0.1562
86,0.0,0.0,0.0,0.0,0.0,0.0,0.2043,-0.9725,0.1204,0.7634,-0.6268,-0.0041,-0.1560
87,0.0,0.0,0.0,0.0,0.0,0.0,0.2078,-0.9662,0.1216,0.7642,-0.6258,-0.0030,-0.1562
88,0.0,0.0,0.0,0.0,0.0,0.0,0.2073,-0.9618,0.1227,0.7645,-0.6253,-0.0024,-0.1564
89,0.0,0.0,0.0,0.0,0.0,0.0,0.2068,-0.9653,0.1231,0.7645,-0.6253,-0.0022,-0.1566
90,0.0,0.0,0.0,0.0,0.0,0.0,0.2068,-0.9657,0.1221,0.7646,-0.6252,-0.0022,-0.1568
91,0.0,0.0,0.0,0.0,0.0,0.0,0.2049,-0.9661,0.1211,0.7646,-0.6251,-0.0022,-0.1569
92,0.0,0.0,0.0,0.0,0.0,0.0,0.2058,-0.9671,0.1206,0.7647,-0.6249,-0.0020,-0.1572
93,0.0,0.0,0.0,0.0,0.0,0.0,0.2068,-0.9700,0.1196,0.7645,-0.6251,-0.0021,-0.1573
94,0.0,0.0,0.0,0.0,0.0,0.0,0.2190,-0.9629,0.1082,0.7645,-0.6251,-0.0020,-0.1577
95,0.0,0.0,0.0,0.0,0.0,0.0,0.2386,-0.9399,0.1017,0.7645,-0.6248,-0.0026,-0.1586
96,0.0,0.0,0.0,0.0,0.0,0.0,0.2365,-0.9850,0.1231,0.7644,-0.6248,-0.0042,-0.1591
97,0.0,0.0,0.0,0.0,0.0,0.0,0.2271,-0.9837,0.1012,0.7642,-0.6248,-0.0051,-0.1602
98,0.0,0.0,0.0,0.0,0.0,0.0,0.2160,-0.9835,0.1119,0.7641,-0.6248,-0.0047,-0.1606
99,0.0,0.0,0.0,0.0,0.0,0.0,0.2242,-0.9914,0.1146,0.7640,-0.6249,-0.0041,-0.1607
100,0.0,0.0,0.0,0.0,0.0,0.0,0.2179,-0.9894,0.1132,0.7642,-0.6246,-0.0035,-0.1608
101,0.0,0.0,0.0,0.0,0.0,0.0,0.2052,-0.9874,0.1161,0.7644,-0.6244,-0.0026,-0.1606
102,0.0,0.0,0.0,0.0,0.0,0.0,0.2057,-0.9821,0.1158,0.7645,-0.6245,-0.0020,-0.1599
103,0.0,0.0,0.0,0.0,0.0,0.0,0.2067,-0.9758,0.1169,0.7642,-0.6250,-0.0019,-0.1590
104,0.0,0.0,0.0,0.0,0.0,0.0,0.2170,-0.9705,0.1172,0.7642,-0.6253,-0.0020,-0.1583
105,0.0,0.0,0.0,0.0,0.0,0.0,0.2258,-0.9622,0.1145,0.7642,-0.6253,-0.0024,-0.1580
106,0.0,0.0,0.0,0.0,0.0,0.0,0.2200,-0.9533,0.1124,0.7644,-0.6251,-0.0027,-0.1580
107,0.0,0.0,0.0,0.0,0.0,0.0,0.2234,-0.9563,0.1137,0.7645,-0.6249,-0.0030,-0.1582
108,0.0,0.0,0.0,0.0,0.0,0.0,0.2239,-0.9662,0.1178,0.7646,-0.6247,-0.0032,-0.1586
109,0.0,0.0,0.0,0.0,0.0,0.0,0.2185,-0.9696,0.1201,0.7647,-0.6245,-0.0030,-0.1590
110,0.0,0.0,0.0,0.0,0.0,0.0,0.2155,-0.9765,0.1223,0.7647,-0.6243,-0.0028,-0.1595
111,0.0,0.0,0.0,0.0,0.0,0.0,0.2116,-0.9823,0.1221,0.7647,-0.6243,-0.0024,-0.1597
112,0.0,0.0,0.0,0.0,0.0,0.0,0.2087,-0.9779,0.1208,0.7644,-0.6247,-0.0022,-0.1597
113,0.0,0.0,0.0,0.0,0.0,0.0,0.2112,-0.9735,0.1195,0.7643,-0.6248,-0.0018,-0.1599
114,0.0,0.0,0.0,0.0,0.0,0.0,0.2097,-0.9714,0.1171,0.7642,-0.6248,-0.0014,-0.1600
115,0.0,0.0,0.0,0.0,0.0,0.0,0.2073,-0.9680,0.1177,0.7642,-0.6248,-0.0010,-0.1602
116,0.0,0.0,0.0,0.0,0.0,0.0,0.2180,-0.9682,0.1197,0.7643,-0.6247,-0.0009,-0.1604
117,0.0,0.0,0.0,0.0,0.0,0.0,0.2082,-0.9752,0.1150,0.7642,-0.6247,-0.0008,-0.1602
118,0.0,0.0,0.0,0.0,0.0,0.0,0.1989,-0.9742,0.1155,0.7639,-0.6251,-0.0003,-0.1602
119,0.0,0.0,0.0,0.0,0.0,0.0,0.2068,-0.9712,0.1132,0.7635,-0.6255,-0.0001,-0.1605
120,0.0,0.0,0.0,0.0,0.0,0.0,0.2106,-0.9761,0.1121,0.7634,-0.6255,0.0000,-0.1611
121,0.0,0.0,0.0,0.0,0.0,0.0,0.2072,-0.9745,0.1092,0.7629,-0.6260,-0.0001,-0.1615
122,0.0,0.0,0.0,0.0,0.0,0.0,0.2048,-0.9749,0.1077,0.7624,-0.6266,-0.0005,-0.1616
123,0.0,0.0,0.0,0.0,0.0,0.0,0.2048,-0.9749,0.1068,0.7620,-0.6271,-0.0007,-0.1617
124,0.0,0.0,0.0,0.0,0.0,0.0,0.2043,-0.9763,0.1053,0.7613,-0.6280,-0.0013,-0.1615
125,0.0,0.0,0.0,0.0,0.0,0.0,0.2067,-0.9837,0.1065,0.7608,-0.6287,-0.0017,-0.1611
126,0.0,0.0,0.0,0.0,0.0,0.0,0.2110,-0.9837,0.1056,0.7608,-0.6288,-0.0017,-0.1608
127,0.0,0.0,0.0,0.0,0.0,0.0,0.2361,-0.9400,0.0779,0.7603,-0.6292,-0.0023,-0.1612
128,0.0,0.0,0.0,0.0,0.0,0.0,0.2326,-0.9617,0.1005,0.7603,-0.6291,-0.0034,-0.1618
129,0.0,0.0,0.0,0.0,0.0,0.0,0.2340,-0.9718,0.0939,0.7602,-0.6292,-0.0044,-0.1619
130,0.0,0.0,0.0,0.0,0.0,0.0,0.2442,-0.9809,0.0893,0.7596,-0.6297,-0.0055,-0.1626
131,0.0,0.0,0.0,0.0,0.0,0.0,0.2189,-0.9741,0.0957,0.7594,-0.6299,-0.0054,-0.1629
132,0.0,0.0,0.0,0.0,0.0,0.0,0.2305,-0.9828,0.0911,0.7593,-0.6299,-0.0053,-0.1630
133,0.0,0.0,0.0,0.0,0.0,0.0,0.2208,-0.9814,0.0935,0.7592,-0.6301,-0.0054,-0.1630
134,0.0,0.0,0.0,0.0,0.0,0.0,0.2198,-0.9824,0.0945,0.7591,-0.6303,-0.0053,-0.1627
135,0.0,0.0,0.0,0.0,0.0,0.0,0.2354,-0.9815,0.0931,0.7587,-0.6309,-0.0058,-0.1622
136,0.0,0.0,0.0,0.0,0.0,0.0,0.2355,-0.9687,0.0887,0.7585,-0.6312,-0.0062,-0.1621
137,0.0,0.0,0.0,0.0,0.0,0.0,0.2321,-0.9572,0.0832,0.7581,-0.6316,-0.0067,-0.1621
138,0.0,0.0,0.0,0.0,0.0,0.0,0.2345,-0.9621,0.0821,0.7577,-0.6322,-0.0072,-0.1622
139,0.0,0.0,0.0,0.0,0.0,0.0,0.2350,-0.9650,0.0810,0.7572,-0.6326,-0.0074,-0.1623
140,0.0,0.0,0.0,0.0,0.0,0.0,0.2262,-0.9669,0.0829,0.7566,-0.6334,-0.0078,-0.1623
141,0.0,0.0,0.0,0.0,0.0,0.0,0.2222,-0.9793,0.0883,0.7560,-0.6342,-0.0080,-0.1619
142,0.0,0.0,0.0,0.0,0.0,0.0,0.2159,-0.9836,0.0886,0.7552,-0.6353,-0.0083,-0.1614
143,0.0,0.0,0.0,0.0,0.0,0.0,0.2120,-0.9837,0.0929,0.7545,-0.6363,-0.0087,-0.1607
144,0.0,0.0,0.0,0.0,0.0,0.0,0.2100,-0.9834,0.0973,0.7545,-0.6365,-0.0084,-0.1599
145,0.0,0.0,0.0,0.0,0.0,0.0,0.2125,-0.9809,0.0950,0.7550,-0.6361,-0.0079,-0.1592
146,0.0,0.0,0.0,0.0,0.0,0.0,0.2125,-0.9742,0.0976,0.7554,-0.6358,-0.0076,-0.1585
147,0.0,0.0,0.0,0.0,0.0,0.0,0.2092,-0.9663,0.0969,0.7555,-0.6358,-0.0079,-0.1577
148,0.0,0.0,0.0,0.0,0.0,0.0,0.2097,-0.9615,0.0985,0.7560,-0.6354,-0.0081,-0.1571
149,0.0,0.0,0.0,0.0,0.0,0.0,0.2082,-0.9634,0.0994,0.7563,-0.6352,-0.0082,-0.1566
150,0.0,0.0,0.0,0.0,0.0,0.0,0.2097,-0.9575,0.0972,0.7564,-0.6351,-0.0087,-0.1560
151,0.0,0.0,0.0,0.0,0.0,0.0,0.2122,-0.9572,0.1006,0.7567,-0.6349,-0.0093,-0.1555
152,0.0,0.0,0.0,0.0,0.0,0.0,0.2209,-0.9636,0.1019,0.7567,-0.6350,-0.0106,-0.1552
153,0.0,0.0,0.0,0.0,0.0,0.0,0.2150,-0.9656,0.1042,0.7571,-0.6346,-0.0116,-0.1547
154,0.0,0.0,0.0,0.0,0.0,0.0,0.2165,-0.9725,0.1040,0.7570,-0.6349,-0.0129,-0.1540
155,0.0,0.0,0.0,0.0,0.0,0.0,0.2272,-0.9724,0.1001,0.7568,-0.6352,-0.0145,-0.1537
156,0.0,0.0,0.0,0.0,0.0,0.0,0.2253,-0.9700,0.1007,0.7571,-0.6349,-0.0155,-0.1536
157,0.0,0.0,0.0,0.0,0.0,0.0,0.2227,-0.9858,0.1075,0.7573,-0.6346,-0.0163,-0.1534
158,0.0,0.0,0.0,0.0,0.0,0.0,0.2158,-1.0052,0.1185,0.7576,-0.6343,-0.0171,-0.1527
159,0.0,0.0,0.0,0.0,0.0,0.0,0.2109,-1.0095,0.1188,0.7582,-0.6338,-0.0171,-0.1519
160,0.0,0.0,0.0,0.0,0.0,0.0,0.2159,-0.9949,0.1169,0.7589,-0.6332,-0.0169,-0.1510
161,0.0,0.0,0.0,0.0,0.0,0.0,0.2111,-0.9926,0.1237,0.7597,-0.6325,-0.0164,-0.1498
162,0.0,0.0,0.0,0.0,0.0,0.0,0.2115,-1.0090,0.1319,0.7612,-0.6311,-0.0152,-0.1486
163,0.0,0.0,0.0,0.0,0.0,0.0,0.2159,-1.0056,0.1296,0.7626,-0.6297,-0.0139,-0.1474
164,0.0,0.0,0.0,0.0,0.0,0.0,0.2312,-0.9649,0.1077,0.7635,-0.6289,-0.0135,-0.1461
165,0.0,0.0,0.0,0.0,0.0,0.0,0.2380,-0.9662,0.1004,0.7640,-0.6287,-0.0144,-0.1446
166,0.0,0.0,0.0,0.0,0.0,0.0,0.2413,-0.9750,0.1016,0.7644,-0.6284,-0.0152,-0.1433
167,0.0,0.0,0.0,0.0,0.0,0.0,0.2486,-0.9760,0.1001,0.7648,-0.6282,-0.0160,-0.1420
168,0.0,0.0,0.0,0.0,0.0,0.0,0.2521,-0.9701,0.0994,0.7652,-0.6280,-0.0168,-0.1409
169,0.0,0.0,0.0,0.0,0.0,0.0,0.2471,-0.9803,0.0971,0.7658,-0.6274,-0.0175,-0.1401
170,0.0,0.0,0.0,0.0,0.0,0.0,0.2422,-0.9850,0.0950,0.7660,-0.6272,-0.0185,-0.1396
171,0.0,0.0,0.0,0.0,0.0,0.0,0.2418,-0.9792,0.0947,0.7665,-0.6266,-0.0189,-0.1394
172,0.0,0.0,0.0,0.0,0.0,0.0,0.2384,-0.9677,0.0872,0.7664,-0.6267,-0.0195,-0.1395
173,0.0,0.0,0.0,0.0,0.0,0.0,0.2361,-0.9372,0.0814,0.7660,-0.6271,-0.0202,-0.1400
174,0.0,0.0,0.0,0.0,0.0,0.0,0.2283,-0.9329,0.0864,0.7660,-0.6268,-0.0202,-0.1411
175,0.0,0.0,0.0,0.0,0.0,0.0,0.2230,-0.9349,0.0902,0.7661,-0.6263,-0.0201,-0.1427
176,0.0,0.0,0.0,0.0,0.0,0.0,0.2216,-0.9232,0.0891,0.7656,-0.6265,-0.0212,-0.1444
177,0.0,0.0,0.0,0.0,0.0,0.0,0.2231,-0.9201,0.0965,0.7647,-0.6271,-0.0231,-0.1464
178,0.0,0.0,0.0,0.0,0.0,0.0,0.2333,-0.9306,0.1020,0.7641,-0.6272,-0.0248,-0.1489
179,0.0,0.0,0.0,0.0,0.0,0.0,0.2411,-0.9390,0.1051,0.7633,-0.6274,-0.0271,-0.1518
180,0.0,0.0,0.0,0.0,0.0,0.0,0.2440,-0.9431,0.1079,0.7624,-0.6276,-0.0293,-0.1548
181,0.0,0.0,0.0,0.0,0.0,0.0,0.2478,-0.9493,0.1044,0.7610,-0.6284,-0.0317,-0.1581
182,0.0,0.0,0.0,0.0,0.0,0.0,0.2546,-0.9532,0.1023,0.7587,-0.6302,-0.0345,-0.1614
183,0.0,0.0,0.0,0.0,0.0,0.0,0.2536,-0.9559,0.0959,0.7568,-0.6315,-0.0360,-0.1651
184,0.0,0.0,0.0,0.0,0.0,0.0,0.2692,-0.9618,0.0939,0.7544,-0.6332,-0.0377,-0.1692
185,0.0,0.0,0.0,0.0,0.0,0.0,0.2627,-0.9795,0.0860,0.7517,-0.6352,-0.0390,-0.1731
186,0.0,0.0,0.0,0.0,0.0,0.0,0.2720,-0.9691,0.0791,0.7493,-0.6368,-0.0393,-0.1775
187,0.0,0.0,0.0,0.0,0.0,0.0,0.2818,-0.9615,0.0692,0.7467,-0.6386,-0.0397,-0.1819
188,0.0,0.0,0.0,0.0,0.0,0.0,0.2818,-0.9524,0.0612,0.7443,-0.6402,-0.0400,-0.1860
189,0.0,0.0,0.0,0.0,0.0,0.0,0.2867,-0.9406,0.0553,0.7419,-0.6417,-0.0402,-0.1901
190,0.0,0.0,0.0,0.0,0.0,0.0,0.3004,-0.9350,0.0453,0.7393,-0.6436,-0.0413,-0.1939
191,0.0,0.0,0.0,0.0,0.0,0.0,0.3091,-0.9279,0.0383,0.7366,-0.6454,-0.0424,-0.1977
192,0.0,0.0,0.0,0.0,0.0,0.0,0.3252,-0.9270,0.0345,0.7340,-0.6471,-0.0442,-0.2013
193,0.0,0.0,0.0,0.0,0.0,0.0,0.3354,-0.9517,0.0406,0.7314,-0.6489,-0.0467,-0.2046
194,0.0,0.0,0.0,0.0,0.0,0.0,0.3451,-0.9632,0.0461,0.7289,-0.6505,-0.0494,-0.2076
195,0.0,0.0,0.0,0.0,0.0,0.0,0.3406,-0.9820,0.0557,0.7270,-0.6516,-0.0512,-0.2105
196,0.0,0.0,0.0,0.0,0.0,0.0,0.3278,-0.9906,0.0413,0.7256,-0.6523,-0.0516,-0.2129
197,0.0,0.0,0.0,0.0,0.0,0.0,0.3309,-0.9483,0.0154,0.7237,-0.6538,-0.0523,-0.2148
198,0.0,0.0,0.0,0.0,0.0,0.0,0.3513,-0.9700,0.0187,0.7221,-0.6550,-0.0541,-0.2158
199,0.0,0.0,0.0,0.0,0.0,0.0,0.3414,-0.9895,0.0200,0.7214,-0.6556,-0.0550,-0.2161
200,0.0,0.0,0.0,0.0,0.0,0.0,0.3452,-1.0091,0.0213,0.7209,-0.6562,-0.0548,-0.2161
201,0.0,0.0,0.0,0.0,0.0,0.0,0.3424,-0.9772,0.0039,0.7196,-0.6578,-0.0547,-0.2156
202,0.0,0.0,0.0,0.0,0.0,0.0,0.3759,-0.9124,-0.0036,0.7184,-0.6592,-0.0559,-0.2151
203,0.0,0.0,0.0,0.0,0.0,0.0,0.3836,-0.9267,-0.0006,0.7179,-0.6598,-0.0575,-0.2145
204,0.0,0.0,0.0,0.0,0.0,0.0,0.3665,-0.9442,0.0026,0.7173,-0.6605,-0.0590,-0.2136
205,0.0,0.0,0.0,0.0,0.0,0.0,0.3566,-0.9553,-0.0002,0.7171,-0.6611,-0.0596,-0.2126
206,0.0,0.0,0.0,0.0,0.0,0.0,0.3174,-0.9832,-0.0012,0.7173,-0.6615,-0.0572,-0.2115
207,0.0,0.0,0.0,0.0,0.0,0.0,0.3444,-0.9813,0.0208,0.7182,-0.6611,-0.0541,-0.2102
208,0.0,0.0,0.0,0.0,0.0,0.0,0.3719,-0.9468,0.0341,0.7198,-0.6601,-0.0528,-0.2082
209,0.0,0.0,0.0,0.0,0.0,0.0,0.3729,-0.9476,0.0282,0.7220,-0.6587,-0.0518,-0.2053
210,0.0,0.0,0.0,0.0,0.0,0.0,0.4141,-0.9106,0.0335,0.7251,-0.6563,-0.0517,-0.2023
211,0.0,0.0,0.0,0.0,0.0,0.0,0.4120,-0.9385,0.0365,0.7288,-0.6532,-0.0522,-0.1985
212,0.0,0.0,0.0,0.0,0.0,0.0,0.3546,-0.9829,0.0241,0.7313,-0.6519,-0.0514,-0.1942
213,0.0,0.0,0.0,0.0,0.0,0.0,0.3578,-0.9469,0.0243,0.7325,-0.6516,-0.0506,-0.1902
214,0.0,0.0,0.0,0.0,0.0,0.0,0.3647,-0.9264,0.0240,0.7337,-0.6515,-0.0496,-0.1865
215,0.0,0.0,0.0,0.0,0.0,0.0,0.3544,-0.9417,0.0303,0.7350,-0.6511,-0.0485,-0.1828
216,0.0,0.0,0.0,0.0,0.0,0.0,0.3379,-0.9288,0.0297,0.7351,-0.6520,-0.0482,-0.1794
217,0.0,0.0,0.0,0.0,0.0,0.0,0.3374,-0.9307,0.0393,0.7349,-0.6531,-0.0486,-0.1763
218,0.0,0.0,0.0,0.0,0.0,0.0,0.3364,-0.9560,0.0652,0.7352,-0.6533,-0.0501,-0.1737
219,0.0,0.0,0.0,0.0,0.0,0.0,0.3661,-0.9626,0.0661,0.7358,-0.6530,-0.0515,-0.1722
220,0.0,0.0,0.0,0.0,0.0,0.0,0.3614,-0.9173,0.0287,0.7356,-0.6530,-0.0532,-0.1721
221,0.0,0.0,0.0,0.0,0.0,0.0,0.2942,-0.8883,0.0235,0.7351,-0.6535,-0.0540,-0.1720
222,0.0,0.0,0.0,0.0,0.0,0.0,0.2921,-0.9243,0.0345,0.7347,-0.6541,-0.0550,-0.1710
223,0.0,0.0,0.0,0.0,0.0,0.0,0.2894,-0.9869,0.0558,0.7349,-0.6542,-0.0552,-0.1702
224,0.0,0.0,0.0,0.0,0.0,0.0,0.3055,-0.9862,0.0583,0.7352,-0.6539,-0.0541,-0.1703
225,0.0,0.0,0.0,0.0,0.0,0.0,0.3140,-0.9292,0.0310,0.7347,-0.6542,-0.0534,-0.1713
226,0.0,0.0,0.0,0.0,0.0,0.0,0.3170,-0.9156,0.0315,0.7347,-0.6539,-0.0530,-0.1727
227,0.0,0.0,0.0,0.0,0.0,0.0,0.3022,-0.9532,0.0501,0.7356,-0.6526,-0.0521,-0.1742
228,0.0,0.0,0.0,0.0,0.0,0.0,0.3002,-0.9729,0.0568,0.7364,-0.6514,-0.0516,-0.1753
229,0.0,0.0,0.0,0.0,0.0,0.0,0.3035,-0.9867,0.0602,0.7375,-0.6500,-0.0500,-0.1762
230,0.0,0.0,0.0,0.0,0.0,0.0,0.2987,-0.9775,0.0610,0.7381,-0.6493,-0.0483,-0.1768
231,0.0,0.0,0.0,0.0,0.0,0.0,0.2930,-0.9514,0.0560,0.7382,-0.6492,-0.0468,-0.1771
232,0.0,0.0,0.0,0.0,0.0,0.0,0.2837,-0.9530,0.0622,0.7387,-0.6487,-0.0448,-0.1776
233,0.0,0.0,0.0,0.0,0.0,0.0,0.2799,-0.9422,0.0630,0.7392,-0.6480,-0.0422,-0.1785
234,0.0,0.0,0.0,0.0,0.0,0.0,0.2746,-0.9368,0.0626,0.7395,-0.6475,-0.0399,-0.1795
235,0.0,0.0,0.0,0.0,0.0,0.0,0.2648,-0.9343,0.0637,0.7395,-0.6474,-0.0376,-0.1805
236,0.0,0.0,0.0,0.0,0.0,0.0,0.2653,-0.9344,0.0646,0.7394,-0.6474,-0.0357,-0.1814
237,0.0,0.0,0.0,0.0,0.0,0.0,0.2561,-0.9334,0.0656,0.7390,-0.6477,-0.0344,-0.1821
238,0.0,0.0,0.0,0.0,0.0,0.0,0.2560,-0.9348,0.0641,0.7384,-0.6482,-0.0328,-0.1830
239,0.0,0.0,0.0,0.0,0.0,0.0,0.2682,-0.9287,0.0541,0.7379,-0.6485,-0.0317,-0.1843
240,0.0,0.0,0.0,0.0,0.0,0.0,0.2702,-0.9270,0.0484,0.7376,-0.6484,-0.0306,-0.1860
241,0.0,0.0,0.0,0.0,0.0,0.0,0.2789,-0.9460,0.0604,0.7367,-0.6489,-0.0301,-0.1878
242,0.0,0.0,0.0,0.0,0.0,0.0,0.2905,-0.9575,0.0655,0.7356,-0.6495,-0.0297,-0.1902
243,0.0,0.0,0.0,0.0,0.0,0.0,0.2886,-0.9516,0.0622,0.7354,-0.6489,-0.0283,-0.1933
244,0.0,0.0,0.0,0.0,0.0,0.0,0.2823,-0.9470,0.0585,0.7352,-0.6483,-0.0269,-0.1963
245,0.0,0.0,0.0,0.0,0.0,0.0,0.2916,-0.9409,0.0495,0.7344,-0.6484,-0.0264,-0.1988
246,0.0,0.0,0.0,0.0,0.0,0.0,0.2822,-0.9504,0.0453,0.7336,-0.6486,-0.0257,-0.2012
247,0.0,0.0,0.0,0.0,0.0,0.0,0.2958,-0.9687,0.0491,0.7322,-0.6497,-0.0259,-0.2030
248,0.0,0.0,0.0,0.0,0.0,0.0,0.3017,-0.9455,0.0397,0.7309,-0.6506,-0.0263,-0.2047
249,0.0,0.0,0.0,0.0,0.0,0.0,0.3095,-0.9478,0.0343,0.7302,-0.6507,-0.0264,-0.2067
250,0.0,0.0,0.0,0.0,0.0,0.0,0.3256,-0.9532,0.0308,0.7289,-0.6515,-0.0281,-0.2083
251,0.0,0.0,0.0,0.0,0.0,0.0,0.3172,-0.9540,0.0273,0.7275,-0.6526,-0.0296,-0.2099
252,0.0,0.0,0.0,0.0,0.0,0.0,0.3352,-0.9671,0.0236,0.7261,-0.6535,-0.0310,-0.2115
253,0.0,0.0,0.0,0.0,0.0,0.0,0.3543,-0.9630,0.0257,0.7248,-0.6544,-0.0328,-0.2129
254,0.0,0.0,0.0,0.0,0.0,0.0,0.3523,-0.9570,0.0225,0.7232,-0.6558,-0.0350,-0.2137
255,0.0,0.0,0.0,0.0,0.0,0.0,0.3307,-0.9792,0.0193,0.7215,-0.6575,-0.0365,-0.2142
256,0.0,0.0,0.0,0.0,0.0,0.0,0.3282,-0.9956,0.0159,0.7204,-0.6584,-0.0366,-0.2148
257,0.0,0.0,0.0,0.0,0.0,0.0,0.3355,-0.9962,0.0178,0.7198,-0.6590,-0.0362,-0.2152
258,0.0,0.0,0.0,0.0,0.0,0.0,0.3561,-0.9694,0.0149,0.7196,-0.6592,-0.0359,-0.2153
259,0.0,0.0,0.0,0.0,0.0,0.0,0.3621,-0.9494,0.0131,0.7195,-0.6595,-0.0362,-0.2148
260,0.0,0.0,0.0,0.0,0.0,0.0,0.3592,-0.9490,0.0155,0.7193,-0.6600,-0.0370,-0.2134
261,0.0,0.0,0.0,0.0,0.0,0.0,0.3499,-0.9505,0.0188,0.7198,-0.6601,-0.0373,-0.2118
262,0.0,0.0,0.0,0.0,0.0,0.0,0.3631,-0.9408,0.0163,0.7203,-0.6599,-0.0376,-0.2102
263,0.0,0.0,0.0,0.0,0.0,0.0,0.3436,-0.9439,0.0127,0.7206,-0.6602,-0.0382,-0.2084
264,0.0,0.0,0.0,0.0,0.0,0.0,0.3436,-0.9375,0.0120,0.7208,-0.6606,-0.0387,-0.2064
265,0.0,0.0,0.0,0.0,0.0,0.0,0.3451,-0.9306,0.0093,0.7214,-0.6605,-0.0394,-0.2045
266,0.0,0.0,0.0,0.0,0.0,0.0,0.3334,-0.9395,0.0152,0.7224,-0.6600,-0.0397,-0.2026
267,0.0,0.0,0.0,0.0,0.0,0.0,0.3342,-0.9633,0.0242,0.7241,-0.6586,-0.0389,-0.2012
268,0.0,0.0,0.0,0.0,0.0,0.0,0.3315,-0.9372,0.0192,0.7248,-0.6582,-0.0383,-0.1999
269,0.0,0.0,0.0,0.0,0.0,0.0,0.3374,-0.9241,0.0201,0.7251,-0.6581,-0.0383,-0.1991
270,0.0,0.0,0.0,0.0,0.0,0.0,0.3373,-0.9319,0.0199,0.7253,-0.6581,-0.0387,-0.1985
271,0.0,0.0,0.0,0.0,0.0,0.0,0.3266,-0.9320,0.0237,0.7257,-0.6578,-0.0386,-0.1982
272,0.0,0.0,0.0,0.0,0.0,0.0,0.3158,-0.9472,0.0285,0.7265,-0.6569,-0.0374,-0.1980
273,0.0,0.0,0.0,0.0,0.0,0.0,0.3227,-0.9408,0.0263,0.7269,-0.6565,-0.0366,-0.1980
274,0.0,0.0,0.0,0.0,0.0,0.0,0.3300,-0.9370,0.0279,0.7269,-0.6566,-0.0368,-0.1978
275,0.0,0.0,0.0,0.0,0.0,0.0,0.3291,-0.9370,0.0279,0.7268,-0.6567,-0.0374,-0.1977
276,0.0,0.0,0.0,0.0,0.0,0.0,0.3310,-0.9345,0.0246,0.7268,-0.6568,-0.0381,-0.1974
277,0.0,0.0,0.0,0.0,0.0,0.0,0.3286,-0.9369,0.0250,0.7270,-0.6565,-0.0384,-0.1975
278,0.0,0.0,0.0,0.0,0.0,0.0,0.3285,-0.9472,0.0276,0.7276,-0.6558,-0.0379,-0.1979
279,0.0,0.0,0.0,0.0,0.0,0.0,0.3353,-0.9592,0.0336,0.7281,-0.6551,-0.0378,-0.1982
280,0.0,0.0,0.0,0.0,0.0,0.0,0.3270,-0.9632,0.0368,0.7285,-0.6547,-0.0376,-0.1980
281,0.0,0.0,0.0,0.0,0.0,0.0,0.3197,-0.9606,0.0344,0.7289,-0.6543,-0.0367,-0.1980
282,0.0,0.0,0.0,0.0,0.0,0.0,0.3255,-0.9576,0.0331,0.7297,-0.6535,-0.0357,-0.1981
283,0.0,0.0,0.0,0.0,0.0,0.0,0.3256,-0.9454,0.0306,0.7300,-0.6533,-0.0355,-0.1975
284,0.0,0.0,0.0,0.0,0.0,0.0,0.3207,-0.9482,0.0304,0.7299,-0.6537,-0.0354,-0.1968
285,0.0,0.0,0.0,0.0,0.0,0.0,0.3251,-0.9517,0.0308,0.7299,-0.6539,-0.0349,-0.1962
286,0.0,0.0,0.0,0.0,0.0,0.0,0.3265,-0.9486,0.0266,0.7294,-0.6546,-0.0351,-0.1956
287,0.0,0.0,0.0,0.0,0.0,0.0,0.3236,-0.9495,0.0231,0.7288,-0.6555,-0.0352,-0.1951
288,0.0,0.0,0.0,0.0,0.0,0.0,0.3162,-0.9617,0.0261,0.7290,-0.6553,-0.0342,-0.1948
289,0.0,0.0,0.0,0.0,0.0,0.0,0.3158,-0.9484,0.0227,0.7288,-0.6558,-0.0339,-0.1942
290,0.0,0.0,0.0,0.0,0.0,0.0,0.3041,-0.9485,0.0279,0.7287,-0.6560,-0.0334,-0.1935
291,0.0,0.0,0.0,0.0,0.0,0.0,0.2932,-0.9725,0.0325,0.7294,-0.6556,-0.0322,-0.1928
292,0.0,0.0,0.0,0.0,0.0,0.0,0.2732,-0.9983,0.0491,0.7299,-0.6555,-0.0306,-0.1915
293,0.0,0.0,0.0,0.0,0.0,0.0,0.2712,-0.9976,0.0573,0.7311,-0.6546,-0.0281,-0.1900
294,0.0,0.0,0.0,0.0,0.0,0.0,0.2806,-0.9872,0.0504,0.7336,-0.6524,-0.0252,-0.1885
295,0.0,0.0,0.0,0.0,0.0,0.0,0.2890,-0.9397,0.0301,0.7354,-0.6511,-0.0236,-0.1863
296,0.0,0.0,0.0,0.0,0.0,0.0,0.2936,-0.9186,0.0390,0.7365,-0.6507,-0.0238,-0.1833
297,0.0,0.0,0.0,0.0,0.0,0.0,0.2761,-1.0067,0.0653,0.7379,-0.6502,-0.0236,-0.1795
298,0.0,0.0,0.0,0.0,0.0,0.0,0.2634,-1.0001,0.0606,0.7392,-0.6497,-0.0223,-0.1757
299,0.0,0.0,0.0,0.0,0.0,0.0,0.2733,-0.9773,0.0633,0.7401,-0.6499,-0.0222,-0.1714
300,0.0,0.0,0.0,0.0,0.0,0.0,0.2803,-0.9557,0.0558,0.7413,-0.6495,-0.0216,-0.1678
301,0.0,0.0,0.0,0.0,0.0,0.0,0.2881,-0.9448,0.0513,0.7427,-0.6487,-0.0213,-0.1646
302,0.0,0.0,0.0,0.0,0.0,0.0,0.2948,-0.9751,0.0635,0.7440,-0.6481,-0.0221,-0.1613
303,0.0,0.0,0.0,0.0,0.0,0.0,0.2866,-0.9752,0.0683,0.7456,-0.6468,-0.0222,-0.1586
304,0.0,0.0,0.0,0.0,0.0,0.0,0.2900,-0.9713,0.0694,0.7473,-0.6454,-0.0220,-0.1566
305,0.0,0.0,0.0,0.0,0.0,0.0,0.2871,-0.9706,0.0767,0.7492,-0.6437,-0.0215,-0.1546
306,0.0,0.0,0.0,0.0,0.0,0.0,0.2720,-0.9659,0.0845,0.7513,-0.6417,-0.0205,-0.1530
307,0.0,0.0,0.0,0.0,0.0,0.0,0.2622,-0.9803,0.0937,0.7534,-0.6396,-0.0194,-0.1516
308,0.0,0.0,0.0,0.0,0.0,0.0,0.2506,-0.9714,0.0935,0.7556,-0.6373,-0.0175,-0.1503
309,0.0,0.0,0.0,0.0,0.0,0.0,0.2443,-0.9553,0.0954,0.7575,-0.6354,-0.0160,-0.1492
310,0.0,0.0,0.0,0.0,0.0,0.0,0.2429,-0.9565,0.1027,0.7588,-0.6341,-0.0153,-0.1483
311,0.0,0.0,0.0,0.0,0.0,0.0,0.2415,-0.9482,0.1015,0.7601,-0.6327,-0.0150,-0.1474
312,0.0,0.0,0.0,0.0,0.0,0.0,0.2308,-0.9379,0.1032,0.7609,-0.6317,-0.0148,-0.1472
313,0.0,0.0,0.0,0.0,0.0,0.0,0.2309,-0.9313,0.1083,0.7617,-0.6307,-0.0148,-0.1475
314,0.0,0.0,0.0,0.0,0.0,0.0,0.2241,-0.9364,0.1173,0.7626,-0.6296,-0.0149,-0.1480
315,0.0,0.0,0.0,0.0,0.0,0.0,0.2108,-0.9477,0.1232,0.7632,-0.6286,-0.0147,-0.1488
316,0.0,0.0,0.0,0.0,0.0,0.0,0.2021,-0.9579,0.1359,0.7642,-0.6271,-0.0135,-0.1503
317,0.0,0.0,0.0,0.0,0.0,0.0,0.2119,-0.9391,0.1259,0.7650,-0.6256,-0.0116,-0.1523
318,0.0,0.0,0.0,0.0,0.0,0.0,0.2119,-0.9446,0.1301,0.7653,-0.6248,-0.0109,-0.1540
319,0.0,0.0,0.0,0.0,0.0,0.0,0.2103,-0.9674,0.1405,0.7655,-0.6241,-0.0101,-0.1562
320,0.0,0.0,0.0,0.0,0.0,0.0,0.1961,-0.9695,0.1346,0.7655,-0.6236,-0.0090,-0.1582
321,0.0,0.0,0.0,0.0,0.0,0.0,0.2000,-0.9737,0.1422,0.7657,-0.6228,-0.0067,-0.1607
322,0.0,0.0,0.0,0.0,0.0,0.0,0.2146,-0.9817,0.1444,0.7661,-0.6216,-0.0045,-0.1631
323,0.0,0.0,0.0,0.0,0.0,0.0,0.2113,-0.9668,0.1376,0.7663,-0.6210,-0.0032,-0.1647
324,0.0,0.0,0.0,0.0,0.0,0.0,0.2039,-0.9732,0.1403,0.7663,-0.6207,-0.0022,-0.1660
325,0.0,0.0,0.0,0.0,0.0,0.0,0.2005,-0.9825,0.1424,0.7664,-0.6202,-0.0002,-0.1672
326,0.0,0.0,0.0,0.0,0.0,0.0,0.2085,-0.9421,0.1287,0.7660,-0.6204,0.0007,-0.1681
327,0.0,0.0,0.0,0.0,0.0,0.0,0.2114,-0.9500,0.1309,0.7658,-0.6205,0.0009,-0.1690
328,0.0,0.0,0.0,0.0,0.0,0.0,0.2122,-0.9655,0.1299,0.7655,-0.6206,0.0006,-0.1701
329,0.0,0.0,0.0,0.0,0.0,0.0,0.2089,-0.9532,0.1274,0.7651,-0.6207,0.0002,-0.1714
330,0.0,0.0,0.0,0.0,0.0,0.0,0.2074,-0.9544,0.1317,0.7650,-0.6204,0.0006,-0.1730
331,0.0,0.0,0.0,0.0,0.0,0.0,0.2220,-0.9624,0.1364,0.7646,-0.6204,0.0001,-0.1747
332,0.0,0.0,0.0,0.0,0.0,0.0,0.2313,-0.9608,0.1287,0.7639,-0.6207,-0.0014,-0.1765
333,0.0,0.0,0.0,0.0,0.0,0.0,0.2270,-0.9364,0.1163,0.7631,-0.6212,-0.0026,-0.1782
334,0.0,0.0,0.0,0.0,0.0,0.0,0.2362,-0.9583,0.1264,0.7626,-0.6214,-0.0037,-0.1797
335,0.0,0.0,0.0,0.0,0.0,0.0,0.2541,-0.9788,0.1229,0.7621,-0.6215,-0.0051,-0.1811
336,0.0,0.0,0.0,0.0,0.0,0.0,0.2581,-0.9465,0.1045,0.7612,-0.6221,-0.0065,-0.1829
337,0.0,0.0,0.0,0.0,0.0,0.0,0.2977,-0.9302,0.1047,0.7595,-0.6238,-0.0101,-0.1843
338,0.0,0.0,0.0,0.0,0.0,0.0,0.2975,-0.9631,0.1099,0.7575,-0.6258,-0.0141,-0.1852
339,0.0,0.0,0.0,0.0,0.0,0.0,0.2685,-1.0063,0.1104,0.7561,-0.6272,-0.0161,-0.1861
340,0.0,0.0,0.0,0.0,0.0,0.0,0.2643,-0.9612,0.0909,0.7546,-0.6287,-0.0173,-0.1870
341,0.0,0.0,0.0,0.0,0.0,0.0,0.2730,-0.9640,0.0875,0.7534,-0.6300,-0.0191,-0.1872
342,0.0,0.0,0.0,0.0,0.0,0.0,0.2826,-0.9936,0.0939,0.7522,-0.6315,-0.0215,-0.1870
343,0.0,0.0,0.0,0.0,0.0,0.0,0.2711,-0.9681,0.0927,0.7509,-0.6330,-0.0232,-0.1868
344,0.0,0.0,0.0,0.0,0.0,0.0,0.2662,-0.9604,0.0832,0.7498,-0.6342,-0.0238,-0.1869
345,0.0,0.0,0.0,0.0,0.0,0.0,0.2991,-0.9235,0.0670,0.7486,-0.6353,-0.0248,-0.1878
346,0.0,0.0,0.0,0.0,0.0,0.0,0.3053,-0.9370,0.0739,0.7477,-0.6362,-0.0265,-0.1884
347,0.0,0.0,0.0,0.0,0.0,0.0,0.2760,-0.9389,0.0650,0.7462,-0.6377,-0.0286,-0.1888
348,0.0,0.0,0.0,0.0,0.0,0.0,0.2740,-0.9438,0.0668,0.7451,-0.6388,-0.0298,-0.1894
349,0.0,0.0,0.0,0.0,0.0,0.0,0.2891,-0.9535,0.0627,0.7435,-0.6405,-0.0317,-0.1897
350,0.0,0.0,0.0,0.0,0.0,0.0,0.2896,-0.9386,0.0554,0.7417,-0.6423,-0.0338,-0.1903
351,0.0,0.0,0.0,0.0,0.0,0.0,0.2872,-0.9306,0.0498,0.7399,-0.6439,-0.0359,-0.1913
352,0.0,0.0,0.0,0.0,0.0,0.0,0.2562,-0.9902,0.0599,0.7390,-0.6447,-0.0360,-0.1923
353,0.0,0.0,0.0,0.0,0.0,0.0,0.2727,-0.9977,0.0602,0.7389,-0.6446,-0.0357,-0.1931
354,0.0,0.0,0.0,0.0,0.0,0.0,0.2837,-0.9520,0.0496,0.7383,-0.6449,-0.0360,-0.1940
355,0.0,0.0,0.0,0.0,0.0,0.0,0.2988,-0.9525,0.0457,0.7378,-0.6455,-0.0374,-0.1939
356,0.0,0.0,0.0,0.0,0.0,0.0,0.3232,-0.9331,0.0295,0.7365,-0.6470,-0.0406,-0.1930
357,0.0,0.0,0.0,0.0,0.0,0.0,0.3262,-0.9337,0.0324,0.7351,-0.6489,-0.0438,-0.1912
358,0.0,0.0,0.0,0.0,0.0,0.0,0.3441,-0.9530,0.0362,0.7340,-0.6505,-0.0459,-0.1896
359,0.0,0.0,0.0,0.0,0.0,0.0,0.3650,-0.9636,0.0277,0.7323,-0.6525,-0.0486,-0.1885
360,0.0,0.0,0.0,0.0,0.0,0.0,0.3747,-0.9581,0.0202,0.7302,-0.6550,-0.0521,-0.1872
361,0.0,0.0,0.0,0.0,0.0,0.0,0.3743,-0.9542,0.0217,0.7283,-0.6572,-0.0551,-0.1860
362,0.0,0.0,0.0,0.0,0.0,0.0,0.3848,-1.0152,0.0475,0.7275,-0.6582,-0.0563,-0.1853
363,0.0,0.0,0.0,0.0,0.0,0.0,0.4022,-1.0229,0.0396,0.7266,-0.6591,-0.0574,-0.1852
364,0.0,0.0,0.0,0.0,0.0,0.0,0.3815,-0.9653,0.0035,0.7252,-0.6604,-0.0581,-0.1860
365,0.0,0.0,0.0,0.0,0.0,0.0,0.3567,-0.9415,-0.0041,0.7244,-0.6609,-0.0574,-0.1873
366,0.0,0.0,0.0,0.0,0.0,0.0,0.3439,-0.9638,0.0102,0.7249,-0.6603,-0.0552,-0.1884
367,0.0,0.0,0.0,0.0,0.0,0.0,0.3375,-0.9939,0.0208,0.7253,-0.6597,-0.0528,-0.1896
368,0.0,0.0,0.0,0.0,0.0,0.0,0.3259,-0.9742,0.0190,0.7255,-0.6591,-0.0496,-0.1915
369,0.0,0.0,0.0,0.0,0.0,0.0,0.3207,-0.9410,0.0185,0.7259,-0.6582,-0.0458,-0.1941
370,0.0,0.0,0.0,0.0,0.0,0.0,0.3089,-0.9659,0.0366,0.7271,-0.6564,-0.0415,-0.1968
371,0.0,0.0,0.0,0.0,0.0,0.0,0.2982,-0.9658,0.0351,0.7285,-0.6543,-0.0366,-0.1999
372,0.0,0.0,0.0,0.0,0.0,0.0,0.2909,-0.9653,0.0375,0.7301,-0.6517,-0.0310,-0.2033
373,0.0,0.0,0.0,0.0,0.0,0.0,0.2714,-0.9711,0.0523,0.7318,-0.6489,-0.0251,-0.2067
374,0.0,0.0,0.0,0.0,0.0,0.0,0.2470,-0.9767,0.0530,0.7336,-0.6461,-0.0187,-0.2099
375,0.0,0.0,0.0,0.0,0.0,0.0,0.2432,-0.9622,0.0554,0.7350,-0.6437,-0.0121,-0.2130
376,0.0,0.0,0.0,0.0,0.0,0.0,0.2379,-0.9546,0.0639,0.7355,-0.6423,-0.0069,-0.2155
377,0.0,0.0,0.0,0.0,0.0,0.0,0.2296,-0.9438,0.0627,0.7359,-0.6411,-0.0020,-0.2177
378,0.0,0.0,0.0,0.0,0.0,0.0,0.2307,-0.9302,0.0641,0.7366,-0.6396,0.0029,-0.2199
379,0.0,0.0,0.0,0.0,0.0,0.0,0.2337,-0.9186,0.0669,0.7370,-0.6384,0.0069,-0.2219
380,0.0,0.0,0.0,0.0,0.0,0.0,0.2449,-0.9232,0.0712,0.7370,-0.6377,0.0092,-0.2237
381,0.0,0.0,0.0,0.0,0.0,0.0,0.2479,-0.9174,0.0699,0.7366,-0.6377,0.0099,-0.2251
382,0.0,0.0,0.0,0.0,0.0,0.0,0.2450,-0.9111,0.0721,0.7365,-0.6371,0.0106,-0.2270
383,0.0,0.0,0.0,0.0,0.0,0.0,0.2645,-0.9093,0.0722,0.7360,-0.6370,0.0098,-0.2290
384,0.0,0.0,0.0,0.0,0.0,0.0,0.2737,-0.9245,0.0723,0.7347,-0.6380,0.0068,-0.2304
385,0.0,0.0,0.0,0.0,0.0,0.0,0.2678,-0.9448,0.0832,0.7337,-0.6386,0.0042,-0.2320
386,0.0,0.0,0.0,0.0,0.0,0.0,0.2833,-0.9588,0.0872,0.7334,-0.6383,0.0020,-0.2337
387,0.0,0.0,0.0,0.0,0.0,0.0,0.2994,-0.9488,0.0784,0.7330,-0.6384,-0.0010,-0.2349
388,0.0,0.0,0.0,0.0,0.0,0.0,0.2995,-0.9347,0.0648,0.7321,-0.6394,-0.0051,-0.2350
389,0.0,0.0,0.0,0.0,0.0,0.0,0.3204,-0.9573,0.0801,0.7318,-0.6398,-0.0090,-0.2347
390,0.0,0.0,0.0,0.0,0.0,0.0,0.3330,-0.9628,0.0786,0.7320,-0.6399,-0.0127,-0.2335
391,0.0,0.0,0.0,0.0,0.0,0.0,0.3409,-0.9407,0.0730,0.7315,-0.6410,-0.0169,-0.2318
392,0.0,0.0,0.0,0.0,0.0,0.0,0.3522,-0.9323,0.0680,0.7304,-0.6429,-0.0215,-0.2296
393,0.0,0.0,0.0,0.0,0.0,0.0,0.3644,-0.9253,0.0619,0.7291,-0.6450,-0.0264,-0.2271
394,0.0,0.0,0.0,0.0,0.0,0.0,0.3786,-0.9085,0.0518,0.7277,-0.6473,-0.0311,-0.2247
395,0.0,0.0,0.0,0.0,0.0,0.0,0.3985,-0.9172,0.0439,0.7264,-0.6494,-0.0359,-0.2223
396,0.0,0.0,0.0,0.0,0.0,0.0,0.4097,-0.9140,0.0333,0.7250,-0.6514,-0.0403,-0.2201
397,0.0,0.0,0.0,0.0,0.0,0.0,0.4213,-0.9275,0.0281,0.7232,-0.6539,-0.0453,-0.2174
398,0.0,0.0,0.0,0.0,0.0,0.0,0.4182,-0.9588,0.0295,0.7219,-0.6562,-0.0499,-0.2142
399,0.0,0.0,0.0,0.0,0.0,0.0,0.4138,-0.9640,0.0274,0.7207,-0.6580,-0.0529,-0.2118
400,0.0,0.0,0.0,0.0,0.0,0.0,0.4244,-0.9784,0.0318,0.7194,-0.6599,-0.0561,-0.2095
401,0.0,0.0,0.0,0.0,0.0,0.0,0.4254,-0.9720,0.0146,0.7185,-0.6612,-0.0586,-0.2076
402,0.0,0.0,0.0,0.0,0.0,0.0,0.4119,-0.9366,-0.0023,0.7179,-0.6621,-0.0603,-0.2064
403,0.0,0.0,0.0,0.0,0.0,0.0,0.4031,-0.9292,-0.0031,0.7171,-0.6631,-0.0621,-0.2055
404,0.0,0.0,0.0,0.0,0.0,0.0,0.3870,-0.9369,-0.0029,0.7166,-0.6636,-0.0637,-0.2050
405,0.0,0.0,0.0,0.0,0.0,0.0,0.3704,-0.9388,0.0004,0.7169,-0.6633,-0.0640,-0.2048
406,0.0,0.0,0.0,0.0,0.0,0.0,0.3733,-0.9409,0.0052,0.7169,-0.6633,-0.0639,-0.2050
407,0.0,0.0,0.0,0.0,0.0,0.0,0.3724,-0.9250,-0.0036,0.7163,-0.6638,-0.0640,-0.2056
408,0.0,0.0,0.0,0.0,0.0,0.0,0.3759,-0.9213,0.0009,0.7161,-0.6637,-0.0639,-0.2066
409,0.0,0.0,0.0,0.0,0.0,0.0,0.3744,-0.9183,-0.0014,0.7158,-0.6636,-0.0643,-0.2077
410,0.0,0.0,0.0,0.0,0.0,0.0,0.3739,-0.9177,-0.0038,0.7156,-0.6635,-0.0645,-0.2089
411,0.0,0.0,0.0,0.0,0.0,0.0,0.3837,-0.9199,0.0015,0.7158,-0.6627,-0.0643,-0.2106
412,0.0,0.0,0.0,0.0,0.0,0.0,0.3773,-0.9351,0.0039,0.7159,-0.6622,-0.0642,-0.2119
413,0.0,0.0,0.0,0.0,0.0,0.0,0.3807,-0.9432,0.0129,0.7156,-0.6621,-0.0639,-0.2133
414,0.0,0.0,0.0,0.0,0.0,0.0,0.3904,-0.9452,0.0114,0.7155,-0.6618,-0.0637,-0.2144
415,0.0,0.0,0.0,0.0,0.0,0.0,0.3836,-0.9333,0.0084,0.7155,-0.6615,-0.0635,-0.2154
416,0.0,0.0,0.0,0.0,0.0,0.0,0.3681,-0.9230,0.0096,0.7155,-0.6612,-0.0625,-0.2166
417,0.0,0.0,0.0,0.0,0.0,0.0,0.3846,-0.9374,0.0116,0.7152,-0.6614,-0.0620,-0.2174
418,0.0,0.0,0.0,0.0,0.0,0.0,0.3754,-0.9335,0.0161,0.7152,-0.6613,-0.0615,-0.2178
419,0.0,0.0,0.0,0.0,0.0,0.0,0.3700,-0.9419,0.0202,0.7159,-0.6604,-0.0598,-0.2187
420,0.0,0.0,0.0,0.0,0.0,0.0,0.3674,-0.9636,0.0258,0.7167,-0.6595,-0.0579,-0.2191
421,0.0,0.0,0.0,0.0,0.0,0.0,0.3587,-0.9591,0.0259,0.7179,-0.6585,-0.0554,-0.2190
422,0.0,0.0,0.0,0.0,0.0,0.0,0.3519,-0.9444,0.0254,0.7191,-0.6574,-0.0525,-0.2190
423,0.0,0.0,0.0,0.0,0.0,0.0,0.3529,-0.9449,0.0263,0.7203,-0.6565,-0.0497,-0.2185
424,0.0,0.0,0.0,0.0,0.0,0.0,0.3485,-0.9454,0.0253,0.7217,-0.6555,-0.0469,-0.2175
425,0.0,0.0,0.0,0.0,0.0,0.0,0.3505,-0.9386,0.0255,0.7224,-0.6553,-0.0451,-0.2160
426,0.0,0.0,0.0,0.0,0.0,0.0,0.3559,-0.9352,0.0247,0.7229,-0.6554,-0.0439,-0.2143
427,0.0,0.0,0.0,0.0,0.0,0.0,0.3592,-0.9409,0.0216,0.7234,-0.6554,-0.0430,-0.2127
428,0.0,0.0,0.0,0.0,0.0,0.0,0.3607,-0.9499,0.0257,0.7241,-0.6553,-0.0421,-0.2111
429,0.0,0.0,0.0,0.0,0.0,0.0,0.3528,-0.9598,0.0317,0.7255,-0.6542,-0.0403,-0.2096
430,0.0,0.0,0.0,0.0,0.0,0.0,0.3411,-0.9613,0.0364,0.7272,-0.6531,-0.0385,-0.2079
431,0.0,0.0,0.0,0.0,0.0,0.0,0.3300,-0.9529,0.0352,0.7286,-0.6522,-0.0369,-0.2059
432,0.0,0.0,0.0,0.0,0.0,0.0,0.3188,-0.9465,0.0373,0.7292,-0.6523,-0.0359,-0.2035
433,0.0,0.0,0.0,0.0,0.0,0.0,0.3095,-0.9477,0.0455,0.7298,-0.6525,-0.0349,-0.2011
434,0.0,0.0,0.0,0.0,0.0,0.0,0.3037,-0.9483,0.0503,0.7312,-0.6516,-0.0331,-0.1991
435,0.0,0.0,0.0,0.0,0.0,0.0,0.2998,-0.9469,0.0522,0.7322,-0.6512,-0.0318,-0.1971
436,0.0,0.0,0.0,0.0,0.0,0.0,0.2945,-0.9479,0.0527,0.7328,-0.6512,-0.0307,-0.1950
437,0.0,0.0,0.0,0.0,0.0,0.0,0.2950,-0.9387,0.0564,0.7335,-0.6511,-0.0299,-0.1930
438,0.0,0.0,0.0,0.0,0.0,0.0,0.2941,-0.9385,0.0641,0.7347,-0.6503,-0.0292,-0.1912
439,0.0,0.0,0.0,0.0,0.0,0.0,0.2882,-0.9467,0.0619,0.7360,-0.6493,-0.0287,-0.1895
440,0.0,0.0,0.0,0.0,0.0,0.0,0.2833,-0.9443,0.0649,0.7369,-0.6488,-0.0286,-0.1875
441,0.0,0.0,0.0,0.0,0.0,0.0,0.2848,-0.9485,0.0730,0.7383,-0.6478,-0.0282,-0.1857
442,0.0,0.0,0.0,0.0,0.0,0.0,0.2828,-0.9544,0.0762,0.7393,-0.6471,-0.0280,-0.1842
443,0.0,0.0,0.0,0.0,0.0,0.0,0.2848,-0.9510,0.0744,0.7396,-0.6471,-0.0283,-0.1827
444,0.0,0.0,0.0,0.0,0.0,0.0,0.2853,-0.9501,0.0759,0.7402,-0.6468,-0.0284,-0.1813
445,0.0,0.0,0.0,0.0,0.0,0.0,0.2779,-0.9589,0.0799,0.7408,-0.6465,-0.0283,-0.1801
446,0.0,0.0,0.0,0.0,0.0,0.0,0.2745,-0.9628,0.0798,0.7416,-0.6459,-0.0278,-0.1791
447,0.0,0.0,0.0,0.0,0.0,0.0,0.2716,-0.9550,0.0805,0.7423,-0.6454,-0.0272,-0.1782
448,0.0,0.0,0.0,0.0,0.0,0.0,0.2701,-0.9594,0.0808,0.7429,-0.6449,-0.0267,-0.1773
449,0.0,0.0,0.0,0.0,0.0,0.0,0.2657,-0.9687,0.0839,0.7439,-0.6440,-0.0258,-0.1766
450,0.0,0.0,0.0,0.0,0.0,0.0,0.2608,-0.9697,0.0844,0.7446,-0.6435,-0.0251,-0.1756
451,0.0,0.0,0.0,0.0,0.0,0.0,0.2569,-0.9727,0.0867,0.7453,-0.6430,-0.0242,-0.1744
452,0.0,0.0,0.0,0.0,0.0,0.0,0.2564,-0.9777,0.0909,0.7467,-0.6418,-0.0227,-0.1733
453,0.0,0.0,0.0,0.0,0.0,0.0,0.2550,-0.9744,0.0944,0.7483,-0.6403,-0.0211,-0.1719
454,0.0,0.0,0.0,0.0,0.0,0.0,0.2486,-0.9825,0.1033,0.7498,-0.6391,-0.0199,-0.1701
455,0.0,0.0,0.0,0.0,0.0,0.0,0.2443,-0.9804,0.1155,0.7514,-0.6379,-0.0186,-0.1681
456,0.0,0.0,0.0,0.0,0.0,0.0,0.2483,-0.9688,0.1183,0.7537,-0.6356,-0.0167,-0.1663
457,0.0,0.0,0.0,0.0,0.0,0.0,0.2473,-0.9595,0.1176,0.7556,-0.6339,-0.0154,-0.1640
458,0.0,0.0,0.0,0.0,0.0,0.0,0.2426,-0.9300,0.1117,0.7566,-0.6334,-0.0148,-0.1615
459,0.0,0.0,0.0,0.0,0.0,0.0,0.2499,-0.9330,0.1126,0.7579,-0.6325,-0.0137,-0.1591
460,0.0,0.0,0.0,0.0,0.0,0.0,0.2552,-0.9383,0.1091,0.7589,-0.6318,-0.0129,-0.1571
461,0.0,0.0,0.0,0.0,0.0,0.0,0.2450,-0.9289,0.0929,0.7587,-0.6325,-0.0123,-0.1557
462,0.0,0.0,0.0,0.0,0.0,0.0,0.2571,-0.9347,0.0879,0.7585,-0.6329,-0.0118,-0.1549
463,0.0,0.0,0.0,0.0,0.0,0.0,0.2472,-0.9580,0.0871,0.7583,-0.6332,-0.0114,-0.1544
464,0.0,0.0,0.0,0.0,0.0,0.0,0.2364,-0.9683,0.0799,0.7574,-0.6343,-0.0112,-0.1542
465,0.0,0.0,0.0,0.0,0.0,0.0,0.2393,-0.9677,0.0737,0.7566,-0.6353,-0.0107,-0.1545
466,0.0,0.0,0.0,0.0,0.0,0.0,0.2407,-0.9714,0.0692,0.7560,-0.6358,-0.0102,-0.1553
467,0.0,0.0,0.0,0.0,0.0,0.0,0.2421,-0.9831,0.0683,0.7553,-0.6365,-0.0103,-0.1561
468,0.0,0.0,0.0,0.0,0.0,0.0,0.2421,-0.9919,0.0695,0.7545,-0.6372,-0.0104,-0.1570
469,0.0,0.0,0.0,0.0,0.0,0.0,0.2396,-0.9980,0.0751,0.7542,-0.6373,-0.0098,-0.1580
470,0.0,0.0,0.0,0.0,0.0,0.0,0.2337,-1.0000,0.0663,0.7539,-0.6375,-0.0094,-0.1586
471,0.0,0.0,0.0,0.0,0.0,0.0,0.2249,-0.9940,0.0626,0.7535,-0.6379,-0.0088,-0.1590
472,0.0,0.0,0.0,0.0,0.0,0.0,0.2274,-0.9979,0.0639,0.7530,-0.6385,-0.0083,-0.1591
473,0.0,0.0,0.0,0.0,0.0,0.0,0.2416,-0.9824,0.0625,0.7522,-0.6394,-0.0086,-0.1590
474,0.0,0.0,0.0,0.0,0.0,0.0,0.2119,-0.9752,0.0588,0.7519,-0.6398,-0.0082,-0.1590
475,0.0,0.0,0.0,0.0,0.0,0.0,0.2207,-0.9806,0.0722,0.7518,-0.6399,-0.0076,-0.1590
476,0.0,0.0,0.0,0.0,0.0,0.0,0.2246,-0.9867,0.0779,0.7523,-0.6392,-0.0068,-0.1591
477,0.0,0.0,0.0,0.0,0.0,0.0,0.2182,-0.9927,0.0835,0.7534,-0.6379,-0.0054,-0.1592
478,0.0,0.0,0.0,0.0,0.0,0.0,0.2187,-1.0079,0.0975,0.7548,-0.6363,-0.0041,-0.1593
479,0.0,0.0,0.0,0.0,0.0,0.0,0.2090,-1.0037,0.1069,0.7565,-0.6344,-0.0021,-0.1590
480,0.0,0.0,0.0,0.0,0.0,0.0,0.2072,-0.9767,0.1028,0.7584,-0.6322,0.0003,-0.1587
481,0.0,0.0,0.0,0.0,0.0,0.0,0.1993,-0.9920,0.1091,0.7604,-0.6299,0.0027,-0.1579
482,0.0,0.0,0.0,0.0,0.0,0.0,0.1934,-1.0006,0.1185,0.7619,-0.6285,0.0040,-0.1563
483,0.0,0.0,0.0,0.0,0.0,0.0,0.1964,-1.0018,0.1238,0.7633,-0.6274,0.0054,-0.1543
484,0.0,0.0,0.0,0.0,0.0,0.0,0.2009,-0.9821,0.1191,0.7649,-0.6258,0.0072,-0.1525
485,0.0,0.0,0.0,0.0,0.0,0.0,0.2005,-0.9712,0.1273,0.7663,-0.6244,0.0088,-0.1510
486,0.0,0.0,0.0,0.0,0.0,0.0,0.1980,-0.9812,0.1337,0.7679,-0.6228,0.0102,-0.1495
487,0.0,0.0,0.0,0.0,0.0,0.0,0.1893,-0.9624,0.1289,0.7699,-0.6204,0.0126,-0.1488
488,0.0,0.0,0.0,0.0,0.0,0.0,0.1997,-0.9198,0.1090,0.7709,-0.6192,0.0132,-0.1484
489,0.0,0.0,0.0,0.0,0.0,0.0,0.1856,-0.9319,0.1216,0.7719,-0.6184,0.0123,-0.1471
490,0.0,0.0,0.0,0.0,0.0,0.0,0.1581,-0.9746,0.1498,0.7730,-0.6171,0.0129,-0.1464
491,0.0,0.0,0.0,0.0,0.0,0.0,0.1690,-0.9530,0.1447,0.7738,-0.6162,0.0140,-0.1461
492,0.0,0.0,0.0,0.0,0.0,0.0,0.1612,-0.9387,0.1412,0.7747,-0.6151,0.0150,-0.1461
493,0.0,0.0,0.0,0.0,0.0,0.0,0.1710,-0.9325,0.1419,0.7749,-0.6147,0.0144,-0.1465
494,0.0,0.0,0.0,0.0,0.0,0.0,0.1764,-0.9252,0.1417,0.7747,-0.6148,0.0128,-0.1474
495,0.0,0.0,0.0,0.0,0.0,0.0,0.1681,-0.9364,0.1438,0.7742,-0.6152,0.0113,-0.1486
496,0.0,0.0,0.0,0.0,0.0,0.0,0.1670,-0.9482,0.1473,0.7735,-0.6157,0.0098,-0.1502
497,0.0,0.0,0.0,0.0,0.0,0.0,0.1694,-0.9602,0.1532,0.7729,-0.6161,0.0084,-0.1518
498,0.0,0.0,0.0,0.0,0.0,0.0,0.1796,-0.9690,0.1520,0.7723,-0.6165,0.0068,-0.1533
499,0.0,0.0,0.0,0.0,0.0,0.0,0.1826,-0.9665,0.1506,0.7713,-0.6173,0.0052,-0.1549
500,0.0,0.0,0.0,0.0,0.0,0.0,0.1879,-0.9663,0.1429,0.7707,-0.6177,0.0040,-0.1564
501,0.0,0.0,0.0,0.0,0.0,0.0,0.1981,-0.9651,0.1357,0.7699,-0.6183,0.0025,-0.1581
502,0.0,0.0,0.0,0.0,0.0,0.0,0.2020,-0.9645,0.1294,0.7685,-0.6196,0.0005,-0.1598
503,0.0,0.0,0.0,0.0,0.0,0.0,0.2127,-0.9583,0.1190,0.7665,-0.6217,-0.0021,-0.1613
504,0.0,0.0,0.0,0.0,0.0,0.0,0.2220,-0.9519,0.1134,0.7641,-0.6241,-0.0054,-0.1628
505,0.0,0.0,0.0,0.0,0.0,0.0,0.2194,-0.9852,0.1191,0.7619,-0.6265,-0.0085,-0.1643
506,0.0,0.0,0.0,0.0,0.0,0.0,0.2125,-0.9993,0.1191,0.7598,-0.6286,-0.0109,-0.1656
507,0.0,0.0,0.0,0.0,0.0,0.0,0.2144,-0.9990,0.1114,0.7580,-0.6305,-0.0125,-0.1669
508,0.0,0.0,0.0,0.0,0.0,0.0,0.2218,-0.9752,0.0976,0.7563,-0.6321,-0.0140,-0.1682
509,0.0,0.0,0.0,0.0,0.0,0.0,0.2341,-0.9637,0.0995,0.7549,-0.6334,-0.0160,-0.1693
510,0.0,0.0,0.0,0.0,0.0,0.0,0.2491,-0.9909,0.1064,0.7540,-0.6341,-0.0179,-0.1705
511,0.0,0.0,0.0,0.0,0.0,0.0,0.2460,-1.0145,0.1120,0.7535,-0.6344,-0.0194,-0.1714
512,0.0,0.0,0.0,0.0,0.0,0.0,0.2441,-1.0115,0.1121,0.7531,-0.6346,-0.0198,-0.1723
513,0.0,0.0,0.0,0.0,0.0,0.0,0.2564,-0.9819,0.0985,0.7531,-0.6342,-0.0199,-0.1736
514,0.0,0.0,0.0,0.0,0.0,0.0,0.2487,-0.9606,0.0919,0.7533,-0.6337,-0.0196,-0.1747
515,0.0,0.0,0.0,0.0,0.0,0.0,0.2506,-0.9605,0.0904,0.7530,-0.6340,-0.0199,-0.1754
516,0.0,0.0,0.0,0.0,0.0,0.0,0.2619,-0.9550,0.0829,0.7524,-0.6343,-0.0206,-0.1764
517,0.0,0.0,0.0,0.0,0.0,0.0,0.2677,-0.9551,0.0834,0.7519,-0.6346,-0.0217,-0.1775
518,0.0,0.0,0.0,0.0,0.0,0.0,0.2613,-0.9633,0.0841,0.7510,-0.6353,-0.0228,-0.1787
519,0.0,0.0,0.0,0.0,0.0,0.0,0.2648,-0.9589,0.0833,0.7500,-0.6361,-0.0237,-0.1797
520,0.0,0.0,0.0,0.0,0.0,0.0,0.2716,-0.9539,0.0781,0.7494,-0.6365,-0.0245,-0.1809
521,0.0,0.0,0.0,0.0,0.0,0.0,0.2706,-0.9573,0.0765,0.7489,-0.6367,-0.0248,-0.1820
522,0.0,0.0,0.0,0.0,0.0,0.0,0.2740,-0.9687,0.0810,0.7485,-0.6370,-0.0250,-0.1829
523,0.0,0.0,0.0,0.0,0.0,0.0,0.2740,-0.9698,0.0834,0.7482,-0.6370,-0.0256,-0.1837
524,0.0,0.0,0.0,0.0,0.0,0.0,0.2671,-0.9856,0.0902,0.7483,-0.6368,-0.0255,-0.1840
525,0.0,0.0,0.0,0.0,0.0,0.0,0.2832,-0.9820,0.0821,0.7483,-0.6368,-0.0257,-0.1841
526,0.0,0.0,0.0,0.0,0.0,0.0,0.2916,-0.9468,0.0658,0.7480,-0.6372,-0.0265,-0.1837
527,0.0,0.0,0.0,0.0,0.0,0.0,0.2832,-0.9795,0.0822,0.7477,-0.6378,-0.0274,-0.1826
528,0.0,0.0,0.0,0.0,0.0,0.0,0.2812,-0.9803,0.0763,0.7470,-0.6390,-0.0281,-0.1814
529,0.0,0.0,0.0,0.0,0.0,0.0,0.2750,-0.9512,0.0700,0.7461,-0.6403,-0.0287,-0.1802
530,0.0,0.0,0.0,0.0,0.0,0.0,0.2685,-0.9873,0.0843,0.7455,-0.6414,-0.0292,-0.1788
531,0.0,0.0,0.0,0.0,0.0,0.0,0.2745,-0.9605,0.0706,0.7454,-0.6418,-0.0293,-0.1779
532,0.0,0.0,0.0,0.0,0.0,0.0,0.2736,-0.9378,0.0621,0.7456,-0.6416,-0.0288,-0.1775
533,0.0,0.0,0.0,0.0,0.0,0.0,0.2735,-0.9520,0.0646,0.7454,-0.6420,-0.0288,-0.1771
534,0.0,0.0,0.0,0.0,0.0,0.0,0.2744,-0.9528,0.0587,0.7452,-0.6423,-0.0290,-0.1769
535,0.0,0.0,0.0,0.0,0.0,0.0,0.2695,-0.9571,0.0591,0.7448,-0.6428,-0.0294,-0.1768
536,0.0,0.0,0.0,0.0,0.0,0.0,0.2696,-0.9562,0.0596,0.7438,-0.6439,-0.0304,-0.1766
537,0.0,0.0,0.0,0.0,0.0,0.0,0.2666,-0.9653,0.0569,0.7433,-0.6446,-0.0307,-0.1764
538,0.0,0.0,0.0,0.0,0.0,0.0,0.2661,-0.9618,0.0541,0.7426,-0.6454,-0.0311,-0.1763
539,0.0,0.0,0.0,0.0,0.0,0.0,0.2700,-0.9505,0.0496,0.7417,-0.6464,-0.0320,-0.1762
540,0.0,0.0,0.0,0.0,0.0,0.0,0.2685,-0.9623,0.0521,0.7409,-0.6473,-0.0328,-0.1759
541,0.0,0.0,0.0,0.0,0.0,0.0,0.2700,-0.9667,0.0534,0.7399,-0.6485,-0.0338,-0.1756
542,0.0,0.0,0.0,0.0,0.0,0.0,0.2661,-0.9603,0.0522,0.7396,-0.6488,-0.0338,-0.1758
543,0.0,0.0,0.0,0.0,0.0,0.0,0.2640,-0.9821,0.0631,0.7397,-0.6486,-0.0332,-0.1760
544,0.0,0.0,0.0,0.0,0.0,0.0,0.2689,-0.9895,0.0634,0.7402,-0.6480,-0.0320,-0.1764
545,0.0,0.0,0.0,0.0,0.0,0.0,0.2733,-0.9737,0.0576,0.7413,-0.6468,-0.0302,-0.1768
546,0.0,0.0,0.0,0.0,0.0,0.0,0.2816,-0.9766,0.0541,0.7424,-0.6455,-0.0287,-0.1771
547,0.0,0.0,0.0,0.0,0.0,0.0,0.2786,-0.9964,0.0637,0.7434,-0.6444,-0.0276,-0.1769
548,0.0,0.0,0.0,0.0,0.0,0.0,0.2708,-0.9998,0.0636,0.7441,-0.6440,-0.0268,-0.1756
549,0.0,0.0,0.0,0.0,0.0,0.0,0.2670,-0.9781,0.0589,0.7449,-0.6436,-0.0256,-0.1739
550,0.0,0.0,0.0,0.0,0.0,0.0,0.2749,-0.9615,0.0560,0.7458,-0.6431,-0.0249,-0.1721
551,0.0,0.0,0.0,0.0,0.0,0.0,0.2632,-0.9530,0.0548,0.7463,-0.6430,-0.0243,-0.1703
552,0.0,0.0,0.0,0.0,0.0,0.0,0.2760,-0.9330,0.0497,0.7465,-0.6430,-0.0245,-0.1691
553,0.0,0.0,0.0,0.0,0.0,0.0,0.2716,-0.9404,0.0533,0.7465,-0.6433,-0.0253,-0.1681
554,0.0,0.0,0.0,0.0,0.0,0.0,0.2769,-0.9438,0.0532,0.7464,-0.6435,-0.0264,-0.1675
555,0.0,0.0,0.0,0.0,0.0,0.0,0.2793,-0.9453,0.0532,0.7462,-0.6438,-0.0281,-0.1672
556,0.0,0.0,0.0,0.0,0.0,0.0,0.2774,-0.9507,0.0554,0.7461,-0.6438,-0.0296,-0.1671
557,0.0,0.0,0.0,0.0,0.0,0.0,0.2807,-0.9661,0.0613,0.7456,-0.6443,-0.0316,-0.1669
558,0.0,0.0,0.0,0.0,0.0,0.0,0.2851,-0.9754,0.0615,0.7450,-0.6450,-0.0337,-0.1666
559,0.0,0.0,0.0,0.0,0.0,0.0,0.2884,-0.9812,0.0598,0.7453,-0.6446,-0.0346,-0.1668
560,0.0,0.0,0.0,0.0,0.0,0.0,0.2904,-0.9692,0.0496,0.7453,-0.6444,-0.0355,-0.1672
561,0.0,0.0,0.0,0.0,0.0,0.0,0.2885,-0.9565,0.0499,0.7453,-0.6444,-0.0365,-0.1673
562,0.0,0.0,0.0,0.0,0.0,0.0,0.2943,-0.9690,0.0573,0.7451,-0.6445,-0.0375,-0.1674
563,0.0,0.0,0.0,0.0,0.0,0.0,0.2967,-0.9834,0.0632,0.7454,-0.6440,-0.0379,-0.1677
564,0.0,0.0,0.0,0.0,0.0,0.0,0.3065,-0.9810,0.0643,0.7464,-0.6428,-0.0374,-0.1684
565,0.0,0.0,0.0,0.0,0.0,0.0,0.3050,-0.9863,0.0617,0.7473,-0.6414,-0.0360,-0.1697
566,0.0,0.0,0.0,0.0,0.0,0.0,0.3094,-0.9900,0.0694,0.7482,-0.6401,-0.0339,-0.1712
567,0.0,0.0,0.0,0.0,0.0,0.0,0.3193,-0.9467,0.0548,0.7487,-0.6392,-0.0326,-0.1727
568,0.0,0.0,0.0,0.0,0.0,0.0,0.3378,-0.8663,0.0273,0.7488,-0.6385,-0.0328,-0.1747
569,0.0,0.0,0.0,0.0,0.0,0.0,0.3455,-0.8927,0.0391,0.7482,-0.6385,-0.0346,-0.1769
570,0.0,0.0,0.0,0.0,0.0,0.0,0.3366,-0.9133,0.0457,0.7468,-0.6393,-0.0367,-0.1797
571,0.0,0.0,0.0,0.0,0.0,0.0,0.3216,-0.8802,0.0375,0.7454,-0.6399,-0.0381,-0.1831
572,0.0,0.0,0.0,0.0,0.0,0.0,0.3288,-0.8933,0.0342,0.7435,-0.6409,-0.0396,-0.1869
573,0.0,0.0,0.0,0.0,0.0,0.0,0.3268,-0.9118,0.0336,0.7416,-0.6418,-0.0410,-0.1908
574,0.0,0.0,0.0,0.0,0.0,0.0,0.3150,-0.9299,0.0378,0.7396,-0.6430,-0.0423,-0.1943
575,0.0,0.0,0.0,0.0,0.0,0.0,0.3051,-0.9590,0.0480,0.7374,-0.6445,-0.0437,-0.1975
576,0.0,0.0,0.0,0.0,0.0,0.0,0.3133,-0.9726,0.0457,0.7352,-0.6460,-0.0444,-0.2007
577,0.0,0.0,0.0,0.0,0.0,0.0,0.3172,-0.9726,0.0428,0.7336,-0.6468,-0.0445,-0.2038
578,0.0,0.0,0.0,0.0,0.0,0.0,0.3137,-0.9808,0.0425,0.7324,-0.6472,-0.0439,-0.2067
579,0.0,0.0,0.0,0.0,0.0,0.0,0.3064,-0.9800,0.0478,0.7311,-0.6481,-0.0434,-0.2089
580,0.0,0.0,0.0,0.0,0.0,0.0,0.3029,-1.0002,0.0544,0.7303,-0.6484,-0.0424,-0.2107
581,0.0,0.0,0.0,0.0,0.0,0.0,0.3019,-1.0051,0.0572,0.7303,-0.6480,-0.0404,-0.2124
582,0.0,0.0,0.0,0.0,0.0,0.0,0.3010,-1.0010,0.0646,0.7310,-0.6471,-0.0380,-0.2133
583,0.0,0.0,0.0,0.0,0.0,0.0,0.3006,-0.9972,0.0667,0.7316,-0.6464,-0.0360,-0.2136
584,0.0,0.0,0.0,0.0,0.0,0.0,0.2914,-0.9879,0.0693,0.7321,-0.6462,-0.0343,-0.2130
585,0.0,0.0,0.0,0.0,0.0,0.0,0.2822,-0.9723,0.0717,0.7328,-0.6457,-0.0323,-0.2119
586,0.0,0.0,0.0,0.0,0.0,0.0,0.2871,-0.9673,0.0802,0.7346,-0.6442,-0.0298,-0.2109
587,0.0,0.0,0.0,0.0,0.0,0.0,0.2857,-0.9675,0.0845,0.7367,-0.6423,-0.0273,-0.2095
588,0.0,0.0,0.0,0.0,0.0,0.0,0.2809,-0.9637,0.0885,0.7383,-0.6413,-0.0257,-0.2072
589,0.0,0.0,0.0,0.0,0.0,0.0,0.2804,-0.9574,0.0902,0.7399,-0.6404,-0.0244,-0.2047
590,0.0,0.0,0.0,0.0,0.0,0.0,0.2834,-0.9476,0.0895,0.7418,-0.6390,-0.0231,-0.2022
591,0.0,0.0,0.0,0.0,0.0,0.0,0.2922,-0.9466,0.0876,0.7431,-0.6383,-0.0229,-0.1996
592,0.0,0.0,0.0,0.0,0.0,0.0,0.2937,-0.9349,0.0870,0.7439,-0.6382,-0.0236,-0.1969
593,0.0,0.0,0.0,0.0,0.0,0.0,0.2771,-0.9412,0.0887,0.7452,-0.6375,-0.0236,-0.1942
594,0.0,0.0,0.0,0.0,0.0,0.0,0.2941,-0.9427,0.0873,0.7464,-0.6367,-0.0238,-0.1920
595,0.0,0.0,0.0,0.0,0.0,0.0,0.2941,-0.9476,0.0871,0.7472,-0.6364,-0.0248,-0.1898
596,0.0,0.0,0.0,0.0,0.0,0.0,0.2917,-0.9496,0.0885,0.7476,-0.6366,-0.0260,-0.1875
597,0.0,0.0,0.0,0.0,0.0,0.0,0.2942,-0.9387,0.0835,0.7479,-0.6369,-0.0273,-0.1852
598,0.0,0.0,0.0,0.0,0.0,0.0,0.2961,-0.9376,0.0782,0.7484,-0.6369,-0.0286,-0.1830
599,0.0,0.0,0.0,0.0,0.0,0.0,0.3043,-0.9539,0.0841,0.7488,-0.6369,-0.0305,-0.1808
600,0.0,0.0,0.0,0.0,0.0,0.0,0.2999,-0.9608,0.0867,0.7494,-0.6367,-0.0322,-0.1789
601,0.0,0.0,0.0,0.0,0.0,0.0,0.2975,-0.9574,0.0883,0.7503,-0.6361,-0.0333,-0.1770
602,0.0,0.0,0.0,0.0,0.0,0.0,0.2955,-0.9633,0.0891,0.7514,-0.6354,-0.0339,-0.1748
603,0.0,0.0,0.0,0.0,0.0,0.0,0.2969,-0.9717,0.0927,0.7526,-0.6345,-0.0345,-0.1724
604,0.0,0.0,0.0,0.0,0.0,0.0,0.3003,-0.9796,0.0944,0.7537,-0.6340,-0.0354,-0.1696
605,0.0,0.0,0.0,0.0,0.0,0.0,0.2921,-0.9718,0.0956,0.7544,-0.6339,-0.0367,-0.1663
606,0.0,0.0,0.0,0.0,0.0,0.0,0.2966,-0.9534,0.0986,0.7551,-0.6338,-0.0384,-0.1629
607,0.0,0.0,0.0,0.0,0.0,0.0,0.2970,-0.9588,0.0989,0.7561,-0.6335,-0.0395,-0.1597
608,0.0,0.0,0.0,0.0,0.0,0.0,0.3058,-0.9543,0.0928,0.7571,-0.6329,-0.0403,-0.1569
609,0.0,0.0,0.0,0.0,0.0,0.0,0.2888,-0.9405,0.0791,0.7575,-0.6331,-0.0421,-0.1537
610,0.0,0.0,0.0,0.0,0.0,0.0,0.2702,-0.9538,0.0868,0.7574,-0.6340,-0.0440,-0.1500
611,0.0,0.0,0.0,0.0,0.0,0.0,0.2735,-0.9820,0.0976,0.7577,-0.6343,-0.0451,-0.1463
612,0.0,0.0,0.0,0.0,0.0,0.0,0.2690,-0.9950,0.1083,0.7589,-0.6337,-0.0455,-0.1429
613,0.0,0.0,0.0,0.0,0.0,0.0,0.2593,-0.9866,0.1081,0.7600,-0.6331,-0.0455,-0.1395
614,0.0,0.0,0.0,0.0,0.0,0.0,0.2639,-0.9516,0.0951,0.7608,-0.6329,-0.0460,-0.1361
615,0.0,0.0,0.0,0.0,0.0,0.0,0.2575,-0.9602,0.1060,0.7618,-0.6324,-0.0462,-0.1328
616,0.0,0.0,0.0,0.0,0.0,0.0,0.2458,-0.9745,0.1137,0.7633,-0.6313,-0.0458,-0.1297
617,0.0,0.0,0.0,0.0,0.0,0.0,0.2369,-0.9918,0.1229,0.7652,-0.6297,-0.0442,-0.1266
618,0.0,0.0,0.0,0.0,0.0,0.0,0.2356,-0.9668,0.1188,0.7669,-0.6283,-0.0422,-0.1238
619,0.0,0.0,0.0,0.0,0.0,0.0,0.2317,-0.9590,0.1190,0.7686,-0.6269,-0.0401,-0.1212
620,0.0,0.0,0.0,0.0,0.0,0.0,0.2385,-0.9781,0.1340,0.7709,-0.6246,-0.0380,-0.1189
621,0.0,0.0,0.0,0.0,0.0,0.0,0.2161,-0.9800,0.1382,0.7729,-0.6226,-0.0358,-0.1166
622,0.0,0.0,0.0,0.0,0.0,0.0,0.2176,-0.9629,0.1354,0.7742,-0.6216,-0.0340,-0.1144
623,0.0,0.0,0.0,0.0,0.0,0.0,0.2226,-0.9576,0.1375,0.7755,-0.6204,-0.0320,-0.1127
624,0.0,0.0,0.0,0.0,0.0,0.0,0.2074,-0.9702,0.1530,0.7774,-0.6184,-0.0292,-0.1112
625,0.0,0.0,0.0,0.0,0.0,0.0,0.2030,-0.9662,0.1502,0.7786,-0.6172,-0.0266,-0.1102
626,0.0,0.0,0.0,0.0,0.0,0.0,0.1959,-0.9359,0.1376,0.7795,-0.6163,-0.0243,-0.1093
627,0.0,0.0,0.0,0.0,0.0,0.0,0.1963,-0.9553,0.1476,0.7806,-0.6151,-0.0217,-0.1087
628,0.0,0.0,0.0,0.0,0.0,0.0,0.1948,-0.9638,0.1522,0.7817,-0.6137,-0.0194,-0.1089
629,0.0,0.0,0.0,0.0,0.0,0.0,0.1817,-0.9600,0.1586,0.7827,-0.6124,-0.0171,-0.1096
630,0.0,0.0,0.0,0.0,0.0,0.0,0.1827,-0.9497,0.1584,0.7830,-0.6118,-0.0150,-0.1110
631,0.0,0.0,0.0,0.0,0.0,0.0,0.1754,-0.9413,0.1572,0.7835,-0.6110,-0.0124,-0.1127
632,0.0,0.0,0.0,0.0,0.0,0.0,0.1686,-0.9565,0.1742,0.7844,-0.6095,-0.0090,-0.1148
633,0.0,0.0,0.0,0.0,0.0,0.0,0.1709,-0.9737,0.1766,0.7851,-0.6081,-0.0058,-0.1173
634,0.0,0.0,0.0,0.0,0.0,0.0,0.1681,-0.9564,0.1713,0.7858,-0.6067,-0.0029,-0.1201
635,0.0,0.0,0.0,0.0,0.0,0.0,0.1688,-1.0134,0.1962,0.7870,-0.6048,0.0000,-0.1222
636,0.0,0.0,0.0,0.0,0.0,0.0,0.1625,-1.0071,0.1861,0.7879,-0.6030,0.0031,-0.1247
637,0.0,0.0,0.0,0.0,0.0,0.0,0.1559,-0.9344,0.1574,0.7881,-0.6027,0.0069,-0.1249
638,0.0,0.0,0.0,0.0,0.0,0.0,0.1667,-0.9287,0.1590,0.7878,-0.6027,0.0089,-0.1267
639,0.0,0.0,0.0,0.0,0.0,0.0,0.1827,-0.9441,0.1644,0.7872,-0.6031,0.0094,-0.1285
640,0.0,0.0,0.0,0.0,0.0,0.0,0.1680,-0.9683,0.1748,0.7863,-0.6039,0.0093,-0.1304
641,0.0,0.0,0.0,0.0,0.0,0.0,0.1416,-0.9576,0.1546,0.7852,-0.6047,0.0110,-0.1330
642,0.0,0.0,0.0,0.0,0.0,0.0,0.1344,-0.9339,0.1350,0.7834,-0.6065,0.0126,-0.1354
643,0.0,0.0,0.0,0.0,0.0,0.0,0.1528,-0.9726,0.1489,0.7816,-0.6083,0.0130,-0.1376
644,0.0,0.0,0.0,0.0,0.0,0.0,0.1603,-1.0217,0.1575,0.7802,-0.6096,0.0130,-0.1401
645,0.0,0.0,0.0,0.0,0.0,0.0,0.1594,-1.0126,0.1617,0.7788,-0.6108,0.0123,-0.1424
646,0.0,0.0,0.0,0.0,0.0,0.0,0.1439,-0.9928,0.1720,0.7781,-0.6113,0.0121,-0.1438
647,0.0,0.0,0.0,0.0,0.0,0.0,0.1557,-0.9691,0.1456,0.7772,-0.6122,0.0130,-0.1450
648,0.0,0.0,0.0,0.0,0.0,0.0,0.1738,-0.9500,0.1409,0.7767,-0.6124,0.0138,-0.1467
649,0.0,0.0,0.0,0.0,0.0,0.0,0.1648,-0.9952,0.1506,0.7768,-0.6119,0.0141,-0.1482
650,0.0,0.0,0.0,0.0,0.0,0.0,0.1581,-0.9624,0.1366,0.7764,-0.6121,0.0143,-0.1498
651,0.0,0.0,0.0,0.0,0.0,0.0,0.1508,-0.9675,0.1446,0.7759,-0.6124,0.0143,-0.1509
652,0.0,0.0,0.0,0.0,0.0,0.0,0.1619,-1.0012,0.1553,0.7751,-0.6130,0.0138,-0.1523
653,0.0,0.0,0.0,0.0,0.0,0.0,0.1586,-0.9656,0.1433,0.7742,-0.6138,0.0134,-0.1539
654,0.0,0.0,0.0,0.0,0.0,0.0,0.1744,-0.9390,0.1335,0.7736,-0.6143,0.0122,-0.1553
655,0.0,0.0,0.0,0.0,0.0,0.0,0.1737,-0.9656,0.1414,0.7730,-0.6147,0.0107,-0.1564
656,0.0,0.0,0.0,0.0,0.0,0.0,0.1717,-0.9818,0.1433,0.7723,-0.6154,0.0094,-0.1575
657,0.0,0.0,0.0,0.0,0.0,0.0,0.1898,-0.9713,0.1335,0.7711,-0.6165,0.0078,-0.1587
658,0.0,0.0,0.0,0.0,0.0,0.0,0.1961,-0.9713,0.1311,0.7700,-0.6178,0.0059,-0.1596
659,0.0,0.0,0.0,0.0,0.0,0.0,0.2004,-0.9815,0.1284,0.7688,-0.6190,0.0042,-0.1605
660,0.0,0.0,0.0,0.0,0.0,0.0,0.2033,-0.9789,0.1231,0.7680,-0.6198,0.0029,-0.1615
661,0.0,0.0,0.0,0.0,0.0,0.0,0.2101,-0.9833,0.1221,0.7671,-0.6206,0.0012,-0.1624
662,0.0,0.0,0.0,0.0,0.0,0.0,0.2077,-0.9891,0.1199,0.7665,-0.6212,0.0001,-0.1634
663,0.0,0.0,0.0,0.0,0.0,0.0,0.2081,-0.9933,0.1164,0.7657,-0.6220,-0.0009,-0.1638
664,0.0,0.0,0.0,0.0,0.0,0.0,0.2111,-0.9808,0.1076,0.7647,-0.6232,-0.0021,-0.1637
665,0.0,0.0,0.0,0.0,0.0,0.0,0.2160,-0.9733,0.1015,0.7642,-0.6237,-0.0029,-0.1643
666,0.0,0.0,0.0,0.0,0.0,0.0,0.2232,-0.9797,0.1004,0.7631,-0.6249,-0.0048,-0.1646
667,0.0,0.0,0.0,0.0,0.0,0.0,0.2227,-0.9835,0.0988,0.7620,-0.6263,-0.0069,-0.1645
668,0.0,0.0,0.0,0.0,0.0,0.0,0.2257,-0.9811,0.0970,0.7615,-0.6268,-0.0083,-0.1646
669,0.0,0.0,0.0,0.0,0.0,0.0,0.2296,-0.9731,0.0929,0.7611,-0.6274,-0.0099,-0.1644
670,0.0,0.0,0.0,0.0,0.0,0.0,0.2345,-0.9702,0.0901,0.7603,-0.6286,-0.0120,-0.1637
671,0.0,0.0,0.0,0.0,0.0,0.0,0.2408,-0.9658,0.0893,0.7598,-0.6292,-0.0142,-0.1632
672,0.0,0.0,0.0,0.0,0.0,0.0,0.2447,-0.9662,0.0873,0.7595,-0.6296,-0.0163,-0.1627
673,0.0,0.0,0.0,0.0,0.0,0.0,0.2506,-0.9687,0.0853,0.7588,-0.6305,-0.0189,-0.1621
674,0.0,0.0,0.0,0.0,0.0,0.0,0.2569,-0.9656,0.0801,0.7577,-0.6319,-0.0220,-0.1613
675,0.0,0.0,0.0,0.0,0.0,0.0,0.2569,-0.9661,0.0815,0.7567,-0.6332,-0.0250,-0.1607
676,0.0,0.0,0.0,0.0,0.0,0.0,0.2759,-0.9739,0.0906,0.7558,-0.6343,-0.0283,-0.1602
677,0.0,0.0,0.0,0.0,0.0,0.0,0.2628,-0.9688,0.0859,0.7553,-0.6349,-0.0311,-0.1596
678,0.0,0.0,0.0,0.0,0.0,0.0,0.2667,-0.9550,0.0824,0.7548,-0.6354,-0.0336,-0.1593
679,0.0,0.0,0.0,0.0,0.0,0.0,0.2741,-0.9511,0.0806,0.7542,-0.6361,-0.0366,-0.1590
680,0.0,0.0,0.0,0.0,0.0,0.0,0.2677,-0.9664,0.0859,0.7535,-0.6368,-0.0389,-0.1588
681,0.0,0.0,0.0,0.0,0.0,0.0,0.2715,-0.9738,0.0872,0.7528,-0.6376,-0.0408,-0.1585
682,0.0,0.0,0.0,0.0,0.0,0.0,0.2760,-0.9599,0.0813,0.7523,-0.6381,-0.0425,-0.1586
683,0.0,0.0,0.0,0.0,0.0,0.0,0.2750,-0.9638,0.0797,0.7517,-0.6386,-0.0442,-0.1584
684,0.0,0.0,0.0,0.0,0.0,0.0,0.2837,-0.9822,0.0870,0.7512,-0.6392,-0.0462,-0.1581
685,0.0,0.0,0.0,0.0,0.0,0.0,0.2782,-1.0132,0.0976,0.7510,-0.6394,-0.0472,-0.1580
686,0.0,0.0,0.0,0.0,0.0,0.0,0.2739,-0.9757,0.0852,0.7512,-0.6392,-0.0470,-0.1582
687,0.0,0.0,0.0,0.0,0.0,0.0,0.2813,-0.9747,0.0848,0.7516,-0.6386,-0.0462,-0.1585
688,0.0,0.0,0.0,0.0,0.0,0.0,0.2837,-0.9769,0.0896,0.7527,-0.6373,-0.0449,-0.1591
689,0.0,0.0,0.0,0.0,0.0,0.0,0.2837,-0.9627,0.0755,0.7539,-0.6359,-0.0437,-0.1596
690,0.0,0.0,0.0,0.0,0.0,0.0,0.2778,-0.9747,0.0852,0.7550,-0.6345,-0.0430,-0.1598
691,0.0,0.0,0.0,0.0,0.0,0.0,0.2856,-0.9690,0.0723,0.7552,-0.6343,-0.0432,-0.1597
692,0.0,0.0,0.0,0.0,0.0,0.0,0.2901,-0.9496,0.0749,0.7547,-0.6350,-0.0440,-0.1592
693,0.0,0.0,0.0,0.0,0.0,0.0,0.2750,-0.9694,0.0859,0.7549,-0.6349,-0.0440,-0.1584
694,0.0,0.0,0.0,0.0,0.0,0.0,0.4027,-0.9872,0.0902,0.7552,-0.6346,-0.0466,-0.1576
695,0.0,0.0,0.0,0.0,0.0,0.0,0.2833,-0.9664,0.0836,0.7552,-0.6349,-0.0460,-0.1566
696,0.0,0.0,0.0,0.0,0.0,0.0,0.2775,-0.9557,0.0839,0.7554,-0.6349,-0.0453,-0.1556
697,0.0,0.0,0.0,0.0,0.0,0.0,0.2755,-0.9571,0.0824,0.7555,-0.6350,-0.0449,-0.1547
698,0.0,0.0,0.0,0.0,0.0,0.0,0.2667,-0.9625,0.0856,0.7556,-0.6352,-0.0448,-0.1539
699,0.0,0.0,0.0,0.0,0.0,0.0,0.2697,-0.9586,0.0867,0.7557,-0.6352,-0.0446,-0.1533
700,0.0,0.0,0.0,0.0,0.0,0.0,0.2604,-0.9519,0.0912,0.7559,-0.6350,-0.0439,-0.1529
701,0.0,0.0,0.0,0.0,0.0,0.0,0.2531,-0.9612,0.0943,0.7562,-0.6347,-0.0428,-0.1531
702,0.0,0.0,0.0,0.0,0.0,0.0,0.2526,-0.9548,0.0921,0.7563,-0.6345,-0.0420,-0.1536
703,0.0,0.0,0.0,0.0,0.0,0.0,0.2488,-0.9459,0.0894,0.7563,-0.6345,-0.0409,-0.1541
704,0.0,0.0,0.0,0.0,0.0,0.0,0.2429,-0.9468,0.0894,0.7567,-0.6340,-0.0395,-0.1550
705,0.0,0.0,0.0,0.0,0.0,0.0,0.2302,-0.9599,0.0918,0.7572,-0.6332,-0.0377,-0.1560
706,0.0,0.0,0.0,0.0,0.0,0.0,0.2326,-0.9630,0.0937,0.7573,-0.6330,-0.0362,-0.1568
707,0.0,0.0,0.0,0.0,0.0,0.0,0.2478,-0.9538,0.0931,0.7570,-0.6331,-0.0356,-0.1578
708,0.0,0.0,0.0,0.0,0.0,0.0,0.2311,-0.9646,0.0980,0.7572,-0.6326,-0.0340,-0.1590
709,0.0,0.0,0.0,0.0,0.0,0.0,0.2257,-0.9729,0.1011,0.7577,-0.6318,-0.0322,-0.1601
710,0.0,0.0,0.0,0.0,0.0,0.0,0.2267,-0.9806,0.1110,0.7582,-0.6310,-0.0304,-0.1611
711,0.0,0.0,0.0,0.0,0.0,0.0,0.2282,-0.9668,0.1071,0.7589,-0.6300,-0.0287,-0.1621
712,0.0,0.0,0.0,0.0,0.0,0.0,0.2454,-0.9501,0.1004,0.7592,-0.6296,-0.0280,-0.1627
713,0.0,0.0,0.0,0.0,0.0,0.0,0.2571,-0.9512,0.1000,0.7590,-0.6296,-0.0282,-0.1633
714,0.0,0.0,0.0,0.0,0.0,0.0,0.2541,-0.9683,0.1028,0.7587,-0.6299,-0.0288,-0.1637
715,0.0,0.0,0.0,0.0,0.0,0.0,0.2507,-0.9569,0.0988,0.7580,-0.6306,-0.0295,-0.1639
716,0.0,0.0,0.0,0.0,0.0,0.0,0.2541,-0.9575,0.0988,0.7572,-0.6316,-0.0303,-0.1639
717,0.0,0.0,0.0,0.0,0.0,0.0,0.2750,-0.9658,0.0947,0.7563,-0.6325,-0.0316,-0.1640
718,0.0,0.0,0.0,0.0,0.0,0.0,0.2765,-0.9489,0.0851,0.7556,-0.6332,-0.0327,-0.1644
719,0.0,0.0,0.0,0.0,0.0,0.0,0.2668,-0.9393,0.0786,0.7546,-0.6342,-0.0339,-0.1648
720,0.0,0.0,0.0,0.0,0.0,0.0,0.2862,-0.9505,0.0734,0.7534,-0.6354,-0.0355,-0.1654
721,0.0,0.0,0.0,0.0,0.0,0.0,0.2871,-0.9597,0.0717,0.7528,-0.6358,-0.0364,-0.1664
722,0.0,0.0,0.0,0.0,0.0,0.0,0.2817,-0.9644,0.0676,0.7522,-0.6363,-0.0371,-0.1674
723,0.0,0.0,0.0,0.0,0.0,0.0,0.2875,-0.9712,0.0665,0.7511,-0.6374,-0.0385,-0.1679
724,0.0,0.0,0.0,0.0,0.0,0.0,0.2963,-0.9661,0.0589,0.7496,-0.6389,-0.0406,-0.1683
725,0.0,0.0,0.0,0.0,0.0,0.0,0.2919,-0.9671,0.0593,0.7482,-0.6402,-0.0426,-0.1687
726,0.0,0.0,0.0,0.0,0.0,0.0,0.2762,-0.9883,0.0688,0.7471,-0.6415,-0.0436,-0.1688
727,0.0,0.0,0.0,0.0,0.0,0.0,0.2812,-0.9680,0.0597,0.7461,-0.6426,-0.0443,-0.1688
728,0.0,0.0,0.0,0.0,0.0,0.0,0.2871,-0.9609,0.0508,0.7457,-0.6429,-0.0441,-0.1691
729,0.0,0.0,0.0,0.0,0.0,0.0,0.2821,-0.9782,0.0594,0.7455,-0.6432,-0.0438,-0.1692
730,0.0,0.0,0.0,0.0,0.0,0.0,0.2850,-0.9864,0.0699,0.7457,-0.6429,-0.0430,-0.1696
731,0.0,0.0,0.0,0.0,0.0,0.0,0.2841,-0.9836,0.0738,0.7467,-0.6416,-0.0414,-0.1704
732,0.0,0.0,0.0,0.0,0.0,0.0,0.2896,-0.9453,0.0649,0.7477,-0.6405,-0.0405,-0.1706
733,0.0,0.0,0.0,0.0,0.0,0.0,0.2848,-0.9275,0.0601,0.7482,-0.6399,-0.0402,-0.1707
734,0.0,0.0,0.0,0.0,0.0,0.0,0.2926,-0.9429,0.0635,0.7479,-0.6402,-0.0410,-0.1705
735,0.0,0.0,0.0,0.0,0.0,0.0,0.2891,-0.9532,0.0670,0.7479,-0.6402,-0.0418,-0.1704
736,0.0,0.0,0.0,0.0,0.0,0.0,0.2813,-0.9625,0.0696,0.7484,-0.6397,-0.0419,-0.1703
737,0.0,0.0,0.0,0.0,0.0,0.0,0.2871,-0.9728,0.0703,0.7484,-0.6397,-0.0422,-0.1700
738,0.0,0.0,0.0,0.0,0.0,0.0,0.2817,-0.9663,0.0680,0.7481,-0.6401,-0.0426,-0.1696
739,0.0,0.0,0.0,0.0,0.0,0.0,0.2735,-0.9504,0.0603,0.7479,-0.6405,-0.0424,-0.1692
740,0.0,0.0,0.0,0.0,0.0,0.0,0.2813,-0.9579,0.0630,0.7477,-0.6408,-0.0424,-0.1686
741,0.0,0.0,0.0,0.0,0.0,0.0,0.2915,-0.9584,0.0630,0.7471,-0.6416,-0.0435,-0.1679
742,0.0,0.0,0.0,0.0,0.0,0.0,0.2775,-0.9422,0.0620,0.7469,-0.6419,-0.0440,-0.1676
743,0.0,0.0,0.0,0.0,0.0,0.0,0.2740,-0.9554,0.0640,0.7468,-0.6421,-0.0444,-0.1671
744,0.0,0.0,0.0,0.0,0.0,0.0,0.2754,-0.9542,0.0577,0.7466,-0.6425,-0.0445,-0.1665
745,0.0,0.0,0.0,0.0,0.0,0.0,0.2857,-0.9449,0.0537,0.7463,-0.6431,-0.0448,-0.1659
746,0.0,0.0,0.0,0.0,0.0,0.0,0.2847,-0.9535,0.0500,0.7456,-0.6440,-0.0456,-0.1654
747,0.0,0.0,0.0,0.0,0.0,0.0,0.2817,-0.9579,0.0489,0.7450,-0.6446,-0.0462,-0.1650
748,0.0,0.0,0.0,0.0,0.0,0.0,0.2846,-0.9652,0.0497,0.7445,-0.6454,-0.0468,-0.1643
749,0.0,0.0,0.0,0.0,0.0,0.0,0.2850,-0.9721,0.0509,0.7437,-0.6465,-0.0479,-0.1635
750,0.0,0.0,0.0,0.0,0.0,0.0,0.2909,-0.9641,0.0449,0.7431,-0.6472,-0.0487,-0.1629
751,0.0,0.0,0.0,0.0,0.0,0.0,0.2982,-0.9611,0.0406,0.7421,-0.6484,-0.0503,-0.1624
752,0.0,0.0,0.0,0.0,0.0,0.0,0.2908,-0.9804,0.0497,0.7416,-0.6491,-0.0516,-0.1615
753,0.0,0.0,0.0,0.0,0.0,0.0,0.2825,-0.9942,0.0546,0.7419,-0.6489,-0.0516,-0.1611
754,0.0,0.0,0.0,0.0,0.0,0.0,0.2836,-0.9699,0.0442,0.7421,-0.6487,-0.0516,-0.1609
755,0.0,0.0,0.0,0.0,0.0,0.0,0.2855,-0.9646,0.0463,0.7424,-0.6485,-0.0518,-0.1602
756,0.0,0.0,0.0,0.0,0.0,0.0,0.2888,-0.9984,0.0612,0.7434,-0.6475,-0.0511,-0.1594
757,0.0,0.0,0.0,0.0,0.0,0.0,0.2917,-0.9967,0.0565,0.7448,-0.6462,-0.0502,-0.1586
758,0.0,0.0,0.0,0.0,0.0,0.0,0.2967,-0.9681,0.0457,0.7454,-0.6459,-0.0501,-0.1574
759,0.0,0.0,0.0,0.0,0.0,0.0,0.2918,-0.9806,0.0541,0.7461,-0.6454,-0.0498,-0.1561
760,0.0,0.0,0.0,0.0,0.0,0.0,0.2791,-0.9925,0.0624,0.7468,-0.6449,-0.0494,-0.1547
761,0.0,0.0,0.0,0.0,0.0,0.0,0.2714,-0.9817,0.0646,0.7477,-0.6442,-0.0484,-0.1533
762,0.0,0.0,0.0,0.0,0.0,0.0,0.2822,-0.9680,0.0597,0.7490,-0.6432,-0.0472,-0.1521
763,0.0,0.0,0.0,0.0,0.0,0.0,0.2832,-0.9608,0.0619,0.7501,-0.6421,-0.0468,-0.1510
764,0.0,0.0,0.0,0.0,0.0,0.0,0.2750,-0.9491,0.0637,0.7514,-0.6409,-0.0460,-0.1502
765,0.0,0.0,0.0,0.0,0.0,0.0,0.2794,-0.9363,0.0617,0.7526,-0.6396,-0.0455,-0.1496
766,0.0,0.0,0.0,0.0,0.0,0.0,0.2770,-0.9403,0.0650,0.7534,-0.6388,-0.0457,-0.1489
767,0.0,0.0,0.0,0.0,0.0,0.0,0.2653,-0.9389,0.0689,0.7538,-0.6384,-0.0459,-0.1483
768,0.0,0.0,0.0,0.0,0.0,0.0,0.2610,-0.9305,0.0652,0.7542,-0.6381,-0.0459,-0.1480
769,0.0,0.0,0.0,0.0,0.0,0.0,0.2771,-0.9359,0.0782,0.7547,-0.6375,-0.0462,-0.1479
770,0.0,0.0,0.0,0.0,0.0,0.0,0.2702,-0.9347,0.0714,0.7549,-0.6372,-0.0470,-0.1480
771,0.0,0.0,0.0,0.0,0.0,0.0,0.2649,-0.9267,0.0673,0.7541,-0.6380,-0.0484,-0.1482
772,0.0,0.0,0.0,0.0,0.0,0.0,0.2712,-0.9316,0.0662,0.7531,-0.6390,-0.0503,-0.1485
773,0.0,0.0,0.0,0.0,0.0,0.0,0.2677,-0.9451,0.0628,0.7519,-0.6402,-0.0524,-0.1486
774,0.0,0.0,0.0,0.0,0.0,0.0,0.2725,-0.9564,0.0640,0.7509,-0.6411,-0.0541,-0.1490
775,0.0,0.0,0.0,0.0,0.0,0.0,0.2783,-0.9554,0.0616,0.7501,-0.6417,-0.0558,-0.1497
776,0.0,0.0,0.0,0.0,0.0,0.0,0.2851,-0.9715,0.0626,0.7492,-0.6425,-0.0573,-0.1505
777,0.0,0.0,0.0,0.0,0.0,0.0,0.2841,-0.9656,0.0603,0.7479,-0.6437,-0.0589,-0.1513
778,0.0,0.0,0.0,0.0,0.0,0.0,0.2871,-0.9526,0.0510,0.7465,-0.6449,-0.0605,-0.1521
779,0.0,0.0,0.0,0.0,0.0,0.0,0.2827,-0.9578,0.0475,0.7459,-0.6454,-0.0608,-0.1529
780,0.0,0.0,0.0,0.0,0.0,0.0,0.2870,-0.9768,0.0605,0.7453,-0.6459,-0.0612,-0.1537
781,0.0,0.0,0.0,0.0,0.0,0.0,0.3007,-0.9710,0.0578,0.7451,-0.6458,-0.0606,-0.1548
782,0.0,0.0,0.0,0.0,0.0,0.0,0.2854,-0.9931,0.0527,0.7450,-0.6459,-0.0594,-0.1557
783,0.0,0.0,0.0,0.0,0.0,0.0,0.2756,-1.0059,0.0711,0.7460,-0.6449,-0.0567,-0.1564
784,0.0,0.0,0.0,0.0,0.0,0.0,0.2600,-1.0108,0.0617,0.7478,-0.6431,-0.0528,-0.1563
785,0.0,0.0,0.0,0.0,0.0,0.0,0.2522,-1.0050,0.0657,0.7492,-0.6421,-0.0490,-0.1551
786,0.0,0.0,0.0,0.0,0.0,0.0,0.2651,-0.9783,0.0642,0.7508,-0.6410,-0.0453,-0.1531
787,0.0,0.0,0.0,0.0,0.0,0.0,0.2706,-0.9417,0.0508,0.7520,-0.6404,-0.0420,-0.1505
788,0.0,0.0,0.0,0.0,0.0,0.0,0.2796,-0.8895,0.0341,0.7520,-0.6411,-0.0407,-0.1477
789,0.0,0.0,0.0,0.0,0.0,0.0,0.2933,-0.8770,0.0209,0.7510,-0.6427,-0.0417,-0.1454
790,0.0,0.0,0.0,0.0,0.0,0.0,0.2936,-0.9082,0.0204,0.7498,-0.6445,-0.0432,-0.1434
791,0.0,0.0,0.0,0.0,0.0,0.0,0.2969,-0.9211,0.0123,0.7481,-0.6466,-0.0449,-0.1422
792,0.0,0.0,0.0,0.0,0.0,0.0,0.3154,-0.9218,0.0012,0.7462,-0.6487,-0.0476,-0.1421
793,0.0,0.0,0.0,0.0,0.0,0.0,0.2966,-0.9750,0.0208,0.7444,-0.6505,-0.0505,-0.1420
794,0.0,0.0,0.0,0.0,0.0,0.0,0.2627,-1.0190,0.0314,0.7423,-0.6528,-0.0524,-0.1416
795,0.0,0.0,0.0,0.0,0.0,0.0,0.2881,-1.0130,0.0215,0.7404,-0.6549,-0.0540,-0.1415
796,0.0,0.0,0.0,0.0,0.0,0.0,0.2992,-1.0173,0.0151,0.7386,-0.6567,-0.0559,-0.1414
797,0.0,0.0,0.0,0.0,0.0,0.0,0.2823,-0.9872,0.0087,0.7369,-0.6585,-0.0579,-0.1410
798,0.0,0.0,0.0,0.0,0.0,0.0,0.2946,-0.9749,0.0169,0.7360,-0.6596,-0.0600,-0.1401
799,0.0,0.0,0.0,0.0,0.0,0.0,0.2653,-0.9979,0.0262,0.7358,-0.6600,-0.0609,-0.1391
800,0.0,0.0,0.0,0.0,0.0,0.0,0.2502,-1.0047,0.0434,0.7367,-0.6592,-0.0598,-0.1386
801,0.0,0.0,0.0,0.0,0.0,0.0,0.2552,-0.9662,0.0291,0.7373,-0.6586,-0.0592,-0.1384
802,0.0,0.0,0.0,0.0,0.0,0.0,0.2484,-0.9692,0.0329,0.7383,-0.6576,-0.0587,-0.1382
803,0.0,0.0,0.0,0.0,0.0,0.0,0.2386,-0.9820,0.0392,0.7396,-0.6562,-0.0576,-0.1382
804,0.0,0.0,0.0,0.0,0.0,0.0,0.2425,-0.9891,0.0458,0.7407,-0.6549,-0.0564,-0.1386
805,0.0,0.0,0.0,0.0,0.0,0.0,0.2494,-0.9831,0.0523,0.7417,-0.6539,-0.0552,-0.1390
806,0.0,0.0,0.0,0.0,0.0,0.0,0.2612,-0.9549,0.0392,0.7426,-0.6527,-0.0541,-0.1398
807,0.0,0.0,0.0,0.0,0.0,0.0,0.2607,-0.9519,0.0364,0.7438,-0.6513,-0.0529,-0.1407
808,0.0,0.0,0.0,0.0,0.0,0.0,0.2495,-0.9618,0.0433,0.7451,-0.6498,-0.0512,-0.1412
809,0.0,0.0,0.0,0.0,0.0,0.0,0.2426,-0.9719,0.0415,0.7457,-0.6492,-0.0498,-0.1413
810,0.0,0.0,0.0,0.0,0.0,0.0,0.2430,-0.9943,0.0529,0.7458,-0.6494,-0.0481,-0.1408
811,0.0,0.0,0.0,0.0,0.0,0.0,0.2435,-0.9863,0.0474,0.7461,-0.6493,-0.0455,-0.1402
812,0.0,0.0,0.0,0.0,0.0,0.0,0.2466,-0.9571,0.0483,0.7461,-0.6496,-0.0421,-0.1398
813,0.0,0.0,0.0,0.0,0.0,0.0,0.2676,-0.9564,0.0523,0.7467,-0.6490,-0.0397,-0.1402
814,0.0,0.0,0.0,0.0,0.0,0.0,0.2656,-0.9586,0.0469,0.7472,-0.6483,-0.0378,-0.1411
815,0.0,0.0,0.0,0.0,0.0,0.0,0.2701,-0.9386,0.0456,0.7476,-0.6477,-0.0369,-0.1423
816,0.0,0.0,0.0,0.0,0.0,0.0,0.2744,-0.9466,0.0502,0.7486,-0.6463,-0.0367,-0.1433
817,0.0,0.0,0.0,0.0,0.0,0.0,0.2523,-0.9762,0.0511,0.7497,-0.6448,-0.0360,-0.1441
818,0.0,0.0,0.0,0.0,0.0,0.0,0.2485,-0.9705,0.0547,0.7505,-0.6437,-0.0353,-0.1454
819,0.0,0.0,0.0,0.0,0.0,0.0,0.2495,-0.9609,0.0463,0.7507,-0.6432,-0.0344,-0.1469
820,0.0,0.0,0.0,0.0,0.0,0.0,0.2554,-0.9517,0.0471,0.7509,-0.6427,-0.0333,-0.1483
821,0.0,0.0,0.0,0.0,0.0,0.0,0.2646,-0.9658,0.0559,0.7507,-0.6426,-0.0328,-0.1497
822,0.0,0.0,0.0,0.0,0.0,0.0,0.2597,-0.9649,0.0602,0.7506,-0.6424,-0.0320,-0.1512
823,0.0,0.0,0.0,0.0,0.0,0.0,0.2568,-0.9620,0.0603,0.7507,-0.6419,-0.0309,-0.1531
824,0.0,0.0,0.0,0.0,0.0,0.0,0.2608,-0.9601,0.0609,0.7510,-0.6411,-0.0292,-0.1552
825,0.0,0.0,0.0,0.0,0.0,0.0,0.2598,-0.9556,0.0581,0.7515,-0.6400,-0.0271,-0.1578
826,0.0,0.0,0.0,0.0,0.0,0.0,0.2584,-0.9488,0.0598,0.7519,-0.6389,-0.0248,-0.1608
827,0.0,0.0,0.0,0.0,0.0,0.0,0.2740,-0.9512,0.0554,0.7522,-0.6377,-0.0228,-0.1641
828,0.0,0.0,0.0,0.0,0.0,0.0,0.2861,-0.9469,0.0430,0.7521,-0.6371,-0.0219,-0.1673
829,0.0,0.0,0.0,0.0,0.0,0.0,0.2896,-0.9196,0.0269,0.7504,-0.6384,-0.0238,-0.1698
830,0.0,0.0,0.0,0.0,0.0,0.0,0.2661,-0.9559,0.0528,0.7486,-0.6398,-0.0256,-0.1722
831,0.0,0.0,0.0,0.0,0.0,0.0,0.2587,-0.9761,0.0599,0.7473,-0.6405,-0.0262,-0.1750
832,0.0,0.0,0.0,0.0,0.0,0.0,0.2720,-0.9565,0.0538,0.7460,-0.6413,-0.0273,-0.1777
833,0.0,0.0,0.0,0.0,0.0,0.0,0.2861,-0.9701,0.0621,0.7446,-0.6421,-0.0296,-0.1799
834,0.0,0.0,0.0,0.0,0.0,0.0,0.2807,-0.9677,0.0515,0.7434,-0.6428,-0.0324,-0.1820
835,0.0,0.0,0.0,0.0,0.0,0.0,0.2968,-0.9528,0.0409,0.7422,-0.6435,-0.0349,-0.1838
836,0.0,0.0,0.0,0.0,0.0,0.0,0.3061,-0.9475,0.0396,0.7412,-0.6440,-0.0376,-0.1856
837,0.0,0.0,0.0,0.0,0.0,0.0,0.3129,-0.9553,0.0380,0.7394,-0.6454,-0.0403,-0.1873
838,0.0,0.0,0.0,0.0,0.0,0.0,0.3218,-0.9290,0.0374,0.7375,-0.6469,-0.0428,-0.1890
839,0.0,0.0,0.0,0.0,0.0,0.0,0.3101,-0.9353,0.0391,0.7363,-0.6476,-0.0442,-0.1911
840,0.0,0.0,0.0,0.0,0.0,0.0,0.3105,-0.9480,0.0382,0.7355,-0.6478,-0.0447,-0.1932
841,0.0,0.0,0.0,0.0,0.0,0.0,0.3169,-0.9452,0.0407,0.7347,-0.6481,-0.0456,-0.1950
842,0.0,0.0,0.0,0.0,0.0,0.0,0.3257,-0.9423,0.0404,0.7332,-0.6492,-0.0476,-0.1967
843,0.0,0.0,0.0,0.0,0.0,0.0,0.3305,-0.9392,0.0332,0.7314,-0.6506,-0.0498,-0.1983
844,0.0,0.0,0.0,0.0,0.0,0.0,0.3359,-0.9380,0.0279,0.7302,-0.6513,-0.0514,-0.1999
845,0.0,0.0,0.0,0.0,0.0,0.0,0.3432,-0.9395,0.0264,0.7290,-0.6521,-0.0529,-0.2013
846,0.0,0.0,0.0,0.0,0.0,0.0,0.3417,-0.9487,0.0252,0.7276,-0.6532,-0.0546,-0.2023
847,0.0,0.0,0.0,0.0,0.0,0.0,0.3401,-0.9574,0.0239,0.7268,-0.6537,-0.0554,-0.2032
848,0.0,0.0,0.0,0.0,0.0,0.0,0.3460,-0.9570,0.0240,0.7260,-0.6544,-0.0562,-0.2039
849,0.0,0.0,0.0,0.0,0.0,0.0,0.3533,-0.9618,0.0209,0.7255,-0.6548,-0.0568,-0.2043
850,0.0,0.0,0.0,0.0,0.0,0.0,0.3552,-0.9622,0.0161,0.7248,-0.6554,-0.0574,-0.2042
851,0.0,0.0,0.0,0.0,0.0,0.0,0.3581,-0.9635,0.0131,0.7241,-0.6563,-0.0578,-0.2040
852,0.0,0.0,0.0,0.0,0.0,0.0,0.3625,-0.9604,0.0060,0.7238,-0.6569,-0.0580,-0.2033
853,0.0,0.0,0.0,0.0,0.0,0.0,0.3649,-0.9554,0.0032,0.7232,-0.6578,-0.0583,-0.2024
854,0.0,0.0,0.0,0.0,0.0,0.0,0.3630,-0.9511,0.0043,0.7230,-0.6583,-0.0582,-0.2015
855,0.0,0.0,0.0,0.0,0.0,0.0,0.3611,-0.9520,0.0043,0.7229,-0.6586,-0.0579,-0.2007
856,0.0,0.0,0.0,0.0,0.0,0.0,0.3586,-0.9466,0.0040,0.7230,-0.6588,-0.0577,-0.1997
857,0.0,0.0,0.0,0.0,0.0,0.0,0.3523,-0.9412,0.0036,0.7230,-0.6591,-0.0576,-0.1986
858,0.0,0.0,0.0,0.0,0.0,0.0,0.3494,-0.9373,0.0037,0.7235,-0.6591,-0.0568,-0.1974
859,0.0,0.0,0.0,0.0,0.0,0.0,0.3524,-0.9403,0.0061,0.7243,-0.6585,-0.0559,-0.1964
860,0.0,0.0,0.0,0.0,0.0,0.0,0.3514,-0.9399,0.0085,0.7250,-0.6581,-0.0557,-0.1953
861,0.0,0.0,0.0,0.0,0.0,0.0,0.3436,-0.9389,0.0085,0.7251,-0.6584,-0.0560,-0.1939
862,0.0,0.0,0.0,0.0,0.0,0.0,0.3417,-0.9369,0.0086,0.7254,-0.6584,-0.0558,-0.1929
863,0.0,0.0,0.0,0.0,0.0,0.0,0.3480,-0.9341,0.0116,0.7256,-0.6585,-0.0559,-0.1918
864,0.0,0.0,0.0,0.0,0.0,0.0,0.3451,-0.9327,0.0121,0.7258,-0.6586,-0.0563,-0.1905
865,0.0,0.0,0.0,0.0,0.0,0.0,0.3397,-0.9375,0.0129,0.7260,-0.6587,-0.0564,-0.1894
866,0.0,0.0,0.0,0.0,0.0,0.0,0.3387,-0.9411,0.0162,0.7263,-0.6587,-0.0564,-0.1882
867,0.0,0.0,0.0,0.0,0.0,0.0,0.3426,-0.9431,0.0171,0.7269,-0.6584,-0.0561,-0.1870
868,0.0,0.0,0.0,0.0,0.0,0.0,0.3475,-0.9455,0.0151,0.7274,-0.6581,-0.0560,-0.1860
869,0.0,0.0,0.0,0.0,0.0,0.0,0.3431,-0.9455,0.0156,0.7278,-0.6580,-0.0560,-0.1850
870,0.0,0.0,0.0,0.0,0.0,0.0,0.3338,-0.9435,0.0180,0.7290,-0.6571,-0.0551,-0.1839
871,0.0,0.0,0.0,0.0,0.0,0.0,0.3348,-0.9501,0.0236,0.7300,-0.6564,-0.0543,-0.1826
872,0.0,0.0,0.0,0.0,0.0,0.0,0.3387,-0.9625,0.0291,0.7302,-0.6567,-0.0541,-0.1806
873,0.0,0.0,0.0,0.0,0.0,0.0,0.3308,-0.9786,0.0324,0.7313,-0.6562,-0.0531,-0.1783
874,0.0,0.0,0.0,0.0,0.0,0.0,0.3156,-0.9907,0.0320,0.7325,-0.6556,-0.0512,-0.1758
875,0.0,0.0,0.0,0.0,0.0,0.0,0.3249,-0.9779,0.0276,0.7339,-0.6550,-0.0492,-0.1730
876,0.0,0.0,0.0,0.0,0.0,0.0,0.3073,-0.9803,0.0294,0.7361,-0.6536,-0.0461,-0.1698
877,0.0,0.0,0.0,0.0,0.0,0.0,0.2926,-1.0074,0.0396,0.7388,-0.6518,-0.0424,-0.1661
878,0.0,0.0,0.0,0.0,0.0,0.0,0.2804,-1.0117,0.0409,0.7415,-0.6499,-0.0381,-0.1623
879,0.0,0.0,0.0,0.0,0.0,0.0,0.2722,-0.9890,0.0362,0.7434,-0.6491,-0.0350,-0.1579
880,0.0,0.0,0.0,0.0,0.0,0.0,0.2650,-0.9675,0.0349,0.7453,-0.6480,-0.0320,-0.1535
881,0.0,0.0,0.0,0.0,0.0,0.0,0.2415,-0.9806,0.0407,0.7480,-0.6462,-0.0288,-0.1489
882,0.0,0.0,0.0,0.0,0.0,0.0,0.2205,-0.9840,0.0435,0.7496,-0.6457,-0.0269,-0.1431
883,0.0,0.0,0.0,0.0,0.0,0.0,0.2367,-0.9768,0.0569,0.7512,-0.6452,-0.0254,-0.1374
884,0.0,0.0,0.0,0.0,0.0,0.0,0.2305,-0.9748,0.0710,0.7530,-0.6443,-0.0243,-0.1316
885,0.0,0.0,0.0,0.0,0.0,0.0,0.2065,-0.9836,0.0764,0.7541,-0.6442,-0.0227,-0.1256
886,0.0,0.0,0.0,0.0,0.0,0.0,0.2770,-0.9533,0.0854,0.7557,-0.6433,-0.0229,-0.1210
887,0.0,0.0,0.0,0.0,0.0,0.0,0.2433,-0.9558,0.0808,0.7573,-0.6421,-0.0237,-0.1166
888,0.0,0.0,0.0,0.0,0.0,0.0,0.2599,-0.9733,0.1041,0.7593,-0.6404,-0.0260,-0.1123
889,0.0,0.0,0.0,0.0,0.0,0.0,0.2281,-0.9875,0.1123,0.7617,-0.6383,-0.0280,-0.1078
890,0.0,0.0,0.0,0.0,0.0,0.0,0.2057,-0.9872,0.1224,0.7645,-0.6355,-0.0280,-0.1044
891,0.0,0.0,0.0,0.0,0.0,0.0,0.2102,-0.9728,0.1297,0.7672,-0.6326,-0.0282,-0.1018
892,0.0,0.0,0.0,0.0,0.0,0.0,0.1812,-0.9243,0.1170,0.7693,-0.6305,-0.0285,-0.0997
893,0.0,0.0,0.0,0.0,0.0,0.0,0.1920,-0.9078,0.1166,0.7711,-0.6285,-0.0286,-0.0984
894,0.0,0.0,0.0,0.0,0.0,0.0,0.2017,-0.9209,0.1255,0.7729,-0.6263,-0.0286,-0.0977
895,0.0,0.0,0.0,0.0,0.0,0.0,0.1979,-0.9288,0.1427,0.7750,-0.6236,-0.0285,-0.0983
896,0.0,0.0,0.0,0.0,0.0,0.0,0.1684,-0.9881,0.1717,0.7772,-0.6208,-0.0272,-0.0995
897,0.0,0.0,0.0,0.0,0.0,0.0,0.1619,-1.0151,0.1893,0.7798,-0.6173,-0.0241,-0.1013
898,0.0,0.0,0.0,0.0,0.0,0.0,0.1641,-0.9705,0.1844,0.7829,-0.6133,-0.0203,-0.1030
899,0.0,0.0,0.0,0.0,0.0,0.0,0.1696,-0.9450,0.1794,0.7857,-0.6096,-0.0167,-0.1043
900,0.0,0.0,0.0,0.0,0.0,0.0,0.1960,-0.9318,0.1591,0.7876,-0.6069,-0.0145,-0.1056
901,0.0,0.0,0.0,0.0,0.0,0.0,0.1863,-0.9321,0.1692,0.7891,-0.6049,-0.0130,-0.1066
902,0.0,0.0,0.0,0.0,0.0,0.0,0.1846,-0.9875,0.1912,0.7900,-0.6036,-0.0118,-0.1073
903,0.0,0.0,0.0,0.0,0.0,0.0,0.1689,-0.9948,0.1938,0.7908,-0.6024,-0.0099,-0.1081
904,0.0,0.0,0.0,0.0,0.0,0.0,0.1617,-0.9632,0.1851,0.7915,-0.6013,-0.0072,-0.1090
905,0.0,0.0,0.0,0.0,0.0,0.0,0.1569,-0.9595,0.1794,0.7916,-0.6011,-0.0050,-0.1096
906,0.0,0.0,0.0,0.0,0.0,0.0,0.1558,-0.9784,0.1875,0.7916,-0.6010,-0.0033,-0.1101
907,0.0,0.0,0.0,0.0,0.0,0.0,0.1465,-0.9939,0.2006,0.7916,-0.6009,-0.0020,-0.1105
908,0.0,0.0,0.0,0.0,0.0,0.0,0.1388,-0.9832,0.2048,0.7913,-0.6012,-0.0006,-0.1112
909,0.0,0.0,0.0,0.0,0.0,0.0,0.1506,-0.9758,0.2118,0.7913,-0.6010,0.0011,-0.1121
910,0.0,0.0,0.0,0.0,0.0,0.0,0.1589,-0.9657,0.2015,0.7913,-0.6009,0.0023,-0.1133
911,0.0,0.0,0.0,0.0,0.0,0.0,0.1356,-0.9219,0.1674,0.7906,-0.6013,0.0038,-0.1152
912,0.0,0.0,0.0,0.0,0.0,0.0,0.1142,-0.8960,0.1574,0.7901,-0.6016,0.0065,-0.1174
913,0.0,0.0,0.0,0.0,0.0,0.0,0.1233,-0.9286,0.1661,0.7899,-0.6014,0.0085,-0.1195
914,0.0,0.0,0.0,0.0,0.0,0.0,0.1125,-0.9526,0.1721,0.7892,-0.6019,0.0094,-0.1218
915,0.0,0.0,0.0,0.0,0.0,0.0,0.1086,-0.9566,0.1759,0.7882,-0.6026,0.0102,-0.1246
916,0.0,0.0,0.0,0.0,0.0,0.0,0.1242,-0.9582,0.1759,0.7870,-0.6036,0.0096,-0.1275
917,0.0,0.0,0.0,0.0,0.0,0.0,0.1075,-0.9677,0.1745,0.7854,-0.6051,0.0091,-0.1305
918,0.0,0.0,0.0,0.0,0.0,0.0,0.1384,-0.9260,0.1600,0.7840,-0.6060,0.0089,-0.1344
919,0.0,0.0,0.0,0.0,0.0,0.0,0.1642,-0.9367,0.1525,0.7821,-0.6075,0.0072,-0.1383
920,0.0,0.0,0.0,0.0,0.0,0.0,0.1684,-0.9721,0.1582,0.7797,-0.6098,0.0053,-0.1420
921,0.0,0.0,0.0,0.0,0.0,0.0,0.1733,-0.9646,0.1526,0.7777,-0.6114,0.0044,-0.1462
922,0.0,0.0,0.0,0.0,0.0,0.0,0.1859,-0.9892,0.1577,0.7763,-0.6123,0.0041,-0.1499
923,0.0,0.0,0.0,0.0,0.0,0.0,0.1979,-1.0037,0.1505,0.7743,-0.6141,0.0031,-0.1531
924,0.0,0.0,0.0,0.0,0.0,0.0,0.1994,-1.0025,0.1428,0.7718,-0.6164,0.0024,-0.1560
925,0.0,0.0,0.0,0.0,0.0,0.0,0.2042,-1.0121,0.1376,0.7701,-0.6179,0.0030,-0.1589
926,0.0,0.0,0.0,0.0,0.0,0.0,0.2120,-1.0114,0.1289,0.7687,-0.6189,0.0046,-0.1616
927,0.0,0.0,0.0,0.0,0.0,0.0,0.2149,-0.9989,0.1206,0.7674,-0.6198,0.0061,-0.1642
928,0.0,0.0,0.0,0.0,0.0,0.0,0.2183,-0.9987,0.1158,0.7662,-0.6207,0.0075,-0.1664
929,0.0,0.0,0.0,0.0,0.0,0.0,0.2115,-0.9956,0.1105,0.7652,-0.6213,0.0092,-0.1684
930,0.0,0.0,0.0,0.0,0.0,0.0,0.2081,-0.9965,0.1090,0.7645,-0.6215,0.0118,-0.1706
931,0.0,0.0,0.0,0.0,0.0,0.0,0.2129,-0.9945,0.1067,0.7640,-0.6215,0.0144,-0.1727
932,0.0,0.0,0.0,0.0,0.0,0.0,0.2139,-0.9880,0.1030,0.7632,-0.6219,0.0162,-0.1746
933,0.0,0.0,0.0,0.0,0.0,0.0,0.2173,-0.9909,0.1020,0.7623,-0.6224,0.0178,-0.1768
934,0.0,0.0,0.0,0.0,0.0,0.0,0.2154,-0.9829,0.0973,0.7615,-0.6226,0.0196,-0.1792
935,0.0,0.0,0.0,0.0,0.0,0.0,0.2178,-0.9915,0.1039,0.7609,-0.6225,0.0219,-0.1819
936,0.0,0.0,0.0,0.0,0.0,0.0,0.2188,-0.9909,0.1020,0.7605,-0.6219,0.0246,-0.1848
937,0.0,0.0,0.0,0.0,0.0,0.0,0.2022,-0.9954,0.1081,0.7604,-0.6211,0.0277,-0.1878
938,0.0,0.0,0.0,0.0,0.0,0.0,0.2062,-0.9786,0.1008,0.7597,-0.6210,0.0304,-0.1908
939,0.0,0.0,0.0,0.0,0.0,0.0,0.2078,-0.9383,0.0924,0.7591,-0.6204,0.0332,-0.1944
940,0.0,0.0,0.0,0.0,0.0,0.0,0.2161,-0.9508,0.0988,0.7587,-0.6196,0.0352,-0.1981
941,0.0,0.0,0.0,0.0,0.0,0.0,0.2092,-0.9683,0.0992,0.7578,-0.6195,0.0364,-0.2016
942,0.0,0.0,0.0,0.0,0.0,0.0,0.2068,-0.9521,0.0963,0.7566,-0.6198,0.0375,-0.2049
943,0.0,0.0,0.0,0.0,0.0,0.0,0.2136,-0.9435,0.0850,0.7555,-0.6199,0.0383,-0.2085
944,0.0,0.0,0.0,0.0,0.0,0.0,0.2229,-0.9460,0.0869,0.7543,-0.6204,0.0379,-0.2117
945,0.0,0.0,0.0,0.0,0.0,0.0,0.2234,-0.9545,0.0920,0.7529,-0.6211,0.0365,-0.2145
946,0.0,0.0,0.0,0.0,0.0,0.0,0.2223,-0.9622,0.0874,0.7517,-0.6216,0.0356,-0.2175
947,0.0,0.0,0.0,0.0,0.0,0.0,0.2253,-0.9443,0.0782,0.7497,-0.6232,0.0338,-0.2200
948,0.0,0.0,0.0,0.0,0.0,0.0,0.2263,-0.9447,0.0763,0.7479,-0.6247,0.0317,-0.2221
949,0.0,0.0,0.0,0.0,0.0,0.0,0.2272,-0.9626,0.0859,0.7464,-0.6263,0.0286,-0.2234
950,0.0,0.0,0.0,0.0,0.0,0.0,0.2212,-0.9983,0.1037,0.7454,-0.6273,0.0255,-0.2239
951,0.0,0.0,0.0,0.0,0.0,0.0,0.2249,-1.0348,0.1142,0.7449,-0.6282,0.0225,-0.2235
952,0.0,0.0,0.0,0.0,0.0,0.0,0.2333,-1.0077,0.1034,0.7444,-0.6294,0.0193,-0.2222
953,0.0,0.0,0.0,0.0,0.0,0.0,0.2515,-0.9822,0.0941,0.7444,-0.6302,0.0161,-0.2201
954,0.0,0.0,0.0,0.0,0.0,0.0,0.2647,-0.9751,0.0861,0.7446,-0.6311,0.0124,-0.2171
955,0.0,0.0,0.0,0.0,0.0,0.0,0.2677,-0.9674,0.0874,0.7448,-0.6320,0.0087,-0.2137
956,0.0,0.0,0.0,0.0,0.0,0.0,0.2789,-0.9612,0.0876,0.7449,-0.6333,0.0045,-0.2098
957,0.0,0.0,0.0,0.0,0.0,0.0,0.2804,-0.9573,0.0877,0.7449,-0.6346,-0.0000,-0.2058
958,0.0,0.0,0.0,0.0,0.0,0.0,0.2877,-0.9604,0.0925,0.7453,-0.6355,-0.0047,-0.2016
959,0.0,0.0,0.0,0.0,0.0,0.0,0.2955,-0.9625,0.0930,0.7457,-0.6364,-0.0095,-0.1974
960,0.0,0.0,0.0,0.0,0.0,0.0,0.3024,-0.9522,0.0894,0.7459,-0.6373,-0.0145,-0.1932
961,0.0,0.0,0.0,0.0,0.0,0.0,0.3087,-0.9537,0.0894,0.7462,-0.6380,-0.0194,-0.1892
962,0.0,0.0,0.0,0.0,0.0,0.0,0.3155,-0.9662,0.0968,0.7465,-0.6386,-0.0244,-0.1853
963,0.0,0.0,0.0,0.0,0.0,0.0,0.3159,-0.9764,0.0955,0.7470,-0.6389,-0.0283,-0.1819
964,0.0,0.0,0.0,0.0,0.0,0.0,0.3199,-0.9679,0.0895,0.7473,-0.6391,-0.0318,-0.1791
965,0.0,0.0,0.0,0.0,0.0,0.0,0.3184,-0.9625,0.0877,0.7477,-0.6392,-0.0348,-0.1765
966,0.0,0.0,0.0,0.0,0.0,0.0,0.3228,-0.9610,0.0873,0.7483,-0.6389,-0.0371,-0.1745
967,0.0,0.0,0.0,0.0,0.0,0.0,0.3229,-0.9496,0.0828,0.7482,-0.6394,-0.0398,-0.1727
968,0.0,0.0,0.0,0.0,0.0,0.0,0.3107,-0.9502,0.0881,0.7484,-0.6393,-0.0414,-0.1715
969,0.0,0.0,0.0,0.0,0.0,0.0,0.3126,-0.9581,0.0898,0.7489,-0.6389,-0.0424,-0.1706
970,0.0,0.0,0.0,0.0,0.0,0.0,0.3068,-0.9522,0.0899,0.7492,-0.6386,-0.0429,-0.1702
971,0.0,0.0,0.0,0.0,0.0,0.0,0.2995,-0.9448,0.0882,0.7497,-0.6381,-0.0426,-0.1700
972,0.0,0.0,0.0,0.0,0.0,0.0,0.3000,-0.9447,0.0848,0.7503,-0.6375,-0.0420,-0.1699
973,0.0,0.0,0.0,0.0,0.0,0.0,0.2917,-0.9490,0.0851,0.7503,-0.6375,-0.0417,-0.1699
974,0.0,0.0,0.0,0.0,0.0,0.0,0.2838,-0.9499,0.0841,0.7504,-0.6373,-0.0407,-0.1704
975,0.0,0.0,0.0,0.0,0.0,0.0,0.2848,-0.9498,0.0827,0.7507,-0.6369,-0.0396,-0.1710
976,0.0,0.0,0.0,0.0,0.0,0.0,0.2848,-0.9513,0.0826,0.7505,-0.6370,-0.0389,-0.1714
977,0.0,0.0,0.0,0.0,0.0,0.0,0.2799,-0.9521,0.0782,0.7501,-0.6375,-0.0384,-0.1717
978,0.0,0.0,0.0,0.0,0.0,0.0,0.2774,-0.9580,0.0804,0.7497,-0.6379,-0.0379,-0.1721
979,0.0,0.0,0.0,0.0,0.0,0.0,0.2779,-0.9644,0.0822,0.7495,-0.6381,-0.0371,-0.1725
980,0.0,0.0,0.0,0.0,0.0,0.0,0.2760,-0.9624,0.0822,0.7493,-0.6382,-0.0363,-0.1729
981,0.0,0.0,0.0,0.0,0.0,0.0,0.2720,-0.9643,0.0817,0.7496,-0.6377,-0.0348,-0.1736
982,0.0,0.0,0.0,0.0,0.0,0.0,0.2730,-0.9643,0.0807,0.7496,-0.6377,-0.0338,-0.1741
983,0.0,0.0,0.0,0.0,0.0,0.0,0.2667,-0.9607,0.0784,0.7492,-0.6381,-0.0329,-0.1744
984,0.0,0.0,0.0,0.0,0.0,0.0,0.2652,-0.9647,0.0816,0.7495,-0.6377,-0.0316,-0.1749
985,0.0,0.0,0.0,0.0,0.0,0.0,0.2657,-0.9687,0.0820,0.7495,-0.6377,-0.0308,-0.1750
986,0.0,0.0,0.0,0.0,0.0,0.0,0.2613,-0.9637,0.0816,0.7493,-0.6380,-0.0302,-0.1752
987,0.0,0.0,0.0,0.0,0.0,0.0,0.2584,-0.9623,0.0831,0.7491,-0.6381,-0.0297,-0.1754
988,0.0,0.0,0.0,0.0,0.0,0.0,0.2564,-0.9623,0.0821,0.7489,-0.6383,-0.0293,-0.1755
989,0.0,0.0,0.0,0.0,0.0,0.0,0.2507,-0.9515,0.0820,0.7489,-0.6384,-0.0288,-0.1753
990,0.0,0.0,0.0,0.0,0.0,0.0,0.2477,-0.9564,0.0842,0.7489,-0.6385,-0.0283,-0.1751
991,0.0,0.0,0.0,0.0,0.0,0.0,0.2418,-0.9618,0.0860,0.7489,-0.6386,-0.0276,-0.1748
992,0.0,0.0,0.0,0.0,0.0,0.0,0.2379,-0.9623,0.0874,0.7489,-0.6388,-0.0269,-0.1746
993,0.0,0.0,0.0,0.0,0.0,0.0,0.2350,-0.9713,0.0944,0.7485,-0.6394,-0.0264,-0.1740
994,0.0,0.0,0.0,0.0,0.0,0.0,0.2291,-0.9798,0.1023,0.7485,-0.6396,-0.0256,-0.1731
995,0.0,0.0,0.0,0.0,0.0,0.0,0.2329,-0.9916,0.1039,0.7487,-0.6398,-0.0249,-0.1720
996,0.0,0.0,0.0,0.0,0.0,0.0,0.2427,-0.9838,0.1003,0.7486,-0.6402,-0.0247,-0.1708
997,0.0,0.0,0.0,0.0,0.0,0.0,0.2604,-0.9590,0.0871,0.7490,-0.6399,-0.0247,-0.1703
998,0.0,0.0,0.0,0.0,0.0,0.0,0.2800,-0.9398,0.0757,0.7494,-0.6393,-0.0258,-0.1704
999,0.0,0.0,0.0,0.0,0.0,0.0,0.2824,-0.9346,0.0661,0.7488,-0.6398,-0.0276,-0.1708
1000,0.0,0.0,0.0,0.0,0.0,0.0,0.2985,-0.9355,0.0618,0.7482,-0.6402,-0.0297,-0.1718
1001,0.0,0.0,0.0,0.0,0.0,0.0,0.3037,-0.9501,0.0580,0.7476,-0.6403,-0.0314,-0.1733
1002,0.0,0.0,0.0,0.0,0.0,0.0,0.3007,-0.9567,0.0544,0.7471,-0.6404,-0.0324,-0.1750
1003,0.0,0.0,0.0,0.0,0.0,0.0,0.3007,-0.9609,0.0489,0.7460,-0.6413,-0.0338,-0.1765
1004,0.0,0.0,0.0,0.0,0.0,0.0,0.2992,-0.9668,0.0502,0.7447,-0.6423,-0.0352,-0.1781
1005,0.0,0.0,0.0,0.0,0.0,0.0,0.2977,-0.9757,0.0533,0.7439,-0.6427,-0.0360,-0.1794
1006,0.0,0.0,0.0,0.0,0.0,0.0,0.2982,-0.9816,0.0540,0.7433,-0.6432,-0.0368,-0.1802
1007,0.0,0.0,0.0,0.0,0.0,0.0,0.2943,-0.9777,0.0561,0.7432,-0.6432,-0.0369,-0.1805
1008,0.0,0.0,0.0,0.0,0.0,0.0,0.2938,-0.9743,0.0567,0.7429,-0.6436,-0.0375,-0.1802
1009,0.0,0.0,0.0,0.0,0.0,0.0,0.2944,-0.9647,0.0589,0.7428,-0.6439,-0.0382,-0.1795
1010,0.0,0.0,0.0,0.0,0.0,0.0,0.2974,-0.9535,0.0598,0.7435,-0.6433,-0.0381,-0.1787
1011,0.0,0.0,0.0,0.0,0.0,0.0,0.3008,-0.9481,0.0575,0.7435,-0.6435,-0.0389,-0.1774
1012,0.0,0.0,0.0,0.0,0.0,0.0,0.3023,-0.9467,0.0600,0.7434,-0.6440,-0.0399,-0.1761
1013,0.0,0.0,0.0,0.0,0.0,0.0,0.3003,-0.9520,0.0589,0.7437,-0.6440,-0.0405,-0.1750
1014,0.0,0.0,0.0,0.0,0.0,0.0,0.2984,-0.9427,0.0567,0.7436,-0.6442,-0.0415,-0.1740
1015,0.0,0.0,0.0,0.0,0.0,0.0,0.2959,-0.9450,0.0557,0.7433,-0.6448,-0.0427,-0.1728
1016,0.0,0.0,0.0,0.0,0.0,0.0,0.2901,-0.9503,0.0550,0.7430,-0.6454,-0.0434,-0.1716
1017,0.0,0.0,0.0,0.0,0.0,0.0,0.2876,-0.9513,0.0554,0.7430,-0.6457,-0.0436,-0.1706
1018,0.0,0.0,0.0,0.0,0.0,0.0,0.2881,-0.9582,0.0567,0.7431,-0.6458,-0.0437,-0.1699
1019,0.0,0.0,0.0,0.0,0.0,0.0,0.2861,-0.9680,0.0583,0.7432,-0.6458,-0.0436,-0.1691
1020,0.0,0.0,0.0,0.0,0.0,0.0,0.2812,-0.9754,0.0610,0.7434,-0.6458,-0.0435,-0.1683
1021,0.0,0.0,0.0,0.0,0.0,0.0,0.2777,-0.9813,0.0651,0.7438,-0.6457,-0.0433,-0.1675
1022,0.0,0.0,0.0,0.0,0.0,0.0,0.2787,-0.9878,0.0683,0.7440,-0.6456,-0.0434,-0.1665
1023,0.0,0.0,0.0,0.0,0.0,0.0,0.2762,-0.9869,0.0708,0.7442,-0.6456,-0.0437,-0.1654
1024,0.0,0.0,0.0,0.0,0.0,0.0,0.2753,-0.9776,0.0706,0.7451,-0.6450,-0.0434,-0.1644
1025,0.0,0.0,0.0,0.0,0.0,0.0,0.2715,-0.9684,0.0723,0.7464,-0.6437,-0.0426,-0.1638
1026,0.0,0.0,0.0,0.0,0.0,0.0,0.2705,-0.9679,0.0743,0.7474,-0.6427,-0.0419,-0.1631
1027,0.0,0.0,0.0,0.0,0.0,0.0,0.2701,-0.9621,0.0759,0.7480,-0.6422,-0.0420,-0.1625
1028,0.0,0.0,0.0,0.0,0.0,0.0,0.2667,-0.9514,0.0777,0.7483,-0.6420,-0.0421,-0.1618
1029,0.0,0.0,0.0,0.0,0.0,0.0,0.2648,-0.9496,0.0802,0.7489,-0.6415,-0.0419,-0.1611
1030,0.0,0.0,0.0,0.0,0.0,0.0,0.2682,-0.9535,0.0805,0.7495,-0.6408,-0.0417,-0.1606
1031,0.0,0.0,0.0,0.0,0.0,0.0,0.2701,-0.9559,0.0790,0.7500,-0.6403,-0.0413,-0.1603
1032,0.0,0.0,0.0,0.0,0.0,0.0,0.2706,-0.9525,0.0781,0.7503,-0.6402,-0.0415,-0.1597
1033,0.0,0.0,0.0,0.0,0.0,0.0,0.2731,-0.9441,0.0755,0.7501,-0.6404,-0.0420,-0.1595
1034,0.0,0.0,0.0,0.0,0.0,0.0,0.2765,-0.9455,0.0735,0.7502,-0.6403,-0.0424,-0.1593
1035,0.0,0.0,0.0,0.0,0.0,0.0,0.2780,-0.9469,0.0711,0.7500,-0.6405,-0.0431,-0.1591
1036,0.0,0.0,0.0,0.0,0.0,0.0,0.2804,-0.9488,0.0696,0.7496,-0.6409,-0.0443,-0.1592
1037,0.0,0.0,0.0,0.0,0.0,0.0,0.2818,-0.9592,0.0717,0.7499,-0.6405,-0.0447,-0.1594
1038,0.0,0.0,0.0,0.0,0.0,0.0,0.2842,-0.9626,0.0706,0.7501,-0.6402,-0.0452,-0.1596
1039,0.0,0.0,0.0,0.0,0.0,0.0,0.2807,-0.9707,0.0684,0.7498,-0.6404,-0.0457,-0.1598
1040,0.0,0.0,0.0,0.0,0.0,0.0,0.2891,-0.9650,0.0701,0.7499,-0.6403,-0.0460,-0.1602
