,Position_X,Position_Y,Position_Z,Velocity_X,Velocity_Y,Velocity_Z,Acceleration_X,Acceleration_Y,Acceleration_Z,Quaterion_0,Quaterion_1,Quaterion_2,Quaterion_3
51,0.0,0.0,0.0,0.0,0.0,0.0,-0.1344,0.9957,-0.0095,0.4176,0.5254,-0.5529,-0.4939
52,0.0,0.0,0.0,0.0,0.0,0.0,-0.1324,0.9898,-0.0110,0.4175,0.5241,-0.5526,-0.4956
53,0.0,0.0,0.0,0.0,0.0,0.0,-0.1320,0.9879,-0.0091,0.4178,0.5232,-0.5518,-0.4973
54,0.0,0.0,0.0,0.0,0.0,0.0,-0.1339,0.9811,-0.0076,0.4185,0.5224,-0.5507,-0.4987
55,0.0,0.0,0.0,0.0,0.0,0.0,-0.1309,0.9684,-0.0131,0.4194,0.5222,-0.5497,-0.4993
56,0.0,0.0,0.0,0.0,0.0,0.0,-0.1368,0.9674,-0.0111,0.4200,0.5219,-0.5490,-0.4999
57,0.0,0.0,0.0,0.0,0.0,0.0,-0.1485,0.9757,-0.0071,0.4201,0.5215,-0.5485,-0.5006
58,0.0,0.0,0.0,0.0,0.0,0.0,-0.1534,0.9772,-0.0090,0.4206,0.5211,-0.5479,-0.5013
59,0.0,0.0,0.0,0.0,0.0,0.0,-0.1553,0.9645,-0.0148,0.4206,0.5211,-0.5476,-0.5017
60,0.0,0.0,0.0,0.0,0.0,0.0,-0.1538,0.9669,-0.0231,0.4207,0.5213,-0.5473,-0.5017
61,0.0,0.0,0.0,0.0,0.0,0.0,-0.1122,0.9179,-0.0485,0.4203,0.5213,-0.5481,-0.5012
62,0.0,0.0,0.0,0.0,0.0,0.0,-0.1157,0.9560,-0.0424,0.4202,0.5205,-0.5498,-0.5002
63,0.0,0.0,0.0,0.0,0.0,0.0,-0.2100,1.0257,0.0137,0.4190,0.5202,-0.5505,-0.5008
64,0.0,0.0,0.0,0.0,0.0,0.0,-0.1529,0.9957,-0.0151,0.4194,0.5196,-0.5506,-0.5010
65,0.0,0.0,0.0,0.0,0.0,0.0,-0.1392,0.9907,-0.0250,0.4201,0.5193,-0.5503,-0.5010
66,0.0,0.0,0.0,0.0,0.0,0.0,-0.1524,1.0045,-0.0039,0.4195,0.5194,-0.5509,-0.5007
67,0.0,0.0,0.0,0.0,0.0,0.0,-0.1359,0.9942,-0.0090,0.4196,0.5188,-0.5510,-0.5012
68,0.0,0.0,0.0,0.0,0.0,0.0,-0.1144,0.9932,-0.0126,0.4199,0.5185,-0.5515,-0.5007
69,0.0,0.0,0.0,0.0,0.0,0.0,-0.1315,0.9869,-0.0134,0.4197,0.5184,-0.5519,-0.5005
70,0.0,0.0,0.0,0.0,0.0,0.0,-0.1533,0.9874,-0.0157,0.4198,0.5188,-0.5513,-0.5006
71,0.0,0.0,0.0,0.0,0.0,0.0,-0.1465,0.9844,-0.0206,0.4204,0.5196,-0.5502,-0.5005
72,0.0,0.0,0.0,0.0,0.0,0.0,-0.1464,0.9624,-0.0343,0.4202,0.5205,-0.5498,-0.5002
73,0.0,0.0,0.0,0.0,0.0,0.0,-0.1591,0.9653,-0.0371,0.4197,0.5214,-0.5495,-0.5001
74,0.0,0.0,0.0,0.0,0.0,0.0,-0.1581,0.9702,-0.0371,0.4192,0.5221,-0.5493,-0.5000
75,0.0,0.0,0.0,0.0,0.0,0.0,-0.1488,0.9608,-0.0474,0.4188,0.5232,-0.5497,-0.4987
76,0.0,0.0,0.0,0.0,0.0,0.0,-0.1635,0.9872,-0.0354,0.4183,0.5240,-0.5502,-0.4977
77,0.0,0.0,0.0,0.0,0.0,0.0,-0.1762,1.0049,-0.0212,0.4182,0.5247,-0.5506,-0.4967
78,0.0,0.0,0.0,0.0,0.0,0.0,-0.1786,0.9980,-0.0284,0.4185,0.5253,-0.5503,-0.4961
79,0.0,0.0,0.0,0.0,0.0,0.0,-0.1781,0.9956,-0.0241,0.4187,0.5256,-0.5497,-0.4963
80,0.0,0.0,0.0,0.0,0.0,0.0,-0.1738,0.9942,-0.0251,0.4185,0.5256,-0.5495,-0.4966
81,0.0,0.0,0.0,0.0,0.0,0.0,-0.1733,0.9898,-0.0271,0.4182,0.5255,-0.5492,-0.4974
82,0.0,0.0,0.0,0.0,0.0,0.0,-0.1718,0.9868,-0.0257,0.4177,0.5255,-0.5487,-0.4982
83,0.0,0.0,0.0,0.0,0.0,0.0,-0.1728,0.9761,-0.0253,0.4172,0.5258,-0.5482,-0.4989
84,0.0,0.0,0.0,0.0,0.0,0.0,-0.1732,0.9708,-0.0258,0.4170,0.5261,-0.5475,-0.4995
85,0.0,0.0,0.0,0.0,0.0,0.0,-0.1669,0.9800,-0.0224,0.4168,0.5262,-0.5469,-0.5003
86,0.0,0.0,0.0,0.0,0.0,0.0,-0.1664,0.9761,-0.0229,0.4163,0.5262,-0.5468,-0.5008
87,0.0,0.0,0.0,0.0,0.0,0.0,-0.1674,0.9649,-0.0259,0.4159,0.5261,-0.5467,-0.5014
88,0.0,0.0,0.0,0.0,0.0,0.0,-0.1611,0.9683,-0.0244,0.4156,0.5259,-0.5467,-0.5019
89,0.0,0.0,0.0,0.0,0.0,0.0,-0.1640,0.9727,-0.0234,0.4155,0.5259,-0.5467,-0.5020
90,0.0,0.0,0.0,0.0,0.0,0.0,-0.1659,0.9693,-0.0254,0.4156,0.5259,-0.5465,-0.5020
91,0.0,0.0,0.0,0.0,0.0,0.0,-0.1660,0.9781,-0.0200,0.4158,0.5260,-0.5465,-0.5018
92,0.0,0.0,0.0,0.0,0.0,0.0,-0.1679,0.9840,-0.0160,0.4156,0.5258,-0.5470,-0.5016
93,0.0,0.0,0.0,0.0,0.0,0.0,-0.1713,0.9815,-0.0223,0.4155,0.5256,-0.5473,-0.5016
94,0.0,0.0,0.0,0.0,0.0,0.0,-0.1458,0.9452,-0.0514,0.4150,0.5255,-0.5480,-0.5013
95,0.0,0.0,0.0,0.0,0.0,0.0,-0.0951,0.9236,-0.0665,0.4147,0.5246,-0.5501,-0.5002
96,0.0,0.0,0.0,0.0,0.0,0.0,-0.2220,1.0376,-0.0181,0.4151,0.5250,-0.5498,-0.4998
97,0.0,0.0,0.0,0.0,0.0,0.0,-0.1836,1.0094,-0.0012,0.4145,0.5250,-0.5505,-0.4995
98,0.0,0.0,0.0,0.0,0.0,0.0,-0.1318,0.9895,-0.0498,0.4161,0.5246,-0.5501,-0.4990
99,0.0,0.0,0.0,0.0,0.0,0.0,-0.1627,1.0123,-0.0091,0.4153,0.5245,-0.5513,-0.4985
100,0.0,0.0,0.0,0.0,0.0,0.0,-0.1719,1.0103,-0.0100,0.4150,0.5237,-0.5515,-0.4993
101,0.0,0.0,0.0,0.0,0.0,0.0,-0.1543,0.9917,-0.0219,0.4159,0.5236,-0.5504,-0.5000
102,0.0,0.0,0.0,0.0,0.0,0.0,-0.1426,0.9834,-0.0201,0.4167,0.5237,-0.5495,-0.5002
103,0.0,0.0,0.0,0.0,0.0,0.0,-0.1615,0.9737,-0.0268,0.4171,0.5236,-0.5485,-0.5010
104,0.0,0.0,0.0,0.0,0.0,0.0,-0.1698,0.9624,-0.0326,0.4169,0.5241,-0.5475,-0.5017
105,0.0,0.0,0.0,0.0,0.0,0.0,-0.1522,0.9526,-0.0363,0.4168,0.5243,-0.5475,-0.5017
106,0.0,0.0,0.0,0.0,0.0,0.0,-0.1493,0.9590,-0.0382,0.4162,0.5239,-0.5482,-0.5018
107,0.0,0.0,0.0,0.0,0.0,0.0,-0.1757,0.9727,-0.0286,0.4150,0.5237,-0.5493,-0.5018
108,0.0,0.0,0.0,0.0,0.0,0.0,-0.1796,0.9869,-0.0198,0.4149,0.5236,-0.5496,-0.5016
109,0.0,0.0,0.0,0.0,0.0,0.0,-0.1694,0.9922,-0.0189,0.4156,0.5237,-0.5496,-0.5010
110,0.0,0.0,0.0,0.0,0.0,0.0,-0.1708,0.9844,-0.0209,0.4161,0.5239,-0.5495,-0.5005
111,0.0,0.0,0.0,0.0,0.0,0.0,-0.1752,0.9835,-0.0174,0.4161,0.5238,-0.5494,-0.5006
112,0.0,0.0,0.0,0.0,0.0,0.0,-0.1684,0.9849,-0.0180,0.4156,0.5235,-0.5499,-0.5008
113,0.0,0.0,0.0,0.0,0.0,0.0,-0.1606,0.9791,-0.0215,0.4149,0.5228,-0.5506,-0.5013
114,0.0,0.0,0.0,0.0,0.0,0.0,-0.1596,0.9752,-0.0215,0.4144,0.5223,-0.5511,-0.5017
115,0.0,0.0,0.0,0.0,0.0,0.0,-0.1606,0.9761,-0.0220,0.4144,0.5221,-0.5513,-0.5017
116,0.0,0.0,0.0,0.0,0.0,0.0,-0.1635,0.9737,-0.0215,0.4151,0.5222,-0.5509,-0.5015
117,0.0,0.0,0.0,0.0,0.0,0.0,-0.1655,0.9742,-0.0215,0.4156,0.5223,-0.5506,-0.5013
118,0.0,0.0,0.0,0.0,0.0,0.0,-0.1621,0.9776,-0.0195,0.4155,0.5222,-0.5509,-0.5011
119,0.0,0.0,0.0,0.0,0.0,0.0,-0.1567,0.9801,-0.0181,0.4151,0.5216,-0.5515,-0.5014
120,0.0,0.0,0.0,0.0,0.0,0.0,-0.1538,0.9776,-0.0220,0.4143,0.5210,-0.5525,-0.5016
121,0.0,0.0,0.0,0.0,0.0,0.0,-0.1514,0.9830,-0.0186,0.4140,0.5207,-0.5532,-0.5015
122,0.0,0.0,0.0,0.0,0.0,0.0,-0.1494,0.9859,-0.0191,0.4146,0.5206,-0.5532,-0.5011
123,0.0,0.0,0.0,0.0,0.0,0.0,-0.1475,0.9879,-0.0162,0.4156,0.5206,-0.5528,-0.5006
124,0.0,0.0,0.0,0.0,0.0,0.0,-0.1460,0.9912,-0.0186,0.4166,0.5206,-0.5524,-0.5003
125,0.0,0.0,0.0,0.0,0.0,0.0,-0.1514,0.9908,-0.0191,0.4170,0.5205,-0.5523,-0.5001
126,0.0,0.0,0.0,0.0,0.0,0.0,-0.1503,0.9848,-0.0341,0.4168,0.5205,-0.5526,-0.4999
127,0.0,0.0,0.0,0.0,0.0,0.0,-0.0980,0.9080,-0.0695,0.4156,0.5199,-0.5545,-0.4995
128,0.0,0.0,0.0,0.0,0.0,0.0,-0.1094,0.9909,-0.0582,0.4166,0.5192,-0.5559,-0.4979
129,0.0,0.0,0.0,0.0,0.0,0.0,-0.2294,1.0330,0.0115,0.4156,0.5193,-0.5560,-0.4985
130,0.0,0.0,0.0,0.0,0.0,0.0,-0.1270,0.9867,-0.0382,0.4177,0.5193,-0.5553,-0.4975
131,0.0,0.0,0.0,0.0,0.0,0.0,-0.1060,0.9876,-0.0398,0.4200,0.5192,-0.5544,-0.4967
132,0.0,0.0,0.0,0.0,0.0,0.0,-0.1495,1.0064,-0.0102,0.4190,0.5190,-0.5561,-0.4958
133,0.0,0.0,0.0,0.0,0.0,0.0,-0.1616,1.0010,-0.0174,0.4194,0.5183,-0.5558,-0.4966
134,0.0,0.0,0.0,0.0,0.0,0.0,-0.1387,0.9941,-0.0322,0.4200,0.5187,-0.5551,-0.4964
135,0.0,0.0,0.0,0.0,0.0,0.0,-0.1362,0.9672,-0.0382,0.4198,0.5188,-0.5549,-0.4967
136,0.0,0.0,0.0,0.0,0.0,0.0,-0.1269,0.9725,-0.0407,0.4211,0.5189,-0.5541,-0.4963
137,0.0,0.0,0.0,0.0,0.0,0.0,-0.1221,0.9833,-0.0358,0.4213,0.5187,-0.5543,-0.4962
138,0.0,0.0,0.0,0.0,0.0,0.0,-0.1333,0.9814,-0.0367,0.4215,0.5184,-0.5546,-0.4959
139,0.0,0.0,0.0,0.0,0.0,0.0,-0.1280,0.9872,-0.0299,0.4221,0.5182,-0.5548,-0.4955
140,0.0,0.0,0.0,0.0,0.0,0.0,-0.1217,0.9970,-0.0275,0.4228,0.5179,-0.5553,-0.4946
141,0.0,0.0,0.0,0.0,0.0,0.0,-0.1281,1.0063,-0.0196,0.4240,0.5178,-0.5555,-0.4935
142,0.0,0.0,0.0,0.0,0.0,0.0,-0.1373,1.0064,-0.0137,0.4257,0.5177,-0.5548,-0.4929
143,0.0,0.0,0.0,0.0,0.0,0.0,-0.1348,0.9868,-0.0255,0.4267,0.5179,-0.5544,-0.4923
144,0.0,0.0,0.0,0.0,0.0,0.0,-0.1343,0.9736,-0.0290,0.4269,0.5182,-0.5545,-0.4916
145,0.0,0.0,0.0,0.0,0.0,0.0,-0.1314,0.9731,-0.0290,0.4270,0.5184,-0.5547,-0.4911
146,0.0,0.0,0.0,0.0,0.0,0.0,-0.1318,0.9619,-0.0335,0.4269,0.5192,-0.5552,-0.4898
147,0.0,0.0,0.0,0.0,0.0,0.0,-0.1352,0.9604,-0.0349,0.4264,0.5205,-0.5561,-0.4879
148,0.0,0.0,0.0,0.0,0.0,0.0,-0.1323,0.9721,-0.0324,0.4261,0.5217,-0.5573,-0.4855
149,0.0,0.0,0.0,0.0,0.0,0.0,-0.1265,0.9755,-0.0359,0.4261,0.5231,-0.5584,-0.4827
150,0.0,0.0,0.0,0.0,0.0,0.0,-0.1196,0.9627,-0.0481,0.4261,0.5245,-0.5597,-0.4798
151,0.0,0.0,0.0,0.0,0.0,0.0,-0.1283,0.9651,-0.0577,0.4263,0.5259,-0.5606,-0.4768
152,0.0,0.0,0.0,0.0,0.0,0.0,-0.1356,0.9715,-0.0581,0.4265,0.5275,-0.5616,-0.4737
153,0.0,0.0,0.0,0.0,0.0,0.0,-0.1366,0.9782,-0.0634,0.4266,0.5290,-0.5628,-0.4705
154,0.0,0.0,0.0,0.0,0.0,0.0,-0.1351,0.9889,-0.0701,0.4270,0.5307,-0.5636,-0.4673
155,0.0,0.0,0.0,0.0,0.0,0.0,-0.1288,0.9923,-0.0662,0.4273,0.5320,-0.5642,-0.4648
156,0.0,0.0,0.0,0.0,0.0,0.0,-0.1327,0.9908,-0.0706,0.4272,0.5331,-0.5648,-0.4629
157,0.0,0.0,0.0,0.0,0.0,0.0,-0.1444,0.9918,-0.0753,0.4268,0.5346,-0.5655,-0.4608
158,0.0,0.0,0.0,0.0,0.0,0.0,-0.1698,1.0246,-0.0618,0.4261,0.5364,-0.5659,-0.4588
159,0.0,0.0,0.0,0.0,0.0,0.0,-0.1683,1.0192,-0.0584,0.4257,0.5380,-0.5655,-0.4577
160,0.0,0.0,0.0,0.0,0.0,0.0,-0.1473,1.0020,-0.0796,0.4256,0.5400,-0.5640,-0.4572
161,0.0,0.0,0.0,0.0,0.0,0.0,-0.1458,0.9986,-0.0738,0.4260,0.5419,-0.5622,-0.4569
162,0.0,0.0,0.0,0.0,0.0,0.0,-0.1741,1.0157,-0.0807,0.4250,0.5437,-0.5609,-0.4574
163,0.0,0.0,0.0,0.0,0.0,0.0,-0.1517,1.0036,-0.0650,0.4258,0.5461,-0.5580,-0.4574
164,0.0,0.0,0.0,0.0,0.0,0.0,-0.1057,0.9530,-0.1137,0.4261,0.5478,-0.5554,-0.4581
165,0.0,0.0,0.0,0.0,0.0,0.0,-0.1296,0.9710,-0.1114,0.4260,0.5492,-0.5532,-0.4592
166,0.0,0.0,0.0,0.0,0.0,0.0,-0.1559,0.9868,-0.0985,0.4260,0.5512,-0.5508,-0.4596
167,0.0,0.0,0.0,0.0,0.0,0.0,-0.1393,0.9593,-0.1158,0.4257,0.5536,-0.5486,-0.4597
168,0.0,0.0,0.0,0.0,0.0,0.0,-0.1310,0.9490,-0.1232,0.4252,0.5557,-0.5469,-0.4597
169,0.0,0.0,0.0,0.0,0.0,0.0,-0.1379,0.9725,-0.1089,0.4241,0.5575,-0.5460,-0.4596
170,0.0,0.0,0.0,0.0,0.0,0.0,-0.1443,0.9965,-0.0966,0.4223,0.5584,-0.5464,-0.4597
171,0.0,0.0,0.0,0.0,0.0,0.0,-0.1462,0.9926,-0.0966,0.4211,0.5584,-0.5469,-0.4602
172,0.0,0.0,0.0,0.0,0.0,0.0,-0.1359,0.9447,-0.1115,0.4191,0.5586,-0.5482,-0.4602
173,0.0,0.0,0.0,0.0,0.0,0.0,-0.1188,0.9281,-0.1157,0.4178,0.5588,-0.5494,-0.4597
174,0.0,0.0,0.0,0.0,0.0,0.0,-0.1057,0.9335,-0.1143,0.4175,0.5587,-0.5507,-0.4585
175,0.0,0.0,0.0,0.0,0.0,0.0,-0.1017,0.9257,-0.1163,0.4172,0.5590,-0.5525,-0.4564
176,0.0,0.0,0.0,0.0,0.0,0.0,-0.1061,0.9285,-0.1250,0.4161,0.5591,-0.5552,-0.4539
177,0.0,0.0,0.0,0.0,0.0,0.0,-0.1148,0.9339,-0.1278,0.4149,0.5585,-0.5585,-0.4516
178,0.0,0.0,0.0,0.0,0.0,0.0,-0.1159,0.9490,-0.1248,0.4141,0.5577,-0.5621,-0.4490
179,0.0,0.0,0.0,0.0,0.0,0.0,-0.1246,0.9573,-0.1261,0.4139,0.5569,-0.5656,-0.4456
180,0.0,0.0,0.0,0.0,0.0,0.0,-0.1378,0.9753,-0.1273,0.4144,0.5557,-0.5687,-0.4428
181,0.0,0.0,0.0,0.0,0.0,0.0,-0.1315,0.9914,-0.1234,0.4148,0.5543,-0.5720,-0.4399
182,0.0,0.0,0.0,0.0,0.0,0.0,-0.1199,0.9973,-0.1147,0.4157,0.5523,-0.5754,-0.4371
183,0.0,0.0,0.0,0.0,0.0,0.0,-0.1145,0.9924,-0.1230,0.4168,0.5498,-0.5788,-0.4348
184,0.0,0.0,0.0,0.0,0.0,0.0,-0.1120,0.9869,-0.1328,0.4176,0.5471,-0.5822,-0.4329
185,0.0,0.0,0.0,0.0,0.0,0.0,-0.1047,0.9977,-0.1279,0.4185,0.5447,-0.5851,-0.4311
186,0.0,0.0,0.0,0.0,0.0,0.0,-0.0759,0.9815,-0.1395,0.4192,0.5424,-0.5879,-0.4295
187,0.0,0.0,0.0,0.0,0.0,0.0,-0.0598,0.9590,-0.1514,0.4190,0.5402,-0.5914,-0.4277
188,0.0,0.0,0.0,0.0,0.0,0.0,-0.0540,0.9688,-0.1441,0.4188,0.5383,-0.5948,-0.4256
189,0.0,0.0,0.0,0.0,0.0,0.0,-0.0433,0.9765,-0.1524,0.4183,0.5367,-0.5985,-0.4229
190,0.0,0.0,0.0,0.0,0.0,0.0,-0.0310,0.9642,-0.1681,0.4183,0.5342,-0.6018,-0.4213
191,0.0,0.0,0.0,0.0,0.0,0.0,-0.0189,0.9749,-0.1623,0.4196,0.5312,-0.6044,-0.4200
192,0.0,0.0,0.0,0.0,0.0,0.0,-0.0220,1.0213,-0.1455,0.4220,0.5260,-0.6069,-0.4206
193,0.0,0.0,0.0,0.0,0.0,0.0,-0.0366,1.0380,-0.1370,0.4252,0.5198,-0.6090,-0.4220
194,0.0,0.0,0.0,0.0,0.0,0.0,-0.0586,1.0220,-0.1214,0.4295,0.5142,-0.6097,-0.4236
195,0.0,0.0,0.0,0.0,0.0,0.0,-0.0620,1.0260,-0.1151,0.4340,0.5092,-0.6093,-0.4255
196,0.0,0.0,0.0,0.0,0.0,0.0,-0.0118,0.9961,-0.1259,0.4382,0.5056,-0.6092,-0.4257
197,0.0,0.0,0.0,0.0,0.0,0.0,0.0486,0.9960,-0.1303,0.4425,0.5004,-0.6098,-0.4265
198,0.0,0.0,0.0,0.0,0.0,0.0,0.0056,1.0333,-0.1079,0.4467,0.4975,-0.6088,-0.4271
199,0.0,0.0,0.0,0.0,0.0,0.0,-0.0120,1.0261,-0.0927,0.4512,0.4968,-0.6062,-0.4267
200,0.0,0.0,0.0,0.0,0.0,0.0,0.0504,1.0103,-0.1094,0.4543,0.4968,-0.6050,-0.4252
201,0.0,0.0,0.0,0.0,0.0,0.0,0.0399,0.9618,-0.1435,0.4542,0.5001,-0.6041,-0.4227
202,0.0,0.0,0.0,0.0,0.0,0.0,0.0360,0.9492,-0.1407,0.4566,0.5030,-0.6014,-0.4205
203,0.0,0.0,0.0,0.0,0.0,0.0,0.0475,1.0157,-0.1030,0.4595,0.5046,-0.5993,-0.4184
204,0.0,0.0,0.0,0.0,0.0,0.0,0.0144,1.0031,-0.1057,0.4613,0.5064,-0.5988,-0.4150
205,0.0,0.0,0.0,0.0,0.0,0.0,0.0171,0.9448,-0.1391,0.4621,0.5100,-0.5983,-0.4103
206,0.0,0.0,0.0,0.0,0.0,0.0,0.0099,0.9363,-0.1744,0.4598,0.5168,-0.5992,-0.4031
207,0.0,0.0,0.0,0.0,0.0,0.0,-0.0021,0.9312,-0.2034,0.4510,0.5251,-0.6053,-0.3930
208,0.0,0.0,0.0,0.0,0.0,0.0,0.0129,0.9750,-0.2057,0.4399,0.5293,-0.6161,-0.3831
209,0.0,0.0,0.0,0.0,0.0,0.0,0.0030,1.0444,-0.1877,0.4281,0.5309,-0.6281,-0.3747
210,0.0,0.0,0.0,0.0,0.0,0.0,0.0483,1.1373,-0.1327,0.4235,0.5338,-0.6327,-0.3680
211,0.0,0.0,0.0,0.0,0.0,0.0,0.0407,1.0971,-0.1630,0.4284,0.5379,-0.6277,-0.3649
212,0.0,0.0,0.0,0.0,0.0,0.0,-0.0059,1.0067,-0.2760,0.4292,0.5426,-0.6237,-0.3640
213,0.0,0.0,0.0,0.0,0.0,0.0,0.0090,1.0159,-0.2146,0.4302,0.5444,-0.6191,-0.3677
214,0.0,0.0,0.0,0.0,0.0,0.0,0.0275,1.0026,-0.2284,0.4297,0.5454,-0.6157,-0.3725
215,0.0,0.0,0.0,0.0,0.0,0.0,0.0062,0.9603,-0.2208,0.4289,0.5451,-0.6119,-0.3801
216,0.0,0.0,0.0,0.0,0.0,0.0,0.0094,0.9752,-0.1877,0.4298,0.5436,-0.6066,-0.3897
217,0.0,0.0,0.0,0.0,0.0,0.0,-0.0261,0.9591,-0.1895,0.4351,0.5432,-0.5973,-0.3985
218,0.0,0.0,0.0,0.0,0.0,0.0,-0.1004,0.9294,-0.2074,0.4410,0.5438,-0.5873,-0.4061
219,0.0,0.0,0.0,0.0,0.0,0.0,-0.0918,0.9286,-0.1775,0.4478,0.5434,-0.5775,-0.4130
220,0.0,0.0,0.0,0.0,0.0,0.0,0.0083,0.9580,-0.1326,0.4552,0.5400,-0.5706,-0.4192
221,0.0,0.0,0.0,0.0,0.0,0.0,0.0067,0.9850,-0.1145,0.4588,0.5341,-0.5684,-0.4257
222,0.0,0.0,0.0,0.0,0.0,0.0,-0.0727,0.9536,-0.0917,0.4574,0.5308,-0.5686,-0.4309
223,0.0,0.0,0.0,0.0,0.0,0.0,-0.0883,0.9640,-0.0755,0.4573,0.5294,-0.5670,-0.4348
224,0.0,0.0,0.0,0.0,0.0,0.0,-0.0420,0.9671,-0.1045,0.4574,0.5293,-0.5663,-0.4359
225,0.0,0.0,0.0,0.0,0.0,0.0,-0.0126,0.9045,-0.1347,0.4574,0.5303,-0.5663,-0.4347
226,0.0,0.0,0.0,0.0,0.0,0.0,-0.0419,0.9286,-0.1038,0.4583,0.5318,-0.5659,-0.4324
227,0.0,0.0,0.0,0.0,0.0,0.0,-0.0861,0.9997,-0.0511,0.4584,0.5340,-0.5661,-0.4293
228,0.0,0.0,0.0,0.0,0.0,0.0,-0.1222,1.0392,-0.0471,0.4575,0.5353,-0.5662,-0.4284
229,0.0,0.0,0.0,0.0,0.0,0.0,-0.1130,1.0544,-0.0335,0.4572,0.5359,-0.5652,-0.4294
230,0.0,0.0,0.0,0.0,0.0,0.0,-0.1022,1.0266,-0.0401,0.4553,0.5352,-0.5651,-0.4324
231,0.0,0.0,0.0,0.0,0.0,0.0,-0.0617,0.9893,-0.0649,0.4532,0.5329,-0.5659,-0.4363
232,0.0,0.0,0.0,0.0,0.0,0.0,-0.0548,0.9845,-0.0631,0.4513,0.5312,-0.5669,-0.4391
233,0.0,0.0,0.0,0.0,0.0,0.0,-0.0680,0.9728,-0.0558,0.4500,0.5296,-0.5676,-0.4414
234,0.0,0.0,0.0,0.0,0.0,0.0,-0.0606,0.9576,-0.0748,0.4497,0.5292,-0.5675,-0.4424
235,0.0,0.0,0.0,0.0,0.0,0.0,-0.0649,0.9317,-0.0827,0.4490,0.5302,-0.5676,-0.4418
236,0.0,0.0,0.0,0.0,0.0,0.0,-0.0665,0.9558,-0.0486,0.4494,0.5304,-0.5671,-0.4417
237,0.0,0.0,0.0,0.0,0.0,0.0,-0.0759,0.9969,-0.0347,0.4496,0.5305,-0.5669,-0.4416
238,0.0,0.0,0.0,0.0,0.0,0.0,-0.0713,0.9499,-0.0661,0.4479,0.5309,-0.5686,-0.4408
239,0.0,0.0,0.0,0.0,0.0,0.0,-0.0430,0.9297,-0.0829,0.4454,0.5299,-0.5721,-0.4399
240,0.0,0.0,0.0,0.0,0.0,0.0,-0.0464,0.9512,-0.0823,0.4424,0.5292,-0.5768,-0.4377
241,0.0,0.0,0.0,0.0,0.0,0.0,-0.0642,0.9221,-0.1249,0.4373,0.5306,-0.5829,-0.4329
242,0.0,0.0,0.0,0.0,0.0,0.0,-0.0715,0.9133,-0.1390,0.4318,0.5340,-0.5897,-0.4251
243,0.0,0.0,0.0,0.0,0.0,0.0,-0.0648,0.9787,-0.1154,0.4267,0.5379,-0.5967,-0.4153
244,0.0,0.0,0.0,0.0,0.0,0.0,-0.0646,1.0448,-0.0805,0.4250,0.5397,-0.6011,-0.4084
245,0.0,0.0,0.0,0.0,0.0,0.0,-0.0448,0.9921,-0.1460,0.4228,0.5409,-0.6056,-0.4025
246,0.0,0.0,0.0,0.0,0.0,0.0,-0.0306,0.9758,-0.1704,0.4196,0.5421,-0.6097,-0.3980
247,0.0,0.0,0.0,0.0,0.0,0.0,-0.0048,0.9798,-0.1590,0.4171,0.5411,-0.6144,-0.3947
248,0.0,0.0,0.0,0.0,0.0,0.0,0.0147,0.9893,-0.1867,0.4156,0.5387,-0.6197,-0.3913
249,0.0,0.0,0.0,0.0,0.0,0.0,-0.0071,0.9883,-0.1894,0.4146,0.5365,-0.6237,-0.3889
250,0.0,0.0,0.0,0.0,0.0,0.0,-0.0032,0.9834,-0.1997,0.4154,0.5343,-0.6261,-0.3872
251,0.0,0.0,0.0,0.0,0.0,0.0,0.0176,1.0176,-0.1861,0.4185,0.5320,-0.6268,-0.3860
252,0.0,0.0,0.0,0.0,0.0,0.0,-0.0003,1.0091,-0.2078,0.4220,0.5304,-0.6261,-0.3854
253,0.0,0.0,0.0,0.0,0.0,0.0,-0.0124,0.9891,-0.2131,0.4248,0.5289,-0.6253,-0.3857
254,0.0,0.0,0.0,0.0,0.0,0.0,-0.0006,1.0451,-0.1562,0.4289,0.5257,-0.6241,-0.3875
255,0.0,0.0,0.0,0.0,0.0,0.0,0.0041,1.0891,-0.1317,0.4344,0.5198,-0.6217,-0.3932
256,0.0,0.0,0.0,0.0,0.0,0.0,0.0317,1.0191,-0.1760,0.4387,0.5145,-0.6196,-0.3987
257,0.0,0.0,0.0,0.0,0.0,0.0,0.0175,0.9944,-0.1538,0.4435,0.5113,-0.6158,-0.4033
258,0.0,0.0,0.0,0.0,0.0,0.0,0.0005,0.9998,-0.1541,0.4490,0.5088,-0.6107,-0.4081
259,0.0,0.0,0.0,0.0,0.0,0.0,-0.0044,0.9930,-0.1507,0.4540,0.5064,-0.6055,-0.4132
260,0.0,0.0,0.0,0.0,0.0,0.0,0.0023,1.0015,-0.1144,0.4593,0.5041,-0.6005,-0.4174
261,0.0,0.0,0.0,0.0,0.0,0.0,-0.0110,1.0081,-0.0885,0.4627,0.5012,-0.5967,-0.4227
262,0.0,0.0,0.0,0.0,0.0,0.0,-0.0032,0.9935,-0.0853,0.4654,0.4985,-0.5934,-0.4275
263,0.0,0.0,0.0,0.0,0.0,0.0,0.0295,0.9729,-0.0935,0.4674,0.4966,-0.5912,-0.4307
264,0.0,0.0,0.0,0.0,0.0,0.0,0.0333,0.9681,-0.0829,0.4698,0.4946,-0.5888,-0.4336
265,0.0,0.0,0.0,0.0,0.0,0.0,0.0133,0.9682,-0.0725,0.4721,0.4943,-0.5858,-0.4354
266,0.0,0.0,0.0,0.0,0.0,0.0,-0.0014,0.9962,-0.0441,0.4752,0.4944,-0.5819,-0.4372
267,0.0,0.0,0.0,0.0,0.0,0.0,-0.0059,1.0022,-0.0310,0.4777,0.4949,-0.5783,-0.4387
268,0.0,0.0,0.0,0.0,0.0,0.0,-0.0077,0.9534,-0.0419,0.4787,0.4953,-0.5758,-0.4405
269,0.0,0.0,0.0,0.0,0.0,0.0,0.0220,0.9729,-0.0392,0.4791,0.4938,-0.5752,-0.4424
270,0.0,0.0,0.0,0.0,0.0,0.0,0.0050,0.9577,-0.0512,0.4778,0.4936,-0.5760,-0.4430
271,0.0,0.0,0.0,0.0,0.0,0.0,-0.0059,0.9750,-0.0161,0.4777,0.4939,-0.5753,-0.4437
272,0.0,0.0,0.0,0.0,0.0,0.0,-0.0002,1.0224,0.0006,0.4789,0.4942,-0.5739,-0.4439
273,0.0,0.0,0.0,0.0,0.0,0.0,0.0068,0.9759,-0.0293,0.4803,0.4944,-0.5724,-0.4441
274,0.0,0.0,0.0,0.0,0.0,0.0,0.0118,0.9602,-0.0454,0.4810,0.4951,-0.5714,-0.4438
275,0.0,0.0,0.0,0.0,0.0,0.0,0.0093,0.9685,-0.0420,0.4801,0.4969,-0.5714,-0.4428
276,0.0,0.0,0.0,0.0,0.0,0.0,0.0016,0.9718,-0.0496,0.4779,0.4994,-0.5720,-0.4416
277,0.0,0.0,0.0,0.0,0.0,0.0,-0.0029,0.9978,-0.0266,0.4762,0.5019,-0.5722,-0.4403
278,0.0,0.0,0.0,0.0,0.0,0.0,-0.0001,1.0213,-0.0159,0.4755,0.5037,-0.5724,-0.4388
279,0.0,0.0,0.0,0.0,0.0,0.0,-0.0054,1.0212,-0.0226,0.4755,0.5048,-0.5722,-0.4378
280,0.0,0.0,0.0,0.0,0.0,0.0,-0.0175,0.9909,-0.0445,0.4744,0.5072,-0.5725,-0.4358
281,0.0,0.0,0.0,0.0,0.0,0.0,-0.0121,0.9870,-0.0484,0.4727,0.5098,-0.5730,-0.4340
282,0.0,0.0,0.0,0.0,0.0,0.0,-0.0103,1.0226,-0.0351,0.4711,0.5121,-0.5731,-0.4329
283,0.0,0.0,0.0,0.0,0.0,0.0,-0.0133,1.0437,-0.0195,0.4707,0.5124,-0.5730,-0.4331
284,0.0,0.0,0.0,0.0,0.0,0.0,-0.0054,1.0163,-0.0362,0.4707,0.5119,-0.5729,-0.4338
285,0.0,0.0,0.0,0.0,0.0,0.0,0.0075,0.9721,-0.0715,0.4704,0.5125,-0.5726,-0.4337
286,0.0,0.0,0.0,0.0,0.0,0.0,-0.0029,0.9987,-0.0446,0.4714,0.5123,-0.5714,-0.4346
287,0.0,0.0,0.0,0.0,0.0,0.0,-0.0044,1.0231,-0.0328,0.4729,0.5115,-0.5701,-0.4355
288,0.0,0.0,0.0,0.0,0.0,0.0,-0.0033,0.9943,-0.0475,0.4736,0.5117,-0.5691,-0.4358
289,0.0,0.0,0.0,0.0,0.0,0.0,-0.0004,0.9723,-0.0530,0.4743,0.5121,-0.5680,-0.4362
290,0.0,0.0,0.0,0.0,0.0,0.0,0.0058,1.0002,-0.0325,0.4754,0.5118,-0.5673,-0.4362
291,0.0,0.0,0.0,0.0,0.0,0.0,-0.0219,0.9949,-0.0352,0.4750,0.5127,-0.5673,-0.4356
292,0.0,0.0,0.0,0.0,0.0,0.0,-0.0483,0.9965,-0.0122,0.4742,0.5150,-0.5666,-0.4347
293,0.0,0.0,0.0,0.0,0.0,0.0,-0.0369,0.9777,-0.0536,0.4706,0.5204,-0.5674,-0.4310
294,0.0,0.0,0.0,0.0,0.0,0.0,-0.0265,0.9560,-0.0824,0.4646,0.5275,-0.5695,-0.4262
295,0.0,0.0,0.0,0.0,0.0,0.0,-0.0166,1.0376,-0.0481,0.4623,0.5328,-0.5678,-0.4243
296,0.0,0.0,0.0,0.0,0.0,0.0,-0.0416,1.1251,-0.0157,0.4649,0.5351,-0.5624,-0.4258
297,0.0,0.0,0.0,0.0,0.0,0.0,-0.0765,1.0471,-0.0261,0.4663,0.5358,-0.5587,-0.4282
298,0.0,0.0,0.0,0.0,0.0,0.0,-0.0643,0.9344,-0.1171,0.4636,0.5392,-0.5560,-0.4303
299,0.0,0.0,0.0,0.0,0.0,0.0,-0.0500,0.9937,-0.0650,0.4642,0.5413,-0.5512,-0.4333
300,0.0,0.0,0.0,0.0,0.0,0.0,-0.0495,0.9947,-0.0592,0.4633,0.5424,-0.5491,-0.4355
301,0.0,0.0,0.0,0.0,0.0,0.0,-0.0649,0.9496,-0.0991,0.4619,0.5446,-0.5468,-0.4370
302,0.0,0.0,0.0,0.0,0.0,0.0,-0.0738,0.9722,-0.0756,0.4614,0.5464,-0.5442,-0.4387
303,0.0,0.0,0.0,0.0,0.0,0.0,-0.1020,0.9913,-0.0694,0.4599,0.5490,-0.5420,-0.4396
304,0.0,0.0,0.0,0.0,0.0,0.0,-0.1205,0.9835,-0.0673,0.4588,0.5516,-0.5389,-0.4414
305,0.0,0.0,0.0,0.0,0.0,0.0,-0.1312,0.9870,-0.0667,0.4579,0.5539,-0.5352,-0.4439
306,0.0,0.0,0.0,0.0,0.0,0.0,-0.1279,0.9963,-0.0570,0.4570,0.5564,-0.5315,-0.4462
307,0.0,0.0,0.0,0.0,0.0,0.0,-0.1357,0.9846,-0.0570,0.4553,0.5583,-0.5286,-0.4489
308,0.0,0.0,0.0,0.0,0.0,0.0,-0.1341,0.9641,-0.0615,0.4526,0.5598,-0.5269,-0.4519
309,0.0,0.0,0.0,0.0,0.0,0.0,-0.1200,0.9572,-0.0680,0.4510,0.5613,-0.5249,-0.4539
310,0.0,0.0,0.0,0.0,0.0,0.0,-0.1390,0.9514,-0.0635,0.4498,0.5627,-0.5226,-0.4560
311,0.0,0.0,0.0,0.0,0.0,0.0,-0.1492,0.9412,-0.0625,0.4495,0.5637,-0.5206,-0.4573
312,0.0,0.0,0.0,0.0,0.0,0.0,-0.1355,0.9319,-0.0739,0.4480,0.5641,-0.5208,-0.4581
313,0.0,0.0,0.0,0.0,0.0,0.0,-0.1463,0.9467,-0.0499,0.4462,0.5631,-0.5222,-0.4595
314,0.0,0.0,0.0,0.0,0.0,0.0,-0.1757,0.9781,-0.0267,0.4449,0.5612,-0.5237,-0.4614
315,0.0,0.0,0.0,0.0,0.0,0.0,-0.1824,0.9566,-0.0364,0.4430,0.5596,-0.5257,-0.4629
316,0.0,0.0,0.0,0.0,0.0,0.0,-0.1576,0.9673,-0.0293,0.4430,0.5578,-0.5266,-0.4639
317,0.0,0.0,0.0,0.0,0.0,0.0,-0.1395,0.9452,-0.0451,0.4431,0.5566,-0.5278,-0.4640
318,0.0,0.0,0.0,0.0,0.0,0.0,-0.1244,0.9412,-0.0598,0.4414,0.5558,-0.5306,-0.4634
319,0.0,0.0,0.0,0.0,0.0,0.0,-0.1538,0.9843,-0.0307,0.4389,0.5555,-0.5343,-0.4619
320,0.0,0.0,0.0,0.0,0.0,0.0,-0.1753,1.0079,-0.0148,0.4370,0.5551,-0.5366,-0.4614
321,0.0,0.0,0.0,0.0,0.0,0.0,-0.1519,1.0160,-0.0271,0.4379,0.5543,-0.5362,-0.4621
322,0.0,0.0,0.0,0.0,0.0,0.0,-0.1455,1.0023,-0.0384,0.4386,0.5534,-0.5361,-0.4625
323,0.0,0.0,0.0,0.0,0.0,0.0,-0.1592,1.0098,-0.0218,0.4399,0.5518,-0.5349,-0.4646
324,0.0,0.0,0.0,0.0,0.0,0.0,-0.1666,1.0328,-0.0007,0.4424,0.5493,-0.5328,-0.4677
325,0.0,0.0,0.0,0.0,0.0,0.0,-0.1640,0.9713,-0.0186,0.4443,0.5475,-0.5310,-0.4700
326,0.0,0.0,0.0,0.0,0.0,0.0,-0.1098,0.9267,-0.0470,0.4466,0.5459,-0.5288,-0.4722
327,0.0,0.0,0.0,0.0,0.0,0.0,-0.1061,0.9546,-0.0236,0.4485,0.5442,-0.5281,-0.4732
328,0.0,0.0,0.0,0.0,0.0,0.0,-0.1489,0.9557,-0.0159,0.4478,0.5438,-0.5292,-0.4730
329,0.0,0.0,0.0,0.0,0.0,0.0,-0.1478,0.9307,-0.0418,0.4455,0.5455,-0.5309,-0.4713
330,0.0,0.0,0.0,0.0,0.0,0.0,-0.1259,0.9423,-0.0404,0.4429,0.5481,-0.5336,-0.4677
331,0.0,0.0,0.0,0.0,0.0,0.0,-0.1337,0.9638,-0.0451,0.4397,0.5508,-0.5375,-0.4629
332,0.0,0.0,0.0,0.0,0.0,0.0,-0.1307,0.9479,-0.0743,0.4349,0.5545,-0.5431,-0.4565
333,0.0,0.0,0.0,0.0,0.0,0.0,-0.1293,0.9856,-0.0571,0.4321,0.5564,-0.5471,-0.4520
334,0.0,0.0,0.0,0.0,0.0,0.0,-0.1361,1.0137,-0.0815,0.4296,0.5576,-0.5510,-0.4482
335,0.0,0.0,0.0,0.0,0.0,0.0,-0.1175,0.9833,-0.0993,0.4261,0.5584,-0.5555,-0.4450
336,0.0,0.0,0.0,0.0,0.0,0.0,-0.0814,0.9928,-0.1200,0.4248,0.5576,-0.5585,-0.4434
337,0.0,0.0,0.0,0.0,0.0,0.0,-0.0980,1.0226,-0.1152,0.4255,0.5561,-0.5603,-0.4423
338,0.0,0.0,0.0,0.0,0.0,0.0,-0.1440,1.0556,-0.0758,0.4279,0.5534,-0.5606,-0.4432
339,0.0,0.0,0.0,0.0,0.0,0.0,-0.1372,1.0562,-0.0614,0.4326,0.5485,-0.5589,-0.4469
340,0.0,0.0,0.0,0.0,0.0,0.0,-0.0553,1.0081,-0.0920,0.4372,0.5429,-0.5571,-0.4515
341,0.0,0.0,0.0,0.0,0.0,0.0,-0.0474,0.9857,-0.0971,0.4407,0.5401,-0.5556,-0.4532
342,0.0,0.0,0.0,0.0,0.0,0.0,-0.1104,0.9841,-0.0553,0.4437,0.5384,-0.5532,-0.4553
343,0.0,0.0,0.0,0.0,0.0,0.0,-0.1109,0.9984,-0.0392,0.4492,0.5356,-0.5497,-0.4574
344,0.0,0.0,0.0,0.0,0.0,0.0,-0.0804,0.9564,-0.1091,0.4520,0.5356,-0.5479,-0.4568
345,0.0,0.0,0.0,0.0,0.0,0.0,-0.0492,0.9087,-0.0990,0.4543,0.5355,-0.5472,-0.4554
346,0.0,0.0,0.0,0.0,0.0,0.0,-0.0583,0.9778,-0.0495,0.4576,0.5338,-0.5476,-0.4537
347,0.0,0.0,0.0,0.0,0.0,0.0,-0.0921,1.0219,-0.0189,0.4592,0.5319,-0.5492,-0.4523
348,0.0,0.0,0.0,0.0,0.0,0.0,-0.0725,0.9910,-0.0382,0.4616,0.5298,-0.5499,-0.4515
349,0.0,0.0,0.0,0.0,0.0,0.0,-0.0358,0.9430,-0.0727,0.4636,0.5283,-0.5510,-0.4499
350,0.0,0.0,0.0,0.0,0.0,0.0,-0.0353,0.9440,-0.0626,0.4655,0.5268,-0.5527,-0.4476
351,0.0,0.0,0.0,0.0,0.0,0.0,-0.0239,0.9984,-0.0206,0.4679,0.5240,-0.5556,-0.4448
352,0.0,0.0,0.0,0.0,0.0,0.0,-0.0197,0.9678,-0.0713,0.4656,0.5250,-0.5620,-0.4380
353,0.0,0.0,0.0,0.0,0.0,0.0,-0.0203,0.8738,-0.1378,0.4589,0.5291,-0.5710,-0.4283
354,0.0,0.0,0.0,0.0,0.0,0.0,0.0158,1.0741,-0.1217,0.4538,0.5312,-0.5807,-0.4180
355,0.0,0.0,0.0,0.0,0.0,0.0,-0.0087,1.0818,-0.0716,0.4508,0.5329,-0.5893,-0.4069
356,0.0,0.0,0.0,0.0,0.0,0.0,-0.0706,1.0130,-0.1553,0.4459,0.5409,-0.5935,-0.3955
357,0.0,0.0,0.0,0.0,0.0,0.0,-0.0659,1.0615,-0.1187,0.4484,0.5477,-0.5902,-0.3880
358,0.0,0.0,0.0,0.0,0.0,0.0,0.0110,1.1491,-0.0568,0.4557,0.5472,-0.5851,-0.3880
359,0.0,0.0,0.0,0.0,0.0,0.0,-0.0224,1.0144,-0.1635,0.4554,0.5478,-0.5837,-0.3898
360,0.0,0.0,0.0,0.0,0.0,0.0,-0.0676,0.9584,-0.1571,0.4560,0.5457,-0.5804,-0.3967
361,0.0,0.0,0.0,0.0,0.0,0.0,-0.0239,1.0277,-0.1425,0.4569,0.5410,-0.5788,-0.4045
362,0.0,0.0,0.0,0.0,0.0,0.0,-0.1117,1.0402,-0.1165,0.4565,0.5373,-0.5770,-0.4122
363,0.0,0.0,0.0,0.0,0.0,0.0,-0.1043,1.0099,-0.1274,0.4580,0.5353,-0.5730,-0.4188
364,0.0,0.0,0.0,0.0,0.0,0.0,0.0419,0.9696,-0.1493,0.4609,0.5329,-0.5701,-0.4225
365,0.0,0.0,0.0,0.0,0.0,0.0,0.0256,0.9923,-0.1127,0.4638,0.5302,-0.5681,-0.4255
366,0.0,0.0,0.0,0.0,0.0,0.0,-0.0743,0.9913,-0.0706,0.4640,0.5299,-0.5654,-0.4293
367,0.0,0.0,0.0,0.0,0.0,0.0,-0.0709,0.9732,-0.0713,0.4640,0.5312,-0.5624,-0.4315
368,0.0,0.0,0.0,0.0,0.0,0.0,-0.0436,0.9546,-0.0750,0.4618,0.5315,-0.5623,-0.4337
369,0.0,0.0,0.0,0.0,0.0,0.0,-0.0597,0.9671,-0.0477,0.4582,0.5301,-0.5642,-0.4367
370,0.0,0.0,0.0,0.0,0.0,0.0,-0.1013,1.0131,-0.0184,0.4553,0.5294,-0.5650,-0.4395
371,0.0,0.0,0.0,0.0,0.0,0.0,-0.0887,1.0214,-0.0107,0.4528,0.5264,-0.5658,-0.4447
372,0.0,0.0,0.0,0.0,0.0,0.0,-0.0434,1.0047,-0.0238,0.4525,0.5230,-0.5657,-0.4491
373,0.0,0.0,0.0,0.0,0.0,0.0,-0.0610,1.0035,0.0069,0.4529,0.5198,-0.5648,-0.4534
374,0.0,0.0,0.0,0.0,0.0,0.0,-0.0790,1.0099,0.0105,0.4530,0.5168,-0.5635,-0.4585
375,0.0,0.0,0.0,0.0,0.0,0.0,-0.0493,0.9929,0.0169,0.4531,0.5136,-0.5627,-0.4628
376,0.0,0.0,0.0,0.0,0.0,0.0,-0.0412,1.0135,0.0465,0.4541,0.5085,-0.5615,-0.4689
377,0.0,0.0,0.0,0.0,0.0,0.0,-0.0386,0.9728,0.0147,0.4545,0.5030,-0.5615,-0.4745
378,0.0,0.0,0.0,0.0,0.0,0.0,-0.0165,0.9108,-0.0111,0.4547,0.4987,-0.5623,-0.4778
379,0.0,0.0,0.0,0.0,0.0,0.0,-0.0105,0.9555,0.0448,0.4564,0.4928,-0.5631,-0.4814
380,0.0,0.0,0.0,0.0,0.0,0.0,-0.0193,0.9925,0.0398,0.4585,0.4868,-0.5647,-0.4836
381,0.0,0.0,0.0,0.0,0.0,0.0,0.0074,0.8970,-0.0177,0.4607,0.4834,-0.5664,-0.4830
382,0.0,0.0,0.0,0.0,0.0,0.0,0.0234,0.9011,0.0044,0.4638,0.4802,-0.5670,-0.4825
383,0.0,0.0,0.0,0.0,0.0,0.0,0.0140,0.9548,0.0247,0.4658,0.4763,-0.5697,-0.4814
384,0.0,0.0,0.0,0.0,0.0,0.0,-0.0010,0.9469,0.0064,0.4663,0.4736,-0.5742,-0.4781
385,0.0,0.0,0.0,0.0,0.0,0.0,0.0077,0.9371,0.0029,0.4664,0.4732,-0.5783,-0.4734
386,0.0,0.0,0.0,0.0,0.0,0.0,0.0101,0.9809,-0.0046,0.4657,0.4740,-0.5834,-0.4670
387,0.0,0.0,0.0,0.0,0.0,0.0,0.0145,0.9930,-0.0157,0.4648,0.4762,-0.5887,-0.4590
388,0.0,0.0,0.0,0.0,0.0,0.0,0.0261,1.0305,-0.0112,0.4652,0.4797,-0.5918,-0.4509
389,0.0,0.0,0.0,0.0,0.0,0.0,0.0217,1.0553,-0.0192,0.4667,0.4838,-0.5931,-0.4431
390,0.0,0.0,0.0,0.0,0.0,0.0,0.0067,1.0393,-0.0216,0.4688,0.4878,-0.5932,-0.4364
391,0.0,0.0,0.0,0.0,0.0,0.0,0.0107,1.0410,-0.0522,0.4707,0.4919,-0.5927,-0.4304
392,0.0,0.0,0.0,0.0,0.0,0.0,0.0001,1.0155,-0.0726,0.4725,0.4970,-0.5910,-0.4248
393,0.0,0.0,0.0,0.0,0.0,0.0,-0.0050,0.9743,-0.1053,0.4731,0.5034,-0.5889,-0.4194
394,0.0,0.0,0.0,0.0,0.0,0.0,0.0086,0.9884,-0.1126,0.4742,0.5084,-0.5868,-0.4152
395,0.0,0.0,0.0,0.0,0.0,0.0,0.0102,1.0492,-0.0550,0.4768,0.5095,-0.5848,-0.4137
396,0.0,0.0,0.0,0.0,0.0,0.0,0.0219,1.0628,-0.0633,0.4805,0.5088,-0.5832,-0.4125
397,0.0,0.0,0.0,0.0,0.0,0.0,-0.0060,0.9943,-0.1114,0.4833,0.5097,-0.5800,-0.4127
398,0.0,0.0,0.0,0.0,0.0,0.0,-0.0236,1.0086,-0.0908,0.4858,0.5103,-0.5763,-0.4141
399,0.0,0.0,0.0,0.0,0.0,0.0,0.0063,1.0473,-0.0584,0.4886,0.5094,-0.5732,-0.4161
400,0.0,0.0,0.0,0.0,0.0,0.0,-0.0116,1.0287,-0.0729,0.4902,0.5096,-0.5703,-0.4181
401,0.0,0.0,0.0,0.0,0.0,0.0,0.0012,0.9842,-0.0864,0.4912,0.5105,-0.5674,-0.4197
402,0.0,0.0,0.0,0.0,0.0,0.0,0.0534,0.9562,-0.1064,0.4918,0.5113,-0.5660,-0.4200
403,0.0,0.0,0.0,0.0,0.0,0.0,0.0324,0.9633,-0.0844,0.4916,0.5126,-0.5650,-0.4200
404,0.0,0.0,0.0,0.0,0.0,0.0,-0.0057,0.9834,-0.0718,0.4899,0.5165,-0.5631,-0.4197
405,0.0,0.0,0.0,0.0,0.0,0.0,0.0081,0.9622,-0.1026,0.4860,0.5232,-0.5622,-0.4171
406,0.0,0.0,0.0,0.0,0.0,0.0,0.0125,0.9325,-0.0975,0.4796,0.5306,-0.5632,-0.4138
407,0.0,0.0,0.0,0.0,0.0,0.0,-0.0006,0.9495,-0.1006,0.4715,0.5376,-0.5663,-0.4099
408,0.0,0.0,0.0,0.0,0.0,0.0,0.0025,1.0165,-0.0677,0.4672,0.5397,-0.5684,-0.4092
409,0.0,0.0,0.0,0.0,0.0,0.0,0.0165,0.9829,-0.1243,0.4606,0.5413,-0.5740,-0.4067
410,0.0,0.0,0.0,0.0,0.0,0.0,-0.0013,0.9355,-0.1589,0.4540,0.5438,-0.5793,-0.4033
411,0.0,0.0,0.0,0.0,0.0,0.0,-0.0003,0.9524,-0.1762,0.4465,0.5466,-0.5851,-0.3994
412,0.0,0.0,0.0,0.0,0.0,0.0,0.0163,1.0498,-0.1093,0.4436,0.5478,-0.5884,-0.3961
413,0.0,0.0,0.0,0.0,0.0,0.0,-0.0250,1.0394,-0.1342,0.4409,0.5497,-0.5909,-0.3928
414,0.0,0.0,0.0,0.0,0.0,0.0,-0.0213,0.9860,-0.1772,0.4374,0.5509,-0.5934,-0.3914
415,0.0,0.0,0.0,0.0,0.0,0.0,0.0253,1.0031,-0.1620,0.4366,0.5507,-0.5947,-0.3904
416,0.0,0.0,0.0,0.0,0.0,0.0,0.0117,0.9997,-0.1653,0.4345,0.5504,-0.5971,-0.3895
417,0.0,0.0,0.0,0.0,0.0,0.0,0.0026,0.9801,-0.1823,0.4323,0.5490,-0.5998,-0.3897
418,0.0,0.0,0.0,0.0,0.0,0.0,-0.0238,0.9992,-0.1752,0.4307,0.5481,-0.6017,-0.3900
419,0.0,0.0,0.0,0.0,0.0,0.0,-0.0244,1.0217,-0.1571,0.4301,0.5475,-0.6026,-0.3901
420,0.0,0.0,0.0,0.0,0.0,0.0,-0.0058,1.0069,-0.1753,0.4292,0.5473,-0.6036,-0.3897
421,0.0,0.0,0.0,0.0,0.0,0.0,-0.0248,1.0066,-0.1615,0.4282,0.5472,-0.6043,-0.3899
422,0.0,0.0,0.0,0.0,0.0,0.0,-0.0239,1.0286,-0.1512,0.4287,0.5465,-0.6035,-0.3915
423,0.0,0.0,0.0,0.0,0.0,0.0,0.0030,1.0138,-0.1705,0.4298,0.5458,-0.6022,-0.3933
424,0.0,0.0,0.0,0.0,0.0,0.0,0.0036,0.9738,-0.1829,0.4304,0.5453,-0.6013,-0.3947
425,0.0,0.0,0.0,0.0,0.0,0.0,-0.0266,0.9806,-0.1782,0.4304,0.5449,-0.6005,-0.3965
426,0.0,0.0,0.0,0.0,0.0,0.0,-0.0184,0.9997,-0.1742,0.4312,0.5442,-0.5990,-0.3989
427,0.0,0.0,0.0,0.0,0.0,0.0,0.0011,0.9796,-0.1813,0.4322,0.5434,-0.5979,-0.4006
428,0.0,0.0,0.0,0.0,0.0,0.0,-0.0131,0.9890,-0.1623,0.4338,0.5424,-0.5960,-0.4030
429,0.0,0.0,0.0,0.0,0.0,0.0,-0.0263,1.0066,-0.1552,0.4354,0.5412,-0.5943,-0.4054
430,0.0,0.0,0.0,0.0,0.0,0.0,-0.0267,0.9813,-0.1559,0.4362,0.5404,-0.5930,-0.4076
431,0.0,0.0,0.0,0.0,0.0,0.0,-0.0287,0.9731,-0.1511,0.4367,0.5398,-0.5916,-0.4098
432,0.0,0.0,0.0,0.0,0.0,0.0,-0.0278,0.9902,-0.1345,0.4371,0.5392,-0.5902,-0.4121
433,0.0,0.0,0.0,0.0,0.0,0.0,-0.0288,0.9825,-0.1258,0.4383,0.5382,-0.5884,-0.4146
434,0.0,0.0,0.0,0.0,0.0,0.0,-0.0376,0.9728,-0.1244,0.4396,0.5370,-0.5865,-0.4176
435,0.0,0.0,0.0,0.0,0.0,0.0,-0.0405,0.9675,-0.1200,0.4407,0.5362,-0.5848,-0.4198
436,0.0,0.0,0.0,0.0,0.0,0.0,-0.0351,0.9650,-0.1201,0.4413,0.5358,-0.5835,-0.4215
437,0.0,0.0,0.0,0.0,0.0,0.0,-0.0498,0.9632,-0.1059,0.4417,0.5355,-0.5823,-0.4231
438,0.0,0.0,0.0,0.0,0.0,0.0,-0.0493,0.9617,-0.1093,0.4420,0.5354,-0.5814,-0.4242
439,0.0,0.0,0.0,0.0,0.0,0.0,-0.0551,0.9715,-0.1068,0.4423,0.5352,-0.5802,-0.4258
440,0.0,0.0,0.0,0.0,0.0,0.0,-0.0752,0.9804,-0.0954,0.4427,0.5355,-0.5786,-0.4271
441,0.0,0.0,0.0,0.0,0.0,0.0,-0.0805,0.9745,-0.0978,0.4428,0.5362,-0.5772,-0.4281
442,0.0,0.0,0.0,0.0,0.0,0.0,-0.0800,0.9741,-0.0881,0.4425,0.5370,-0.5761,-0.4290
443,0.0,0.0,0.0,0.0,0.0,0.0,-0.0766,0.9838,-0.0876,0.4429,0.5372,-0.5746,-0.4302
444,0.0,0.0,0.0,0.0,0.0,0.0,-0.0708,0.9779,-0.0969,0.4435,0.5373,-0.5734,-0.4310
445,0.0,0.0,0.0,0.0,0.0,0.0,-0.0932,0.9760,-0.0909,0.4427,0.5375,-0.5731,-0.4321
446,0.0,0.0,0.0,0.0,0.0,0.0,-0.0962,0.9991,-0.0679,0.4429,0.5373,-0.5719,-0.4336
447,0.0,0.0,0.0,0.0,0.0,0.0,-0.0801,0.9971,-0.0749,0.4435,0.5377,-0.5704,-0.4345
448,0.0,0.0,0.0,0.0,0.0,0.0,-0.0781,0.9716,-0.0901,0.4435,0.5381,-0.5694,-0.4354
449,0.0,0.0,0.0,0.0,0.0,0.0,-0.0850,0.9874,-0.0715,0.4437,0.5376,-0.5683,-0.4372
450,0.0,0.0,0.0,0.0,0.0,0.0,-0.0943,1.0025,-0.0704,0.4436,0.5376,-0.5672,-0.4387
451,0.0,0.0,0.0,0.0,0.0,0.0,-0.0933,1.0020,-0.0675,0.4437,0.5381,-0.5656,-0.4400
452,0.0,0.0,0.0,0.0,0.0,0.0,-0.0836,1.0050,-0.0603,0.4446,0.5387,-0.5633,-0.4414
453,0.0,0.0,0.0,0.0,0.0,0.0,-0.0884,0.9869,-0.0749,0.4454,0.5394,-0.5609,-0.4427
454,0.0,0.0,0.0,0.0,0.0,0.0,-0.0986,0.9898,-0.0733,0.4458,0.5402,-0.5583,-0.4446
455,0.0,0.0,0.0,0.0,0.0,0.0,-0.1124,1.0153,-0.0551,0.4466,0.5410,-0.5550,-0.4470
456,0.0,0.0,0.0,0.0,0.0,0.0,-0.1240,1.0065,-0.0599,0.4471,0.5426,-0.5513,-0.4491
457,0.0,0.0,0.0,0.0,0.0,0.0,-0.1430,0.9914,-0.0574,0.4477,0.5442,-0.5473,-0.4515
458,0.0,0.0,0.0,0.0,0.0,0.0,-0.1289,1.0003,-0.0463,0.4497,0.5448,-0.5431,-0.4539
459,0.0,0.0,0.0,0.0,0.0,0.0,-0.1303,0.9866,-0.0517,0.4522,0.5454,-0.5388,-0.4558
460,0.0,0.0,0.0,0.0,0.0,0.0,-0.1229,0.9607,-0.0612,0.4547,0.5454,-0.5349,-0.4579
461,0.0,0.0,0.0,0.0,0.0,0.0,-0.0928,0.9519,-0.0630,0.4575,0.5445,-0.5321,-0.4595
462,0.0,0.0,0.0,0.0,0.0,0.0,-0.0913,0.9514,-0.0630,0.4594,0.5432,-0.5308,-0.4606
463,0.0,0.0,0.0,0.0,0.0,0.0,-0.0981,0.9485,-0.0542,0.4608,0.5426,-0.5302,-0.4606
464,0.0,0.0,0.0,0.0,0.0,0.0,-0.0977,0.9549,-0.0474,0.4621,0.5420,-0.5299,-0.4604
465,0.0,0.0,0.0,0.0,0.0,0.0,-0.0879,0.9500,-0.0538,0.4626,0.5417,-0.5300,-0.4601
466,0.0,0.0,0.0,0.0,0.0,0.0,-0.0789,0.9945,-0.0221,0.4629,0.5407,-0.5307,-0.4601
467,0.0,0.0,0.0,0.0,0.0,0.0,-0.0881,0.9940,-0.0274,0.4620,0.5393,-0.5328,-0.4602
468,0.0,0.0,0.0,0.0,0.0,0.0,-0.0915,0.9916,-0.0269,0.4609,0.5377,-0.5350,-0.4607
469,0.0,0.0,0.0,0.0,0.0,0.0,-0.1043,1.0200,-0.0144,0.4613,0.5366,-0.5348,-0.4617
470,0.0,0.0,0.0,0.0,0.0,0.0,-0.0746,1.0204,-0.0171,0.4628,0.5357,-0.5341,-0.4621
471,0.0,0.0,0.0,0.0,0.0,0.0,-0.0703,1.0278,0.0018,0.4662,0.5326,-0.5315,-0.4653
472,0.0,0.0,0.0,0.0,0.0,0.0,-0.0872,1.0049,-0.0128,0.4672,0.5316,-0.5300,-0.4672
473,0.0,0.0,0.0,0.0,0.0,0.0,-0.0818,0.9702,-0.0208,0.4672,0.5301,-0.5292,-0.4698
474,0.0,0.0,0.0,0.0,0.0,0.0,-0.0769,0.9698,-0.0150,0.4666,0.5278,-0.5293,-0.4727
475,0.0,0.0,0.0,0.0,0.0,0.0,-0.0954,0.9708,-0.0081,0.4646,0.5265,-0.5306,-0.4748
476,0.0,0.0,0.0,0.0,0.0,0.0,-0.0887,0.9841,0.0075,0.4639,0.5257,-0.5307,-0.4762
477,0.0,0.0,0.0,0.0,0.0,0.0,-0.0939,0.9717,-0.0221,0.4621,0.5271,-0.5313,-0.4758
478,0.0,0.0,0.0,0.0,0.0,0.0,-0.1348,0.9708,-0.0130,0.4583,0.5298,-0.5325,-0.4751
479,0.0,0.0,0.0,0.0,0.0,0.0,-0.1526,1.0179,0.0228,0.4547,0.5328,-0.5322,-0.4756
480,0.0,0.0,0.0,0.0,0.0,0.0,-0.1201,1.0418,0.0338,0.4531,0.5338,-0.5301,-0.4781
481,0.0,0.0,0.0,0.0,0.0,0.0,-0.1099,1.0593,0.0329,0.4522,0.5327,-0.5286,-0.4820
482,0.0,0.0,0.0,0.0,0.0,0.0,-0.1502,1.0321,0.0389,0.4514,0.5328,-0.5258,-0.4857
483,0.0,0.0,0.0,0.0,0.0,0.0,-0.1403,0.9899,0.0041,0.4517,0.5338,-0.5208,-0.4896
484,0.0,0.0,0.0,0.0,0.0,0.0,-0.0970,0.9908,0.0008,0.4529,0.5358,-0.5160,-0.4914
485,0.0,0.0,0.0,0.0,0.0,0.0,-0.1146,0.9881,0.0203,0.4544,0.5372,-0.5121,-0.4927
486,0.0,0.0,0.0,0.0,0.0,0.0,-0.1705,0.9696,0.0115,0.4541,0.5396,-0.5092,-0.4933
487,0.0,0.0,0.0,0.0,0.0,0.0,-0.1656,0.9585,0.0264,0.4548,0.5419,-0.5059,-0.4936
488,0.0,0.0,0.0,0.0,0.0,0.0,-0.1280,0.9426,-0.0031,0.4555,0.5424,-0.5039,-0.4944
489,0.0,0.0,0.0,0.0,0.0,0.0,-0.1665,0.9544,0.0070,0.4557,0.5442,-0.5014,-0.4948
490,0.0,0.0,0.0,0.0,0.0,0.0,-0.2230,0.9439,0.0244,0.4550,0.5479,-0.4979,-0.4948
491,0.0,0.0,0.0,0.0,0.0,0.0,-0.1582,0.9277,0.0097,0.4546,0.5504,-0.4956,-0.4948
492,0.0,0.0,0.0,0.0,0.0,0.0,-0.1557,0.9099,-0.0147,0.4512,0.5534,-0.4968,-0.4934
493,0.0,0.0,0.0,0.0,0.0,0.0,-0.1699,0.9223,0.0073,0.4483,0.5561,-0.4988,-0.4909
494,0.0,0.0,0.0,0.0,0.0,0.0,-0.1582,0.9437,0.0001,0.4465,0.5582,-0.5011,-0.4879
495,0.0,0.0,0.0,0.0,0.0,0.0,-0.1814,0.9201,-0.0260,0.4433,0.5611,-0.5050,-0.4833
496,0.0,0.0,0.0,0.0,0.0,0.0,-0.1993,0.9190,-0.0501,0.4371,0.5664,-0.5109,-0.4766
497,0.0,0.0,0.0,0.0,0.0,0.0,-0.2137,0.9870,-0.0142,0.4314,0.5710,-0.5159,-0.4708
498,0.0,0.0,0.0,0.0,0.0,0.0,-0.1826,1.0221,-0.0089,0.4290,0.5722,-0.5196,-0.4674
499,0.0,0.0,0.0,0.0,0.0,0.0,-0.1545,0.9582,-0.0730,0.4260,0.5725,-0.5251,-0.4637
500,0.0,0.0,0.0,0.0,0.0,0.0,-0.1794,0.9748,-0.0678,0.4240,0.5726,-0.5297,-0.4601
501,0.0,0.0,0.0,0.0,0.0,0.0,-0.1708,1.0315,-0.0443,0.4266,0.5708,-0.5312,-0.4582
502,0.0,0.0,0.0,0.0,0.0,0.0,-0.1443,0.9888,-0.0807,0.4291,0.5682,-0.5331,-0.4570
503,0.0,0.0,0.0,0.0,0.0,0.0,-0.1384,0.9571,-0.0877,0.4316,0.5645,-0.5347,-0.4573
504,0.0,0.0,0.0,0.0,0.0,0.0,-0.1429,0.9859,-0.0792,0.4333,0.5607,-0.5369,-0.4579
505,0.0,0.0,0.0,0.0,0.0,0.0,-0.1576,1.0090,-0.0557,0.4360,0.5564,-0.5390,-0.4580
506,0.0,0.0,0.0,0.0,0.0,0.0,-0.1605,1.0022,-0.0562,0.4382,0.5523,-0.5408,-0.4588
507,0.0,0.0,0.0,0.0,0.0,0.0,-0.1278,0.9846,-0.0629,0.4398,0.5496,-0.5423,-0.4587
508,0.0,0.0,0.0,0.0,0.0,0.0,-0.0961,0.9542,-0.0789,0.4410,0.5480,-0.5443,-0.4571
509,0.0,0.0,0.0,0.0,0.0,0.0,-0.1209,0.9634,-0.0864,0.4410,0.5473,-0.5460,-0.4559
510,0.0,0.0,0.0,0.0,0.0,0.0,-0.1411,1.0134,-0.0577,0.4409,0.5469,-0.5480,-0.4540
511,0.0,0.0,0.0,0.0,0.0,0.0,-0.1631,1.0458,-0.0263,0.4417,0.5460,-0.5490,-0.4533
512,0.0,0.0,0.0,0.0,0.0,0.0,-0.1586,1.0046,-0.0581,0.4411,0.5455,-0.5496,-0.4536
513,0.0,0.0,0.0,0.0,0.0,0.0,-0.1073,0.9693,-0.0806,0.4399,0.5451,-0.5506,-0.4540
514,0.0,0.0,0.0,0.0,0.0,0.0,-0.0927,0.9590,-0.0837,0.4380,0.5448,-0.5522,-0.4543
515,0.0,0.0,0.0,0.0,0.0,0.0,-0.0947,0.9800,-0.0816,0.4368,0.5445,-0.5539,-0.4539
516,0.0,0.0,0.0,0.0,0.0,0.0,-0.0778,1.0147,-0.0632,0.4385,0.5430,-0.5540,-0.4538
517,0.0,0.0,0.0,0.0,0.0,0.0,-0.0884,0.9883,-0.0821,0.4403,0.5422,-0.5537,-0.4534
518,0.0,0.0,0.0,0.0,0.0,0.0,-0.0912,0.9619,-0.0905,0.4409,0.5421,-0.5542,-0.4523
519,0.0,0.0,0.0,0.0,0.0,0.0,-0.0791,0.9888,-0.0793,0.4421,0.5416,-0.5545,-0.4514
520,0.0,0.0,0.0,0.0,0.0,0.0,-0.0752,0.9912,-0.0832,0.4427,0.5410,-0.5560,-0.4496
521,0.0,0.0,0.0,0.0,0.0,0.0,-0.0821,0.9966,-0.0778,0.4430,0.5392,-0.5581,-0.4489
522,0.0,0.0,0.0,0.0,0.0,0.0,-0.0733,0.9951,-0.0793,0.4431,0.5370,-0.5607,-0.4482
523,0.0,0.0,0.0,0.0,0.0,0.0,-0.0795,0.9745,-0.0959,0.4422,0.5361,-0.5640,-0.4461
524,0.0,0.0,0.0,0.0,0.0,0.0,-0.0826,1.0249,-0.0708,0.4417,0.5346,-0.5669,-0.4447
525,0.0,0.0,0.0,0.0,0.0,0.0,-0.0661,1.0400,-0.0607,0.4425,0.5335,-0.5680,-0.4438
526,0.0,0.0,0.0,0.0,0.0,0.0,-0.0573,1.0228,-0.0851,0.4451,0.5325,-0.5664,-0.4444
527,0.0,0.0,0.0,0.0,0.0,0.0,-0.0929,1.0328,-0.0595,0.4479,0.5316,-0.5640,-0.4457
528,0.0,0.0,0.0,0.0,0.0,0.0,-0.0836,0.9908,-0.0657,0.4488,0.5315,-0.5622,-0.4472
529,0.0,0.0,0.0,0.0,0.0,0.0,-0.0563,0.9897,-0.0771,0.4495,0.5303,-0.5605,-0.4502
530,0.0,0.0,0.0,0.0,0.0,0.0,-0.0896,1.0115,-0.0330,0.4498,0.5283,-0.5598,-0.4530
531,0.0,0.0,0.0,0.0,0.0,0.0,-0.0855,0.9617,-0.0571,0.4504,0.5275,-0.5581,-0.4555
532,0.0,0.0,0.0,0.0,0.0,0.0,-0.0274,0.9472,-0.0849,0.4526,0.5269,-0.5558,-0.4568
533,0.0,0.0,0.0,0.0,0.0,0.0,-0.0436,0.9640,-0.0638,0.4540,0.5264,-0.5554,-0.4564
534,0.0,0.0,0.0,0.0,0.0,0.0,-0.0836,0.9817,-0.0430,0.4544,0.5260,-0.5551,-0.4569
535,0.0,0.0,0.0,0.0,0.0,0.0,-0.0803,1.0038,-0.0249,0.4559,0.5249,-0.5540,-0.4579
536,0.0,0.0,0.0,0.0,0.0,0.0,-0.0570,1.0087,-0.0164,0.4581,0.5224,-0.5531,-0.4597
537,0.0,0.0,0.0,0.0,0.0,0.0,-0.0526,0.9969,-0.0233,0.4597,0.5199,-0.5529,-0.4612
538,0.0,0.0,0.0,0.0,0.0,0.0,-0.0535,0.9789,-0.0302,0.4610,0.5178,-0.5528,-0.4624
539,0.0,0.0,0.0,0.0,0.0,0.0,-0.0456,0.9651,-0.0454,0.4620,0.5167,-0.5528,-0.4626
540,0.0,0.0,0.0,0.0,0.0,0.0,-0.0628,0.9834,-0.0155,0.4632,0.5161,-0.5526,-0.4623
541,0.0,0.0,0.0,0.0,0.0,0.0,-0.0698,1.0089,0.0118,0.4654,0.5148,-0.5518,-0.4625
542,0.0,0.0,0.0,0.0,0.0,0.0,-0.0457,0.9744,-0.0351,0.4670,0.5146,-0.5517,-0.4613
543,0.0,0.0,0.0,0.0,0.0,0.0,-0.0749,0.9550,-0.0292,0.4670,0.5159,-0.5520,-0.4594
544,0.0,0.0,0.0,0.0,0.0,0.0,-0.0842,0.9853,-0.0187,0.4658,0.5186,-0.5528,-0.4566
545,0.0,0.0,0.0,0.0,0.0,0.0,-0.0599,1.0091,-0.0217,0.4643,0.5210,-0.5544,-0.4534
546,0.0,0.0,0.0,0.0,0.0,0.0,-0.0439,1.0418,-0.0226,0.4631,0.5221,-0.5562,-0.4512
547,0.0,0.0,0.0,0.0,0.0,0.0,-0.0819,1.0496,-0.0222,0.4622,0.5244,-0.5564,-0.4493
548,0.0,0.0,0.0,0.0,0.0,0.0,-0.0960,1.0321,-0.0236,0.4614,0.5277,-0.5544,-0.4486
549,0.0,0.0,0.0,0.0,0.0,0.0,-0.0511,1.0256,-0.0362,0.4613,0.5298,-0.5524,-0.4488
550,0.0,0.0,0.0,0.0,0.0,0.0,-0.0354,0.9845,-0.0526,0.4600,0.5307,-0.5521,-0.4494
551,0.0,0.0,0.0,0.0,0.0,0.0,-0.0461,0.9650,-0.0609,0.4585,0.5306,-0.5525,-0.4505
552,0.0,0.0,0.0,0.0,0.0,0.0,-0.0387,0.9547,-0.0697,0.4572,0.5301,-0.5531,-0.4517
553,0.0,0.0,0.0,0.0,0.0,0.0,-0.0480,0.9591,-0.0648,0.4575,0.5301,-0.5526,-0.4521
554,0.0,0.0,0.0,0.0,0.0,0.0,-0.0538,0.9527,-0.0735,0.4588,0.5306,-0.5510,-0.4520
555,0.0,0.0,0.0,0.0,0.0,0.0,-0.0524,0.9665,-0.0545,0.4613,0.5311,-0.5489,-0.4513
556,0.0,0.0,0.0,0.0,0.0,0.0,-0.0682,1.0160,-0.0235,0.4651,0.5301,-0.5464,-0.4518
557,0.0,0.0,0.0,0.0,0.0,0.0,-0.0846,0.9939,-0.0492,0.4660,0.5293,-0.5455,-0.4529
558,0.0,0.0,0.0,0.0,0.0,0.0,-0.0915,0.9974,-0.0346,0.4667,0.5281,-0.5444,-0.4549
559,0.0,0.0,0.0,0.0,0.0,0.0,-0.0638,1.0218,-0.0269,0.4677,0.5259,-0.5436,-0.4573
560,0.0,0.0,0.0,0.0,0.0,0.0,-0.0492,1.0042,-0.0257,0.4688,0.5239,-0.5429,-0.4593
561,0.0,0.0,0.0,0.0,0.0,0.0,-0.0437,0.9802,-0.0443,0.4710,0.5219,-0.5414,-0.4612
562,0.0,0.0,0.0,0.0,0.0,0.0,-0.0695,0.9739,-0.0388,0.4724,0.5218,-0.5397,-0.4619
563,0.0,0.0,0.0,0.0,0.0,0.0,-0.0818,0.9878,-0.0192,0.4737,0.5219,-0.5381,-0.4623
564,0.0,0.0,0.0,0.0,0.0,0.0,-0.0774,0.9964,-0.0366,0.4730,0.5225,-0.5384,-0.4620
565,0.0,0.0,0.0,0.0,0.0,0.0,-0.1051,0.9989,-0.0315,0.4702,0.5240,-0.5396,-0.4618
566,0.0,0.0,0.0,0.0,0.0,0.0,-0.1010,0.9514,-0.0571,0.4644,0.5287,-0.5421,-0.4593
567,0.0,0.0,0.0,0.0,0.0,0.0,-0.0401,0.9297,-0.0820,0.4589,0.5344,-0.5447,-0.4552
568,0.0,0.0,0.0,0.0,0.0,0.0,0.0153,0.9818,-0.0875,0.4570,0.5350,-0.5471,-0.4535
569,0.0,0.0,0.0,0.0,0.0,0.0,-0.0650,0.9941,-0.0736,0.4558,0.5354,-0.5492,-0.4516
570,0.0,0.0,0.0,0.0,0.0,0.0,-0.1072,0.9245,-0.0809,0.4539,0.5382,-0.5500,-0.4492
571,0.0,0.0,0.0,0.0,0.0,0.0,-0.0226,0.9462,-0.0917,0.4529,0.5383,-0.5512,-0.4487
572,0.0,0.0,0.0,0.0,0.0,0.0,-0.0173,0.9751,-0.0722,0.4504,0.5359,-0.5552,-0.4491
573,0.0,0.0,0.0,0.0,0.0,0.0,-0.0470,0.9634,-0.0807,0.4480,0.5338,-0.5589,-0.4494
574,0.0,0.0,0.0,0.0,0.0,0.0,-0.0524,0.9839,-0.0728,0.4471,0.5327,-0.5609,-0.4492
575,0.0,0.0,0.0,0.0,0.0,0.0,-0.0520,1.0216,-0.0488,0.4475,0.5316,-0.5619,-0.4488
576,0.0,0.0,0.0,0.0,0.0,0.0,-0.0500,0.9971,-0.0693,0.4475,0.5316,-0.5628,-0.4477
577,0.0,0.0,0.0,0.0,0.0,0.0,-0.0383,1.0005,-0.0718,0.4466,0.5323,-0.5642,-0.4460
578,0.0,0.0,0.0,0.0,0.0,0.0,-0.0453,1.0401,-0.0449,0.4461,0.5322,-0.5661,-0.4442
579,0.0,0.0,0.0,0.0,0.0,0.0,-0.0637,1.0377,-0.0500,0.4449,0.5319,-0.5684,-0.4428
580,0.0,0.0,0.0,0.0,0.0,0.0,-0.0715,1.0367,-0.0505,0.4435,0.5320,-0.5706,-0.4414
581,0.0,0.0,0.0,0.0,0.0,0.0,-0.0535,1.0381,-0.0623,0.4415,0.5329,-0.5728,-0.4393
582,0.0,0.0,0.0,0.0,0.0,0.0,-0.0657,1.0509,-0.0432,0.4400,0.5329,-0.5744,-0.4387
583,0.0,0.0,0.0,0.0,0.0,0.0,-0.0789,1.0562,-0.0464,0.4394,0.5328,-0.5753,-0.4382
584,0.0,0.0,0.0,0.0,0.0,0.0,-0.0842,1.0250,-0.0490,0.4386,0.5327,-0.5758,-0.4386
585,0.0,0.0,0.0,0.0,0.0,0.0,-0.0723,0.9819,-0.0799,0.4376,0.5334,-0.5758,-0.4388
586,0.0,0.0,0.0,0.0,0.0,0.0,-0.0776,0.9770,-0.0896,0.4363,0.5350,-0.5759,-0.4380
587,0.0,0.0,0.0,0.0,0.0,0.0,-0.0884,0.9883,-0.0715,0.4341,0.5368,-0.5770,-0.4364
588,0.0,0.0,0.0,0.0,0.0,0.0,-0.0952,0.9986,-0.0752,0.4318,0.5386,-0.5787,-0.4342
589,0.0,0.0,0.0,0.0,0.0,0.0,-0.0834,0.9764,-0.0978,0.4291,0.5403,-0.5811,-0.4316
590,0.0,0.0,0.0,0.0,0.0,0.0,-0.0853,0.9739,-0.1147,0.4274,0.5415,-0.5826,-0.4297
591,0.0,0.0,0.0,0.0,0.0,0.0,-0.0930,0.9607,-0.1273,0.4257,0.5432,-0.5837,-0.4277
592,0.0,0.0,0.0,0.0,0.0,0.0,-0.0822,0.9567,-0.1362,0.4241,0.5447,-0.5847,-0.4261
593,0.0,0.0,0.0,0.0,0.0,0.0,-0.0669,1.0086,-0.0928,0.4256,0.5456,-0.5838,-0.4246
594,0.0,0.0,0.0,0.0,0.0,0.0,-0.0785,1.0006,-0.1199,0.4260,0.5474,-0.5829,-0.4232
595,0.0,0.0,0.0,0.0,0.0,0.0,-0.0914,0.9507,-0.1604,0.4253,0.5499,-0.5817,-0.4224
596,0.0,0.0,0.0,0.0,0.0,0.0,-0.0768,0.9512,-0.1518,0.4245,0.5516,-0.5814,-0.4213
597,0.0,0.0,0.0,0.0,0.0,0.0,-0.0482,0.9814,-0.1450,0.4244,0.5526,-0.5814,-0.4200
598,0.0,0.0,0.0,0.0,0.0,0.0,-0.0515,0.9740,-0.1552,0.4248,0.5537,-0.5814,-0.4183
599,0.0,0.0,0.0,0.0,0.0,0.0,-0.0846,0.9735,-0.1729,0.4253,0.5556,-0.5806,-0.4164
600,0.0,0.0,0.0,0.0,0.0,0.0,-0.0861,0.9945,-0.1543,0.4266,0.5578,-0.5790,-0.4143
601,0.0,0.0,0.0,0.0,0.0,0.0,-0.0740,1.0107,-0.1475,0.4293,0.5595,-0.5763,-0.4129
602,0.0,0.0,0.0,0.0,0.0,0.0,-0.0822,0.9853,-0.1549,0.4309,0.5612,-0.5742,-0.4119
603,0.0,0.0,0.0,0.0,0.0,0.0,-0.0911,1.0102,-0.1454,0.4327,0.5623,-0.5716,-0.4121
604,0.0,0.0,0.0,0.0,0.0,0.0,-0.0794,1.0063,-0.1460,0.4346,0.5624,-0.5696,-0.4128
605,0.0,0.0,0.0,0.0,0.0,0.0,-0.0774,0.9911,-0.1520,0.4363,0.5621,-0.5679,-0.4138
606,0.0,0.0,0.0,0.0,0.0,0.0,-0.0851,0.9887,-0.1558,0.4379,0.5616,-0.5662,-0.4150
607,0.0,0.0,0.0,0.0,0.0,0.0,-0.0886,1.0010,-0.1441,0.4405,0.5607,-0.5639,-0.4167
608,0.0,0.0,0.0,0.0,0.0,0.0,-0.0794,1.0064,-0.1349,0.4446,0.5591,-0.5608,-0.4186
609,0.0,0.0,0.0,0.0,0.0,0.0,-0.0742,1.0172,-0.1145,0.4503,0.5569,-0.5565,-0.4212
610,0.0,0.0,0.0,0.0,0.0,0.0,-0.1112,1.0037,-0.1070,0.4551,0.5546,-0.5516,-0.4254
611,0.0,0.0,0.0,0.0,0.0,0.0,-0.1340,0.9759,-0.1080,0.4574,0.5535,-0.5467,-0.4307
612,0.0,0.0,0.0,0.0,0.0,0.0,-0.1234,0.9888,-0.0857,0.4607,0.5536,-0.5405,-0.4349
613,0.0,0.0,0.0,0.0,0.0,0.0,-0.1180,0.9732,-0.0873,0.4618,0.5547,-0.5357,-0.4383
614,0.0,0.0,0.0,0.0,0.0,0.0,-0.0771,0.9571,-0.0824,0.4634,0.5542,-0.5320,-0.4417
615,0.0,0.0,0.0,0.0,0.0,0.0,-0.0860,0.9777,-0.0648,0.4655,0.5534,-0.5288,-0.4442
616,0.0,0.0,0.0,0.0,0.0,0.0,-0.1435,0.9832,-0.0492,0.4670,0.5555,-0.5251,-0.4445
617,0.0,0.0,0.0,0.0,0.0,0.0,-0.1820,0.9878,-0.0299,0.4681,0.5586,-0.5203,-0.4452
618,0.0,0.0,0.0,0.0,0.0,0.0,-0.1581,0.9765,-0.0438,0.4687,0.5608,-0.5158,-0.4469
619,0.0,0.0,0.0,0.0,0.0,0.0,-0.1230,0.9695,-0.0572,0.4683,0.5616,-0.5131,-0.4495
620,0.0,0.0,0.0,0.0,0.0,0.0,-0.1703,0.9848,-0.0344,0.4663,0.5618,-0.5121,-0.4524
621,0.0,0.0,0.0,0.0,0.0,0.0,-0.2025,0.9830,-0.0245,0.4627,0.5627,-0.5112,-0.4560
622,0.0,0.0,0.0,0.0,0.0,0.0,-0.1755,0.9530,-0.0598,0.4583,0.5632,-0.5110,-0.4600
623,0.0,0.0,0.0,0.0,0.0,0.0,-0.1634,0.9584,-0.0477,0.4535,0.5628,-0.5113,-0.4648
624,0.0,0.0,0.0,0.0,0.0,0.0,-0.1971,0.9811,-0.0206,0.4500,0.5626,-0.5112,-0.4687
625,0.0,0.0,0.0,0.0,0.0,0.0,-0.1903,0.9655,-0.0184,0.4481,0.5624,-0.5099,-0.4722
626,0.0,0.0,0.0,0.0,0.0,0.0,-0.1543,0.9820,-0.0128,0.4496,0.5611,-0.5053,-0.4772
627,0.0,0.0,0.0,0.0,0.0,0.0,-0.1504,0.9645,-0.0091,0.4510,0.5597,-0.5019,-0.4810
628,0.0,0.0,0.0,0.0,0.0,0.0,-0.1702,0.9230,-0.0339,0.4488,0.5578,-0.5024,-0.4848
629,0.0,0.0,0.0,0.0,0.0,0.0,-0.1845,0.9534,-0.0103,0.4457,0.5579,-0.5024,-0.4876
630,0.0,0.0,0.0,0.0,0.0,0.0,-0.1736,0.9308,-0.0270,0.4418,0.5592,-0.5036,-0.4884
631,0.0,0.0,0.0,0.0,0.0,0.0,-0.1335,0.8920,-0.0644,0.4361,0.5619,-0.5085,-0.4853
632,0.0,0.0,0.0,0.0,0.0,0.0,-0.1823,0.9277,-0.0526,0.4305,0.5646,-0.5150,-0.4802
633,0.0,0.0,0.0,0.0,0.0,0.0,-0.2001,1.0099,-0.0083,0.4271,0.5657,-0.5214,-0.4751
634,0.0,0.0,0.0,0.0,0.0,0.0,-0.1729,1.0600,-0.0126,0.4276,0.5637,-0.5241,-0.4740
635,0.0,0.0,0.0,0.0,0.0,0.0,-0.2153,1.0639,-0.0175,0.4276,0.5604,-0.5261,-0.4757
636,0.0,0.0,0.0,0.0,0.0,0.0,-0.2437,0.9609,-0.0509,0.4264,0.5596,-0.5272,-0.4765
637,0.0,0.0,0.0,0.0,0.0,0.0,-0.1769,0.9490,-0.0685,0.4262,0.5588,-0.5255,-0.4795
638,0.0,0.0,0.0,0.0,0.0,0.0,-0.1235,0.9953,-0.0595,0.4262,0.5564,-0.5251,-0.4827
639,0.0,0.0,0.0,0.0,0.0,0.0,-0.1659,0.9868,-0.0335,0.4259,0.5540,-0.5253,-0.4855
640,0.0,0.0,0.0,0.0,0.0,0.0,-0.1976,0.9645,-0.0232,0.4270,0.5528,-0.5237,-0.4877
641,0.0,0.0,0.0,0.0,0.0,0.0,-0.1469,0.9434,-0.0276,0.4301,0.5509,-0.5207,-0.4903
642,0.0,0.0,0.0,0.0,0.0,0.0,-0.1040,0.9462,-0.0377,0.4334,0.5481,-0.5178,-0.4936
643,0.0,0.0,0.0,0.0,0.0,0.0,-0.1781,0.9527,-0.0263,0.4339,0.5485,-0.5155,-0.4951
644,0.0,0.0,0.0,0.0,0.0,0.0,-0.2219,0.9588,-0.0065,0.4319,0.5525,-0.5131,-0.4949
645,0.0,0.0,0.0,0.0,0.0,0.0,-0.2142,0.9642,-0.0017,0.4289,0.5555,-0.5116,-0.4956
646,0.0,0.0,0.0,0.0,0.0,0.0,-0.2094,0.9789,0.0105,0.4250,0.5563,-0.5120,-0.4978
647,0.0,0.0,0.0,0.0,0.0,0.0,-0.1714,0.9777,-0.0049,0.4223,0.5559,-0.5139,-0.4986
648,0.0,0.0,0.0,0.0,0.0,0.0,-0.1381,0.9468,-0.0301,0.4205,0.5545,-0.5170,-0.4985
649,0.0,0.0,0.0,0.0,0.0,0.0,-0.1941,0.9303,-0.0322,0.4173,0.5556,-0.5207,-0.4960
650,0.0,0.0,0.0,0.0,0.0,0.0,-0.1868,0.9639,-0.0320,0.4167,0.5570,-0.5223,-0.4933
651,0.0,0.0,0.0,0.0,0.0,0.0,-0.1938,1.0084,-0.0132,0.4174,0.5579,-0.5232,-0.4908
652,0.0,0.0,0.0,0.0,0.0,0.0,-0.2176,0.9812,-0.0093,0.4167,0.5582,-0.5254,-0.4885
653,0.0,0.0,0.0,0.0,0.0,0.0,-0.1668,0.9384,-0.0483,0.4158,0.5568,-0.5283,-0.4878
654,0.0,0.0,0.0,0.0,0.0,0.0,-0.1477,0.9387,-0.0718,0.4136,0.5553,-0.5330,-0.4864
655,0.0,0.0,0.0,0.0,0.0,0.0,-0.2078,0.9932,-0.0311,0.4122,0.5546,-0.5364,-0.4845
656,0.0,0.0,0.0,0.0,0.0,0.0,-0.2326,0.9956,-0.0381,0.4128,0.5550,-0.5374,-0.4824
657,0.0,0.0,0.0,0.0,0.0,0.0,-0.1798,0.9568,-0.0718,0.4144,0.5559,-0.5378,-0.4795
658,0.0,0.0,0.0,0.0,0.0,0.0,-0.1555,0.9631,-0.0749,0.4156,0.5563,-0.5393,-0.4764
659,0.0,0.0,0.0,0.0,0.0,0.0,-0.1892,0.9915,-0.0584,0.4147,0.5560,-0.5423,-0.4741
660,0.0,0.0,0.0,0.0,0.0,0.0,-0.1926,0.9988,-0.0622,0.4135,0.5556,-0.5448,-0.4728
661,0.0,0.0,0.0,0.0,0.0,0.0,-0.1775,0.9963,-0.0677,0.4134,0.5544,-0.5462,-0.4726
662,0.0,0.0,0.0,0.0,0.0,0.0,-0.1667,0.9904,-0.0746,0.4138,0.5539,-0.5473,-0.4717
663,0.0,0.0,0.0,0.0,0.0,0.0,-0.1574,0.9625,-0.0894,0.4138,0.5545,-0.5488,-0.4692
664,0.0,0.0,0.0,0.0,0.0,0.0,-0.1443,0.9751,-0.0875,0.4144,0.5554,-0.5498,-0.4664
665,0.0,0.0,0.0,0.0,0.0,0.0,-0.1355,0.9941,-0.0894,0.4151,0.5561,-0.5509,-0.4636
666,0.0,0.0,0.0,0.0,0.0,0.0,-0.1345,0.9902,-0.0938,0.4154,0.5565,-0.5525,-0.4610
667,0.0,0.0,0.0,0.0,0.0,0.0,-0.1414,1.0058,-0.0893,0.4160,0.5566,-0.5533,-0.4594
668,0.0,0.0,0.0,0.0,0.0,0.0,-0.1379,0.9818,-0.1089,0.4163,0.5568,-0.5542,-0.4578
669,0.0,0.0,0.0,0.0,0.0,0.0,-0.1218,0.9769,-0.1124,0.4172,0.5574,-0.5546,-0.4557
670,0.0,0.0,0.0,0.0,0.0,0.0,-0.1130,0.9822,-0.1154,0.4186,0.5579,-0.5550,-0.4534
671,0.0,0.0,0.0,0.0,0.0,0.0,-0.1252,0.9778,-0.1158,0.4201,0.5584,-0.5550,-0.4513
672,0.0,0.0,0.0,0.0,0.0,0.0,-0.1281,0.9822,-0.1196,0.4218,0.5589,-0.5550,-0.4491
673,0.0,0.0,0.0,0.0,0.0,0.0,-0.1164,0.9767,-0.1323,0.4237,0.5595,-0.5550,-0.4466
674,0.0,0.0,0.0,0.0,0.0,0.0,-0.1135,0.9826,-0.1241,0.4256,0.5594,-0.5554,-0.4444
675,0.0,0.0,0.0,0.0,0.0,0.0,-0.1111,0.9948,-0.1187,0.4284,0.5585,-0.5551,-0.4431
676,0.0,0.0,0.0,0.0,0.0,0.0,-0.1241,0.9791,-0.1366,0.4305,0.5574,-0.5557,-0.4418
677,0.0,0.0,0.0,0.0,0.0,0.0,-0.1339,0.9704,-0.1317,0.4313,0.5561,-0.5576,-0.4402
678,0.0,0.0,0.0,0.0,0.0,0.0,-0.1368,0.9710,-0.1215,0.4330,0.5549,-0.5587,-0.4386
679,0.0,0.0,0.0,0.0,0.0,0.0,-0.1227,0.9738,-0.1279,0.4353,0.5535,-0.5593,-0.4374
680,0.0,0.0,0.0,0.0,0.0,0.0,-0.1193,0.9836,-0.1245,0.4364,0.5523,-0.5608,-0.4360
681,0.0,0.0,0.0,0.0,0.0,0.0,-0.1306,0.9935,-0.1025,0.4379,0.5517,-0.5615,-0.4343
682,0.0,0.0,0.0,0.0,0.0,0.0,-0.1067,0.9763,-0.1184,0.4403,0.5505,-0.5613,-0.4337
683,0.0,0.0,0.0,0.0,0.0,0.0,-0.1028,0.9724,-0.1228,0.4408,0.5491,-0.5623,-0.4335
684,0.0,0.0,0.0,0.0,0.0,0.0,-0.1224,1.0062,-0.0996,0.4409,0.5477,-0.5636,-0.4335
685,0.0,0.0,0.0,0.0,0.0,0.0,-0.1293,1.0200,-0.0854,0.4404,0.5480,-0.5646,-0.4324
686,0.0,0.0,0.0,0.0,0.0,0.0,-0.1126,1.0028,-0.0988,0.4401,0.5484,-0.5646,-0.4322
687,0.0,0.0,0.0,0.0,0.0,0.0,-0.0773,0.9605,-0.1469,0.4383,0.5499,-0.5659,-0.4304
688,0.0,0.0,0.0,0.0,0.0,0.0,-0.0715,0.9634,-0.1411,0.4350,0.5516,-0.5690,-0.4275
689,0.0,0.0,0.0,0.0,0.0,0.0,-0.0673,1.0167,-0.1185,0.4335,0.5518,-0.5717,-0.4251
690,0.0,0.0,0.0,0.0,0.0,0.0,-0.0950,1.0181,-0.1255,0.4324,0.5523,-0.5736,-0.4230
691,0.0,0.0,0.0,0.0,0.0,0.0,-0.0906,1.0122,-0.1357,0.4327,0.5529,-0.5731,-0.4226
692,0.0,0.0,0.0,0.0,0.0,0.0,-0.0687,1.0156,-0.1359,0.4348,0.5528,-0.5710,-0.4236
693,0.0,0.0,0.0,0.0,0.0,0.0,-0.0897,1.0215,-0.1284,0.4357,0.5520,-0.5692,-0.4260
694,0.0,0.0,0.0,0.0,0.0,0.0,-0.1062,1.0031,-0.1187,0.4357,0.5511,-0.5675,-0.4294
695,0.0,0.0,0.0,0.0,0.0,0.0,-0.0823,0.9962,-0.1272,0.4365,0.5501,-0.5645,-0.4338
696,0.0,0.0,0.0,0.0,0.0,0.0,-0.0833,0.9903,-0.1301,0.4369,0.5499,-0.5615,-0.4376
697,0.0,0.0,0.0,0.0,0.0,0.0,-0.0902,0.9750,-0.1021,0.4374,0.5491,-0.5586,-0.4418
698,0.0,0.0,0.0,0.0,0.0,0.0,-0.1044,0.9878,-0.0854,0.4392,0.5478,-0.5547,-0.4464
699,0.0,0.0,0.0,0.0,0.0,0.0,-0.0989,0.9462,-0.1075,0.4407,0.5472,-0.5518,-0.4493
700,0.0,0.0,0.0,0.0,0.0,0.0,-0.1048,0.9483,-0.0876,0.4419,0.5468,-0.5494,-0.4516
701,0.0,0.0,0.0,0.0,0.0,0.0,-0.1366,0.9768,-0.0614,0.4413,0.5460,-0.5488,-0.4538
702,0.0,0.0,0.0,0.0,0.0,0.0,-0.1268,0.9499,-0.0753,0.4406,0.5450,-0.5489,-0.4556
703,0.0,0.0,0.0,0.0,0.0,0.0,-0.1131,0.9322,-0.0871,0.4399,0.5448,-0.5492,-0.4562
704,0.0,0.0,0.0,0.0,0.0,0.0,-0.1103,0.9607,-0.0627,0.4393,0.5446,-0.5497,-0.4563
705,0.0,0.0,0.0,0.0,0.0,0.0,-0.1080,0.9930,-0.0393,0.4399,0.5429,-0.5503,-0.4570
706,0.0,0.0,0.0,0.0,0.0,0.0,-0.1249,0.9690,-0.0553,0.4395,0.5418,-0.5511,-0.4578
707,0.0,0.0,0.0,0.0,0.0,0.0,-0.1074,0.9626,-0.0594,0.4397,0.5407,-0.5512,-0.4587
708,0.0,0.0,0.0,0.0,0.0,0.0,-0.0997,0.9774,-0.0448,0.4394,0.5403,-0.5527,-0.4578
709,0.0,0.0,0.0,0.0,0.0,0.0,-0.1230,0.9691,-0.0495,0.4368,0.5403,-0.5554,-0.4569
710,0.0,0.0,0.0,0.0,0.0,0.0,-0.1317,0.9734,-0.0610,0.4342,0.5412,-0.5581,-0.4551
711,0.0,0.0,0.0,0.0,0.0,0.0,-0.1244,0.9689,-0.0761,0.4315,0.5430,-0.5607,-0.4523
712,0.0,0.0,0.0,0.0,0.0,0.0,-0.1011,0.9986,-0.0757,0.4316,0.5438,-0.5611,-0.4508
713,0.0,0.0,0.0,0.0,0.0,0.0,-0.1070,1.0377,-0.0564,0.4342,0.5429,-0.5599,-0.4509
714,0.0,0.0,0.0,0.0,0.0,0.0,-0.1274,1.0001,-0.0667,0.4358,0.5423,-0.5589,-0.4512
715,0.0,0.0,0.0,0.0,0.0,0.0,-0.1223,0.9638,-0.0975,0.4364,0.5425,-0.5573,-0.4524
716,0.0,0.0,0.0,0.0,0.0,0.0,-0.0967,1.0005,-0.0791,0.4372,0.5414,-0.5572,-0.4532
717,0.0,0.0,0.0,0.0,0.0,0.0,-0.1196,0.9996,-0.0735,0.4370,0.5395,-0.5574,-0.4553
718,0.0,0.0,0.0,0.0,0.0,0.0,-0.1156,0.9678,-0.0840,0.4387,0.5386,-0.5559,-0.4566
719,0.0,0.0,0.0,0.0,0.0,0.0,-0.0824,0.9579,-0.0974,0.4407,0.5384,-0.5549,-0.4562
720,0.0,0.0,0.0,0.0,0.0,0.0,-0.0741,0.9526,-0.0995,0.4422,0.5379,-0.5548,-0.4554
721,0.0,0.0,0.0,0.0,0.0,0.0,-0.0873,0.9750,-0.0905,0.4424,0.5376,-0.5560,-0.4540
722,0.0,0.0,0.0,0.0,0.0,0.0,-0.0967,0.9971,-0.0718,0.4424,0.5377,-0.5575,-0.4521
723,0.0,0.0,0.0,0.0,0.0,0.0,-0.0865,1.0229,-0.0742,0.4432,0.5369,-0.5579,-0.4517
724,0.0,0.0,0.0,0.0,0.0,0.0,-0.0689,1.0053,-0.0803,0.4448,0.5355,-0.5580,-0.4517
725,0.0,0.0,0.0,0.0,0.0,0.0,-0.0981,1.0010,-0.0766,0.4461,0.5346,-0.5578,-0.4518
726,0.0,0.0,0.0,0.0,0.0,0.0,-0.1153,1.0104,-0.0546,0.4471,0.5342,-0.5572,-0.4520
727,0.0,0.0,0.0,0.0,0.0,0.0,-0.0801,0.9815,-0.0755,0.4479,0.5345,-0.5566,-0.4516
728,0.0,0.0,0.0,0.0,0.0,0.0,-0.0381,0.9535,-0.0978,0.4480,0.5346,-0.5573,-0.4504
729,0.0,0.0,0.0,0.0,0.0,0.0,-0.0625,0.9672,-0.0903,0.4470,0.5349,-0.5597,-0.4481
730,0.0,0.0,0.0,0.0,0.0,0.0,-0.2357,0.9665,-0.0911,0.4421,0.5386,-0.5626,-0.4449
731,0.0,0.0,0.0,0.0,0.0,0.0,-0.1151,0.9765,-0.0917,0.4385,0.5421,-0.5660,-0.4398
732,0.0,0.0,0.0,0.0,0.0,0.0,-0.0381,0.9827,-0.1030,0.4363,0.5436,-0.5702,-0.4347
733,0.0,0.0,0.0,0.0,0.0,0.0,-0.0391,0.9977,-0.1096,0.4352,0.5435,-0.5736,-0.4314
734,0.0,0.0,0.0,0.0,0.0,0.0,-0.0858,0.9827,-0.1132,0.4349,0.5450,-0.5754,-0.4274
735,0.0,0.0,0.0,0.0,0.0,0.0,-0.0809,1.0050,-0.1218,0.4361,0.5473,-0.5750,-0.4239
736,0.0,0.0,0.0,0.0,0.0,0.0,-0.0835,1.0466,-0.0997,0.4387,0.5489,-0.5724,-0.4227
737,0.0,0.0,0.0,0.0,0.0,0.0,-0.0912,1.0060,-0.1164,0.4394,0.5508,-0.5702,-0.4223
738,0.0,0.0,0.0,0.0,0.0,0.0,-0.0885,0.9375,-0.1561,0.4367,0.5537,-0.5701,-0.4215
739,0.0,0.0,0.0,0.0,0.0,0.0,-0.0521,0.9849,-0.1329,0.4348,0.5555,-0.5705,-0.4206
740,0.0,0.0,0.0,0.0,0.0,0.0,-0.0338,1.0191,-0.1173,0.4344,0.5550,-0.5712,-0.4207
741,0.0,0.0,0.0,0.0,0.0,0.0,-0.0599,0.9737,-0.1416,0.4338,0.5547,-0.5724,-0.4202
742,0.0,0.0,0.0,0.0,0.0,0.0,-0.0973,0.9620,-0.1447,0.4336,0.5559,-0.5717,-0.4197
743,0.0,0.0,0.0,0.0,0.0,0.0,-0.0756,0.9972,-0.1209,0.4360,0.5572,-0.5699,-0.4180
744,0.0,0.0,0.0,0.0,0.0,0.0,-0.0444,0.9859,-0.1286,0.4379,0.5572,-0.5693,-0.4167
745,0.0,0.0,0.0,0.0,0.0,0.0,-0.0604,0.9805,-0.1391,0.4393,0.5563,-0.5699,-0.4158
746,0.0,0.0,0.0,0.0,0.0,0.0,-0.0649,0.9991,-0.1205,0.4414,0.5547,-0.5701,-0.4154
747,0.0,0.0,0.0,0.0,0.0,0.0,-0.0648,0.9947,-0.1278,0.4435,0.5531,-0.5701,-0.4153
748,0.0,0.0,0.0,0.0,0.0,0.0,-0.0599,0.9835,-0.1299,0.4462,0.5514,-0.5697,-0.4151
749,0.0,0.0,0.0,0.0,0.0,0.0,-0.0561,0.9967,-0.1187,0.4502,0.5496,-0.5684,-0.4149
750,0.0,0.0,0.0,0.0,0.0,0.0,-0.0648,0.9894,-0.1206,0.4533,0.5477,-0.5673,-0.4155
751,0.0,0.0,0.0,0.0,0.0,0.0,-0.0585,0.9817,-0.1144,0.4568,0.5456,-0.5661,-0.4163
752,0.0,0.0,0.0,0.0,0.0,0.0,-0.0717,0.9841,-0.1128,0.4588,0.5441,-0.5659,-0.4162
753,0.0,0.0,0.0,0.0,0.0,0.0,-0.0901,0.9563,-0.1158,0.4581,0.5443,-0.5671,-0.4150
754,0.0,0.0,0.0,0.0,0.0,0.0,-0.0619,0.9533,-0.1218,0.4571,0.5451,-0.5684,-0.4133
755,0.0,0.0,0.0,0.0,0.0,0.0,-0.0361,0.9904,-0.1199,0.4564,0.5458,-0.5703,-0.4105
756,0.0,0.0,0.0,0.0,0.0,0.0,-0.0776,1.0144,-0.0985,0.4542,0.5461,-0.5731,-0.4087
757,0.0,0.0,0.0,0.0,0.0,0.0,-0.0879,1.0340,-0.0935,0.4531,0.5464,-0.5736,-0.4088
758,0.0,0.0,0.0,0.0,0.0,0.0,-0.0509,1.0338,-0.1083,0.4556,0.5467,-0.5700,-0.4106
759,0.0,0.0,0.0,0.0,0.0,0.0,-0.0503,1.0138,-0.1075,0.4565,0.5463,-0.5677,-0.4133
760,0.0,0.0,0.0,0.0,0.0,0.0,-0.0771,0.9774,-0.1036,0.4547,0.5461,-0.5673,-0.4162
761,0.0,0.0,0.0,0.0,0.0,0.0,-0.0595,0.9841,-0.1144,0.4533,0.5454,-0.5667,-0.4195
762,0.0,0.0,0.0,0.0,0.0,0.0,-0.0274,0.9767,-0.1186,0.4524,0.5451,-0.5662,-0.4214
763,0.0,0.0,0.0,0.0,0.0,0.0,-0.0506,0.9596,-0.1292,0.4506,0.5463,-0.5658,-0.4223
764,0.0,0.0,0.0,0.0,0.0,0.0,-0.0590,0.9744,-0.1082,0.4503,0.5475,-0.5644,-0.4230
765,0.0,0.0,0.0,0.0,0.0,0.0,-0.0445,1.0003,-0.0950,0.4527,0.5474,-0.5614,-0.4245
766,0.0,0.0,0.0,0.0,0.0,0.0,-0.0532,0.9856,-0.0999,0.4548,0.5474,-0.5585,-0.4261
767,0.0,0.0,0.0,0.0,0.0,0.0,-0.0678,0.9520,-0.1039,0.4552,0.5477,-0.5566,-0.4277
768,0.0,0.0,0.0,0.0,0.0,0.0,-0.0498,0.9632,-0.0996,0.4553,0.5474,-0.5555,-0.4294
769,0.0,0.0,0.0,0.0,0.0,0.0,-0.0675,0.9873,-0.0736,0.4554,0.5456,-0.5554,-0.4319
770,0.0,0.0,0.0,0.0,0.0,0.0,-0.0591,0.9658,-0.0840,0.4561,0.5433,-0.5555,-0.4339
771,0.0,0.0,0.0,0.0,0.0,0.0,-0.0463,0.9422,-0.1066,0.4572,0.5428,-0.5552,-0.4337
772,0.0,0.0,0.0,0.0,0.0,0.0,-0.0519,0.9766,-0.0767,0.4605,0.5416,-0.5539,-0.4333
773,0.0,0.0,0.0,0.0,0.0,0.0,-0.0471,0.9966,-0.0708,0.4641,0.5399,-0.5531,-0.4326
774,0.0,0.0,0.0,0.0,0.0,0.0,-0.0670,0.9923,-0.0586,0.4672,0.5385,-0.5521,-0.4323
775,0.0,0.0,0.0,0.0,0.0,0.0,-0.0666,1.0006,-0.0532,0.4708,0.5366,-0.5505,-0.4328
776,0.0,0.0,0.0,0.0,0.0,0.0,-0.0759,1.0026,-0.0492,0.4729,0.5347,-0.5491,-0.4347
777,0.0,0.0,0.0,0.0,0.0,0.0,-0.0476,0.9963,-0.0427,0.4750,0.5322,-0.5492,-0.4352
778,0.0,0.0,0.0,0.0,0.0,0.0,-0.0383,0.9821,-0.0511,0.4764,0.5288,-0.5508,-0.4360
779,0.0,0.0,0.0,0.0,0.0,0.0,-0.0428,0.9895,-0.0370,0.4778,0.5262,-0.5516,-0.4365
780,0.0,0.0,0.0,0.0,0.0,0.0,-0.0681,0.9998,-0.0367,0.4796,0.5251,-0.5513,-0.4363
781,0.0,0.0,0.0,0.0,0.0,0.0,-0.0614,1.0174,-0.0221,0.4827,0.5241,-0.5495,-0.4363
782,0.0,0.0,0.0,0.0,0.0,0.0,-0.0522,1.0268,-0.0081,0.4849,0.5239,-0.5482,-0.4358
783,0.0,0.0,0.0,0.0,0.0,0.0,-0.0627,0.9861,-0.0359,0.4834,0.5255,-0.5488,-0.4348
784,0.0,0.0,0.0,0.0,0.0,0.0,-0.0400,1.0329,-0.0270,0.4802,0.5278,-0.5507,-0.4330
785,0.0,0.0,0.0,0.0,0.0,0.0,-0.0205,1.0518,-0.0392,0.4756,0.5315,-0.5540,-0.4296
786,0.0,0.0,0.0,0.0,0.0,0.0,-0.0081,0.9902,-0.0732,0.4707,0.5351,-0.5577,-0.4255
787,0.0,0.0,0.0,0.0,0.0,0.0,0.0051,0.9784,-0.0767,0.4691,0.5385,-0.5594,-0.4207
788,0.0,0.0,0.0,0.0,0.0,0.0,0.0192,0.9852,-0.0860,0.4726,0.5394,-0.5577,-0.4179
789,0.0,0.0,0.0,0.0,0.0,0.0,0.0284,0.9043,-0.1530,0.4743,0.5411,-0.5577,-0.4139
790,0.0,0.0,0.0,0.0,0.0,0.0,0.0088,0.9269,-0.1246,0.4752,0.5419,-0.5580,-0.4113
791,0.0,0.0,0.0,0.0,0.0,0.0,0.0192,1.0134,-0.0955,0.4768,0.5413,-0.5577,-0.4107
792,0.0,0.0,0.0,0.0,0.0,0.0,0.0197,1.0143,-0.1018,0.4790,0.5397,-0.5570,-0.4111
793,0.0,0.0,0.0,0.0,0.0,0.0,-0.0315,0.9903,-0.0647,0.4818,0.5374,-0.5554,-0.4131
794,0.0,0.0,0.0,0.0,0.0,0.0,-0.0465,0.9984,-0.0824,0.4844,0.5361,-0.5531,-0.4149
795,0.0,0.0,0.0,0.0,0.0,0.0,-0.0071,1.0101,-0.0847,0.4879,0.5346,-0.5500,-0.4168
796,0.0,0.0,0.0,0.0,0.0,0.0,-0.0053,1.0122,-0.0604,0.4908,0.5333,-0.5470,-0.4189
797,0.0,0.0,0.0,0.0,0.0,0.0,-0.0432,0.9971,-0.0607,0.4921,0.5330,-0.5438,-0.4219
798,0.0,0.0,0.0,0.0,0.0,0.0,-0.0404,1.0154,-0.0291,0.4932,0.5339,-0.5404,-0.4240
799,0.0,0.0,0.0,0.0,0.0,0.0,-0.0356,1.0121,-0.0175,0.4918,0.5344,-0.5398,-0.4256
800,0.0,0.0,0.0,0.0,0.0,0.0,-0.0462,0.9589,-0.0251,0.4897,0.5342,-0.5409,-0.4270
801,0.0,0.0,0.0,0.0,0.0,0.0,-0.0533,0.9348,-0.0586,0.4871,0.5370,-0.5414,-0.4257
802,0.0,0.0,0.0,0.0,0.0,0.0,-0.0364,0.9676,-0.0333,0.4862,0.5396,-0.5408,-0.4243
803,0.0,0.0,0.0,0.0,0.0,0.0,-0.0676,0.9740,-0.0354,0.4837,0.5421,-0.5420,-0.4223
804,0.0,0.0,0.0,0.0,0.0,0.0,-0.0958,0.9734,-0.0468,0.4794,0.5460,-0.5445,-0.4190
805,0.0,0.0,0.0,0.0,0.0,0.0,-0.1051,0.9905,-0.0422,0.4747,0.5499,-0.5468,-0.4163
806,0.0,0.0,0.0,0.0,0.0,0.0,-0.0720,1.0113,-0.0550,0.4720,0.5520,-0.5482,-0.4148
807,0.0,0.0,0.0,0.0,0.0,0.0,-0.0374,0.9962,-0.0598,0.4704,0.5514,-0.5509,-0.4137
808,0.0,0.0,0.0,0.0,0.0,0.0,-0.0831,0.9981,-0.0744,0.4684,0.5503,-0.5534,-0.4140
809,0.0,0.0,0.0,0.0,0.0,0.0,-0.1134,1.0480,-0.0447,0.4690,0.5483,-0.5522,-0.4177
810,0.0,0.0,0.0,0.0,0.0,0.0,-0.0825,1.0697,-0.0085,0.4722,0.5445,-0.5492,-0.4230
811,0.0,0.0,0.0,0.0,0.0,0.0,-0.0467,0.9968,-0.0461,0.4725,0.5414,-0.5488,-0.4271
812,0.0,0.0,0.0,0.0,0.0,0.0,-0.0435,0.9415,-0.0780,0.4724,0.5380,-0.5481,-0.4325
813,0.0,0.0,0.0,0.0,0.0,0.0,-0.0480,0.9499,-0.0624,0.4719,0.5357,-0.5479,-0.4360
814,0.0,0.0,0.0,0.0,0.0,0.0,-0.0241,0.9513,-0.0597,0.4706,0.5349,-0.5488,-0.4373
815,0.0,0.0,0.0,0.0,0.0,0.0,-0.0193,0.9532,-0.0675,0.4692,0.5349,-0.5496,-0.4378
816,0.0,0.0,0.0,0.0,0.0,0.0,-0.0471,0.9835,-0.0549,0.4683,0.5360,-0.5496,-0.4375
817,0.0,0.0,0.0,0.0,0.0,0.0,-0.0676,0.9831,-0.0484,0.4662,0.5380,-0.5504,-0.4362
818,0.0,0.0,0.0,0.0,0.0,0.0,-0.0763,0.9983,-0.0473,0.4639,0.5400,-0.5510,-0.4354
819,0.0,0.0,0.0,0.0,0.0,0.0,-0.0739,1.0002,-0.0521,0.4602,0.5413,-0.5530,-0.4352
820,0.0,0.0,0.0,0.0,0.0,0.0,-0.0568,0.9946,-0.0712,0.4559,0.5414,-0.5559,-0.4358
821,0.0,0.0,0.0,0.0,0.0,0.0,-0.0670,0.9859,-0.0693,0.4522,0.5418,-0.5586,-0.4360
822,0.0,0.0,0.0,0.0,0.0,0.0,-0.0767,0.9776,-0.0736,0.4486,0.5435,-0.5607,-0.4346
823,0.0,0.0,0.0,0.0,0.0,0.0,-0.0776,0.9731,-0.0896,0.4456,0.5465,-0.5621,-0.4323
824,0.0,0.0,0.0,0.0,0.0,0.0,-0.0727,0.9623,-0.0970,0.4416,0.5502,-0.5640,-0.4292
825,0.0,0.0,0.0,0.0,0.0,0.0,-0.0562,0.9827,-0.1004,0.4378,0.5533,-0.5668,-0.4253
826,0.0,0.0,0.0,0.0,0.0,0.0,-0.0415,0.9743,-0.1195,0.4331,0.5538,-0.5719,-0.4226
827,0.0,0.0,0.0,0.0,0.0,0.0,-0.0313,0.9890,-0.1093,0.4310,0.5514,-0.5764,-0.4219
828,0.0,0.0,0.0,0.0,0.0,0.0,-0.0507,0.9956,-0.1323,0.4301,0.5476,-0.5796,-0.4233
829,0.0,0.0,0.0,0.0,0.0,0.0,-0.0495,0.9623,-0.1636,0.4311,0.5452,-0.5800,-0.4248
830,0.0,0.0,0.0,0.0,0.0,0.0,-0.0684,1.0042,-0.1011,0.4345,0.5430,-0.5781,-0.4269
831,0.0,0.0,0.0,0.0,0.0,0.0,-0.0674,1.0057,-0.0938,0.4377,0.5408,-0.5754,-0.4298
832,0.0,0.0,0.0,0.0,0.0,0.0,-0.0493,0.9753,-0.1155,0.4410,0.5385,-0.5722,-0.4337
833,0.0,0.0,0.0,0.0,0.0,0.0,-0.0498,0.9851,-0.1014,0.4421,0.5360,-0.5708,-0.4375
834,0.0,0.0,0.0,0.0,0.0,0.0,-0.0508,0.9778,-0.1014,0.4421,0.5340,-0.5702,-0.4406
835,0.0,0.0,0.0,0.0,0.0,0.0,-0.0279,0.9787,-0.1181,0.4427,0.5328,-0.5700,-0.4419
836,0.0,0.0,0.0,0.0,0.0,0.0,-0.0348,0.9915,-0.1005,0.4435,0.5316,-0.5707,-0.4416
837,0.0,0.0,0.0,0.0,0.0,0.0,-0.0484,0.9652,-0.0977,0.4442,0.5304,-0.5728,-0.4396
838,0.0,0.0,0.0,0.0,0.0,0.0,-0.0551,0.9612,-0.1093,0.4441,0.5310,-0.5747,-0.4364
839,0.0,0.0,0.0,0.0,0.0,0.0,-0.0432,0.9995,-0.0723,0.4450,0.5312,-0.5764,-0.4331
840,0.0,0.0,0.0,0.0,0.0,0.0,-0.0260,0.9808,-0.0920,0.4448,0.5315,-0.5788,-0.4296
841,0.0,0.0,0.0,0.0,0.0,0.0,-0.0450,0.9872,-0.0922,0.4456,0.5315,-0.5801,-0.4271
842,0.0,0.0,0.0,0.0,0.0,0.0,-0.0610,0.9876,-0.0979,0.4442,0.5312,-0.5832,-0.4247
843,0.0,0.0,0.0,0.0,0.0,0.0,-0.0259,0.9802,-0.1109,0.4435,0.5299,-0.5866,-0.4224
844,0.0,0.0,0.0,0.0,0.0,0.0,-0.0216,0.9948,-0.1127,0.4433,0.5280,-0.5897,-0.4207
845,0.0,0.0,0.0,0.0,0.0,0.0,-0.0312,0.9893,-0.1258,0.4424,0.5263,-0.5930,-0.4191
846,0.0,0.0,0.0,0.0,0.0,0.0,-0.0239,0.9839,-0.1331,0.4422,0.5256,-0.5956,-0.4166
847,0.0,0.0,0.0,0.0,0.0,0.0,-0.0163,1.0138,-0.1073,0.4427,0.5251,-0.5969,-0.4147
848,0.0,0.0,0.0,0.0,0.0,0.0,-0.0213,1.0446,-0.0901,0.4444,0.5247,-0.5971,-0.4133
849,0.0,0.0,0.0,0.0,0.0,0.0,-0.0196,1.0152,-0.1199,0.4447,0.5241,-0.5981,-0.4121
850,0.0,0.0,0.0,0.0,0.0,0.0,-0.0142,0.9926,-0.1404,0.4438,0.5234,-0.5998,-0.4116
851,0.0,0.0,0.0,0.0,0.0,0.0,-0.0113,1.0176,-0.1253,0.4432,0.5230,-0.6007,-0.4114
852,0.0,0.0,0.0,0.0,0.0,0.0,0.0033,1.0239,-0.1268,0.4429,0.5225,-0.6015,-0.4112
853,0.0,0.0,0.0,0.0,0.0,0.0,0.0062,1.0072,-0.1347,0.4428,0.5222,-0.6017,-0.4113
854,0.0,0.0,0.0,0.0,0.0,0.0,0.0009,0.9887,-0.1367,0.4430,0.5220,-0.6014,-0.4119
855,0.0,0.0,0.0,0.0,0.0,0.0,0.0078,0.9760,-0.1461,0.4427,0.5226,-0.6013,-0.4115
856,0.0,0.0,0.0,0.0,0.0,0.0,0.0019,0.9897,-0.1367,0.4422,0.5232,-0.6012,-0.4115
857,0.0,0.0,0.0,0.0,0.0,0.0,-0.0001,0.9911,-0.1386,0.4411,0.5232,-0.6018,-0.4116
858,0.0,0.0,0.0,0.0,0.0,0.0,-0.0005,0.9735,-0.1499,0.4391,0.5230,-0.6031,-0.4121
859,0.0,0.0,0.0,0.0,0.0,0.0,0.0054,0.9647,-0.1524,0.4369,0.5228,-0.6047,-0.4124
860,0.0,0.0,0.0,0.0,0.0,0.0,0.0121,0.9828,-0.1412,0.4357,0.5232,-0.6055,-0.4120
861,0.0,0.0,0.0,0.0,0.0,0.0,0.0078,0.9789,-0.1475,0.4347,0.5238,-0.6063,-0.4113
862,0.0,0.0,0.0,0.0,0.0,0.0,0.0020,0.9778,-0.1576,0.4332,0.5248,-0.6072,-0.4102
863,0.0,0.0,0.0,0.0,0.0,0.0,0.0004,1.0029,-0.1332,0.4333,0.5251,-0.6071,-0.4099
864,0.0,0.0,0.0,0.0,0.0,0.0,0.0044,0.9916,-0.1474,0.4335,0.5247,-0.6072,-0.4100
865,0.0,0.0,0.0,0.0,0.0,0.0,-0.0072,0.9725,-0.1624,0.4330,0.5249,-0.6074,-0.4099
866,0.0,0.0,0.0,0.0,0.0,0.0,-0.0083,0.9901,-0.1516,0.4332,0.5253,-0.6070,-0.4098
867,0.0,0.0,0.0,0.0,0.0,0.0,-0.0039,0.9954,-0.1594,0.4334,0.5258,-0.6066,-0.4095
868,0.0,0.0,0.0,0.0,0.0,0.0,0.0025,0.9778,-0.1659,0.4332,0.5263,-0.6066,-0.4092
869,0.0,0.0,0.0,0.0,0.0,0.0,0.0059,0.9890,-0.1571,0.4335,0.5267,-0.6064,-0.4087
870,0.0,0.0,0.0,0.0,0.0,0.0,-0.0107,0.9974,-0.1530,0.4337,0.5271,-0.6059,-0.4086
871,0.0,0.0,0.0,0.0,0.0,0.0,-0.0316,1.0027,-0.1576,0.4336,0.5282,-0.6049,-0.4087
872,0.0,0.0,0.0,0.0,0.0,0.0,-0.0225,1.0194,-0.1470,0.4348,0.5292,-0.6032,-0.4088
873,0.0,0.0,0.0,0.0,0.0,0.0,-0.0206,1.0384,-0.1376,0.4358,0.5305,-0.6011,-0.4091
874,0.0,0.0,0.0,0.0,0.0,0.0,-0.0361,1.0331,-0.1400,0.4365,0.5313,-0.5989,-0.4105
875,0.0,0.0,0.0,0.0,0.0,0.0,-0.0166,1.0184,-0.1489,0.4375,0.5324,-0.5958,-0.4125
876,0.0,0.0,0.0,0.0,0.0,0.0,-0.0084,1.0155,-0.1394,0.4387,0.5338,-0.5924,-0.4143
877,0.0,0.0,0.0,0.0,0.0,0.0,-0.0244,1.0068,-0.1364,0.4384,0.5358,-0.5901,-0.4153
878,0.0,0.0,0.0,0.0,0.0,0.0,-0.0210,0.9960,-0.1399,0.4378,0.5381,-0.5877,-0.4163
879,0.0,0.0,0.0,0.0,0.0,0.0,0.0047,1.0253,-0.1254,0.4395,0.5394,-0.5841,-0.4181
880,0.0,0.0,0.0,0.0,0.0,0.0,0.0119,1.0284,-0.1031,0.4435,0.5393,-0.5794,-0.4206
881,0.0,0.0,0.0,0.0,0.0,0.0,-0.0347,0.9997,-0.1097,0.4473,0.5394,-0.5732,-0.4248
882,0.0,0.0,0.0,0.0,0.0,0.0,-0.0701,0.9611,-0.1227,0.4514,0.5416,-0.5649,-0.4287
883,0.0,0.0,0.0,0.0,0.0,0.0,-0.0466,1.0170,-0.0804,0.4566,0.5412,-0.5565,-0.4348
884,0.0,0.0,0.0,0.0,0.0,0.0,-0.0797,0.9908,-0.0662,0.4607,0.5407,-0.5487,-0.4409
885,0.0,0.0,0.0,0.0,0.0,0.0,-0.1243,0.9552,-0.0767,0.4636,0.5419,-0.5405,-0.4464
886,0.0,0.0,0.0,0.0,0.0,0.0,-0.0807,0.9734,-0.0552,0.4691,0.5421,-0.5310,-0.4518
887,0.0,0.0,0.0,0.0,0.0,0.0,-0.0841,0.9885,-0.0531,0.4743,0.5430,-0.5226,-0.4550
888,0.0,0.0,0.0,0.0,0.0,0.0,-0.1615,0.9649,-0.0303,0.4788,0.5452,-0.5138,-0.4578
889,0.0,0.0,0.0,0.0,0.0,0.0,-0.1888,0.9601,-0.0218,0.4818,0.5485,-0.5049,-0.4605
890,0.0,0.0,0.0,0.0,0.0,0.0,-0.1772,0.9525,0.0095,0.4832,0.5514,-0.4974,-0.4638
891,0.0,0.0,0.0,0.0,0.0,0.0,-0.1821,0.9365,0.0148,0.4827,0.5537,-0.4917,-0.4676
892,0.0,0.0,0.0,0.0,0.0,0.0,-0.1653,0.8831,-0.0279,0.4794,0.5562,-0.4886,-0.4712
893,0.0,0.0,0.0,0.0,0.0,0.0,-0.1488,0.9172,-0.0205,0.4774,0.5568,-0.4862,-0.4750
894,0.0,0.0,0.0,0.0,0.0,0.0,-0.1581,0.9109,-0.0171,0.4745,0.5577,-0.4866,-0.4766
895,0.0,0.0,0.0,0.0,0.0,0.0,-0.1892,0.8943,-0.0276,0.4711,0.5596,-0.4877,-0.4765
896,0.0,0.0,0.0,0.0,0.0,0.0,-0.2376,0.9419,0.0090,0.4662,0.5631,-0.4903,-0.4746
897,0.0,0.0,0.0,0.0,0.0,0.0,-0.2428,0.9384,-0.0065,0.4556,0.5694,-0.4980,-0.4693
898,0.0,0.0,0.0,0.0,0.0,0.0,-0.1886,0.9238,-0.0507,0.4442,0.5745,-0.5082,-0.4630
899,0.0,0.0,0.0,0.0,0.0,0.0,-0.1688,0.9886,-0.0519,0.4354,0.5767,-0.5177,-0.4580
900,0.0,0.0,0.0,0.0,0.0,0.0,-0.1951,1.0339,-0.0562,0.4291,0.5786,-0.5240,-0.4545
901,0.0,0.0,0.0,0.0,0.0,0.0,-0.2214,1.0816,-0.0667,0.4262,0.5803,-0.5242,-0.4547
902,0.0,0.0,0.0,0.0,0.0,0.0,-0.1992,1.0683,-0.0220,0.4279,0.5815,-0.5203,-0.4560
903,0.0,0.0,0.0,0.0,0.0,0.0,-0.1725,0.9747,-0.0849,0.4249,0.5810,-0.5207,-0.4590
904,0.0,0.0,0.0,0.0,0.0,0.0,-0.1988,0.9748,-0.0764,0.4208,0.5792,-0.5209,-0.4649
905,0.0,0.0,0.0,0.0,0.0,0.0,-0.1830,1.0232,-0.0491,0.4184,0.5769,-0.5195,-0.4714
906,0.0,0.0,0.0,0.0,0.0,0.0,-0.1951,1.0048,-0.0384,0.4192,0.5747,-0.5151,-0.4782
907,0.0,0.0,0.0,0.0,0.0,0.0,-0.2607,0.9478,-0.0464,0.4213,0.5755,-0.5078,-0.4832
908,0.0,0.0,0.0,0.0,0.0,0.0,-0.2675,0.9425,-0.0367,0.4238,0.5769,-0.4994,-0.4880
909,0.0,0.0,0.0,0.0,0.0,0.0,-0.2627,0.9514,-0.0232,0.4254,0.5772,-0.4932,-0.4926
910,0.0,0.0,0.0,0.0,0.0,0.0,-0.2540,0.9310,-0.0190,0.4258,0.5754,-0.4902,-0.4973
911,0.0,0.0,0.0,0.0,0.0,0.0,-0.1976,0.9373,-0.0054,0.4270,0.5722,-0.4873,-0.5028
912,0.0,0.0,0.0,0.0,0.0,0.0,-0.1849,0.9086,-0.0072,0.4297,0.5701,-0.4853,-0.5048
913,0.0,0.0,0.0,0.0,0.0,0.0,-0.1945,0.8778,-0.0155,0.4314,0.5693,-0.4852,-0.5043
914,0.0,0.0,0.0,0.0,0.0,0.0,-0.1967,0.9064,0.0200,0.4346,0.5684,-0.4837,-0.5041
915,0.0,0.0,0.0,0.0,0.0,0.0,-0.2112,0.9165,0.0033,0.4355,0.5672,-0.4849,-0.5035
916,0.0,0.0,0.0,0.0,0.0,0.0,-0.2351,0.9185,0.0079,0.4337,0.5667,-0.4883,-0.5022
917,0.0,0.0,0.0,0.0,0.0,0.0,-0.2493,0.9348,0.0309,0.4318,0.5663,-0.4925,-0.5003
918,0.0,0.0,0.0,0.0,0.0,0.0,-0.2136,0.9417,-0.0111,0.4315,0.5652,-0.4957,-0.4987
919,0.0,0.0,0.0,0.0,0.0,0.0,-0.2172,0.9788,0.0052,0.4327,0.5639,-0.4981,-0.4966
920,0.0,0.0,0.0,0.0,0.0,0.0,-0.2361,0.9740,0.0087,0.4342,0.5626,-0.5012,-0.4937
921,0.0,0.0,0.0,0.0,0.0,0.0,-0.2371,0.9729,-0.0058,0.4357,0.5607,-0.5034,-0.4923
922,0.0,0.0,0.0,0.0,0.0,0.0,-0.2644,1.0033,0.0121,0.4367,0.5593,-0.5052,-0.4912
923,0.0,0.0,0.0,0.0,0.0,0.0,-0.2551,1.0017,-0.0011,0.4370,0.5578,-0.5068,-0.4910
924,0.0,0.0,0.0,0.0,0.0,0.0,-0.2035,1.0036,-0.0093,0.4366,0.5557,-0.5095,-0.4909
925,0.0,0.0,0.0,0.0,0.0,0.0,-0.2197,1.0125,0.0103,0.4360,0.5525,-0.5121,-0.4924
926,0.0,0.0,0.0,0.0,0.0,0.0,-0.2201,1.0061,0.0001,0.4356,0.5503,-0.5135,-0.4936
927,0.0,0.0,0.0,0.0,0.0,0.0,-0.1947,0.9942,-0.0172,0.4363,0.5492,-0.5139,-0.4939
928,0.0,0.0,0.0,0.0,0.0,0.0,-0.1802,0.9948,-0.0004,0.4372,0.5471,-0.5147,-0.4946
929,0.0,0.0,0.0,0.0,0.0,0.0,-0.1910,0.9994,0.0158,0.4374,0.5447,-0.5153,-0.4965
930,0.0,0.0,0.0,0.0,0.0,0.0,-0.1865,0.9807,0.0035,0.4372,0.5425,-0.5162,-0.4981
931,0.0,0.0,0.0,0.0,0.0,0.0,-0.1758,0.9739,0.0043,0.4368,0.5399,-0.5170,-0.5004
932,0.0,0.0,0.0,0.0,0.0,0.0,-0.1728,0.9671,0.0013,0.4355,0.5380,-0.5179,-0.5027
933,0.0,0.0,0.0,0.0,0.0,0.0,-0.1777,0.9695,0.0019,0.4342,0.5365,-0.5189,-0.5044
934,0.0,0.0,0.0,0.0,0.0,0.0,-0.1817,0.9887,0.0200,0.4336,0.5353,-0.5189,-0.5061
935,0.0,0.0,0.0,0.0,0.0,0.0,-0.1841,0.9896,0.0200,0.4323,0.5345,-0.5192,-0.5077
936,0.0,0.0,0.0,0.0,0.0,0.0,-0.1759,0.9878,0.0344,0.4331,0.5319,-0.5180,-0.5110
937,0.0,0.0,0.0,0.0,0.0,0.0,-0.2037,0.9863,0.0323,0.4315,0.5303,-0.5190,-0.5131
938,0.0,0.0,0.0,0.0,0.0,0.0,-0.1806,0.9579,0.0067,0.4290,0.5297,-0.5195,-0.5153
939,0.0,0.0,0.0,0.0,0.0,0.0,-0.1031,0.9171,-0.0205,0.4271,0.5284,-0.5209,-0.5168
940,0.0,0.0,0.0,0.0,0.0,0.0,-0.1377,0.9417,-0.0026,0.4245,0.5281,-0.5227,-0.5174
941,0.0,0.0,0.0,0.0,0.0,0.0,-0.1544,0.9724,0.0056,0.4223,0.5290,-0.5244,-0.5166
942,0.0,0.0,0.0,0.0,0.0,0.0,-0.1378,0.9651,0.0010,0.4204,0.5299,-0.5261,-0.5155
943,0.0,0.0,0.0,0.0,0.0,0.0,-0.1163,0.9567,-0.0133,0.4184,0.5302,-0.5289,-0.5139
944,0.0,0.0,0.0,0.0,0.0,0.0,-0.1056,0.9551,-0.0231,0.4164,0.5302,-0.5332,-0.5111
945,0.0,0.0,0.0,0.0,0.0,0.0,-0.1101,0.9772,-0.0064,0.4147,0.5296,-0.5376,-0.5084
946,0.0,0.0,0.0,0.0,0.0,0.0,-0.1051,0.9858,-0.0268,0.4127,0.5286,-0.5430,-0.5053
947,0.0,0.0,0.0,0.0,0.0,0.0,-0.0831,0.9608,-0.0402,0.4107,0.5276,-0.5494,-0.5011
948,0.0,0.0,0.0,0.0,0.0,0.0,-0.0724,0.9719,-0.0524,0.4091,0.5265,-0.5559,-0.4964
949,0.0,0.0,0.0,0.0,0.0,0.0,-0.0875,0.9890,-0.0531,0.4076,0.5263,-0.5620,-0.4909
950,0.0,0.0,0.0,0.0,0.0,0.0,-0.1339,1.0355,-0.0291,0.4072,0.5273,-0.5667,-0.4847
951,0.0,0.0,0.0,0.0,0.0,0.0,-0.1549,1.0726,-0.0228,0.4076,0.5290,-0.5698,-0.4789
952,0.0,0.0,0.0,0.0,0.0,0.0,-0.1314,1.0469,-0.0591,0.4078,0.5313,-0.5722,-0.4732
953,0.0,0.0,0.0,0.0,0.0,0.0,-0.1099,1.0283,-0.0759,0.4089,0.5331,-0.5737,-0.4685
954,0.0,0.0,0.0,0.0,0.0,0.0,-0.1084,1.0341,-0.0768,0.4110,0.5339,-0.5744,-0.4649
955,0.0,0.0,0.0,0.0,0.0,0.0,-0.1175,1.0145,-0.0948,0.4133,0.5347,-0.5743,-0.4621
956,0.0,0.0,0.0,0.0,0.0,0.0,-0.1111,0.9798,-0.1159,0.4158,0.5360,-0.5739,-0.4587
957,0.0,0.0,0.0,0.0,0.0,0.0,-0.1101,0.9851,-0.1134,0.4193,0.5378,-0.5726,-0.4551
958,0.0,0.0,0.0,0.0,0.0,0.0,-0.1199,0.9954,-0.1065,0.4237,0.5388,-0.5706,-0.4523
959,0.0,0.0,0.0,0.0,0.0,0.0,-0.1286,0.9778,-0.1196,0.4275,0.5399,-0.5685,-0.4500
960,0.0,0.0,0.0,0.0,0.0,0.0,-0.1325,0.9837,-0.1133,0.4315,0.5410,-0.5661,-0.4479
961,0.0,0.0,0.0,0.0,0.0,0.0,-0.1520,0.9891,-0.1092,0.4351,0.5416,-0.5637,-0.4467
962,0.0,0.0,0.0,0.0,0.0,0.0,-0.1700,0.9931,-0.1066,0.4375,0.5421,-0.5615,-0.4466
963,0.0,0.0,0.0,0.0,0.0,0.0,-0.1589,1.0059,-0.0843,0.4406,0.5420,-0.5586,-0.4473
964,0.0,0.0,0.0,0.0,0.0,0.0,-0.1354,0.9764,-0.1079,0.4424,0.5426,-0.5564,-0.4474
965,0.0,0.0,0.0,0.0,0.0,0.0,-0.1378,0.9623,-0.1133,0.4434,0.5440,-0.5542,-0.4477
966,0.0,0.0,0.0,0.0,0.0,0.0,-0.1437,0.9712,-0.0997,0.4438,0.5455,-0.5519,-0.4482
967,0.0,0.0,0.0,0.0,0.0,0.0,-0.1383,0.9652,-0.1065,0.4435,0.5473,-0.5502,-0.4484
968,0.0,0.0,0.0,0.0,0.0,0.0,-0.1360,0.9770,-0.0939,0.4426,0.5488,-0.5493,-0.4485
969,0.0,0.0,0.0,0.0,0.0,0.0,-0.1453,0.9957,-0.0777,0.4414,0.5497,-0.5489,-0.4491
970,0.0,0.0,0.0,0.0,0.0,0.0,-0.1346,0.9912,-0.0851,0.4404,0.5500,-0.5489,-0.4498
971,0.0,0.0,0.0,0.0,0.0,0.0,-0.1175,0.9677,-0.0946,0.4392,0.5502,-0.5492,-0.4503
972,0.0,0.0,0.0,0.0,0.0,0.0,-0.1151,0.9775,-0.0907,0.4385,0.5505,-0.5490,-0.4508
973,0.0,0.0,0.0,0.0,0.0,0.0,-0.1160,0.9780,-0.0897,0.4377,0.5508,-0.5493,-0.4509
974,0.0,0.0,0.0,0.0,0.0,0.0,-0.1131,0.9800,-0.0849,0.4371,0.5510,-0.5495,-0.4510
975,0.0,0.0,0.0,0.0,0.0,0.0,-0.1020,0.9868,-0.0815,0.4373,0.5504,-0.5495,-0.4515
976,0.0,0.0,0.0,0.0,0.0,0.0,-0.1034,0.9863,-0.0859,0.4370,0.5499,-0.5502,-0.4517
977,0.0,0.0,0.0,0.0,0.0,0.0,-0.1073,0.9849,-0.0834,0.4367,0.5487,-0.5512,-0.4521
978,0.0,0.0,0.0,0.0,0.0,0.0,-0.1117,0.9844,-0.0800,0.4362,0.5474,-0.5523,-0.4528
979,0.0,0.0,0.0,0.0,0.0,0.0,-0.1137,0.9928,-0.0707,0.4365,0.5465,-0.5523,-0.4536
980,0.0,0.0,0.0,0.0,0.0,0.0,-0.0977,0.9957,-0.0694,0.4379,0.5451,-0.5518,-0.4546
981,0.0,0.0,0.0,0.0,0.0,0.0,-0.1010,0.9825,-0.0729,0.4389,0.5440,-0.5516,-0.4552
982,0.0,0.0,0.0,0.0,0.0,0.0,-0.1088,0.9767,-0.0714,0.4396,0.5432,-0.5512,-0.4559
983,0.0,0.0,0.0,0.0,0.0,0.0,-0.1050,0.9889,-0.0641,0.4405,0.5427,-0.5505,-0.4565
984,0.0,0.0,0.0,0.0,0.0,0.0,-0.1065,0.9934,-0.0538,0.4410,0.5416,-0.5504,-0.4574
985,0.0,0.0,0.0,0.0,0.0,0.0,-0.1050,0.9787,-0.0607,0.4416,0.5404,-0.5504,-0.4583
986,0.0,0.0,0.0,0.0,0.0,0.0,-0.1001,0.9802,-0.0583,0.4425,0.5392,-0.5501,-0.4593
987,0.0,0.0,0.0,0.0,0.0,0.0,-0.0982,0.9792,-0.0540,0.4431,0.5379,-0.5505,-0.4597
988,0.0,0.0,0.0,0.0,0.0,0.0,-0.1103,0.9753,-0.0539,0.4436,0.5373,-0.5505,-0.4600
989,0.0,0.0,0.0,0.0,0.0,0.0,-0.1099,0.9700,-0.0482,0.4436,0.5369,-0.5509,-0.4599
990,0.0,0.0,0.0,0.0,0.0,0.0,-0.1085,0.9901,-0.0345,0.4436,0.5365,-0.5514,-0.4596
991,0.0,0.0,0.0,0.0,0.0,0.0,-0.1043,1.0181,-0.0077,0.4451,0.5359,-0.5512,-0.4593
992,0.0,0.0,0.0,0.0,0.0,0.0,-0.1105,0.9985,-0.0174,0.4469,0.5345,-0.5508,-0.4596
993,0.0,0.0,0.0,0.0,0.0,0.0,-0.1295,0.9878,-0.0251,0.4483,0.5331,-0.5504,-0.4603
994,0.0,0.0,0.0,0.0,0.0,0.0,-0.1388,1.0108,-0.0084,0.4501,0.5323,-0.5493,-0.4607
995,0.0,0.0,0.0,0.0,0.0,0.0,-0.1422,1.0122,-0.0112,0.4519,0.5324,-0.5475,-0.4610
996,0.0,0.0,0.0,0.0,0.0,0.0,-0.1357,0.9741,-0.0309,0.4531,0.5328,-0.5455,-0.4618
997,0.0,0.0,0.0,0.0,0.0,0.0,-0.1015,0.9339,-0.0606,0.4531,0.5332,-0.5447,-0.4622
998,0.0,0.0,0.0,0.0,0.0,0.0,-0.0893,0.9314,-0.0680,0.4518,0.5332,-0.5455,-0.4626
999,0.0,0.0,0.0,0.0,0.0,0.0,-0.0903,0.9499,-0.0640,0.4503,0.5328,-0.5470,-0.4627
1000,0.0,0.0,0.0,0.0,0.0,0.0,-0.0888,0.9625,-0.0712,0.4493,0.5329,-0.5485,-0.4619
1001,0.0,0.0,0.0,0.0,0.0,0.0,-0.0894,0.9753,-0.0614,0.4491,0.5326,-0.5496,-0.4610
1002,0.0,0.0,0.0,0.0,0.0,0.0,-0.0710,1.0040,-0.0541,0.4498,0.5322,-0.5503,-0.4601
1003,0.0,0.0,0.0,0.0,0.0,0.0,-0.0627,1.0040,-0.0600,0.4500,0.5320,-0.5509,-0.4594
1004,0.0,0.0,0.0,0.0,0.0,0.0,-0.0597,1.0010,-0.0678,0.4496,0.5320,-0.5517,-0.4587
1005,0.0,0.0,0.0,0.0,0.0,0.0,-0.0588,1.0216,-0.0555,0.4494,0.5317,-0.5522,-0.4586
1006,0.0,0.0,0.0,0.0,0.0,0.0,-0.0520,1.0284,-0.0551,0.4498,0.5310,-0.5528,-0.4584
1007,0.0,0.0,0.0,0.0,0.0,0.0,-0.0545,1.0245,-0.0507,0.4507,0.5304,-0.5529,-0.4580
1008,0.0,0.0,0.0,0.0,0.0,0.0,-0.0642,1.0289,-0.0448,0.4520,0.5300,-0.5524,-0.4579
1009,0.0,0.0,0.0,0.0,0.0,0.0,-0.0725,1.0133,-0.0521,0.4537,0.5295,-0.5514,-0.4579
1010,0.0,0.0,0.0,0.0,0.0,0.0,-0.0772,0.9830,-0.0643,0.4547,0.5295,-0.5507,-0.4579
1011,0.0,0.0,0.0,0.0,0.0,0.0,-0.0709,0.9791,-0.0639,0.4554,0.5299,-0.5498,-0.4578
1012,0.0,0.0,0.0,0.0,0.0,0.0,-0.0709,0.9782,-0.0572,0.4565,0.5306,-0.5487,-0.4572
1013,0.0,0.0,0.0,0.0,0.0,0.0,-0.0753,0.9850,-0.0542,0.4571,0.5309,-0.5484,-0.4565
1014,0.0,0.0,0.0,0.0,0.0,0.0,-0.0744,0.9895,-0.0454,0.4577,0.5308,-0.5486,-0.4560
1015,0.0,0.0,0.0,0.0,0.0,0.0,-0.0798,1.0003,-0.0361,0.4590,0.5302,-0.5481,-0.4557
1016,0.0,0.0,0.0,0.0,0.0,0.0,-0.0793,0.9886,-0.0401,0.4600,0.5299,-0.5480,-0.4553
1017,0.0,0.0,0.0,0.0,0.0,0.0,-0.0739,0.9881,-0.0353,0.4612,0.5293,-0.5478,-0.4550
1018,0.0,0.0,0.0,0.0,0.0,0.0,-0.0754,0.9920,-0.0323,0.4626,0.5290,-0.5475,-0.4543
1019,0.0,0.0,0.0,0.0,0.0,0.0,-0.0802,0.9784,-0.0377,0.4636,0.5292,-0.5472,-0.4534
1020,0.0,0.0,0.0,0.0,0.0,0.0,-0.0885,0.9828,-0.0342,0.4646,0.5297,-0.5465,-0.4528
1021,0.0,0.0,0.0,0.0,0.0,0.0,-0.0930,1.0014,-0.0224,0.4655,0.5301,-0.5455,-0.4525
1022,0.0,0.0,0.0,0.0,0.0,0.0,-0.0979,0.9990,-0.0214,0.4659,0.5308,-0.5444,-0.4526
1023,0.0,0.0,0.0,0.0,0.0,0.0,-0.0983,0.9931,-0.0205,0.4661,0.5313,-0.5431,-0.4533
1024,0.0,0.0,0.0,0.0,0.0,0.0,-0.0891,0.9887,-0.0274,0.4659,0.5319,-0.5421,-0.4540
1025,0.0,0.0,0.0,0.0,0.0,0.0,-0.0964,0.9907,-0.0229,0.4654,0.5329,-0.5411,-0.4546
1026,0.0,0.0,0.0,0.0,0.0,0.0,-0.1018,1.0054,-0.0126,0.4658,0.5335,-0.5393,-0.4555
1027,0.0,0.0,0.0,0.0,0.0,0.0,-0.0998,0.9936,-0.0185,0.4667,0.5345,-0.5372,-0.4560
1028,0.0,0.0,0.0,0.0,0.0,0.0,-0.1041,0.9741,-0.0235,0.4676,0.5353,-0.5348,-0.4569
1029,0.0,0.0,0.0,0.0,0.0,0.0,-0.0973,0.9761,-0.0221,0.4680,0.5357,-0.5335,-0.4576
1030,0.0,0.0,0.0,0.0,0.0,0.0,-0.1062,0.9956,-0.0097,0.4685,0.5357,-0.5322,-0.4586
1031,0.0,0.0,0.0,0.0,0.0,0.0,-0.1086,0.9888,-0.0141,0.4686,0.5359,-0.5315,-0.4590
1032,0.0,0.0,0.0,0.0,0.0,0.0,-0.0988,0.9707,-0.0221,0.4686,0.5361,-0.5310,-0.4594
1033,0.0,0.0,0.0,0.0,0.0,0.0,-0.0963,0.9682,-0.0279,0.4688,0.5365,-0.5303,-0.4595
1034,0.0,0.0,0.0,0.0,0.0,0.0,-0.0846,0.9633,-0.0315,0.4688,0.5369,-0.5306,-0.4588
1035,0.0,0.0,0.0,0.0,0.0,0.0,-0.0851,0.9682,-0.0309,0.4689,0.5371,-0.5310,-0.4580
1036,0.0,0.0,0.0,0.0,0.0,0.0,-0.0885,0.9769,-0.0338,0.4686,0.5378,-0.5315,-0.4568
1037,0.0,0.0,0.0,0.0,0.0,0.0,-0.0964,0.9985,-0.0176,0.4686,0.5382,-0.5318,-0.4560
1038,0.0,0.0,0.0,0.0,0.0,0.0,-0.0940,1.0029,-0.0214,0.4690,0.5383,-0.5318,-0.4556
1039,0.0,0.0,0.0,0.0,0.0,0.0,-0.0885,0.9881,-0.0351,0.4689,0.5389,-0.5320,-0.4547
1040,0.0,0.0,0.0,0.0,0.0,0.0,-0.0876,0.9965,-0.0283,0.4690,0.5393,-0.5320,-0.4540
