,Position_X,Position_Y,Position_Z,Velocity_X,Velocity_Y,Velocity_Z,Acceleration_X,Acceleration_Y,Acceleration_Z,Quaterion_0,Quaterion_1,Quaterion_2,Quaterion_3
51,0.0,0.0,0.0,0.0,0.0,0.0,-0.0723,0.9566,-0.2683,0.3221,0.5272,-0.6748,-0.4037
52,0.0,0.0,0.0,0.0,0.0,0.0,-0.0684,0.9527,-0.2704,0.3220,0.5268,-0.6743,-0.4052
53,0.0,0.0,0.0,0.0,0.0,0.0,-0.0713,0.9396,-0.2689,0.3228,0.5263,-0.6737,-0.4061
54,0.0,0.0,0.0,0.0,0.0,0.0,-0.0737,0.9348,-0.2709,0.3234,0.5261,-0.6733,-0.4066
55,0.0,0.0,0.0,0.0,0.0,0.0,-0.0805,0.9411,-0.2722,0.3236,0.5261,-0.6729,-0.4070
56,0.0,0.0,0.0,0.0,0.0,0.0,-0.0883,0.9484,-0.2721,0.3240,0.5259,-0.6726,-0.4076
57,0.0,0.0,0.0,0.0,0.0,0.0,-0.0976,0.9378,-0.2667,0.3240,0.5257,-0.6724,-0.4081
58,0.0,0.0,0.0,0.0,0.0,0.0,-0.0941,0.9464,-0.2774,0.3239,0.5255,-0.6725,-0.4083
59,0.0,0.0,0.0,0.0,0.0,0.0,-0.0597,0.8604,-0.3436,0.3206,0.5240,-0.6756,-0.4077
60,0.0,0.0,0.0,0.0,0.0,0.0,-0.1108,0.9494,-0.2723,0.3202,0.5270,-0.6754,-0.4045
61,0.0,0.0,0.0,0.0,0.0,0.0,-0.0819,0.9871,-0.2866,0.3206,0.5242,-0.6765,-0.4059
62,0.0,0.0,0.0,0.0,0.0,0.0,-0.1166,0.9349,-0.2714,0.3173,0.5256,-0.6777,-0.4048
63,0.0,0.0,0.0,0.0,0.0,0.0,-0.1143,0.9849,-0.2653,0.3181,0.5242,-0.6784,-0.4048
64,0.0,0.0,0.0,0.0,0.0,0.0,-0.0849,0.9517,-0.2775,0.3178,0.5232,-0.6787,-0.4059
65,0.0,0.0,0.0,0.0,0.0,0.0,-0.0810,0.9576,-0.2775,0.3184,0.5214,-0.6795,-0.4062
66,0.0,0.0,0.0,0.0,0.0,0.0,-0.0692,0.9580,-0.2854,0.3194,0.5198,-0.6803,-0.4062
67,0.0,0.0,0.0,0.0,0.0,0.0,-0.0829,0.9503,-0.2751,0.3202,0.5191,-0.6800,-0.4069
68,0.0,0.0,0.0,0.0,0.0,0.0,-0.0942,0.9513,-0.2701,0.3206,0.5191,-0.6795,-0.4075
69,0.0,0.0,0.0,0.0,0.0,0.0,-0.0927,0.9537,-0.2794,0.3208,0.5193,-0.6790,-0.4078
70,0.0,0.0,0.0,0.0,0.0,0.0,-0.0906,0.9371,-0.2873,0.3211,0.5198,-0.6782,-0.4082
71,0.0,0.0,0.0,0.0,0.0,0.0,-0.0994,0.9274,-0.2877,0.3210,0.5206,-0.6775,-0.4085
72,0.0,0.0,0.0,0.0,0.0,0.0,-0.1007,0.9259,-0.2975,0.3203,0.5213,-0.6774,-0.4085
73,0.0,0.0,0.0,0.0,0.0,0.0,-0.0983,0.9113,-0.2980,0.3205,0.5214,-0.6775,-0.4079
74,0.0,0.0,0.0,0.0,0.0,0.0,-0.1009,0.9449,-0.2900,0.3213,0.5216,-0.6776,-0.4068
75,0.0,0.0,0.0,0.0,0.0,0.0,-0.1009,0.9624,-0.2899,0.3218,0.5219,-0.6778,-0.4058
76,0.0,0.0,0.0,0.0,0.0,0.0,-0.1191,0.9655,-0.2731,0.3229,0.5218,-0.6778,-0.4050
77,0.0,0.0,0.0,0.0,0.0,0.0,-0.1187,0.9635,-0.2688,0.3237,0.5216,-0.6776,-0.4050
78,0.0,0.0,0.0,0.0,0.0,0.0,-0.1117,0.9649,-0.2801,0.3239,0.5215,-0.6775,-0.4051
79,0.0,0.0,0.0,0.0,0.0,0.0,-0.1112,0.9596,-0.2791,0.3240,0.5213,-0.6773,-0.4056
80,0.0,0.0,0.0,0.0,0.0,0.0,-0.1147,0.9547,-0.2762,0.3236,0.5212,-0.6771,-0.4063
81,0.0,0.0,0.0,0.0,0.0,0.0,-0.1137,0.9460,-0.2753,0.3229,0.5214,-0.6770,-0.4068
82,0.0,0.0,0.0,0.0,0.0,0.0,-0.1122,0.9417,-0.2719,0.3226,0.5216,-0.6768,-0.4073
83,0.0,0.0,0.0,0.0,0.0,0.0,-0.1044,0.9484,-0.2797,0.3222,0.5217,-0.6765,-0.4080
84,0.0,0.0,0.0,0.0,0.0,0.0,-0.1039,0.9455,-0.2778,0.3219,0.5217,-0.6761,-0.4087
85,0.0,0.0,0.0,0.0,0.0,0.0,-0.1019,0.9358,-0.2759,0.3216,0.5216,-0.6759,-0.4095
86,0.0,0.0,0.0,0.0,0.0,0.0,-0.0980,0.9367,-0.2804,0.3208,0.5216,-0.6760,-0.4100
87,0.0,0.0,0.0,0.0,0.0,0.0,-0.0995,0.9391,-0.2818,0.3202,0.5216,-0.6760,-0.4103
88,0.0,0.0,0.0,0.0,0.0,0.0,-0.1063,0.9358,-0.2744,0.3201,0.5217,-0.6760,-0.4103
89,0.0,0.0,0.0,0.0,0.0,0.0,-0.1049,0.9402,-0.2725,0.3201,0.5216,-0.6762,-0.4101
90,0.0,0.0,0.0,0.0,0.0,0.0,-0.1025,0.9494,-0.2759,0.3202,0.5214,-0.6763,-0.4101
91,0.0,0.0,0.0,0.0,0.0,0.0,-0.1069,0.9567,-0.2758,0.3203,0.5211,-0.6765,-0.4102
92,0.0,0.0,0.0,0.0,0.0,0.0,-0.0781,0.9359,-0.3177,0.3190,0.5194,-0.6785,-0.4100
93,0.0,0.0,0.0,0.0,0.0,0.0,-0.0872,0.8316,-0.3157,0.3160,0.5225,-0.6802,-0.4055
94,0.0,0.0,0.0,0.0,0.0,0.0,-0.1232,1.0388,-0.2727,0.3202,0.5214,-0.6788,-0.4060
95,0.0,0.0,0.0,0.0,0.0,0.0,-0.0728,0.9064,-0.3047,0.3174,0.5216,-0.6801,-0.4057
96,0.0,0.0,0.0,0.0,0.0,0.0,-0.1344,0.9845,-0.2597,0.3182,0.5209,-0.6809,-0.4048
97,0.0,0.0,0.0,0.0,0.0,0.0,-0.0834,0.9730,-0.2847,0.3193,0.5195,-0.6810,-0.4053
98,0.0,0.0,0.0,0.0,0.0,0.0,-0.1054,0.9649,-0.2767,0.3197,0.5192,-0.6806,-0.4062
99,0.0,0.0,0.0,0.0,0.0,0.0,-0.1069,0.9717,-0.2718,0.3200,0.5183,-0.6805,-0.4073
100,0.0,0.0,0.0,0.0,0.0,0.0,-0.0941,0.9542,-0.2793,0.3204,0.5181,-0.6798,-0.4084
101,0.0,0.0,0.0,0.0,0.0,0.0,-0.0980,0.9435,-0.2798,0.3209,0.5185,-0.6786,-0.4094
102,0.0,0.0,0.0,0.0,0.0,0.0,-0.1042,0.9303,-0.2901,0.3205,0.5193,-0.6777,-0.4102
103,0.0,0.0,0.0,0.0,0.0,0.0,-0.0851,0.9210,-0.2981,0.3201,0.5192,-0.6777,-0.4107
104,0.0,0.0,0.0,0.0,0.0,0.0,-0.0905,0.9225,-0.2966,0.3195,0.5192,-0.6782,-0.4104
105,0.0,0.0,0.0,0.0,0.0,0.0,-0.1063,0.9251,-0.2823,0.3189,0.5193,-0.6784,-0.4104
106,0.0,0.0,0.0,0.0,0.0,0.0,-0.1098,0.9474,-0.2782,0.3189,0.5188,-0.6789,-0.4102
107,0.0,0.0,0.0,0.0,0.0,0.0,-0.1098,0.9605,-0.2777,0.3195,0.5183,-0.6794,-0.4095
108,0.0,0.0,0.0,0.0,0.0,0.0,-0.1113,0.9620,-0.2728,0.3202,0.5179,-0.6795,-0.4092
109,0.0,0.0,0.0,0.0,0.0,0.0,-0.1147,0.9504,-0.2669,0.3208,0.5175,-0.6796,-0.4092
110,0.0,0.0,0.0,0.0,0.0,0.0,-0.1108,0.9538,-0.2718,0.3206,0.5172,-0.6799,-0.4094
111,0.0,0.0,0.0,0.0,0.0,0.0,-0.1005,0.9513,-0.2749,0.3198,0.5167,-0.6804,-0.4097
112,0.0,0.0,0.0,0.0,0.0,0.0,-0.0946,0.9445,-0.2794,0.3191,0.5162,-0.6808,-0.4101
113,0.0,0.0,0.0,0.0,0.0,0.0,-0.0985,0.9421,-0.2769,0.3188,0.5158,-0.6812,-0.4102
114,0.0,0.0,0.0,0.0,0.0,0.0,-0.0995,0.9421,-0.2764,0.3190,0.5154,-0.6814,-0.4101
115,0.0,0.0,0.0,0.0,0.0,0.0,-0.1010,0.9411,-0.2779,0.3196,0.5153,-0.6814,-0.4100
116,0.0,0.0,0.0,0.0,0.0,0.0,-0.1015,0.9392,-0.2764,0.3195,0.5152,-0.6817,-0.4097
117,0.0,0.0,0.0,0.0,0.0,0.0,-0.0946,0.9479,-0.2803,0.3187,0.5148,-0.6821,-0.4100
118,0.0,0.0,0.0,0.0,0.0,0.0,-0.0947,0.9440,-0.2730,0.3181,0.5143,-0.6825,-0.4104
119,0.0,0.0,0.0,0.0,0.0,0.0,-0.0937,0.9450,-0.2750,0.3178,0.5140,-0.6831,-0.4101
120,0.0,0.0,0.0,0.0,0.0,0.0,-0.0912,0.9484,-0.2740,0.3182,0.5136,-0.6836,-0.4095
121,0.0,0.0,0.0,0.0,0.0,0.0,-0.0859,0.9571,-0.2780,0.3191,0.5132,-0.6838,-0.4090
122,0.0,0.0,0.0,0.0,0.0,0.0,-0.0849,0.9566,-0.2755,0.3200,0.5128,-0.6837,-0.4089
123,0.0,0.0,0.0,0.0,0.0,0.0,-0.0883,0.9571,-0.2760,0.3204,0.5126,-0.6837,-0.4088
124,0.0,0.0,0.0,0.0,0.0,0.0,-0.0862,0.9729,-0.3013,0.3198,0.5125,-0.6841,-0.4088
125,0.0,0.0,0.0,0.0,0.0,0.0,-0.0369,0.8272,-0.3704,0.3146,0.5098,-0.6886,-0.4086
126,0.0,0.0,0.0,0.0,0.0,0.0,-0.1193,1.0092,-0.2627,0.3160,0.5140,-0.6875,-0.4041
127,0.0,0.0,0.0,0.0,0.0,0.0,-0.0719,0.9782,-0.3112,0.3160,0.5101,-0.6888,-0.4069
128,0.0,0.0,0.0,0.0,0.0,0.0,-0.1107,0.9178,-0.2798,0.3131,0.5119,-0.6900,-0.4048
129,0.0,0.0,0.0,0.0,0.0,0.0,-0.0971,0.9920,-0.2854,0.3156,0.5099,-0.6906,-0.4043
130,0.0,0.0,0.0,0.0,0.0,0.0,-0.0641,0.9345,-0.2998,0.3156,0.5098,-0.6905,-0.4046
131,0.0,0.0,0.0,0.0,0.0,0.0,-0.1122,0.9581,-0.2781,0.3160,0.5097,-0.6905,-0.4045
132,0.0,0.0,0.0,0.0,0.0,0.0,-0.1029,0.9668,-0.2860,0.3162,0.5095,-0.6904,-0.4047
133,0.0,0.0,0.0,0.0,0.0,0.0,-0.0802,0.9335,-0.3098,0.3145,0.5099,-0.6904,-0.4055
134,0.0,0.0,0.0,0.0,0.0,0.0,-0.0601,0.9383,-0.3105,0.3149,0.5092,-0.6910,-0.4051
135,0.0,0.0,0.0,0.0,0.0,0.0,-0.0714,0.9350,-0.3090,0.3156,0.5093,-0.6913,-0.4038
136,0.0,0.0,0.0,0.0,0.0,0.0,-0.0764,0.9404,-0.2957,0.3154,0.5092,-0.6917,-0.4036
137,0.0,0.0,0.0,0.0,0.0,0.0,-0.0696,0.9433,-0.2963,0.3160,0.5080,-0.6922,-0.4036
138,0.0,0.0,0.0,0.0,0.0,0.0,-0.0637,0.9496,-0.3031,0.3172,0.5074,-0.6927,-0.4026
139,0.0,0.0,0.0,0.0,0.0,0.0,-0.0618,0.9656,-0.2972,0.3192,0.5070,-0.6928,-0.4014
140,0.0,0.0,0.0,0.0,0.0,0.0,-0.0672,0.9701,-0.2883,0.3209,0.5062,-0.6927,-0.4011
141,0.0,0.0,0.0,0.0,0.0,0.0,-0.0785,0.9537,-0.2795,0.3223,0.5055,-0.6926,-0.4011
142,0.0,0.0,0.0,0.0,0.0,0.0,-0.0774,0.9415,-0.2884,0.3233,0.5048,-0.6926,-0.4011
143,0.0,0.0,0.0,0.0,0.0,0.0,-0.0715,0.9327,-0.2948,0.3240,0.5042,-0.6928,-0.4012
144,0.0,0.0,0.0,0.0,0.0,0.0,-0.0764,0.9225,-0.2924,0.3255,0.5035,-0.6927,-0.4008
145,0.0,0.0,0.0,0.0,0.0,0.0,-0.0730,0.9104,-0.2896,0.3276,0.5029,-0.6928,-0.3998
146,0.0,0.0,0.0,0.0,0.0,0.0,-0.0665,0.9117,-0.2994,0.3296,0.5023,-0.6933,-0.3980
147,0.0,0.0,0.0,0.0,0.0,0.0,-0.0567,0.9185,-0.3063,0.3307,0.5021,-0.6948,-0.3947
148,0.0,0.0,0.0,0.0,0.0,0.0,-0.0392,0.9252,-0.3025,0.3324,0.5017,-0.6963,-0.3911
149,0.0,0.0,0.0,0.0,0.0,0.0,-0.0481,0.9350,-0.2921,0.3360,0.5016,-0.6968,-0.3874
150,0.0,0.0,0.0,0.0,0.0,0.0,-0.0485,0.9297,-0.2970,0.3391,0.5019,-0.6973,-0.3833
151,0.0,0.0,0.0,0.0,0.0,0.0,-0.0465,0.9412,-0.3068,0.3416,0.5030,-0.6980,-0.3784
152,0.0,0.0,0.0,0.0,0.0,0.0,-0.0501,0.9632,-0.2964,0.3454,0.5038,-0.6978,-0.3740
153,0.0,0.0,0.0,0.0,0.0,0.0,-0.0433,0.9632,-0.2925,0.3497,0.5044,-0.6968,-0.3711
154,0.0,0.0,0.0,0.0,0.0,0.0,-0.0338,0.9587,-0.3112,0.3530,0.5053,-0.6959,-0.3685
155,0.0,0.0,0.0,0.0,0.0,0.0,-0.0529,0.9524,-0.3052,0.3562,0.5069,-0.6947,-0.3654
156,0.0,0.0,0.0,0.0,0.0,0.0,-0.0541,0.9768,-0.2894,0.3598,0.5086,-0.6934,-0.3621
157,0.0,0.0,0.0,0.0,0.0,0.0,-0.0455,0.9936,-0.3182,0.3622,0.5100,-0.6923,-0.3598
158,0.0,0.0,0.0,0.0,0.0,0.0,-0.0659,0.9741,-0.2727,0.3657,0.5110,-0.6900,-0.3592
159,0.0,0.0,0.0,0.0,0.0,0.0,-0.0265,0.9732,-0.3141,0.3676,0.5121,-0.6883,-0.3590
160,0.0,0.0,0.0,0.0,0.0,0.0,-0.0587,0.9839,-0.3171,0.3698,0.5148,-0.6858,-0.3577
161,0.0,0.0,0.0,0.0,0.0,0.0,-0.0294,0.9513,-0.3162,0.3704,0.5177,-0.6843,-0.3556
162,0.0,0.0,0.0,0.0,0.0,0.0,0.0079,0.9341,-0.3372,0.3690,0.5202,-0.6837,-0.3546
163,0.0,0.0,0.0,0.0,0.0,0.0,-0.0150,0.9390,-0.3383,0.3679,0.5243,-0.6816,-0.3539
164,0.0,0.0,0.0,0.0,0.0,0.0,-0.0257,0.9361,-0.3397,0.3676,0.5286,-0.6790,-0.3528
165,0.0,0.0,0.0,0.0,0.0,0.0,-0.0217,0.9268,-0.3496,0.3663,0.5320,-0.6771,-0.3526
166,0.0,0.0,0.0,0.0,0.0,0.0,-0.0176,0.9082,-0.3634,0.3657,0.5353,-0.6749,-0.3524
167,0.0,0.0,0.0,0.0,0.0,0.0,-0.0025,0.9024,-0.3611,0.3647,0.5386,-0.6732,-0.3517
168,0.0,0.0,0.0,0.0,0.0,0.0,-0.0011,0.9237,-0.3635,0.3633,0.5411,-0.6726,-0.3504
169,0.0,0.0,0.0,0.0,0.0,0.0,0.0033,0.9335,-0.3586,0.3618,0.5425,-0.6731,-0.3489
170,0.0,0.0,0.0,0.0,0.0,0.0,-0.0148,0.9117,-0.3541,0.3600,0.5439,-0.6737,-0.3474
171,0.0,0.0,0.0,0.0,0.0,0.0,-0.0020,0.8786,-0.3583,0.3581,0.5449,-0.6748,-0.3458
172,0.0,0.0,0.0,0.0,0.0,0.0,0.0133,0.8693,-0.3717,0.3567,0.5458,-0.6761,-0.3432
173,0.0,0.0,0.0,0.0,0.0,0.0,0.0118,0.8654,-0.3693,0.3560,0.5463,-0.6775,-0.3404
174,0.0,0.0,0.0,0.0,0.0,0.0,0.0188,0.8614,-0.3840,0.3548,0.5458,-0.6798,-0.3379
175,0.0,0.0,0.0,0.0,0.0,0.0,0.0218,0.8589,-0.3923,0.3536,0.5448,-0.6826,-0.3350
176,0.0,0.0,0.0,0.0,0.0,0.0,0.0251,0.8764,-0.3869,0.3527,0.5428,-0.6857,-0.3328
177,0.0,0.0,0.0,0.0,0.0,0.0,0.0157,0.9017,-0.3833,0.3523,0.5395,-0.6888,-0.3321
178,0.0,0.0,0.0,0.0,0.0,0.0,0.0039,0.9154,-0.3748,0.3517,0.5358,-0.6920,-0.3321
179,0.0,0.0,0.0,0.0,0.0,0.0,0.0072,0.9402,-0.3625,0.3514,0.5314,-0.6950,-0.3334
180,0.0,0.0,0.0,0.0,0.0,0.0,0.0259,0.9503,-0.3778,0.3504,0.5263,-0.6983,-0.3356
181,0.0,0.0,0.0,0.0,0.0,0.0,0.0228,0.9528,-0.3626,0.3501,0.5213,-0.7010,-0.3380
182,0.0,0.0,0.0,0.0,0.0,0.0,0.0002,0.9438,-0.3424,0.3497,0.5169,-0.7032,-0.3406
183,0.0,0.0,0.0,0.0,0.0,0.0,-0.0086,0.9394,-0.3487,0.3484,0.5133,-0.7053,-0.3431
184,0.0,0.0,0.0,0.0,0.0,0.0,0.0213,0.9340,-0.3529,0.3473,0.5097,-0.7073,-0.3454
185,0.0,0.0,0.0,0.0,0.0,0.0,0.0199,0.9033,-0.3614,0.3464,0.5069,-0.7092,-0.3465
186,0.0,0.0,0.0,0.0,0.0,0.0,0.0248,0.8975,-0.3527,0.3457,0.5042,-0.7115,-0.3465
187,0.0,0.0,0.0,0.0,0.0,0.0,0.0443,0.9144,-0.3621,0.3447,0.5009,-0.7141,-0.3469
188,0.0,0.0,0.0,0.0,0.0,0.0,0.0568,0.9219,-0.3944,0.3430,0.4974,-0.7170,-0.3477
189,0.0,0.0,0.0,0.0,0.0,0.0,0.0793,0.9330,-0.3980,0.3394,0.4944,-0.7206,-0.3479
190,0.0,0.0,0.0,0.0,0.0,0.0,0.1236,0.9989,-0.4045,0.3332,0.4915,-0.7252,-0.3486
191,0.0,0.0,0.0,0.0,0.0,0.0,0.0791,1.0377,-0.3486,0.3263,0.4888,-0.7295,-0.3499
192,0.0,0.0,0.0,0.0,0.0,0.0,0.0393,1.0492,-0.3247,0.3193,0.4853,-0.7335,-0.3530
193,0.0,0.0,0.0,0.0,0.0,0.0,0.0055,0.9811,-0.3491,0.3115,0.4821,-0.7374,-0.3561
194,0.0,0.0,0.0,0.0,0.0,0.0,0.0035,0.8839,-0.3725,0.3029,0.4797,-0.7424,-0.3562
195,0.0,0.0,0.0,0.0,0.0,0.0,0.0000,0.9227,-0.3757,0.2956,0.4782,-0.7463,-0.3563
196,0.0,0.0,0.0,0.0,0.0,0.0,-0.0450,0.9427,-0.3126,0.2935,0.4764,-0.7468,-0.3595
197,0.0,0.0,0.0,0.0,0.0,0.0,-0.0256,0.9045,-0.3472,0.2903,0.4735,-0.7470,-0.3654
198,0.0,0.0,0.0,0.0,0.0,0.0,-0.0272,0.8989,-0.3813,0.2895,0.4712,-0.7476,-0.3677
199,0.0,0.0,0.0,0.0,0.0,0.0,-0.0305,0.8464,-0.3250,0.2906,0.4702,-0.7470,-0.3693
200,0.0,0.0,0.0,0.0,0.0,0.0,0.0240,0.8916,-0.3727,0.2906,0.4674,-0.7488,-0.3692
201,0.0,0.0,0.0,0.0,0.0,0.0,0.0374,0.9214,-0.4107,0.2941,0.4661,-0.7503,-0.3652
202,0.0,0.0,0.0,0.0,0.0,0.0,0.0301,0.9335,-0.4116,0.2979,0.4652,-0.7515,-0.3607
203,0.0,0.0,0.0,0.0,0.0,0.0,-0.0135,0.8442,-0.4247,0.3003,0.4658,-0.7531,-0.3544
204,0.0,0.0,0.0,0.0,0.0,0.0,-0.0652,0.7347,-0.4071,0.3004,0.4704,-0.7550,-0.3441
205,0.0,0.0,0.0,0.0,0.0,0.0,0.0314,0.6667,-0.3861,0.2970,0.4745,-0.7602,-0.3298
206,0.0,0.0,0.0,0.0,0.0,0.0,0.1153,0.8097,-0.5219,0.2918,0.4778,-0.7677,-0.3119
207,0.0,0.0,0.0,0.0,0.0,0.0,0.0456,0.9503,-0.5107,0.2960,0.4792,-0.7717,-0.2954
208,0.0,0.0,0.0,0.0,0.0,0.0,0.0405,1.0520,-0.4057,0.3048,0.4783,-0.7733,-0.2836
209,0.0,0.0,0.0,0.0,0.0,0.0,0.1163,1.1313,-0.4856,0.3126,0.4777,-0.7724,-0.2784
210,0.0,0.0,0.0,0.0,0.0,0.0,0.1255,1.0392,-0.4652,0.3264,0.4787,-0.7674,-0.2746
211,0.0,0.0,0.0,0.0,0.0,0.0,0.1378,1.0048,-0.5197,0.3336,0.4806,-0.7630,-0.2749
212,0.0,0.0,0.0,0.0,0.0,0.0,0.1274,0.9647,-0.4949,0.3385,0.4828,-0.7582,-0.2784
213,0.0,0.0,0.0,0.0,0.0,0.0,0.1304,0.9278,-0.4932,0.3418,0.4862,-0.7525,-0.2838
214,0.0,0.0,0.0,0.0,0.0,0.0,0.1259,0.9512,-0.4803,0.3433,0.4922,-0.7450,-0.2913
215,0.0,0.0,0.0,0.0,0.0,0.0,0.0976,0.9308,-0.4255,0.3438,0.4989,-0.7369,-0.2997
216,0.0,0.0,0.0,0.0,0.0,0.0,0.0850,0.9081,-0.4825,0.3417,0.5056,-0.7301,-0.3075
217,0.0,0.0,0.0,0.0,0.0,0.0,0.0687,0.8080,-0.5004,0.3393,0.5101,-0.7248,-0.3152
218,0.0,0.0,0.0,0.0,0.0,0.0,0.0970,0.8278,-0.5031,0.3379,0.5137,-0.7195,-0.3230
219,0.0,0.0,0.0,0.0,0.0,0.0,0.0337,0.8447,-0.4106,0.3396,0.5162,-0.7131,-0.3313
220,0.0,0.0,0.0,0.0,0.0,0.0,-0.0243,0.7837,-0.4059,0.3385,0.5150,-0.7089,-0.3430
221,0.0,0.0,0.0,0.0,0.0,0.0,-0.0255,0.8338,-0.3958,0.3348,0.5135,-0.7070,-0.3527
222,0.0,0.0,0.0,0.0,0.0,0.0,-0.0224,0.8646,-0.4211,0.3293,0.5124,-0.7073,-0.3588
223,0.0,0.0,0.0,0.0,0.0,0.0,-0.0176,0.8094,-0.4029,0.3261,0.5111,-0.7090,-0.3602
224,0.0,0.0,0.0,0.0,0.0,0.0,-0.0003,0.8499,-0.3751,0.3272,0.5087,-0.7114,-0.3579
225,0.0,0.0,0.0,0.0,0.0,0.0,-0.0289,0.8851,-0.3487,0.3313,0.5085,-0.7132,-0.3508
226,0.0,0.0,0.0,0.0,0.0,0.0,-0.0366,0.9977,-0.2876,0.3338,0.5091,-0.7150,-0.3437
227,0.0,0.0,0.0,0.0,0.0,0.0,-0.0521,1.0369,-0.3033,0.3332,0.5097,-0.7165,-0.3404
228,0.0,0.0,0.0,0.0,0.0,0.0,-0.0239,0.9930,-0.3316,0.3315,0.5089,-0.7173,-0.3414
229,0.0,0.0,0.0,0.0,0.0,0.0,0.0046,0.9583,-0.3541,0.3279,0.5074,-0.7183,-0.3452
230,0.0,0.0,0.0,0.0,0.0,0.0,0.0009,0.9145,-0.3591,0.3250,0.5067,-0.7189,-0.3476
231,0.0,0.0,0.0,0.0,0.0,0.0,0.0082,0.9121,-0.3617,0.3229,0.5060,-0.7192,-0.3500
232,0.0,0.0,0.0,0.0,0.0,0.0,-0.0161,0.8762,-0.3601,0.3224,0.5056,-0.7190,-0.3513
233,0.0,0.0,0.0,0.0,0.0,0.0,-0.0183,0.8658,-0.3299,0.3247,0.5055,-0.7187,-0.3501
234,0.0,0.0,0.0,0.0,0.0,0.0,0.0086,0.9107,-0.3475,0.3281,0.5050,-0.7181,-0.3488
235,0.0,0.0,0.0,0.0,0.0,0.0,-0.0061,0.9234,-0.3517,0.3319,0.5051,-0.7167,-0.3479
236,0.0,0.0,0.0,0.0,0.0,0.0,-0.0032,0.8745,-0.3286,0.3344,0.5047,-0.7165,-0.3464
237,0.0,0.0,0.0,0.0,0.0,0.0,0.0303,0.8644,-0.3695,0.3349,0.5037,-0.7179,-0.3446
238,0.0,0.0,0.0,0.0,0.0,0.0,0.0149,0.8323,-0.3846,0.3361,0.5033,-0.7195,-0.3407
239,0.0,0.0,0.0,0.0,0.0,0.0,0.0076,0.7994,-0.3740,0.3381,0.5025,-0.7219,-0.3347
240,0.0,0.0,0.0,0.0,0.0,0.0,0.0163,0.7853,-0.3673,0.3443,0.4997,-0.7241,-0.3277
241,0.0,0.0,0.0,0.0,0.0,0.0,0.0430,0.8722,-0.3647,0.3534,0.4966,-0.7255,-0.3196
242,0.0,0.0,0.0,0.0,0.0,0.0,0.0912,1.0132,-0.3811,0.3611,0.4965,-0.7266,-0.3085
243,0.0,0.0,0.0,0.0,0.0,0.0,0.0818,0.9799,-0.3621,0.3675,0.4976,-0.7274,-0.2970
244,0.0,0.0,0.0,0.0,0.0,0.0,0.1134,0.9396,-0.3476,0.3712,0.4991,-0.7281,-0.2880
245,0.0,0.0,0.0,0.0,0.0,0.0,0.1934,0.8762,-0.4288,0.3720,0.5004,-0.7299,-0.2801
246,0.0,0.0,0.0,0.0,0.0,0.0,0.2018,0.9352,-0.4559,0.3714,0.5004,-0.7325,-0.2740
247,0.0,0.0,0.0,0.0,0.0,0.0,0.1767,0.9364,-0.4327,0.3700,0.4993,-0.7349,-0.2715
248,0.0,0.0,0.0,0.0,0.0,0.0,0.1748,0.9121,-0.4367,0.3655,0.4974,-0.7381,-0.2725
249,0.0,0.0,0.0,0.0,0.0,0.0,0.1610,0.9573,-0.4314,0.3610,0.4948,-0.7409,-0.2755
250,0.0,0.0,0.0,0.0,0.0,0.0,0.1341,0.9812,-0.4242,0.3569,0.4917,-0.7430,-0.2808
251,0.0,0.0,0.0,0.0,0.0,0.0,0.1377,1.0057,-0.4016,0.3531,0.4853,-0.7448,-0.2917
252,0.0,0.0,0.0,0.0,0.0,0.0,0.1334,1.0070,-0.4133,0.3476,0.4777,-0.7473,-0.3041
253,0.0,0.0,0.0,0.0,0.0,0.0,0.1226,1.0270,-0.4082,0.3392,0.4736,-0.7507,-0.3116
254,0.0,0.0,0.0,0.0,0.0,0.0,0.0283,0.9160,-0.4224,0.3269,0.4756,-0.7541,-0.3134
255,0.0,0.0,0.0,0.0,0.0,0.0,0.0271,0.8784,-0.4455,0.3150,0.4807,-0.7555,-0.3146
256,0.0,0.0,0.0,0.0,0.0,0.0,0.0089,0.8873,-0.4301,0.3042,0.4862,-0.7550,-0.3177
257,0.0,0.0,0.0,0.0,0.0,0.0,0.0093,0.9096,-0.4314,0.2932,0.4908,-0.7545,-0.3221
258,0.0,0.0,0.0,0.0,0.0,0.0,-0.0191,0.8802,-0.4137,0.2851,0.4946,-0.7530,-0.3271
259,0.0,0.0,0.0,0.0,0.0,0.0,-0.0258,0.9000,-0.4350,0.2769,0.4966,-0.7518,-0.3339
260,0.0,0.0,0.0,0.0,0.0,0.0,-0.0385,0.9083,-0.4329,0.2677,0.4982,-0.7515,-0.3398
261,0.0,0.0,0.0,0.0,0.0,0.0,-0.0468,0.8627,-0.4247,0.2611,0.4987,-0.7512,-0.3448
262,0.0,0.0,0.0,0.0,0.0,0.0,-0.0519,0.8612,-0.4437,0.2559,0.4987,-0.7503,-0.3506
263,0.0,0.0,0.0,0.0,0.0,0.0,-0.0816,0.8605,-0.4078,0.2560,0.4989,-0.7480,-0.3550
264,0.0,0.0,0.0,0.0,0.0,0.0,-0.0871,0.8878,-0.3983,0.2563,0.4983,-0.7458,-0.3604
265,0.0,0.0,0.0,0.0,0.0,0.0,-0.1013,0.8995,-0.3922,0.2562,0.4979,-0.7436,-0.3654
266,0.0,0.0,0.0,0.0,0.0,0.0,-0.0930,0.8830,-0.3909,0.2549,0.4973,-0.7424,-0.3696
267,0.0,0.0,0.0,0.0,0.0,0.0,-0.0609,0.8909,-0.4283,0.2513,0.4961,-0.7425,-0.3735
268,0.0,0.0,0.0,0.0,0.0,0.0,-0.0979,0.8573,-0.3837,0.2505,0.4948,-0.7425,-0.3757
269,0.0,0.0,0.0,0.0,0.0,0.0,-0.1063,0.8672,-0.3665,0.2494,0.4928,-0.7434,-0.3771
270,0.0,0.0,0.0,0.0,0.0,0.0,-0.1083,0.9229,-0.3769,0.2475,0.4914,-0.7448,-0.3775
271,0.0,0.0,0.0,0.0,0.0,0.0,-0.1015,0.9297,-0.3784,0.2456,0.4903,-0.7457,-0.3785
272,0.0,0.0,0.0,0.0,0.0,0.0,-0.0988,0.8786,-0.3924,0.2447,0.4899,-0.7462,-0.3786
273,0.0,0.0,0.0,0.0,0.0,0.0,-0.1116,0.8531,-0.3738,0.2457,0.4893,-0.7466,-0.3778
274,0.0,0.0,0.0,0.0,0.0,0.0,-0.1187,0.8610,-0.3493,0.2496,0.4881,-0.7469,-0.3762
275,0.0,0.0,0.0,0.0,0.0,0.0,-0.0951,0.8885,-0.3728,0.2549,0.4862,-0.7477,-0.3736
276,0.0,0.0,0.0,0.0,0.0,0.0,-0.0617,0.9357,-0.4100,0.2598,0.4840,-0.7489,-0.3708
277,0.0,0.0,0.0,0.0,0.0,0.0,-0.0563,0.9512,-0.4100,0.2647,0.4825,-0.7497,-0.3676
278,0.0,0.0,0.0,0.0,0.0,0.0,-0.0662,0.9019,-0.3931,0.2689,0.4813,-0.7504,-0.3645
279,0.0,0.0,0.0,0.0,0.0,0.0,-0.0692,0.8966,-0.3809,0.2727,0.4803,-0.7509,-0.3620
280,0.0,0.0,0.0,0.0,0.0,0.0,-0.0463,0.9296,-0.3785,0.2760,0.4787,-0.7518,-0.3599
281,0.0,0.0,0.0,0.0,0.0,0.0,-0.0173,0.9904,-0.4146,0.2782,0.4771,-0.7526,-0.3586
282,0.0,0.0,0.0,0.0,0.0,0.0,-0.0127,0.9621,-0.4353,0.2795,0.4756,-0.7530,-0.3587
283,0.0,0.0,0.0,0.0,0.0,0.0,-0.0316,0.9008,-0.3862,0.2803,0.4739,-0.7532,-0.3600
284,0.0,0.0,0.0,0.0,0.0,0.0,-0.0163,0.9181,-0.4097,0.2806,0.4721,-0.7535,-0.3614
285,0.0,0.0,0.0,0.0,0.0,0.0,-0.0167,0.9374,-0.4222,0.2822,0.4705,-0.7533,-0.3627
286,0.0,0.0,0.0,0.0,0.0,0.0,-0.0344,0.9085,-0.3978,0.2842,0.4698,-0.7528,-0.3630
287,0.0,0.0,0.0,0.0,0.0,0.0,-0.0131,0.9096,-0.3761,0.2867,0.4688,-0.7527,-0.3626
288,0.0,0.0,0.0,0.0,0.0,0.0,0.0067,0.8996,-0.4061,0.2893,0.4681,-0.7525,-0.3619
289,0.0,0.0,0.0,0.0,0.0,0.0,-0.0102,0.9004,-0.3752,0.2943,0.4672,-0.7517,-0.3608
290,0.0,0.0,0.0,0.0,0.0,0.0,-0.0517,0.8831,-0.3655,0.2993,0.4684,-0.7508,-0.3569
291,0.0,0.0,0.0,0.0,0.0,0.0,-0.0786,0.8390,-0.3557,0.3061,0.4712,-0.7492,-0.3508
292,0.0,0.0,0.0,0.0,0.0,0.0,-0.0427,0.8764,-0.3384,0.3148,0.4726,-0.7474,-0.3449
293,0.0,0.0,0.0,0.0,0.0,0.0,0.0076,1.0628,-0.3243,0.3275,0.4724,-0.7440,-0.3407
294,0.0,0.0,0.0,0.0,0.0,0.0,0.0938,1.1655,-0.3315,0.3387,0.4731,-0.7388,-0.3400
295,0.0,0.0,0.0,0.0,0.0,0.0,0.0978,1.0018,-0.4071,0.3495,0.4760,-0.7300,-0.3441
296,0.0,0.0,0.0,0.0,0.0,0.0,-0.0367,0.8844,-0.3042,0.3592,0.4796,-0.7202,-0.3497
297,0.0,0.0,0.0,0.0,0.0,0.0,0.0288,0.9225,-0.3155,0.3643,0.4825,-0.7131,-0.3550
298,0.0,0.0,0.0,0.0,0.0,0.0,0.0441,0.8978,-0.3836,0.3678,0.4878,-0.7059,-0.3584
299,0.0,0.0,0.0,0.0,0.0,0.0,0.0166,0.8883,-0.3629,0.3689,0.4942,-0.7002,-0.3598
300,0.0,0.0,0.0,0.0,0.0,0.0,0.0210,0.9072,-0.3672,0.3701,0.5010,-0.6956,-0.3580
301,0.0,0.0,0.0,0.0,0.0,0.0,0.0037,0.9306,-0.3552,0.3714,0.5079,-0.6914,-0.3551
302,0.0,0.0,0.0,0.0,0.0,0.0,-0.0257,0.9298,-0.3344,0.3715,0.5141,-0.6874,-0.3539
303,0.0,0.0,0.0,0.0,0.0,0.0,-0.0242,0.9395,-0.3412,0.3707,0.5198,-0.6835,-0.3537
304,0.0,0.0,0.0,0.0,0.0,0.0,-0.0242,0.9583,-0.3528,0.3689,0.5247,-0.6805,-0.3543
305,0.0,0.0,0.0,0.0,0.0,0.0,-0.0305,0.9176,-0.3456,0.3665,0.5296,-0.6775,-0.3552
306,0.0,0.0,0.0,0.0,0.0,0.0,-0.0231,0.8870,-0.3439,0.3629,0.5343,-0.6753,-0.3560
307,0.0,0.0,0.0,0.0,0.0,0.0,-0.0162,0.9010,-0.3536,0.3593,0.5382,-0.6738,-0.3567
308,0.0,0.0,0.0,0.0,0.0,0.0,-0.0397,0.9045,-0.3519,0.3568,0.5418,-0.6719,-0.3574
309,0.0,0.0,0.0,0.0,0.0,0.0,-0.0368,0.8953,-0.3417,0.3550,0.5441,-0.6702,-0.3589
310,0.0,0.0,0.0,0.0,0.0,0.0,-0.0276,0.8692,-0.3278,0.3541,0.5439,-0.6693,-0.3617
311,0.0,0.0,0.0,0.0,0.0,0.0,-0.0423,0.9332,-0.3425,0.3513,0.5419,-0.6692,-0.3675
312,0.0,0.0,0.0,0.0,0.0,0.0,-0.0836,0.9529,-0.3131,0.3474,0.5391,-0.6689,-0.3759
313,0.0,0.0,0.0,0.0,0.0,0.0,-0.1147,0.8941,-0.2638,0.3427,0.5356,-0.6697,-0.3837
314,0.0,0.0,0.0,0.0,0.0,0.0,-0.1194,0.9251,-0.2816,0.3371,0.5320,-0.6710,-0.3914
315,0.0,0.0,0.0,0.0,0.0,0.0,-0.1142,0.9064,-0.3184,0.3334,0.5283,-0.6721,-0.3976
316,0.0,0.0,0.0,0.0,0.0,0.0,-0.1074,0.8953,-0.3063,0.3308,0.5259,-0.6742,-0.3993
317,0.0,0.0,0.0,0.0,0.0,0.0,-0.1352,0.9291,-0.2707,0.3288,0.5248,-0.6767,-0.3981
318,0.0,0.0,0.0,0.0,0.0,0.0,-0.1314,0.9631,-0.2618,0.3265,0.5241,-0.6798,-0.3957
319,0.0,0.0,0.0,0.0,0.0,0.0,-0.1080,1.0334,-0.2754,0.3248,0.5249,-0.6822,-0.3919
320,0.0,0.0,0.0,0.0,0.0,0.0,-0.1023,1.0156,-0.2506,0.3259,0.5262,-0.6827,-0.3884
321,0.0,0.0,0.0,0.0,0.0,0.0,-0.0864,1.0166,-0.2352,0.3264,0.5268,-0.6820,-0.3883
322,0.0,0.0,0.0,0.0,0.0,0.0,-0.1006,1.0168,-0.2853,0.3265,0.5287,-0.6799,-0.3892
323,0.0,0.0,0.0,0.0,0.0,0.0,-0.1382,0.9534,-0.2696,0.3283,0.5314,-0.6762,-0.3907
324,0.0,0.0,0.0,0.0,0.0,0.0,-0.0908,0.8860,-0.3124,0.3262,0.5343,-0.6749,-0.3907
325,0.0,0.0,0.0,0.0,0.0,0.0,-0.0944,0.8804,-0.3461,0.3250,0.5382,-0.6741,-0.3877
326,0.0,0.0,0.0,0.0,0.0,0.0,-0.1267,0.8607,-0.3287,0.3239,0.5423,-0.6733,-0.3843
327,0.0,0.0,0.0,0.0,0.0,0.0,-0.1389,0.8118,-0.3186,0.3232,0.5452,-0.6743,-0.3791
328,0.0,0.0,0.0,0.0,0.0,0.0,-0.1188,0.8262,-0.3300,0.3228,0.5460,-0.6776,-0.3722
329,0.0,0.0,0.0,0.0,0.0,0.0,-0.0892,0.8719,-0.3735,0.3248,0.5467,-0.6815,-0.3622
330,0.0,0.0,0.0,0.0,0.0,0.0,-0.0934,0.8600,-0.3428,0.3288,0.5464,-0.6850,-0.3523
331,0.0,0.0,0.0,0.0,0.0,0.0,-0.0692,0.9673,-0.3400,0.3334,0.5454,-0.6880,-0.3437
332,0.0,0.0,0.0,0.0,0.0,0.0,-0.0460,0.9767,-0.3705,0.3373,0.5427,-0.6907,-0.3385
333,0.0,0.0,0.0,0.0,0.0,0.0,-0.0118,0.9383,-0.3628,0.3384,0.5384,-0.6941,-0.3375
334,0.0,0.0,0.0,0.0,0.0,0.0,0.0228,1.0032,-0.3750,0.3369,0.5326,-0.6974,-0.3412
335,0.0,0.0,0.0,0.0,0.0,0.0,0.0173,1.1016,-0.3271,0.3391,0.5259,-0.6980,-0.3481
336,0.0,0.0,0.0,0.0,0.0,0.0,0.0064,1.0694,-0.3555,0.3403,0.5189,-0.6966,-0.3602
337,0.0,0.0,0.0,0.0,0.0,0.0,-0.0008,1.0087,-0.3601,0.3395,0.5131,-0.6953,-0.3716
338,0.0,0.0,0.0,0.0,0.0,0.0,-0.0410,0.9750,-0.3310,0.3357,0.5109,-0.6946,-0.3792
339,0.0,0.0,0.0,0.0,0.0,0.0,-0.0853,0.8931,-0.3276,0.3320,0.5109,-0.6935,-0.3845
340,0.0,0.0,0.0,0.0,0.0,0.0,-0.0421,0.8870,-0.3559,0.3294,0.5107,-0.6918,-0.3901
341,0.0,0.0,0.0,0.0,0.0,0.0,-0.0459,0.9183,-0.3181,0.3261,0.5105,-0.6912,-0.3940
342,0.0,0.0,0.0,0.0,0.0,0.0,-0.1054,0.8778,-0.3084,0.3202,0.5118,-0.6928,-0.3945
343,0.0,0.0,0.0,0.0,0.0,0.0,-0.0428,0.8654,-0.3252,0.3153,0.5102,-0.6960,-0.3948
344,0.0,0.0,0.0,0.0,0.0,0.0,-0.0361,0.9183,-0.3241,0.3149,0.5073,-0.6981,-0.3951
345,0.0,0.0,0.0,0.0,0.0,0.0,-0.0638,0.9497,-0.2895,0.3156,0.5047,-0.7002,-0.3943
346,0.0,0.0,0.0,0.0,0.0,0.0,-0.0799,0.9570,-0.2917,0.3105,0.5018,-0.7040,-0.3953
347,0.0,0.0,0.0,0.0,0.0,0.0,-0.0551,0.9096,-0.3268,0.3068,0.4984,-0.7081,-0.3951
348,0.0,0.0,0.0,0.0,0.0,0.0,-0.0467,0.8862,-0.3275,0.3047,0.4955,-0.7119,-0.3935
349,0.0,0.0,0.0,0.0,0.0,0.0,-0.0202,0.8843,-0.3942,0.3004,0.4938,-0.7169,-0.3898
350,0.0,0.0,0.0,0.0,0.0,0.0,-0.0761,0.7659,-0.3961,0.2946,0.4955,-0.7233,-0.3801
351,0.0,0.0,0.0,0.0,0.0,0.0,-0.0480,0.6982,-0.3573,0.2872,0.4954,-0.7336,-0.3660
352,0.0,0.0,0.0,0.0,0.0,0.0,0.0377,0.8397,-0.4233,0.2805,0.4938,-0.7452,-0.3495
353,0.0,0.0,0.0,0.0,0.0,0.0,-0.0438,0.9857,-0.4051,0.2856,0.4930,-0.7511,-0.3334
354,0.0,0.0,0.0,0.0,0.0,0.0,-0.1519,0.9922,-0.2122,0.3048,0.4907,-0.7508,-0.3202
355,0.0,0.0,0.0,0.0,0.0,0.0,0.0314,1.1287,-0.3340,0.3236,0.4899,-0.7492,-0.3065
356,0.0,0.0,0.0,0.0,0.0,0.0,0.1683,1.2017,-0.5361,0.3373,0.4935,-0.7450,-0.2961
357,0.0,0.0,0.0,0.0,0.0,0.0,0.0387,1.0640,-0.4178,0.3513,0.4975,-0.7365,-0.2944
358,0.0,0.0,0.0,0.0,0.0,0.0,0.0661,0.9921,-0.3590,0.3593,0.5001,-0.7284,-0.3005
359,0.0,0.0,0.0,0.0,0.0,0.0,0.0652,0.9664,-0.4123,0.3612,0.5012,-0.7216,-0.3125
360,0.0,0.0,0.0,0.0,0.0,0.0,0.0120,0.9599,-0.4658,0.3568,0.5036,-0.7174,-0.3231
361,0.0,0.0,0.0,0.0,0.0,0.0,0.0100,0.8930,-0.4457,0.3479,0.5072,-0.7166,-0.3291
362,0.0,0.0,0.0,0.0,0.0,0.0,0.0538,0.8325,-0.4743,0.3405,0.5101,-0.7162,-0.3330
363,0.0,0.0,0.0,0.0,0.0,0.0,0.0379,0.8590,-0.4442,0.3399,0.5108,-0.7135,-0.3382
364,0.0,0.0,0.0,0.0,0.0,0.0,-0.0251,0.8591,-0.3884,0.3404,0.5112,-0.7106,-0.3433
365,0.0,0.0,0.0,0.0,0.0,0.0,-0.0243,0.8641,-0.3684,0.3389,0.5116,-0.7090,-0.3475
366,0.0,0.0,0.0,0.0,0.0,0.0,-0.0164,0.8649,-0.3797,0.3352,0.5113,-0.7094,-0.3506
367,0.0,0.0,0.0,0.0,0.0,0.0,-0.0196,0.9194,-0.3652,0.3316,0.5104,-0.7103,-0.3535
368,0.0,0.0,0.0,0.0,0.0,0.0,-0.0419,0.9497,-0.3390,0.3271,0.5095,-0.7118,-0.3561
369,0.0,0.0,0.0,0.0,0.0,0.0,-0.0063,0.9972,-0.3425,0.3200,0.5073,-0.7139,-0.3613
370,0.0,0.0,0.0,0.0,0.0,0.0,-0.0231,0.9747,-0.3112,0.3133,0.5048,-0.7158,-0.3670
371,0.0,0.0,0.0,0.0,0.0,0.0,-0.0359,0.9597,-0.2990,0.3068,0.5027,-0.7172,-0.3725
372,0.0,0.0,0.0,0.0,0.0,0.0,-0.0517,0.9599,-0.2808,0.2997,0.5009,-0.7184,-0.3785
373,0.0,0.0,0.0,0.0,0.0,0.0,-0.0506,0.9453,-0.2891,0.2912,0.4990,-0.7205,-0.3835
374,0.0,0.0,0.0,0.0,0.0,0.0,-0.0480,0.9912,-0.3119,0.2814,0.4980,-0.7224,-0.3886
375,0.0,0.0,0.0,0.0,0.0,0.0,-0.0392,0.9296,-0.3054,0.2687,0.4967,-0.7247,-0.3948
376,0.0,0.0,0.0,0.0,0.0,0.0,-0.0553,0.8482,-0.2901,0.2553,0.4940,-0.7288,-0.3994
377,0.0,0.0,0.0,0.0,0.0,0.0,-0.0469,0.8821,-0.3593,0.2404,0.4912,-0.7339,-0.4029
378,0.0,0.0,0.0,0.0,0.0,0.0,-0.0699,0.9366,-0.3612,0.2252,0.4877,-0.7392,-0.4061
379,0.0,0.0,0.0,0.0,0.0,0.0,-0.1231,0.8378,-0.3401,0.2103,0.4852,-0.7447,-0.4072
380,0.0,0.0,0.0,0.0,0.0,0.0,-0.1385,0.8187,-0.3664,0.1968,0.4840,-0.7498,-0.4059
381,0.0,0.0,0.0,0.0,0.0,0.0,-0.1153,0.8582,-0.4035,0.1833,0.4822,-0.7557,-0.4035
382,0.0,0.0,0.0,0.0,0.0,0.0,-0.1481,0.8370,-0.3896,0.1716,0.4808,-0.7615,-0.3994
383,0.0,0.0,0.0,0.0,0.0,0.0,-0.2084,0.8041,-0.4037,0.1601,0.4815,-0.7671,-0.3926
384,0.0,0.0,0.0,0.0,0.0,0.0,-0.1983,0.8029,-0.4341,0.1476,0.4812,-0.7734,-0.3854
385,0.0,0.0,0.0,0.0,0.0,0.0,-0.2113,0.8273,-0.4109,0.1391,0.4793,-0.7798,-0.3779
386,0.0,0.0,0.0,0.0,0.0,0.0,-0.2113,0.8685,-0.4180,0.1338,0.4764,-0.7862,-0.3700
387,0.0,0.0,0.0,0.0,0.0,0.0,-0.2099,0.9195,-0.4246,0.1327,0.4734,-0.7920,-0.3619
388,0.0,0.0,0.0,0.0,0.0,0.0,-0.2078,0.9455,-0.4440,0.1350,0.4713,-0.7960,-0.3551
389,0.0,0.0,0.0,0.0,0.0,0.0,-0.2009,0.9251,-0.4495,0.1385,0.4700,-0.7984,-0.3500
390,0.0,0.0,0.0,0.0,0.0,0.0,-0.2165,0.8728,-0.4330,0.1450,0.4692,-0.8002,-0.3442
391,0.0,0.0,0.0,0.0,0.0,0.0,-0.2141,0.8282,-0.4289,0.1549,0.4685,-0.8016,-0.3375
392,0.0,0.0,0.0,0.0,0.0,0.0,-0.1580,0.8471,-0.4753,0.1671,0.4670,-0.8032,-0.3301
393,0.0,0.0,0.0,0.0,0.0,0.0,-0.0995,0.9461,-0.6037,0.1776,0.4656,-0.8034,-0.3259
394,0.0,0.0,0.0,0.0,0.0,0.0,-0.1055,0.9603,-0.5874,0.1896,0.4649,-0.8007,-0.3269
395,0.0,0.0,0.0,0.0,0.0,0.0,-0.1502,0.9019,-0.4843,0.1997,0.4645,-0.7968,-0.3307
396,0.0,0.0,0.0,0.0,0.0,0.0,-0.1522,0.8961,-0.4882,0.2100,0.4648,-0.7919,-0.3357
397,0.0,0.0,0.0,0.0,0.0,0.0,-0.1428,0.9134,-0.5048,0.2175,0.4660,-0.7868,-0.3413
398,0.0,0.0,0.0,0.0,0.0,0.0,-0.1472,0.9023,-0.4990,0.2243,0.4676,-0.7819,-0.3459
399,0.0,0.0,0.0,0.0,0.0,0.0,-0.1315,0.8605,-0.5009,0.2311,0.4695,-0.7779,-0.3480
400,0.0,0.0,0.0,0.0,0.0,0.0,-0.1011,0.8036,-0.5025,0.2398,0.4721,-0.7741,-0.3469
401,0.0,0.0,0.0,0.0,0.0,0.0,-0.1105,0.8192,-0.4891,0.2525,0.4747,-0.7693,-0.3450
402,0.0,0.0,0.0,0.0,0.0,0.0,-0.1541,0.8519,-0.4221,0.2714,0.4781,-0.7613,-0.3438
403,0.0,0.0,0.0,0.0,0.0,0.0,-0.1398,0.8283,-0.3829,0.2939,0.4798,-0.7513,-0.3449
404,0.0,0.0,0.0,0.0,0.0,0.0,-0.0788,0.8191,-0.4304,0.3141,0.4789,-0.7431,-0.3461
405,0.0,0.0,0.0,0.0,0.0,0.0,-0.0430,0.8381,-0.4020,0.3338,0.4778,-0.7356,-0.3453
406,0.0,0.0,0.0,0.0,0.0,0.0,0.1174,0.9567,-0.4685,0.3436,0.4748,-0.7331,-0.3452
407,0.0,0.0,0.0,0.0,0.0,0.0,0.0744,0.9157,-0.4448,0.3530,0.4735,-0.7303,-0.3434
408,0.0,0.0,0.0,0.0,0.0,0.0,0.0562,0.8604,-0.3708,0.3593,0.4722,-0.7290,-0.3414
409,0.0,0.0,0.0,0.0,0.0,0.0,0.0486,0.8665,-0.3399,0.3649,0.4702,-0.7291,-0.3380
410,0.0,0.0,0.0,0.0,0.0,0.0,0.0888,0.9521,-0.3741,0.3696,0.4687,-0.7289,-0.3353
411,0.0,0.0,0.0,0.0,0.0,0.0,0.0888,0.9836,-0.3812,0.3736,0.4683,-0.7275,-0.3344
412,0.0,0.0,0.0,0.0,0.0,0.0,0.0876,0.9479,-0.3521,0.3778,0.4675,-0.7265,-0.3330
413,0.0,0.0,0.0,0.0,0.0,0.0,0.1421,0.9446,-0.3893,0.3793,0.4671,-0.7265,-0.3320
414,0.0,0.0,0.0,0.0,0.0,0.0,0.1465,0.9377,-0.3914,0.3798,0.4669,-0.7264,-0.3318
415,0.0,0.0,0.0,0.0,0.0,0.0,0.1411,0.9335,-0.3762,0.3798,0.4660,-0.7270,-0.3316
416,0.0,0.0,0.0,0.0,0.0,0.0,0.0882,0.9342,-0.3659,0.3792,0.4658,-0.7276,-0.3314
417,0.0,0.0,0.0,0.0,0.0,0.0,0.1150,0.9478,-0.3593,0.3785,0.4655,-0.7285,-0.3306
418,0.0,0.0,0.0,0.0,0.0,0.0,0.1043,0.9410,-0.3621,0.3771,0.4663,-0.7300,-0.3277
419,0.0,0.0,0.0,0.0,0.0,0.0,0.0944,0.9382,-0.3420,0.3760,0.4681,-0.7313,-0.3235
420,0.0,0.0,0.0,0.0,0.0,0.0,0.0992,0.9741,-0.3438,0.3745,0.4706,-0.7327,-0.3183
421,0.0,0.0,0.0,0.0,0.0,0.0,0.1213,0.9565,-0.3598,0.3725,0.4732,-0.7343,-0.3132
422,0.0,0.0,0.0,0.0,0.0,0.0,0.1148,0.9306,-0.3823,0.3702,0.4758,-0.7353,-0.3097
423,0.0,0.0,0.0,0.0,0.0,0.0,0.0859,0.9162,-0.3708,0.3679,0.4782,-0.7357,-0.3078
424,0.0,0.0,0.0,0.0,0.0,0.0,0.1159,0.9421,-0.4047,0.3644,0.4797,-0.7367,-0.3072
425,0.0,0.0,0.0,0.0,0.0,0.0,0.0905,0.9223,-0.4016,0.3634,0.4802,-0.7362,-0.3088
426,0.0,0.0,0.0,0.0,0.0,0.0,0.0917,0.9110,-0.4177,0.3607,0.4811,-0.7365,-0.3098
427,0.0,0.0,0.0,0.0,0.0,0.0,0.1054,0.9216,-0.4271,0.3584,0.4816,-0.7366,-0.3115
428,0.0,0.0,0.0,0.0,0.0,0.0,0.0838,0.9014,-0.4031,0.3560,0.4819,-0.7371,-0.3127
429,0.0,0.0,0.0,0.0,0.0,0.0,0.0539,0.9132,-0.3924,0.3533,0.4818,-0.7376,-0.3147
430,0.0,0.0,0.0,0.0,0.0,0.0,0.0732,0.9128,-0.3756,0.3513,0.4809,-0.7379,-0.3175
431,0.0,0.0,0.0,0.0,0.0,0.0,0.0773,0.9107,-0.3932,0.3483,0.4802,-0.7384,-0.3208
432,0.0,0.0,0.0,0.0,0.0,0.0,0.0627,0.9088,-0.3984,0.3454,0.4799,-0.7386,-0.3239
433,0.0,0.0,0.0,0.0,0.0,0.0,0.0598,0.8971,-0.3999,0.3425,0.4797,-0.7390,-0.3263
434,0.0,0.0,0.0,0.0,0.0,0.0,0.0480,0.8963,-0.3876,0.3402,0.4794,-0.7393,-0.3286
435,0.0,0.0,0.0,0.0,0.0,0.0,0.0377,0.8876,-0.3821,0.3381,0.4791,-0.7395,-0.3305
436,0.0,0.0,0.0,0.0,0.0,0.0,0.0317,0.8940,-0.3635,0.3369,0.4790,-0.7391,-0.3328
437,0.0,0.0,0.0,0.0,0.0,0.0,0.0293,0.9105,-0.3683,0.3355,0.4790,-0.7382,-0.3364
438,0.0,0.0,0.0,0.0,0.0,0.0,0.0121,0.9038,-0.3603,0.3354,0.4792,-0.7369,-0.3389
439,0.0,0.0,0.0,0.0,0.0,0.0,0.0136,0.9082,-0.3613,0.3361,0.4795,-0.7356,-0.3407
440,0.0,0.0,0.0,0.0,0.0,0.0,0.0112,0.9159,-0.3705,0.3370,0.4806,-0.7340,-0.3415
441,0.0,0.0,0.0,0.0,0.0,0.0,0.0307,0.9159,-0.3673,0.3370,0.4820,-0.7334,-0.3409
442,0.0,0.0,0.0,0.0,0.0,0.0,0.0297,0.9270,-0.3721,0.3367,0.4830,-0.7330,-0.3405
443,0.0,0.0,0.0,0.0,0.0,0.0,-0.0046,0.9190,-0.3444,0.3371,0.4842,-0.7320,-0.3409
444,0.0,0.0,0.0,0.0,0.0,0.0,-0.0071,0.9297,-0.3468,0.3363,0.4855,-0.7313,-0.3413
445,0.0,0.0,0.0,0.0,0.0,0.0,0.0076,0.9306,-0.3547,0.3348,0.4860,-0.7313,-0.3420
446,0.0,0.0,0.0,0.0,0.0,0.0,0.0130,0.9203,-0.3578,0.3333,0.4866,-0.7311,-0.3430
447,0.0,0.0,0.0,0.0,0.0,0.0,0.0101,0.9286,-0.3606,0.3320,0.4882,-0.7304,-0.3433
448,0.0,0.0,0.0,0.0,0.0,0.0,-0.0124,0.9326,-0.3506,0.3311,0.4907,-0.7295,-0.3428
449,0.0,0.0,0.0,0.0,0.0,0.0,-0.0056,0.9379,-0.3472,0.3297,0.4931,-0.7288,-0.3420
450,0.0,0.0,0.0,0.0,0.0,0.0,0.0068,0.9474,-0.3737,0.3288,0.4956,-0.7276,-0.3419
451,0.0,0.0,0.0,0.0,0.0,0.0,-0.0199,0.9178,-0.3799,0.3277,0.4984,-0.7259,-0.3425
452,0.0,0.0,0.0,0.0,0.0,0.0,-0.0250,0.9151,-0.3642,0.3253,0.5015,-0.7247,-0.3428
453,0.0,0.0,0.0,0.0,0.0,0.0,-0.0308,0.9427,-0.3669,0.3223,0.5055,-0.7230,-0.3434
454,0.0,0.0,0.0,0.0,0.0,0.0,-0.0601,0.9321,-0.3637,0.3193,0.5095,-0.7208,-0.3448
455,0.0,0.0,0.0,0.0,0.0,0.0,-0.0572,0.9293,-0.3589,0.3162,0.5126,-0.7188,-0.3471
456,0.0,0.0,0.0,0.0,0.0,0.0,-0.0553,0.9555,-0.3598,0.3145,0.5150,-0.7167,-0.3497
457,0.0,0.0,0.0,0.0,0.0,0.0,-0.0712,0.9243,-0.3778,0.3128,0.5169,-0.7149,-0.3520
458,0.0,0.0,0.0,0.0,0.0,0.0,-0.0578,0.8897,-0.3967,0.3097,0.5183,-0.7141,-0.3543
459,0.0,0.0,0.0,0.0,0.0,0.0,-0.0420,0.8881,-0.4115,0.3055,0.5187,-0.7148,-0.3559
460,0.0,0.0,0.0,0.0,0.0,0.0,-0.0625,0.8784,-0.4167,0.3025,0.5185,-0.7158,-0.3567
461,0.0,0.0,0.0,0.0,0.0,0.0,-0.0670,0.8692,-0.4045,0.3003,0.5182,-0.7171,-0.3564
462,0.0,0.0,0.0,0.0,0.0,0.0,-0.0709,0.8732,-0.4020,0.2988,0.5186,-0.7187,-0.3540
463,0.0,0.0,0.0,0.0,0.0,0.0,-0.0745,0.8655,-0.3829,0.2995,0.5181,-0.7200,-0.3515
464,0.0,0.0,0.0,0.0,0.0,0.0,-0.0374,0.9076,-0.3865,0.3005,0.5157,-0.7215,-0.3510
465,0.0,0.0,0.0,0.0,0.0,0.0,-0.0473,0.9054,-0.4308,0.2976,0.5125,-0.7238,-0.3532
466,0.0,0.0,0.0,0.0,0.0,0.0,-0.0493,0.9108,-0.4244,0.2969,0.5114,-0.7259,-0.3512
467,0.0,0.0,0.0,0.0,0.0,0.0,-0.0717,0.9403,-0.3831,0.2951,0.5095,-0.7283,-0.3506
468,0.0,0.0,0.0,0.0,0.0,0.0,-0.0335,0.9556,-0.3995,0.2928,0.5069,-0.7311,-0.3506
469,0.0,0.0,0.0,0.0,0.0,0.0,-0.0380,0.9634,-0.3950,0.2916,0.5056,-0.7327,-0.3500
470,0.0,0.0,0.0,0.0,0.0,0.0,-0.0481,0.9435,-0.3984,0.2901,0.5051,-0.7329,-0.3516
471,0.0,0.0,0.0,0.0,0.0,0.0,-0.0427,0.9056,-0.4016,0.2879,0.5039,-0.7328,-0.3552
472,0.0,0.0,0.0,0.0,0.0,0.0,-0.0469,0.8857,-0.4095,0.2863,0.5028,-0.7326,-0.3585
473,0.0,0.0,0.0,0.0,0.0,0.0,-0.0602,0.8717,-0.3967,0.2855,0.5019,-0.7323,-0.3609
474,0.0,0.0,0.0,0.0,0.0,0.0,-0.0656,0.8795,-0.3903,0.2862,0.5015,-0.7316,-0.3623
475,0.0,0.0,0.0,0.0,0.0,0.0,-0.0951,0.8841,-0.3729,0.2898,0.5016,-0.7295,-0.3636
476,0.0,0.0,0.0,0.0,0.0,0.0,-0.1164,0.9023,-0.3423,0.2971,0.5012,-0.7247,-0.3679
477,0.0,0.0,0.0,0.0,0.0,0.0,-0.1321,0.9537,-0.2857,0.3056,0.4993,-0.7187,-0.3751
478,0.0,0.0,0.0,0.0,0.0,0.0,-0.0440,1.0496,-0.2853,0.3103,0.4958,-0.7144,-0.3840
479,0.0,0.0,0.0,0.0,0.0,0.0,-0.0669,1.0434,-0.2880,0.3168,0.4955,-0.7066,-0.3935
480,0.0,0.0,0.0,0.0,0.0,0.0,-0.1000,0.9576,-0.2788,0.3218,0.4975,-0.6982,-0.4018
481,0.0,0.0,0.0,0.0,0.0,0.0,-0.0792,0.9229,-0.3070,0.3224,0.5022,-0.6922,-0.4060
482,0.0,0.0,0.0,0.0,0.0,0.0,-0.0388,0.9442,-0.3020,0.3212,0.5066,-0.6887,-0.4072
483,0.0,0.0,0.0,0.0,0.0,0.0,-0.0292,0.9420,-0.3367,0.3198,0.5097,-0.6859,-0.4092
484,0.0,0.0,0.0,0.0,0.0,0.0,-0.0795,0.9062,-0.3261,0.3185,0.5125,-0.6840,-0.4100
485,0.0,0.0,0.0,0.0,0.0,0.0,-0.1246,0.9303,-0.3055,0.3142,0.5151,-0.6846,-0.4090
486,0.0,0.0,0.0,0.0,0.0,0.0,-0.1455,0.9645,-0.2743,0.3108,0.5180,-0.6851,-0.4071
487,0.0,0.0,0.0,0.0,0.0,0.0,-0.1915,0.9347,-0.2515,0.3121,0.5222,-0.6823,-0.4055
488,0.0,0.0,0.0,0.0,0.0,0.0,-0.1708,0.8846,-0.2588,0.3142,0.5262,-0.6782,-0.4054
489,0.0,0.0,0.0,0.0,0.0,0.0,-0.1300,0.8746,-0.2896,0.3159,0.5304,-0.6748,-0.4044
490,0.0,0.0,0.0,0.0,0.0,0.0,-0.1559,0.8446,-0.2812,0.3210,0.5359,-0.6700,-0.4010
491,0.0,0.0,0.0,0.0,0.0,0.0,-0.0914,0.8686,-0.2964,0.3270,0.5387,-0.6674,-0.3967
492,0.0,0.0,0.0,0.0,0.0,0.0,-0.0990,0.8981,-0.3215,0.3317,0.5413,-0.6659,-0.3919
493,0.0,0.0,0.0,0.0,0.0,0.0,-0.1430,0.8284,-0.3009,0.3387,0.5436,-0.6640,-0.3858
494,0.0,0.0,0.0,0.0,0.0,0.0,-0.1997,0.8455,-0.2446,0.3492,0.5446,-0.6619,-0.3787
495,0.0,0.0,0.0,0.0,0.0,0.0,-0.1653,0.9160,-0.2856,0.3583,0.5443,-0.6605,-0.3730
496,0.0,0.0,0.0,0.0,0.0,0.0,0.0045,0.9913,-0.3519,0.3621,0.5424,-0.6626,-0.3683
497,0.0,0.0,0.0,0.0,0.0,0.0,-0.0025,0.9687,-0.3252,0.3642,0.5416,-0.6655,-0.3621
498,0.0,0.0,0.0,0.0,0.0,0.0,-0.0201,0.9678,-0.3230,0.3672,0.5395,-0.6685,-0.3567
499,0.0,0.0,0.0,0.0,0.0,0.0,0.0254,1.0321,-0.3451,0.3681,0.5358,-0.6721,-0.3545
500,0.0,0.0,0.0,0.0,0.0,0.0,-0.0046,0.9935,-0.3138,0.3672,0.5314,-0.6757,-0.3551
501,0.0,0.0,0.0,0.0,0.0,0.0,-0.0091,0.9926,-0.3045,0.3650,0.5259,-0.6797,-0.3581
502,0.0,0.0,0.0,0.0,0.0,0.0,-0.0219,0.9957,-0.2892,0.3619,0.5191,-0.6837,-0.3634
503,0.0,0.0,0.0,0.0,0.0,0.0,-0.0427,0.9903,-0.3080,0.3578,0.5129,-0.6879,-0.3684
504,0.0,0.0,0.0,0.0,0.0,0.0,-0.0861,0.9452,-0.3063,0.3532,0.5097,-0.6921,-0.3696
505,0.0,0.0,0.0,0.0,0.0,0.0,-0.0883,0.9010,-0.3138,0.3478,0.5079,-0.6971,-0.3676
506,0.0,0.0,0.0,0.0,0.0,0.0,-0.0844,0.8825,-0.3145,0.3449,0.5065,-0.6999,-0.3670
507,0.0,0.0,0.0,0.0,0.0,0.0,-0.0430,0.9121,-0.3109,0.3416,0.5037,-0.7025,-0.3690
508,0.0,0.0,0.0,0.0,0.0,0.0,-0.0405,0.9401,-0.3283,0.3398,0.5008,-0.7049,-0.3699
509,0.0,0.0,0.0,0.0,0.0,0.0,-0.0694,1.0125,-0.3247,0.3410,0.5008,-0.7054,-0.3678
510,0.0,0.0,0.0,0.0,0.0,0.0,-0.0681,0.9870,-0.3024,0.3392,0.5002,-0.7066,-0.3681
511,0.0,0.0,0.0,0.0,0.0,0.0,-0.0555,0.9341,-0.2852,0.3364,0.4982,-0.7081,-0.3704
512,0.0,0.0,0.0,0.0,0.0,0.0,-0.0489,0.8966,-0.3036,0.3328,0.4969,-0.7097,-0.3724
513,0.0,0.0,0.0,0.0,0.0,0.0,-0.0013,0.9253,-0.3420,0.3293,0.4955,-0.7120,-0.3730
514,0.0,0.0,0.0,0.0,0.0,0.0,0.0339,0.9936,-0.3586,0.3272,0.4935,-0.7145,-0.3726
515,0.0,0.0,0.0,0.0,0.0,0.0,-0.0004,0.9535,-0.3414,0.3260,0.4922,-0.7162,-0.3721
516,0.0,0.0,0.0,0.0,0.0,0.0,-0.0169,0.8939,-0.3371,0.3235,0.4914,-0.7185,-0.3710
517,0.0,0.0,0.0,0.0,0.0,0.0,-0.0100,0.9142,-0.3415,0.3204,0.4910,-0.7213,-0.3688
518,0.0,0.0,0.0,0.0,0.0,0.0,-0.0037,0.9161,-0.3449,0.3177,0.4904,-0.7242,-0.3662
519,0.0,0.0,0.0,0.0,0.0,0.0,0.0143,0.9255,-0.3856,0.3130,0.4893,-0.7284,-0.3635
520,0.0,0.0,0.0,0.0,0.0,0.0,0.0047,0.9171,-0.4065,0.3069,0.4893,-0.7329,-0.3595
521,0.0,0.0,0.0,0.0,0.0,0.0,-0.0203,0.8780,-0.3815,0.3010,0.4909,-0.7379,-0.3519
522,0.0,0.0,0.0,0.0,0.0,0.0,-0.0047,0.9109,-0.3913,0.2955,0.4914,-0.7436,-0.3439
523,0.0,0.0,0.0,0.0,0.0,0.0,-0.0174,0.9933,-0.3517,0.2913,0.4897,-0.7479,-0.3406
524,0.0,0.0,0.0,0.0,0.0,0.0,-0.0282,1.0278,-0.3519,0.2865,0.4865,-0.7509,-0.3426
525,0.0,0.0,0.0,0.0,0.0,0.0,-0.0412,0.9845,-0.3685,0.2877,0.4841,-0.7505,-0.3459
526,0.0,0.0,0.0,0.0,0.0,0.0,-0.0427,0.9439,-0.3483,0.2909,0.4817,-0.7484,-0.3510
527,0.0,0.0,0.0,0.0,0.0,0.0,-0.0364,0.9429,-0.3498,0.2948,0.4797,-0.7450,-0.3578
528,0.0,0.0,0.0,0.0,0.0,0.0,-0.0230,0.9166,-0.4237,0.2974,0.4796,-0.7414,-0.3632
529,0.0,0.0,0.0,0.0,0.0,0.0,-0.0260,0.8861,-0.4053,0.2977,0.4803,-0.7388,-0.3671
530,0.0,0.0,0.0,0.0,0.0,0.0,-0.0025,0.8812,-0.4095,0.2970,0.4811,-0.7373,-0.3697
531,0.0,0.0,0.0,0.0,0.0,0.0,-0.0037,0.8760,-0.3866,0.3001,0.4814,-0.7348,-0.3718
532,0.0,0.0,0.0,0.0,0.0,0.0,-0.0339,0.9079,-0.3495,0.3037,0.4819,-0.7318,-0.3740
533,0.0,0.0,0.0,0.0,0.0,0.0,-0.0402,0.9443,-0.3546,0.3063,0.4818,-0.7291,-0.3775
534,0.0,0.0,0.0,0.0,0.0,0.0,-0.0100,0.9670,-0.3529,0.3071,0.4801,-0.7274,-0.3822
535,0.0,0.0,0.0,0.0,0.0,0.0,-0.0223,0.9395,-0.3363,0.3063,0.4789,-0.7264,-0.3862
536,0.0,0.0,0.0,0.0,0.0,0.0,-0.0293,0.9227,-0.3192,0.3055,0.4778,-0.7258,-0.3893
537,0.0,0.0,0.0,0.0,0.0,0.0,-0.0451,0.9137,-0.2913,0.3057,0.4763,-0.7252,-0.3922
538,0.0,0.0,0.0,0.0,0.0,0.0,-0.0552,0.9044,-0.3064,0.3075,0.4753,-0.7241,-0.3939
539,0.0,0.0,0.0,0.0,0.0,0.0,-0.0203,0.9593,-0.3489,0.3075,0.4743,-0.7239,-0.3955
540,0.0,0.0,0.0,0.0,0.0,0.0,-0.0538,0.9272,-0.3087,0.3075,0.4744,-0.7239,-0.3955
541,0.0,0.0,0.0,0.0,0.0,0.0,-0.0712,0.8534,-0.3148,0.3069,0.4755,-0.7250,-0.3926
542,0.0,0.0,0.0,0.0,0.0,0.0,-0.0767,0.8748,-0.3048,0.3060,0.4770,-0.7275,-0.3867
543,0.0,0.0,0.0,0.0,0.0,0.0,-0.0400,0.9367,-0.3283,0.3039,0.4773,-0.7321,-0.3792
544,0.0,0.0,0.0,0.0,0.0,0.0,-0.0275,1.0009,-0.3150,0.3047,0.4776,-0.7353,-0.3720
545,0.0,0.0,0.0,0.0,0.0,0.0,-0.0619,1.0045,-0.2902,0.3084,0.4788,-0.7349,-0.3681
546,0.0,0.0,0.0,0.0,0.0,0.0,-0.0615,0.9861,-0.2810,0.3118,0.4790,-0.7335,-0.3679
547,0.0,0.0,0.0,0.0,0.0,0.0,-0.0253,0.9779,-0.3361,0.3129,0.4793,-0.7321,-0.3693
548,0.0,0.0,0.0,0.0,0.0,0.0,0.0043,0.9523,-0.3717,0.3146,0.4792,-0.7305,-0.3712
549,0.0,0.0,0.0,0.0,0.0,0.0,0.0211,0.9323,-0.3866,0.3157,0.4787,-0.7293,-0.3732
550,0.0,0.0,0.0,0.0,0.0,0.0,0.0044,0.9145,-0.3684,0.3162,0.4786,-0.7282,-0.3749
551,0.0,0.0,0.0,0.0,0.0,0.0,-0.0107,0.9009,-0.3718,0.3159,0.4790,-0.7274,-0.3763
552,0.0,0.0,0.0,0.0,0.0,0.0,-0.0157,0.9102,-0.3580,0.3162,0.4794,-0.7262,-0.3778
553,0.0,0.0,0.0,0.0,0.0,0.0,-0.0177,0.9156,-0.3579,0.3168,0.4798,-0.7250,-0.3794
554,0.0,0.0,0.0,0.0,0.0,0.0,-0.0060,0.9699,-0.3646,0.3175,0.4799,-0.7234,-0.3815
555,0.0,0.0,0.0,0.0,0.0,0.0,-0.0537,0.9567,-0.3217,0.3183,0.4809,-0.7211,-0.3840
556,0.0,0.0,0.0,0.0,0.0,0.0,-0.0512,0.9499,-0.3262,0.3158,0.4814,-0.7203,-0.3869
557,0.0,0.0,0.0,0.0,0.0,0.0,-0.0511,0.9561,-0.3403,0.3127,0.4819,-0.7195,-0.3903
558,0.0,0.0,0.0,0.0,0.0,0.0,-0.0452,0.9400,-0.3448,0.3087,0.4825,-0.7184,-0.3948
559,0.0,0.0,0.0,0.0,0.0,0.0,-0.0575,0.9338,-0.3340,0.3041,0.4839,-0.7172,-0.3988
560,0.0,0.0,0.0,0.0,0.0,0.0,-0.0838,0.8965,-0.3334,0.2999,0.4861,-0.7157,-0.4019
561,0.0,0.0,0.0,0.0,0.0,0.0,-0.0870,0.8895,-0.3573,0.2948,0.4890,-0.7155,-0.4026
562,0.0,0.0,0.0,0.0,0.0,0.0,-0.1120,0.9062,-0.3418,0.2890,0.4920,-0.7169,-0.4007
563,0.0,0.0,0.0,0.0,0.0,0.0,-0.1437,0.9010,-0.3415,0.2827,0.4955,-0.7185,-0.3979
564,0.0,0.0,0.0,0.0,0.0,0.0,-0.1700,0.7968,-0.3261,0.2745,0.4996,-0.7215,-0.3931
565,0.0,0.0,0.0,0.0,0.0,0.0,-0.1054,0.8197,-0.3487,0.2667,0.5014,-0.7273,-0.3855
566,0.0,0.0,0.0,0.0,0.0,0.0,-0.0138,0.9942,-0.4298,0.2622,0.5017,-0.7322,-0.3787
567,0.0,0.0,0.0,0.0,0.0,0.0,-0.0876,0.9479,-0.4053,0.2639,0.5030,-0.7338,-0.3728
568,0.0,0.0,0.0,0.0,0.0,0.0,-0.1147,0.8658,-0.3654,0.2651,0.5028,-0.7354,-0.3689
569,0.0,0.0,0.0,0.0,0.0,0.0,-0.0557,0.8944,-0.4176,0.2637,0.5017,-0.7374,-0.3674
570,0.0,0.0,0.0,0.0,0.0,0.0,-0.0330,0.9063,-0.4417,0.2633,0.4998,-0.7386,-0.3678
571,0.0,0.0,0.0,0.0,0.0,0.0,-0.0714,0.8950,-0.4038,0.2645,0.4984,-0.7387,-0.3687
572,0.0,0.0,0.0,0.0,0.0,0.0,-0.0887,0.8991,-0.3777,0.2679,0.4972,-0.7379,-0.3694
573,0.0,0.0,0.0,0.0,0.0,0.0,-0.0837,0.9198,-0.4030,0.2711,0.4972,-0.7370,-0.3691
574,0.0,0.0,0.0,0.0,0.0,0.0,-0.0817,0.8965,-0.3978,0.2775,0.4968,-0.7357,-0.3673
575,0.0,0.0,0.0,0.0,0.0,0.0,-0.0623,0.8941,-0.3912,0.2846,0.4965,-0.7343,-0.3650
576,0.0,0.0,0.0,0.0,0.0,0.0,-0.0359,0.9507,-0.4049,0.2918,0.4955,-0.7329,-0.3635
577,0.0,0.0,0.0,0.0,0.0,0.0,-0.0489,0.9675,-0.3734,0.3003,0.4941,-0.7307,-0.3629
578,0.0,0.0,0.0,0.0,0.0,0.0,-0.0523,0.9321,-0.3619,0.3070,0.4924,-0.7293,-0.3624
579,0.0,0.0,0.0,0.0,0.0,0.0,-0.0496,0.9540,-0.3520,0.3114,0.4909,-0.7293,-0.3608
580,0.0,0.0,0.0,0.0,0.0,0.0,-0.0151,0.9953,-0.3424,0.3150,0.4884,-0.7300,-0.3596
581,0.0,0.0,0.0,0.0,0.0,0.0,-0.0288,1.0090,-0.3364,0.3183,0.4866,-0.7298,-0.3596
582,0.0,0.0,0.0,0.0,0.0,0.0,-0.0257,0.9822,-0.3502,0.3205,0.4856,-0.7296,-0.3594
583,0.0,0.0,0.0,0.0,0.0,0.0,-0.0404,0.9211,-0.3357,0.3217,0.4862,-0.7292,-0.3583
584,0.0,0.0,0.0,0.0,0.0,0.0,-0.0258,0.9095,-0.3257,0.3230,0.4863,-0.7290,-0.3574
585,0.0,0.0,0.0,0.0,0.0,0.0,-0.0153,0.8996,-0.3449,0.3251,0.4862,-0.7288,-0.3560
586,0.0,0.0,0.0,0.0,0.0,0.0,-0.0027,0.8957,-0.3426,0.3250,0.4851,-0.7303,-0.3545
587,0.0,0.0,0.0,0.0,0.0,0.0,0.0115,0.9015,-0.3496,0.3254,0.4844,-0.7325,-0.3505
588,0.0,0.0,0.0,0.0,0.0,0.0,-0.0059,0.9460,-0.3706,0.3241,0.4847,-0.7348,-0.3465
589,0.0,0.0,0.0,0.0,0.0,0.0,-0.0179,0.9404,-0.3412,0.3257,0.4853,-0.7358,-0.3421
590,0.0,0.0,0.0,0.0,0.0,0.0,-0.0205,0.9275,-0.3247,0.3288,0.4862,-0.7359,-0.3375
591,0.0,0.0,0.0,0.0,0.0,0.0,-0.0016,0.9442,-0.3604,0.3323,0.4878,-0.7353,-0.3331
592,0.0,0.0,0.0,0.0,0.0,0.0,-0.0119,0.9597,-0.3661,0.3376,0.4894,-0.7326,-0.3314
593,0.0,0.0,0.0,0.0,0.0,0.0,-0.0129,0.9301,-0.3569,0.3432,0.4902,-0.7294,-0.3314
594,0.0,0.0,0.0,0.0,0.0,0.0,0.0339,0.8798,-0.3841,0.3483,0.4905,-0.7272,-0.3307
595,0.0,0.0,0.0,0.0,0.0,0.0,0.0766,0.9062,-0.4176,0.3514,0.4910,-0.7261,-0.3289
596,0.0,0.0,0.0,0.0,0.0,0.0,0.0458,0.9101,-0.4206,0.3555,0.4926,-0.7242,-0.3265
597,0.0,0.0,0.0,0.0,0.0,0.0,0.0295,0.9258,-0.3989,0.3601,0.4936,-0.7220,-0.3246
598,0.0,0.0,0.0,0.0,0.0,0.0,0.0464,0.9342,-0.3825,0.3648,0.4950,-0.7196,-0.3226
599,0.0,0.0,0.0,0.0,0.0,0.0,0.0781,0.9651,-0.3870,0.3691,0.4969,-0.7171,-0.3202
600,0.0,0.0,0.0,0.0,0.0,0.0,0.0287,0.9212,-0.3648,0.3742,0.4995,-0.7134,-0.3186
601,0.0,0.0,0.0,0.0,0.0,0.0,0.0745,0.9391,-0.3593,0.3768,0.5013,-0.7109,-0.3184
602,0.0,0.0,0.0,0.0,0.0,0.0,0.1046,0.9340,-0.3885,0.3774,0.5030,-0.7095,-0.3181
603,0.0,0.0,0.0,0.0,0.0,0.0,0.1021,0.9263,-0.3836,0.3775,0.5034,-0.7089,-0.3186
604,0.0,0.0,0.0,0.0,0.0,0.0,0.1026,0.9379,-0.3850,0.3762,0.5013,-0.7094,-0.3223
605,0.0,0.0,0.0,0.0,0.0,0.0,0.1356,0.9651,-0.3692,0.3741,0.4954,-0.7114,-0.3294
606,0.0,0.0,0.0,0.0,0.0,0.0,0.1119,0.9998,-0.3472,0.3725,0.4876,-0.7130,-0.3392
607,0.0,0.0,0.0,0.0,0.0,0.0,0.0278,1.0084,-0.3321,0.3715,0.4827,-0.7129,-0.3475
608,0.0,0.0,0.0,0.0,0.0,0.0,-0.0567,0.9815,-0.3201,0.3699,0.4820,-0.7109,-0.3543
609,0.0,0.0,0.0,0.0,0.0,0.0,-0.0920,0.9211,-0.2883,0.3684,0.4829,-0.7074,-0.3615
610,0.0,0.0,0.0,0.0,0.0,0.0,-0.0562,0.9310,-0.3140,0.3671,0.4850,-0.7030,-0.3685
611,0.0,0.0,0.0,0.0,0.0,0.0,-0.0169,0.9098,-0.2829,0.3675,0.4864,-0.6990,-0.3738
612,0.0,0.0,0.0,0.0,0.0,0.0,0.0567,0.9127,-0.3217,0.3660,0.4866,-0.6975,-0.3779
613,0.0,0.0,0.0,0.0,0.0,0.0,0.0449,0.9336,-0.3190,0.3666,0.4884,-0.6949,-0.3798
614,0.0,0.0,0.0,0.0,0.0,0.0,-0.0222,0.9122,-0.2891,0.3683,0.4919,-0.6911,-0.3805
615,0.0,0.0,0.0,0.0,0.0,0.0,-0.0669,0.9008,-0.2604,0.3694,0.4964,-0.6885,-0.3782
616,0.0,0.0,0.0,0.0,0.0,0.0,-0.0250,0.9498,-0.2548,0.3676,0.5004,-0.6879,-0.3759
617,0.0,0.0,0.0,0.0,0.0,0.0,-0.0118,0.9779,-0.2635,0.3657,0.5023,-0.6876,-0.3757
618,0.0,0.0,0.0,0.0,0.0,0.0,-0.0642,0.9931,-0.2561,0.3660,0.5035,-0.6858,-0.3771
619,0.0,0.0,0.0,0.0,0.0,0.0,-0.0771,0.9720,-0.2194,0.3669,0.5043,-0.6826,-0.3810
620,0.0,0.0,0.0,0.0,0.0,0.0,-0.0780,0.9472,-0.2327,0.3667,0.5035,-0.6801,-0.3867
621,0.0,0.0,0.0,0.0,0.0,0.0,-0.0516,0.9850,-0.2367,0.3672,0.5016,-0.6764,-0.3949
622,0.0,0.0,0.0,0.0,0.0,0.0,-0.0490,0.9867,-0.2641,0.3692,0.5006,-0.6708,-0.4040
623,0.0,0.0,0.0,0.0,0.0,0.0,-0.0715,0.9397,-0.1919,0.3731,0.4996,-0.6643,-0.4123
624,0.0,0.0,0.0,0.0,0.0,0.0,-0.0385,0.9960,-0.1807,0.3747,0.4999,-0.6586,-0.4195
625,0.0,0.0,0.0,0.0,0.0,0.0,-0.0314,0.9387,-0.2548,0.3734,0.5015,-0.6537,-0.4263
626,0.0,0.0,0.0,0.0,0.0,0.0,-0.1030,0.8404,-0.2437,0.3706,0.5057,-0.6495,-0.4303
627,0.0,0.0,0.0,0.0,0.0,0.0,-0.1410,0.8689,-0.2095,0.3643,0.5123,-0.6476,-0.4307
628,0.0,0.0,0.0,0.0,0.0,0.0,-0.0437,0.8687,-0.2735,0.3569,0.5161,-0.6509,-0.4274
629,0.0,0.0,0.0,0.0,0.0,0.0,-0.0287,0.8042,-0.2496,0.3528,0.5178,-0.6557,-0.4213
630,0.0,0.0,0.0,0.0,0.0,0.0,-0.0383,0.8327,-0.2728,0.3511,0.5177,-0.6609,-0.4147
631,0.0,0.0,0.0,0.0,0.0,0.0,-0.0426,0.9714,-0.3701,0.3460,0.5153,-0.6680,-0.4106
632,0.0,0.0,0.0,0.0,0.0,0.0,-0.0113,1.1580,-0.2602,0.3388,0.5143,-0.6755,-0.4056
633,0.0,0.0,0.0,0.0,0.0,0.0,-0.0570,1.1201,-0.2189,0.3268,0.5118,-0.6845,-0.4034
634,0.0,0.0,0.0,0.0,0.0,0.0,-0.1781,0.9876,-0.1812,0.3156,0.5134,-0.6919,-0.3976
635,0.0,0.0,0.0,0.0,0.0,0.0,-0.1493,0.9764,-0.1762,0.3022,0.5139,-0.6999,-0.3934
636,0.0,0.0,0.0,0.0,0.0,0.0,-0.0669,1.0177,-0.2793,0.2925,0.5124,-0.7055,-0.3926
637,0.0,0.0,0.0,0.0,0.0,0.0,-0.0344,1.0436,-0.3181,0.2911,0.5096,-0.7068,-0.3950
638,0.0,0.0,0.0,0.0,0.0,0.0,-0.0805,0.9953,-0.2900,0.2955,0.5088,-0.7032,-0.3991
639,0.0,0.0,0.0,0.0,0.0,0.0,-0.1025,0.9475,-0.2705,0.3000,0.5092,-0.6990,-0.4025
640,0.0,0.0,0.0,0.0,0.0,0.0,-0.1548,0.9549,-0.2689,0.3100,0.5151,-0.6896,-0.4037
641,0.0,0.0,0.0,0.0,0.0,0.0,-0.2335,0.9072,-0.2444,0.3264,0.5222,-0.6732,-0.4093
642,0.0,0.0,0.0,0.0,0.0,0.0,-0.2124,0.8291,-0.2333,0.3459,0.5278,-0.6535,-0.4179
643,0.0,0.0,0.0,0.0,0.0,0.0,-0.1343,0.8812,-0.2529,0.3578,0.5333,-0.6388,-0.4237
644,0.0,0.0,0.0,0.0,0.0,0.0,-0.0635,0.9204,-0.3096,0.3608,0.5362,-0.6319,-0.4277
645,0.0,0.0,0.0,0.0,0.0,0.0,-0.0309,0.9571,-0.2571,0.3629,0.5366,-0.6295,-0.4289
646,0.0,0.0,0.0,0.0,0.0,0.0,-0.0380,0.9244,-0.2772,0.3630,0.5385,-0.6292,-0.4270
647,0.0,0.0,0.0,0.0,0.0,0.0,-0.0939,0.8715,-0.2359,0.3650,0.5401,-0.6287,-0.4239
648,0.0,0.0,0.0,0.0,0.0,0.0,-0.1070,0.9223,-0.1989,0.3678,0.5406,-0.6290,-0.4205
649,0.0,0.0,0.0,0.0,0.0,0.0,-0.1113,1.0089,-0.2335,0.3686,0.5406,-0.6306,-0.4175
650,0.0,0.0,0.0,0.0,0.0,0.0,-0.0858,0.9535,-0.2336,0.3682,0.5404,-0.6337,-0.4132
651,0.0,0.0,0.0,0.0,0.0,0.0,-0.0429,0.9394,-0.2263,0.3661,0.5411,-0.6384,-0.4070
652,0.0,0.0,0.0,0.0,0.0,0.0,-0.0984,0.9598,-0.2363,0.3631,0.5420,-0.6421,-0.4026
653,0.0,0.0,0.0,0.0,0.0,0.0,-0.1242,0.9487,-0.2454,0.3601,0.5423,-0.6453,-0.3998
654,0.0,0.0,0.0,0.0,0.0,0.0,-0.1354,0.9531,-0.2462,0.3580,0.5434,-0.6476,-0.3965
655,0.0,0.0,0.0,0.0,0.0,0.0,-0.1339,0.9326,-0.2536,0.3573,0.5449,-0.6499,-0.3912
656,0.0,0.0,0.0,0.0,0.0,0.0,-0.0863,0.9474,-0.2765,0.3574,0.5459,-0.6522,-0.3858
657,0.0,0.0,0.0,0.0,0.0,0.0,-0.0994,0.9575,-0.2866,0.3568,0.5470,-0.6542,-0.3814
658,0.0,0.0,0.0,0.0,0.0,0.0,-0.0966,0.9663,-0.2827,0.3554,0.5483,-0.6566,-0.3768
659,0.0,0.0,0.0,0.0,0.0,0.0,-0.1004,0.9837,-0.2947,0.3535,0.5496,-0.6593,-0.3721
660,0.0,0.0,0.0,0.0,0.0,0.0,-0.0850,0.9485,-0.3224,0.3515,0.5507,-0.6616,-0.3679
661,0.0,0.0,0.0,0.0,0.0,0.0,-0.0765,0.9139,-0.3353,0.3501,0.5520,-0.6639,-0.3634
662,0.0,0.0,0.0,0.0,0.0,0.0,-0.0692,0.9212,-0.3310,0.3494,0.5525,-0.6662,-0.3588
663,0.0,0.0,0.0,0.0,0.0,0.0,-0.0458,0.9362,-0.3326,0.3497,0.5527,-0.6683,-0.3544
664,0.0,0.0,0.0,0.0,0.0,0.0,-0.0316,0.9511,-0.3430,0.3497,0.5522,-0.6705,-0.3510
665,0.0,0.0,0.0,0.0,0.0,0.0,-0.0266,0.9574,-0.3513,0.3494,0.5519,-0.6724,-0.3482
666,0.0,0.0,0.0,0.0,0.0,0.0,-0.0446,0.9336,-0.3590,0.3495,0.5523,-0.6735,-0.3453
667,0.0,0.0,0.0,0.0,0.0,0.0,-0.0226,0.9272,-0.3627,0.3495,0.5520,-0.6749,-0.3430
668,0.0,0.0,0.0,0.0,0.0,0.0,-0.0112,0.9290,-0.3794,0.3496,0.5520,-0.6760,-0.3406
669,0.0,0.0,0.0,0.0,0.0,0.0,-0.0174,0.9139,-0.3848,0.3498,0.5522,-0.6769,-0.3385
670,0.0,0.0,0.0,0.0,0.0,0.0,-0.0014,0.9086,-0.3826,0.3506,0.5518,-0.6779,-0.3363
671,0.0,0.0,0.0,0.0,0.0,0.0,0.0020,0.9318,-0.3834,0.3512,0.5511,-0.6791,-0.3344
672,0.0,0.0,0.0,0.0,0.0,0.0,0.0036,0.9197,-0.3904,0.3524,0.5496,-0.6800,-0.3337
673,0.0,0.0,0.0,0.0,0.0,0.0,0.0381,0.9299,-0.3741,0.3539,0.5472,-0.6810,-0.3340
674,0.0,0.0,0.0,0.0,0.0,0.0,0.0535,0.9610,-0.3639,0.3572,0.5420,-0.6815,-0.3378
675,0.0,0.0,0.0,0.0,0.0,0.0,0.0056,0.9476,-0.3502,0.3619,0.5361,-0.6815,-0.3424
676,0.0,0.0,0.0,0.0,0.0,0.0,-0.0494,0.9137,-0.3605,0.3650,0.5315,-0.6815,-0.3462
677,0.0,0.0,0.0,0.0,0.0,0.0,-0.0608,0.9303,-0.3467,0.3663,0.5284,-0.6824,-0.3476
678,0.0,0.0,0.0,0.0,0.0,0.0,-0.0602,0.9342,-0.3520,0.3673,0.5261,-0.6830,-0.3490
679,0.0,0.0,0.0,0.0,0.0,0.0,-0.0397,0.9321,-0.3552,0.3671,0.5251,-0.6842,-0.3485
680,0.0,0.0,0.0,0.0,0.0,0.0,-0.0203,0.9492,-0.3455,0.3654,0.5253,-0.6857,-0.3469
681,0.0,0.0,0.0,0.0,0.0,0.0,-0.0352,0.9010,-0.3622,0.3613,0.5266,-0.6886,-0.3436
682,0.0,0.0,0.0,0.0,0.0,0.0,-0.0443,0.9076,-0.3279,0.3570,0.5283,-0.6917,-0.3393
683,0.0,0.0,0.0,0.0,0.0,0.0,-0.0550,0.9202,-0.3351,0.3510,0.5298,-0.6953,-0.3357
684,0.0,0.0,0.0,0.0,0.0,0.0,-0.0030,0.9252,-0.3664,0.3437,0.5299,-0.6997,-0.3340
685,0.0,0.0,0.0,0.0,0.0,0.0,-0.0052,0.8702,-0.3856,0.3392,0.5280,-0.7039,-0.3327
686,0.0,0.0,0.0,0.0,0.0,0.0,0.0372,0.8553,-0.4194,0.3363,0.5245,-0.7084,-0.3317
687,0.0,0.0,0.0,0.0,0.0,0.0,0.0207,1.0616,-0.4239,0.3335,0.5198,-0.7127,-0.3327
688,0.0,0.0,0.0,0.0,0.0,0.0,0.0103,0.9866,-0.3935,0.3301,0.5166,-0.7167,-0.3324
689,0.0,0.0,0.0,0.0,0.0,0.0,0.0241,1.0237,-0.3622,0.3261,0.5143,-0.7215,-0.3296
690,0.0,0.0,0.0,0.0,0.0,0.0,0.0089,1.0184,-0.3582,0.3239,0.5129,-0.7239,-0.3288
691,0.0,0.0,0.0,0.0,0.0,0.0,0.0149,0.9868,-0.3618,0.3230,0.5114,-0.7241,-0.3316
692,0.0,0.0,0.0,0.0,0.0,0.0,-0.0060,0.9601,-0.3710,0.3219,0.5102,-0.7227,-0.3372
693,0.0,0.0,0.0,0.0,0.0,0.0,-0.0271,0.9695,-0.3610,0.3212,0.5099,-0.7200,-0.3442
694,0.0,0.0,0.0,0.0,0.0,0.0,-0.0174,0.9530,-0.3446,0.3230,0.5101,-0.7151,-0.3521
695,0.0,0.0,0.0,0.0,0.0,0.0,-0.0049,0.9266,-0.3775,0.3261,0.5135,-0.7069,-0.3611
696,0.0,0.0,0.0,0.0,0.0,0.0,-0.0046,0.8968,-0.4031,0.3310,0.5150,-0.6983,-0.3710
697,0.0,0.0,0.0,0.0,0.0,0.0,-0.0075,0.8923,-0.3465,0.3364,0.5142,-0.6906,-0.3814
698,0.0,0.0,0.0,0.0,0.0,0.0,-0.0395,0.9062,-0.3153,0.3392,0.5128,-0.6852,-0.3905
699,0.0,0.0,0.0,0.0,0.0,0.0,-0.0293,0.9023,-0.3179,0.3391,0.5116,-0.6823,-0.3972
700,0.0,0.0,0.0,0.0,0.0,0.0,-0.0398,0.9166,-0.2884,0.3384,0.5102,-0.6813,-0.4011
701,0.0,0.0,0.0,0.0,0.0,0.0,-0.0724,0.9136,-0.2496,0.3385,0.5081,-0.6811,-0.4042
702,0.0,0.0,0.0,0.0,0.0,0.0,-0.0485,0.9227,-0.2473,0.3389,0.5058,-0.6816,-0.4059
703,0.0,0.0,0.0,0.0,0.0,0.0,-0.0424,0.9439,-0.2766,0.3392,0.5057,-0.6818,-0.4054
704,0.0,0.0,0.0,0.0,0.0,0.0,-0.0699,0.9353,-0.2597,0.3394,0.5062,-0.6817,-0.4048
705,0.0,0.0,0.0,0.0,0.0,0.0,-0.0362,0.9537,-0.2634,0.3375,0.5051,-0.6826,-0.4062
706,0.0,0.0,0.0,0.0,0.0,0.0,-0.0624,0.9080,-0.2760,0.3353,0.5063,-0.6845,-0.4034
707,0.0,0.0,0.0,0.0,0.0,0.0,-0.0637,0.8939,-0.2819,0.3330,0.5087,-0.6870,-0.3979
708,0.0,0.0,0.0,0.0,0.0,0.0,-0.0623,0.9075,-0.2819,0.3300,0.5113,-0.6906,-0.3908
709,0.0,0.0,0.0,0.0,0.0,0.0,-0.0592,0.9227,-0.2516,0.3279,0.5122,-0.6952,-0.3831
710,0.0,0.0,0.0,0.0,0.0,0.0,-0.0394,1.0106,-0.2484,0.3264,0.5125,-0.6993,-0.3766
711,0.0,0.0,0.0,0.0,0.0,0.0,-0.0119,1.0532,-0.3266,0.3237,0.5129,-0.7018,-0.3737
712,0.0,0.0,0.0,0.0,0.0,0.0,-0.0648,0.9788,-0.2947,0.3245,0.5146,-0.7010,-0.3722
713,0.0,0.0,0.0,0.0,0.0,0.0,-0.0568,0.9442,-0.3037,0.3230,0.5149,-0.7009,-0.3732
714,0.0,0.0,0.0,0.0,0.0,0.0,-0.0345,0.9551,-0.3410,0.3230,0.5158,-0.7004,-0.3730
715,0.0,0.0,0.0,0.0,0.0,0.0,-0.0522,0.9673,-0.3319,0.3239,0.5162,-0.6984,-0.3753
716,0.0,0.0,0.0,0.0,0.0,0.0,-0.0521,0.9391,-0.3326,0.3242,0.5162,-0.6961,-0.3794
717,0.0,0.0,0.0,0.0,0.0,0.0,-0.0602,0.8833,-0.3435,0.3244,0.5164,-0.6947,-0.3814
718,0.0,0.0,0.0,0.0,0.0,0.0,-0.0425,0.8714,-0.3594,0.3246,0.5160,-0.6947,-0.3817
719,0.0,0.0,0.0,0.0,0.0,0.0,-0.0413,0.8968,-0.3383,0.3263,0.5152,-0.6950,-0.3809
720,0.0,0.0,0.0,0.0,0.0,0.0,-0.0611,0.9393,-0.3154,0.3286,0.5140,-0.6951,-0.3803
721,0.0,0.0,0.0,0.0,0.0,0.0,-0.0440,0.9746,-0.3237,0.3288,0.5122,-0.6966,-0.3800
722,0.0,0.0,0.0,0.0,0.0,0.0,-0.0366,0.9862,-0.3301,0.3301,0.5108,-0.6966,-0.3807
723,0.0,0.0,0.0,0.0,0.0,0.0,-0.0515,0.9563,-0.3037,0.3327,0.5098,-0.6949,-0.3827
724,0.0,0.0,0.0,0.0,0.0,0.0,-0.0622,0.9389,-0.3047,0.3337,0.5095,-0.6937,-0.3845
725,0.0,0.0,0.0,0.0,0.0,0.0,-0.0552,0.9179,-0.3146,0.3331,0.5093,-0.6936,-0.3855
726,0.0,0.0,0.0,0.0,0.0,0.0,-0.0122,0.8752,-0.3607,0.3315,0.5094,-0.6957,-0.3828
727,0.0,0.0,0.0,0.0,0.0,0.0,-0.0180,0.8805,-0.3752,0.3311,0.5117,-0.6981,-0.3757
728,0.0,0.0,0.0,0.0,0.0,0.0,-0.0595,0.8526,-0.3578,0.3307,0.5139,-0.7006,-0.3683
729,0.0,0.0,0.0,0.0,0.0,0.0,-0.0396,0.8448,-0.3439,0.3261,0.5139,-0.7068,-0.3606
730,0.0,0.0,0.0,0.0,0.0,0.0,0.0358,0.9244,-0.3892,0.3215,0.5122,-0.7154,-0.3500
731,0.0,0.0,0.0,0.0,0.0,0.0,0.0196,1.0006,-0.3969,0.3192,0.5114,-0.7216,-0.3404
732,0.0,0.0,0.0,0.0,0.0,0.0,-0.0027,0.9476,-0.3550,0.3187,0.5109,-0.7253,-0.3337
733,0.0,0.0,0.0,0.0,0.0,0.0,-0.0367,0.9794,-0.3272,0.3202,0.5104,-0.7271,-0.3290
734,0.0,0.0,0.0,0.0,0.0,0.0,-0.0290,1.0422,-0.3762,0.3242,0.5111,-0.7265,-0.3255
735,0.0,0.0,0.0,0.0,0.0,0.0,-0.0402,0.9832,-0.4188,0.3300,0.5122,-0.7238,-0.3239
736,0.0,0.0,0.0,0.0,0.0,0.0,-0.0648,0.8781,-0.3805,0.3379,0.5111,-0.7200,-0.3259
737,0.0,0.0,0.0,0.0,0.0,0.0,0.0394,0.9232,-0.3566,0.3431,0.5079,-0.7186,-0.3286
738,0.0,0.0,0.0,0.0,0.0,0.0,0.1310,0.9654,-0.4047,0.3457,0.5065,-0.7171,-0.3312
739,0.0,0.0,0.0,0.0,0.0,0.0,0.0719,0.9059,-0.3853,0.3510,0.5064,-0.7134,-0.3338
740,0.0,0.0,0.0,0.0,0.0,0.0,0.0135,0.8908,-0.3467,0.3569,0.5068,-0.7097,-0.3348
741,0.0,0.0,0.0,0.0,0.0,0.0,0.0737,0.8949,-0.3669,0.3596,0.5080,-0.7081,-0.3334
742,0.0,0.0,0.0,0.0,0.0,0.0,0.1114,0.9116,-0.3867,0.3620,0.5092,-0.7071,-0.3313
743,0.0,0.0,0.0,0.0,0.0,0.0,0.0918,0.9336,-0.3825,0.3633,0.5102,-0.7066,-0.3293
744,0.0,0.0,0.0,0.0,0.0,0.0,0.0747,0.9201,-0.3736,0.3640,0.5107,-0.7068,-0.3271
745,0.0,0.0,0.0,0.0,0.0,0.0,0.0692,0.9134,-0.3643,0.3637,0.5111,-0.7076,-0.3254
746,0.0,0.0,0.0,0.0,0.0,0.0,0.0844,0.9234,-0.3742,0.3629,0.5107,-0.7089,-0.3239
747,0.0,0.0,0.0,0.0,0.0,0.0,0.0800,0.9390,-0.3711,0.3627,0.5098,-0.7101,-0.3231
748,0.0,0.0,0.0,0.0,0.0,0.0,0.0765,0.9561,-0.3637,0.3624,0.5075,-0.7111,-0.3247
749,0.0,0.0,0.0,0.0,0.0,0.0,0.0373,0.9317,-0.3946,0.3602,0.5049,-0.7127,-0.3278
750,0.0,0.0,0.0,0.0,0.0,0.0,-0.0012,0.8958,-0.3992,0.3566,0.5023,-0.7150,-0.3306
751,0.0,0.0,0.0,0.0,0.0,0.0,-0.0427,0.8615,-0.3911,0.3516,0.5014,-0.7179,-0.3311
752,0.0,0.0,0.0,0.0,0.0,0.0,-0.0091,0.8499,-0.3789,0.3460,0.5018,-0.7222,-0.3271
753,0.0,0.0,0.0,0.0,0.0,0.0,0.0372,0.8755,-0.3763,0.3424,0.5027,-0.7270,-0.3187
754,0.0,0.0,0.0,0.0,0.0,0.0,0.0504,0.9133,-0.3870,0.3405,0.5032,-0.7304,-0.3120
755,0.0,0.0,0.0,0.0,0.0,0.0,0.0169,0.9654,-0.3678,0.3385,0.5036,-0.7323,-0.3090
756,0.0,0.0,0.0,0.0,0.0,0.0,0.0172,1.0514,-0.3620,0.3355,0.5034,-0.7336,-0.3098
757,0.0,0.0,0.0,0.0,0.0,0.0,0.0266,0.9743,-0.4108,0.3324,0.5034,-0.7330,-0.3142
758,0.0,0.0,0.0,0.0,0.0,0.0,0.0296,0.8763,-0.4011,0.3303,0.5042,-0.7316,-0.3186
759,0.0,0.0,0.0,0.0,0.0,0.0,0.0463,0.8990,-0.4139,0.3264,0.5038,-0.7312,-0.3240
760,0.0,0.0,0.0,0.0,0.0,0.0,0.0141,0.8767,-0.4141,0.3219,0.5042,-0.7311,-0.3281
761,0.0,0.0,0.0,0.0,0.0,0.0,0.0144,0.8740,-0.3946,0.3185,0.5049,-0.7307,-0.3313
762,0.0,0.0,0.0,0.0,0.0,0.0,0.0269,0.9033,-0.4292,0.3168,0.5065,-0.7297,-0.3325
763,0.0,0.0,0.0,0.0,0.0,0.0,0.0351,0.9412,-0.4262,0.3147,0.5078,-0.7293,-0.3336
764,0.0,0.0,0.0,0.0,0.0,0.0,0.0179,0.9316,-0.4085,0.3125,0.5089,-0.7285,-0.3357
765,0.0,0.0,0.0,0.0,0.0,0.0,-0.0034,0.8927,-0.3655,0.3122,0.5087,-0.7271,-0.3392
766,0.0,0.0,0.0,0.0,0.0,0.0,-0.0037,0.9012,-0.3928,0.3101,0.5078,-0.7267,-0.3435
767,0.0,0.0,0.0,0.0,0.0,0.0,0.0196,0.9281,-0.4324,0.3078,0.5066,-0.7263,-0.3480
768,0.0,0.0,0.0,0.0,0.0,0.0,0.0233,0.9160,-0.4145,0.3063,0.5044,-0.7261,-0.3530
769,0.0,0.0,0.0,0.0,0.0,0.0,-0.0084,0.8908,-0.3567,0.3074,0.5018,-0.7256,-0.3566
770,0.0,0.0,0.0,0.0,0.0,0.0,0.0107,0.8979,-0.3691,0.3090,0.4983,-0.7258,-0.3598
771,0.0,0.0,0.0,0.0,0.0,0.0,0.0015,0.9028,-0.3773,0.3107,0.4954,-0.7258,-0.3623
772,0.0,0.0,0.0,0.0,0.0,0.0,-0.0206,0.9408,-0.3675,0.3101,0.4924,-0.7253,-0.3678
773,0.0,0.0,0.0,0.0,0.0,0.0,-0.0409,0.9401,-0.3346,0.3119,0.4904,-0.7237,-0.3722
774,0.0,0.0,0.0,0.0,0.0,0.0,-0.0505,0.9389,-0.3009,0.3100,0.4870,-0.7238,-0.3781
775,0.0,0.0,0.0,0.0,0.0,0.0,-0.0072,0.9280,-0.3843,0.3069,0.4849,-0.7249,-0.3812
776,0.0,0.0,0.0,0.0,0.0,0.0,-0.0154,0.9331,-0.3467,0.3020,0.4817,-0.7269,-0.3851
777,0.0,0.0,0.0,0.0,0.0,0.0,-0.0495,0.8867,-0.3387,0.2972,0.4811,-0.7291,-0.3855
778,0.0,0.0,0.0,0.0,0.0,0.0,-0.0529,0.9282,-0.2970,0.2938,0.4812,-0.7304,-0.3855
779,0.0,0.0,0.0,0.0,0.0,0.0,-0.0537,0.9751,-0.3255,0.2901,0.4803,-0.7322,-0.3860
780,0.0,0.0,0.0,0.0,0.0,0.0,-0.0861,0.9158,-0.3455,0.2866,0.4823,-0.7339,-0.3830
781,0.0,0.0,0.0,0.0,0.0,0.0,-0.0978,0.8601,-0.3388,0.2816,0.4861,-0.7354,-0.3789
782,0.0,0.0,0.0,0.0,0.0,0.0,-0.0648,0.8694,-0.3182,0.2773,0.4888,-0.7377,-0.3740
783,0.0,0.0,0.0,0.0,0.0,0.0,-0.0467,0.9056,-0.3333,0.2727,0.4896,-0.7426,-0.3668
784,0.0,0.0,0.0,0.0,0.0,0.0,-0.0336,0.9077,-0.3739,0.2707,0.4897,-0.7476,-0.3578
785,0.0,0.0,0.0,0.0,0.0,0.0,-0.0067,0.9179,-0.4361,0.2736,0.4908,-0.7512,-0.3463
786,0.0,0.0,0.0,0.0,0.0,0.0,0.0458,0.9985,-0.4865,0.2756,0.4904,-0.7539,-0.3394
787,0.0,0.0,0.0,0.0,0.0,0.0,0.0209,0.8594,-0.4616,0.2804,0.4906,-0.7544,-0.3341
788,0.0,0.0,0.0,0.0,0.0,0.0,0.0185,0.8265,-0.4505,0.2870,0.4908,-0.7543,-0.3284
789,0.0,0.0,0.0,0.0,0.0,0.0,0.0340,0.9394,-0.4681,0.2912,0.4900,-0.7545,-0.3254
790,0.0,0.0,0.0,0.0,0.0,0.0,0.0542,1.0134,-0.5055,0.2972,0.4881,-0.7525,-0.3274
791,0.0,0.0,0.0,0.0,0.0,0.0,0.0188,0.9221,-0.4578,0.3039,0.4872,-0.7488,-0.3310
792,0.0,0.0,0.0,0.0,0.0,0.0,-0.0172,0.8943,-0.4117,0.3088,0.4887,-0.7460,-0.3305
793,0.0,0.0,0.0,0.0,0.0,0.0,-0.0196,0.9040,-0.4180,0.3139,0.4914,-0.7429,-0.3287
794,0.0,0.0,0.0,0.0,0.0,0.0,-0.0212,0.9318,-0.4012,0.3220,0.4940,-0.7363,-0.3318
795,0.0,0.0,0.0,0.0,0.0,0.0,-0.0373,0.9360,-0.3576,0.3338,0.4954,-0.7264,-0.3398
796,0.0,0.0,0.0,0.0,0.0,0.0,-0.0263,0.9019,-0.3716,0.3449,0.4964,-0.7173,-0.3467
797,0.0,0.0,0.0,0.0,0.0,0.0,0.0282,0.8908,-0.4127,0.3520,0.4973,-0.7109,-0.3512
798,0.0,0.0,0.0,0.0,0.0,0.0,0.0332,0.8912,-0.4225,0.3591,0.4979,-0.7050,-0.3551
799,0.0,0.0,0.0,0.0,0.0,0.0,-0.0283,0.8524,-0.3079,0.3677,0.4976,-0.6994,-0.3578
800,0.0,0.0,0.0,0.0,0.0,0.0,0.0146,0.8611,-0.3571,0.3689,0.4989,-0.6987,-0.3561
801,0.0,0.0,0.0,0.0,0.0,0.0,0.0088,0.8781,-0.3614,0.3718,0.5011,-0.6979,-0.3515
802,0.0,0.0,0.0,0.0,0.0,0.0,-0.0218,0.8609,-0.3260,0.3731,0.5034,-0.6988,-0.3451
803,0.0,0.0,0.0,0.0,0.0,0.0,0.0093,0.9196,-0.3251,0.3731,0.5049,-0.7014,-0.3376
804,0.0,0.0,0.0,0.0,0.0,0.0,0.0513,0.9918,-0.3359,0.3702,0.5048,-0.7061,-0.3309
805,0.0,0.0,0.0,0.0,0.0,0.0,0.0957,0.9961,-0.3934,0.3670,0.5040,-0.7104,-0.3266
806,0.0,0.0,0.0,0.0,0.0,0.0,0.0368,1.0105,-0.3059,0.3672,0.5033,-0.7118,-0.3243
807,0.0,0.0,0.0,0.0,0.0,0.0,0.0161,1.0480,-0.2889,0.3645,0.5038,-0.7130,-0.3240
808,0.0,0.0,0.0,0.0,0.0,0.0,0.0428,1.0457,-0.3287,0.3632,0.5065,-0.7118,-0.3238
809,0.0,0.0,0.0,0.0,0.0,0.0,0.0172,0.9516,-0.3362,0.3619,0.5106,-0.7082,-0.3266
810,0.0,0.0,0.0,0.0,0.0,0.0,0.0003,0.8847,-0.3934,0.3594,0.5155,-0.7041,-0.3307
811,0.0,0.0,0.0,0.0,0.0,0.0,0.0136,0.8288,-0.4022,0.3571,0.5190,-0.7014,-0.3334
812,0.0,0.0,0.0,0.0,0.0,0.0,0.0229,0.8312,-0.4023,0.3546,0.5210,-0.7003,-0.3353
813,0.0,0.0,0.0,0.0,0.0,0.0,0.0183,0.8522,-0.3797,0.3535,0.5216,-0.7000,-0.3361
814,0.0,0.0,0.0,0.0,0.0,0.0,0.0114,0.8750,-0.3863,0.3514,0.5221,-0.7009,-0.3356
815,0.0,0.0,0.0,0.0,0.0,0.0,0.0037,0.8803,-0.3969,0.3496,0.5228,-0.7022,-0.3338
816,0.0,0.0,0.0,0.0,0.0,0.0,-0.0151,0.9183,-0.3809,0.3472,0.5231,-0.7039,-0.3323
817,0.0,0.0,0.0,0.0,0.0,0.0,-0.0055,0.9407,-0.3672,0.3442,0.5217,-0.7064,-0.3321
818,0.0,0.0,0.0,0.0,0.0,0.0,-0.0006,0.9466,-0.3614,0.3409,0.5190,-0.7092,-0.3339
819,0.0,0.0,0.0,0.0,0.0,0.0,-0.0010,0.9096,-0.3728,0.3384,0.5153,-0.7107,-0.3389
820,0.0,0.0,0.0,0.0,0.0,0.0,-0.0177,0.8710,-0.3426,0.3362,0.5124,-0.7116,-0.3435
821,0.0,0.0,0.0,0.0,0.0,0.0,-0.0343,0.8638,-0.3424,0.3340,0.5121,-0.7129,-0.3435
822,0.0,0.0,0.0,0.0,0.0,0.0,0.0353,0.8653,-0.3773,0.3321,0.5108,-0.7153,-0.3421
823,0.0,0.0,0.0,0.0,0.0,0.0,0.0680,0.8920,-0.4371,0.3298,0.5085,-0.7183,-0.3415
824,0.0,0.0,0.0,0.0,0.0,0.0,0.0955,0.9141,-0.4616,0.3246,0.5045,-0.7229,-0.3429
825,0.0,0.0,0.0,0.0,0.0,0.0,0.1001,0.9419,-0.4338,0.3157,0.5011,-0.7287,-0.3439
826,0.0,0.0,0.0,0.0,0.0,0.0,0.0697,1.0230,-0.3803,0.3072,0.4975,-0.7334,-0.3468
827,0.0,0.0,0.0,0.0,0.0,0.0,-0.0106,1.0058,-0.3015,0.3025,0.4937,-0.7365,-0.3497
828,0.0,0.0,0.0,0.0,0.0,0.0,-0.0328,0.9636,-0.3663,0.2982,0.4922,-0.7378,-0.3528
829,0.0,0.0,0.0,0.0,0.0,0.0,-0.0350,0.9812,-0.3442,0.2954,0.4917,-0.7367,-0.3581
830,0.0,0.0,0.0,0.0,0.0,0.0,-0.0385,0.9497,-0.3375,0.2939,0.4923,-0.7337,-0.3646
831,0.0,0.0,0.0,0.0,0.0,0.0,-0.0397,0.9001,-0.3534,0.2925,0.4941,-0.7297,-0.3714
832,0.0,0.0,0.0,0.0,0.0,0.0,-0.0327,0.8830,-0.3662,0.2905,0.4948,-0.7267,-0.3778
833,0.0,0.0,0.0,0.0,0.0,0.0,-0.0312,0.9034,-0.3715,0.2917,0.4950,-0.7243,-0.3811
834,0.0,0.0,0.0,0.0,0.0,0.0,-0.0009,0.9097,-0.4279,0.2931,0.4943,-0.7237,-0.3822
835,0.0,0.0,0.0,0.0,0.0,0.0,-0.0182,0.8818,-0.3976,0.2965,0.4927,-0.7236,-0.3817
836,0.0,0.0,0.0,0.0,0.0,0.0,-0.0525,0.8814,-0.3314,0.3031,0.4896,-0.7239,-0.3800
837,0.0,0.0,0.0,0.0,0.0,0.0,-0.0408,0.8973,-0.3383,0.3106,0.4868,-0.7244,-0.3766
838,0.0,0.0,0.0,0.0,0.0,0.0,-0.0356,0.9086,-0.3144,0.3165,0.4857,-0.7242,-0.3734
839,0.0,0.0,0.0,0.0,0.0,0.0,-0.0160,0.9487,-0.3373,0.3199,0.4846,-0.7242,-0.3719
840,0.0,0.0,0.0,0.0,0.0,0.0,0.0023,0.9184,-0.3596,0.3225,0.4824,-0.7252,-0.3707
841,0.0,0.0,0.0,0.0,0.0,0.0,0.0286,0.9291,-0.3491,0.3231,0.4798,-0.7278,-0.3684
842,0.0,0.0,0.0,0.0,0.0,0.0,0.0241,0.9457,-0.3431,0.3229,0.4775,-0.7305,-0.3662
843,0.0,0.0,0.0,0.0,0.0,0.0,0.0193,0.9335,-0.3466,0.3223,0.4754,-0.7329,-0.3645
844,0.0,0.0,0.0,0.0,0.0,0.0,0.0055,0.9206,-0.3299,0.3226,0.4734,-0.7353,-0.3622
845,0.0,0.0,0.0,0.0,0.0,0.0,0.0094,0.9564,-0.3424,0.3233,0.4720,-0.7372,-0.3594
846,0.0,0.0,0.0,0.0,0.0,0.0,0.0269,0.9826,-0.3405,0.3249,0.4709,-0.7387,-0.3565
847,0.0,0.0,0.0,0.0,0.0,0.0,0.0372,0.9694,-0.3461,0.3247,0.4702,-0.7403,-0.3542
848,0.0,0.0,0.0,0.0,0.0,0.0,0.0196,0.9438,-0.3382,0.3251,0.4696,-0.7412,-0.3527
849,0.0,0.0,0.0,0.0,0.0,0.0,0.0260,0.9437,-0.3422,0.3252,0.4685,-0.7423,-0.3519
850,0.0,0.0,0.0,0.0,0.0,0.0,0.0457,0.9586,-0.3638,0.3254,0.4675,-0.7432,-0.3510
851,0.0,0.0,0.0,0.0,0.0,0.0,0.0478,0.9527,-0.3731,0.3264,0.4672,-0.7436,-0.3497
852,0.0,0.0,0.0,0.0,0.0,0.0,0.0513,0.9399,-0.3879,0.3274,0.4677,-0.7432,-0.3488
853,0.0,0.0,0.0,0.0,0.0,0.0,0.0320,0.8969,-0.2386,0.3309,0.4669,-0.7426,-0.3479
854,0.0,0.0,0.0,0.0,0.0,0.0,0.0453,0.9149,-0.3640,0.3323,0.4676,-0.7423,-0.3462
855,0.0,0.0,0.0,0.0,0.0,0.0,0.0609,0.9323,-0.3685,0.3338,0.4679,-0.7419,-0.3453
856,0.0,0.0,0.0,0.0,0.0,0.0,0.0575,0.9197,-0.3646,0.3354,0.4677,-0.7414,-0.3451
857,0.0,0.0,0.0,0.0,0.0,0.0,0.0546,0.9042,-0.3637,0.3376,0.4672,-0.7409,-0.3446
858,0.0,0.0,0.0,0.0,0.0,0.0,0.0693,0.9152,-0.3755,0.3400,0.4671,-0.7403,-0.3438
859,0.0,0.0,0.0,0.0,0.0,0.0,0.0748,0.9166,-0.3824,0.3428,0.4672,-0.7393,-0.3431
860,0.0,0.0,0.0,0.0,0.0,0.0,0.0682,0.9100,-0.3580,0.3470,0.4674,-0.7378,-0.3417
861,0.0,0.0,0.0,0.0,0.0,0.0,0.1021,0.9398,-0.3933,0.3495,0.4676,-0.7368,-0.3410
862,0.0,0.0,0.0,0.0,0.0,0.0,0.0957,0.9394,-0.3810,0.3516,0.4676,-0.7358,-0.3412
863,0.0,0.0,0.0,0.0,0.0,0.0,0.0755,0.9173,-0.3536,0.3538,0.4676,-0.7347,-0.3410
864,0.0,0.0,0.0,0.0,0.0,0.0,0.0736,0.9226,-0.3599,0.3552,0.4678,-0.7340,-0.3410
865,0.0,0.0,0.0,0.0,0.0,0.0,0.0804,0.9308,-0.3634,0.3564,0.4677,-0.7334,-0.3411
866,0.0,0.0,0.0,0.0,0.0,0.0,0.0854,0.9205,-0.3766,0.3574,0.4676,-0.7327,-0.3417
867,0.0,0.0,0.0,0.0,0.0,0.0,0.0899,0.9089,-0.3767,0.3579,0.4681,-0.7322,-0.3415
868,0.0,0.0,0.0,0.0,0.0,0.0,0.0741,0.9124,-0.3585,0.3581,0.4701,-0.7314,-0.3403
869,0.0,0.0,0.0,0.0,0.0,0.0,0.0621,0.9364,-0.3348,0.3585,0.4715,-0.7304,-0.3401
870,0.0,0.0,0.0,0.0,0.0,0.0,0.0793,0.9567,-0.3481,0.3587,0.4726,-0.7298,-0.3396
871,0.0,0.0,0.0,0.0,0.0,0.0,0.0764,0.9634,-0.3548,0.3590,0.4744,-0.7290,-0.3386
872,0.0,0.0,0.0,0.0,0.0,0.0,0.0730,0.9745,-0.3616,0.3579,0.4764,-0.7281,-0.3389
873,0.0,0.0,0.0,0.0,0.0,0.0,0.0428,0.9778,-0.3163,0.3571,0.4781,-0.7268,-0.3402
874,0.0,0.0,0.0,0.0,0.0,0.0,0.0519,0.9442,-0.3405,0.3565,0.4796,-0.7250,-0.3424
875,0.0,0.0,0.0,0.0,0.0,0.0,0.0750,0.8964,-0.3552,0.3567,0.4803,-0.7235,-0.3443
876,0.0,0.0,0.0,0.0,0.0,0.0,0.0716,0.9168,-0.3516,0.3572,0.4810,-0.7225,-0.3449
877,0.0,0.0,0.0,0.0,0.0,0.0,0.1136,1.0091,-0.3311,0.3571,0.4792,-0.7222,-0.3482
878,0.0,0.0,0.0,0.0,0.0,0.0,0.1502,1.0256,-0.3875,0.3547,0.4767,-0.7225,-0.3535
879,0.0,0.0,0.0,0.0,0.0,0.0,0.0635,1.0163,-0.2886,0.3570,0.4767,-0.7191,-0.3580
880,0.0,0.0,0.0,0.0,0.0,0.0,0.0581,0.9989,-0.2828,0.3572,0.4768,-0.7154,-0.3651
881,0.0,0.0,0.0,0.0,0.0,0.0,0.0872,1.0427,-0.3292,0.3576,0.4763,-0.7099,-0.3758
882,0.0,0.0,0.0,0.0,0.0,0.0,0.0224,0.9981,-0.2775,0.3587,0.4785,-0.7031,-0.3847
883,0.0,0.0,0.0,0.0,0.0,0.0,-0.0046,0.9310,-0.2941,0.3585,0.4832,-0.6971,-0.3898
884,0.0,0.0,0.0,0.0,0.0,0.0,-0.0010,0.9270,-0.3161,0.3574,0.4887,-0.6914,-0.3942
885,0.0,0.0,0.0,0.0,0.0,0.0,-0.0356,0.9356,-0.2767,0.3604,0.4943,-0.6832,-0.3987
886,0.0,0.0,0.0,0.0,0.0,0.0,-0.0693,0.9318,-0.2710,0.3643,0.4988,-0.6748,-0.4039
887,0.0,0.0,0.0,0.0,0.0,0.0,-0.1112,0.9163,-0.2179,0.3683,0.5030,-0.6663,-0.4091
888,0.0,0.0,0.0,0.0,0.0,0.0,-0.1302,0.8970,-0.2144,0.3696,0.5071,-0.6589,-0.4148
889,0.0,0.0,0.0,0.0,0.0,0.0,-0.1398,0.8847,-0.2377,0.3686,0.5128,-0.6528,-0.4183
890,0.0,0.0,0.0,0.0,0.0,0.0,-0.1020,0.8814,-0.2035,0.3660,0.5159,-0.6492,-0.4224
891,0.0,0.0,0.0,0.0,0.0,0.0,-0.0762,0.9038,-0.2579,0.3605,0.5185,-0.6479,-0.4259
892,0.0,0.0,0.0,0.0,0.0,0.0,-0.0893,0.8626,-0.2589,0.3576,0.5205,-0.6463,-0.4283
893,0.0,0.0,0.0,0.0,0.0,0.0,-0.1274,0.8482,-0.2478,0.3557,0.5221,-0.6452,-0.4297
894,0.0,0.0,0.0,0.0,0.0,0.0,-0.1674,0.7844,-0.2857,0.3525,0.5270,-0.6469,-0.4238
895,0.0,0.0,0.0,0.0,0.0,0.0,-0.1580,0.7313,-0.2403,0.3486,0.5318,-0.6527,-0.4118
896,0.0,0.0,0.0,0.0,0.0,0.0,-0.0801,0.8733,-0.2463,0.3433,0.5305,-0.6637,-0.4003
897,0.0,0.0,0.0,0.0,0.0,0.0,-0.1134,1.0184,-0.2632,0.3393,0.5303,-0.6735,-0.3873
898,0.0,0.0,0.0,0.0,0.0,0.0,-0.1135,1.1081,-0.2203,0.3438,0.5299,-0.6768,-0.3779
899,0.0,0.0,0.0,0.0,0.0,0.0,-0.1103,1.1821,-0.1131,0.3533,0.5287,-0.6753,-0.3737
900,0.0,0.0,0.0,0.0,0.0,0.0,-0.0208,1.1454,-0.3313,0.3529,0.5295,-0.6750,-0.3734
901,0.0,0.0,0.0,0.0,0.0,0.0,-0.0434,0.9818,-0.3363,0.3559,0.5327,-0.6717,-0.3721
902,0.0,0.0,0.0,0.0,0.0,0.0,-0.0684,0.9848,-0.2702,0.3565,0.5350,-0.6684,-0.3740
903,0.0,0.0,0.0,0.0,0.0,0.0,-0.0623,1.0326,-0.3042,0.3543,0.5382,-0.6653,-0.3772
904,0.0,0.0,0.0,0.0,0.0,0.0,-0.0820,1.0691,-0.2945,0.3526,0.5451,-0.6593,-0.3794
905,0.0,0.0,0.0,0.0,0.0,0.0,-0.1551,0.9920,-0.2346,0.3514,0.5531,-0.6511,-0.3829
906,0.0,0.0,0.0,0.0,0.0,0.0,-0.1308,0.9878,-0.2802,0.3503,0.5610,-0.6426,-0.3868
907,0.0,0.0,0.0,0.0,0.0,0.0,-0.0656,0.9438,-0.3002,0.3501,0.5649,-0.6348,-0.3941
908,0.0,0.0,0.0,0.0,0.0,0.0,-0.0780,0.8762,-0.3224,0.3490,0.5661,-0.6292,-0.4023
909,0.0,0.0,0.0,0.0,0.0,0.0,-0.1744,0.8529,-0.2853,0.3447,0.5721,-0.6260,-0.4025
910,0.0,0.0,0.0,0.0,0.0,0.0,-0.1160,0.8350,-0.3158,0.3416,0.5747,-0.6245,-0.4038
911,0.0,0.0,0.0,0.0,0.0,0.0,-0.0887,0.8151,-0.3055,0.3449,0.5714,-0.6229,-0.4081
912,0.0,0.0,0.0,0.0,0.0,0.0,-0.0924,0.8580,-0.2833,0.3470,0.5686,-0.6223,-0.4111
913,0.0,0.0,0.0,0.0,0.0,0.0,-0.2719,0.8655,-0.2520,0.3469,0.5689,-0.6211,-0.4126
914,0.0,0.0,0.0,0.0,0.0,0.0,-0.1495,0.8687,-0.2348,0.3477,0.5660,-0.6228,-0.4134
915,0.0,0.0,0.0,0.0,0.0,0.0,-0.1469,0.8565,-0.2505,0.3458,0.5655,-0.6256,-0.4113
916,0.0,0.0,0.0,0.0,0.0,0.0,-0.1687,0.9678,-0.2394,0.3439,0.5646,-0.6288,-0.4094
917,0.0,0.0,0.0,0.0,0.0,0.0,-0.1470,0.9622,-0.2670,0.3430,0.5626,-0.6323,-0.4074
918,0.0,0.0,0.0,0.0,0.0,0.0,-0.1240,0.9422,-0.2669,0.3436,0.5611,-0.6356,-0.4039
919,0.0,0.0,0.0,0.0,0.0,0.0,-0.1622,0.9657,-0.2522,0.3438,0.5601,-0.6385,-0.4006
920,0.0,0.0,0.0,0.0,0.0,0.0,-0.1959,0.9736,-0.2518,0.3429,0.5594,-0.6411,-0.3981
921,0.0,0.0,0.0,0.0,0.0,0.0,-0.1848,0.9833,-0.2440,0.3407,0.5585,-0.6443,-0.3961
922,0.0,0.0,0.0,0.0,0.0,0.0,-0.1554,0.9623,-0.2567,0.3372,0.5577,-0.6481,-0.3940
923,0.0,0.0,0.0,0.0,0.0,0.0,-0.1356,0.9736,-0.2871,0.3340,0.5572,-0.6512,-0.3924
924,0.0,0.0,0.0,0.0,0.0,0.0,-0.1547,0.9839,-0.2858,0.3309,0.5568,-0.6535,-0.3916
925,0.0,0.0,0.0,0.0,0.0,0.0,-0.1449,0.9694,-0.2772,0.3285,0.5560,-0.6558,-0.3911
926,0.0,0.0,0.0,0.0,0.0,0.0,-0.1032,0.9604,-0.3012,0.3271,0.5544,-0.6579,-0.3909
927,0.0,0.0,0.0,0.0,0.0,0.0,-0.1149,0.9667,-0.3054,0.3246,0.5535,-0.6598,-0.3910
928,0.0,0.0,0.0,0.0,0.0,0.0,-0.1275,0.9429,-0.3078,0.3211,0.5534,-0.6611,-0.3919
929,0.0,0.0,0.0,0.0,0.0,0.0,-0.1442,0.9430,-0.3042,0.3176,0.5527,-0.6626,-0.3932
930,0.0,0.0,0.0,0.0,0.0,0.0,-0.1300,0.9148,-0.3011,0.3125,0.5527,-0.6641,-0.3948
931,0.0,0.0,0.0,0.0,0.0,0.0,-0.1412,0.9216,-0.3048,0.3076,0.5532,-0.6646,-0.3970
932,0.0,0.0,0.0,0.0,0.0,0.0,-0.1516,0.9333,-0.2944,0.3040,0.5533,-0.6648,-0.3994
933,0.0,0.0,0.0,0.0,0.0,0.0,-0.1448,0.9416,-0.2925,0.3009,0.5531,-0.6639,-0.4034
934,0.0,0.0,0.0,0.0,0.0,0.0,-0.1413,0.9507,-0.3032,0.2978,0.5526,-0.6627,-0.4083
935,0.0,0.0,0.0,0.0,0.0,0.0,-0.1921,0.9442,-0.2905,0.2951,0.5527,-0.6615,-0.4121
936,0.0,0.0,0.0,0.0,0.0,0.0,-0.1973,0.9366,-0.2588,0.2912,0.5534,-0.6597,-0.4167
937,0.0,0.0,0.0,0.0,0.0,0.0,-0.1554,0.8843,-0.2912,0.2858,0.5538,-0.6589,-0.4214
938,0.0,0.0,0.0,0.0,0.0,0.0,-0.1676,0.8897,-0.2896,0.2826,0.5531,-0.6584,-0.4250
939,0.0,0.0,0.0,0.0,0.0,0.0,-0.1781,0.8923,-0.2680,0.2827,0.5525,-0.6582,-0.4262
940,0.0,0.0,0.0,0.0,0.0,0.0,-0.1702,0.9238,-0.2762,0.2825,0.5508,-0.6591,-0.4270
941,0.0,0.0,0.0,0.0,0.0,0.0,-0.1490,0.9187,-0.2999,0.2824,0.5484,-0.6604,-0.4283
942,0.0,0.0,0.0,0.0,0.0,0.0,-0.1188,0.9041,-0.2954,0.2823,0.5452,-0.6628,-0.4287
943,0.0,0.0,0.0,0.0,0.0,0.0,-0.1037,0.9235,-0.2984,0.2829,0.5417,-0.6664,-0.4271
944,0.0,0.0,0.0,0.0,0.0,0.0,-0.0953,0.9292,-0.3102,0.2838,0.5384,-0.6708,-0.4239
945,0.0,0.0,0.0,0.0,0.0,0.0,-0.0831,0.9161,-0.3011,0.2857,0.5345,-0.6755,-0.4199
946,0.0,0.0,0.0,0.0,0.0,0.0,-0.0810,0.9034,-0.3222,0.2880,0.5307,-0.6802,-0.4156
947,0.0,0.0,0.0,0.0,0.0,0.0,-0.0967,0.9122,-0.3146,0.2925,0.5278,-0.6841,-0.4097
948,0.0,0.0,0.0,0.0,0.0,0.0,-0.1096,0.9478,-0.2977,0.2985,0.5253,-0.6881,-0.4018
949,0.0,0.0,0.0,0.0,0.0,0.0,-0.0940,0.9851,-0.3031,0.3044,0.5236,-0.6922,-0.3925
950,0.0,0.0,0.0,0.0,0.0,0.0,-0.0942,1.0012,-0.2879,0.3083,0.5224,-0.6959,-0.3844
951,0.0,0.0,0.0,0.0,0.0,0.0,-0.0749,1.0077,-0.3178,0.3095,0.5212,-0.6997,-0.3780
952,0.0,0.0,0.0,0.0,0.0,0.0,-0.0518,1.0096,-0.3293,0.3113,0.5197,-0.7029,-0.3727
953,0.0,0.0,0.0,0.0,0.0,0.0,-0.0452,0.9788,-0.3490,0.3138,0.5189,-0.7051,-0.3676
954,0.0,0.0,0.0,0.0,0.0,0.0,-0.0446,0.9452,-0.3629,0.3164,0.5181,-0.7066,-0.3635
955,0.0,0.0,0.0,0.0,0.0,0.0,-0.0454,0.9321,-0.3702,0.3192,0.5176,-0.7073,-0.3603
956,0.0,0.0,0.0,0.0,0.0,0.0,-0.0307,0.9470,-0.3801,0.3223,0.5168,-0.7079,-0.3576
957,0.0,0.0,0.0,0.0,0.0,0.0,-0.0411,0.9481,-0.3682,0.3249,0.5161,-0.7080,-0.3562
958,0.0,0.0,0.0,0.0,0.0,0.0,-0.0616,0.9506,-0.3651,0.3265,0.5151,-0.7079,-0.3564
959,0.0,0.0,0.0,0.0,0.0,0.0,-0.0774,0.9628,-0.3522,0.3280,0.5145,-0.7070,-0.3575
960,0.0,0.0,0.0,0.0,0.0,0.0,-0.1004,0.9601,-0.3392,0.3280,0.5136,-0.7060,-0.3608
961,0.0,0.0,0.0,0.0,0.0,0.0,-0.0973,0.9468,-0.3623,0.3262,0.5131,-0.7054,-0.3641
962,0.0,0.0,0.0,0.0,0.0,0.0,-0.1275,0.9168,-0.3626,0.3261,0.5144,-0.7035,-0.3662
963,0.0,0.0,0.0,0.0,0.0,0.0,-0.1266,0.9028,-0.3509,0.3254,0.5159,-0.7008,-0.3698
964,0.0,0.0,0.0,0.0,0.0,0.0,-0.0979,0.9013,-0.3425,0.3264,0.5177,-0.6974,-0.3730
965,0.0,0.0,0.0,0.0,0.0,0.0,-0.1068,0.8990,-0.3268,0.3276,0.5192,-0.6946,-0.3750
966,0.0,0.0,0.0,0.0,0.0,0.0,-0.0978,0.9188,-0.3478,0.3296,0.5208,-0.6921,-0.3757
967,0.0,0.0,0.0,0.0,0.0,0.0,-0.0843,0.9440,-0.3405,0.3319,0.5222,-0.6893,-0.3769
968,0.0,0.0,0.0,0.0,0.0,0.0,-0.0678,0.9358,-0.3280,0.3323,0.5233,-0.6880,-0.3773
969,0.0,0.0,0.0,0.0,0.0,0.0,-0.0741,0.9237,-0.3270,0.3323,0.5242,-0.6872,-0.3775
970,0.0,0.0,0.0,0.0,0.0,0.0,-0.0733,0.9320,-0.3168,0.3328,0.5245,-0.6865,-0.3780
971,0.0,0.0,0.0,0.0,0.0,0.0,-0.0780,0.9193,-0.3251,0.3330,0.5245,-0.6860,-0.3786
972,0.0,0.0,0.0,0.0,0.0,0.0,-0.0590,0.9266,-0.3267,0.3330,0.5242,-0.6860,-0.3789
973,0.0,0.0,0.0,0.0,0.0,0.0,-0.0448,0.9429,-0.3404,0.3326,0.5239,-0.6866,-0.3788
974,0.0,0.0,0.0,0.0,0.0,0.0,-0.0483,0.9416,-0.3214,0.3325,0.5234,-0.6870,-0.3787
975,0.0,0.0,0.0,0.0,0.0,0.0,-0.0420,0.9479,-0.3268,0.3320,0.5228,-0.6877,-0.3789
976,0.0,0.0,0.0,0.0,0.0,0.0,-0.0708,0.9305,-0.3192,0.3310,0.5225,-0.6884,-0.3789
977,0.0,0.0,0.0,0.0,0.0,0.0,-0.0650,0.9495,-0.3148,0.3295,0.5219,-0.6895,-0.3790
978,0.0,0.0,0.0,0.0,0.0,0.0,-0.0405,0.9615,-0.3277,0.3279,0.5210,-0.6906,-0.3797
979,0.0,0.0,0.0,0.0,0.0,0.0,-0.0604,0.9319,-0.3315,0.3264,0.5208,-0.6913,-0.3798
980,0.0,0.0,0.0,0.0,0.0,0.0,-0.0747,0.9272,-0.3138,0.3253,0.5205,-0.6920,-0.3800
981,0.0,0.0,0.0,0.0,0.0,0.0,-0.0738,0.9360,-0.3060,0.3243,0.5202,-0.6927,-0.3801
982,0.0,0.0,0.0,0.0,0.0,0.0,-0.0531,0.9484,-0.3325,0.3228,0.5203,-0.6934,-0.3799
983,0.0,0.0,0.0,0.0,0.0,0.0,-0.0600,0.9334,-0.3227,0.3210,0.5204,-0.6941,-0.3800
984,0.0,0.0,0.0,0.0,0.0,0.0,-0.0547,0.9358,-0.3228,0.3183,0.5202,-0.6955,-0.3801
985,0.0,0.0,0.0,0.0,0.0,0.0,-0.0634,0.9251,-0.3286,0.3161,0.5198,-0.6967,-0.3802
986,0.0,0.0,0.0,0.0,0.0,0.0,-0.0840,0.9224,-0.3108,0.3145,0.5193,-0.6976,-0.3805
987,0.0,0.0,0.0,0.0,0.0,0.0,-0.0851,0.9210,-0.3045,0.3141,0.5184,-0.6984,-0.3806
988,0.0,0.0,0.0,0.0,0.0,0.0,-0.0867,0.9317,-0.2922,0.3155,0.5173,-0.6987,-0.3803
989,0.0,0.0,0.0,0.0,0.0,0.0,-0.0597,0.9670,-0.3123,0.3165,0.5161,-0.6993,-0.3802
990,0.0,0.0,0.0,0.0,0.0,0.0,-0.0524,0.9660,-0.3110,0.3178,0.5150,-0.6993,-0.3805
991,0.0,0.0,0.0,0.0,0.0,0.0,-0.0711,0.9434,-0.2889,0.3185,0.5142,-0.6996,-0.3805
992,0.0,0.0,0.0,0.0,0.0,0.0,-0.0980,0.9624,-0.2817,0.3188,0.5137,-0.6998,-0.3806
993,0.0,0.0,0.0,0.0,0.0,0.0,-0.1269,0.9708,-0.2725,0.3198,0.5133,-0.6991,-0.3814
994,0.0,0.0,0.0,0.0,0.0,0.0,-0.1154,0.9565,-0.3015,0.3199,0.5129,-0.6982,-0.3835
995,0.0,0.0,0.0,0.0,0.0,0.0,-0.0927,0.8976,-0.3196,0.3188,0.5128,-0.6976,-0.3857
996,0.0,0.0,0.0,0.0,0.0,0.0,-0.0779,0.8727,-0.3346,0.3175,0.5128,-0.6978,-0.3865
997,0.0,0.0,0.0,0.0,0.0,0.0,-0.0626,0.8861,-0.3537,0.3158,0.5130,-0.6985,-0.3863
998,0.0,0.0,0.0,0.0,0.0,0.0,-0.0646,0.9012,-0.3512,0.3140,0.5131,-0.6996,-0.3856
999,0.0,0.0,0.0,0.0,0.0,0.0,-0.0612,0.9123,-0.3497,0.3127,0.5131,-0.7009,-0.3842
1000,0.0,0.0,0.0,0.0,0.0,0.0,-0.0608,0.9294,-0.3462,0.3113,0.5132,-0.7024,-0.3825
1001,0.0,0.0,0.0,0.0,0.0,0.0,-0.0647,0.9410,-0.3524,0.3097,0.5136,-0.7035,-0.3813
1002,0.0,0.0,0.0,0.0,0.0,0.0,-0.0681,0.9328,-0.3451,0.3095,0.5138,-0.7037,-0.3808
1003,0.0,0.0,0.0,0.0,0.0,0.0,-0.0411,0.9520,-0.3658,0.3088,0.5137,-0.7044,-0.3802
1004,0.0,0.0,0.0,0.0,0.0,0.0,-0.0377,0.9592,-0.3687,0.3084,0.5138,-0.7050,-0.3792
1005,0.0,0.0,0.0,0.0,0.0,0.0,-0.0427,0.9599,-0.3516,0.3087,0.5137,-0.7053,-0.3786
1006,0.0,0.0,0.0,0.0,0.0,0.0,-0.0442,0.9632,-0.3550,0.3087,0.5135,-0.7059,-0.3779
1007,0.0,0.0,0.0,0.0,0.0,0.0,-0.0598,0.9589,-0.3568,0.3084,0.5136,-0.7062,-0.3773
1008,0.0,0.0,0.0,0.0,0.0,0.0,-0.0676,0.9293,-0.3490,0.3089,0.5133,-0.7063,-0.3772
1009,0.0,0.0,0.0,0.0,0.0,0.0,-0.0734,0.9143,-0.3500,0.3097,0.5133,-0.7057,-0.3776
1010,0.0,0.0,0.0,0.0,0.0,0.0,-0.0689,0.9074,-0.3594,0.3109,0.5135,-0.7051,-0.3776
1011,0.0,0.0,0.0,0.0,0.0,0.0,-0.0548,0.9093,-0.3605,0.3125,0.5133,-0.7049,-0.3768
1012,0.0,0.0,0.0,0.0,0.0,0.0,-0.0470,0.9273,-0.3551,0.3140,0.5129,-0.7053,-0.3755
1013,0.0,0.0,0.0,0.0,0.0,0.0,-0.0525,0.9444,-0.3452,0.3165,0.5119,-0.7056,-0.3742
1014,0.0,0.0,0.0,0.0,0.0,0.0,-0.0565,0.9222,-0.3316,0.3189,0.5107,-0.7058,-0.3732
1015,0.0,0.0,0.0,0.0,0.0,0.0,-0.0496,0.9294,-0.3404,0.3206,0.5097,-0.7061,-0.3727
1016,0.0,0.0,0.0,0.0,0.0,0.0,-0.0447,0.9395,-0.3473,0.3221,0.5086,-0.7063,-0.3724
1017,0.0,0.0,0.0,0.0,0.0,0.0,-0.0535,0.9250,-0.3365,0.3240,0.5082,-0.7063,-0.3714
1018,0.0,0.0,0.0,0.0,0.0,0.0,-0.0673,0.9207,-0.3296,0.3255,0.5085,-0.7060,-0.3702
1019,0.0,0.0,0.0,0.0,0.0,0.0,-0.0673,0.9474,-0.3338,0.3263,0.5092,-0.7057,-0.3692
1020,0.0,0.0,0.0,0.0,0.0,0.0,-0.0771,0.9484,-0.3293,0.3267,0.5101,-0.7053,-0.3683
1021,0.0,0.0,0.0,0.0,0.0,0.0,-0.0639,0.9484,-0.3343,0.3254,0.5109,-0.7055,-0.3678
1022,0.0,0.0,0.0,0.0,0.0,0.0,-0.0727,0.9416,-0.3313,0.3241,0.5118,-0.7056,-0.3676
1023,0.0,0.0,0.0,0.0,0.0,0.0,-0.0737,0.9320,-0.3221,0.3231,0.5128,-0.7053,-0.3677
1024,0.0,0.0,0.0,0.0,0.0,0.0,-0.0672,0.9561,-0.3386,0.3221,0.5142,-0.7049,-0.3673
1025,0.0,0.0,0.0,0.0,0.0,0.0,-0.0658,0.9464,-0.3363,0.3219,0.5159,-0.7043,-0.3664
1026,0.0,0.0,0.0,0.0,0.0,0.0,-0.0614,0.9304,-0.3364,0.3228,0.5173,-0.7032,-0.3656
1027,0.0,0.0,0.0,0.0,0.0,0.0,-0.0485,0.9055,-0.3445,0.3228,0.5190,-0.7024,-0.3648
1028,0.0,0.0,0.0,0.0,0.0,0.0,-0.0632,0.9390,-0.3505,0.3223,0.5203,-0.7018,-0.3645
1029,0.0,0.0,0.0,0.0,0.0,0.0,-0.0633,0.9314,-0.3383,0.3221,0.5206,-0.7014,-0.3650
1030,0.0,0.0,0.0,0.0,0.0,0.0,-0.0730,0.9071,-0.3403,0.3212,0.5212,-0.7014,-0.3651
1031,0.0,0.0,0.0,0.0,0.0,0.0,-0.0622,0.8983,-0.3458,0.3199,0.5219,-0.7015,-0.3649
1032,0.0,0.0,0.0,0.0,0.0,0.0,-0.0503,0.8850,-0.3621,0.3190,0.5226,-0.7019,-0.3640
1033,0.0,0.0,0.0,0.0,0.0,0.0,-0.0557,0.8942,-0.3659,0.3181,0.5233,-0.7027,-0.3622
1034,0.0,0.0,0.0,0.0,0.0,0.0,-0.0767,0.9011,-0.3632,0.3173,0.5244,-0.7035,-0.3598
1035,0.0,0.0,0.0,0.0,0.0,0.0,-0.0659,0.9330,-0.3768,0.3167,0.5248,-0.7042,-0.3582
1036,0.0,0.0,0.0,0.0,0.0,0.0,-0.0620,0.9345,-0.3783,0.3163,0.5252,-0.7047,-0.3571
1037,0.0,0.0,0.0,0.0,0.0,0.0,-0.0708,0.9122,-0.3671,0.3157,0.5258,-0.7052,-0.3559
1038,0.0,0.0,0.0,0.0,0.0,0.0,-0.0625,0.9199,-0.3730,0.3150,0.5265,-0.7057,-0.3544
1039,0.0,0.0,0.0,0.0,0.0,0.0,-0.0688,0.9175,-0.3739,0.3145,0.5272,-0.7060,-0.3531
1040,0.0,0.0,0.0,0.0,0.0,0.0,-0.0672,0.9208,-0.3876,0.3140,0.5277,-0.7062,-0.3524
