,Position_X,Position_Y,Position_Z,Velocity_X,Velocity_Y,Velocity_Z,Acceleration_X,Acceleration_Y,Acceleration_Z,Quaterion_0,Quaterion_1,Quaterion_2,Quaterion_3
51,0.0,0.0,0.0,0.0,0.0,0.0,-0.2945,-0.9360,-0.0754,0.7157,-0.6757,0.1730,0.0356
52,0.0,0.0,0.0,0.0,0.0,0.0,-0.2872,-0.9311,-0.0764,0.7153,-0.6759,0.1732,0.0376
53,0.0,0.0,0.0,0.0,0.0,0.0,-0.2847,-0.9316,-0.0729,0.7150,-0.6762,0.1732,0.0395
54,0.0,0.0,0.0,0.0,0.0,0.0,-0.2842,-0.9452,-0.0632,0.7150,-0.6761,0.1734,0.0407
55,0.0,0.0,0.0,0.0,0.0,0.0,-0.2818,-0.9462,-0.0685,0.7149,-0.6759,0.1744,0.0407
56,0.0,0.0,0.0,0.0,0.0,0.0,-0.2779,-0.9404,-0.0724,0.7148,-0.6758,0.1756,0.0404
57,0.0,0.0,0.0,0.0,0.0,0.0,-0.2593,-0.9351,-0.0899,0.7141,-0.6763,0.1764,0.0402
58,0.0,0.0,0.0,0.0,0.0,0.0,-0.1870,-0.9227,-0.0966,0.7129,-0.6783,0.1735,0.0400
59,0.0,0.0,0.0,0.0,0.0,0.0,-0.2524,-0.9861,-0.0524,0.7130,-0.6791,0.1705,0.0386
60,0.0,0.0,0.0,0.0,0.0,0.0,-0.3502,-0.9644,-0.0740,0.7123,-0.6796,0.1711,0.0382
61,0.0,0.0,0.0,0.0,0.0,0.0,-0.2886,-0.9661,-0.0724,0.7128,-0.6790,0.1721,0.0368
62,0.0,0.0,0.0,0.0,0.0,0.0,-0.2681,-0.9744,-0.0792,0.7125,-0.6791,0.1728,0.0356
63,0.0,0.0,0.0,0.0,0.0,0.0,-0.4138,-0.9511,-0.0795,0.7126,-0.6781,0.1766,0.0345
64,0.0,0.0,0.0,0.0,0.0,0.0,-0.3194,-0.9509,-0.0862,0.7121,-0.6784,0.1779,0.0342
65,0.0,0.0,0.0,0.0,0.0,0.0,-0.3082,-0.9616,-0.0676,0.7121,-0.6782,0.1781,0.0349
66,0.0,0.0,0.0,0.0,0.0,0.0,-0.2891,-0.9544,-0.0700,0.7123,-0.6781,0.1774,0.0363
67,0.0,0.0,0.0,0.0,0.0,0.0,-0.2808,-0.9525,-0.0676,0.7127,-0.6780,0.1761,0.0383
68,0.0,0.0,0.0,0.0,0.0,0.0,-0.2705,-0.9540,-0.0627,0.7131,-0.6779,0.1743,0.0404
69,0.0,0.0,0.0,0.0,0.0,0.0,-0.2603,-0.9511,-0.0626,0.7136,-0.6777,0.1725,0.0419
70,0.0,0.0,0.0,0.0,0.0,0.0,-0.2525,-0.9468,-0.0665,0.7140,-0.6776,0.1711,0.0426
71,0.0,0.0,0.0,0.0,0.0,0.0,-0.2447,-0.9391,-0.0704,0.7138,-0.6781,0.1698,0.0425
72,0.0,0.0,0.0,0.0,0.0,0.0,-0.2476,-0.9512,-0.0646,0.7138,-0.6785,0.1687,0.0418
73,0.0,0.0,0.0,0.0,0.0,0.0,-0.2647,-0.9628,-0.0583,0.7137,-0.6787,0.1683,0.0405
74,0.0,0.0,0.0,0.0,0.0,0.0,-0.2788,-0.9642,-0.0534,0.7138,-0.6787,0.1682,0.0396
75,0.0,0.0,0.0,0.0,0.0,0.0,-0.2783,-0.9681,-0.0539,0.7139,-0.6787,0.1682,0.0394
76,0.0,0.0,0.0,0.0,0.0,0.0,-0.2725,-0.9681,-0.0539,0.7140,-0.6785,0.1682,0.0396
77,0.0,0.0,0.0,0.0,0.0,0.0,-0.2739,-0.9695,-0.0549,0.7142,-0.6783,0.1677,0.0403
78,0.0,0.0,0.0,0.0,0.0,0.0,-0.2779,-0.9676,-0.0524,0.7145,-0.6781,0.1672,0.0415
79,0.0,0.0,0.0,0.0,0.0,0.0,-0.2798,-0.9647,-0.0500,0.7148,-0.6778,0.1668,0.0425
80,0.0,0.0,0.0,0.0,0.0,0.0,-0.2735,-0.9574,-0.0544,0.7153,-0.6773,0.1668,0.0432
81,0.0,0.0,0.0,0.0,0.0,0.0,-0.2681,-0.9496,-0.0539,0.7157,-0.6768,0.1667,0.0438
82,0.0,0.0,0.0,0.0,0.0,0.0,-0.2779,-0.9501,-0.0549,0.7160,-0.6763,0.1673,0.0437
83,0.0,0.0,0.0,0.0,0.0,0.0,-0.2803,-0.9472,-0.0539,0.7166,-0.6755,0.1681,0.0433
84,0.0,0.0,0.0,0.0,0.0,0.0,-0.2715,-0.9394,-0.0563,0.7169,-0.6751,0.1688,0.0429
85,0.0,0.0,0.0,0.0,0.0,0.0,-0.2705,-0.9438,-0.0563,0.7173,-0.6746,0.1689,0.0423
86,0.0,0.0,0.0,0.0,0.0,0.0,-0.2784,-0.9443,-0.0578,0.7174,-0.6746,0.1689,0.0422
87,0.0,0.0,0.0,0.0,0.0,0.0,-0.2798,-0.9428,-0.0568,0.7172,-0.6748,0.1687,0.0424
88,0.0,0.0,0.0,0.0,0.0,0.0,-0.2808,-0.9462,-0.0568,0.7169,-0.6752,0.1684,0.0428
89,0.0,0.0,0.0,0.0,0.0,0.0,-0.2808,-0.9549,-0.0544,0.7168,-0.6753,0.1684,0.0430
90,0.0,0.0,0.0,0.0,0.0,0.0,-0.2754,-0.9443,-0.0729,0.7161,-0.6760,0.1687,0.0431
91,0.0,0.0,0.0,0.0,0.0,0.0,-0.2085,-0.9193,-0.0860,0.7150,-0.6775,0.1669,0.0430
92,0.0,0.0,0.0,0.0,0.0,0.0,-0.1977,-0.9946,-0.0430,0.7153,-0.6782,0.1635,0.0410
93,0.0,0.0,0.0,0.0,0.0,0.0,-0.3453,-0.9678,-0.0701,0.7145,-0.6788,0.1645,0.0394
94,0.0,0.0,0.0,0.0,0.0,0.0,-0.3082,-0.9466,-0.0710,0.7142,-0.6787,0.1667,0.0382
95,0.0,0.0,0.0,0.0,0.0,0.0,-0.2554,-0.9847,-0.0719,0.7138,-0.6788,0.1682,0.0369
96,0.0,0.0,0.0,0.0,0.0,0.0,-0.2818,-0.9763,-0.0485,0.7137,-0.6788,0.1687,0.0364
97,0.0,0.0,0.0,0.0,0.0,0.0,-0.3155,-0.9587,-0.0701,0.7141,-0.6780,0.1702,0.0366
98,0.0,0.0,0.0,0.0,0.0,0.0,-0.2979,-0.9622,-0.0656,0.7139,-0.6780,0.1709,0.0383
99,0.0,0.0,0.0,0.0,0.0,0.0,-0.2759,-0.9554,-0.0549,0.7144,-0.6775,0.1702,0.0407
100,0.0,0.0,0.0,0.0,0.0,0.0,-0.2637,-0.9540,-0.0651,0.7150,-0.6770,0.1693,0.0427
101,0.0,0.0,0.0,0.0,0.0,0.0,-0.2393,-0.9366,-0.0685,0.7147,-0.6776,0.1675,0.0445
102,0.0,0.0,0.0,0.0,0.0,0.0,-0.2442,-0.9323,-0.0685,0.7145,-0.6781,0.1660,0.0449
103,0.0,0.0,0.0,0.0,0.0,0.0,-0.2622,-0.9497,-0.0636,0.7144,-0.6783,0.1657,0.0444
104,0.0,0.0,0.0,0.0,0.0,0.0,-0.2642,-0.9521,-0.0597,0.7142,-0.6786,0.1662,0.0427
105,0.0,0.0,0.0,0.0,0.0,0.0,-0.2720,-0.9530,-0.0593,0.7141,-0.6785,0.1674,0.0406
106,0.0,0.0,0.0,0.0,0.0,0.0,-0.2886,-0.9651,-0.0510,0.7143,-0.6780,0.1691,0.0390
107,0.0,0.0,0.0,0.0,0.0,0.0,-0.2906,-0.9632,-0.0569,0.7143,-0.6777,0.1704,0.0380
108,0.0,0.0,0.0,0.0,0.0,0.0,-0.2867,-0.9569,-0.0598,0.7141,-0.6779,0.1704,0.0383
109,0.0,0.0,0.0,0.0,0.0,0.0,-0.2779,-0.9545,-0.0554,0.7142,-0.6779,0.1696,0.0394
110,0.0,0.0,0.0,0.0,0.0,0.0,-0.2769,-0.9462,-0.0651,0.7140,-0.6783,0.1686,0.0408
111,0.0,0.0,0.0,0.0,0.0,0.0,-0.2779,-0.9457,-0.0617,0.7137,-0.6788,0.1679,0.0419
112,0.0,0.0,0.0,0.0,0.0,0.0,-0.2745,-0.9506,-0.0593,0.7135,-0.6789,0.1680,0.0420
113,0.0,0.0,0.0,0.0,0.0,0.0,-0.2744,-0.9530,-0.0578,0.7135,-0.6788,0.1688,0.0414
114,0.0,0.0,0.0,0.0,0.0,0.0,-0.2764,-0.9472,-0.0632,0.7136,-0.6784,0.1701,0.0401
115,0.0,0.0,0.0,0.0,0.0,0.0,-0.2784,-0.9511,-0.0641,0.7136,-0.6781,0.1714,0.0386
116,0.0,0.0,0.0,0.0,0.0,0.0,-0.2774,-0.9545,-0.0676,0.7137,-0.6780,0.1722,0.0376
117,0.0,0.0,0.0,0.0,0.0,0.0,-0.2847,-0.9486,-0.0729,0.7133,-0.6783,0.1724,0.0374
118,0.0,0.0,0.0,0.0,0.0,0.0,-0.2896,-0.9471,-0.0759,0.7128,-0.6789,0.1721,0.0379
119,0.0,0.0,0.0,0.0,0.0,0.0,-0.2867,-0.9501,-0.0705,0.7122,-0.6796,0.1712,0.0388
120,0.0,0.0,0.0,0.0,0.0,0.0,-0.2872,-0.9525,-0.0734,0.7119,-0.6800,0.1707,0.0396
121,0.0,0.0,0.0,0.0,0.0,0.0,-0.2921,-0.9593,-0.0729,0.7117,-0.6803,0.1708,0.0400
122,0.0,0.0,0.0,0.0,0.0,0.0,-0.2857,-0.9661,-0.0724,0.7118,-0.6800,0.1712,0.0401
123,0.0,0.0,0.0,0.0,0.0,0.0,-0.2427,-0.9361,-0.0953,0.7112,-0.6806,0.1711,0.0402
124,0.0,0.0,0.0,0.0,0.0,0.0,-0.1533,-0.9136,-0.1088,0.7101,-0.6829,0.1670,0.0392
125,0.0,0.0,0.0,0.0,0.0,0.0,-0.2847,-1.0142,-0.0442,0.7111,-0.6823,0.1653,0.0372
126,0.0,0.0,0.0,0.0,0.0,0.0,-0.3419,-0.9533,-0.0911,0.7096,-0.6836,0.1669,0.0366
127,0.0,0.0,0.0,0.0,0.0,0.0,-0.2461,-0.9497,-0.0855,0.7103,-0.6827,0.1675,0.0357
128,0.0,0.0,0.0,0.0,0.0,0.0,-0.2442,-0.9721,-0.0909,0.7093,-0.6838,0.1675,0.0350
129,0.0,0.0,0.0,0.0,0.0,0.0,-0.2896,-0.9559,-0.0715,0.7092,-0.6838,0.1678,0.0346
130,0.0,0.0,0.0,0.0,0.0,0.0,-0.3028,-0.9714,-0.0827,0.7092,-0.6835,0.1693,0.0348
131,0.0,0.0,0.0,0.0,0.0,0.0,-0.2539,-0.9730,-0.0758,0.7091,-0.6837,0.1689,0.0358
132,0.0,0.0,0.0,0.0,0.0,0.0,-0.2251,-0.9416,-0.0894,0.7089,-0.6842,0.1673,0.0367
133,0.0,0.0,0.0,0.0,0.0,0.0,-0.2506,-0.9385,-0.1070,0.7084,-0.6849,0.1666,0.0371
134,0.0,0.0,0.0,0.0,0.0,0.0,-0.2613,-0.9526,-0.0885,0.7076,-0.6859,0.1657,0.0376
135,0.0,0.0,0.0,0.0,0.0,0.0,-0.2466,-0.9522,-0.0982,0.7068,-0.6868,0.1653,0.0369
136,0.0,0.0,0.0,0.0,0.0,0.0,-0.2540,-0.9424,-0.1041,0.7058,-0.6878,0.1661,0.0353
137,0.0,0.0,0.0,0.0,0.0,0.0,-0.2813,-0.9603,-0.0880,0.7050,-0.6884,0.1673,0.0338
138,0.0,0.0,0.0,0.0,0.0,0.0,-0.2916,-0.9734,-0.0837,0.7045,-0.6884,0.1694,0.0323
139,0.0,0.0,0.0,0.0,0.0,0.0,-0.2862,-0.9554,-0.0919,0.7039,-0.6886,0.1713,0.0316
140,0.0,0.0,0.0,0.0,0.0,0.0,-0.2760,-0.9511,-0.0919,0.7031,-0.6893,0.1713,0.0327
141,0.0,0.0,0.0,0.0,0.0,0.0,-0.2686,-0.9560,-0.0890,0.7021,-0.6906,0.1700,0.0345
142,0.0,0.0,0.0,0.0,0.0,0.0,-0.2642,-0.9497,-0.0895,0.7011,-0.6921,0.1679,0.0368
143,0.0,0.0,0.0,0.0,0.0,0.0,-0.2633,-0.9336,-0.0973,0.6996,-0.6939,0.1660,0.0387
144,0.0,0.0,0.0,0.0,0.0,0.0,-0.2579,-0.9308,-0.1055,0.6974,-0.6963,0.1649,0.0394
145,0.0,0.0,0.0,0.0,0.0,0.0,-0.2550,-0.9371,-0.1070,0.6946,-0.6991,0.1649,0.0389
146,0.0,0.0,0.0,0.0,0.0,0.0,-0.2628,-0.9336,-0.1075,0.6916,-0.7020,0.1659,0.0375
147,0.0,0.0,0.0,0.0,0.0,0.0,-0.2486,-0.9507,-0.0997,0.6891,-0.7043,0.1667,0.0357
148,0.0,0.0,0.0,0.0,0.0,0.0,-0.2540,-0.9453,-0.1187,0.6866,-0.7067,0.1674,0.0339
149,0.0,0.0,0.0,0.0,0.0,0.0,-0.2652,-0.9390,-0.1207,0.6841,-0.7091,0.1675,0.0330
150,0.0,0.0,0.0,0.0,0.0,0.0,-0.2603,-0.9613,-0.1250,0.6823,-0.7111,0.1665,0.0331
151,0.0,0.0,0.0,0.0,0.0,0.0,-0.2491,-0.9653,-0.1279,0.6807,-0.7130,0.1649,0.0339
152,0.0,0.0,0.0,0.0,0.0,0.0,-0.2608,-0.9541,-0.1358,0.6794,-0.7144,0.1639,0.0346
153,0.0,0.0,0.0,0.0,0.0,0.0,-0.2667,-0.9608,-0.1397,0.6778,-0.7161,0.1628,0.0355
154,0.0,0.0,0.0,0.0,0.0,0.0,-0.2838,-0.9797,-0.1290,0.6761,-0.7177,0.1626,0.0359
155,0.0,0.0,0.0,0.0,0.0,0.0,-0.3126,-0.9913,-0.1183,0.6753,-0.7182,0.1639,0.0367
156,0.0,0.0,0.0,0.0,0.0,0.0,-0.3019,-0.9719,-0.1349,0.6746,-0.7183,0.1659,0.0381
157,0.0,0.0,0.0,0.0,0.0,0.0,-0.2745,-0.9613,-0.1489,0.6738,-0.7185,0.1681,0.0395
158,0.0,0.0,0.0,0.0,0.0,0.0,-0.2843,-0.9700,-0.1485,0.6729,-0.7190,0.1684,0.0420
159,0.0,0.0,0.0,0.0,0.0,0.0,-0.3043,-0.9796,-0.1383,0.6715,-0.7201,0.1684,0.0462
160,0.0,0.0,0.0,0.0,0.0,0.0,-0.2530,-0.9570,-0.1406,0.6715,-0.7199,0.1680,0.0507
161,0.0,0.0,0.0,0.0,0.0,0.0,-0.2067,-0.9305,-0.1976,0.6710,-0.7204,0.1664,0.0550
162,0.0,0.0,0.0,0.0,0.0,0.0,-0.2638,-0.9511,-0.1777,0.6707,-0.7206,0.1653,0.0589
163,0.0,0.0,0.0,0.0,0.0,0.0,-0.2751,-0.9550,-0.1762,0.6708,-0.7204,0.1654,0.0616
164,0.0,0.0,0.0,0.0,0.0,0.0,-0.2340,-0.9425,-0.1835,0.6714,-0.7195,0.1662,0.0620
165,0.0,0.0,0.0,0.0,0.0,0.0,-0.2301,-0.9527,-0.1898,0.6727,-0.7182,0.1677,0.0602
166,0.0,0.0,0.0,0.0,0.0,0.0,-0.2565,-0.9468,-0.1938,0.6739,-0.7168,0.1695,0.0571
167,0.0,0.0,0.0,0.0,0.0,0.0,-0.2795,-0.9482,-0.1948,0.6750,-0.7156,0.1713,0.0543
168,0.0,0.0,0.0,0.0,0.0,0.0,-0.2541,-0.9279,-0.1991,0.6758,-0.7149,0.1714,0.0529
169,0.0,0.0,0.0,0.0,0.0,0.0,-0.2356,-0.8876,-0.2157,0.6752,-0.7160,0.1688,0.0544
170,0.0,0.0,0.0,0.0,0.0,0.0,-0.2380,-0.8998,-0.1913,0.6746,-0.7173,0.1650,0.0565
171,0.0,0.0,0.0,0.0,0.0,0.0,-0.2418,-0.9230,-0.1640,0.6747,-0.7179,0.1618,0.0570
172,0.0,0.0,0.0,0.0,0.0,0.0,-0.2316,-0.8872,-0.1908,0.6738,-0.7193,0.1597,0.0554
173,0.0,0.0,0.0,0.0,0.0,0.0,-0.2189,-0.8789,-0.1952,0.6730,-0.7208,0.1576,0.0521
174,0.0,0.0,0.0,0.0,0.0,0.0,-0.2282,-0.9216,-0.1708,0.6728,-0.7217,0.1554,0.0481
175,0.0,0.0,0.0,0.0,0.0,0.0,-0.2374,-0.9347,-0.1723,0.6727,-0.7226,0.1528,0.0446
176,0.0,0.0,0.0,0.0,0.0,0.0,-0.2291,-0.9323,-0.1698,0.6724,-0.7238,0.1488,0.0422
177,0.0,0.0,0.0,0.0,0.0,0.0,-0.2345,-0.9430,-0.1742,0.6721,-0.7251,0.1444,0.0407
178,0.0,0.0,0.0,0.0,0.0,0.0,-0.2237,-0.9493,-0.1752,0.6716,-0.7264,0.1405,0.0388
179,0.0,0.0,0.0,0.0,0.0,0.0,-0.2193,-0.9498,-0.1586,0.6719,-0.7270,0.1368,0.0357
180,0.0,0.0,0.0,0.0,0.0,0.0,-0.2271,-0.9668,-0.1727,0.6729,-0.7268,0.1342,0.0310
181,0.0,0.0,0.0,0.0,0.0,0.0,-0.2242,-0.9552,-0.2025,0.6718,-0.7282,0.1331,0.0258
182,0.0,0.0,0.0,0.0,0.0,0.0,-0.2066,-0.9625,-0.1630,0.6713,-0.7291,0.1319,0.0204
183,0.0,0.0,0.0,0.0,0.0,0.0,-0.1832,-0.9592,-0.1956,0.6708,-0.7299,0.1307,0.0151
184,0.0,0.0,0.0,0.0,0.0,0.0,-0.1754,-0.9330,-0.2141,0.6688,-0.7320,0.1297,0.0101
185,0.0,0.0,0.0,0.0,0.0,0.0,-0.1754,-0.9408,-0.1853,0.6668,-0.7341,0.1283,0.0058
186,0.0,0.0,0.0,0.0,0.0,0.0,-0.1382,-0.9511,-0.1965,0.6653,-0.7360,0.1252,0.0017
187,0.0,0.0,0.0,0.0,0.0,0.0,-0.1236,-0.9342,-0.2237,0.6629,-0.7388,0.1215,-0.0023
188,0.0,0.0,0.0,0.0,0.0,0.0,-0.1084,-0.9624,-0.1998,0.6617,-0.7405,0.1176,-0.0064
189,0.0,0.0,0.0,0.0,0.0,0.0,-0.1025,-1.0177,-0.1584,0.6632,-0.7398,0.1131,-0.0110
190,0.0,0.0,0.0,0.0,0.0,0.0,-0.1469,-1.0419,-0.1438,0.6671,-0.7366,0.1100,-0.0154
191,0.0,0.0,0.0,0.0,0.0,0.0,-0.1538,-1.0341,-0.1516,0.6720,-0.7322,0.1088,-0.0196
192,0.0,0.0,0.0,0.0,0.0,0.0,-0.1177,-0.9769,-0.2066,0.6741,-0.7302,0.1085,-0.0239
193,0.0,0.0,0.0,0.0,0.0,0.0,-0.0840,-0.9527,-0.2085,0.6749,-0.7293,0.1086,-0.0277
194,0.0,0.0,0.0,0.0,0.0,0.0,-0.0869,-1.0134,-0.1954,0.6761,-0.7282,0.1080,-0.0311
195,0.0,0.0,0.0,0.0,0.0,0.0,-0.1763,-1.0350,-0.1721,0.6765,-0.7277,0.1085,-0.0318
196,0.0,0.0,0.0,0.0,0.0,0.0,-0.1411,-1.0162,-0.1906,0.6765,-0.7275,0.1100,-0.0324
197,0.0,0.0,0.0,0.0,0.0,0.0,-0.0864,-0.9892,-0.1998,0.6754,-0.7283,0.1110,-0.0318
198,0.0,0.0,0.0,0.0,0.0,0.0,-0.0317,-0.9466,-0.1816,0.6751,-0.7287,0.1104,-0.0309
199,0.0,0.0,0.0,0.0,0.0,0.0,-0.0009,-0.9793,-0.1879,0.6760,-0.7282,0.1084,-0.0311
200,0.0,0.0,0.0,0.0,0.0,0.0,-0.1039,-1.0192,-0.1559,0.6765,-0.7278,0.1082,-0.0312
201,0.0,0.0,0.0,0.0,0.0,0.0,-0.1011,-0.9755,-0.1930,0.6765,-0.7276,0.1095,-0.0318
202,0.0,0.0,0.0,0.0,0.0,0.0,-0.0957,-0.9454,-0.2193,0.6745,-0.7292,0.1107,-0.0320
203,0.0,0.0,0.0,0.0,0.0,0.0,-0.1050,-0.9668,-0.2212,0.6698,-0.7333,0.1123,-0.0321
204,0.0,0.0,0.0,0.0,0.0,0.0,-0.0626,-0.9358,-0.2787,0.6601,-0.7422,0.1115,-0.0310
205,0.0,0.0,0.0,0.0,0.0,0.0,-0.0444,-0.9558,-0.2304,0.6497,-0.7524,0.1049,-0.0282
206,0.0,0.0,0.0,0.0,0.0,0.0,-0.1161,-1.0405,-0.1564,0.6440,-0.7583,0.0986,-0.0238
207,0.0,0.0,0.0,0.0,0.0,0.0,-0.1161,-1.0886,-0.1857,0.6425,-0.7600,0.0966,-0.0189
208,0.0,0.0,0.0,0.0,0.0,0.0,-0.1451,-1.0336,-0.2545,0.6395,-0.7624,0.0984,-0.0133
209,0.0,0.0,0.0,0.0,0.0,0.0,-0.1089,-0.9726,-0.2539,0.6377,-0.7636,0.1010,-0.0058
210,0.0,0.0,0.0,0.0,0.0,0.0,-0.0610,-0.9815,-0.2665,0.6376,-0.7634,0.1038,0.0016
211,0.0,0.0,0.0,0.0,0.0,0.0,-0.0591,-0.9776,-0.2460,0.6387,-0.7620,0.1066,0.0073
212,0.0,0.0,0.0,0.0,0.0,0.0,-0.0688,-0.9800,-0.2222,0.6430,-0.7581,0.1077,0.0128
213,0.0,0.0,0.0,0.0,0.0,0.0,-0.0996,-1.0095,-0.1944,0.6508,-0.7511,0.1100,0.0173
214,0.0,0.0,0.0,0.0,0.0,0.0,-0.1435,-1.0064,-0.1706,0.6611,-0.7413,0.1136,0.0206
215,0.0,0.0,0.0,0.0,0.0,0.0,-0.0966,-1.0056,-0.1720,0.6738,-0.7296,0.1148,0.0229
216,0.0,0.0,0.0,0.0,0.0,0.0,-0.0532,-0.9033,-0.2295,0.6823,-0.7219,0.1126,0.0241
217,0.0,0.0,0.0,0.0,0.0,0.0,-0.1154,-0.8473,-0.2530,0.6869,-0.7176,0.1122,0.0240
218,0.0,0.0,0.0,0.0,0.0,0.0,-0.1764,-0.9281,-0.2038,0.6896,-0.7148,0.1140,0.0230
219,0.0,0.0,0.0,0.0,0.0,0.0,-0.2144,-1.0086,-0.1201,0.6921,-0.7121,0.1158,0.0217
220,0.0,0.0,0.0,0.0,0.0,0.0,-0.1968,-0.9873,-0.1405,0.6942,-0.7099,0.1174,0.0204
221,0.0,0.0,0.0,0.0,0.0,0.0,-0.1304,-0.9171,-0.1711,0.6936,-0.7105,0.1171,0.0193
222,0.0,0.0,0.0,0.0,0.0,0.0,-0.0742,-0.9125,-0.1739,0.6924,-0.7122,0.1142,0.0185
223,0.0,0.0,0.0,0.0,0.0,0.0,-0.1445,-0.9618,-0.1385,0.6909,-0.7141,0.1119,0.0166
224,0.0,0.0,0.0,0.0,0.0,0.0,-0.2515,-1.0187,-0.0889,0.6906,-0.7143,0.1124,0.0142
225,0.0,0.0,0.0,0.0,0.0,0.0,-0.2246,-1.0479,-0.1030,0.6928,-0.7120,0.1139,0.0116
226,0.0,0.0,0.0,0.0,0.0,0.0,-0.2046,-0.9912,-0.1230,0.6944,-0.7099,0.1173,0.0100
227,0.0,0.0,0.0,0.0,0.0,0.0,-0.1802,-0.9534,-0.1298,0.6970,-0.7067,0.1213,0.0085
228,0.0,0.0,0.0,0.0,0.0,0.0,-0.1724,-0.9602,-0.1361,0.6983,-0.7049,0.1242,0.0075
229,0.0,0.0,0.0,0.0,0.0,0.0,-0.1865,-0.9529,-0.1098,0.6989,-0.7039,0.1264,0.0065
230,0.0,0.0,0.0,0.0,0.0,0.0,-0.1861,-0.9213,-0.1503,0.6981,-0.7045,0.1279,0.0066
231,0.0,0.0,0.0,0.0,0.0,0.0,-0.1934,-0.9266,-0.1239,0.6966,-0.7057,0.1288,0.0071
232,0.0,0.0,0.0,0.0,0.0,0.0,-0.1836,-0.9383,-0.1186,0.6957,-0.7066,0.1290,0.0067
233,0.0,0.0,0.0,0.0,0.0,0.0,-0.2144,-0.9304,-0.1254,0.6941,-0.7079,0.1309,0.0062
234,0.0,0.0,0.0,0.0,0.0,0.0,-0.2071,-0.9305,-0.1332,0.6924,-0.7090,0.1340,0.0046
235,0.0,0.0,0.0,0.0,0.0,0.0,-0.1587,-0.9102,-0.1614,0.6888,-0.7120,0.1367,0.0026
236,0.0,0.0,0.0,0.0,0.0,0.0,-0.1660,-0.9369,-0.1453,0.6855,-0.7146,0.1391,-0.0000
237,0.0,0.0,0.0,0.0,0.0,0.0,-0.1592,-0.9403,-0.1741,0.6810,-0.7187,0.1404,-0.0027
238,0.0,0.0,0.0,0.0,0.0,0.0,-0.1353,-0.9263,-0.1765,0.6744,-0.7252,0.1391,-0.0057
239,0.0,0.0,0.0,0.0,0.0,0.0,-0.1573,-0.9549,-0.1721,0.6676,-0.7318,0.1368,-0.0089
240,0.0,0.0,0.0,0.0,0.0,0.0,-0.1895,-0.9592,-0.1897,0.6614,-0.7376,0.1353,-0.0117
241,0.0,0.0,0.0,0.0,0.0,0.0,-0.1578,-0.9433,-0.1858,0.6559,-0.7430,0.1324,-0.0141
242,0.0,0.0,0.0,0.0,0.0,0.0,-0.1567,-1.0074,-0.1589,0.6542,-0.7447,0.1310,-0.0174
243,0.0,0.0,0.0,0.0,0.0,0.0,-0.1539,-0.9719,-0.2355,0.6509,-0.7475,0.1311,-0.0214
244,0.0,0.0,0.0,0.0,0.0,0.0,-0.1334,-0.9366,-0.2418,0.6469,-0.7508,0.1311,-0.0242
245,0.0,0.0,0.0,0.0,0.0,0.0,-0.0898,-0.9993,-0.2012,0.6462,-0.7516,0.1292,-0.0272
246,0.0,0.0,0.0,0.0,0.0,0.0,-0.1133,-0.9711,-0.2495,0.6447,-0.7532,0.1274,-0.0297
247,0.0,0.0,0.0,0.0,0.0,0.0,-0.1025,-0.9833,-0.2203,0.6453,-0.7530,0.1246,-0.0317
248,0.0,0.0,0.0,0.0,0.0,0.0,-0.1064,-1.0333,-0.2164,0.6481,-0.7509,0.1222,-0.0339
249,0.0,0.0,0.0,0.0,0.0,0.0,-0.0805,-1.0047,-0.2158,0.6519,-0.7479,0.1198,-0.0363
250,0.0,0.0,0.0,0.0,0.0,0.0,-0.0928,-0.9940,-0.2276,0.6576,-0.7432,0.1175,-0.0376
251,0.0,0.0,0.0,0.0,0.0,0.0,-0.1411,-1.0176,-0.2213,0.6628,-0.7386,0.1169,-0.0386
252,0.0,0.0,0.0,0.0,0.0,0.0,-0.1182,-1.0153,-0.2154,0.6680,-0.7339,0.1170,-0.0399
253,0.0,0.0,0.0,0.0,0.0,0.0,-0.0937,-0.9988,-0.2232,0.6717,-0.7305,0.1164,-0.0409
254,0.0,0.0,0.0,0.0,0.0,0.0,-0.0942,-0.9911,-0.1861,0.6747,-0.7278,0.1156,-0.0409
255,0.0,0.0,0.0,0.0,0.0,0.0,-0.0741,-1.0169,-0.1666,0.6792,-0.7240,0.1139,-0.0401
256,0.0,0.0,0.0,0.0,0.0,0.0,-0.0654,-0.9810,-0.1871,0.6826,-0.7213,0.1114,-0.0378
257,0.0,0.0,0.0,0.0,0.0,0.0,-0.0986,-0.9915,-0.1491,0.6867,-0.7177,0.1098,-0.0346
258,0.0,0.0,0.0,0.0,0.0,0.0,-0.0727,-1.0081,-0.1564,0.6906,-0.7144,0.1084,-0.0317
259,0.0,0.0,0.0,0.0,0.0,0.0,-0.0644,-0.9732,-0.1481,0.6931,-0.7122,0.1069,-0.0289
260,0.0,0.0,0.0,0.0,0.0,0.0,-0.0737,-0.9639,-0.1583,0.6955,-0.7101,0.1060,-0.0273
261,0.0,0.0,0.0,0.0,0.0,0.0,-0.0780,-0.9751,-0.1442,0.6975,-0.7083,0.1056,-0.0259
262,0.0,0.0,0.0,0.0,0.0,0.0,-0.0819,-0.9829,-0.1213,0.7000,-0.7059,0.1057,-0.0254
263,0.0,0.0,0.0,0.0,0.0,0.0,-0.1000,-1.0129,-0.1062,0.7030,-0.7027,0.1066,-0.0250
264,0.0,0.0,0.0,0.0,0.0,0.0,-0.0971,-0.9799,-0.1086,0.7051,-0.7004,0.1081,-0.0247
265,0.0,0.0,0.0,0.0,0.0,0.0,-0.0619,-0.9470,-0.1261,0.7068,-0.6987,0.1080,-0.0246
266,0.0,0.0,0.0,0.0,0.0,0.0,-0.0707,-0.9557,-0.1315,0.7071,-0.6986,0.1070,-0.0233
267,0.0,0.0,0.0,0.0,0.0,0.0,-0.0990,-0.9619,-0.1101,0.7069,-0.6990,0.1059,-0.0216
268,0.0,0.0,0.0,0.0,0.0,0.0,-0.1293,-0.9875,-0.0951,0.7067,-0.6993,0.1060,-0.0198
269,0.0,0.0,0.0,0.0,0.0,0.0,-0.1063,-1.0027,-0.0857,0.7071,-0.6989,0.1059,-0.0190
270,0.0,0.0,0.0,0.0,0.0,0.0,-0.0712,-0.9640,-0.1086,0.7070,-0.6991,0.1052,-0.0188
271,0.0,0.0,0.0,0.0,0.0,0.0,-0.0844,-0.9707,-0.1076,0.7072,-0.6988,0.1054,-0.0198
272,0.0,0.0,0.0,0.0,0.0,0.0,-0.1176,-0.9716,-0.1184,0.7068,-0.6990,0.1073,-0.0208
273,0.0,0.0,0.0,0.0,0.0,0.0,-0.1113,-0.9624,-0.1194,0.7057,-0.6997,0.1095,-0.0215
274,0.0,0.0,0.0,0.0,0.0,0.0,-0.0882,-1.0081,-0.0721,0.7056,-0.6997,0.1097,-0.0218
275,0.0,0.0,0.0,0.0,0.0,0.0,-0.1082,-1.0289,-0.0828,0.7061,-0.6993,0.1096,-0.0225
276,0.0,0.0,0.0,0.0,0.0,0.0,-0.1381,-0.9710,-0.1214,0.7051,-0.7002,0.1102,-0.0222
277,0.0,0.0,0.0,0.0,0.0,0.0,-0.1313,-0.9802,-0.1116,0.7038,-0.7014,0.1113,-0.0212
278,0.0,0.0,0.0,0.0,0.0,0.0,-0.1181,-0.9920,-0.1218,0.7017,-0.7032,0.1128,-0.0202
279,0.0,0.0,0.0,0.0,0.0,0.0,-0.1313,-0.9807,-0.1199,0.6997,-0.7048,0.1155,-0.0185
280,0.0,0.0,0.0,0.0,0.0,0.0,-0.1273,-1.0016,-0.0819,0.6994,-0.7048,0.1172,-0.0172
281,0.0,0.0,0.0,0.0,0.0,0.0,-0.1200,-1.0162,-0.0950,0.6996,-0.7046,0.1179,-0.0169
282,0.0,0.0,0.0,0.0,0.0,0.0,-0.1141,-0.9973,-0.1009,0.7003,-0.7037,0.1188,-0.0170
283,0.0,0.0,0.0,0.0,0.0,0.0,-0.1421,-0.9724,-0.1331,0.7002,-0.7034,0.1208,-0.0177
284,0.0,0.0,0.0,0.0,0.0,0.0,-0.1459,-0.9928,-0.1234,0.6997,-0.7037,0.1226,-0.0178
285,0.0,0.0,0.0,0.0,0.0,0.0,-0.1274,-0.9604,-0.1511,0.6978,-0.7054,0.1234,-0.0171
286,0.0,0.0,0.0,0.0,0.0,0.0,-0.1201,-0.9682,-0.1170,0.6973,-0.7060,0.1228,-0.0159
287,0.0,0.0,0.0,0.0,0.0,0.0,-0.1675,-0.9898,-0.1292,0.6967,-0.7066,0.1228,-0.0148
288,0.0,0.0,0.0,0.0,0.0,0.0,-0.2124,-0.9712,-0.1352,0.6947,-0.7084,0.1240,-0.0129
289,0.0,0.0,0.0,0.0,0.0,0.0,-0.2222,-0.9785,-0.1435,0.6916,-0.7110,0.1268,-0.0105
290,0.0,0.0,0.0,0.0,0.0,0.0,-0.1709,-0.9675,-0.1702,0.6847,-0.7171,0.1300,-0.0080
291,0.0,0.0,0.0,0.0,0.0,0.0,-0.1753,-0.9548,-0.1653,0.6779,-0.7227,0.1343,-0.0052
292,0.0,0.0,0.0,0.0,0.0,0.0,-0.2188,-0.9901,-0.1454,0.6751,-0.7242,0.1404,-0.0010
293,0.0,0.0,0.0,0.0,0.0,0.0,-0.2422,-1.0493,-0.1167,0.6753,-0.7230,0.1457,0.0040
294,0.0,0.0,0.0,0.0,0.0,0.0,-0.2456,-1.0425,-0.0865,0.6784,-0.7192,0.1496,0.0094
295,0.0,0.0,0.0,0.0,0.0,0.0,-0.1842,-0.9276,-0.2238,0.6790,-0.7180,0.1524,0.0151
296,0.0,0.0,0.0,0.0,0.0,0.0,-0.1778,-0.9388,-0.1629,0.6779,-0.7186,0.1536,0.0228
297,0.0,0.0,0.0,0.0,0.0,0.0,-0.1713,-0.9922,-0.0937,0.6818,-0.7150,0.1520,0.0291
298,0.0,0.0,0.0,0.0,0.0,0.0,-0.1773,-0.9748,-0.1917,0.6826,-0.7143,0.1506,0.0340
299,0.0,0.0,0.0,0.0,0.0,0.0,-0.2149,-0.9586,-0.1420,0.6829,-0.7140,0.1499,0.0389
300,0.0,0.0,0.0,0.0,0.0,0.0,-0.2256,-1.0047,-0.1074,0.6868,-0.7099,0.1507,0.0409
301,0.0,0.0,0.0,0.0,0.0,0.0,-0.2115,-0.9630,-0.1347,0.6901,-0.7062,0.1532,0.0404
302,0.0,0.0,0.0,0.0,0.0,0.0,-0.2217,-0.9508,-0.1308,0.6936,-0.7018,0.1575,0.0384
303,0.0,0.0,0.0,0.0,0.0,0.0,-0.2378,-0.9770,-0.1304,0.6966,-0.6982,0.1609,0.0374
304,0.0,0.0,0.0,0.0,0.0,0.0,-0.2574,-0.9434,-0.1250,0.6984,-0.6959,0.1630,0.0385
305,0.0,0.0,0.0,0.0,0.0,0.0,-0.2457,-0.9230,-0.1318,0.6993,-0.6947,0.1633,0.0418
306,0.0,0.0,0.0,0.0,0.0,0.0,-0.2373,-0.9527,-0.0977,0.7010,-0.6932,0.1616,0.0455
307,0.0,0.0,0.0,0.0,0.0,0.0,-0.2599,-0.9327,-0.1085,0.7023,-0.6919,0.1607,0.0476
308,0.0,0.0,0.0,0.0,0.0,0.0,-0.2281,-0.9051,-0.1226,0.7036,-0.6907,0.1603,0.0471
309,0.0,0.0,0.0,0.0,0.0,0.0,-0.2178,-0.9076,-0.0996,0.7050,-0.6896,0.1596,0.0446
310,0.0,0.0,0.0,0.0,0.0,0.0,-0.2574,-0.9356,-0.0778,0.7081,-0.6866,0.1597,0.0411
311,0.0,0.0,0.0,0.0,0.0,0.0,-0.3058,-0.9291,-0.1037,0.7086,-0.6860,0.1601,0.0395
312,0.0,0.0,0.0,0.0,0.0,0.0,-0.2901,-0.9170,-0.0807,0.7085,-0.6865,0.1587,0.0401
313,0.0,0.0,0.0,0.0,0.0,0.0,-0.2584,-0.9264,-0.0773,0.7082,-0.6873,0.1560,0.0418
314,0.0,0.0,0.0,0.0,0.0,0.0,-0.2403,-0.9114,-0.1206,0.7055,-0.6906,0.1528,0.0443
315,0.0,0.0,0.0,0.0,0.0,0.0,-0.2535,-0.9385,-0.0924,0.7023,-0.6947,0.1490,0.0449
316,0.0,0.0,0.0,0.0,0.0,0.0,-0.3121,-0.9558,-0.0652,0.6999,-0.6974,0.1481,0.0429
317,0.0,0.0,0.0,0.0,0.0,0.0,-0.3091,-0.9835,-0.0354,0.7004,-0.6966,0.1511,0.0374
318,0.0,0.0,0.0,0.0,0.0,0.0,-0.2734,-1.0069,-0.0480,0.7040,-0.6926,0.1539,0.0314
319,0.0,0.0,0.0,0.0,0.0,0.0,-0.2813,-0.9651,-0.0768,0.7087,-0.6877,0.1553,0.0278
320,0.0,0.0,0.0,0.0,0.0,0.0,-0.2921,-0.9690,-0.0768,0.7136,-0.6824,0.1561,0.0268
321,0.0,0.0,0.0,0.0,0.0,0.0,-0.2940,-0.9772,-0.0544,0.7175,-0.6783,0.1562,0.0265
322,0.0,0.0,0.0,0.0,0.0,0.0,-0.2354,-0.9119,-0.0772,0.7207,-0.6749,0.1561,0.0264
323,0.0,0.0,0.0,0.0,0.0,0.0,-0.2025,-1.0538,-0.0762,0.7238,-0.6719,0.1552,0.0253
324,0.0,0.0,0.0,0.0,0.0,0.0,-0.2324,-0.9507,-0.0709,0.7252,-0.6704,0.1558,0.0222
325,0.0,0.0,0.0,0.0,0.0,0.0,-0.2389,-0.8954,-0.1118,0.7224,-0.6729,0.1583,0.0189
326,0.0,0.0,0.0,0.0,0.0,0.0,-0.2335,-0.9036,-0.0948,0.7173,-0.6776,0.1615,0.0164
327,0.0,0.0,0.0,0.0,0.0,0.0,-0.2314,-0.9498,-0.0655,0.7118,-0.6830,0.1631,0.0156
328,0.0,0.0,0.0,0.0,0.0,0.0,-0.2203,-0.9323,-0.1240,0.7038,-0.6914,0.1623,0.0162
329,0.0,0.0,0.0,0.0,0.0,0.0,-0.2408,-0.9294,-0.0982,0.6950,-0.7006,0.1603,0.0186
330,0.0,0.0,0.0,0.0,0.0,0.0,-0.2407,-1.0129,-0.0558,0.6918,-0.7042,0.1582,0.0190
331,0.0,0.0,0.0,0.0,0.0,0.0,-0.2349,-0.9877,-0.1342,0.6879,-0.7084,0.1567,0.0185
332,0.0,0.0,0.0,0.0,0.0,0.0,-0.2051,-0.9465,-0.1191,0.6853,-0.7113,0.1551,0.0178
333,0.0,0.0,0.0,0.0,0.0,0.0,-0.1811,-1.0141,-0.0854,0.6880,-0.7091,0.1538,0.0168
334,0.0,0.0,0.0,0.0,0.0,0.0,-0.2065,-1.0431,-0.0849,0.6947,-0.7027,0.1527,0.0162
335,0.0,0.0,0.0,0.0,0.0,0.0,-0.2593,-0.9822,-0.1309,0.6997,-0.6979,0.1521,0.0157
336,0.0,0.0,0.0,0.0,0.0,0.0,-0.2242,-0.9406,-0.1357,0.7031,-0.6945,0.1520,0.0152
337,0.0,0.0,0.0,0.0,0.0,0.0,-0.1719,-0.9801,-0.1371,0.7060,-0.6916,0.1514,0.0152
338,0.0,0.0,0.0,0.0,0.0,0.0,-0.2251,-1.0168,-0.0855,0.7077,-0.6898,0.1516,0.0152
339,0.0,0.0,0.0,0.0,0.0,0.0,-0.2598,-0.9424,-0.0938,0.7091,-0.6881,0.1532,0.0148
340,0.0,0.0,0.0,0.0,0.0,0.0,-0.2384,-0.9260,-0.1406,0.7084,-0.6883,0.1559,0.0135
341,0.0,0.0,0.0,0.0,0.0,0.0,-0.1338,-0.9414,-0.1170,0.7058,-0.6909,0.1561,0.0134
342,0.0,0.0,0.0,0.0,0.0,0.0,-0.0751,-0.9411,-0.0964,0.7043,-0.6932,0.1523,0.0123
343,0.0,0.0,0.0,0.0,0.0,0.0,-0.2574,-0.9555,-0.1104,0.7021,-0.6957,0.1513,0.0115
344,0.0,0.0,0.0,0.0,0.0,0.0,-0.2891,-0.9661,-0.0993,0.7008,-0.6968,0.1526,0.0102
345,0.0,0.0,0.0,0.0,0.0,0.0,-0.1572,-0.9622,-0.1219,0.6995,-0.6982,0.1523,0.0076
346,0.0,0.0,0.0,0.0,0.0,0.0,-0.1450,-0.9268,-0.1302,0.6978,-0.7003,0.1506,0.0056
347,0.0,0.0,0.0,0.0,0.0,0.0,-0.1954,-0.9276,-0.1356,0.6957,-0.7027,0.1488,0.0036
348,0.0,0.0,0.0,0.0,0.0,0.0,-0.2379,-0.9527,-0.1781,0.6910,-0.7076,0.1476,0.0007
349,0.0,0.0,0.0,0.0,0.0,0.0,-0.1979,-0.9106,-0.2273,0.6801,-0.7186,0.1451,-0.0018
350,0.0,0.0,0.0,0.0,0.0,0.0,-0.1143,-0.8992,-0.2232,0.6665,-0.7325,0.1384,-0.0037
351,0.0,0.0,0.0,0.0,0.0,0.0,-0.1504,-0.9952,-0.1794,0.6557,-0.7439,0.1287,-0.0049
352,0.0,0.0,0.0,0.0,0.0,0.0,-0.2511,-1.0206,-0.2093,0.6455,-0.7534,0.1253,-0.0046
353,0.0,0.0,0.0,0.0,0.0,0.0,-0.1964,-0.9635,-0.2356,0.6364,-0.7611,0.1251,-0.0036
354,0.0,0.0,0.0,0.0,0.0,0.0,-0.1264,-1.0487,-0.1652,0.6337,-0.7635,0.1247,-0.0021
355,0.0,0.0,0.0,0.0,0.0,0.0,-0.0956,-1.0858,-0.1676,0.6367,-0.7608,0.1252,-0.0013
356,0.0,0.0,0.0,0.0,0.0,0.0,-0.0918,-1.0226,-0.2266,0.6405,-0.7574,0.1268,0.0005
357,0.0,0.0,0.0,0.0,0.0,0.0,-0.1088,-1.0158,-0.1891,0.6478,-0.7511,0.1272,0.0038
358,0.0,0.0,0.0,0.0,0.0,0.0,-0.1102,-1.1216,-0.1393,0.6595,-0.7409,0.1268,0.0061
359,0.0,0.0,0.0,0.0,0.0,0.0,-0.1161,-1.0915,-0.1535,0.6701,-0.7316,0.1251,0.0086
360,0.0,0.0,0.0,0.0,0.0,0.0,-0.0483,-0.9441,-0.2450,0.6788,-0.7241,0.1217,0.0085
361,0.0,0.0,0.0,0.0,0.0,0.0,-0.0743,-0.8838,-0.3016,0.6809,-0.7225,0.1199,0.0074
362,0.0,0.0,0.0,0.0,0.0,0.0,-0.1264,-0.9914,-0.1584,0.6840,-0.7195,0.1200,0.0053
363,0.0,0.0,0.0,0.0,0.0,0.0,-0.1723,-1.0296,-0.1507,0.6871,-0.7161,0.1228,0.0019
364,0.0,0.0,0.0,0.0,0.0,0.0,-0.1558,-0.9719,-0.1755,0.6886,-0.7139,0.1269,-0.0020
365,0.0,0.0,0.0,0.0,0.0,0.0,-0.1152,-0.9458,-0.1491,0.6897,-0.7123,0.1302,-0.0064
366,0.0,0.0,0.0,0.0,0.0,0.0,-0.1464,-0.9943,-0.1068,0.6917,-0.7095,0.1346,-0.0117
367,0.0,0.0,0.0,0.0,0.0,0.0,-0.1884,-1.0009,-0.1117,0.6936,-0.7067,0.1386,-0.0162
368,0.0,0.0,0.0,0.0,0.0,0.0,-0.1830,-0.9995,-0.0883,0.6986,-0.7013,0.1407,-0.0195
369,0.0,0.0,0.0,0.0,0.0,0.0,-0.2183,-0.9848,-0.1289,0.7015,-0.6977,0.1436,-0.0225
370,0.0,0.0,0.0,0.0,0.0,0.0,-0.2335,-0.9561,-0.1269,0.7033,-0.6949,0.1479,-0.0254
371,0.0,0.0,0.0,0.0,0.0,0.0,-0.2241,-0.9586,-0.1006,0.7057,-0.6917,0.1509,-0.0269
372,0.0,0.0,0.0,0.0,0.0,0.0,-0.2149,-0.9625,-0.1064,0.7081,-0.6884,0.1543,-0.0290
373,0.0,0.0,0.0,0.0,0.0,0.0,-0.2168,-0.9333,-0.0957,0.7105,-0.6850,0.1583,-0.0317
374,0.0,0.0,0.0,0.0,0.0,0.0,-0.1944,-0.8926,-0.1186,0.7118,-0.6828,0.1610,-0.0334
375,0.0,0.0,0.0,0.0,0.0,0.0,-0.1763,-0.9228,-0.0800,0.7139,-0.6802,0.1624,-0.0355
376,0.0,0.0,0.0,0.0,0.0,0.0,-0.1889,-0.9456,-0.0820,0.7156,-0.6780,0.1634,-0.0381
377,0.0,0.0,0.0,0.0,0.0,0.0,-0.1812,-0.9000,-0.1186,0.7153,-0.6783,0.1634,-0.0390
378,0.0,0.0,0.0,0.0,0.0,0.0,-0.1450,-0.8865,-0.1014,0.7150,-0.6794,0.1602,-0.0394
379,0.0,0.0,0.0,0.0,0.0,0.0,-0.1430,-0.9278,-0.0849,0.7145,-0.6808,0.1562,-0.0399
380,0.0,0.0,0.0,0.0,0.0,0.0,-0.1474,-0.9345,-0.0858,0.7134,-0.6828,0.1523,-0.0414
381,0.0,0.0,0.0,0.0,0.0,0.0,-0.1640,-0.9481,-0.0942,0.7114,-0.6854,0.1492,-0.0438
382,0.0,0.0,0.0,0.0,0.0,0.0,-0.1508,-0.9501,-0.1068,0.7074,-0.6897,0.1470,-0.0473
383,0.0,0.0,0.0,0.0,0.0,0.0,-0.1264,-0.9395,-0.1287,0.7015,-0.6960,0.1447,-0.0500
384,0.0,0.0,0.0,0.0,0.0,0.0,-0.1371,-0.9695,-0.0926,0.6963,-0.7016,0.1422,-0.0517
385,0.0,0.0,0.0,0.0,0.0,0.0,-0.1459,-1.0511,-0.0780,0.6930,-0.7053,0.1395,-0.0530
386,0.0,0.0,0.0,0.0,0.0,0.0,-0.1395,-1.0307,-0.0955,0.6896,-0.7091,0.1370,-0.0533
387,0.0,0.0,0.0,0.0,0.0,0.0,-0.1039,-0.9857,-0.1350,0.6864,-0.7128,0.1340,-0.0525
388,0.0,0.0,0.0,0.0,0.0,0.0,-0.0878,-0.9921,-0.1345,0.6836,-0.7162,0.1310,-0.0503
389,0.0,0.0,0.0,0.0,0.0,0.0,-0.0829,-0.9901,-0.1266,0.6812,-0.7192,0.1286,-0.0473
390,0.0,0.0,0.0,0.0,0.0,0.0,-0.0277,-0.9874,-0.1470,0.6798,-0.7213,0.1249,-0.0445
391,0.0,0.0,0.0,0.0,0.0,0.0,-0.0336,-0.9889,-0.1738,0.6779,-0.7238,0.1217,-0.0410
392,0.0,0.0,0.0,0.0,0.0,0.0,-0.0335,-1.0020,-0.1227,0.6782,-0.7241,0.1193,-0.0384
393,0.0,0.0,0.0,0.0,0.0,0.0,-0.0267,-1.0379,-0.1524,0.6795,-0.7233,0.1173,-0.0365
394,0.0,0.0,0.0,0.0,0.0,0.0,-0.0663,-1.0363,-0.1422,0.6813,-0.7217,0.1173,-0.0350
395,0.0,0.0,0.0,0.0,0.0,0.0,-0.0521,-1.0471,-0.1202,0.6847,-0.7185,0.1174,-0.0340
396,0.0,0.0,0.0,0.0,0.0,0.0,-0.0252,-1.0700,-0.1177,0.6878,-0.7157,0.1168,-0.0335
397,0.0,0.0,0.0,0.0,0.0,0.0,-0.0521,-1.0393,-0.1368,0.6900,-0.7135,0.1170,-0.0333
398,0.0,0.0,0.0,0.0,0.0,0.0,-0.0424,-0.9752,-0.1885,0.6900,-0.7136,0.1171,-0.0323
399,0.0,0.0,0.0,0.0,0.0,0.0,-0.0165,-0.9656,-0.1738,0.6887,-0.7152,0.1150,-0.0307
400,0.0,0.0,0.0,0.0,0.0,0.0,-0.0863,-0.9974,-0.1530,0.6866,-0.7173,0.1150,-0.0289
401,0.0,0.0,0.0,0.0,0.0,0.0,-0.1309,-0.9793,-0.1833,0.6839,-0.7194,0.1181,-0.0276
402,0.0,0.0,0.0,0.0,0.0,0.0,-0.0898,-0.9450,-0.1871,0.6790,-0.7237,0.1203,-0.0261
403,0.0,0.0,0.0,0.0,0.0,0.0,-0.0937,-0.9741,-0.1545,0.6759,-0.7263,0.1226,-0.0258
404,0.0,0.0,0.0,0.0,0.0,0.0,-0.0639,-0.9645,-0.2139,0.6706,-0.7309,0.1240,-0.0261
405,0.0,0.0,0.0,0.0,0.0,0.0,-0.0649,-0.9446,-0.1836,0.6657,-0.7353,0.1242,-0.0264
406,0.0,0.0,0.0,0.0,0.0,0.0,-0.0811,-0.9450,-0.2105,0.6617,-0.7393,0.1221,-0.0270
407,0.0,0.0,0.0,0.0,0.0,0.0,-0.0893,-0.9877,-0.2134,0.6577,-0.7430,0.1206,-0.0275
408,0.0,0.0,0.0,0.0,0.0,0.0,-0.0845,-0.9804,-0.2095,0.6539,-0.7466,0.1188,-0.0286
409,0.0,0.0,0.0,0.0,0.0,0.0,-0.1073,-1.0231,-0.1228,0.6542,-0.7468,0.1164,-0.0293
410,0.0,0.0,0.0,0.0,0.0,0.0,-0.0903,-1.0139,-0.2475,0.6554,-0.7459,0.1147,-0.0295
411,0.0,0.0,0.0,0.0,0.0,0.0,-0.0905,-0.9022,-0.2924,0.6498,-0.7508,0.1148,-0.0297
412,0.0,0.0,0.0,0.0,0.0,0.0,-0.0951,-1.0042,-0.1364,0.6520,-0.7489,0.1142,-0.0307
413,0.0,0.0,0.0,0.0,0.0,0.0,-0.0517,-1.0199,-0.2421,0.6531,-0.7481,0.1132,-0.0317
414,0.0,0.0,0.0,0.0,0.0,0.0,-0.0728,-0.9261,-0.2314,0.6516,-0.7493,0.1134,-0.0336
415,0.0,0.0,0.0,0.0,0.0,0.0,-0.1294,-0.9914,-0.1994,0.6530,-0.7480,0.1137,-0.0345
416,0.0,0.0,0.0,0.0,0.0,0.0,-0.1128,-1.0167,-0.2295,0.6534,-0.7475,0.1144,-0.0350
417,0.0,0.0,0.0,0.0,0.0,0.0,-0.1158,-0.9643,-0.2261,0.6530,-0.7476,0.1161,-0.0353
418,0.0,0.0,0.0,0.0,0.0,0.0,-0.1241,-0.9711,-0.2227,0.6531,-0.7472,0.1181,-0.0349
419,0.0,0.0,0.0,0.0,0.0,0.0,-0.1094,-0.9876,-0.2232,0.6535,-0.7466,0.1199,-0.0342
420,0.0,0.0,0.0,0.0,0.0,0.0,-0.1123,-0.9716,-0.2354,0.6534,-0.7464,0.1219,-0.0334
421,0.0,0.0,0.0,0.0,0.0,0.0,-0.1158,-0.9551,-0.2359,0.6532,-0.7463,0.1238,-0.0322
422,0.0,0.0,0.0,0.0,0.0,0.0,-0.1206,-0.9764,-0.2227,0.6539,-0.7455,0.1254,-0.0304
423,0.0,0.0,0.0,0.0,0.0,0.0,-0.0928,-0.9848,-0.2290,0.6551,-0.7444,0.1258,-0.0289
424,0.0,0.0,0.0,0.0,0.0,0.0,-0.0825,-0.9814,-0.2183,0.6573,-0.7427,0.1252,-0.0271
425,0.0,0.0,0.0,0.0,0.0,0.0,-0.1172,-0.9895,-0.2335,0.6595,-0.7406,0.1259,-0.0262
426,0.0,0.0,0.0,0.0,0.0,0.0,-0.1441,-0.9729,-0.2281,0.6605,-0.7396,0.1271,-0.0243
427,0.0,0.0,0.0,0.0,0.0,0.0,-0.1387,-0.9676,-0.2038,0.6621,-0.7376,0.1302,-0.0244
428,0.0,0.0,0.0,0.0,0.0,0.0,-0.1377,-0.9676,-0.2091,0.6648,-0.7349,0.1322,-0.0227
429,0.0,0.0,0.0,0.0,0.0,0.0,-0.1411,-0.9686,-0.1930,0.6678,-0.7320,0.1334,-0.0208
430,0.0,0.0,0.0,0.0,0.0,0.0,-0.1568,-0.9632,-0.1877,0.6707,-0.7292,0.1345,-0.0190
431,0.0,0.0,0.0,0.0,0.0,0.0,-0.1504,-0.9598,-0.1794,0.6737,-0.7264,0.1346,-0.0166
432,0.0,0.0,0.0,0.0,0.0,0.0,-0.1333,-0.9463,-0.1848,0.6759,-0.7245,0.1339,-0.0140
433,0.0,0.0,0.0,0.0,0.0,0.0,-0.1534,-0.9457,-0.1668,0.6782,-0.7227,0.1330,-0.0115
434,0.0,0.0,0.0,0.0,0.0,0.0,-0.1724,-0.9612,-0.1595,0.6811,-0.7200,0.1327,-0.0092
435,0.0,0.0,0.0,0.0,0.0,0.0,-0.1578,-0.9481,-0.1702,0.6829,-0.7184,0.1327,-0.0071
436,0.0,0.0,0.0,0.0,0.0,0.0,-0.1690,-0.9379,-0.1595,0.6843,-0.7170,0.1329,-0.0052
437,0.0,0.0,0.0,0.0,0.0,0.0,-0.1763,-0.9592,-0.1561,0.6858,-0.7154,0.1341,-0.0037
438,0.0,0.0,0.0,0.0,0.0,0.0,-0.1684,-0.9762,-0.1239,0.6869,-0.7140,0.1353,-0.0022
439,0.0,0.0,0.0,0.0,0.0,0.0,-0.1689,-0.9626,-0.1244,0.6887,-0.7122,0.1361,-0.0016
440,0.0,0.0,0.0,0.0,0.0,0.0,-0.1695,-0.9539,-0.1556,0.6893,-0.7114,0.1369,-0.0006
441,0.0,0.0,0.0,0.0,0.0,0.0,-0.1753,-0.9752,-0.1249,0.6902,-0.7105,0.1369,0.0008
442,0.0,0.0,0.0,0.0,0.0,0.0,-0.1943,-0.9689,-0.1239,0.6914,-0.7094,0.1369,0.0026
443,0.0,0.0,0.0,0.0,0.0,0.0,-0.1963,-0.9548,-0.1439,0.6917,-0.7090,0.1376,0.0043
444,0.0,0.0,0.0,0.0,0.0,0.0,-0.1880,-0.9694,-0.1244,0.6920,-0.7085,0.1384,0.0062
445,0.0,0.0,0.0,0.0,0.0,0.0,-0.1880,-0.9762,-0.1195,0.6931,-0.7074,0.1386,0.0078
446,0.0,0.0,0.0,0.0,0.0,0.0,-0.2115,-0.9567,-0.1362,0.6934,-0.7068,0.1398,0.0091
447,0.0,0.0,0.0,0.0,0.0,0.0,-0.2212,-0.9595,-0.1274,0.6935,-0.7064,0.1413,0.0104
448,0.0,0.0,0.0,0.0,0.0,0.0,-0.2192,-0.9911,-0.1079,0.6941,-0.7055,0.1429,0.0114
449,0.0,0.0,0.0,0.0,0.0,0.0,-0.2300,-1.0017,-0.0952,0.6961,-0.7030,0.1451,0.0127
450,0.0,0.0,0.0,0.0,0.0,0.0,-0.2281,-0.9663,-0.1220,0.6975,-0.7012,0.1471,0.0143
451,0.0,0.0,0.0,0.0,0.0,0.0,-0.2173,-0.9557,-0.1059,0.6984,-0.7001,0.1477,0.0167
452,0.0,0.0,0.0,0.0,0.0,0.0,-0.2300,-0.9867,-0.0874,0.7001,-0.6983,0.1480,0.0197
453,0.0,0.0,0.0,0.0,0.0,0.0,-0.2349,-0.9600,-0.0899,0.7010,-0.6970,0.1491,0.0228
454,0.0,0.0,0.0,0.0,0.0,0.0,-0.2315,-0.9435,-0.0782,0.7034,-0.6940,0.1517,0.0251
455,0.0,0.0,0.0,0.0,0.0,0.0,-0.2242,-0.9493,-0.1142,0.7055,-0.6907,0.1566,0.0260
456,0.0,0.0,0.0,0.0,0.0,0.0,-0.2007,-0.9276,-0.1152,0.7058,-0.6893,0.1615,0.0266
457,0.0,0.0,0.0,0.0,0.0,0.0,-0.1831,-0.9097,-0.1225,0.7056,-0.6886,0.1649,0.0262
458,0.0,0.0,0.0,0.0,0.0,0.0,-0.1841,-0.9451,-0.1239,0.7053,-0.6885,0.1669,0.0258
459,0.0,0.0,0.0,0.0,0.0,0.0,-0.2173,-0.9518,-0.1157,0.7042,-0.6895,0.1677,0.0265
460,0.0,0.0,0.0,0.0,0.0,0.0,-0.2442,-0.9561,-0.1143,0.7031,-0.6904,0.1681,0.0271
461,0.0,0.0,0.0,0.0,0.0,0.0,-0.2364,-0.9566,-0.1338,0.7019,-0.6914,0.1692,0.0265
462,0.0,0.0,0.0,0.0,0.0,0.0,-0.2281,-0.9498,-0.1357,0.7008,-0.6922,0.1707,0.0253
463,0.0,0.0,0.0,0.0,0.0,0.0,-0.2378,-0.9765,-0.1260,0.6998,-0.6930,0.1718,0.0240
464,0.0,0.0,0.0,0.0,0.0,0.0,-0.2447,-0.9813,-0.1206,0.6985,-0.6943,0.1715,0.0237
465,0.0,0.0,0.0,0.0,0.0,0.0,-0.2456,-0.9925,-0.1084,0.6987,-0.6944,0.1705,0.0234
466,0.0,0.0,0.0,0.0,0.0,0.0,-0.2647,-0.9885,-0.1250,0.6988,-0.6945,0.1701,0.0230
467,0.0,0.0,0.0,0.0,0.0,0.0,-0.2989,-0.9777,-0.1202,0.6999,-0.6931,0.1711,0.0231
468,0.0,0.0,0.0,0.0,0.0,0.0,-0.2720,-0.9890,-0.1158,0.7024,-0.6903,0.1722,0.0229
469,0.0,0.0,0.0,0.0,0.0,0.0,-0.2452,-0.9604,-0.1367,0.7040,-0.6886,0.1727,0.0229
470,0.0,0.0,0.0,0.0,0.0,0.0,-0.2628,-0.9273,-0.1367,0.7052,-0.6872,0.1728,0.0244
471,0.0,0.0,0.0,0.0,0.0,0.0,-0.2701,-0.9361,-0.1333,0.7049,-0.6873,0.1730,0.0267
472,0.0,0.0,0.0,0.0,0.0,0.0,-0.2491,-0.9517,-0.1240,0.7039,-0.6883,0.1726,0.0292
473,0.0,0.0,0.0,0.0,0.0,0.0,-0.2750,-0.9613,-0.1143,0.7017,-0.6906,0.1723,0.0316
474,0.0,0.0,0.0,0.0,0.0,0.0,-0.3107,-0.9573,-0.1188,0.6976,-0.6944,0.1733,0.0338
475,0.0,0.0,0.0,0.0,0.0,0.0,-0.3409,-0.9800,-0.0647,0.6946,-0.6968,0.1751,0.0360
476,0.0,0.0,0.0,0.0,0.0,0.0,-0.3033,-0.9932,-0.0535,0.6959,-0.6949,0.1773,0.0375
477,0.0,0.0,0.0,0.0,0.0,0.0,-0.2686,-0.9817,-0.0885,0.6987,-0.6917,0.1783,0.0388
478,0.0,0.0,0.0,0.0,0.0,0.0,-0.3170,-0.9830,-0.0618,0.7031,-0.6868,0.1797,0.0403
479,0.0,0.0,0.0,0.0,0.0,0.0,-0.3297,-0.9698,-0.1018,0.7071,-0.6821,0.1814,0.0419
480,0.0,0.0,0.0,0.0,0.0,0.0,-0.2799,-0.9404,-0.1100,0.7094,-0.6791,0.1834,0.0441
481,0.0,0.0,0.0,0.0,0.0,0.0,-0.2363,-0.9473,-0.0558,0.7135,-0.6745,0.1844,0.0445
482,0.0,0.0,0.0,0.0,0.0,0.0,-0.2613,-0.9419,-0.0860,0.7170,-0.6704,0.1860,0.0425
483,0.0,0.0,0.0,0.0,0.0,0.0,-0.2960,-0.9117,-0.0817,0.7188,-0.6680,0.1887,0.0394
484,0.0,0.0,0.0,0.0,0.0,0.0,-0.2916,-0.9030,-0.0778,0.7207,-0.6651,0.1921,0.0353
485,0.0,0.0,0.0,0.0,0.0,0.0,-0.3161,-0.9009,-0.1076,0.7214,-0.6632,0.1967,0.0336
486,0.0,0.0,0.0,0.0,0.0,0.0,-0.3454,-0.9207,-0.0696,0.7215,-0.6615,0.2017,0.0341
487,0.0,0.0,0.0,0.0,0.0,0.0,-0.2941,-0.8927,-0.0769,0.7202,-0.6622,0.2035,0.0362
488,0.0,0.0,0.0,0.0,0.0,0.0,-0.2677,-0.8885,-0.0783,0.7182,-0.6645,0.2026,0.0385
489,0.0,0.0,0.0,0.0,0.0,0.0,-0.2760,-0.8948,-0.0573,0.7165,-0.6665,0.2021,0.0399
490,0.0,0.0,0.0,0.0,0.0,0.0,-0.2789,-0.8933,-0.0539,0.7152,-0.6683,0.2007,0.0400
491,0.0,0.0,0.0,0.0,0.0,0.0,-0.2916,-0.8903,-0.0968,0.7124,-0.6717,0.1993,0.0393
492,0.0,0.0,0.0,0.0,0.0,0.0,-0.3161,-0.8888,-0.0935,0.7078,-0.6769,0.1986,0.0386
493,0.0,0.0,0.0,0.0,0.0,0.0,-0.3258,-0.9349,-0.0647,0.7044,-0.6807,0.1975,0.0385
494,0.0,0.0,0.0,0.0,0.0,0.0,-0.3145,-0.9514,-0.0701,0.7011,-0.6848,0.1949,0.0391
495,0.0,0.0,0.0,0.0,0.0,0.0,-0.3024,-0.9083,-0.1154,0.6967,-0.6901,0.1914,0.0407
496,0.0,0.0,0.0,0.0,0.0,0.0,-0.2901,-0.9403,-0.0900,0.6926,-0.6952,0.1877,0.0419
497,0.0,0.0,0.0,0.0,0.0,0.0,-0.2916,-0.9588,-0.0885,0.6901,-0.6988,0.1838,0.0418
498,0.0,0.0,0.0,0.0,0.0,0.0,-0.2955,-0.9510,-0.1041,0.6887,-0.7009,0.1810,0.0408
499,0.0,0.0,0.0,0.0,0.0,0.0,-0.2726,-0.9492,-0.1187,0.6883,-0.7021,0.1783,0.0393
500,0.0,0.0,0.0,0.0,0.0,0.0,-0.2632,-0.9594,-0.0963,0.6898,-0.7014,0.1754,0.0378
501,0.0,0.0,0.0,0.0,0.0,0.0,-0.2906,-0.9743,-0.1178,0.6928,-0.6991,0.1730,0.0363
502,0.0,0.0,0.0,0.0,0.0,0.0,-0.3033,-0.9660,-0.1120,0.6946,-0.6978,0.1711,0.0346
503,0.0,0.0,0.0,0.0,0.0,0.0,-0.2882,-0.9593,-0.1231,0.6959,-0.6971,0.1694,0.0326
504,0.0,0.0,0.0,0.0,0.0,0.0,-0.2589,-0.9468,-0.1245,0.6963,-0.6973,0.1673,0.0312
505,0.0,0.0,0.0,0.0,0.0,0.0,-0.2413,-0.9347,-0.1274,0.6956,-0.6985,0.1650,0.0306
506,0.0,0.0,0.0,0.0,0.0,0.0,-0.2583,-0.9876,-0.1002,0.6955,-0.6991,0.1630,0.0307
507,0.0,0.0,0.0,0.0,0.0,0.0,-0.2817,-1.0205,-0.0778,0.6959,-0.6991,0.1613,0.0300
508,0.0,0.0,0.0,0.0,0.0,0.0,-0.2891,-1.0015,-0.0768,0.6962,-0.6989,0.1612,0.0284
509,0.0,0.0,0.0,0.0,0.0,0.0,-0.2505,-0.9623,-0.1119,0.6965,-0.6986,0.1615,0.0273
510,0.0,0.0,0.0,0.0,0.0,0.0,-0.2286,-0.9386,-0.1191,0.6965,-0.6985,0.1622,0.0265
511,0.0,0.0,0.0,0.0,0.0,0.0,-0.2110,-0.9503,-0.1118,0.6967,-0.6984,0.1619,0.0256
512,0.0,0.0,0.0,0.0,0.0,0.0,-0.2061,-0.9678,-0.1030,0.6970,-0.6987,0.1596,0.0247
513,0.0,0.0,0.0,0.0,0.0,0.0,-0.2188,-0.9625,-0.1176,0.6971,-0.6991,0.1576,0.0238
514,0.0,0.0,0.0,0.0,0.0,0.0,-0.2422,-0.9629,-0.1118,0.6972,-0.6992,0.1563,0.0232
515,0.0,0.0,0.0,0.0,0.0,0.0,-0.2237,-0.9498,-0.1298,0.6969,-0.6999,0.1551,0.0221
516,0.0,0.0,0.0,0.0,0.0,0.0,-0.1988,-0.9475,-0.1283,0.6962,-0.7009,0.1538,0.0207
517,0.0,0.0,0.0,0.0,0.0,0.0,-0.2017,-0.9547,-0.1249,0.6958,-0.7017,0.1520,0.0189
518,0.0,0.0,0.0,0.0,0.0,0.0,-0.2198,-0.9586,-0.1376,0.6944,-0.7035,0.1505,0.0169
519,0.0,0.0,0.0,0.0,0.0,0.0,-0.2071,-0.9440,-0.1469,0.6911,-0.7070,0.1491,0.0144
520,0.0,0.0,0.0,0.0,0.0,0.0,-0.2061,-0.9795,-0.1308,0.6880,-0.7106,0.1470,0.0123
521,0.0,0.0,0.0,0.0,0.0,0.0,-0.2373,-1.0216,-0.1040,0.6859,-0.7130,0.1451,0.0115
522,0.0,0.0,0.0,0.0,0.0,0.0,-0.2334,-1.0105,-0.1030,0.6869,-0.7121,0.1449,0.0118
523,0.0,0.0,0.0,0.0,0.0,0.0,-0.2280,-1.0192,-0.1181,0.6902,-0.7087,0.1457,0.0128
524,0.0,0.0,0.0,0.0,0.0,0.0,-0.2105,-0.9911,-0.1205,0.6921,-0.7067,0.1459,0.0145
525,0.0,0.0,0.0,0.0,0.0,0.0,-0.1939,-0.9499,-0.1376,0.6944,-0.7044,0.1463,0.0166
526,0.0,0.0,0.0,0.0,0.0,0.0,-0.2104,-0.9906,-0.1118,0.6975,-0.7012,0.1468,0.0182
527,0.0,0.0,0.0,0.0,0.0,0.0,-0.2197,-0.9600,-0.1040,0.6990,-0.6995,0.1473,0.0197
528,0.0,0.0,0.0,0.0,0.0,0.0,-0.1709,-0.9228,-0.1380,0.6998,-0.6986,0.1479,0.0206
529,0.0,0.0,0.0,0.0,0.0,0.0,-0.1748,-0.9480,-0.1351,0.7004,-0.6980,0.1475,0.0205
530,0.0,0.0,0.0,0.0,0.0,0.0,-0.2007,-0.9601,-0.1147,0.7007,-0.6979,0.1465,0.0205
531,0.0,0.0,0.0,0.0,0.0,0.0,-0.2256,-0.9590,-0.1103,0.7013,-0.6974,0.1463,0.0202
532,0.0,0.0,0.0,0.0,0.0,0.0,-0.2158,-0.9634,-0.1035,0.7026,-0.6961,0.1466,0.0192
533,0.0,0.0,0.0,0.0,0.0,0.0,-0.2173,-0.9678,-0.1089,0.7034,-0.6952,0.1468,0.0185
534,0.0,0.0,0.0,0.0,0.0,0.0,-0.2242,-0.9576,-0.1079,0.7036,-0.6948,0.1477,0.0177
535,0.0,0.0,0.0,0.0,0.0,0.0,-0.2056,-0.9538,-0.1084,0.7039,-0.6946,0.1478,0.0171
536,0.0,0.0,0.0,0.0,0.0,0.0,-0.2119,-0.9610,-0.1123,0.7043,-0.6943,0.1472,0.0170
537,0.0,0.0,0.0,0.0,0.0,0.0,-0.2237,-0.9615,-0.0972,0.7033,-0.6954,0.1464,0.0175
538,0.0,0.0,0.0,0.0,0.0,0.0,-0.2090,-0.9630,-0.0991,0.7027,-0.6962,0.1458,0.0173
539,0.0,0.0,0.0,0.0,0.0,0.0,-0.2100,-0.9533,-0.1245,0.7009,-0.6982,0.1449,0.0172
540,0.0,0.0,0.0,0.0,0.0,0.0,-0.2232,-0.9673,-0.1133,0.6984,-0.7006,0.1449,0.0165
541,0.0,0.0,0.0,0.0,0.0,0.0,-0.2080,-0.9664,-0.1132,0.6949,-0.7041,0.1454,0.0155
542,0.0,0.0,0.0,0.0,0.0,0.0,-0.2085,-1.0110,-0.0942,0.6936,-0.7052,0.1463,0.0140
543,0.0,0.0,0.0,0.0,0.0,0.0,-0.2402,-1.0333,-0.0928,0.6932,-0.7053,0.1475,0.0132
544,0.0,0.0,0.0,0.0,0.0,0.0,-0.2837,-1.0035,-0.0997,0.6940,-0.7040,0.1505,0.0134
545,0.0,0.0,0.0,0.0,0.0,0.0,-0.2594,-0.9725,-0.1319,0.6945,-0.7026,0.1542,0.0151
546,0.0,0.0,0.0,0.0,0.0,0.0,-0.1997,-0.9567,-0.1371,0.6940,-0.7027,0.1559,0.0187
547,0.0,0.0,0.0,0.0,0.0,0.0,-0.1812,-0.9456,-0.1244,0.6938,-0.7029,0.1554,0.0231
548,0.0,0.0,0.0,0.0,0.0,0.0,-0.1934,-0.9378,-0.1381,0.6934,-0.7034,0.1541,0.0273
549,0.0,0.0,0.0,0.0,0.0,0.0,-0.1924,-0.9417,-0.1371,0.6926,-0.7044,0.1523,0.0305
550,0.0,0.0,0.0,0.0,0.0,0.0,-0.2027,-0.9533,-0.1152,0.6929,-0.7044,0.1508,0.0315
551,0.0,0.0,0.0,0.0,0.0,0.0,-0.1924,-0.9524,-0.1259,0.6935,-0.7039,0.1501,0.0308
552,0.0,0.0,0.0,0.0,0.0,0.0,-0.2095,-0.9649,-0.1103,0.6954,-0.7021,0.1504,0.0285
553,0.0,0.0,0.0,0.0,0.0,0.0,-0.2305,-0.9823,-0.1006,0.6983,-0.6991,0.1516,0.0253
554,0.0,0.0,0.0,0.0,0.0,0.0,-0.2310,-0.9881,-0.0977,0.7010,-0.6963,0.1524,0.0226
555,0.0,0.0,0.0,0.0,0.0,0.0,-0.2187,-0.9930,-0.0962,0.7041,-0.6934,0.1519,0.0209
556,0.0,0.0,0.0,0.0,0.0,0.0,-0.2369,-0.9706,-0.1157,0.7061,-0.6916,0.1510,0.0213
557,0.0,0.0,0.0,0.0,0.0,0.0,-0.2159,-0.9508,-0.1133,0.7068,-0.6911,0.1490,0.0234
558,0.0,0.0,0.0,0.0,0.0,0.0,-0.1884,-0.9878,-0.0762,0.7083,-0.6903,0.1452,0.0255
559,0.0,0.0,0.0,0.0,0.0,0.0,-0.2021,-1.0014,-0.0742,0.7100,-0.6893,0.1416,0.0256
560,0.0,0.0,0.0,0.0,0.0,0.0,-0.1904,-0.9747,-0.1005,0.7098,-0.6900,0.1396,0.0242
561,0.0,0.0,0.0,0.0,0.0,0.0,-0.1875,-0.9902,-0.1010,0.7098,-0.6901,0.1394,0.0213
562,0.0,0.0,0.0,0.0,0.0,0.0,-0.1900,-0.9684,-0.1264,0.7081,-0.6916,0.1410,0.0172
563,0.0,0.0,0.0,0.0,0.0,0.0,-0.1695,-0.9228,-0.1600,0.7031,-0.6963,0.1436,0.0135
564,0.0,0.0,0.0,0.0,0.0,0.0,-0.0722,-0.9343,-0.1237,0.6991,-0.7006,0.1425,0.0112
565,0.0,0.0,0.0,0.0,0.0,0.0,-0.0750,-1.0052,-0.0828,0.6997,-0.7009,0.1377,0.0100
566,0.0,0.0,0.0,0.0,0.0,0.0,-0.1758,-0.9684,-0.1200,0.6996,-0.7015,0.1356,0.0085
567,0.0,0.0,0.0,0.0,0.0,0.0,-0.1490,-0.8918,-0.1521,0.6978,-0.7033,0.1355,0.0059
568,0.0,0.0,0.0,0.0,0.0,0.0,-0.1030,-0.9405,-0.1335,0.6982,-0.7031,0.1349,0.0026
569,0.0,0.0,0.0,0.0,0.0,0.0,-0.1333,-0.9691,-0.1282,0.6988,-0.7025,0.1347,-0.0017
570,0.0,0.0,0.0,0.0,0.0,0.0,-0.1880,-0.9587,-0.1312,0.6989,-0.7019,0.1375,-0.0072
571,0.0,0.0,0.0,0.0,0.0,0.0,-0.1841,-0.9815,-0.1039,0.7004,-0.6996,0.1405,-0.0136
572,0.0,0.0,0.0,0.0,0.0,0.0,-0.1797,-0.9898,-0.1210,0.7008,-0.6987,0.1426,-0.0195
573,0.0,0.0,0.0,0.0,0.0,0.0,-0.1860,-0.9844,-0.1083,0.7006,-0.6982,0.1453,-0.0248
574,0.0,0.0,0.0,0.0,0.0,0.0,-0.1870,-0.9966,-0.1239,0.6998,-0.6983,0.1477,-0.0295
575,0.0,0.0,0.0,0.0,0.0,0.0,-0.2002,-1.0009,-0.1093,0.6987,-0.6989,0.1493,-0.0320
576,0.0,0.0,0.0,0.0,0.0,0.0,-0.2114,-1.0052,-0.1191,0.6975,-0.6996,0.1509,-0.0346
577,0.0,0.0,0.0,0.0,0.0,0.0,-0.2212,-1.0178,-0.1045,0.6954,-0.7014,0.1523,-0.0360
578,0.0,0.0,0.0,0.0,0.0,0.0,-0.2123,-1.0373,-0.0699,0.6958,-0.7006,0.1533,-0.0374
579,0.0,0.0,0.0,0.0,0.0,0.0,-0.2041,-1.0237,-0.0952,0.6967,-0.6997,0.1539,-0.0376
580,0.0,0.0,0.0,0.0,0.0,0.0,-0.2144,-0.9882,-0.1020,0.6974,-0.6986,0.1553,-0.0377
581,0.0,0.0,0.0,0.0,0.0,0.0,-0.2261,-0.9702,-0.1025,0.6974,-0.6983,0.1572,-0.0368
582,0.0,0.0,0.0,0.0,0.0,0.0,-0.1850,-0.9713,-0.0927,0.6974,-0.6982,0.1579,-0.0354
583,0.0,0.0,0.0,0.0,0.0,0.0,-0.1870,-0.9679,-0.1069,0.6964,-0.6993,0.1577,-0.0335
584,0.0,0.0,0.0,0.0,0.0,0.0,-0.1929,-0.9441,-0.1239,0.6938,-0.7024,0.1563,-0.0301
585,0.0,0.0,0.0,0.0,0.0,0.0,-0.1792,-0.9480,-0.1200,0.6900,-0.7067,0.1541,-0.0272
586,0.0,0.0,0.0,0.0,0.0,0.0,-0.1772,-0.9898,-0.0883,0.6882,-0.7092,0.1514,-0.0239
587,0.0,0.0,0.0,0.0,0.0,0.0,-0.1831,-1.0039,-0.0961,0.6879,-0.7099,0.1499,-0.0216
588,0.0,0.0,0.0,0.0,0.0,0.0,-0.1758,-0.9505,-0.1390,0.6860,-0.7119,0.1494,-0.0191
589,0.0,0.0,0.0,0.0,0.0,0.0,-0.1572,-0.9433,-0.1365,0.6849,-0.7130,0.1491,-0.0172
590,0.0,0.0,0.0,0.0,0.0,0.0,-0.1855,-0.9898,-0.1332,0.6842,-0.7135,0.1499,-0.0152
591,0.0,0.0,0.0,0.0,0.0,0.0,-0.1856,-0.9815,-0.1371,0.6835,-0.7141,0.1510,-0.0124
592,0.0,0.0,0.0,0.0,0.0,0.0,-0.1622,-0.9277,-0.1931,0.6807,-0.7168,0.1508,-0.0092
593,0.0,0.0,0.0,0.0,0.0,0.0,-0.1651,-0.9267,-0.2024,0.6755,-0.7222,0.1489,-0.0045
594,0.0,0.0,0.0,0.0,0.0,0.0,-0.1347,-0.9899,-0.1048,0.6740,-0.7243,0.1455,-0.0008
595,0.0,0.0,0.0,0.0,0.0,0.0,-0.1411,-0.9909,-0.1750,0.6733,-0.7257,0.1412,0.0026
596,0.0,0.0,0.0,0.0,0.0,0.0,-0.1871,-0.9538,-0.1961,0.6710,-0.7285,0.1380,0.0064
597,0.0,0.0,0.0,0.0,0.0,0.0,-0.1920,-0.9645,-0.1732,0.6703,-0.7294,0.1364,0.0090
598,0.0,0.0,0.0,0.0,0.0,0.0,-0.1797,-0.9820,-0.1907,0.6688,-0.7311,0.1345,0.0129
599,0.0,0.0,0.0,0.0,0.0,0.0,-0.1620,-1.0214,-0.1102,0.6709,-0.7294,0.1332,0.0154
600,0.0,0.0,0.0,0.0,0.0,0.0,-0.1772,-1.0180,-0.1424,0.6746,-0.7261,0.1319,0.0185
601,0.0,0.0,0.0,0.0,0.0,0.0,-0.1812,-0.9636,-0.2048,0.6764,-0.7246,0.1304,0.0217
602,0.0,0.0,0.0,0.0,0.0,0.0,-0.1753,-0.9621,-0.1726,0.6782,-0.7232,0.1282,0.0255
603,0.0,0.0,0.0,0.0,0.0,0.0,-0.1630,-0.9942,-0.1229,0.6821,-0.7200,0.1238,0.0304
604,0.0,0.0,0.0,0.0,0.0,0.0,-0.1596,-0.9889,-0.1409,0.6875,-0.7154,0.1195,0.0350
605,0.0,0.0,0.0,0.0,0.0,0.0,-0.1900,-0.9373,-0.1722,0.6916,-0.7117,0.1161,0.0405
606,0.0,0.0,0.0,0.0,0.0,0.0,-0.2310,-0.9542,-0.1372,0.6963,-0.7070,0.1151,0.0450
607,0.0,0.0,0.0,0.0,0.0,0.0,-0.2456,-1.0061,-0.1152,0.7012,-0.7016,0.1179,0.0474
608,0.0,0.0,0.0,0.0,0.0,0.0,-0.2432,-0.9920,-0.1055,0.7039,-0.6979,0.1220,0.0500
609,0.0,0.0,0.0,0.0,0.0,0.0,-0.2588,-0.9740,-0.1021,0.7060,-0.6947,0.1274,0.0522
610,0.0,0.0,0.0,0.0,0.0,0.0,-0.2134,-0.9528,-0.0952,0.7084,-0.6914,0.1305,0.0556
611,0.0,0.0,0.0,0.0,0.0,0.0,-0.1802,-0.9398,-0.1039,0.7107,-0.6889,0.1298,0.0593
612,0.0,0.0,0.0,0.0,0.0,0.0,-0.2593,-0.9657,-0.0997,0.7111,-0.6882,0.1297,0.0633
613,0.0,0.0,0.0,0.0,0.0,0.0,-0.3170,-0.9558,-0.0779,0.7102,-0.6883,0.1310,0.0682
614,0.0,0.0,0.0,0.0,0.0,0.0,-0.2828,-0.9452,-0.0739,0.7087,-0.6891,0.1319,0.0733
615,0.0,0.0,0.0,0.0,0.0,0.0,-0.2285,-0.9537,-0.0850,0.7082,-0.6892,0.1326,0.0764
616,0.0,0.0,0.0,0.0,0.0,0.0,-0.2676,-0.9890,-0.0680,0.7079,-0.6890,0.1339,0.0791
617,0.0,0.0,0.0,0.0,0.0,0.0,-0.3292,-0.9616,-0.0467,0.7083,-0.6876,0.1381,0.0800
618,0.0,0.0,0.0,0.0,0.0,0.0,-0.3180,-0.9199,-0.0905,0.7085,-0.6863,0.1425,0.0818
619,0.0,0.0,0.0,0.0,0.0,0.0,-0.2794,-0.9292,-0.1085,0.7073,-0.6866,0.1455,0.0851
620,0.0,0.0,0.0,0.0,0.0,0.0,-0.2975,-0.9340,-0.0827,0.7059,-0.6875,0.1454,0.0884
621,0.0,0.0,0.0,0.0,0.0,0.0,-0.3194,-0.9271,-0.0681,0.7047,-0.6881,0.1443,0.0950
622,0.0,0.0,0.0,0.0,0.0,0.0,-0.3106,-0.9276,-0.0657,0.7042,-0.6879,0.1442,0.1009
623,0.0,0.0,0.0,0.0,0.0,0.0,-0.2686,-0.9506,-0.0510,0.7057,-0.6858,0.1447,0.1041
624,0.0,0.0,0.0,0.0,0.0,0.0,-0.2608,-0.9288,-0.0617,0.7073,-0.6840,0.1451,0.1039
625,0.0,0.0,0.0,0.0,0.0,0.0,-0.3131,-0.8961,-0.0940,0.7070,-0.6840,0.1481,0.1018
626,0.0,0.0,0.0,0.0,0.0,0.0,-0.3307,-0.8984,-0.0833,0.7050,-0.6856,0.1524,0.0985
627,0.0,0.0,0.0,0.0,0.0,0.0,-0.2800,-0.8525,-0.1402,0.7008,-0.6901,0.1528,0.0961
628,0.0,0.0,0.0,0.0,0.0,0.0,-0.2541,-0.8837,-0.1484,0.6942,-0.6979,0.1488,0.0949
629,0.0,0.0,0.0,0.0,0.0,0.0,-0.2994,-0.9573,-0.0491,0.6892,-0.7043,0.1420,0.0935
630,0.0,0.0,0.0,0.0,0.0,0.0,-0.3364,-0.9926,0.0006,0.6888,-0.7059,0.1395,0.0883
631,0.0,0.0,0.0,0.0,0.0,0.0,-0.3306,-1.0320,-0.0837,0.6916,-0.7036,0.1416,0.0809
632,0.0,0.0,0.0,0.0,0.0,0.0,-0.3918,-0.9667,-0.1058,0.6945,-0.7004,0.1473,0.0733
633,0.0,0.0,0.0,0.0,0.0,0.0,-0.3704,-0.8716,-0.1452,0.6967,-0.6970,0.1561,0.0671
634,0.0,0.0,0.0,0.0,0.0,0.0,-0.2633,-0.9273,-0.1207,0.7004,-0.6920,0.1626,0.0634
635,0.0,0.0,0.0,0.0,0.0,0.0,-0.2730,-0.9569,-0.1168,0.7043,-0.6874,0.1654,0.0639
636,0.0,0.0,0.0,0.0,0.0,0.0,-0.3679,-0.9255,-0.1369,0.7058,-0.6843,0.1703,0.0678
637,0.0,0.0,0.0,0.0,0.0,0.0,-0.3674,-0.8726,-0.1272,0.7039,-0.6842,0.1763,0.0723
638,0.0,0.0,0.0,0.0,0.0,0.0,-0.2971,-0.8490,-0.1480,0.7014,-0.6851,0.1818,0.0751
639,0.0,0.0,0.0,0.0,0.0,0.0,-0.3004,-0.9194,-0.1081,0.6997,-0.6854,0.1868,0.0752
640,0.0,0.0,0.0,0.0,0.0,0.0,-0.3691,-1.0304,0.0044,0.7045,-0.6794,0.1923,0.0714
641,0.0,0.0,0.0,0.0,0.0,0.0,-0.4259,-0.9748,-0.0532,0.7087,-0.6735,0.1991,0.0668
642,0.0,0.0,0.0,0.0,0.0,0.0,-0.3914,-0.8540,-0.1424,0.7077,-0.6727,0.2060,0.0645
643,0.0,0.0,0.0,0.0,0.0,0.0,-0.3616,-0.8507,-0.1267,0.7058,-0.6737,0.2081,0.0683
644,0.0,0.0,0.0,0.0,0.0,0.0,-0.2941,-0.9233,-0.0949,0.7029,-0.6767,0.2059,0.0750
645,0.0,0.0,0.0,0.0,0.0,0.0,-0.3195,-0.9276,-0.0798,0.7017,-0.6782,0.2044,0.0768
646,0.0,0.0,0.0,0.0,0.0,0.0,-0.3635,-0.8668,-0.1077,0.6983,-0.6823,0.2027,0.0758
647,0.0,0.0,0.0,0.0,0.0,0.0,-0.3987,-0.9128,-0.1112,0.6970,-0.6835,0.2043,0.0724
648,0.0,0.0,0.0,0.0,0.0,0.0,-0.3766,-0.9362,-0.0741,0.6948,-0.6855,0.2064,0.0695
649,0.0,0.0,0.0,0.0,0.0,0.0,-0.3640,-0.9061,-0.0901,0.6938,-0.6867,0.2077,0.0633
650,0.0,0.0,0.0,0.0,0.0,0.0,-0.3181,-0.8830,-0.1373,0.6927,-0.6880,0.2078,0.0597
651,0.0,0.0,0.0,0.0,0.0,0.0,-0.3444,-0.8994,-0.1286,0.6903,-0.6912,0.2049,0.0613
652,0.0,0.0,0.0,0.0,0.0,0.0,-0.3938,-0.9278,-0.1121,0.6882,-0.6938,0.2028,0.0622
653,0.0,0.0,0.0,0.0,0.0,0.0,-0.3596,-0.9284,-0.1174,0.6859,-0.6965,0.2012,0.0631
654,0.0,0.0,0.0,0.0,0.0,0.0,-0.3029,-0.9194,-0.1393,0.6839,-0.6991,0.1989,0.0632
655,0.0,0.0,0.0,0.0,0.0,0.0,-0.3239,-0.9397,-0.1320,0.6823,-0.7012,0.1976,0.0611
656,0.0,0.0,0.0,0.0,0.0,0.0,-0.3361,-0.9548,-0.1184,0.6819,-0.7019,0.1976,0.0574
657,0.0,0.0,0.0,0.0,0.0,0.0,-0.3376,-0.9295,-0.1574,0.6810,-0.7029,0.1980,0.0545
658,0.0,0.0,0.0,0.0,0.0,0.0,-0.3405,-0.9358,-0.1437,0.6802,-0.7038,0.1981,0.0525
659,0.0,0.0,0.0,0.0,0.0,0.0,-0.3376,-0.9387,-0.1730,0.6787,-0.7054,0.1976,0.0518
660,0.0,0.0,0.0,0.0,0.0,0.0,-0.3142,-0.9160,-0.1676,0.6759,-0.7087,0.1949,0.0539
661,0.0,0.0,0.0,0.0,0.0,0.0,-0.3112,-0.9393,-0.1646,0.6744,-0.7109,0.1917,0.0560
662,0.0,0.0,0.0,0.0,0.0,0.0,-0.3058,-0.9432,-0.1680,0.6728,-0.7129,0.1896,0.0570
663,0.0,0.0,0.0,0.0,0.0,0.0,-0.3112,-0.9330,-0.1807,0.6711,-0.7149,0.1876,0.0575
664,0.0,0.0,0.0,0.0,0.0,0.0,-0.3108,-0.9315,-0.1880,0.6691,-0.7170,0.1870,0.0565
665,0.0,0.0,0.0,0.0,0.0,0.0,-0.3073,-0.9354,-0.1787,0.6677,-0.7185,0.1871,0.0547
666,0.0,0.0,0.0,0.0,0.0,0.0,-0.2824,-0.9321,-0.1943,0.6668,-0.7197,0.1858,0.0536
667,0.0,0.0,0.0,0.0,0.0,0.0,-0.2790,-0.9268,-0.1967,0.6654,-0.7216,0.1834,0.0539
668,0.0,0.0,0.0,0.0,0.0,0.0,-0.2844,-0.9365,-0.1919,0.6643,-0.7233,0.1805,0.0554
669,0.0,0.0,0.0,0.0,0.0,0.0,-0.2697,-0.9433,-0.1879,0.6635,-0.7249,0.1761,0.0573
670,0.0,0.0,0.0,0.0,0.0,0.0,-0.2497,-0.9458,-0.1869,0.6639,-0.7255,0.1715,0.0587
671,0.0,0.0,0.0,0.0,0.0,0.0,-0.2540,-0.9570,-0.1704,0.6655,-0.7251,0.1671,0.0591
672,0.0,0.0,0.0,0.0,0.0,0.0,-0.2511,-0.9594,-0.2001,0.6673,-0.7243,0.1635,0.0578
673,0.0,0.0,0.0,0.0,0.0,0.0,-0.2550,-0.9449,-0.1772,0.6692,-0.7235,0.1600,0.0561
674,0.0,0.0,0.0,0.0,0.0,0.0,-0.2599,-0.9531,-0.1518,0.6732,-0.7204,0.1578,0.0533
675,0.0,0.0,0.0,0.0,0.0,0.0,-0.2653,-0.9312,-0.1894,0.6763,-0.7180,0.1567,0.0506
676,0.0,0.0,0.0,0.0,0.0,0.0,-0.2570,-0.9492,-0.1743,0.6782,-0.7167,0.1552,0.0490
677,0.0,0.0,0.0,0.0,0.0,0.0,-0.2447,-0.9570,-0.1547,0.6801,-0.7156,0.1520,0.0482
678,0.0,0.0,0.0,0.0,0.0,0.0,-0.2384,-0.9381,-0.1742,0.6794,-0.7170,0.1486,0.0487
679,0.0,0.0,0.0,0.0,0.0,0.0,-0.2139,-0.9596,-0.1518,0.6794,-0.7177,0.1443,0.0497
680,0.0,0.0,0.0,0.0,0.0,0.0,-0.2119,-0.9834,-0.1342,0.6805,-0.7176,0.1393,0.0503
681,0.0,0.0,0.0,0.0,0.0,0.0,-0.2628,-0.9958,-0.1504,0.6805,-0.7182,0.1363,0.0504
682,0.0,0.0,0.0,0.0,0.0,0.0,-0.2716,-0.9632,-0.1416,0.6791,-0.7198,0.1349,0.0498
683,0.0,0.0,0.0,0.0,0.0,0.0,-0.1870,-0.9674,-0.1498,0.6790,-0.7204,0.1330,0.0483
684,0.0,0.0,0.0,0.0,0.0,0.0,-0.1709,-0.9602,-0.1809,0.6770,-0.7229,0.1299,0.0462
685,0.0,0.0,0.0,0.0,0.0,0.0,-0.2291,-0.9697,-0.1415,0.6752,-0.7252,0.1269,0.0451
686,0.0,0.0,0.0,0.0,0.0,0.0,-0.2627,-1.0279,-0.0977,0.6783,-0.7224,0.1274,0.0430
687,0.0,0.0,0.0,0.0,0.0,0.0,-0.2540,-0.9803,-0.1767,0.6804,-0.7199,0.1305,0.0433
688,0.0,0.0,0.0,0.0,0.0,0.0,-0.1807,-0.9422,-0.1805,0.6816,-0.7187,0.1305,0.0429
689,0.0,0.0,0.0,0.0,0.0,0.0,-0.2080,-0.9936,-0.1512,0.6846,-0.7158,0.1304,0.0433
690,0.0,0.0,0.0,0.0,0.0,0.0,-0.2789,-1.0103,-0.1270,0.6887,-0.7114,0.1331,0.0440
691,0.0,0.0,0.0,0.0,0.0,0.0,-0.2442,-0.9667,-0.1562,0.6913,-0.7080,0.1373,0.0447
692,0.0,0.0,0.0,0.0,0.0,0.0,-0.1910,-0.9514,-0.1503,0.6938,-0.7048,0.1403,0.0459
693,0.0,0.0,0.0,0.0,0.0,0.0,-0.2036,-0.9679,-0.1230,0.6972,-0.7009,0.1428,0.0471
694,0.0,0.0,0.0,0.0,0.0,0.0,-0.2349,-0.9595,-0.1211,0.6997,-0.6980,0.1442,0.0492
695,0.0,0.0,0.0,0.0,0.0,0.0,-0.2344,-0.9493,-0.1148,0.7015,-0.6958,0.1452,0.0509
696,0.0,0.0,0.0,0.0,0.0,0.0,-0.2198,-0.9319,-0.1118,0.7034,-0.6939,0.1451,0.0524
697,0.0,0.0,0.0,0.0,0.0,0.0,-0.2476,-0.9395,-0.1036,0.7051,-0.6920,0.1456,0.0530
698,0.0,0.0,0.0,0.0,0.0,0.0,-0.2726,-0.9210,-0.1139,0.7053,-0.6914,0.1476,0.0527
699,0.0,0.0,0.0,0.0,0.0,0.0,-0.2506,-0.9143,-0.1133,0.7047,-0.6915,0.1503,0.0512
700,0.0,0.0,0.0,0.0,0.0,0.0,-0.2413,-0.9289,-0.1060,0.7042,-0.6918,0.1520,0.0494
701,0.0,0.0,0.0,0.0,0.0,0.0,-0.2755,-0.9428,-0.1051,0.7037,-0.6922,0.1529,0.0481
702,0.0,0.0,0.0,0.0,0.0,0.0,-0.2960,-0.9505,-0.0842,0.7033,-0.6924,0.1540,0.0468
703,0.0,0.0,0.0,0.0,0.0,0.0,-0.2505,-0.9419,-0.0919,0.7027,-0.6931,0.1542,0.0462
704,0.0,0.0,0.0,0.0,0.0,0.0,-0.2638,-0.9346,-0.1056,0.7022,-0.6937,0.1537,0.0459
705,0.0,0.0,0.0,0.0,0.0,0.0,-0.2941,-0.9301,-0.1110,0.7008,-0.6952,0.1531,0.0460
706,0.0,0.0,0.0,0.0,0.0,0.0,-0.2745,-0.9380,-0.1173,0.6975,-0.6986,0.1531,0.0449
707,0.0,0.0,0.0,0.0,0.0,0.0,-0.2686,-0.9438,-0.1051,0.6936,-0.7026,0.1528,0.0436
708,0.0,0.0,0.0,0.0,0.0,0.0,-0.2505,-0.9609,-0.0928,0.6916,-0.7049,0.1518,0.0420
709,0.0,0.0,0.0,0.0,0.0,0.0,-0.2554,-0.9929,-0.0865,0.6924,-0.7042,0.1522,0.0403
710,0.0,0.0,0.0,0.0,0.0,0.0,-0.2764,-0.9734,-0.0944,0.6941,-0.7022,0.1536,0.0388
711,0.0,0.0,0.0,0.0,0.0,0.0,-0.2628,-0.9375,-0.1328,0.6952,-0.7009,0.1552,0.0376
712,0.0,0.0,0.0,0.0,0.0,0.0,-0.2374,-0.9556,-0.1260,0.6959,-0.7000,0.1559,0.0370
713,0.0,0.0,0.0,0.0,0.0,0.0,-0.2305,-0.9765,-0.1016,0.6973,-0.6988,0.1551,0.0369
714,0.0,0.0,0.0,0.0,0.0,0.0,-0.2378,-0.9556,-0.1050,0.6988,-0.6973,0.1550,0.0371
715,0.0,0.0,0.0,0.0,0.0,0.0,-0.2271,-0.9246,-0.1240,0.7005,-0.6956,0.1550,0.0370
716,0.0,0.0,0.0,0.0,0.0,0.0,-0.1983,-0.9295,-0.1586,0.7002,-0.6962,0.1541,0.0365
717,0.0,0.0,0.0,0.0,0.0,0.0,-0.2022,-0.9562,-0.1230,0.6987,-0.6979,0.1534,0.0352
718,0.0,0.0,0.0,0.0,0.0,0.0,-0.2363,-0.9857,-0.0992,0.6982,-0.6985,0.1532,0.0330
719,0.0,0.0,0.0,0.0,0.0,0.0,-0.2510,-0.9808,-0.1099,0.6987,-0.6980,0.1538,0.0309
720,0.0,0.0,0.0,0.0,0.0,0.0,-0.2300,-0.9760,-0.1250,0.6993,-0.6973,0.1545,0.0289
721,0.0,0.0,0.0,0.0,0.0,0.0,-0.2202,-0.9765,-0.1123,0.7004,-0.6963,0.1544,0.0273
722,0.0,0.0,0.0,0.0,0.0,0.0,-0.2554,-0.9779,-0.1099,0.7013,-0.6955,0.1544,0.0267
723,0.0,0.0,0.0,0.0,0.0,0.0,-0.2652,-0.9657,-0.1104,0.7015,-0.6951,0.1550,0.0267
724,0.0,0.0,0.0,0.0,0.0,0.0,-0.1998,-0.9460,-0.1376,0.7008,-0.6960,0.1539,0.0273
725,0.0,0.0,0.0,0.0,0.0,0.0,-0.1861,-0.9470,-0.1527,0.6983,-0.6992,0.1507,0.0277
726,0.0,0.0,0.0,0.0,0.0,0.0,-0.2281,-0.9653,-0.1259,0.6946,-0.7035,0.1478,0.0279
727,0.0,0.0,0.0,0.0,0.0,0.0,-0.2393,-0.9716,-0.1269,0.6896,-0.7088,0.1459,0.0274
728,0.0,0.0,0.0,0.0,0.0,0.0,-0.1998,-0.9261,-0.1512,0.6835,-0.7152,0.1439,0.0264
729,0.0,0.0,0.0,0.0,0.0,0.0,-0.1660,-0.9490,-0.1341,0.6798,-0.7193,0.1410,0.0248
730,0.0,0.0,0.0,0.0,0.0,0.0,-0.1973,-0.9892,-0.1356,0.6775,-0.7218,0.1393,0.0223
731,0.0,0.0,0.0,0.0,0.0,0.0,-0.2394,-0.9566,-0.1791,0.6733,-0.7258,0.1395,0.0208
732,0.0,0.0,0.0,0.0,0.0,0.0,-0.2496,-0.9920,-0.1591,0.6711,-0.7274,0.1419,0.0197
733,0.0,0.0,0.0,0.0,0.0,0.0,-0.2330,-0.9760,-0.1937,0.6680,-0.7299,0.1439,0.0202
734,0.0,0.0,0.0,0.0,0.0,0.0,-0.2326,-0.9192,-0.2230,0.6622,-0.7348,0.1452,0.0230
735,0.0,0.0,0.0,0.0,0.0,0.0,-0.2291,-0.9469,-0.1971,0.6577,-0.7386,0.1456,0.0259
736,0.0,0.0,0.0,0.0,0.0,0.0,-0.1704,-0.9966,-0.1570,0.6579,-0.7388,0.1432,0.0290
737,0.0,0.0,0.0,0.0,0.0,0.0,-0.1627,-0.9510,-0.1950,0.6581,-0.7393,0.1391,0.0312
738,0.0,0.0,0.0,0.0,0.0,0.0,-0.2204,-0.9309,-0.2166,0.6574,-0.7401,0.1381,0.0332
739,0.0,0.0,0.0,0.0,0.0,0.0,-0.2228,-0.9275,-0.2103,0.6566,-0.7407,0.1385,0.0337
740,0.0,0.0,0.0,0.0,0.0,0.0,-0.2033,-0.9256,-0.2195,0.6546,-0.7425,0.1383,0.0339
741,0.0,0.0,0.0,0.0,0.0,0.0,-0.1900,-0.9504,-0.2078,0.6536,-0.7433,0.1387,0.0327
742,0.0,0.0,0.0,0.0,0.0,0.0,-0.1896,-0.9485,-0.2102,0.6525,-0.7443,0.1388,0.0315
743,0.0,0.0,0.0,0.0,0.0,0.0,-0.1994,-0.9412,-0.2268,0.6519,-0.7449,0.1383,0.0307
744,0.0,0.0,0.0,0.0,0.0,0.0,-0.1979,-0.9601,-0.2166,0.6520,-0.7451,0.1371,0.0303
745,0.0,0.0,0.0,0.0,0.0,0.0,-0.2013,-0.9688,-0.1995,0.6530,-0.7446,0.1348,0.0304
746,0.0,0.0,0.0,0.0,0.0,0.0,-0.2081,-0.9785,-0.2010,0.6553,-0.7430,0.1325,0.0311
747,0.0,0.0,0.0,0.0,0.0,0.0,-0.1817,-0.9747,-0.1946,0.6594,-0.7398,0.1298,0.0319
748,0.0,0.0,0.0,0.0,0.0,0.0,-0.1934,-0.9761,-0.1829,0.6644,-0.7359,0.1269,0.0322
749,0.0,0.0,0.0,0.0,0.0,0.0,-0.2272,-0.9702,-0.1976,0.6680,-0.7328,0.1254,0.0316
750,0.0,0.0,0.0,0.0,0.0,0.0,-0.2184,-0.9319,-0.2093,0.6694,-0.7316,0.1255,0.0306
751,0.0,0.0,0.0,0.0,0.0,0.0,-0.1852,-0.9320,-0.2097,0.6700,-0.7311,0.1255,0.0293
752,0.0,0.0,0.0,0.0,0.0,0.0,-0.2027,-0.9985,-0.1868,0.6692,-0.7319,0.1253,0.0282
753,0.0,0.0,0.0,0.0,0.0,0.0,-0.2457,-1.0046,-0.1499,0.6689,-0.7321,0.1258,0.0282
754,0.0,0.0,0.0,0.0,0.0,0.0,-0.2188,-0.9960,-0.1600,0.6702,-0.7308,0.1264,0.0295
755,0.0,0.0,0.0,0.0,0.0,0.0,-0.1826,-1.0131,-0.1600,0.6738,-0.7273,0.1267,0.0311
756,0.0,0.0,0.0,0.0,0.0,0.0,-0.2232,-0.9736,-0.1737,0.6758,-0.7253,0.1268,0.0340
757,0.0,0.0,0.0,0.0,0.0,0.0,-0.2311,-0.9571,-0.1737,0.6772,-0.7238,0.1273,0.0372
758,0.0,0.0,0.0,0.0,0.0,0.0,-0.1846,-0.9781,-0.1722,0.6789,-0.7221,0.1268,0.0398
759,0.0,0.0,0.0,0.0,0.0,0.0,-0.1710,-0.9466,-0.1721,0.6793,-0.7220,0.1246,0.0430
760,0.0,0.0,0.0,0.0,0.0,0.0,-0.2096,-0.9368,-0.1776,0.6800,-0.7213,0.1240,0.0452
761,0.0,0.0,0.0,0.0,0.0,0.0,-0.2017,-0.9504,-0.1595,0.6817,-0.7195,0.1240,0.0462
762,0.0,0.0,0.0,0.0,0.0,0.0,-0.1944,-0.9460,-0.1673,0.6836,-0.7176,0.1244,0.0465
763,0.0,0.0,0.0,0.0,0.0,0.0,-0.2184,-0.9333,-0.1640,0.6848,-0.7163,0.1260,0.0462
764,0.0,0.0,0.0,0.0,0.0,0.0,-0.2032,-0.9363,-0.1410,0.6871,-0.7138,0.1276,0.0458
765,0.0,0.0,0.0,0.0,0.0,0.0,-0.1959,-0.9402,-0.1517,0.6896,-0.7114,0.1279,0.0456
766,0.0,0.0,0.0,0.0,0.0,0.0,-0.2149,-0.9353,-0.1464,0.6908,-0.7102,0.1275,0.0462
767,0.0,0.0,0.0,0.0,0.0,0.0,-0.2047,-0.9261,-0.1444,0.6917,-0.7095,0.1268,0.0470
768,0.0,0.0,0.0,0.0,0.0,0.0,-0.2003,-0.9310,-0.1522,0.6919,-0.7094,0.1254,0.0478
769,0.0,0.0,0.0,0.0,0.0,0.0,-0.2130,-0.9280,-0.1586,0.6922,-0.7094,0.1241,0.0482
770,0.0,0.0,0.0,0.0,0.0,0.0,-0.2124,-0.9533,-0.1308,0.6919,-0.7098,0.1231,0.0471
771,0.0,0.0,0.0,0.0,0.0,0.0,-0.2197,-0.9872,-0.0962,0.6944,-0.7076,0.1228,0.0449
772,0.0,0.0,0.0,0.0,0.0,0.0,-0.2329,-0.9872,-0.1143,0.6971,-0.7050,0.1237,0.0420
773,0.0,0.0,0.0,0.0,0.0,0.0,-0.2173,-0.9557,-0.1289,0.6984,-0.7035,0.1255,0.0385
774,0.0,0.0,0.0,0.0,0.0,0.0,-0.1978,-0.9315,-0.1434,0.6989,-0.7032,0.1257,0.0363
775,0.0,0.0,0.0,0.0,0.0,0.0,-0.1851,-0.9568,-0.1307,0.6991,-0.7032,0.1244,0.0348
776,0.0,0.0,0.0,0.0,0.0,0.0,-0.2359,-0.9779,-0.1182,0.6982,-0.7044,0.1231,0.0342
777,0.0,0.0,0.0,0.0,0.0,0.0,-0.2045,-1.0057,-0.0669,0.6994,-0.7035,0.1215,0.0339
778,0.0,0.0,0.0,0.0,0.0,0.0,-0.2280,-1.0110,-0.1021,0.7015,-0.7015,0.1211,0.0333
779,0.0,0.0,0.0,0.0,0.0,0.0,-0.2692,-0.9487,-0.1582,0.6996,-0.7028,0.1246,0.0319
780,0.0,0.0,0.0,0.0,0.0,0.0,-0.2326,-0.9284,-0.1781,0.6948,-0.7070,0.1284,0.0297
781,0.0,0.0,0.0,0.0,0.0,0.0,-0.2530,-0.9662,-0.1543,0.6891,-0.7120,0.1317,0.0286
782,0.0,0.0,0.0,0.0,0.0,0.0,-0.2564,-1.0046,-0.1211,0.6850,-0.7154,0.1349,0.0283
783,0.0,0.0,0.0,0.0,0.0,0.0,-0.2037,-0.9377,-0.1537,0.6803,-0.7196,0.1361,0.0292
784,0.0,0.0,0.0,0.0,0.0,0.0,-0.1353,-0.8962,-0.1804,0.6756,-0.7242,0.1347,0.0314
785,0.0,0.0,0.0,0.0,0.0,0.0,-0.1265,-0.9249,-0.1945,0.6712,-0.7285,0.1326,0.0344
786,0.0,0.0,0.0,0.0,0.0,0.0,-0.1637,-0.9141,-0.2214,0.6662,-0.7333,0.1306,0.0380
787,0.0,0.0,0.0,0.0,0.0,0.0,-0.1519,-0.9608,-0.1911,0.6641,-0.7352,0.1296,0.0396
788,0.0,0.0,0.0,0.0,0.0,0.0,-0.1260,-1.0055,-0.1901,0.6650,-0.7344,0.1301,0.0384
789,0.0,0.0,0.0,0.0,0.0,0.0,-0.1900,-0.9951,-0.1809,0.6675,-0.7317,0.1337,0.0356
790,0.0,0.0,0.0,0.0,0.0,0.0,-0.2638,-0.9871,-0.1884,0.6692,-0.7294,0.1384,0.0313
791,0.0,0.0,0.0,0.0,0.0,0.0,-0.2330,-1.0115,-0.1781,0.6721,-0.7263,0.1413,0.0289
792,0.0,0.0,0.0,0.0,0.0,0.0,-0.1728,-1.0243,-0.1716,0.6753,-0.7234,0.1409,0.0294
793,0.0,0.0,0.0,0.0,0.0,0.0,-0.2300,-0.9896,-0.1620,0.6787,-0.7203,0.1392,0.0333
794,0.0,0.0,0.0,0.0,0.0,0.0,-0.2535,-0.9638,-0.1791,0.6810,-0.7180,0.1383,0.0385
795,0.0,0.0,0.0,0.0,0.0,0.0,-0.2418,-0.9672,-0.1630,0.6818,-0.7170,0.1387,0.0425
796,0.0,0.0,0.0,0.0,0.0,0.0,-0.2256,-0.9542,-0.1142,0.6833,-0.7155,0.1382,0.0446
797,0.0,0.0,0.0,0.0,0.0,0.0,-0.2120,-0.9372,-0.1430,0.6846,-0.7144,0.1375,0.0447
798,0.0,0.0,0.0,0.0,0.0,0.0,-0.2218,-0.9333,-0.1528,0.6849,-0.7141,0.1381,0.0432
799,0.0,0.0,0.0,0.0,0.0,0.0,-0.2364,-0.9444,-0.1367,0.6853,-0.7139,0.1382,0.0406
800,0.0,0.0,0.0,0.0,0.0,0.0,-0.2643,-0.9375,-0.1499,0.6832,-0.7162,0.1369,0.0392
801,0.0,0.0,0.0,0.0,0.0,0.0,-0.2618,-0.9536,-0.1231,0.6815,-0.7180,0.1363,0.0379
802,0.0,0.0,0.0,0.0,0.0,0.0,-0.2344,-0.9736,-0.1216,0.6803,-0.7193,0.1357,0.0371
803,0.0,0.0,0.0,0.0,0.0,0.0,-0.2086,-0.9581,-0.1483,0.6791,-0.7210,0.1325,0.0376
804,0.0,0.0,0.0,0.0,0.0,0.0,-0.2335,-0.9575,-0.1406,0.6787,-0.7220,0.1286,0.0382
805,0.0,0.0,0.0,0.0,0.0,0.0,-0.2813,-0.9860,-0.1163,0.6801,-0.7210,0.1271,0.0390
806,0.0,0.0,0.0,0.0,0.0,0.0,-0.2730,-1.0225,-0.0895,0.6851,-0.7161,0.1275,0.0388
807,0.0,0.0,0.0,0.0,0.0,0.0,-0.2437,-0.9920,-0.1123,0.6904,-0.7109,0.1282,0.0385
808,0.0,0.0,0.0,0.0,0.0,0.0,-0.2017,-0.9339,-0.1444,0.6951,-0.7062,0.1297,0.0377
809,0.0,0.0,0.0,0.0,0.0,0.0,-0.1739,-0.9262,-0.1566,0.6972,-0.7040,0.1295,0.0374
810,0.0,0.0,0.0,0.0,0.0,0.0,-0.1910,-0.9494,-0.1371,0.6980,-0.7035,0.1286,0.0372
811,0.0,0.0,0.0,0.0,0.0,0.0,-0.2047,-0.9227,-0.1449,0.6969,-0.7047,0.1278,0.0376
812,0.0,0.0,0.0,0.0,0.0,0.0,-0.1934,-0.9519,-0.1293,0.6966,-0.7050,0.1277,0.0383
813,0.0,0.0,0.0,0.0,0.0,0.0,-0.1910,-0.9538,-0.1532,0.6937,-0.7079,0.1273,0.0389
814,0.0,0.0,0.0,0.0,0.0,0.0,-0.2212,-0.9542,-0.1269,0.6900,-0.7114,0.1281,0.0382
815,0.0,0.0,0.0,0.0,0.0,0.0,-0.2295,-0.9687,-0.1206,0.6873,-0.7137,0.1301,0.0367
816,0.0,0.0,0.0,0.0,0.0,0.0,-0.1968,-0.9863,-0.1118,0.6874,-0.7134,0.1316,0.0346
817,0.0,0.0,0.0,0.0,0.0,0.0,-0.1910,-0.9538,-0.1600,0.6861,-0.7145,0.1327,0.0330
818,0.0,0.0,0.0,0.0,0.0,0.0,-0.2115,-0.9455,-0.1479,0.6834,-0.7168,0.1345,0.0319
819,0.0,0.0,0.0,0.0,0.0,0.0,-0.2096,-0.9406,-0.1649,0.6802,-0.7198,0.1351,0.0317
820,0.0,0.0,0.0,0.0,0.0,0.0,-0.1910,-0.9465,-0.1668,0.6766,-0.7233,0.1341,0.0317
821,0.0,0.0,0.0,0.0,0.0,0.0,-0.1734,-0.9257,-0.1873,0.6729,-0.7272,0.1316,0.0316
822,0.0,0.0,0.0,0.0,0.0,0.0,-0.1822,-0.9553,-0.1707,0.6700,-0.7304,0.1287,0.0308
823,0.0,0.0,0.0,0.0,0.0,0.0,-0.1797,-0.9815,-0.1522,0.6688,-0.7320,0.1268,0.0281
824,0.0,0.0,0.0,0.0,0.0,0.0,-0.1548,-0.9671,-0.1575,0.6705,-0.7307,0.1263,0.0230
825,0.0,0.0,0.0,0.0,0.0,0.0,-0.1744,-0.9417,-0.1858,0.6745,-0.7270,0.1274,0.0173
826,0.0,0.0,0.0,0.0,0.0,0.0,-0.2330,-0.9673,-0.2088,0.6784,-0.7229,0.1301,0.0131
827,0.0,0.0,0.0,0.0,0.0,0.0,-0.2452,-0.9837,-0.1591,0.6819,-0.7190,0.1339,0.0093
828,0.0,0.0,0.0,0.0,0.0,0.0,-0.1939,-0.9708,-0.1478,0.6864,-0.7142,0.1366,0.0063
829,0.0,0.0,0.0,0.0,0.0,0.0,-0.1895,-0.9825,-0.1629,0.6910,-0.7097,0.1373,0.0045
830,0.0,0.0,0.0,0.0,0.0,0.0,-0.2012,-0.9713,-0.1503,0.6936,-0.7072,0.1370,0.0042
831,0.0,0.0,0.0,0.0,0.0,0.0,-0.1719,-0.9442,-0.1761,0.6942,-0.7067,0.1364,0.0043
832,0.0,0.0,0.0,0.0,0.0,0.0,-0.1367,-0.9555,-0.1497,0.6949,-0.7064,0.1346,0.0040
833,0.0,0.0,0.0,0.0,0.0,0.0,-0.1304,-0.9526,-0.1550,0.6955,-0.7063,0.1317,0.0024
834,0.0,0.0,0.0,0.0,0.0,0.0,-0.1353,-0.9157,-0.1658,0.6934,-0.7088,0.1296,0.0001
835,0.0,0.0,0.0,0.0,0.0,0.0,-0.1816,-0.9670,-0.1322,0.6923,-0.7096,0.1310,-0.0044
836,0.0,0.0,0.0,0.0,0.0,0.0,-0.1723,-1.0078,-0.1175,0.6918,-0.7098,0.1325,-0.0087
837,0.0,0.0,0.0,0.0,0.0,0.0,-0.1166,-0.9633,-0.1233,0.6913,-0.7100,0.1334,-0.0134
838,0.0,0.0,0.0,0.0,0.0,0.0,-0.1396,-0.9603,-0.1419,0.6904,-0.7105,0.1351,-0.0175
839,0.0,0.0,0.0,0.0,0.0,0.0,-0.1518,-0.9724,-0.1346,0.6898,-0.7108,0.1359,-0.0214
840,0.0,0.0,0.0,0.0,0.0,0.0,-0.1313,-0.9676,-0.1438,0.6883,-0.7125,0.1341,-0.0241
841,0.0,0.0,0.0,0.0,0.0,0.0,-0.1240,-0.9866,-0.1287,0.6880,-0.7136,0.1296,-0.0260
842,0.0,0.0,0.0,0.0,0.0,0.0,-0.1259,-0.9798,-0.1457,0.6874,-0.7150,0.1244,-0.0272
843,0.0,0.0,0.0,0.0,0.0,0.0,-0.1372,-0.9899,-0.1419,0.6871,-0.7159,0.1205,-0.0283
844,0.0,0.0,0.0,0.0,0.0,0.0,-0.1210,-0.9987,-0.1340,0.6865,-0.7170,0.1176,-0.0295
845,0.0,0.0,0.0,0.0,0.0,0.0,-0.1279,-1.0094,-0.1345,0.6853,-0.7180,0.1176,-0.0305
846,0.0,0.0,0.0,0.0,0.0,0.0,-0.1298,-1.0152,-0.1336,0.6850,-0.7179,0.1199,-0.0319
847,0.0,0.0,0.0,0.0,0.0,0.0,-0.1161,-1.0075,-0.1447,0.6848,-0.7177,0.1224,-0.0322
848,0.0,0.0,0.0,0.0,0.0,0.0,-0.1142,-1.0022,-0.1589,0.6842,-0.7179,0.1243,-0.0325
849,0.0,0.0,0.0,0.0,0.0,0.0,-0.1113,-0.9988,-0.1569,0.6837,-0.7184,0.1242,-0.0316
850,0.0,0.0,0.0,0.0,0.0,0.0,-0.1010,-1.0008,-0.1510,0.6838,-0.7187,0.1224,-0.0306
851,0.0,0.0,0.0,0.0,0.0,0.0,-0.0937,-0.9954,-0.1481,0.6844,-0.7187,0.1195,-0.0290
852,0.0,0.0,0.0,0.0,0.0,0.0,-0.1064,-0.9852,-0.1637,0.6845,-0.7190,0.1176,-0.0276
853,0.0,0.0,0.0,0.0,0.0,0.0,-0.1118,-0.9726,-0.1706,0.6837,-0.7197,0.1175,-0.0263
854,0.0,0.0,0.0,0.0,0.0,0.0,-0.1059,-0.9818,-0.1535,0.6835,-0.7199,0.1184,-0.0250
855,0.0,0.0,0.0,0.0,0.0,0.0,-0.0961,-0.9920,-0.1481,0.6839,-0.7193,0.1200,-0.0241
856,0.0,0.0,0.0,0.0,0.0,0.0,-0.1049,-0.9731,-0.1647,0.6836,-0.7192,0.1219,-0.0234
857,0.0,0.0,0.0,0.0,0.0,0.0,-0.1054,-0.9658,-0.1613,0.6838,-0.7190,0.1222,-0.0222
858,0.0,0.0,0.0,0.0,0.0,0.0,-0.1079,-0.9701,-0.1662,0.6836,-0.7194,0.1210,-0.0208
859,0.0,0.0,0.0,0.0,0.0,0.0,-0.1147,-0.9745,-0.1628,0.6832,-0.7202,0.1191,-0.0193
860,0.0,0.0,0.0,0.0,0.0,0.0,-0.1181,-0.9745,-0.1594,0.6828,-0.7209,0.1174,-0.0178
861,0.0,0.0,0.0,0.0,0.0,0.0,-0.1176,-0.9711,-0.1599,0.6821,-0.7219,0.1160,-0.0158
862,0.0,0.0,0.0,0.0,0.0,0.0,-0.1142,-0.9798,-0.1521,0.6821,-0.7219,0.1153,-0.0145
863,0.0,0.0,0.0,0.0,0.0,0.0,-0.1137,-0.9818,-0.1608,0.6820,-0.7220,0.1156,-0.0135
864,0.0,0.0,0.0,0.0,0.0,0.0,-0.1162,-0.9876,-0.1564,0.6815,-0.7223,0.1167,-0.0126
865,0.0,0.0,0.0,0.0,0.0,0.0,-0.1103,-0.9789,-0.1676,0.6812,-0.7224,0.1180,-0.0125
866,0.0,0.0,0.0,0.0,0.0,0.0,-0.1309,-0.9657,-0.1779,0.6800,-0.7235,0.1190,-0.0115
867,0.0,0.0,0.0,0.0,0.0,0.0,-0.1455,-0.9787,-0.1604,0.6791,-0.7241,0.1199,-0.0101
868,0.0,0.0,0.0,0.0,0.0,0.0,-0.1372,-1.0021,-0.1584,0.6784,-0.7247,0.1201,-0.0083
869,0.0,0.0,0.0,0.0,0.0,0.0,-0.1523,-1.0074,-0.1609,0.6777,-0.7254,0.1203,-0.0055
870,0.0,0.0,0.0,0.0,0.0,0.0,-0.1782,-1.0121,-0.1614,0.6773,-0.7256,0.1213,-0.0019
871,0.0,0.0,0.0,0.0,0.0,0.0,-0.1753,-0.9952,-0.1902,0.6757,-0.7268,0.1229,0.0020
872,0.0,0.0,0.0,0.0,0.0,0.0,-0.1841,-0.9927,-0.1897,0.6740,-0.7280,0.1250,0.0070
873,0.0,0.0,0.0,0.0,0.0,0.0,-0.2071,-1.0028,-0.1834,0.6724,-0.7290,0.1279,0.0112
874,0.0,0.0,0.0,0.0,0.0,0.0,-0.2203,-1.0047,-0.1922,0.6697,-0.7309,0.1305,0.0160
875,0.0,0.0,0.0,0.0,0.0,0.0,-0.2135,-0.9761,-0.2137,0.6669,-0.7328,0.1330,0.0211
876,0.0,0.0,0.0,0.0,0.0,0.0,-0.2101,-0.9688,-0.1912,0.6661,-0.7331,0.1343,0.0278
877,0.0,0.0,0.0,0.0,0.0,0.0,-0.2486,-0.9828,-0.1884,0.6676,-0.7311,0.1364,0.0349
878,0.0,0.0,0.0,0.0,0.0,0.0,-0.2594,-0.9745,-0.1845,0.6706,-0.7275,0.1389,0.0420
879,0.0,0.0,0.0,0.0,0.0,0.0,-0.2242,-0.9639,-0.1722,0.6750,-0.7227,0.1400,0.0499
880,0.0,0.0,0.0,0.0,0.0,0.0,-0.2359,-0.9682,-0.1518,0.6808,-0.7164,0.1415,0.0571
881,0.0,0.0,0.0,0.0,0.0,0.0,-0.2818,-0.9651,-0.1338,0.6877,-0.7087,0.1444,0.0627
882,0.0,0.0,0.0,0.0,0.0,0.0,-0.2384,-0.9367,-0.1552,0.6947,-0.7009,0.1473,0.0662
883,0.0,0.0,0.0,0.0,0.0,0.0,-0.2042,-0.9300,-0.1483,0.7001,-0.6949,0.1492,0.0691
884,0.0,0.0,0.0,0.0,0.0,0.0,-0.2540,-0.9487,-0.1104,0.7046,-0.6896,0.1511,0.0713
885,0.0,0.0,0.0,0.0,0.0,0.0,-0.3072,-0.9607,-0.0749,0.7088,-0.6845,0.1537,0.0737
886,0.0,0.0,0.0,0.0,0.0,0.0,-0.3277,-0.9664,-0.0564,0.7134,-0.6786,0.1568,0.0768
887,0.0,0.0,0.0,0.0,0.0,0.0,-0.2886,-0.9302,-0.0559,0.7178,-0.6731,0.1592,0.0798
888,0.0,0.0,0.0,0.0,0.0,0.0,-0.2604,-0.8598,-0.0739,0.7198,-0.6704,0.1595,0.0830
889,0.0,0.0,0.0,0.0,0.0,0.0,-0.2339,-0.8857,-0.0514,0.7226,-0.6676,0.1569,0.0869
890,0.0,0.0,0.0,0.0,0.0,0.0,-0.2637,-0.9064,-0.0432,0.7250,-0.6652,0.1538,0.0905
891,0.0,0.0,0.0,0.0,0.0,0.0,-0.2735,-0.8792,-0.0564,0.7260,-0.6645,0.1515,0.0922
892,0.0,0.0,0.0,0.0,0.0,0.0,-0.3038,-0.9039,-0.0554,0.7258,-0.6651,0.1497,0.0916
893,0.0,0.0,0.0,0.0,0.0,0.0,-0.3449,-0.8940,-0.0804,0.7206,-0.6714,0.1479,0.0892
894,0.0,0.0,0.0,0.0,0.0,0.0,-0.3112,-0.8810,-0.0632,0.7116,-0.6823,0.1441,0.0857
895,0.0,0.0,0.0,0.0,0.0,0.0,-0.2900,-0.9690,-0.0237,0.7050,-0.6906,0.1394,0.0817
896,0.0,0.0,0.0,0.0,0.0,0.0,-0.3326,-0.9839,-0.0516,0.7000,-0.6963,0.1367,0.0804
897,0.0,0.0,0.0,0.0,0.0,0.0,-0.3541,-0.9726,-0.0584,0.6984,-0.6976,0.1382,0.0809
898,0.0,0.0,0.0,0.0,0.0,0.0,-0.3291,-1.0019,-0.0550,0.6988,-0.6965,0.1410,0.0817
899,0.0,0.0,0.0,0.0,0.0,0.0,-0.3473,-0.9581,-0.0950,0.6985,-0.6958,0.1461,0.0821
900,0.0,0.0,0.0,0.0,0.0,0.0,-0.3381,-0.9169,-0.1115,0.6975,-0.6952,0.1526,0.0833
901,0.0,0.0,0.0,0.0,0.0,0.0,-0.2882,-0.9501,-0.0807,0.6986,-0.6929,0.1571,0.0845
902,0.0,0.0,0.0,0.0,0.0,0.0,-0.3228,-0.9757,-0.0574,0.7012,-0.6892,0.1615,0.0852
903,0.0,0.0,0.0,0.0,0.0,0.0,-0.4005,-0.9744,-0.0434,0.7049,-0.6838,0.1679,0.0852
904,0.0,0.0,0.0,0.0,0.0,0.0,-0.3975,-0.9676,0.0005,0.7124,-0.6741,0.1763,0.0832
905,0.0,0.0,0.0,0.0,0.0,0.0,-0.3399,-0.9630,0.0254,0.7248,-0.6590,0.1847,0.0794
906,0.0,0.0,0.0,0.0,0.0,0.0,-0.3243,-0.9062,-0.0131,0.7372,-0.6434,0.1920,0.0757
907,0.0,0.0,0.0,0.0,0.0,0.0,-0.3216,-0.7785,-0.1232,0.7410,-0.6380,0.1959,0.0748
908,0.0,0.0,0.0,0.0,0.0,0.0,-0.2923,-0.7709,-0.1515,0.7370,-0.6420,0.1974,0.0761
909,0.0,0.0,0.0,0.0,0.0,0.0,-0.3111,-0.8616,-0.0252,0.7352,-0.6435,0.1987,0.0770
910,0.0,0.0,0.0,0.0,0.0,0.0,-0.3858,-0.9089,0.0209,0.7360,-0.6418,0.2025,0.0734
911,0.0,0.0,0.0,0.0,0.0,0.0,-0.3922,-0.8968,-0.0161,0.7361,-0.6409,0.2072,0.0670
912,0.0,0.0,0.0,0.0,0.0,0.0,-0.3410,-0.8741,-0.0306,0.7351,-0.6422,0.2083,0.0625
913,0.0,0.0,0.0,0.0,0.0,0.0,-0.3801,-0.8507,-0.0434,0.7324,-0.6460,0.2064,0.0615
914,0.0,0.0,0.0,0.0,0.0,0.0,-0.3805,-0.8633,-0.0298,0.7283,-0.6511,0.2043,0.0625
915,0.0,0.0,0.0,0.0,0.0,0.0,-0.3253,-0.9344,-0.0140,0.7254,-0.6553,0.2011,0.0631
916,0.0,0.0,0.0,0.0,0.0,0.0,-0.3287,-0.9193,-0.0370,0.7214,-0.6607,0.1983,0.0611
917,0.0,0.0,0.0,0.0,0.0,0.0,-0.3487,-0.9212,-0.0316,0.7179,-0.6652,0.1969,0.0583
918,0.0,0.0,0.0,0.0,0.0,0.0,-0.3330,-0.9834,-0.0111,0.7158,-0.6681,0.1960,0.0542
919,0.0,0.0,0.0,0.0,0.0,0.0,-0.3614,-0.9716,-0.0326,0.7138,-0.6703,0.1970,0.0485
920,0.0,0.0,0.0,0.0,0.0,0.0,-0.3487,-0.9566,-0.0599,0.7119,-0.6720,0.1994,0.0436
921,0.0,0.0,0.0,0.0,0.0,0.0,-0.3467,-1.0086,-0.0297,0.7112,-0.6726,0.2006,0.0400
922,0.0,0.0,0.0,0.0,0.0,0.0,-0.3375,-0.9834,-0.0599,0.7106,-0.6735,0.2001,0.0376
923,0.0,0.0,0.0,0.0,0.0,0.0,-0.3072,-0.9529,-0.0852,0.7091,-0.6755,0.1982,0.0398
924,0.0,0.0,0.0,0.0,0.0,0.0,-0.2847,-0.9792,-0.0632,0.7088,-0.6765,0.1956,0.0407
925,0.0,0.0,0.0,0.0,0.0,0.0,-0.3209,-0.9645,-0.0710,0.7082,-0.6774,0.1950,0.0405
926,0.0,0.0,0.0,0.0,0.0,0.0,-0.3174,-0.9728,-0.0608,0.7089,-0.6763,0.1967,0.0371
927,0.0,0.0,0.0,0.0,0.0,0.0,-0.2808,-0.9705,-0.0680,0.7102,-0.6745,0.1994,0.0316
928,0.0,0.0,0.0,0.0,0.0,0.0,-0.2964,-0.9690,-0.0729,0.7117,-0.6723,0.2020,0.0263
929,0.0,0.0,0.0,0.0,0.0,0.0,-0.2867,-0.9666,-0.0802,0.7135,-0.6702,0.2031,0.0216
930,0.0,0.0,0.0,0.0,0.0,0.0,-0.2891,-0.9525,-0.0793,0.7148,-0.6690,0.2026,0.0197
931,0.0,0.0,0.0,0.0,0.0,0.0,-0.2901,-0.9826,-0.0578,0.7170,-0.6674,0.2003,0.0193
932,0.0,0.0,0.0,0.0,0.0,0.0,-0.2803,-0.9865,-0.0524,0.7191,-0.6659,0.1980,0.0192
933,0.0,0.0,0.0,0.0,0.0,0.0,-0.2925,-0.9641,-0.0612,0.7215,-0.6635,0.1972,0.0174
934,0.0,0.0,0.0,0.0,0.0,0.0,-0.2976,-0.8121,-0.0900,0.7220,-0.6621,0.2003,0.0136
935,0.0,0.0,0.0,0.0,0.0,0.0,-0.2276,-0.9051,-0.0743,0.7233,-0.6605,0.2013,0.0088
936,0.0,0.0,0.0,0.0,0.0,0.0,-0.2207,-0.9236,-0.0796,0.7243,-0.6591,0.2025,0.0041
937,0.0,0.0,0.0,0.0,0.0,0.0,-0.2970,-0.9316,-0.0939,0.7239,-0.6588,0.2048,0.0004
938,0.0,0.0,0.0,0.0,0.0,0.0,-0.2960,-0.9092,-0.0998,0.7219,-0.6603,0.2072,-0.0009
939,0.0,0.0,0.0,0.0,0.0,0.0,-0.2442,-0.9128,-0.1002,0.7193,-0.6628,0.2082,-0.0011
940,0.0,0.0,0.0,0.0,0.0,0.0,-0.2393,-0.9182,-0.1001,0.7162,-0.6661,0.2082,-0.0003
941,0.0,0.0,0.0,0.0,0.0,0.0,-0.2544,-0.9429,-0.0719,0.7137,-0.6692,0.2069,-0.0001
942,0.0,0.0,0.0,0.0,0.0,0.0,-0.2755,-0.9414,-0.1124,0.7111,-0.6722,0.2059,-0.0020
943,0.0,0.0,0.0,0.0,0.0,0.0,-0.2594,-0.9016,-0.1211,0.7076,-0.6762,0.2051,-0.0038
944,0.0,0.0,0.0,0.0,0.0,0.0,-0.2350,-0.9221,-0.1289,0.7046,-0.6799,0.2033,-0.0068
945,0.0,0.0,0.0,0.0,0.0,0.0,-0.2535,-0.9337,-0.1211,0.7006,-0.6845,0.2013,-0.0093
946,0.0,0.0,0.0,0.0,0.0,0.0,-0.3028,-1.0025,-0.0710,0.6989,-0.6869,0.1989,-0.0123
947,0.0,0.0,0.0,0.0,0.0,0.0,-0.3292,-1.0252,-0.1066,0.6968,-0.6896,0.1969,-0.0141
948,0.0,0.0,0.0,0.0,0.0,0.0,-0.3048,-0.9811,-0.1042,0.6937,-0.6933,0.1950,-0.0139
949,0.0,0.0,0.0,0.0,0.0,0.0,-0.2676,-0.9924,-0.1026,0.6924,-0.6954,0.1920,-0.0124
950,0.0,0.0,0.0,0.0,0.0,0.0,-0.2369,-0.9842,-0.1279,0.6908,-0.6980,0.1883,-0.0098
951,0.0,0.0,0.0,0.0,0.0,0.0,-0.2256,-0.9707,-0.1113,0.6901,-0.7001,0.1832,-0.0064
952,0.0,0.0,0.0,0.0,0.0,0.0,-0.2115,-0.9586,-0.1513,0.6886,-0.7030,0.1779,-0.0027
953,0.0,0.0,0.0,0.0,0.0,0.0,-0.2017,-0.9640,-0.1278,0.6870,-0.7059,0.1727,0.0011
954,0.0,0.0,0.0,0.0,0.0,0.0,-0.2051,-0.9931,-0.1103,0.6869,-0.7071,0.1677,0.0044
955,0.0,0.0,0.0,0.0,0.0,0.0,-0.1850,-0.9864,-0.1186,0.6872,-0.7079,0.1632,0.0072
956,0.0,0.0,0.0,0.0,0.0,0.0,-0.1577,-0.9831,-0.0995,0.6894,-0.7068,0.1587,0.0089
957,0.0,0.0,0.0,0.0,0.0,0.0,-0.1782,-1.0024,-0.1020,0.6925,-0.7045,0.1549,0.0095
958,0.0,0.0,0.0,0.0,0.0,0.0,-0.1821,-0.9985,-0.0942,0.6957,-0.7021,0.1515,0.0110
959,0.0,0.0,0.0,0.0,0.0,0.0,-0.1742,-1.0102,-0.0829,0.6997,-0.6988,0.1480,0.0124
960,0.0,0.0,0.0,0.0,0.0,0.0,-0.1752,-0.9966,-0.1010,0.7026,-0.6966,0.1448,0.0145
961,0.0,0.0,0.0,0.0,0.0,0.0,-0.1669,-0.9801,-0.0980,0.7045,-0.6953,0.1414,0.0174
962,0.0,0.0,0.0,0.0,0.0,0.0,-0.1488,-1.0015,-0.0756,0.7069,-0.6935,0.1379,0.0199
963,0.0,0.0,0.0,0.0,0.0,0.0,-0.1606,-0.9733,-0.0971,0.7080,-0.6928,0.1354,0.0217
964,0.0,0.0,0.0,0.0,0.0,0.0,-0.1694,-0.9767,-0.0683,0.7097,-0.6913,0.1337,0.0229
965,0.0,0.0,0.0,0.0,0.0,0.0,-0.1684,-0.9976,-0.0717,0.7118,-0.6893,0.1331,0.0223
966,0.0,0.0,0.0,0.0,0.0,0.0,-0.1772,-0.9573,-0.0854,0.7128,-0.6881,0.1342,0.0206
967,0.0,0.0,0.0,0.0,0.0,0.0,-0.1885,-0.9495,-0.0903,0.7130,-0.6875,0.1367,0.0190
968,0.0,0.0,0.0,0.0,0.0,0.0,-0.1767,-0.9747,-0.0717,0.7129,-0.6872,0.1383,0.0180
969,0.0,0.0,0.0,0.0,0.0,0.0,-0.1865,-0.9655,-0.0820,0.7127,-0.6874,0.1387,0.0178
970,0.0,0.0,0.0,0.0,0.0,0.0,-0.2041,-0.9654,-0.0767,0.7119,-0.6882,0.1387,0.0186
971,0.0,0.0,0.0,0.0,0.0,0.0,-0.2031,-0.9712,-0.0776,0.7112,-0.6889,0.1387,0.0194
972,0.0,0.0,0.0,0.0,0.0,0.0,-0.1982,-0.9620,-0.0893,0.7104,-0.6896,0.1390,0.0196
973,0.0,0.0,0.0,0.0,0.0,0.0,-0.2051,-0.9630,-0.0923,0.7097,-0.6902,0.1397,0.0192
974,0.0,0.0,0.0,0.0,0.0,0.0,-0.2031,-0.9756,-0.0752,0.7100,-0.6898,0.1405,0.0180
975,0.0,0.0,0.0,0.0,0.0,0.0,-0.2134,-0.9834,-0.0757,0.7106,-0.6888,0.1423,0.0159
976,0.0,0.0,0.0,0.0,0.0,0.0,-0.2212,-0.9658,-0.0913,0.7107,-0.6883,0.1444,0.0141
977,0.0,0.0,0.0,0.0,0.0,0.0,-0.2114,-0.9707,-0.0777,0.7112,-0.6877,0.1452,0.0129
978,0.0,0.0,0.0,0.0,0.0,0.0,-0.2178,-0.9683,-0.0957,0.7110,-0.6878,0.1458,0.0126
979,0.0,0.0,0.0,0.0,0.0,0.0,-0.2202,-0.9537,-0.1030,0.7097,-0.6890,0.1463,0.0133
980,0.0,0.0,0.0,0.0,0.0,0.0,-0.2124,-0.9722,-0.0782,0.7092,-0.6896,0.1457,0.0144
981,0.0,0.0,0.0,0.0,0.0,0.0,-0.2173,-0.9804,-0.0684,0.7096,-0.6894,0.1452,0.0146
982,0.0,0.0,0.0,0.0,0.0,0.0,-0.2197,-0.9692,-0.0821,0.7100,-0.6889,0.1452,0.0142
983,0.0,0.0,0.0,0.0,0.0,0.0,-0.2178,-0.9659,-0.0791,0.7106,-0.6883,0.1453,0.0134
984,0.0,0.0,0.0,0.0,0.0,0.0,-0.2246,-0.9576,-0.0894,0.7110,-0.6878,0.1458,0.0122
985,0.0,0.0,0.0,0.0,0.0,0.0,-0.2271,-0.9459,-0.0913,0.7109,-0.6877,0.1468,0.0114
986,0.0,0.0,0.0,0.0,0.0,0.0,-0.2295,-0.9478,-0.0904,0.7103,-0.6882,0.1476,0.0111
987,0.0,0.0,0.0,0.0,0.0,0.0,-0.2388,-0.9663,-0.0646,0.7103,-0.6881,0.1480,0.0114
988,0.0,0.0,0.0,0.0,0.0,0.0,-0.2388,-0.9711,-0.0538,0.7109,-0.6875,0.1477,0.0117
989,0.0,0.0,0.0,0.0,0.0,0.0,-0.2398,-0.9629,-0.0680,0.7113,-0.6873,0.1467,0.0121
990,0.0,0.0,0.0,0.0,0.0,0.0,-0.2603,-0.9676,-0.0553,0.7117,-0.6869,0.1464,0.0130
991,0.0,0.0,0.0,0.0,0.0,0.0,-0.2773,-0.9962,-0.0524,0.7124,-0.6859,0.1478,0.0140
992,0.0,0.0,0.0,0.0,0.0,0.0,-0.2495,-0.9827,-0.0485,0.7130,-0.6849,0.1494,0.0154
993,0.0,0.0,0.0,0.0,0.0,0.0,-0.1884,-0.9723,-0.0542,0.7143,-0.6834,0.1496,0.0161
994,0.0,0.0,0.0,0.0,0.0,0.0,-0.1430,-0.9443,-0.0922,0.7146,-0.6835,0.1476,0.0166
995,0.0,0.0,0.0,0.0,0.0,0.0,-0.1601,-0.9335,-0.0854,0.7146,-0.6842,0.1448,0.0170
996,0.0,0.0,0.0,0.0,0.0,0.0,-0.1665,-0.9646,-0.0946,0.7142,-0.6851,0.1421,0.0171
997,0.0,0.0,0.0,0.0,0.0,0.0,-0.1650,-0.9748,-0.0961,0.7132,-0.6867,0.1399,0.0165
998,0.0,0.0,0.0,0.0,0.0,0.0,-0.1796,-0.9776,-0.0859,0.7130,-0.6871,0.1386,0.0146
999,0.0,0.0,0.0,0.0,0.0,0.0,-0.1777,-0.9825,-0.1093,0.7129,-0.6874,0.1381,0.0115
1000,0.0,0.0,0.0,0.0,0.0,0.0,-0.1933,-0.9854,-0.0961,0.7127,-0.6876,0.1386,0.0083
1001,0.0,0.0,0.0,0.0,0.0,0.0,-0.2114,-0.9950,-0.1045,0.7129,-0.6871,0.1398,0.0055
1002,0.0,0.0,0.0,0.0,0.0,0.0,-0.2075,-0.9858,-0.1108,0.7121,-0.6879,0.1406,0.0043
1003,0.0,0.0,0.0,0.0,0.0,0.0,-0.2036,-1.0057,-0.0674,0.7122,-0.6879,0.1399,0.0044
1004,0.0,0.0,0.0,0.0,0.0,0.0,-0.2075,-0.9999,-0.0937,0.7125,-0.6879,0.1383,0.0054
1005,0.0,0.0,0.0,0.0,0.0,0.0,-0.2105,-0.9625,-0.1040,0.7116,-0.6890,0.1373,0.0075
1006,0.0,0.0,0.0,0.0,0.0,0.0,-0.1831,-0.9689,-0.0917,0.7110,-0.6899,0.1362,0.0097
1007,0.0,0.0,0.0,0.0,0.0,0.0,-0.1635,-0.9772,-0.0844,0.7105,-0.6905,0.1352,0.0114
1008,0.0,0.0,0.0,0.0,0.0,0.0,-0.1767,-0.9752,-0.0830,0.7102,-0.6909,0.1347,0.0126
1009,0.0,0.0,0.0,0.0,0.0,0.0,-0.1767,-0.9655,-0.0971,0.7097,-0.6914,0.1346,0.0130
1010,0.0,0.0,0.0,0.0,0.0,0.0,-0.1757,-0.9621,-0.0869,0.7093,-0.6918,0.1348,0.0122
1011,0.0,0.0,0.0,0.0,0.0,0.0,-0.1836,-0.9699,-0.0922,0.7089,-0.6922,0.1349,0.0117
1012,0.0,0.0,0.0,0.0,0.0,0.0,-0.1938,-0.9669,-0.0947,0.7083,-0.6927,0.1352,0.0116
1013,0.0,0.0,0.0,0.0,0.0,0.0,-0.1938,-0.9596,-0.0991,0.7071,-0.6939,0.1352,0.0122
1014,0.0,0.0,0.0,0.0,0.0,0.0,-0.1919,-0.9747,-0.0869,0.7061,-0.6951,0.1346,0.0134
1015,0.0,0.0,0.0,0.0,0.0,0.0,-0.1923,-0.9810,-0.0854,0.7049,-0.6965,0.1331,0.0151
1016,0.0,0.0,0.0,0.0,0.0,0.0,-0.2080,-0.9853,-0.0781,0.7043,-0.6973,0.1320,0.0165
1017,0.0,0.0,0.0,0.0,0.0,0.0,-0.2133,-0.9960,-0.0757,0.7042,-0.6975,0.1316,0.0176
1018,0.0,0.0,0.0,0.0,0.0,0.0,-0.2212,-1.0027,-0.0728,0.7047,-0.6969,0.1320,0.0180
1019,0.0,0.0,0.0,0.0,0.0,0.0,-0.2138,-0.9935,-0.0699,0.7054,-0.6960,0.1329,0.0181
1020,0.0,0.0,0.0,0.0,0.0,0.0,-0.2075,-0.9824,-0.0757,0.7064,-0.6949,0.1336,0.0180
1021,0.0,0.0,0.0,0.0,0.0,0.0,-0.2187,-0.9722,-0.0826,0.7070,-0.6940,0.1347,0.0182
1022,0.0,0.0,0.0,0.0,0.0,0.0,-0.2168,-0.9829,-0.0606,0.7083,-0.6926,0.1351,0.0186
1023,0.0,0.0,0.0,0.0,0.0,0.0,-0.2217,-0.9741,-0.0777,0.7094,-0.6915,0.1350,0.0196
1024,0.0,0.0,0.0,0.0,0.0,0.0,-0.2192,-0.9527,-0.0801,0.7098,-0.6910,0.1348,0.0212
1025,0.0,0.0,0.0,0.0,0.0,0.0,-0.1973,-0.9421,-0.0845,0.7099,-0.6911,0.1340,0.0231
1026,0.0,0.0,0.0,0.0,0.0,0.0,-0.2036,-0.9654,-0.0630,0.7099,-0.6912,0.1329,0.0250
1027,0.0,0.0,0.0,0.0,0.0,0.0,-0.2124,-0.9790,-0.0665,0.7109,-0.6902,0.1328,0.0255
1028,0.0,0.0,0.0,0.0,0.0,0.0,-0.2036,-0.9475,-0.0820,0.7114,-0.6897,0.1330,0.0254
1029,0.0,0.0,0.0,0.0,0.0,0.0,-0.1934,-0.9451,-0.0884,0.7115,-0.6895,0.1337,0.0246
1030,0.0,0.0,0.0,0.0,0.0,0.0,-0.1757,-0.9519,-0.0825,0.7113,-0.6897,0.1334,0.0243
1031,0.0,0.0,0.0,0.0,0.0,0.0,-0.1914,-0.9524,-0.0791,0.7110,-0.6902,0.1323,0.0243
1032,0.0,0.0,0.0,0.0,0.0,0.0,-0.2114,-0.9678,-0.0830,0.7105,-0.6907,0.1319,0.0250
1033,0.0,0.0,0.0,0.0,0.0,0.0,-0.1962,-0.9790,-0.0708,0.7103,-0.6912,0.1308,0.0250
1034,0.0,0.0,0.0,0.0,0.0,0.0,-0.1943,-0.9771,-0.0762,0.7103,-0.6916,0.1291,0.0250
1035,0.0,0.0,0.0,0.0,0.0,0.0,-0.2031,-0.9756,-0.0864,0.7101,-0.6919,0.1279,0.0249
1036,0.0,0.0,0.0,0.0,0.0,0.0,-0.2094,-0.9872,-0.0708,0.7102,-0.6920,0.1273,0.0245
1037,0.0,0.0,0.0,0.0,0.0,0.0,-0.2026,-0.9907,-0.0811,0.7103,-0.6919,0.1270,0.0239
1038,0.0,0.0,0.0,0.0,0.0,0.0,-0.1899,-0.9766,-0.0840,0.7105,-0.6918,0.1265,0.0233
1039,0.0,0.0,0.0,0.0,0.0,0.0,-0.1836,-0.9723,-0.0825,0.7107,-0.6918,0.1256,0.0232
1040,0.0,0.0,0.0,0.0,0.0,0.0,-0.1889,-0.9762,-0.0883,0.7105,-0.6922,0.1247,0.0234
