,Position_X,Position_Y,Position_Z,Velocity_X,Velocity_Y,Velocity_Z,Acceleration_X,Acceleration_Y,Acceleration_Z,Quaterion_0,Quaterion_1,Quaterion_2,Quaterion_3
207.0,0.0,0.0,0.0,0.0,0.0,0.0,0.010585734620690346,-0.0034030377864837646,0.010839806869626045,1.0,0.0,0.0,0.0
208.0,0.0,0.0,0.0,0.0,0.0,0.0,0.007082784082740545,-0.0042656236328184605,0.007539891172200441,1.0,0.0,1.0842021724855044e-19,6.193928426797071e-20
209.0,0.0,0.0,0.0,0.0,0.0,0.0,-0.005299950484186411,0.0009395579108968377,-0.001806083251722157,1.0,0.0,-1.0842021724855044e-19,4.8916152703935845e-20
210.0,0.0,0.0,0.0,0.0,0.0,0.0,-0.014506524428725243,0.006117955315858126,-0.0004045827081426978,1.0,2.168404344971009e-19,2.168404344971009e-19,-3.8116482626443515e-21
211.0,0.0,0.0,0.0,0.0,0.0,0.0,-0.021581679582595825,0.012039712630212307,-0.0053028385154902935,1.0,-1.0842021724855044e-19,-2.168404344971009e-19,2.964615315390051e-20
212.0,0.0,0.0,0.0,0.0,0.0,0.0,-0.028045007959008217,0.015502684749662876,-0.010752232745289803,1.0,-1.0842021724855044e-19,-2.168404344971009e-19,-1.0249098661777034e-19
213.0,0.0,0.0,0.0,0.0,0.0,0.0,-0.030000096186995506,0.024019889533519745,-0.006959729827940464,1.0,1.0842021724855044e-19,0.0,1.1858461261560205e-19
214.0,0.0,0.0,0.0,0.0,0.0,0.0,-0.024896670132875443,0.03071800246834755,-0.0027931733056902885,1.0,3.2526065174565133e-19,-2.168404344971009e-19,-7.792703114739563e-20
215.0,0.0,0.0,0.0,0.0,0.0,0.0,-0.015074240043759346,0.027140606194734573,-0.001425894908607006,1.0,0.0,0.0,-1.6178329292557136e-19
216.0,0.0,0.0,0.0,0.0,0.0,0.0,-0.0032726223580539227,0.01850803941488266,-0.0032725022174417973,1.0,0.0,0.0,1.0164395367051604e-19
217.0,0.0,0.0,0.0,0.0,0.0,0.0,0.0028291225899010897,0.009109945967793465,-0.0018852584762498736,1.0,-6.505213034913027e-19,-4.336808689942018e-19,2.710505431213761e-20
218.0,0.0,0.0,0.0,0.0,0.0,0.0,0.0050026606768369675,0.006803590338677168,-6.163615034893155e-05,1.0,0.0,0.0,2.270048298641525e-19
219.0,0.0,0.0,0.0,0.0,0.0,0.0,-0.004213864915072918,0.011692345142364502,0.0007805982022546232,1.0,1.0842021724855044e-19,4.336808689942018e-19,2.879912020664621e-20
220.0,0.0,0.0,0.0,0.0,0.0,0.0,-0.015326175838708878,0.015164687298238277,-0.004084902815520763,1.0,-5.421010862427522e-20,0.0,8.470329472543003e-20
221.0,0.0,0.0,0.0,0.0,0.0,0.0,-0.019823405891656876,0.015024888329207897,-0.0021332891192287207,1.0,-1.3552527156068805e-20,4.336808689942018e-19,-1.7914746834428452e-19
222.0,0.0,0.0,0.0,0.0,0.0,0.0,-0.02075907029211521,0.016788404434919357,0.0025815078988671303,1.0,1.3552527156068805e-20,-4.336808689942018e-19,-4.2012834183813297e-19
223.0,0.0,0.0,0.0,0.0,0.0,0.0,-0.023253999650478363,0.021619094535708427,0.004951860755681992,1.0,0.0,2.168404344971009e-19,7.252719610864947e-21
224.0,0.0,0.0,0.0,0.0,0.0,0.0,-0.02720296010375023,0.02893684431910515,0.00494605815038085,1.0,-1.3552527156068805e-20,2.168404344971009e-19,-4.213988912590144e-20
225.0,0.0,0.0,0.0,0.0,0.0,0.0,-0.025438042357563972,0.03058905340731144,0.003763275919482112,1.0,0.0,5.421010862427522e-20,-7.555798587304376e-20
226.0,0.0,0.0,0.0,0.0,0.0,0.0,-0.022160205990076065,0.027755454182624817,0.0033887154422700405,1.0,0.0,2.168404344971009e-19,-1.6019510614946955e-19
227.0,0.0,0.0,0.0,0.0,0.0,0.0,-0.016980944201350212,0.024111926555633545,0.0031634552869945765,1.0,1.6263032587282567e-19,0.0,-4.1674021004911577e-19
228.0,0.0,0.0,0.0,0.0,0.0,0.0,-0.015306727029383183,0.021228918805718422,0.001624644617550075,1.0,0.0,4.336808689942018e-19,8.470329472543003e-19
229.0,0.0,0.0,0.0,0.0,0.0,0.0,-0.011673026718199253,0.01988876238465309,-0.0008796050096862018,1.0,-2.168404344971009e-19,-2.168404344971009e-19,-1.2675848055660605e-18
230.0,0.0,0.0,0.0,0.0,0.0,0.0,-0.00542106619104743,0.013958732597529888,-0.0009452521335333586,1.0,0.0,4.336808689942018e-19,1.8719428134320037e-19
231.0,0.0,0.0,0.0,0.0,0.0,0.0,-0.0013000768376514316,0.008487571962177753,0.00046477990690618753,1.0,0.0,0.0,5.933465795516374e-19
232.0,0.0,0.0,0.0,0.0,0.0,0.0,0.0017102431738749146,0.006661469582468271,-0.00038476515328511596,1.0,4.336808689942018e-19,2.168404344971009e-19,-3.5151867311053464e-19
233.0,0.0,0.0,0.0,0.0,0.0,0.0,0.00196901080198586,0.0078006465919315815,-0.0013194261118769646,1.0,0.0,0.0,-9.092898688774914e-19
234.0,0.0,0.0,0.0,0.0,0.0,0.0,0.0006470613880082965,0.009196892380714417,-0.002605789341032505,1.0,2.168404344971009e-19,0.0,-6.060520737604519e-19
235.0,0.0,0.0,0.0,0.0,0.0,0.0,-0.001752899494022131,0.00932882446795702,-0.0034208425786346197,1.0,0.0,0.0,3.3457801416544863e-20
236.0,0.0,0.0,0.0,0.0,0.0,0.0,-0.00569178769364953,0.01227378100156784,-0.005058268550783396,1.0,0.0,1.0842021724855044e-19,-1.5788694136820158e-18
237.0,0.0,0.0,0.0,0.0,0.0,0.0,-0.011013474315404892,0.02167443558573723,-0.0028130789287388325,1.0,0.0,0.0,3.441071348220595e-18
238.0,0.0,0.0,0.0,0.0,0.0,0.0,-0.012007269077003002,0.02634545974433422,0.0008381551597267389,1.0,-4.336808689942018e-19,-2.168404344971009e-19,-5.336307567702092e-19
239.0,0.0,0.0,0.0,0.0,0.0,0.0,-0.013661905191838741,0.019564174115657806,0.002705611987039447,1.0,2.168404344971009e-19,4.336808689942018e-19,1.760134464394436e-18
240.0,0.0,0.0,0.0,0.0,0.0,0.0,-0.01454142015427351,0.014071726240217686,4.485108001972549e-05,1.0,0.0,2.168404344971009e-19,-1.8600843521704435e-18
241.0,0.0,0.0,0.0,0.0,0.0,0.0,-0.015257180668413639,0.018634110689163208,-0.00020470771414693445,1.0,0.0,-4.336808689942018e-19,5.531125145570581e-18
242.0,0.0,0.0,0.0,0.0,0.0,0.0,-0.014019490219652653,0.02086339332163334,0.0005928637110628188,1.0,4.336808689942018e-19,0.0,-1.0282979979667206e-18
243.0,0.0,0.0,0.0,0.0,0.0,0.0,-0.012820260599255562,0.016776470467448235,0.001002337085083127,1.0,0.0,0.0,-2.270048298641525e-18
244.0,0.0,0.0,0.0,0.0,0.0,0.0,-0.010785195045173168,0.01450094673782587,-0.0016935678431764245,1.0,0.0,4.336808689942018e-19,-1.6059744679941534e-18
245.0,0.0,0.0,0.0,0.0,0.0,0.0,0.01139708049595356,0.0007615087670274079,0.00027599051827564836,1.0,-4.336808689942018e-19,0.0,-9.486769009248164e-19
246.0,0.0,0.0,0.0,0.0,0.0,0.0,0.02814042754471302,-0.013856949284672737,0.003341258503496647,1.0,0.0,-2.168404344971009e-19,2.537710709973884e-18
247.0,0.0,0.0,0.0,0.0,0.0,0.0,0.010546481236815453,-0.004345479421317577,-0.009318188764154911,1.0,0.0,2.168404344971009e-19,1.1163894244811678e-18
248.0,0.0,0.0,0.0,0.0,0.0,0.0,0.00129827915225178,0.0026359239127486944,-0.004153111483901739,1.0,0.0,1.0842021724855044e-19,1.5898808419963217e-18
249.0,0.0,0.0,0.0,0.0,0.0,0.0,-0.016559908166527748,0.010645963251590729,-0.005164172034710646,1.0,-4.336808689942018e-19,0.0,-2.256495771485456e-18
250.0,0.0,0.0,0.0,0.0,0.0,0.0,-0.02357845939695835,0.01178725529462099,-0.00897742435336113,1.0,-8.673617379884035e-19,0.0,-1.446732273910345e-18
251.0,0.0,0.0,0.0,0.0,0.0,0.0,-0.018824473023414612,0.016178356483578682,-0.002641106955707073,1.0,4.336808689942018e-19,2.168404344971009e-19,-2.3140940118987485e-18
252.0,0.0,0.0,0.0,0.0,0.0,0.0,-0.010208125226199627,0.019930662587285042,0.002583431778475642,1.0,-4.336808689942018e-19,-4.336808689942018e-19,2.197203465177655e-18
253.0,0.0,0.0,0.0,0.0,0.0,0.0,-0.006573031190782785,0.012690838426351547,0.0013693637447431684,1.0,-4.336808689942018e-19,0.0,-2.5682038960750386e-18
254.0,0.0,0.0,0.0,0.0,0.0,0.0,-0.00456007057800889,0.009977024979889393,0.00033680672640912235,1.0,0.0,2.168404344971009e-19,-5.844527336054672e-19
255.0,0.0,0.0,0.0,0.0,0.0,0.0,-0.004020642954856157,0.00806738343089819,0.002824609400704503,1.0,-4.336808689942018e-19,0.0,-8.876905287225068e-19
256.0,0.0,0.0,0.0,0.0,0.0,0.0,-0.006432226859033108,0.006428690627217293,0.00299268402159214,1.0,4.336808689942018e-19,2.168404344971009e-19,9.9272261418204e-19
257.0,0.0,0.0,0.0,0.0,0.0,0.0,-0.007294001057744026,0.005100171081721783,0.0014750107657164335,1.0,0.0,0.0,-1.4450382080158364e-18
258.0,0.0,0.0,0.0,0.0,0.0,0.0,-0.008172919973731041,0.006888459902256727,-0.0009709203150123358,1.0,4.336808689942018e-19,0.0,-7.115076756936123e-19
259.0,0.0,0.0,0.0,0.0,0.0,0.0,-0.002536495216190815,0.009688540361821651,0.001843760721385479,1.0,-2.168404344971009e-19,0.0,1.07742590890747e-18
260.0,0.0,0.0,0.0,0.0,0.0,0.0,-0.020210908725857735,0.02066420577466488,-0.0038935430347919464,1.0,0.0,-4.336808689942018e-19,2.1988975310721637e-18
261.0,0.0,0.0,0.0,0.0,0.0,0.0,-0.02586076222360134,0.024184750393033028,-0.0026135069783777,1.0,4.336808689942018e-19,0.0,1.6263032587282567e-18
262.0,0.0,0.0,0.0,0.0,0.0,0.0,-0.020756231620907784,0.023426951840519905,0.002873975085094571,1.0,-4.336808689942018e-19,4.336808689942018e-19,-2.0396553369883552e-18
263.0,0.0,0.0,0.0,0.0,0.0,0.0,-0.01856236718595028,0.015595092438161373,0.0025192638859152794,1.0,0.0,-1.734723475976807e-18,1.4230153513872246e-19
264.0,0.0,0.0,0.0,0.0,0.0,0.0,-0.013486546464264393,0.013534320518374443,0.0021925640758126974,1.0,0.0,8.673617379884035e-19,-1.3078188705606397e-18
265.0,0.0,0.0,0.0,0.0,0.0,0.0,-0.011696966364979744,0.013419460505247116,0.000842174282297492,1.0,0.0,0.0,9.961107459710572e-19
266.0,0.0,0.0,0.0,0.0,0.0,0.0,-0.01049757469445467,0.01182527281343937,-0.00012556083675008267,1.0,0.0,0.0,-1.7889335846010823e-18
267.0,0.0,0.0,0.0,0.0,0.0,0.0,-0.007979508489370346,0.009432165883481503,-0.0005017251241952181,1.0,4.336808689942018e-19,1.734723475976807e-18,9.351243737687476e-19
268.0,0.0,0.0,0.0,0.0,0.0,0.0,-0.004701873753219843,0.006706275977194309,-0.000862977874930948,1.0,0.0,0.0,3.1170812458958252e-19
269.0,0.0,0.0,0.0,0.0,0.0,0.0,-0.0024093198589980602,0.002480078721418977,-0.0008235147688537836,1.0,-4.336808689942018e-19,-8.673617379884035e-19,-3.130633773051894e-18
270.0,0.0,0.0,0.0,0.0,0.0,0.0,-0.0037082170601934195,0.0024774731136858463,-0.003416515653952956,1.0,0.0,0.0,1.2739375526704677e-18
271.0,0.0,0.0,0.0,0.0,0.0,0.0,-0.0058670383878052235,0.0024583349004387856,-0.003926183562725782,1.0,-4.336808689942018e-19,-8.673617379884035e-19,1.5178830414797062e-18
272.0,0.0,0.0,0.0,0.0,0.0,0.0,-0.0067125242203474045,0.0032705257181078196,-0.004061349667608738,1.0,4.336808689942018e-19,0.0,-1.0570971181733668e-18
273.0,0.0,0.0,0.0,0.0,0.0,0.0,-0.006348075810819864,0.0023971660993993282,-0.0028188868891447783,1.0,4.336808689942018e-19,8.673617379884035e-19,-7.792703114739563e-19
274.0,0.0,0.0,0.0,0.0,0.0,0.0,-0.004766155034303665,0.0006818958790972829,-0.003192534204572439,1.0,0.0,-8.673617379884035e-19,8.470329472543003e-19
275.0,0.0,0.0,0.0,0.0,0.0,0.0,-0.0007863403880037367,-0.00027926062466576695,-0.0011071074986830354,1.0,-4.336808689942018e-19,0.0,-1.7143946852427039e-18
276.0,0.0,0.0,0.0,0.0,0.0,0.0,-0.002661845413967967,-0.00020590599160641432,-0.0008612994570285082,1.0,0.0,-4.336808689942018e-19,-1.6127507315721878e-18
277.0,0.0,0.0,0.0,0.0,0.0,0.0,-0.00541622145101428,0.001105579431168735,0.00021300885418895632,1.0,0.0,4.336808689942018e-19,1.429791614965259e-18
278.0,0.0,0.0,0.0,0.0,0.0,0.0,-0.00671151140704751,0.003830147674307227,0.001201106351800263,1.0,-8.673617379884035e-19,-4.336808689942018e-19,1.8973538018496328e-19
279.0,0.0,0.0,0.0,0.0,0.0,0.0,-0.011677853763103485,0.0035987747833132744,0.0007897447212599218,1.0,0.0,-4.336808689942018e-19,4.743384504624082e-20
280.0,0.0,0.0,0.0,0.0,0.0,0.0,-0.0009924477199092507,0.0022927136160433292,0.0031114844605326653,1.0,-4.336808689942018e-19,0.0,1.1180834903756764e-18
281.0,0.0,0.0,0.0,0.0,0.0,0.0,0.036036714911460876,-0.02520798332989216,0.016292782500386238,1.0,-8.673617379884035e-19,0.0,-2.981555974335137e-19
282.0,0.0,0.0,0.0,0.0,0.0,0.0,0.028770728036761284,-0.016865238547325134,0.005633643828332424,1.0,0.0,4.336808689942018e-19,-1.1722935989999517e-18
283.0,0.0,0.0,0.0,0.0,0.0,0.0,0.006885414943099022,-0.0068397680297493935,-0.005842003971338272,1.0,0.0,4.336808689942018e-19,-3.5236570605778894e-19
284.0,0.0,0.0,0.0,0.0,0.0,0.0,-0.014324825257062912,0.002245489275082946,-0.010535208508372307,1.0,-8.673617379884035e-19,0.0,1.1926223897340549e-18
285.0,0.0,0.0,0.0,0.0,0.0,0.0,-0.022220024839043617,0.009770925156772137,-0.01146780326962471,1.0,8.673617379884035e-19,-4.336808689942018e-19,-9.283481101907132e-19
286.0,0.0,0.0,0.0,0.0,0.0,0.0,-0.01711096242070198,0.01474827155470848,-0.009114978834986687,1.0,1.734723475976807e-18,-4.336808689942018e-19,4.0657581468206416e-20
287.0,0.0,0.0,0.0,0.0,0.0,0.0,-0.012316001579165459,0.02021038345992565,-0.0009909213986247778,1.0,2.6020852139652106e-18,8.673617379884035e-19,-2.778268066994105e-18
288.0,0.0,0.0,0.0,0.0,0.0,0.0,-0.008428121916949749,0.016916021704673767,0.0006226127734407783,1.0,8.673617379884035e-19,-8.673617379884035e-19,-3.767602549387128e-18
289.0,0.0,0.0,0.0,0.0,0.0,0.0,-0.00845241453498602,0.009568577632308006,-0.00497437734156847,1.0,0.0,8.673617379884035e-19,1.531435568635775e-18
290.0,0.0,0.0,0.0,0.0,0.0,0.0,-0.014486566185951233,0.00792494136840105,-0.0023167128674685955,1.0,1.734723475976807e-18,-4.336808689942018e-19,4.472333961502706e-19
291.0,0.0,0.0,0.0,0.0,0.0,0.0,-0.015216372907161713,0.01241605170071125,0.0027986285276710987,1.0,0.0,2.168404344971009e-18,-1.5856456772600502e-18
292.0,0.0,0.0,0.0,0.0,0.0,0.0,-0.012246385216712952,0.010394448414444923,0.0012582946801558137,1.0,-1.734723475976807e-18,-4.336808689942018e-19,-2.574980159653073e-19
293.0,0.0,0.0,0.0,0.0,0.0,0.0,-0.005735795479267836,-0.005584577564150095,0.0015964570920914412,1.0,-1.734723475976807e-18,-4.336808689942018e-19,-8.131516293641283e-19
294.0,0.0,0.0,0.0,0.0,0.0,0.0,0.00833497941493988,-0.018912842497229576,0.0031070010736584663,1.0,-8.673617379884035e-19,0.0,3.1577388273640317e-18
295.0,0.0,0.0,0.0,0.0,0.0,0.0,0.00830855593085289,-0.013509195297956467,0.0016284073935821652,1.0,0.0,0.0,1.3417001884508117e-18
296.0,0.0,0.0,0.0,0.0,0.0,0.0,0.003151826560497284,-0.002798207802698016,-0.002890146104618907,1.0,-8.673617379884035e-19,4.336808689942018e-19,-4.472333961502706e-19
297.0,0.0,0.0,0.0,0.0,0.0,0.0,0.00748489098623395,0.005030211992561817,0.0006367885507643223,1.0,-1.734723475976807e-18,0.0,-1.2332799712022613e-18
298.0,0.0,0.0,0.0,0.0,0.0,0.0,0.0013796879211440682,0.010240240953862667,0.002488157944753766,1.0,0.0,0.0,-3.2526065174565133e-19
299.0,0.0,0.0,0.0,0.0,0.0,0.0,-0.006209514103829861,0.005519310012459755,-0.0012602803763002157,1.0,3.469446951953614e-18,4.336808689942018e-19,1.3552527156068805e-19
300.0,0.0,0.0,0.0,0.0,0.0,0.0,-0.009322129189968109,0.001859737909398973,-0.0035421811044216156,1.0,-1.734723475976807e-18,8.673617379884035e-19,-2.8731357570865868e-18
301.0,0.0,0.0,0.0,0.0,0.0,0.0,-0.011363801546394825,0.0008281906484626234,-0.009393252432346344,1.0,-1.734723475976807e-18,8.673617379884035e-19,-1.7076184216646695e-18
302.0,0.0,0.0,0.0,0.0,0.0,0.0,-0.01395596843212843,0.007343977689743042,-0.009455076418817043,1.0,-1.734723475976807e-18,0.0,4.0657581468206416e-19
303.0,0.0,0.0,0.0,0.0,0.0,0.0,-0.013858369551599026,0.017320070415735245,-0.003198470687493682,1.0,3.469446951953614e-18,-8.673617379884035e-19,-3.7947076036992655e-19
304.0,0.0,0.0,0.0,0.0,0.0,0.0,-0.007947519421577454,0.02402634732425213,-0.0014696420403197408,1.0,0.0,0.0,7.047314121155779e-19
305.0,0.0,0.0,0.0,0.0,0.0,0.0,-0.00212942436337471,0.022396668791770935,0.0014419732615351677,1.0,5.204170427930421e-18,-8.673617379884035e-19,-2.168404344971009e-19
306.0,0.0,0.0,0.0,0.0,0.0,0.0,0.000868355156853795,0.019374506548047066,0.0033651154953986406,1.0,0.0,1.734723475976807e-18,4.336808689942018e-19
307.0,0.0,0.0,0.0,0.0,0.0,0.0,0.0019803473260253668,0.01606718823313713,0.0032678761053830385,1.0,0.0,1.734723475976807e-18,2.710505431213761e-19
308.0,0.0,0.0,0.0,0.0,0.0,0.0,0.00391096668317914,0.01675117388367653,-0.0016009141691029072,1.0,0.0,0.0,-5.421010862427522e-20
309.0,0.0,0.0,0.0,0.0,0.0,0.0,0.00405238987877965,0.01950332708656788,-0.0048398119397461414,1.0,0.0,0.0,1.6263032587282567e-19
310.0,0.0,0.0,0.0,0.0,0.0,0.0,0.0004938106867484748,0.026172354817390442,-0.003753523575142026,1.0,0.0,8.673617379884035e-19,1.0842021724855044e-19
311.0,0.0,0.0,0.0,0.0,0.0,0.0,-0.0024494854733347893,0.02769349329173565,-0.00029016536427661777,1.0,-1.734723475976807e-18,0.0,-5.421010862427522e-20
312.0,0.0,0.0,0.0,0.0,0.0,0.0,-0.005431673023849726,0.02360089309513569,0.00027410805341787636,1.0,1.734723475976807e-18,1.734723475976807e-18,2.168404344971009e-19
313.0,0.0,0.0,0.0,0.0,0.0,0.0,-0.0059403060004115105,0.01969640702009201,-0.0009185542003251612,1.0,0.0,8.673617379884035e-19,-1.0299920638612292e-18
314.0,0.0,0.0,0.0,0.0,0.0,0.0,-0.006228349637240171,0.0202151071280241,-0.00033038383116945624,1.0,-1.734723475976807e-18,-1.734723475976807e-18,-4.87890977618477e-19
315.0,0.0,0.0,0.0,0.0,0.0,0.0,-0.00676328968256712,0.023858200758695602,-0.0029075387865304947,1.0,-1.734723475976807e-18,-1.734723475976807e-18,1.0842021724855044e-19
316.0,0.0,0.0,0.0,0.0,0.0,0.0,-0.004575623199343681,0.02523595467209816,-0.004514713305979967,1.0,1.734723475976807e-18,0.0,1.0842021724855044e-19
317.0,0.0,0.0,0.0,0.0,0.0,0.0,-0.003646405879408121,0.021491244435310364,-0.003420606954023242,1.0,0.0,0.0,9.215718466126788e-19
318.0,0.0,0.0,0.0,0.0,0.0,0.0,0.0005714963190257549,0.01646781712770462,-0.0038501715753227472,1.0,-5.204170427930421e-18,-3.469446951953614e-18,-3.2526065174565133e-19
319.0,0.0,0.0,0.0,0.0,0.0,0.0,0.0032496806234121323,0.018377777189016342,0.0010757193667814136,1.0,0.0,1.734723475976807e-18,3.7947076036992655e-19
320.0,0.0,0.0,0.0,0.0,0.0,0.0,0.004553466569632292,0.02248244732618332,0.0036314784083515406,1.0,-1.734723475976807e-18,0.0,-5.421010862427522e-19
321.0,0.0,0.0,0.0,0.0,0.0,0.0,0.0076775504276156425,0.016735132783651352,0.006634111981838942,1.0,0.0,-1.734723475976807e-18,-3.2526065174565133e-19
322.0,0.0,0.0,0.0,0.0,0.0,0.0,0.01341299805790186,0.00915820337831974,0.00361247593536973,1.0,0.0,0.0,-6.505213034913027e-19
323.0,0.0,0.0,0.0,0.0,0.0,0.0,0.015304114669561386,0.007006830535829067,0.003373842453584075,1.0,-3.469446951953614e-18,3.469446951953614e-18,4.336808689942018e-19
324.0,0.0,0.0,0.0,0.0,0.0,0.0,0.01728004403412342,0.0025252276100218296,0.003911823965609074,1.0,1.734723475976807e-18,0.0,8.673617379884035e-19
325.0,0.0,0.0,0.0,0.0,0.0,0.0,0.016373062506318092,0.0005621965392492712,-0.0036682679783552885,1.0,-5.204170427930421e-18,-3.469446951953614e-18,-1.951563910473908e-18
326.0,0.0,0.0,0.0,0.0,0.0,0.0,0.017409300431609154,-0.002573921112343669,-0.006540282163769007,1.0,-1.734723475976807e-18,-1.734723475976807e-18,7.589415207398531e-19
327.0,0.0,0.0,0.0,0.0,0.0,0.0,0.018820999190211296,-0.009001107886433601,-0.002758509013801813,1.0,0.0,-1.734723475976807e-18,-8.131516293641283e-19
328.0,0.0,0.0,0.0,0.0,0.0,0.0,0.01517646573483944,-0.012079648673534393,-0.011314206756651402,1.0,1.734723475976807e-18,0.0,8.673617379884035e-19
329.0,0.0,0.0,0.0,0.0,0.0,0.0,0.011158171109855175,-0.008359711617231369,-0.01014172937721014,1.0,0.0,-1.734723475976807e-18,-3.7947076036992655e-19
330.0,0.0,0.0,0.0,0.0,0.0,0.0,0.003935458138585091,0.0009932302637025714,-0.00476163811981678,1.0,0.0,-2.6020852139652106e-18,-7.047314121155779e-19
331.0,0.0,0.0,0.0,0.0,0.0,0.0,-7.488555274903774e-05,0.002091206144541502,-0.00576017564162612,1.0,-1.734723475976807e-18,0.0,-1.6263032587282567e-18
332.0,0.0,0.0,0.0,0.0,0.0,0.0,-0.0007575788768008351,0.0035640462301671505,-0.002760767238214612,1.0,-1.734723475976807e-18,1.734723475976807e-18,2.168404344971009e-19
333.0,0.0,0.0,0.0,0.0,0.0,0.0,-0.0036274439189583063,0.007532839197665453,-0.0012191886780783534,1.0,-1.734723475976807e-18,-1.734723475976807e-18,-8.131516293641283e-19
334.0,0.0,0.0,0.0,0.0,0.0,0.0,-0.007971699349582195,0.0064695109613239765,0.0012701032683253288,1.0,1.734723475976807e-18,-1.734723475976807e-18,2.168404344971009e-19
335.0,0.0,0.0,0.0,0.0,0.0,0.0,-0.009300843812525272,0.0002685153449419886,-0.001941269962117076,1.0,-1.734723475976807e-18,0.0,-1.3010426069826053e-18
336.0,0.0,0.0,0.0,0.0,0.0,0.0,-0.0049652596935629845,-0.0027080790605396032,-0.0045326631516218185,1.0,0.0,0.0,-7.047314121155779e-19
337.0,0.0,0.0,0.0,0.0,0.0,0.0,0.00045394545304588974,0.0004657867248170078,-0.002355908742174506,1.0,-1.734723475976807e-18,0.0,-7.589415207398531e-19
338.0,0.0,0.0,0.0,0.0,0.0,0.0,0.0017072117188945413,0.0017261607572436333,-0.01089548785239458,1.0,1.734723475976807e-18,0.0,1.6263032587282567e-19
339.0,0.0,0.0,0.0,0.0,0.0,0.0,-0.00016072923608589917,-0.0009005440515466034,-0.011005580425262451,1.0,1.734723475976807e-18,0.0,-7.047314121155779e-19
340.0,0.0,0.0,0.0,0.0,0.0,0.0,0.004067009314894676,-0.009647435508668423,-0.0033536411356180906,1.0,1.734723475976807e-18,1.734723475976807e-18,7.047314121155779e-19
341.0,0.0,0.0,0.0,0.0,0.0,0.0,0.01480581983923912,-0.020786067470908165,0.0024361899122595787,1.0,0.0,0.0,1.0842021724855044e-19
342.0,0.0,0.0,0.0,0.0,0.0,0.0,0.022246260195970535,-0.025212861597537994,0.008767204359173775,1.0,0.0,1.734723475976807e-18,-1.3552527156068805e-18
343.0,0.0,0.0,0.0,0.0,0.0,0.0,0.018807239830493927,-0.018092289566993713,0.006537985987961292,1.0,-3.469446951953614e-18,-1.734723475976807e-18,1.6805133673525319e-18
344.0,0.0,0.0,0.0,0.0,0.0,0.0,0.005928818602114916,-0.005898247007280588,-0.00250165699981153,1.0,1.734723475976807e-18,-1.734723475976807e-18,-2.710505431213761e-19
345.0,0.0,0.0,0.0,0.0,0.0,0.0,-0.004976034630089998,0.0009899050928652287,-0.009020631201565266,1.0,0.0,0.0,5.421010862427522e-19
346.0,0.0,0.0,0.0,0.0,0.0,0.0,-0.010068608447909355,0.00484421756118536,-0.011028767563402653,1.0,1.734723475976807e-18,-1.734723475976807e-18,-3.2526065174565133e-19
347.0,0.0,0.0,0.0,0.0,0.0,0.0,-0.010727166198194027,0.00219886121340096,-0.012426641769707203,1.0,0.0,1.734723475976807e-18,-4.87890977618477e-19
348.0,0.0,0.0,0.0,0.0,0.0,0.0,-0.0015581262996420264,-0.003281492507085204,-0.007216407917439938,1.0,1.734723475976807e-18,-1.734723475976807e-18,7.047314121155779e-19
349.0,0.0,0.0,0.0,0.0,0.0,0.0,0.012038889341056347,-0.010982703417539597,-0.003406481584534049,1.0,1.734723475976807e-18,1.734723475976807e-18,1.0842021724855044e-18
350.0,0.0,0.0,0.0,0.0,0.0,0.0,0.01703854463994503,-0.013702347874641418,-0.006985872518271208,1.0,-5.204170427930421e-18,0.0,-1.0842021724855044e-19
351.0,0.0,0.0,0.0,0.0,0.0,0.0,0.012222744524478912,-0.010865953750908375,-0.007596892304718494,1.0,-1.734723475976807e-18,-1.734723475976807e-18,-4.336808689942018e-19
352.0,0.0,0.0,0.0,0.0,0.0,0.0,0.010837606154382229,-0.007875447161495686,-0.011213168501853943,1.0,-8.673617379884035e-19,-3.469446951953614e-18,-1.8973538018496328e-19
353.0,0.0,0.0,0.0,0.0,0.0,0.0,0.01587381772696972,-0.0119695533066988,-0.0075798179022967815,1.0,8.673617379884035e-19,-1.734723475976807e-18,-8.131516293641283e-20
354.0,0.0,0.0,0.0,0.0,0.0,0.0,0.014214873313903809,-0.017886074259877205,-0.008224871009588242,1.0,0.0,3.469446951953614e-18,8.131516293641283e-20
355.0,0.0,0.0,0.0,0.0,0.0,0.0,0.011076758615672588,-0.012964845634996891,-0.0004153768823016435,1.0,0.0,0.0,2.0328790734103208e-19
356.0,0.0,0.0,0.0,0.0,0.0,0.0,0.007182236760854721,-0.007557704579085112,-0.005064068827778101,1.0,-4.336808689942018e-19,1.734723475976807e-18,-3.3881317890172014e-19
357.0,0.0,0.0,0.0,0.0,0.0,0.0,0.007860963232815266,-0.009967735037207603,-0.0005437739891931415,1.0,0.0,5.204170427930421e-18,-5.64123942871364e-19
358.0,0.0,0.0,0.0,0.0,0.0,0.0,0.010643623769283295,-0.00783446989953518,0.003062798408791423,1.0,2.168404344971009e-19,1.734723475976807e-18,3.8624702394796095e-19
359.0,0.0,0.0,0.0,0.0,0.0,0.0,0.01813768967986107,-0.0074161626398563385,0.005442457273602486,1.0,0.0,-3.469446951953614e-18,7.860465750519907e-19
360.0,0.0,0.0,0.0,0.0,0.0,0.0,0.013688120059669018,-0.01353895291686058,0.002277013147249818,1.0,8.673617379884035e-19,0.0,-1.8973538018496328e-19
361.0,0.0,0.0,0.0,0.0,0.0,0.0,0.007587084546685219,-0.015239568427205086,0.0011009712470695376,1.0,-8.673617379884035e-19,0.0,7.860465750519907e-19
362.0,0.0,0.0,0.0,0.0,0.0,0.0,0.006429227069020271,-0.010814806446433067,0.0006071853567846119,1.0,8.673617379884035e-19,-1.734723475976807e-18,1.1655173354219173e-18
363.0,0.0,0.0,0.0,0.0,0.0,0.0,0.006465476471930742,-0.010067063383758068,-0.0030627732630819082,1.0,0.0,8.673617379884035e-19,6.2341624917916505e-19
364.0,0.0,0.0,0.0,0.0,0.0,0.0,0.01185681764036417,-0.014921033754944801,-0.0052258907817304134,1.0,-8.673617379884035e-19,0.0,-7.589415207398531e-19
365.0,0.0,0.0,0.0,0.0,0.0,0.0,0.014325043186545372,-0.02424130029976368,-0.007722829468548298,1.0,8.673617379884035e-19,0.0,5.149960319306146e-19
366.0,0.0,0.0,0.0,0.0,0.0,0.0,0.014071070589125156,-0.025848470628261566,-0.008924946188926697,1.0,0.0,8.673617379884035e-19,-9.215718466126788e-19
367.0,0.0,0.0,0.0,0.0,0.0,0.0,0.01344303134828806,-0.02197808027267456,-0.010693647898733616,1.0,-1.734723475976807e-18,8.673617379884035e-19,3.7947076036992655e-19
368.0,0.0,0.0,0.0,0.0,0.0,0.0,0.010201036930084229,-0.017796814441680908,-0.012976125814020634,1.0,8.673617379884035e-19,8.673617379884035e-19,4.0657581468206416e-19
369.0,0.0,0.0,0.0,0.0,0.0,0.0,0.007678929250687361,-0.017514729872345924,-0.012553918175399303,1.0,0.0,8.673617379884035e-19,-1.4094628242311558e-18
370.0,0.0,0.0,0.0,0.0,0.0,0.0,0.004288847558200359,-0.019557897001504898,-0.012356086634099483,1.0,0.0,0.0,-8.673617379884035e-19
371.0,0.0,0.0,0.0,0.0,0.0,0.0,0.010099737904965878,-0.025520874187350273,-0.013845577836036682,1.0,-1.734723475976807e-18,0.0,-2.4936649967166602e-18
372.0,0.0,0.0,0.0,0.0,0.0,0.0,0.026134109124541283,-0.030419355258345604,-0.009325028397142887,1.0,0.0,0.0,2.1955093992831465e-18
373.0,0.0,0.0,0.0,0.0,0.0,0.0,0.027239177376031876,-0.03699241578578949,-0.0065898471511900425,1.0,0.0,-8.673617379884035e-19,2.846030702774449e-18
374.0,0.0,0.0,0.0,0.0,0.0,0.0,0.01968446560204029,-0.04733496159315109,-0.008178607560694218,1.0,0.0,0.0,5.963111948670274e-19
375.0,0.0,0.0,0.0,0.0,0.0,0.0,0.010921018198132515,-0.05496040731668472,-0.00473983446136117,1.0,-1.734723475976807e-18,4.336808689942018e-19,-6.640738306473715e-19
376.0,0.0,0.0,0.0,0.0,0.0,0.0,0.007364555262029171,-0.046228110790252686,0.0247261431068182,1.0,1.734723475976807e-18,4.336808689942018e-19,1.4365678785432934e-18
377.0,0.0,0.0,0.0,0.0,0.0,0.0,-0.0015077622374519706,-0.02995089255273342,0.01976814679801464,1.0,0.0,0.0,2.2768245622195593e-18
378.0,0.0,0.0,0.0,0.0,0.0,0.0,-0.016018034890294075,-0.018343474715948105,0.0029372964054346085,1.0,-1.734723475976807e-18,4.336808689942018e-19,-2.290377089375628e-18
379.0,0.0,0.0,0.0,0.0,0.0,0.0,-0.014221901074051857,-0.016546329483389854,0.0022651765029877424,1.0,-1.734723475976807e-18,4.336808689942018e-19,-2.7647155398380363e-18
380.0,0.0,0.0,0.0,0.0,0.0,0.0,-0.0008506886078976095,-0.020029867067933083,0.0014484836719930172,1.0,3.469446951953614e-18,-4.336808689942018e-19,4.445228907190568e-18
381.0,0.0,0.0,0.0,0.0,0.0,0.0,0.0042300052009522915,-0.025727571919560432,-0.0012842656578868628,1.0,1.734723475976807e-18,0.0,1.5720931501039814e-18
382.0,0.0,0.0,0.0,0.0,0.0,0.0,0.010189926251769066,-0.02886236272752285,0.002823812421411276,1.0,-5.204170427930421e-18,0.0,-2.710505431213761e-19
383.0,0.0,0.0,0.0,0.0,0.0,0.0,0.009037722833454609,-0.027775712311267853,0.00504854554310441,1.0,-3.469446951953614e-18,-8.673617379884035e-19,-1.0842021724855044e-18
384.0,0.0,0.0,0.0,0.0,0.0,0.0,0.003067015204578638,-0.024840448051691055,2.8275460863369517e-05,1.0,0.0,-8.673617379884035e-19,3.2526065174565133e-18
385.0,0.0,0.0,0.0,0.0,0.0,0.0,0.006982095073908567,-0.02341957949101925,-0.0010713170049712062,1.0,0.0,0.0,2.1141942363467336e-18
386.0,0.0,0.0,0.0,0.0,0.0,0.0,0.011363737285137177,-0.022032450884580612,-0.0019120753277093172,1.0,-3.469446951953614e-18,0.0,-7.589415207398531e-19
387.0,0.0,0.0,0.0,0.0,0.0,0.0,0.018425097689032555,-0.01644226536154747,0.0016364258481189609,1.0,1.734723475976807e-18,0.0,-2.656295322589486e-18
388.0,0.0,0.0,0.0,0.0,0.0,0.0,0.023146184161305428,-0.016455071046948433,0.004310425836592913,1.0,0.0,-8.673617379884035e-19,4.119968255444917e-18
389.0,0.0,0.0,0.0,0.0,0.0,0.0,0.025720659643411636,-0.017319850623607635,0.006225273944437504,1.0,-3.469446951953614e-18,-4.336808689942018e-19,1.2197274440461925e-18
390.0,0.0,0.0,0.0,0.0,0.0,0.0,0.02188328467309475,-0.01915290206670761,0.008544303476810455,1.0,0.0,-4.336808689942018e-19,1.870248747537495e-18
391.0,0.0,0.0,0.0,0.0,0.0,0.0,0.018522270023822784,-0.025369180366396904,0.010616867803037167,1.0,-1.734723475976807e-18,-5.421010862427522e-20,-5.844527336054672e-19
392.0,0.0,0.0,0.0,0.0,0.0,0.0,0.008176238276064396,-0.030352355912327766,0.003004927420988679,1.0,-1.734723475976807e-18,-1.0842021724855044e-19,8.470329472543003e-19
393.0,0.0,0.0,0.0,0.0,0.0,0.0,-0.007925293408334255,-0.033944547176361084,-0.017470115795731544,1.0,-1.734723475976807e-18,2.168404344971009e-19,9.893344823930228e-19
394.0,0.0,0.0,0.0,0.0,0.0,0.0,-0.018247956410050392,-0.026785317808389664,-0.02802293188869953,1.0,-1.734723475976807e-18,-2.168404344971009e-19,-1.2061749168901237e-18
395.0,0.0,0.0,0.0,0.0,0.0,0.0,-0.022375736385583878,-0.008985476568341255,-0.02791479602456093,1.0,-5.204170427930421e-18,0.0,-2.710505431213761e-20
396.0,0.0,0.0,0.0,0.0,0.0,0.0,-0.01407639030367136,0.0006418010452762246,-0.024611884728074074,1.0,0.0,0.0,8.944667923005412e-19
397.0,0.0,0.0,0.0,0.0,0.0,0.0,-0.0019081722712144256,-0.006691282615065575,-0.023302122950553894,1.0,0.0,6.505213034913027e-19,-5.421010862427522e-20
398.0,0.0,0.0,0.0,0.0,0.0,0.0,0.013202403672039509,-0.007788858842104673,-0.018750112503767014,1.0,-3.469446951953614e-18,8.673617379884035e-19,-3.7947076036992655e-19
399.0,0.0,0.0,0.0,0.0,0.0,0.0,0.023613380268216133,-0.004395314492285252,-0.013305183500051498,1.0,6.938893903907228e-18,8.673617379884035e-19,-2.981555974335137e-19
400.0,0.0,0.0,0.0,0.0,0.0,0.0,0.02382235787808895,-0.004952595569193363,-0.014766701497137547,1.0,-3.469446951953614e-18,-8.673617379884035e-19,8.131516293641283e-19
401.0,0.0,0.0,0.0,0.0,0.0,0.0,0.02350538782775402,-0.00916033424437046,-0.01811819151043892,1.0,0.0,-2.6020852139652106e-18,3.2526065174565133e-19
402.0,0.0,0.0,0.0,0.0,0.0,0.0,0.027106042951345444,-0.01740437000989914,-0.011361667886376381,1.0,3.469446951953614e-18,0.0,3.2526065174565133e-19
403.0,0.0,0.0,0.0,0.0,0.0,0.0,0.040080759674310684,-0.030389418825507164,0.007759829983115196,1.0,0.0,-1.734723475976807e-18,1.5178830414797062e-18
404.0,0.0,0.0,0.0,0.0,0.0,0.0,0.04185552895069122,-0.039618294686079025,0.018576376140117645,1.0,-3.469446951953614e-18,3.469446951953614e-18,0.0
405.0,0.0,0.0,0.0,0.0,0.0,0.0,0.04107559472322464,-0.04540909826755524,0.020322198048233986,1.0,0.0,0.0,-4.336808689942018e-18
406.0,0.0,0.0,0.0,0.0,0.0,0.0,0.029593676328659058,-0.04434821009635925,0.02669704519212246,1.0,0.0,0.0,7.806255641895632e-18
407.0,0.0,0.0,0.0,0.0,0.0,0.0,0.012285959906876087,-0.03888951614499092,0.03776976838707924,1.0,0.0,0.0,-3.0357660829594124e-18
408.0,0.0,0.0,0.0,0.0,0.0,0.0,-0.0037143086083233356,-0.03843976929783821,0.03195719048380852,1.0,0.0,0.0,4.336808689942018e-19
409.0,0.0,0.0,0.0,0.0,0.0,0.0,-0.023923005908727646,-0.03580809757113457,0.038356345146894455,1.0,-3.469446951953614e-18,-6.938893903907228e-18,4.336808689942018e-19
410.0,0.0,0.0,0.0,0.0,0.0,0.0,-0.05045526847243309,-0.03794031962752342,0.02016877941787243,1.0,-3.469446951953614e-18,0.0,4.7704895589362195e-18
411.0,0.0,0.0,0.0,0.0,0.0,0.0,-0.07649566978216171,-0.05419544503092766,-0.018743060529232025,1.0,3.469446951953614e-18,-6.938893903907228e-18,1.3010426069826053e-18
412.0,0.0,0.0,0.0,0.0,0.0,0.0,-0.07733017206192017,-0.05074638873338699,-0.03472958132624626,1.0,6.938893903907228e-18,0.0,-8.673617379884035e-19
413.0,0.0,0.0,0.0,0.0,0.0,0.0,-0.051524512469768524,-0.024368392303586006,-0.020299876108765602,1.0,0.0,-1.0408340855860843e-17,1.734723475976807e-18
414.0,0.0,0.0,0.0,0.0,0.0,0.0,-0.01841757260262966,-0.009513680823147297,-0.0007139987428672612,1.0,0.0,0.0,-1.3010426069826053e-18
415.0,0.0,0.0,0.0,0.0,0.0,0.0,-0.007279213983565569,-0.00652647390961647,0.007949046790599823,1.0,3.469446951953614e-18,0.0,-2.168404344971009e-19
416.0,0.0,0.0,0.0,0.0,0.0,0.0,-0.00040498850285075605,-0.011943443678319454,-0.002545940922573209,1.0,3.469446951953614e-18,-1.734723475976807e-18,3.0357660829594124e-18
417.0,0.0,0.0,0.0,0.0,0.0,0.0,0.006434543989598751,-0.02180301956832409,-0.01487403642386198,1.0,-6.938893903907228e-18,0.0,5.421010862427522e-19
418.0,0.0,0.0,0.0,0.0,0.0,0.0,0.006232591345906258,-0.035228095948696136,-0.017616253346204758,1.0,-6.938893903907228e-18,-6.505213034913027e-19,-1.3010426069826053e-18
419.0,0.0,0.0,0.0,0.0,0.0,0.0,0.024981459602713585,-0.0171156395226717,-0.022037990391254425,1.0,0.0,8.673617379884035e-19,-2.927345865710862e-18
420.0,0.0,0.0,0.0,0.0,0.0,0.0,0.017561493441462517,-0.003303501522168517,-0.03931846469640732,1.0,6.938893903907228e-18,-5.204170427930421e-18,-2.168404344971009e-18
421.0,0.0,0.0,0.0,0.0,0.0,0.0,0.022652974352240562,0.01419705431908369,-0.022727888077497482,1.0,0.0,0.0,-1.734723475976807e-18
422.0,0.0,0.0,0.0,0.0,0.0,0.0,0.029475107789039612,0.023221993818879128,-0.010437455959618092,1.0,6.938893903907228e-18,-3.469446951953614e-18,2.6020852139652106e-18
423.0,0.0,0.0,0.0,0.0,0.0,0.0,0.005412123166024685,0.04190215468406677,0.002653516363352537,1.0,-1.3877787807814457e-17,6.938893903907228e-18,6.071532165918825e-18
424.0,0.0,0.0,0.0,0.0,0.0,0.0,-0.003237135009840131,0.04592360556125641,0.015455887652933598,1.0,2.0816681711721685e-17,6.938893903907228e-18,-1.734723475976807e-18
425.0,0.0,0.0,0.0,0.0,0.0,0.0,0.0023196719121187925,0.03887457400560379,0.016317157074809074,1.0,6.938893903907228e-18,-6.938893903907228e-18,0.0
426.0,0.0,0.0,0.0,0.0,0.0,0.0,0.008485104888677597,0.03423421084880829,0.01991988904774189,1.0,6.938893903907228e-18,0.0,0.0
427.0,0.0,0.0,0.0,0.0,0.0,0.0,0.012506415136158466,0.030070563778281212,0.025995250791311264,1.0,6.938893903907228e-18,-1.3877787807814457e-17,0.0
428.0,0.0,0.0,0.0,0.0,0.0,0.0,0.012063241563737392,0.03109568916261196,0.030978454276919365,1.0,6.938893903907228e-18,6.938893903907228e-18,0.0
429.0,0.0,0.0,0.0,0.0,0.0,0.0,0.0055132461711764336,0.03754159435629845,0.02035282552242279,1.0,-6.938893903907228e-18,0.0,1.734723475976807e-18
430.0,0.0,0.0,0.0,0.0,0.0,0.0,-0.003781104227527976,0.04491875320672989,0.008133910596370697,1.0,6.938893903907228e-18,0.0,0.0
431.0,0.0,0.0,0.0,0.0,0.0,0.0,-0.004584575071930885,0.040471795946359634,0.009573755785822868,1.0,0.0,6.938893903907228e-18,-1.734723475976807e-18
432.0,0.0,0.0,0.0,0.0,0.0,0.0,-0.0002692035341169685,0.025141440331935883,0.0012912723468616605,1.0,-2.0816681711721685e-17,0.0,0.0
433.0,0.0,0.0,0.0,0.0,0.0,0.0,0.001079260604456067,0.016543064266443253,-0.0005477822851389647,1.0,6.938893903907228e-18,-6.938893903907228e-18,-1.734723475976807e-18
434.0,0.0,0.0,0.0,0.0,0.0,0.0,0.00813585240393877,0.017160965129733086,-0.005959273315966129,1.0,6.938893903907228e-18,-1.3877787807814457e-17,1.734723475976807e-18
435.0,0.0,0.0,0.0,0.0,0.0,0.0,0.005402001552283764,0.0196625255048275,-0.009667303413152695,1.0,1.3877787807814457e-17,0.0,-1.734723475976807e-18
436.0,0.0,0.0,0.0,0.0,0.0,0.0,0.0033692719880491495,0.02451757714152336,-0.013554303906857967,1.0,6.938893903907228e-18,0.0,0.0
437.0,0.0,0.0,0.0,0.0,0.0,0.0,0.007140330038964748,0.024876752868294716,-0.01238546147942543,1.0,-6.938893903907228e-18,6.938893903907228e-18,0.0
438.0,0.0,0.0,0.0,0.0,0.0,0.0,0.018725920468568802,0.028683798387646675,-0.006069894414395094,1.0,-6.938893903907228e-18,0.0,1.734723475976807e-18
439.0,0.0,0.0,0.0,0.0,0.0,0.0,0.023099420592188835,0.028573812916874886,-0.003584617283195257,1.0,6.938893903907228e-18,-6.938893903907228e-18,0.0
440.0,0.0,0.0,0.0,0.0,0.0,0.0,0.012899634428322315,0.01932455785572529,-0.003439635969698429,1.0,1.3877787807814457e-17,0.0,0.0
441.0,0.0,0.0,0.0,0.0,0.0,0.0,0.007904342375695705,0.012830182909965515,-0.0016756575787439942,1.0,0.0,-6.938893903907228e-18,0.0
442.0,0.0,0.0,0.0,0.0,0.0,0.0,0.005494691431522369,0.008114149793982506,0.002794126281514764,1.0,-3.469446951953614e-18,-6.938893903907228e-18,0.0
443.0,0.0,0.0,0.0,0.0,0.0,0.0,-0.009680909104645252,0.0020001239608973265,-0.004232804290950298,1.0,-3.469446951953614e-18,0.0,8.673617379884035e-19
444.0,0.0,0.0,0.0,0.0,0.0,0.0,-0.02245360054075718,0.007122968323528767,-0.021762149408459663,1.0,-3.469446951953614e-18,6.938893903907228e-18,8.673617379884035e-19
445.0,0.0,0.0,0.0,0.0,0.0,0.0,-0.0216029305011034,0.015442878939211369,-0.031052924692630768,1.0,3.469446951953614e-18,0.0,8.673617379884035e-19
446.0,0.0,0.0,0.0,0.0,0.0,0.0,-0.00805238913744688,0.015297316014766693,-0.03567451238632202,1.0,-6.938893903907228e-18,0.0,-4.336808689942018e-19
447.0,0.0,0.0,0.0,0.0,0.0,0.0,0.009768139570951462,0.003580453572794795,-0.03228742629289627,1.0,-3.469446951953614e-18,6.938893903907228e-18,1.3010426069826053e-18
448.0,0.0,0.0,0.0,0.0,0.0,0.0,0.030986616387963295,0.004199836403131485,-0.02520226500928402,1.0,3.469446951953614e-18,-6.938893903907228e-18,4.336808689942018e-19
449.0,0.0,0.0,0.0,0.0,0.0,0.0,0.03513980656862259,0.00806444138288498,-0.01832881011068821,1.0,-3.469446951953614e-18,0.0,0.0
450.0,0.0,0.0,0.0,0.0,0.0,0.0,0.03290100023150444,0.002965629333630204,-0.013004335574805737,1.0,-3.469446951953614e-18,0.0,0.0
451.0,0.0,0.0,0.0,0.0,0.0,0.0,0.03127698227763176,0.004065563436597586,-0.00783388689160347,1.0,3.469446951953614e-18,-1.3877787807814457e-17,-2.168404344971009e-18
452.0,0.0,0.0,0.0,0.0,0.0,0.0,0.041272252798080444,0.012360792607069016,0.0017601195722818375,1.0,-3.469446951953614e-18,0.0,0.0
453.0,0.0,0.0,0.0,0.0,0.0,0.0,0.03055165894329548,0.017714587971568108,0.009102029725909233,1.0,0.0,6.938893903907228e-18,8.673617379884035e-19
454.0,0.0,0.0,0.0,0.0,0.0,0.0,0.025250671431422234,0.004617596976459026,0.013510600663721561,1.0,-3.469446951953614e-18,6.938893903907228e-18,-8.673617379884035e-19
455.0,0.0,0.0,0.0,0.0,0.0,0.0,0.04181116074323654,-0.016348442062735558,0.011884699575603008,1.0,-3.469446951953614e-18,3.469446951953614e-18,8.673617379884035e-19
456.0,0.0,0.0,0.0,0.0,0.0,0.0,0.034481294453144073,-0.014874231070280075,0.00995307881385088,1.0,0.0,3.469446951953614e-18,-8.673617379884035e-19
457.0,0.0,0.0,0.0,0.0,0.0,0.0,0.007084139622747898,-0.0036555114202201366,0.005188415292650461,1.0,6.938893903907228e-18,3.469446951953614e-18,1.3010426069826053e-18
458.0,0.0,0.0,0.0,0.0,0.0,0.0,-0.01109525840729475,0.0005310504348017275,-0.010727085173130035,1.0,0.0,0.0,0.0
459.0,0.0,0.0,0.0,0.0,0.0,0.0,-0.010877109132707119,0.0016193119809031487,-0.0034769573248922825,1.0,3.469446951953614e-18,-1.0408340855860843e-17,4.336808689942018e-19
460.0,0.0,0.0,0.0,0.0,0.0,0.0,-0.01518058031797409,6.268193828873336e-05,-0.00014386539987754077,1.0,-3.469446951953614e-18,0.0,-6.505213034913027e-19
461.0,0.0,0.0,0.0,0.0,0.0,0.0,-0.019717136397957802,-0.004249748773872852,0.0006236130720935762,1.0,3.469446951953614e-18,0.0,2.168404344971009e-19
462.0,0.0,0.0,0.0,0.0,0.0,0.0,-0.013148297555744648,-0.01650374010205269,-0.01054541114717722,1.0,0.0,-1.734723475976807e-18,-2.168404344971009e-19
463.0,0.0,0.0,0.0,0.0,0.0,0.0,0.002155071124434471,-0.026691492646932602,-0.006093218922615051,1.0,-3.469446951953614e-18,3.469446951953614e-18,4.119968255444917e-18
464.0,0.0,0.0,0.0,0.0,0.0,0.0,0.010271193459630013,-0.027544811367988586,0.0033880677074193954,1.0,0.0,3.469446951953614e-18,1.5178830414797062e-18
465.0,0.0,0.0,0.0,0.0,0.0,0.0,0.01377827487885952,-0.028972461819648743,0.0017346376553177834,1.0,3.469446951953614e-18,0.0,2.8189256484623115e-18
466.0,0.0,0.0,0.0,0.0,0.0,0.0,0.019510386511683464,-0.02621261216700077,0.006548550445586443,1.0,0.0,0.0,1.6263032587282567e-18
467.0,0.0,0.0,0.0,0.0,0.0,0.0,0.01421919371932745,-0.024795785546302795,0.008369173854589462,1.0,6.938893903907228e-18,4.336808689942018e-19,2.2768245622195593e-18
468.0,0.0,0.0,0.0,0.0,0.0,0.0,0.0058128987438976765,-0.023967871442437172,0.005373312626034021,1.0,3.469446951953614e-18,2.168404344971009e-19,-3.550762114890027e-18
469.0,0.0,0.0,0.0,0.0,0.0,0.0,-0.01877094805240631,-0.032073974609375,-0.004746085032820702,1.0,-3.469446951953614e-18,0.0,-2.3852447794681098e-18
470.0,0.0,0.0,0.0,0.0,0.0,0.0,0.0068017845042049885,-0.048695892095565796,-0.005093675572425127,1.0,0.0,0.0,4.445228907190568e-18
471.0,0.0,0.0,0.0,0.0,0.0,0.0,-0.001295404159463942,-0.038198646157979965,0.014389236457645893,1.0,-3.469446951953614e-18,0.0,3.0357660829594124e-18
472.0,0.0,0.0,0.0,0.0,0.0,0.0,-0.0077318414114415646,-0.04673337936401367,-0.007144799456000328,1.0,3.469446951953614e-18,0.0,4.336808689942018e-19
473.0,0.0,0.0,0.0,0.0,0.0,0.0,0.003795545781031251,-0.052983060479164124,-0.01831582933664322,1.0,3.469446951953614e-18,1.734723475976807e-18,5.421010862427522e-18
474.0,0.0,0.0,0.0,0.0,0.0,0.0,-0.0009794378420338035,-0.03566840663552284,0.00263132038526237,1.0,3.469446951953614e-18,3.469446951953614e-18,-2.3852447794681098e-18
475.0,0.0,0.0,0.0,0.0,0.0,0.0,0.01779363863170147,-0.03428461030125618,0.0061594825237989426,1.0,-1.0408340855860843e-17,0.0,6.071532165918825e-18
476.0,0.0,0.0,0.0,0.0,0.0,0.0,0.014005160890519619,-0.037219759076833725,0.0029003347735852003,1.0,6.938893903907228e-18,0.0,-5.421010862427522e-18
477.0,0.0,0.0,0.0,0.0,0.0,0.0,-0.0016357646090909839,-0.030415039509534836,-0.009621290490031242,1.0,-3.469446951953614e-18,0.0,-1.734723475976807e-18
478.0,0.0,0.0,0.0,0.0,0.0,0.0,-0.010393236763775349,-0.02106287144124508,-0.017018716782331467,1.0,-3.469446951953614e-18,-8.673617379884035e-19,-6.179952383167375e-18
479.0,0.0,0.0,0.0,0.0,0.0,0.0,-0.01408618874847889,-0.011850233189761639,-0.007887717336416245,1.0,0.0,0.0,-6.396792817664476e-18
480.0,0.0,0.0,0.0,0.0,0.0,0.0,-0.006599151995033026,-0.01149884145706892,0.0002906400477513671,1.0,3.469446951953614e-18,8.673617379884035e-19,-1.0842021724855044e-19
481.0,0.0,0.0,0.0,0.0,0.0,0.0,0.00400562072172761,-0.014364405535161495,0.0017619093414396048,1.0,-6.938893903907228e-18,-8.673617379884035e-19,-2.6020852139652106e-18
482.0,0.0,0.0,0.0,0.0,0.0,0.0,0.0024956408888101578,-0.01409684494137764,0.0025060817133635283,1.0,0.0,0.0,-2.710505431213761e-19
483.0,0.0,0.0,0.0,0.0,0.0,0.0,0.0028223691042512655,-0.009875546209514141,0.004537430126219988,1.0,-3.469446951953614e-18,0.0,-5.149960319306146e-18
484.0,0.0,0.0,0.0,0.0,0.0,0.0,0.0045409551821649075,-8.402489038417116e-05,0.006875212769955397,1.0,-3.469446951953614e-18,0.0,-8.456776945386935e-18
485.0,0.0,0.0,0.0,0.0,0.0,0.0,-0.0122826574370265,0.008566641248762608,-0.0005064092692919075,1.0,-3.469446951953614e-18,-8.673617379884035e-19,1.9244588561617704e-18
486.0,0.0,0.0,0.0,0.0,0.0,0.0,-0.020188890397548676,0.010392782278358936,0.001580623327754438,1.0,6.938893903907228e-18,2.168404344971009e-19,4.0657581468206416e-19
487.0,0.0,0.0,0.0,0.0,0.0,0.0,-0.017020517960190773,0.011779367923736572,-0.00033679159241728485,1.0,6.938893903907228e-18,2.710505431213761e-20,-8.324639805615264e-18
488.0,0.0,0.0,0.0,0.0,0.0,0.0,-0.012372873723506927,0.011387208476662636,0.0029750706162303686,1.0,3.469446951953614e-18,-1.0842021724855044e-19,-9.161508357502512e-18
489.0,0.0,0.0,0.0,0.0,0.0,0.0,-0.0023375896271318197,0.009568123146891594,0.011894216760993004,1.0,0.0,8.673617379884035e-19,1.5178830414797062e-18
490.0,0.0,0.0,0.0,0.0,0.0,0.0,0.004842332098633051,0.011749427765607834,0.00636997539550066,1.0,6.938893903907228e-18,0.0,-5.637851296924623e-18
491.0,0.0,0.0,0.0,0.0,0.0,0.0,-0.013434752821922302,0.024723706766963005,-0.007370634004473686,1.0,0.0,-8.673617379884035e-19,-1.6263032587282567e-19
492.0,0.0,0.0,0.0,0.0,0.0,0.0,-0.021680692210793495,0.031452663242816925,-0.011792393401265144,1.0,6.938893903907228e-18,0.0,1.3552527156068805e-18
493.0,0.0,0.0,0.0,0.0,0.0,0.0,-0.014354707673192024,0.028337666764855385,-0.00482558086514473,1.0,3.469446951953614e-18,0.0,-3.7947076036992655e-18
494.0,0.0,0.0,0.0,0.0,0.0,0.0,-0.013240531086921692,0.026813503354787827,-0.004298544954508543,1.0,6.938893903907228e-18,-1.734723475976807e-18,5.421010862427522e-19
495.0,0.0,0.0,0.0,0.0,0.0,0.0,-0.005463757552206516,0.026569189503788948,0.00037848102510906756,1.0,-3.469446951953614e-18,8.673617379884035e-19,8.673617379884035e-19
496.0,0.0,0.0,0.0,0.0,0.0,0.0,0.0005749401170760393,0.023461397737264633,0.0018750214949250221,1.0,0.0,8.673617379884035e-19,-3.2526065174565133e-18
497.0,0.0,0.0,0.0,0.0,0.0,0.0,0.001258018077351153,0.02240918204188347,0.0008621891611255705,1.0,-6.938893903907228e-18,1.734723475976807e-18,3.144186300207963e-18
498.0,0.0,0.0,0.0,0.0,0.0,0.0,0.0012471587397158146,0.022304048761725426,-0.00030734878964722157,1.0,-6.938893903907228e-18,1.734723475976807e-18,-4.9873299934333204e-18
499.0,0.0,0.0,0.0,0.0,0.0,0.0,6.835883687017485e-05,0.02387993223965168,-0.0008504652651026845,1.0,-3.469446951953614e-18,-1.734723475976807e-18,1.0842021724855044e-19
500.0,0.0,0.0,0.0,0.0,0.0,0.0,0.0022959215566515923,0.022912995889782906,-0.0006652863812632859,1.0,0.0,0.0,4.553649124439119e-18
501.0,0.0,0.0,0.0,0.0,0.0,0.0,0.007840561680495739,0.01533051673322916,-0.00012434129894245416,1.0,0.0,-1.734723475976807e-18,5.7462715141731735e-18
502.0,0.0,0.0,0.0,0.0,0.0,0.0,0.012717722915112972,0.00977938249707222,0.00018938904395326972,1.0,3.469446951953614e-18,0.0,1.734723475976807e-18
503.0,0.0,0.0,0.0,0.0,0.0,0.0,0.01257340982556343,0.006771238520741463,0.00016523156955372542,1.0,3.469446951953614e-18,1.734723475976807e-18,-2.168404344971009e-19
504.0,0.0,0.0,0.0,0.0,0.0,0.0,0.008427992463111877,0.006017640698701143,-0.004025767557322979,1.0,-6.938893903907228e-18,-8.673617379884035e-19,-6.071532165918825e-18
505.0,0.0,0.0,0.0,0.0,0.0,0.0,0.0009058903669938445,0.01333241444081068,-0.009266314096748829,1.0,0.0,1.734723475976807e-18,6.288372600415926e-18
506.0,0.0,0.0,0.0,0.0,0.0,0.0,-0.0038056636694818735,0.011453870683908463,-0.0114787258207798,1.0,-3.469446951953614e-18,-8.673617379884035e-19,-3.144186300207963e-18
507.0,0.0,0.0,0.0,0.0,0.0,0.0,0.008031421341001987,0.005420350003987551,-0.0026203938759863377,1.0,3.469446951953614e-18,1.734723475976807e-18,1.3010426069826053e-18
508.0,0.0,0.0,0.0,0.0,0.0,0.0,0.006181203294545412,0.005711643025279045,-0.0023004445247352123,1.0,3.469446951953614e-18,-1.734723475976807e-18,3.903127820947816e-18
509.0,0.0,0.0,0.0,0.0,0.0,0.0,-0.009404031559824944,0.0024948534555733204,-0.007728843949735165,1.0,3.469446951953614e-18,0.0,-6.505213034913027e-19
510.0,0.0,0.0,0.0,0.0,0.0,0.0,0.009534626267850399,0.0025943564251065254,-0.001650300808250904,1.0,3.469446951953614e-18,0.0,1.0842021724855044e-19
511.0,0.0,0.0,0.0,0.0,0.0,0.0,-0.011068626306951046,0.009777738712728024,-0.00790670607239008,1.0,-3.469446951953614e-18,0.0,0.0
512.0,0.0,0.0,0.0,0.0,0.0,0.0,-0.0007876106537878513,-0.0005456040380522609,-0.016353491693735123,1.0,0.0,8.673617379884035e-19,2.0057740190981832e-18
513.0,0.0,0.0,0.0,0.0,0.0,0.0,0.018185332417488098,-0.014749987982213497,-0.004482045769691467,1.0,0.0,-4.336808689942018e-19,2.3852447794681098e-18
514.0,0.0,0.0,0.0,0.0,0.0,0.0,0.020964045077562332,-0.016697492450475693,0.010675080120563507,1.0,-3.469446951953614e-18,-2.168404344971009e-19,3.130633773051894e-18
515.0,0.0,0.0,0.0,0.0,0.0,0.0,0.03162431716918945,-0.01796688325703144,0.016989003866910934,1.0,0.0,8.131516293641283e-20,-2.5851445550201246e-18
516.0,0.0,0.0,0.0,0.0,0.0,0.0,0.029736828058958054,-0.011788410134613514,0.018476828932762146,1.0,-3.469446951953614e-18,-1.8973538018496328e-19,-7.911287727355165e-19
517.0,0.0,0.0,0.0,0.0,0.0,0.0,0.019336648285388947,-0.005910314619541168,0.004273631609976292,1.0,0.0,2.168404344971009e-19,1.179069862577986e-18
518.0,0.0,0.0,0.0,0.0,0.0,0.0,0.0076573994010686874,-0.005075924098491669,-0.00454264460131526,1.0,-3.469446951953614e-18,-4.336808689942018e-19,8.673617379884035e-19
519.0,0.0,0.0,0.0,0.0,0.0,0.0,0.009492914192378521,-0.013484450988471508,-0.004265569616109133,1.0,0.0,-1.3010426069826053e-18,-4.0115480381963664e-18
520.0,0.0,0.0,0.0,0.0,0.0,0.0,0.018666671589016914,-0.011783958412706852,-0.002139926189556718,1.0,-3.469446951953614e-18,-1.3010426069826053e-18,-6.505213034913027e-19
521.0,0.0,0.0,0.0,0.0,0.0,0.0,0.025544259697198868,-0.010726659558713436,-0.000546948635019362,1.0,-1.0408340855860843e-17,-1.734723475976807e-18,-3.686287386450715e-18
522.0,0.0,0.0,0.0,0.0,0.0,0.0,0.025608593598008156,-0.014664840884506702,0.0018000758718699217,1.0,0.0,1.734723475976807e-18,1.4094628242311558e-18
523.0,0.0,0.0,0.0,0.0,0.0,0.0,0.009846699424088001,-0.01395806111395359,-0.0030237166211009026,1.0,6.938893903907228e-18,2.6020852139652106e-18,-3.2526065174565133e-18
524.0,0.0,0.0,0.0,0.0,0.0,0.0,-0.00716773234307766,-0.006584267131984234,-0.005119609646499157,1.0,1.0408340855860843e-17,-1.734723475976807e-18,-2.2768245622195593e-18
525.0,0.0,0.0,0.0,0.0,0.0,0.0,-0.016353990882635117,-0.002255238126963377,-0.011227510869503021,1.0,-3.469446951953614e-18,-8.673617379884035e-19,0.0
526.0,0.0,0.0,0.0,0.0,0.0,0.0,0.011959587223827839,-0.021186115220189095,0.0010416823206469417,1.0,0.0,-8.673617379884035e-19,-2.3852447794681098e-18
527.0,0.0,0.0,0.0,0.0,0.0,0.0,0.01632407121360302,-0.020816057920455933,0.006379003636538982,1.0,0.0,2.6020852139652106e-18,-2.168404344971009e-19
528.0,0.0,0.0,0.0,0.0,0.0,0.0,0.012015574611723423,-0.025086838752031326,0.004097326193004847,1.0,6.938893903907228e-18,-8.673617379884035e-19,-8.673617379884035e-19
529.0,0.0,0.0,0.0,0.0,0.0,0.0,0.037098485976457596,-0.01872563734650612,0.011616524308919907,1.0,-3.469446951953614e-18,8.673617379884035e-19,7.589415207398531e-19
530.0,0.0,0.0,0.0,0.0,0.0,0.0,0.016589989885687828,-0.009672270156443119,0.0007564671104773879,1.0,-6.938893903907228e-18,1.734723475976807e-18,3.469446951953614e-18
531.0,0.0,0.0,0.0,0.0,0.0,0.0,0.0028978902846574783,-0.009190364740788937,-0.0036045874003320932,1.0,0.0,1.734723475976807e-18,-3.7947076036992655e-19
532.0,0.0,0.0,0.0,0.0,0.0,0.0,-0.0002923477441072464,-0.006709993351250887,-0.0069995843805372715,1.0,0.0,-8.673617379884035e-19,-4.87890977618477e-19
533.0,0.0,0.0,0.0,0.0,0.0,0.0,-0.0010827871738001704,-0.010388107039034367,0.0026735179126262665,1.0,-3.469446951953614e-18,1.734723475976807e-18,3.957337929572091e-18
534.0,0.0,0.0,0.0,0.0,0.0,0.0,0.0048722815699875355,-0.01883133128285408,0.004831085912883282,1.0,-6.938893903907228e-18,8.673617379884035e-19,-9.486769009248164e-19
535.0,0.0,0.0,0.0,0.0,0.0,0.0,0.0004818753805011511,-0.016204996034502983,0.004478911869227886,1.0,0.0,4.336808689942018e-19,1.938011383317839e-18
536.0,0.0,0.0,0.0,0.0,0.0,0.0,-0.00907548051327467,-0.009442620910704136,0.0016833076952025294,1.0,0.0,2.168404344971009e-19,2.2632720350634905e-18
537.0,0.0,0.0,0.0,0.0,0.0,0.0,-0.012369662523269653,-0.005491433199495077,1.903880365716759e-05,1.0,0.0,-1.0842021724855044e-19,4.042041224297521e-18
538.0,0.0,0.0,0.0,0.0,0.0,0.0,-0.01695614866912365,-0.0014296782901510596,-0.00020725249487441033,1.0,6.938893903907228e-18,1.0842021724855044e-19,-1.5924219408380846e-18
539.0,0.0,0.0,0.0,0.0,0.0,0.0,-0.01299623865634203,-0.005544287618249655,0.0018803392304107547,1.0,-1.734723475976807e-18,-2.168404344971009e-19,-8.944667923005412e-19
540.0,0.0,0.0,0.0,0.0,0.0,0.0,0.0036642837803810835,-0.007678449619561434,0.005175331607460976,1.0,1.734723475976807e-18,0.0,-4.269046054161674e-18
541.0,0.0,0.0,0.0,0.0,0.0,0.0,-0.02229146473109722,0.0031552952714264393,-0.009553341194987297,1.0,0.0,0.0,-3.903127820947816e-18
542.0,0.0,0.0,0.0,0.0,0.0,0.0,-0.050879769027233124,0.01678336039185524,-0.0272914320230484,1.0,-3.469446951953614e-18,-4.336808689942018e-19,7.589415207398531e-19
543.0,0.0,0.0,0.0,0.0,0.0,0.0,-0.034681010991334915,0.008600080385804176,-0.01760263182222843,1.0,-1.734723475976807e-18,0.0,-1.599198204416119e-18
544.0,0.0,0.0,0.0,0.0,0.0,0.0,-0.03272394835948944,0.007098322734236717,-0.005942957941442728,1.0,-1.734723475976807e-18,4.336808689942018e-19,3.848917712323541e-18
545.0,0.0,0.0,0.0,0.0,0.0,0.0,-0.03521418944001198,0.009678694419562817,-0.0051744310185313225,1.0,-6.938893903907228e-18,-4.336808689942018e-19,-1.3010426069826053e-18
546.0,0.0,0.0,0.0,0.0,0.0,0.0,-0.03180456906557083,0.011369380168616772,-0.008448549546301365,1.0,0.0,0.0,-9.75781955236954e-19
547.0,0.0,0.0,0.0,0.0,0.0,0.0,-0.026720743626356125,0.014613453298807144,-0.008767956867814064,1.0,-3.469446951953614e-18,-2.168404344971009e-19,1.2197274440461925e-19
548.0,0.0,0.0,0.0,0.0,0.0,0.0,-0.023834340274333954,0.007404674775898457,-0.008257879875600338,1.0,0.0,-2.168404344971009e-19,-3.74049749507499e-18
549.0,0.0,0.0,0.0,0.0,0.0,0.0,0.00586689030751586,-0.005637731868773699,0.0041967653669416904,1.0,-3.469446951953614e-18,-2.168404344971009e-19,-2.439454888092385e-19
550.0,0.0,0.0,0.0,0.0,0.0,0.0,0.013639525510370731,-0.0131955211982131,0.011252790689468384,1.0,-3.469446951953614e-18,4.336808689942018e-19,1.5178830414797062e-18
551.0,0.0,0.0,0.0,0.0,0.0,0.0,0.01798546127974987,-0.018386146053671837,0.009869934991002083,1.0,0.0,0.0,-3.74049749507499e-18
552.0,0.0,0.0,0.0,0.0,0.0,0.0,0.044480353593826294,-0.025205237790942192,0.016552209854125977,1.0,0.0,-4.336808689942018e-19,1.3552527156068805e-18
553.0,0.0,0.0,0.0,0.0,0.0,0.0,0.024176442995667458,-0.028319526463747025,0.009761921130120754,1.0,6.938893903907228e-18,-4.336808689942018e-19,2.222614453595284e-18
554.0,0.0,0.0,0.0,0.0,0.0,0.0,0.02381441369652748,-0.028362007811665535,0.007418542169034481,1.0,3.469446951953614e-18,0.0,-3.415236843329339e-18
555.0,0.0,0.0,0.0,0.0,0.0,0.0,0.020821290090680122,-0.02207460254430771,0.007264014333486557,1.0,3.469446951953614e-18,0.0,-3.7947076036992655e-19
556.0,0.0,0.0,0.0,0.0,0.0,0.0,0.0065554785542190075,-0.01820889674127102,0.002445508958771825,1.0,0.0,-1.734723475976807e-18,-7.914675859144182e-18
557.0,0.0,0.0,0.0,0.0,0.0,0.0,0.012042051181197166,-0.023802796378731728,0.0028402770403772593,1.0,3.469446951953614e-18,-2.6020852139652106e-18,-1.1926223897340549e-18
558.0,0.0,0.0,0.0,0.0,0.0,0.0,0.0020570820197463036,-0.01818392239511013,0.0035066078417003155,1.0,3.469446951953614e-18,0.0,6.505213034913027e-19
559.0,0.0,0.0,0.0,0.0,0.0,0.0,-0.009643455035984516,-0.01421763002872467,-0.0012630164856091142,1.0,-3.469446951953614e-18,-8.673617379884035e-19,2.168404344971009e-19
560.0,0.0,0.0,0.0,0.0,0.0,0.0,-0.015379779040813446,-0.011295578442513943,-0.00679313438013196,1.0,-6.938893903907228e-18,0.0,0.0
561.0,0.0,0.0,0.0,0.0,0.0,0.0,-0.017932463437318802,-0.001035821856930852,-0.010908674448728561,1.0,-6.938893903907228e-18,0.0,5.421010862427522e-19
562.0,0.0,0.0,0.0,0.0,0.0,0.0,-0.021897193044424057,0.013250685296952724,-0.01844925619661808,1.0,0.0,0.0,-4.87890977618477e-18
563.0,0.0,0.0,0.0,0.0,0.0,0.0,-0.021484529599547386,0.01639970764517784,-0.013411206193268299,1.0,-6.938893903907228e-18,0.0,4.2825985813177425e-18
564.0,0.0,0.0,0.0,0.0,0.0,0.0,-0.0019243673887103796,0.006464181002229452,-0.0023750027175992727,1.0,0.0,0.0,-4.553649124439119e-18
565.0,0.0,0.0,0.0,0.0,0.0,0.0,0.007118651177734137,0.004605991765856743,0.005624797660857439,1.0,3.469446951953614e-18,0.0,-7.047314121155779e-19
566.0,0.0,0.0,0.0,0.0,0.0,0.0,0.007050230633467436,0.006209107115864754,0.0076442318968474865,1.0,-3.469446951953614e-18,-4.336808689942018e-19,2.439454888092385e-19
567.0,0.0,0.0,0.0,0.0,0.0,0.0,0.0020590247586369514,-0.001667116885073483,0.003568321233615279,1.0,0.0,0.0,-2.358139725155972e-18
568.0,0.0,0.0,0.0,0.0,0.0,0.0,-0.005527900531888008,-0.00829527247697115,0.009845548309385777,1.0,-6.938893903907228e-18,-4.336808689942018e-19,8.673617379884035e-19
569.0,0.0,0.0,0.0,0.0,0.0,0.0,0.03887132182717323,0.0010298024863004684,0.018314165994524956,1.0,-3.469446951953614e-18,-3.2526065174565133e-19,-3.2526065174565133e-19
570.0,0.0,0.0,0.0,0.0,0.0,0.0,-0.007241554092615843,0.007307139225304127,0.0073825037106871605,1.0,0.0,1.6263032587282567e-19,2.5953089503871762e-18
571.0,0.0,0.0,0.0,0.0,0.0,0.0,-0.027817651629447937,0.01275866199284792,-0.008207617327570915,1.0,3.469446951953614e-18,-1.0842021724855044e-19,5.827586677109586e-19
572.0,0.0,0.0,0.0,0.0,0.0,0.0,-0.02508876845240593,0.019468948245048523,-0.010650945827364922,1.0,3.469446951953614e-18,4.336808689942018e-19,-1.4907779871675686e-18
573.0,0.0,0.0,0.0,0.0,0.0,0.0,-0.02114996500313282,0.026418576017022133,-0.0016613410552963614,1.0,3.469446951953614e-18,-8.673617379884035e-19,-2.8731357570865868e-18
574.0,0.0,0.0,0.0,0.0,0.0,0.0,-0.018734367564320564,0.023844504728913307,-0.0034560190979391336,1.0,0.0,1.734723475976807e-18,1.2468324983583301e-18
575.0,0.0,0.0,0.0,0.0,0.0,0.0,-0.015018572099506855,0.023746181279420853,0.0012700390070676804,1.0,0.0,0.0,-7.806255641895632e-18
576.0,0.0,0.0,0.0,0.0,0.0,0.0,-0.007915456779301167,0.026528069749474525,0.009290560148656368,1.0,0.0,8.673617379884035e-19,2.0057740190981832e-18
577.0,0.0,0.0,0.0,0.0,0.0,0.0,-0.014690306968986988,0.023971138522028923,0.0022777095437049866,1.0,3.469446951953614e-18,8.673617379884035e-19,2.927345865710862e-18
578.0,0.0,0.0,0.0,0.0,0.0,0.0,-0.004912157543003559,0.013746135868132114,-0.00020963493443559855,1.0,3.469446951953614e-18,1.734723475976807e-18,7.589415207398531e-19
579.0,0.0,0.0,0.0,0.0,0.0,0.0,0.0045546237379312515,0.009628383442759514,-0.00025966341490857303,1.0,0.0,8.673617379884035e-19,6.505213034913027e-19
580.0,0.0,0.0,0.0,0.0,0.0,0.0,-9.818204853218049e-05,0.00981120765209198,-0.006392202340066433,1.0,0.0,-2.6020852139652106e-18,-3.144186300207963e-18
581.0,0.0,0.0,0.0,0.0,0.0,0.0,0.0029410598799586296,-0.002829920733347535,-0.0029379893094301224,1.0,6.938893903907228e-18,8.673617379884035e-19,-2.710505431213761e-19
582.0,0.0,0.0,0.0,0.0,0.0,0.0,0.01691560633480549,-0.009176061488687992,0.0014299167087301612,1.0,-3.469446951953614e-18,8.673617379884035e-19,1.8431436932253575e-18
583.0,0.0,0.0,0.0,0.0,0.0,0.0,0.02060958929359913,-0.0009466310730203986,0.003407043870538473,1.0,3.469446951953614e-18,-8.673617379884035e-19,-1.4094628242311558e-18
584.0,0.0,0.0,0.0,0.0,0.0,0.0,0.0009616324095986784,0.006029503419995308,-0.007000599522143602,1.0,-6.938893903907228e-18,0.0,8.402566836762659e-19
585.0,0.0,0.0,0.0,0.0,0.0,0.0,0.00431689852848649,-0.002502986928448081,-0.009632795117795467,1.0,0.0,0.0,6.152847328855238e-18
586.0,0.0,0.0,0.0,0.0,0.0,0.0,0.007596317678689957,-0.002788727870211005,-0.006566228810697794,1.0,-3.469446951953614e-18,0.0,-4.391018798566293e-18
587.0,0.0,0.0,0.0,0.0,0.0,0.0,0.004257992375642061,0.0022921881172806025,-0.006572213023900986,1.0,0.0,-4.336808689942018e-19,1.1384122811097797e-18
588.0,0.0,0.0,0.0,0.0,0.0,0.0,0.004329411778599024,-0.00028461855254136026,-0.010496335104107857,1.0,-6.938893903907228e-18,-4.336808689942018e-19,-4.20128341838133e-18
589.0,0.0,0.0,0.0,0.0,0.0,0.0,-0.0010795136913657188,-0.00047903944505378604,-0.006212383043020964,1.0,3.469446951953614e-18,8.673617379884035e-19,5.421010862427522e-19
590.0,0.0,0.0,0.0,0.0,0.0,0.0,-0.00733847776427865,-0.0036777080968022346,0.0009845992317423224,1.0,3.469446951953614e-18,-2.168404344971009e-19,-2.087089182034596e-18
591.0,0.0,0.0,0.0,0.0,0.0,0.0,0.0047156549990177155,-0.009464116767048836,-0.004846632014960051,1.0,-3.469446951953614e-18,3.2526065174565133e-19,-3.3881317890172014e-19
592.0,0.0,0.0,0.0,0.0,0.0,0.0,0.014618325978517532,-0.010509579442441463,-0.0018646345706656575,1.0,-6.938893903907228e-18,-3.2526065174565133e-19,-3.713392440762853e-18
593.0,0.0,0.0,0.0,0.0,0.0,0.0,0.011069207452237606,-0.012207728810608387,-2.8470816687331535e-05,1.0,0.0,4.336808689942018e-19,5.421010862427522e-20
594.0,0.0,0.0,0.0,0.0,0.0,0.0,0.004503341857343912,-0.011880749836564064,-0.0016606389544904232,1.0,3.469446951953614e-18,0.0,2.087089182034596e-18
595.0,0.0,0.0,0.0,0.0,0.0,0.0,0.0021555526182055473,-0.006412258371710777,0.0019142956007272005,1.0,0.0,1.3010426069826053e-18,-4.824699667560495e-18
596.0,0.0,0.0,0.0,0.0,0.0,0.0,0.0005948717589490116,-0.0021555363200604916,-0.0005922593409195542,1.0,0.0,8.673617379884035e-19,2.168404344971009e-19
597.0,0.0,0.0,0.0,0.0,0.0,0.0,0.0014763477956876159,-0.0006073185941204429,0.008826429024338722,1.0,-3.469446951953614e-18,-4.336808689942018e-19,2.927345865710862e-18
598.0,0.0,0.0,0.0,0.0,0.0,0.0,0.01267599780112505,-7.834177813492715e-05,0.012941260822117329,1.0,0.0,0.0,3.7947076036992655e-19
599.0,0.0,0.0,0.0,0.0,0.0,0.0,0.01328258030116558,-0.004896792117506266,0.007635118905454874,1.0,-3.469446951953614e-18,8.673617379884035e-19,5.312590645178972e-18
600.0,0.0,0.0,0.0,0.0,0.0,0.0,0.014896257780492306,-0.008949057199060917,0.005251895636320114,1.0,3.469446951953614e-18,4.336808689942018e-19,-4.607859233063394e-18
601.0,0.0,0.0,0.0,0.0,0.0,0.0,0.016529172658920288,-0.008965671062469482,0.0050890156999230385,1.0,-6.938893903907228e-18,0.0,-1.6805133673525319e-18
602.0,0.0,0.0,0.0,0.0,0.0,0.0,0.006156419403851032,-0.005790674593299627,0.0040854946710169315,1.0,6.938893903907228e-18,4.336808689942018e-19,2.2768245622195593e-18
603.0,0.0,0.0,0.0,0.0,0.0,0.0,-0.022519372403621674,-0.012905126437544823,-0.011012131348252296,1.0,-6.938893903907228e-18,-8.673617379884035e-19,-4.87890977618477e-19
604.0,0.0,0.0,0.0,0.0,0.0,0.0,0.022421924397349358,-0.029086878523230553,0.005293827969580889,1.0,6.938893903907228e-18,0.0,3.63207727782644e-18
605.0,0.0,0.0,0.0,0.0,0.0,0.0,0.03414754197001457,-0.03659360855817795,0.012181560508906841,1.0,-3.469446951953614e-18,-8.673617379884035e-19,-1.1384122811097797e-18
606.0,0.0,0.0,0.0,0.0,0.0,0.0,0.00798654556274414,-0.03486813232302666,0.0031202074605971575,1.0,3.469446951953614e-18,-1.734723475976807e-18,2.3310346708438345e-18
607.0,0.0,0.0,0.0,0.0,0.0,0.0,0.020908741280436516,-0.038543373346328735,0.003185428213328123,1.0,-3.469446951953614e-18,8.673617379884035e-19,3.63207727782644e-18
608.0,0.0,0.0,0.0,0.0,0.0,0.0,0.03747381642460823,-0.037924911826848984,0.009540312923491001,1.0,3.469446951953614e-18,0.0,4.065758146820642e-18
609.0,0.0,0.0,0.0,0.0,0.0,0.0,0.00810307078063488,-0.03644929826259613,-0.009528562426567078,1.0,6.938893903907228e-18,8.673617379884035e-19,-2.656295322589486e-18
610.0,0.0,0.0,0.0,0.0,0.0,0.0,-0.0018875992391258478,-0.030774321407079697,-0.01721785217523575,1.0,0.0,0.0,4.119968255444917e-18
611.0,0.0,0.0,0.0,0.0,0.0,0.0,-0.0003447237832006067,-0.02465699426829815,-0.013577857054769993,1.0,0.0,-8.673617379884035e-19,6.1257422745431e-18
612.0,0.0,0.0,0.0,0.0,0.0,0.0,0.004185799974948168,-0.027202077209949493,-0.00936430599540472,1.0,6.938893903907228e-18,0.0,-1.6263032587282567e-18
613.0,0.0,0.0,0.0,0.0,0.0,0.0,0.011596553958952427,-0.030472664162516594,-0.006418982986360788,1.0,3.469446951953614e-18,-8.673617379884035e-19,3.144186300207963e-18
614.0,0.0,0.0,0.0,0.0,0.0,0.0,0.007863682694733143,-0.030752873048186302,-0.005287940613925457,1.0,0.0,-8.673617379884035e-19,1.6263032587282567e-19
615.0,0.0,0.0,0.0,0.0,0.0,0.0,0.006343395449221134,-0.031370777636766434,-0.009066148661077023,1.0,0.0,-1.734723475976807e-18,8.131516293641283e-19
616.0,0.0,0.0,0.0,0.0,0.0,0.0,0.004762265365570784,-0.03162677586078644,-0.003951747436076403,1.0,0.0,0.0,1.951563910473908e-18
617.0,0.0,0.0,0.0,0.0,0.0,0.0,0.012893332168459892,-0.03238062560558319,0.003379079280421138,1.0,-3.469446951953614e-18,1.734723475976807e-18,-5.2583805365546965e-18
618.0,0.0,0.0,0.0,0.0,0.0,0.0,0.023860158398747444,-0.029745066538453102,0.0024745725095272064,1.0,0.0,0.0,-5.366800753803247e-18
619.0,0.0,0.0,0.0,0.0,0.0,0.0,-0.015584911219775677,-0.010911466553807259,-0.016536684706807137,1.0,-6.938893903907228e-18,-8.673617379884035e-19,9.595189226496714e-18
620.0,0.0,0.0,0.0,0.0,0.0,0.0,-0.022275758907198906,0.0006050884258002043,-0.01656486839056015,1.0,3.469446951953614e-18,4.336808689942018e-19,-9.486769009248164e-19
621.0,0.0,0.0,0.0,0.0,0.0,0.0,-0.025992361828684807,0.008389626629650593,-0.007457268424332142,1.0,3.469446951953614e-18,1.0842021724855044e-19,1.1079190950086248e-18
622.0,0.0,0.0,0.0,0.0,0.0,0.0,-0.03607125207781792,0.023781560361385345,-0.009541372768580914,1.0,3.469446951953614e-18,-8.673617379884035e-19,-8.131516293641283e-19
623.0,0.0,0.0,0.0,0.0,0.0,0.0,-0.03317924961447716,0.03376464173197746,-0.005585326347500086,1.0,6.938893903907228e-18,-8.673617379884035e-19,-6.2341624917916505e-18
624.0,0.0,0.0,0.0,0.0,0.0,0.0,-0.023460306227207184,0.04173491150140762,0.004130096174776554,1.0,-3.469446951953614e-18,-1.734723475976807e-18,8.673617379884035e-19
625.0,0.0,0.0,0.0,0.0,0.0,0.0,-0.022325405851006508,0.041717320680618286,0.00372555130161345,1.0,3.469446951953614e-18,-8.673617379884035e-19,-8.998878031629687e-18
626.0,0.0,0.0,0.0,0.0,0.0,0.0,-0.00676604313775897,0.033816996961832047,0.005425665993243456,1.0,0.0,0.0,1.0842021724855044e-19
627.0,0.0,0.0,0.0,0.0,0.0,0.0,0.006682517472654581,0.019918030127882957,0.016124103218317032,1.0,6.938893903907228e-18,0.0,3.2526065174565133e-18
628.0,0.0,0.0,0.0,0.0,0.0,0.0,0.012291692197322845,0.016870522871613503,0.015175225213170052,1.0,-6.938893903907228e-18,1.734723475976807e-18,-8.673617379884035e-19
629.0,0.0,0.0,0.0,0.0,0.0,0.0,-0.0024943528696894646,0.01544442493468523,0.009924400597810745,1.0,6.938893903907228e-18,-8.673617379884035e-19,2.6020852139652106e-18
630.0,0.0,0.0,0.0,0.0,0.0,0.0,-1.5622992577846162e-05,0.012985621578991413,0.011506936512887478,1.0,-1.0408340855860843e-17,8.673617379884035e-19,2.168404344971009e-19
631.0,0.0,0.0,0.0,0.0,0.0,0.0,-0.0058091385290026665,0.01373821496963501,0.00419811112806201,1.0,1.0408340855860843e-17,8.673617379884035e-19,-3.2526065174565133e-19
632.0,0.0,0.0,0.0,0.0,0.0,0.0,-0.009673447348177433,0.014785290695726871,-0.0008095651282928884,1.0,-3.469446951953614e-18,-8.673617379884035e-19,-2.6020852139652106e-18
633.0,0.0,0.0,0.0,0.0,0.0,0.0,-0.011009078472852707,0.01658119261264801,-0.006175974849611521,1.0,0.0,8.673617379884035e-19,-2.8731357570865868e-18
634.0,0.0,0.0,0.0,0.0,0.0,0.0,-0.01513273548334837,0.022684216499328613,-0.006695781834423542,1.0,-3.469446951953614e-18,-8.673617379884035e-19,-8.402566836762659e-19
635.0,0.0,0.0,0.0,0.0,0.0,0.0,-0.010187998414039612,0.01923156902194023,-0.006386915221810341,1.0,3.469446951953614e-18,0.0,1.6059744679941534e-18
636.0,0.0,0.0,0.0,0.0,0.0,0.0,-0.003732874523848295,0.012557899579405785,-0.003642238909378648,1.0,-3.469446951953614e-18,4.336808689942018e-19,7.426784881525705e-18
637.0,0.0,0.0,0.0,0.0,0.0,0.0,-0.008971518836915493,0.009877113625407219,-0.005628699436783791,1.0,-6.938893903907228e-18,0.0,8.51098705401121e-18
638.0,0.0,0.0,0.0,0.0,0.0,0.0,-0.011845198459923267,0.0074965693056583405,-0.005943182855844498,1.0,0.0,8.673617379884035e-19,-4.553649124439119e-18
639.0,0.0,0.0,0.0,0.0,0.0,0.0,-0.008214790374040604,0.0047715152613818645,-0.0050118169747292995,1.0,-6.938893903907228e-18,-8.673617379884035e-19,7.26415455565288e-18
640.0,0.0,0.0,0.0,0.0,0.0,0.0,-0.009638490155339241,0.003931223414838314,-0.005680392496287823,1.0,-3.469446951953614e-18,-1.734723475976807e-18,-1.0842021724855044e-18
641.0,0.0,0.0,0.0,0.0,0.0,0.0,-0.005421109031885862,0.0005237784935161471,-0.0029842087533324957,1.0,0.0,1.734723475976807e-18,1.0842021724855044e-18
642.0,0.0,0.0,0.0,0.0,0.0,0.0,-0.007034054026007652,-0.001231948845088482,-0.005301403347402811,1.0,3.469446951953614e-18,0.0,0.0
643.0,0.0,0.0,0.0,0.0,0.0,0.0,-0.020256556570529938,-0.0004612610791809857,-0.007483142428100109,1.0,-3.469446951953614e-18,-1.734723475976807e-18,-2.168404344971009e-18
644.0,0.0,0.0,0.0,0.0,0.0,0.0,-0.03034229762852192,-0.0003277386131230742,-0.011332325637340546,1.0,-3.469446951953614e-18,0.0,8.673617379884035e-19
645.0,0.0,0.0,0.0,0.0,0.0,0.0,-0.024211721494793892,-0.00041502524982206523,-0.002438614144921303,1.0,3.469446951953614e-18,0.0,2.168404344971009e-18
646.0,0.0,0.0,0.0,0.0,0.0,0.0,-0.018688229843974113,0.0035039137583225965,0.008726748637855053,1.0,3.469446951953614e-18,0.0,-1.734723475976807e-18
647.0,0.0,0.0,0.0,0.0,0.0,0.0,-0.019148027524352074,0.0010857518063858151,-0.002311551943421364,1.0,1.734723475976807e-17,0.0,-2.6020852139652106e-18
648.0,0.0,0.0,0.0,0.0,0.0,0.0,-0.010032551363110542,-0.0018565744394436479,0.0037873329129070044,1.0,0.0,-3.469446951953614e-18,3.0357660829594124e-18
649.0,0.0,0.0,0.0,0.0,0.0,0.0,-0.0050305635668337345,-0.008171603083610535,0.008492975495755672,1.0,2.0816681711721685e-17,0.0,1.3010426069826053e-18
650.0,0.0,0.0,0.0,0.0,0.0,0.0,0.012130500748753548,-0.023260870948433876,0.00987659115344286,1.0,6.938893903907228e-18,-3.469446951953614e-18,4.336808689942018e-18
651.0,0.0,0.0,0.0,0.0,0.0,0.0,0.021326404064893723,-0.017902078106999397,0.025586528703570366,1.0,0.0,-6.938893903907228e-18,-4.336808689942018e-18
652.0,0.0,0.0,0.0,0.0,0.0,0.0,0.0224310215562582,-0.0191611610352993,0.019329598173499107,1.0,0.0,-3.469446951953614e-18,1.3010426069826053e-18
653.0,0.0,0.0,0.0,0.0,0.0,0.0,0.01901167258620262,-0.01886303536593914,0.013388752937316895,1.0,6.938893903907228e-18,-3.469446951953614e-18,3.0357660829594124e-18
654.0,0.0,0.0,0.0,0.0,0.0,0.0,0.009779946878552437,-0.018309172242879868,0.009067591279745102,1.0,1.3877787807814457e-17,0.0,-7.37257477290143e-18
655.0,0.0,0.0,0.0,0.0,0.0,0.0,0.005722548812627792,-0.02241523005068302,0.002604034496471286,1.0,1.3877787807814457e-17,-3.469446951953614e-18,-8.673617379884035e-18
656.0,0.0,0.0,0.0,0.0,0.0,0.0,0.006989739835262299,-0.022048328071832657,0.0036811260506510735,1.0,6.938893903907228e-18,3.469446951953614e-18,-8.673617379884035e-18
657.0,0.0,0.0,0.0,0.0,0.0,0.0,0.01362940575927496,-0.017717480659484863,0.007964085787534714,1.0,-6.938893903907228e-18,3.469446951953614e-18,4.336808689942018e-18
658.0,0.0,0.0,0.0,0.0,0.0,0.0,0.013708350248634815,-0.024859555065631866,0.005811948329210281,1.0,1.3877787807814457e-17,3.469446951953614e-18,-4.7704895589362195e-18
659.0,0.0,0.0,0.0,0.0,0.0,0.0,0.006815679371356964,-0.028027189895510674,0.0011544737499207258,1.0,6.938893903907228e-18,0.0,-3.469446951953614e-18
660.0,0.0,0.0,0.0,0.0,0.0,0.0,0.006743434350937605,-0.02225320227444172,-0.0033120024017989635,1.0,0.0,-3.469446951953614e-18,1.734723475976807e-18
661.0,0.0,0.0,0.0,0.0,0.0,0.0,0.010742963291704655,-0.01719028502702713,-0.00021258452034089714,1.0,-6.938893903907228e-18,3.469446951953614e-18,-6.071532165918825e-18
662.0,0.0,0.0,0.0,0.0,0.0,0.0,0.010785740800201893,-0.014024126343429089,0.0003871580120176077,1.0,0.0,0.0,2.6020852139652106e-18
663.0,0.0,0.0,0.0,0.0,0.0,0.0,0.005076308269053698,-0.012795193120837212,-0.002403529826551676,1.0,6.938893903907228e-18,-6.938893903907228e-18,1.3010426069826053e-18
664.0,0.0,0.0,0.0,0.0,0.0,0.0,-0.009656167589128017,-0.011392220854759216,-0.012988969683647156,1.0,0.0,0.0,-2.168404344971009e-18
665.0,0.0,0.0,0.0,0.0,0.0,0.0,0.0028903752099722624,-0.020262598991394043,-0.003381644142791629,1.0,0.0,3.469446951953614e-18,6.071532165918825e-18
666.0,0.0,0.0,0.0,0.0,0.0,0.0,0.0008533701184205711,-0.019816797226667404,0.0013091738801449537,1.0,6.938893903907228e-18,-6.938893903907228e-18,-7.806255641895632e-18
667.0,0.0,0.0,0.0,0.0,0.0,0.0,-0.01613738387823105,0.003941546194255352,0.0018953840481117368,1.0,0.0,-1.0408340855860843e-17,1.734723475976807e-18
668.0,0.0,0.0,0.0,0.0,0.0,0.0,-0.02055441401898861,0.011453714221715927,-0.0018273255554959178,1.0,0.0,3.469446951953614e-18,6.071532165918825e-18
669.0,0.0,0.0,0.0,0.0,0.0,0.0,-0.0005559485289268196,-0.007356957532465458,-0.0009509081719443202,1.0,-6.938893903907228e-18,-6.938893903907228e-18,-2.6020852139652106e-18
670.0,0.0,0.0,0.0,0.0,0.0,0.0,0.007056899834424257,-0.02616894245147705,0.01601659134030342,1.0,-6.938893903907228e-18,3.469446951953614e-18,8.673617379884035e-19
671.0,0.0,0.0,0.0,0.0,0.0,0.0,-0.001575499540194869,-0.027109498158097267,0.03595408797264099,1.0,1.3877787807814457e-17,6.938893903907228e-18,-4.336808689942018e-19
672.0,0.0,0.0,0.0,0.0,0.0,0.0,-0.013860666193068027,-0.017336895689368248,0.025462381541728973,1.0,0.0,0.0,3.903127820947816e-18
673.0,0.0,0.0,0.0,0.0,0.0,0.0,-0.012559679336845875,-0.012136095203459263,0.016145840287208557,1.0,-1.3877787807814457e-17,0.0,-3.903127820947816e-18
674.0,0.0,0.0,0.0,0.0,0.0,0.0,0.0044044675305485725,-0.014794513583183289,0.011241731233894825,1.0,0.0,-6.938893903907228e-18,8.673617379884035e-19
675.0,0.0,0.0,0.0,0.0,0.0,0.0,0.01398545503616333,-0.024912700057029724,0.003814207622781396,1.0,0.0,-3.469446951953614e-18,-5.637851296924623e-18
676.0,0.0,0.0,0.0,0.0,0.0,0.0,0.009930749423801899,-0.02612815424799919,0.0066179330460727215,1.0,1.0408340855860843e-17,0.0,-5.204170427930421e-18
677.0,0.0,0.0,0.0,0.0,0.0,0.0,0.010272594168782234,-0.017752673476934433,0.011308855377137661,1.0,3.469446951953614e-18,-3.469446951953614e-18,8.673617379884035e-19
678.0,0.0,0.0,0.0,0.0,0.0,0.0,0.014919173903763294,-0.016530433669686317,0.00846739113330841,1.0,3.469446951953614e-18,0.0,3.903127820947816e-18
679.0,0.0,0.0,0.0,0.0,0.0,0.0,0.02028224617242813,-0.025277970358729362,0.002373406430706382,1.0,0.0,0.0,1.0842021724855044e-18
680.0,0.0,0.0,0.0,0.0,0.0,0.0,0.027185069397091866,-0.026719018816947937,0.0015679186908528209,1.0,-3.469446951953614e-18,1.734723475976807e-18,-8.673617379884035e-19
681.0,0.0,0.0,0.0,0.0,0.0,0.0,0.02569062076508999,-0.021296141669154167,0.0026275331620126963,1.0,-3.469446951953614e-18,0.0,1.3010426069826053e-18
682.0,0.0,0.0,0.0,0.0,0.0,0.0,0.020789634436368942,-0.022205708548426628,-0.001027188845910132,1.0,3.469446951953614e-18,-1.734723475976807e-18,-1.0842021724855044e-18
683.0,0.0,0.0,0.0,0.0,0.0,0.0,0.02482072077691555,-0.02603873610496521,-0.00633059348911047,1.0,3.469446951953614e-18,0.0,-6.505213034913027e-19
684.0,0.0,0.0,0.0,0.0,0.0,0.0,0.029312733560800552,-0.025799814611673355,-0.008182931691408157,1.0,3.469446951953614e-18,0.0,-2.168404344971009e-18
685.0,0.0,0.0,0.0,0.0,0.0,0.0,0.029356148093938828,-0.022360073402523994,-0.007820912636816502,1.0,6.938893903907228e-18,0.0,-1.3010426069826053e-18
686.0,0.0,0.0,0.0,0.0,0.0,0.0,0.028883283957839012,-0.02029799483716488,-0.008574899286031723,1.0,0.0,0.0,-9.75781955236954e-19
687.0,0.0,0.0,0.0,0.0,0.0,0.0,0.03348000347614288,-0.02108985371887684,-0.007918857038021088,1.0,0.0,1.734723475976807e-18,-3.2526065174565133e-19
688.0,0.0,0.0,0.0,0.0,0.0,0.0,0.0374889001250267,-0.021386997774243355,-0.0015554872807115316,1.0,0.0,0.0,1.1926223897340549e-18
689.0,0.0,0.0,0.0,0.0,0.0,0.0,0.04213966801762581,-0.01796511746942997,0.006792223080992699,1.0,0.0,8.673617379884035e-19,-1.3010426069826053e-18
690.0,0.0,0.0,0.0,0.0,0.0,0.0,0.040090713649988174,-0.013921630568802357,0.0024913987144827843,1.0,6.938893903907228e-18,0.0,-7.047314121155779e-19
691.0,0.0,0.0,0.0,0.0,0.0,0.0,0.030522482469677925,-0.005107604432851076,0.006215409375727177,1.0,6.938893903907228e-18,0.0,-1.0842021724855044e-19
692.0,0.0,0.0,0.0,0.0,0.0,0.0,0.015261534601449966,0.00016117247287184,0.010912405326962471,1.0,0.0,0.0,8.402566836762659e-19
693.0,0.0,0.0,0.0,0.0,0.0,0.0,-0.0170112457126379,0.00828196294605732,-0.0033997262362390757,1.0,-3.469446951953614e-18,-4.336808689942018e-19,8.402566836762659e-19
694.0,0.0,0.0,0.0,0.0,0.0,0.0,0.019511867314577103,-0.010817304253578186,0.00901094637811184,1.0,-3.469446951953614e-18,-2.168404344971009e-19,4.336808689942018e-19
695.0,0.0,0.0,0.0,0.0,0.0,0.0,0.038038916885852814,-0.02113437093794346,0.03245003893971443,1.0,0.0,0.0,-1.2739375526704677e-18
696.0,0.0,0.0,0.0,0.0,0.0,0.0,-0.0058001307770609856,-0.014651994220912457,0.00940138939768076,1.0,3.469446951953614e-18,0.0,-1.1384122811097797e-18
697.0,0.0,0.0,0.0,0.0,0.0,0.0,-0.0003406874311622232,-0.01742873713374138,-0.003712690668180585,1.0,3.469446951953614e-18,-4.336808689942018e-19,1.3552527156068805e-19
698.0,0.0,0.0,0.0,0.0,0.0,0.0,0.02155621163547039,-0.013354355469346046,0.013027765788137913,1.0,-3.469446951953614e-18,0.0,5.963111948670274e-19
699.0,0.0,0.0,0.0,0.0,0.0,0.0,-0.005701763555407524,-0.00815996341407299,0.0024809914175421,1.0,0.0,0.0,8.673617379884035e-19
700.0,0.0,0.0,0.0,0.0,0.0,0.0,0.0014588242629542947,-0.015563422814011574,-0.0021094814874231815,1.0,3.469446951953614e-18,-8.673617379884035e-19,-5.421010862427522e-19
701.0,0.0,0.0,0.0,0.0,0.0,0.0,0.0003467791248112917,-0.014389308169484138,0.006288251839578152,1.0,0.0,-8.673617379884035e-19,-3.577867169202165e-18
702.0,0.0,0.0,0.0,0.0,0.0,0.0,-0.013341382145881653,-0.010712427087128162,0.012546377256512642,1.0,1.734723475976807e-18,0.0,-1.6263032587282567e-18
703.0,0.0,0.0,0.0,0.0,0.0,0.0,-0.012994412332773209,-0.018228916451334953,0.007573239039629698,1.0,0.0,-8.673617379884035e-19,4.336808689942018e-19
704.0,0.0,0.0,0.0,0.0,0.0,0.0,-0.006528946571052074,-0.021415673196315765,0.0051732235588133335,1.0,0.0,-1.734723475976807e-18,1.0842021724855044e-19
705.0,0.0,0.0,0.0,0.0,0.0,0.0,-0.01365339383482933,-0.017088577151298523,0.003397989319637418,1.0,-3.469446951953614e-18,0.0,1.5720931501039814e-18
706.0,0.0,0.0,0.0,0.0,0.0,0.0,-0.012747490778565407,-0.016505176201462746,0.0009359440882690251,1.0,1.734723475976807e-18,3.469446951953614e-18,-5.421010862427522e-20
707.0,0.0,0.0,0.0,0.0,0.0,0.0,-0.005364938173443079,-0.02503383904695511,-0.002708783373236656,1.0,0.0,1.734723475976807e-18,-1.0299920638612292e-18
708.0,0.0,0.0,0.0,0.0,0.0,0.0,0.002393401926383376,-0.018589844927191734,-0.0007073736633174121,1.0,8.673617379884035e-19,1.734723475976807e-18,-8.402566836762659e-19
709.0,0.0,0.0,0.0,0.0,0.0,0.0,-0.03567119687795639,0.004911916796118021,-0.019377920776605606,1.0,-1.734723475976807e-18,0.0,-1.0842021724855044e-18
710.0,0.0,0.0,0.0,0.0,0.0,0.0,-0.03391372784972191,0.008465354330837727,-0.023505426943302155,1.0,0.0,8.673617379884035e-19,4.87890977618477e-19
711.0,0.0,0.0,0.0,0.0,0.0,0.0,-0.04027776047587395,0.011406932026147842,-0.014517167583107948,1.0,8.673617379884035e-19,-8.673617379884035e-19,1.802486111757151e-18
712.0,0.0,0.0,0.0,0.0,0.0,0.0,-0.05195026472210884,0.026025453582406044,-0.011144952848553658,1.0,0.0,1.734723475976807e-18,-2.6020852139652106e-18
713.0,0.0,0.0,0.0,0.0,0.0,0.0,-0.04980212450027466,0.039510373026132584,-0.024358924478292465,1.0,1.734723475976807e-18,-8.673617379884035e-19,2.439454888092385e-19
714.0,0.0,0.0,0.0,0.0,0.0,0.0,-0.031607888638973236,0.034673355519771576,-0.013297287747263908,1.0,1.734723475976807e-18,1.734723475976807e-18,-1.7889335846010823e-18
715.0,0.0,0.0,0.0,0.0,0.0,0.0,-0.03227023407816887,0.02693318948149681,-0.013179581612348557,1.0,2.6020852139652106e-18,0.0,2.710505431213761e-19
716.0,0.0,0.0,0.0,0.0,0.0,0.0,-0.01639258861541748,0.013243469409644604,-0.003907057922333479,1.0,8.673617379884035e-19,0.0,1.6263032587282567e-19
717.0,0.0,0.0,0.0,0.0,0.0,0.0,-0.006757379975169897,0.011269225738942623,-0.003075395943596959,1.0,1.734723475976807e-18,4.336808689942018e-19,-3.550762114890027e-18
718.0,0.0,0.0,0.0,0.0,0.0,0.0,-0.016725752502679825,0.012860506772994995,-0.009414094500243664,1.0,-8.673617379884035e-19,4.336808689942018e-19,-3.604972223514302e-18
719.0,0.0,0.0,0.0,0.0,0.0,0.0,-0.004214717075228691,0.0039984905160963535,-0.00625743018463254,1.0,-8.673617379884035e-19,-4.336808689942018e-19,7.589415207398531e-19
720.0,0.0,0.0,0.0,0.0,0.0,0.0,0.003680555382743478,-0.00794291216880083,-0.0038120269309729338,1.0,8.673617379884035e-19,-8.673617379884035e-19,2.168404344971009e-19
721.0,0.0,0.0,0.0,0.0,0.0,0.0,-0.002213582629337907,-0.0012639238266274333,-0.008193218149244785,1.0,-8.673617379884035e-19,-1.734723475976807e-18,-1.6263032587282567e-18
722.0,0.0,0.0,0.0,0.0,0.0,0.0,-0.006981119979172945,0.009379654191434383,-0.006000048480927944,1.0,0.0,8.673617379884035e-19,2.6969529040576923e-18
723.0,0.0,0.0,0.0,0.0,0.0,0.0,-0.024295832961797714,0.02939467318356037,-0.009091691114008427,1.0,-8.673617379884035e-19,0.0,3.3068166260807885e-18
724.0,0.0,0.0,0.0,0.0,0.0,0.0,-0.028729720041155815,0.04071551933884621,-0.01433715969324112,1.0,8.673617379884035e-19,-1.734723475976807e-18,-1.2468324983583301e-18
725.0,0.0,0.0,0.0,0.0,0.0,0.0,-0.02204464003443718,0.038743048906326294,-0.015832720324397087,1.0,0.0,0.0,2.710505431213761e-18
726.0,0.0,0.0,0.0,0.0,0.0,0.0,-0.026629798114299774,0.039270538836717606,-0.0144386887550354,1.0,-2.6020852139652106e-18,-1.734723475976807e-18,2.710505431213761e-20
727.0,0.0,0.0,0.0,0.0,0.0,0.0,-0.0074665481224656105,0.026488343253731728,-0.00713553000241518,1.0,-1.734723475976807e-18,8.673617379884035e-19,1.4907779871675686e-18
728.0,0.0,0.0,0.0,0.0,0.0,0.0,-0.0009762267000041902,0.01916598528623581,-0.0005867513245902956,1.0,0.0,0.0,-2.6020852139652106e-18
729.0,0.0,0.0,0.0,0.0,0.0,0.0,-0.0017820126377046108,0.016265535727143288,0.00449475459754467,1.0,1.734723475976807e-18,0.0,2.1141942363467336e-18
730.0,0.0,0.0,0.0,0.0,0.0,0.0,0.004932737443596125,0.013215531595051289,0.003011326538398862,1.0,0.0,8.673617379884035e-19,-3.2526065174565133e-19
731.0,0.0,0.0,0.0,0.0,0.0,0.0,0.027503404766321182,0.01607389934360981,0.014807975850999355,1.0,1.734723475976807e-18,0.0,3.144186300207963e-18
732.0,0.0,0.0,0.0,0.0,0.0,0.0,-0.0052708107978105545,0.02429088018834591,0.003017446957528591,1.0,1.734723475976807e-18,1.734723475976807e-18,-2.656295322589486e-18
733.0,0.0,0.0,0.0,0.0,0.0,0.0,0.0034011469688266516,0.02243085578083992,0.012489049695432186,1.0,0.0,1.734723475976807e-18,1.5178830414797062e-18
734.0,0.0,0.0,0.0,0.0,0.0,0.0,0.007235181983560324,0.023547567427158356,0.010500275529921055,1.0,3.469446951953614e-18,1.734723475976807e-18,-1.6263032587282567e-18
735.0,0.0,0.0,0.0,0.0,0.0,0.0,0.00297146150842309,0.022921249270439148,0.010645131580531597,1.0,-1.734723475976807e-18,0.0,0.0
736.0,0.0,0.0,0.0,0.0,0.0,0.0,0.006590341683477163,0.013996439054608345,0.007815798744559288,1.0,1.734723475976807e-18,-1.734723475976807e-18,-1.7889335846010823e-18
737.0,0.0,0.0,0.0,0.0,0.0,0.0,0.003164528636261821,0.004579512868076563,0.005420571193099022,1.0,1.734723475976807e-18,0.0,-2.168404344971009e-19
738.0,0.0,0.0,0.0,0.0,0.0,0.0,0.0013098444323986769,0.006431418005377054,0.005867087282240391,1.0,0.0,1.734723475976807e-18,1.6263032587282567e-18
739.0,0.0,0.0,0.0,0.0,0.0,0.0,0.005547662731260061,0.01092543639242649,0.006347821559756994,1.0,0.0,-1.734723475976807e-18,1.3010426069826053e-18
740.0,0.0,0.0,0.0,0.0,0.0,0.0,0.013733519241213799,0.008290428668260574,0.005221975967288017,1.0,-1.734723475976807e-18,-1.734723475976807e-18,-1.0842021724855044e-19
741.0,0.0,0.0,0.0,0.0,0.0,0.0,0.019495414569973946,-0.0009467154741287231,0.0047468882985413074,1.0,0.0,1.734723475976807e-18,-9.75781955236954e-19
742.0,0.0,0.0,0.0,0.0,0.0,0.0,0.016808725893497467,-0.00575312739238143,0.0015034746611490846,1.0,1.734723475976807e-18,1.734723475976807e-18,-1.4094628242311558e-18
743.0,0.0,0.0,0.0,0.0,0.0,0.0,0.013337421230971813,-0.005580611526966095,-0.0012762612896040082,1.0,1.734723475976807e-18,1.734723475976807e-18,1.5178830414797062e-18
744.0,0.0,0.0,0.0,0.0,0.0,0.0,0.012953209690749645,-0.00683056004345417,-0.0015905757900327444,1.0,-1.734723475976807e-18,-1.734723475976807e-18,2.3852447794681098e-18
745.0,0.0,0.0,0.0,0.0,0.0,0.0,0.008156314492225647,-0.010342003777623177,-0.0005863134283572435,1.0,-1.734723475976807e-18,0.0,-9.75781955236954e-19
746.0,0.0,0.0,0.0,0.0,0.0,0.0,0.006467113271355629,-0.006672832183539867,-0.0015419905539602041,1.0,-1.734723475976807e-18,-3.469446951953614e-18,3.144186300207963e-18
747.0,0.0,0.0,0.0,0.0,0.0,0.0,0.00754460459575057,-0.006484599318355322,0.0036760782822966576,1.0,-3.469446951953614e-18,-3.469446951953614e-18,5.095750210681871e-18
748.0,0.0,0.0,0.0,0.0,0.0,0.0,0.01040276326239109,-0.008723201230168343,0.005654617212712765,1.0,1.734723475976807e-18,1.734723475976807e-18,3.7947076036992655e-18
749.0,0.0,0.0,0.0,0.0,0.0,0.0,0.006930062547326088,-0.004719187039881945,0.004315111320465803,1.0,-3.469446951953614e-18,-1.734723475976807e-18,3.2526065174565133e-19
750.0,0.0,0.0,0.0,0.0,0.0,0.0,-0.0028391033411026,0.0015320779057219625,-0.0036635969299823046,1.0,-6.938893903907228e-18,1.734723475976807e-18,5.421010862427522e-19
751.0,0.0,0.0,0.0,0.0,0.0,0.0,-0.011397440917789936,0.003251622896641493,-0.006112820003181696,1.0,-3.469446951953614e-18,-1.734723475976807e-18,5.095750210681871e-18
752.0,0.0,0.0,0.0,0.0,0.0,0.0,-0.0035804344806820154,-0.0031003765761852264,-0.006260477472096682,1.0,-3.469446951953614e-18,-3.469446951953614e-18,2.927345865710862e-18
753.0,0.0,0.0,0.0,0.0,0.0,0.0,-0.0015643391525372863,-0.007636952679604292,-0.0017226941417902708,1.0,1.734723475976807e-18,1.734723475976807e-18,-2.168404344971009e-19
754.0,0.0,0.0,0.0,0.0,0.0,0.0,-0.005409566685557365,-0.004239604342728853,-0.001253580441698432,1.0,-1.734723475976807e-18,3.469446951953614e-18,-1.4094628242311558e-18
755.0,0.0,0.0,0.0,0.0,0.0,0.0,-0.005671713966876268,-0.0056447493843734264,-0.0019264067523181438,1.0,1.734723475976807e-18,1.734723475976807e-18,-1.734723475976807e-18
756.0,0.0,0.0,0.0,0.0,0.0,0.0,0.007512313779443502,-0.014807830564677715,-0.004085111431777477,1.0,1.734723475976807e-18,0.0,6.505213034913027e-19
757.0,0.0,0.0,0.0,0.0,0.0,0.0,0.022877415642142296,-0.024593060836195946,-0.0030144306365400553,1.0,-3.469446951953614e-18,-1.734723475976807e-18,-3.144186300207963e-18
758.0,0.0,0.0,0.0,0.0,0.0,0.0,0.015775879845023155,-0.018550550565123558,-0.00027538524591363966,1.0,0.0,1.734723475976807e-18,1.3010426069826053e-18
759.0,0.0,0.0,0.0,0.0,0.0,0.0,0.004977619741111994,-0.011416591703891754,0.005406850948929787,1.0,-3.469446951953614e-18,-1.734723475976807e-18,-2.4936649967166602e-18
760.0,0.0,0.0,0.0,0.0,0.0,0.0,-0.00040357332909479737,-0.013567080721259117,0.002532516373321414,1.0,6.938893903907228e-18,-1.734723475976807e-18,-7.589415207398531e-19
761.0,0.0,0.0,0.0,0.0,0.0,0.0,-0.0035878908820450306,-0.009164595045149326,0.0010778156574815512,1.0,0.0,-8.673617379884035e-19,-1.4094628242311558e-18
762.0,0.0,0.0,0.0,0.0,0.0,0.0,0.003057896625250578,-0.009571782313287258,0.0035213285591453314,1.0,3.469446951953614e-18,-8.673617379884035e-19,8.673617379884035e-19
763.0,0.0,0.0,0.0,0.0,0.0,0.0,0.005760336294770241,-0.0096386494114995,0.010324510745704174,1.0,0.0,0.0,2.0599841277224584e-18
764.0,0.0,0.0,0.0,0.0,0.0,0.0,0.004086567088961601,-0.010696361772716045,0.00805856566876173,1.0,-3.469446951953614e-18,-8.673617379884035e-19,1.463672932855431e-18
765.0,0.0,0.0,0.0,0.0,0.0,0.0,0.004123216960579157,-0.011376580223441124,0.00611112080514431,1.0,6.938893903907228e-18,4.336808689942018e-19,2.168404344971009e-19
766.0,0.0,0.0,0.0,0.0,0.0,0.0,0.004763239528983831,-0.009091650135815144,-0.00036076424294151366,1.0,6.938893903907228e-18,2.168404344971009e-19,-2.168404344971009e-19
767.0,0.0,0.0,0.0,0.0,0.0,0.0,0.009020420722663403,-0.013451461680233479,-0.004168656654655933,1.0,0.0,-1.0842021724855044e-19,2.913793338554793e-19
768.0,0.0,0.0,0.0,0.0,0.0,0.0,0.015739979222416878,-0.020133353769779205,-0.0057146199978888035,1.0,6.938893903907228e-18,-2.710505431213761e-20,-4.2690460541616737e-19
769.0,0.0,0.0,0.0,0.0,0.0,0.0,0.016932379454374313,-0.022442977875471115,-0.004187274724245071,1.0,3.469446951953614e-18,0.0,-2.168404344971009e-19
770.0,0.0,0.0,0.0,0.0,0.0,0.0,0.017741918563842773,-0.022188184782862663,-0.002404682105407119,1.0,3.469446951953614e-18,-2.168404344971009e-19,-4.0657581468206416e-20
771.0,0.0,0.0,0.0,0.0,0.0,0.0,0.018179848790168762,-0.021094683557748795,-0.004854919854551554,1.0,-3.469446951953614e-18,1.3010426069826053e-18,-1.3552527156068805e-19
772.0,0.0,0.0,0.0,0.0,0.0,0.0,0.01732013002038002,-0.02175629511475563,-0.004285584203898907,1.0,1.0408340855860843e-17,4.336808689942018e-19,-5.421010862427522e-20
773.0,0.0,0.0,0.0,0.0,0.0,0.0,0.01996743679046631,-0.02168693207204342,-0.0006716563948430121,1.0,3.469446951953614e-18,-4.336808689942018e-19,-3.5236570605778894e-19
774.0,0.0,0.0,0.0,0.0,0.0,0.0,0.015430799685418606,-0.0269240140914917,-0.0003517857112456113,1.0,3.469446951953614e-18,-4.336808689942018e-19,-6.505213034913027e-19
775.0,0.0,0.0,0.0,0.0,0.0,0.0,0.021768640726804733,-0.0299677737057209,-0.0001164935965789482,1.0,0.0,0.0,7.589415207398531e-19
776.0,0.0,0.0,0.0,0.0,0.0,0.0,0.03659224882721901,-0.01856750063598156,0.01066514290869236,1.0,3.469446951953614e-18,0.0,-3.2526065174565133e-19
777.0,0.0,0.0,0.0,0.0,0.0,0.0,0.03148613125085831,-0.0023253404069691896,0.010084211826324463,1.0,3.469446951953614e-18,-2.6020852139652106e-18,-4.336808689942018e-19
778.0,0.0,0.0,0.0,0.0,0.0,0.0,0.0030759996734559536,-0.000553458055946976,-0.008649728260934353,1.0,6.938893903907228e-18,-8.673617379884035e-19,1.0842021724855044e-19
779.0,0.0,0.0,0.0,0.0,0.0,0.0,0.0046459985896945,-0.001094497856684029,-0.010028930380940437,1.0,0.0,8.673617379884035e-19,4.336808689942018e-19
780.0,0.0,0.0,0.0,0.0,0.0,0.0,0.006939393933862448,5.380363290896639e-05,-0.006383155006915331,1.0,-6.938893903907228e-18,8.673617379884035e-19,1.951563910473908e-18
781.0,0.0,0.0,0.0,0.0,0.0,0.0,0.006304570473730564,-0.0033530318178236485,-0.0014178056735545397,1.0,6.938893903907228e-18,8.673617379884035e-19,-6.505213034913027e-19
782.0,0.0,0.0,0.0,0.0,0.0,0.0,0.007155419327318668,-0.0037678179796785116,0.0005475462530739605,1.0,0.0,-8.673617379884035e-19,2.168404344971009e-19
783.0,0.0,0.0,0.0,0.0,0.0,0.0,0.002091002417728305,0.00045121132279746234,-0.00204547424800694,1.0,1.0408340855860843e-17,-1.734723475976807e-18,-8.673617379884035e-19
784.0,0.0,0.0,0.0,0.0,0.0,0.0,-0.0012844681041315198,0.002316219499334693,-0.0006750526954419911,1.0,0.0,1.734723475976807e-18,-4.336808689942018e-19
785.0,0.0,0.0,0.0,0.0,0.0,0.0,-0.003377357264980674,0.0017753411084413528,0.0003208547132089734,1.0,6.938893903907228e-18,-1.734723475976807e-18,-4.336808689942018e-19
786.0,0.0,0.0,0.0,0.0,0.0,0.0,-0.004610712174326181,0.009456628002226353,0.005335294641554356,1.0,0.0,1.734723475976807e-18,0.0
787.0,0.0,0.0,0.0,0.0,0.0,0.0,-0.004417390562593937,0.010134577751159668,0.004372225143015385,1.0,3.469446951953614e-18,0.0,-8.673617379884035e-19
788.0,0.0,0.0,0.0,0.0,0.0,0.0,-0.005753025878220797,0.0068576885387301445,0.00492370268329978,1.0,3.469446951953614e-18,0.0,8.673617379884035e-19
789.0,0.0,0.0,0.0,0.0,0.0,0.0,-0.011742325499653816,0.006374884396791458,0.005974069237709045,1.0,0.0,0.0,0.0
790.0,0.0,0.0,0.0,0.0,0.0,0.0,-0.005137555301189423,0.008705457672476768,0.007821953855454922,1.0,6.938893903907228e-18,0.0,-4.336808689942018e-19
791.0,0.0,0.0,0.0,0.0,0.0,0.0,-0.004348237998783588,0.008816770277917385,0.000261834793491289,1.0,0.0,-5.204170427930421e-18,4.336808689942018e-19
792.0,0.0,0.0,0.0,0.0,0.0,0.0,-0.005377987399697304,0.009482168592512608,-0.0005166903138160706,1.0,0.0,3.469446951953614e-18,1.951563910473908e-18
793.0,0.0,0.0,0.0,0.0,0.0,0.0,-0.0039728316478431225,0.008097659796476364,0.001958544598892331,1.0,-3.469446951953614e-18,1.734723475976807e-18,4.336808689942018e-19
794.0,0.0,0.0,0.0,0.0,0.0,0.0,-0.0022060598712414503,0.008768128231167793,8.882441034074873e-05,1.0,-6.938893903907228e-18,-3.469446951953614e-18,2.168404344971009e-19
795.0,0.0,0.0,0.0,0.0,0.0,0.0,-0.0037066193763166666,0.003612969536334276,-0.0032713930122554302,1.0,0.0,3.469446951953614e-18,-4.336808689942018e-19
796.0,0.0,0.0,0.0,0.0,0.0,0.0,-0.013312547467648983,0.007208105176687241,-0.0019593320321291685,1.0,3.469446951953614e-18,0.0,4.336808689942018e-19
797.0,0.0,0.0,0.0,0.0,0.0,0.0,-0.014274085871875286,0.015934236347675323,0.0037187901325523853,1.0,-3.469446951953614e-18,0.0,-2.168404344971009e-18
798.0,0.0,0.0,0.0,0.0,0.0,0.0,-0.012859726324677467,0.017793159931898117,0.007165954913944006,1.0,3.469446951953614e-18,0.0,0.0
799.0,0.0,0.0,0.0,0.0,0.0,0.0,-0.014718430116772652,0.014954141341149807,0.006432898808270693,1.0,0.0,-3.469446951953614e-18,2.168404344971009e-19
800.0,0.0,0.0,0.0,0.0,0.0,0.0,-0.013885419815778732,0.008450595661997795,0.00023180236166808754,1.0,6.938893903907228e-18,0.0,-2.168404344971009e-19
801.0,0.0,0.0,0.0,0.0,0.0,0.0,-0.009168426506221294,0.000764103140681982,-0.00018810428446158767,1.0,-3.469446951953614e-18,-3.469446951953614e-18,6.505213034913027e-19
802.0,0.0,0.0,0.0,0.0,0.0,0.0,0.0012141602346673608,-0.007265273481607437,-0.00227945065125823,1.0,-3.469446951953614e-18,3.469446951953614e-18,2.168404344971009e-19
803.0,0.0,0.0,0.0,0.0,0.0,0.0,0.011087088845670223,-0.008211485110223293,0.001581312157213688,1.0,-3.469446951953614e-18,6.938893903907228e-18,8.673617379884035e-19
804.0,0.0,0.0,0.0,0.0,0.0,0.0,0.015349021181464195,-0.005408912431448698,0.005894355941563845,1.0,-6.938893903907228e-18,0.0,0.0
805.0,0.0,0.0,0.0,0.0,0.0,0.0,0.011062821373343468,-0.009244243614375591,0.0036862632259726524,1.0,-3.469446951953614e-18,0.0,4.336808689942018e-19
806.0,0.0,0.0,0.0,0.0,0.0,0.0,0.032883211970329285,-0.018563270568847656,0.011982153169810772,1.0,-3.469446951953614e-18,0.0,4.336808689942018e-19
807.0,0.0,0.0,0.0,0.0,0.0,0.0,0.032014843076467514,-0.017869122326374054,0.013563907705247402,1.0,-3.469446951953614e-18,1.734723475976807e-18,-6.505213034913027e-19
808.0,0.0,0.0,0.0,0.0,0.0,0.0,0.02089044079184532,-0.01263249572366476,0.005861300975084305,1.0,-3.469446951953614e-18,-1.734723475976807e-18,-8.673617379884035e-19
809.0,0.0,0.0,0.0,0.0,0.0,0.0,0.0129558639600873,-0.012051388621330261,0.0006193344015628099,1.0,3.469446951953614e-18,-1.734723475976807e-18,-3.903127820947816e-18
810.0,0.0,0.0,0.0,0.0,0.0,0.0,-0.0033879014663398266,-0.012859366834163666,-0.010592467151582241,1.0,0.0,1.734723475976807e-18,-1.0842021724855044e-19
811.0,0.0,0.0,0.0,0.0,0.0,0.0,-0.008405767381191254,-0.013061517849564552,-0.022099889814853668,1.0,-1.0408340855860843e-17,0.0,-2.168404344971009e-18
812.0,0.0,0.0,0.0,0.0,0.0,0.0,-0.004533332772552967,-0.01478085108101368,-0.023216258734464645,1.0,-3.469446951953614e-18,-1.734723475976807e-18,-1.0842021724855044e-18
813.0,0.0,0.0,0.0,0.0,0.0,0.0,0.003968339413404465,-0.014760354533791542,-0.016481922939419746,1.0,-3.469446951953614e-18,-8.673617379884035e-19,-9.75781955236954e-19
814.0,0.0,0.0,0.0,0.0,0.0,0.0,0.013616175390779972,-0.012852238491177559,-0.010753893293440342,1.0,-3.469446951953614e-18,8.673617379884035e-19,-1.463672932855431e-18
815.0,0.0,0.0,0.0,0.0,0.0,0.0,0.010280926711857319,-0.012661202810704708,-0.012404886074364185,1.0,0.0,0.0,-2.3310346708438345e-18
816.0,0.0,0.0,0.0,0.0,0.0,0.0,0.009029286913573742,-0.009608745574951172,-0.0075226640328764915,1.0,0.0,8.673617379884035e-19,1.1926223897340549e-18
817.0,0.0,0.0,0.0,0.0,0.0,0.0,0.004697637166827917,-0.00865821074694395,-0.0029173060320317745,1.0,0.0,-4.336808689942018e-19,9.75781955236954e-19
818.0,0.0,0.0,0.0,0.0,0.0,0.0,0.004565570503473282,-0.008694762364029884,-0.0036282299552112818,1.0,3.469446951953614e-18,-4.336808689942018e-19,-1.3823577699190182e-18
819.0,0.0,0.0,0.0,0.0,0.0,0.0,0.0010691012721508741,-0.004507384728640318,-0.00797510240226984,1.0,-3.469446951953614e-18,0.0,2.100641709190665e-18
820.0,0.0,0.0,0.0,0.0,0.0,0.0,0.0018034267704933882,-0.0008382563828490674,-0.0037131363060325384,1.0,3.469446951953614e-18,-1.6263032587282567e-19,7.453889935837843e-20
821.0,0.0,0.0,0.0,0.0,0.0,0.0,0.00466004665941,-0.006214079912751913,0.004116141237318516,1.0,-3.469446951953614e-18,0.0,1.6263032587282567e-18
822.0,0.0,0.0,0.0,0.0,0.0,0.0,0.0015227471012622118,-0.009347663260996342,0.0043085236102342606,1.0,1.0408340855860843e-17,-4.336808689942018e-19,-1.5178830414797062e-18
823.0,0.0,0.0,0.0,0.0,0.0,0.0,-0.008541797287762165,-0.0021174803841859102,0.0028301978018134832,1.0,3.469446951953614e-18,4.336808689942018e-19,-4.7704895589362195e-18
824.0,0.0,0.0,0.0,0.0,0.0,0.0,-0.013331403024494648,0.003986387047916651,0.0026345858350396156,1.0,6.938893903907228e-18,-8.673617379884035e-19,-8.131516293641283e-19
825.0,0.0,0.0,0.0,0.0,0.0,0.0,-0.01803228072822094,0.0044440277852118015,0.0014314131112769246,1.0,-3.469446951953614e-18,0.0,2.2768245622195593e-18
826.0,0.0,0.0,0.0,0.0,0.0,0.0,-0.022220758721232414,0.005086093209683895,0.0008628064533695579,1.0,-3.469446951953614e-18,0.0,-3.577867169202165e-18
827.0,0.0,0.0,0.0,0.0,0.0,0.0,-0.03431203216314316,0.0037395842373371124,0.006188688799738884,1.0,-3.469446951953614e-18,1.734723475976807e-18,-9.75781955236954e-19
828.0,0.0,0.0,0.0,0.0,0.0,0.0,-0.035025037825107574,-0.009366222657263279,8.749942935537547e-05,1.0,0.0,-1.734723475976807e-18,-3.2526065174565133e-19
829.0,0.0,0.0,0.0,0.0,0.0,0.0,-0.027932576835155487,-0.015861058607697487,-0.0012886096956208348,1.0,0.0,1.734723475976807e-18,3.686287386450715e-18
830.0,0.0,0.0,0.0,0.0,0.0,0.0,-0.02806171029806137,-0.015527102164924145,8.769729902269319e-05,1.0,-3.469446951953614e-18,1.734723475976807e-18,-3.903127820947816e-18
831.0,0.0,0.0,0.0,0.0,0.0,0.0,-0.03290679678320885,-0.019615281373262405,-0.001474494580179453,1.0,3.469446951953614e-18,-1.734723475976807e-18,1.0842021724855044e-18
832.0,0.0,0.0,0.0,0.0,0.0,0.0,-0.02431664988398552,-0.016959136351943016,-0.0030381609685719013,1.0,0.0,3.469446951953614e-18,-1.3010426069826053e-18
833.0,0.0,0.0,0.0,0.0,0.0,0.0,-0.026005344465374947,-0.01930859312415123,-0.007744498550891876,1.0,-3.469446951953614e-18,0.0,-6.505213034913027e-19
834.0,0.0,0.0,0.0,0.0,0.0,0.0,-0.028285769745707512,-0.02253648079931736,-0.01224486529827118,1.0,3.469446951953614e-18,0.0,6.505213034913027e-19
835.0,0.0,0.0,0.0,0.0,0.0,0.0,-0.023451203480362892,-0.020348556339740753,-0.009887011721730232,1.0,3.469446951953614e-18,3.469446951953614e-18,-3.2526065174565133e-18
836.0,0.0,0.0,0.0,0.0,0.0,0.0,-0.023631678894162178,-0.019001899287104607,-0.008021652698516846,1.0,-3.469446951953614e-18,0.0,4.336808689942018e-19
837.0,0.0,0.0,0.0,0.0,0.0,0.0,-0.01709618978202343,-0.02190229296684265,-0.005756389815360308,1.0,-3.469446951953614e-18,0.0,6.505213034913027e-19
838.0,0.0,0.0,0.0,0.0,0.0,0.0,-0.007665650453418493,-0.027279820293188095,-0.006442822981625795,1.0,-1.0408340855860843e-17,-3.469446951953614e-18,0.0
839.0,0.0,0.0,0.0,0.0,0.0,0.0,0.0017834163736552,-0.03148387745022774,0.00011563325097085908,1.0,3.469446951953614e-18,0.0,-1.3010426069826053e-18
840.0,0.0,0.0,0.0,0.0,0.0,0.0,0.0036916157696396112,-0.026370413601398468,0.0056542204692959785,1.0,0.0,-1.734723475976807e-18,2.168404344971009e-19
841.0,0.0,0.0,0.0,0.0,0.0,0.0,0.0008568918565288186,-0.014021683484315872,0.01235680840909481,1.0,0.0,1.734723475976807e-18,2.168404344971009e-19
842.0,0.0,0.0,0.0,0.0,0.0,0.0,-0.006434328388422728,-0.011786162853240967,0.013700501061975956,1.0,-1.0408340855860843e-17,0.0,-2.168404344971009e-18
843.0,0.0,0.0,0.0,0.0,0.0,0.0,-0.005099085159599781,-0.0094243623316288,0.015448498539626598,1.0,-6.938893903907228e-18,-1.734723475976807e-18,-8.673617379884035e-19
844.0,0.0,0.0,0.0,0.0,0.0,0.0,-0.0005758983897976577,-0.009166299365460873,0.011579448357224464,1.0,0.0,-1.734723475976807e-18,-2.168404344971009e-18
845.0,0.0,0.0,0.0,0.0,0.0,0.0,-0.007586184423416853,-0.0016461433842778206,0.010518845170736313,1.0,0.0,1.734723475976807e-18,1.5178830414797062e-18
846.0,0.0,0.0,0.0,0.0,0.0,0.0,-0.006703163497149944,-0.0009350359905511141,0.0048524197190999985,1.0,0.0,-2.6020852139652106e-18,9.75781955236954e-19
847.0,0.0,0.0,0.0,0.0,0.0,0.0,-0.0003860681608784944,0.0034558381885290146,0.00640797009691596,1.0,0.0,-1.734723475976807e-18,-2.3852447794681098e-18
848.0,0.0,0.0,0.0,0.0,0.0,0.0,-0.0004293001547921449,0.0029212739318609238,0.00296993600204587,1.0,-1.3877787807814457e-17,0.0,1.8431436932253575e-18
849.0,0.0,0.0,0.0,0.0,0.0,0.0,-0.002001460874453187,0.0024168319068849087,-0.0025974642485380173,1.0,-1.3877787807814457e-17,-4.336808689942018e-19,-2.168404344971009e-18
850.0,0.0,0.0,0.0,0.0,0.0,0.0,6.208250124473125e-05,0.004501313902437687,-0.0003778580576181412,1.0,0.0,-4.336808689942018e-19,-3.74049749507499e-18
851.0,0.0,0.0,0.0,0.0,0.0,0.0,0.0052861724980175495,0.004463807679712772,-0.0016712585929781199,1.0,6.938893903907228e-18,0.0,4.336808689942018e-19
852.0,0.0,0.0,0.0,0.0,0.0,0.0,0.004870109725743532,0.011035965755581856,0.0013053937582299113,1.0,0.0,5.421010862427522e-19,-8.267041565201971e-19
853.0,0.0,0.0,0.0,0.0,0.0,0.0,-0.0007150073070079088,0.01698782481253147,-0.0024260072968900204,1.0,6.938893903907228e-18,-5.421010862427522e-20,-8.971772977317549e-18
854.0,0.0,0.0,0.0,0.0,0.0,0.0,-0.0018052567029371858,0.016258221119642258,-0.001976724248379469,1.0,-6.938893903907228e-18,-8.673617379884035e-19,2.710505431213761e-20
855.0,0.0,0.0,0.0,0.0,0.0,0.0,-0.004195739049464464,0.026821205392479897,-0.001317158224992454,1.0,-6.938893903907228e-18,8.673617379884035e-19,-5.421010862427522e-20
856.0,0.0,0.0,0.0,0.0,0.0,0.0,-0.006684161256998777,0.03870735317468643,-0.00018854012887459248,1.0,-6.938893903907228e-18,0.0,4.9873299934333204e-18
857.0,0.0,0.0,0.0,0.0,0.0,0.0,-0.008120539598166943,0.04148659110069275,8.476016955683008e-05,1.0,0.0,-8.673617379884035e-19,2.927345865710862e-18
858.0,0.0,0.0,0.0,0.0,0.0,0.0,-0.0030389369931071997,0.04006589576601982,0.009606592357158661,1.0,-1.3877787807814457e-17,0.0,-2.927345865710862e-18
859.0,0.0,0.0,0.0,0.0,0.0,0.0,0.0008925566216930747,0.0379098616540432,0.012066192924976349,1.0,3.469446951953614e-18,0.0,2.2768245622195593e-18
860.0,0.0,0.0,0.0,0.0,0.0,0.0,-0.004546995274722576,0.03806310147047043,0.010751038789749146,1.0,3.469446951953614e-18,0.0,-2.0599841277224584e-18
861.0,0.0,0.0,0.0,0.0,0.0,0.0,-0.01450477633625269,0.032731857150793076,0.003045162884518504,1.0,-3.469446951953614e-18,-1.734723475976807e-18,-1.3010426069826053e-18
862.0,0.0,0.0,0.0,0.0,0.0,0.0,-0.01744326390326023,0.029660390689969063,-0.0027766418643295765,1.0,0.0,8.673617379884035e-19,3.144186300207963e-18
863.0,0.0,0.0,0.0,0.0,0.0,0.0,-0.016197150573134422,0.034275420010089874,-0.0036258287727832794,1.0,0.0,0.0,7.589415207398531e-19
864.0,0.0,0.0,0.0,0.0,0.0,0.0,-0.009314509108662605,0.03541065379977226,-0.0034591052681207657,1.0,6.938893903907228e-18,-8.673617379884035e-19,3.2526065174565133e-19
865.0,0.0,0.0,0.0,0.0,0.0,0.0,0.008120722137391567,0.02808278799057007,-4.4895796236232854e-06,1.0,0.0,-2.168404344971009e-18,-2.9815559743351372e-18
866.0,0.0,0.0,0.0,0.0,0.0,0.0,0.0012936651473864913,0.023715835064649582,-0.006049979943782091,1.0,3.469446951953614e-18,-6.505213034913027e-19,-1.1546753136970622e-17
867.0,0.0,0.0,0.0,0.0,0.0,0.0,-0.008607936091721058,0.011388217099010944,-0.017626693472266197,1.0,0.0,0.0,6.911788849595091e-19
868.0,0.0,0.0,0.0,0.0,0.0,0.0,0.006247356999665499,0.003736169310286641,-0.008762149140238762,1.0,3.469446951953614e-18,-4.336808689942018e-19,-8.348356728138384e-18
869.0,0.0,0.0,0.0,0.0,0.0,0.0,0.004523253533989191,0.010699855163693428,0.0011782997753471136,1.0,6.938893903907228e-18,8.673617379884035e-19,-2.5478751053409354e-18
870.0,0.0,0.0,0.0,0.0,0.0,0.0,-0.005969372112303972,0.01111210510134697,0.00453199865296483,1.0,3.469446951953614e-18,-8.673617379884035e-19,3.469446951953614e-18
871.0,0.0,0.0,0.0,0.0,0.0,0.0,-0.018722819164395332,0.019162457436323166,-0.002735300688073039,1.0,0.0,0.0,3.7947076036992655e-18
872.0,0.0,0.0,0.0,0.0,0.0,0.0,-0.03155583515763283,0.011417858302593231,-0.009479501284658909,1.0,-3.469446951953614e-18,-2.6020852139652106e-18,-8.673617379884035e-19
873.0,0.0,0.0,0.0,0.0,0.0,0.0,-0.008194254711270332,0.0015611321432515979,-0.0005362521624192595,1.0,-1.0408340855860843e-17,0.0,4.0115480381963664e-18
874.0,0.0,0.0,0.0,0.0,0.0,0.0,0.0008182111196219921,0.0065640974789857864,-0.0011137333931401372,1.0,3.469446951953614e-18,0.0,-2.0599841277224584e-18
875.0,0.0,0.0,0.0,0.0,0.0,0.0,-0.017340542748570442,0.009276260621845722,-0.011634089052677155,1.0,-3.469446951953614e-18,1.734723475976807e-18,2.2768245622195593e-18
876.0,0.0,0.0,0.0,0.0,0.0,0.0,-0.005322551820427179,0.009105426259338856,-0.0018130434909835458,1.0,-6.938893903907228e-18,0.0,2.168404344971009e-19
877.0,0.0,0.0,0.0,0.0,0.0,0.0,-0.016471318900585175,0.013778417371213436,0.009050793014466763,1.0,-6.938893903907228e-18,-5.204170427930421e-18,1.734723475976807e-18
878.0,0.0,0.0,0.0,0.0,0.0,0.0,-0.026260776445269585,0.02039896510541439,0.010702444240450859,1.0,-6.938893903907228e-18,-1.734723475976807e-18,0.0
879.0,0.0,0.0,0.0,0.0,0.0,0.0,-0.009607264772057533,0.016948914155364037,0.004706061910837889,1.0,6.938893903907228e-18,0.0,-1.1275702593849246e-17
880.0,0.0,0.0,0.0,0.0,0.0,0.0,-0.007825453765690327,0.008495451882481575,0.001318597816862166,1.0,1.0408340855860843e-17,1.734723475976807e-18,0.0
881.0,0.0,0.0,0.0,0.0,0.0,0.0,-0.01034645363688469,-0.012130851857364178,-0.006953951437026262,1.0,0.0,-1.734723475976807e-18,-2.168404344971009e-19
882.0,0.0,0.0,0.0,0.0,0.0,0.0,0.003967614844441414,-0.02109060063958168,0.0043348586186766624,1.0,3.469446951953614e-18,0.0,-8.673617379884035e-19
883.0,0.0,0.0,0.0,0.0,0.0,0.0,0.004942901898175478,-0.016866685822606087,0.005901271943002939,1.0,-6.938893903907228e-18,0.0,-4.336808689942018e-19
884.0,0.0,0.0,0.0,0.0,0.0,0.0,0.0016438850434496999,-0.011373200453817844,0.005217180587351322,1.0,0.0,-1.734723475976807e-18,-8.673617379884035e-19
885.0,0.0,0.0,0.0,0.0,0.0,0.0,0.005334861110895872,-0.0101384948939085,0.0030969942454248667,1.0,0.0,1.734723475976807e-18,-6.179952383167375e-18
886.0,0.0,0.0,0.0,0.0,0.0,0.0,-0.0017559886910021305,-0.015647325664758682,-0.006368077360093594,1.0,0.0,3.469446951953614e-18,-9.75781955236954e-19
887.0,0.0,0.0,0.0,0.0,0.0,0.0,0.001984142232686281,-0.017312105745077133,-0.0026028233114629984,1.0,1.0408340855860843e-17,8.673617379884035e-19,-3.469446951953614e-18
888.0,0.0,0.0,0.0,0.0,0.0,0.0,-0.0008081262931227684,-0.008271603845059872,-0.0029001771472394466,1.0,3.469446951953614e-18,0.0,-4.065758146820642e-18
889.0,0.0,0.0,0.0,0.0,0.0,0.0,0.0018738488433882594,-0.0058286250568926334,0.00016812006651889533,1.0,-3.469446951953614e-18,8.673617379884035e-19,2.168404344971009e-19
890.0,0.0,0.0,0.0,0.0,0.0,0.0,-0.0037670135498046875,-0.007622258737683296,-0.004787761718034744,1.0,-6.938893903907228e-18,-8.673617379884035e-19,7.779150587583494e-18
891.0,0.0,0.0,0.0,0.0,0.0,0.0,-0.012612370774149895,-0.010661863721907139,-0.005249945446848869,1.0,3.469446951953614e-18,4.336808689942018e-19,-2.1412992906588713e-18
892.0,0.0,0.0,0.0,0.0,0.0,0.0,0.0035483723040670156,-0.007332183886319399,0.0071676792576909065,1.0,1.734723475976807e-18,0.0,-5.55653613398821e-19
893.0,0.0,0.0,0.0,0.0,0.0,0.0,0.002438177587464452,-0.008342761546373367,0.00018141638429369777,1.0,0.0,0.0,-2.995108501491206e-18
894.0,0.0,0.0,0.0,0.0,0.0,0.0,-0.0008399520884267986,-0.014675717800855637,0.003003046615049243,1.0,1.734723475976807e-18,-2.168404344971009e-19,-4.336808689942018e-18
895.0,0.0,0.0,0.0,0.0,0.0,0.0,0.010997661389410496,-0.009239133447408676,0.007278647273778915,1.0,-1.734723475976807e-18,0.0,-6.288372600415926e-18
896.0,0.0,0.0,0.0,0.0,0.0,0.0,0.018938597291707993,-0.003583358833566308,0.0060716718435287476,1.0,1.734723475976807e-18,1.3010426069826053e-18,-2.7647155398380363e-18
897.0,0.0,0.0,0.0,0.0,0.0,0.0,0.00994923710823059,-0.0005109213525429368,0.004090572707355022,1.0,0.0,0.0,-1.2197274440461925e-18
898.0,0.0,0.0,0.0,0.0,0.0,0.0,-0.017141683027148247,0.020616848021745682,0.002082409802824259,1.0,0.0,8.673617379884035e-19,-5.421010862427522e-20
899.0,0.0,0.0,0.0,0.0,0.0,0.0,-0.021800726652145386,0.020105358213186264,-0.007659809663891792,1.0,0.0,0.0,3.3610267347050637e-18
900.0,0.0,0.0,0.0,0.0,0.0,0.0,-0.005424033850431442,0.010692779906094074,-0.0046501075848937035,1.0,1.734723475976807e-18,-8.673617379884035e-19,5.4752209710517974e-18
901.0,0.0,0.0,0.0,0.0,0.0,0.0,-0.00472996337339282,0.01170816645026207,-0.007899675518274307,1.0,-1.734723475976807e-18,2.6020852139652106e-18,-1.951563910473908e-18
902.0,0.0,0.0,0.0,0.0,0.0,0.0,-0.012637587264180183,0.00641378341242671,-0.010787605307996273,1.0,-8.673617379884035e-19,3.469446951953614e-18,2.439454888092385e-19
903.0,0.0,0.0,0.0,0.0,0.0,0.0,0.0033329904545098543,0.0019771435763686895,-0.0035330108366906643,1.0,0.0,0.0,-1.1926223897340549e-18
904.0,0.0,0.0,0.0,0.0,0.0,0.0,0.0019296312239021063,0.01103198528289795,-0.003245861269533634,1.0,8.673617379884035e-19,-3.469446951953614e-18,-8.673617379884035e-19
905.0,0.0,0.0,0.0,0.0,0.0,0.0,-0.0070030177012085915,0.021798815578222275,-0.003549436805769801,1.0,0.0,3.469446951953614e-18,4.662069341687669e-18
906.0,0.0,0.0,0.0,0.0,0.0,0.0,-0.017401397228240967,0.024211278185248375,-0.0072991689667105675,1.0,8.673617379884035e-19,0.0,-2.656295322589486e-18
907.0,0.0,0.0,0.0,0.0,0.0,0.0,-0.009965538047254086,0.02210365980863571,-0.0024519397411495447,1.0,8.673617379884035e-19,1.734723475976807e-18,-4.553649124439119e-18
908.0,0.0,0.0,0.0,0.0,0.0,0.0,0.00736886914819479,0.012622072361409664,7.356003152381163e-06,1.0,8.673617379884035e-19,1.734723475976807e-18,1.5720931501039814e-18
909.0,0.0,0.0,0.0,0.0,0.0,0.0,0.0012034719111397862,0.02058587595820427,0.0021863440051674843,1.0,8.673617379884035e-19,1.734723475976807e-18,-1.3552527156068805e-18
910.0,0.0,0.0,0.0,0.0,0.0,0.0,-0.005128588993102312,0.02477901801466942,-0.0007118529174476862,1.0,0.0,0.0,-2.168404344971009e-19
911.0,0.0,0.0,0.0,0.0,0.0,0.0,0.015629373490810394,0.016862543299794197,0.0060226526111364365,1.0,1.734723475976807e-18,1.734723475976807e-18,0.0
912.0,0.0,0.0,0.0,0.0,0.0,0.0,0.0112694650888443,0.023202892392873764,0.013194047845900059,1.0,0.0,0.0,-3.848917712323541e-18
913.0,0.0,0.0,0.0,0.0,0.0,0.0,0.002803813200443983,0.03062835894525051,0.010766508989036083,1.0,-1.734723475976807e-18,1.734723475976807e-18,-1.3010426069826053e-18
914.0,0.0,0.0,0.0,0.0,0.0,0.0,0.0029740778263658285,0.03279181569814682,0.002926493529230356,1.0,0.0,-1.734723475976807e-18,2.168404344971009e-19
915.0,0.0,0.0,0.0,0.0,0.0,0.0,-0.007380582857877016,0.041088543832302094,-0.0008731890702620149,1.0,-1.734723475976807e-18,0.0,-3.903127820947816e-18
916.0,0.0,0.0,0.0,0.0,0.0,0.0,0.004454505164176226,0.03139716014266014,0.008107488974928856,1.0,-8.673617379884035e-19,0.0,-1.7076184216646695e-18
917.0,0.0,0.0,0.0,0.0,0.0,0.0,0.0017172344960272312,0.021678153425455093,0.0019633204210549593,1.0,1.734723475976807e-18,8.673617379884035e-19,-1.1384122811097797e-18
918.0,0.0,0.0,0.0,0.0,0.0,0.0,0.006829832214862108,0.017744019627571106,0.0007822320912964642,1.0,-1.734723475976807e-18,0.0,8.673617379884035e-19
919.0,0.0,0.0,0.0,0.0,0.0,0.0,0.006952407769858837,0.01553458720445633,-0.003711054567247629,1.0,-1.734723475976807e-18,4.336808689942018e-19,-3.889575293791747e-18
920.0,0.0,0.0,0.0,0.0,0.0,0.0,0.006870591547340155,0.018493272364139557,-0.007190992124378681,1.0,0.0,6.505213034913027e-19,1.8905775382715984e-18
921.0,0.0,0.0,0.0,0.0,0.0,0.0,0.004691574722528458,0.022957563400268555,-0.011219545267522335,1.0,-8.673617379884035e-19,-4.0657581468206416e-20,5.704766899757713e-19
922.0,0.0,0.0,0.0,0.0,0.0,0.0,0.004326811991631985,0.027781933546066284,-0.007890087552368641,1.0,-3.469446951953614e-18,0.0,3.5914196963582334e-19
923.0,0.0,0.0,0.0,0.0,0.0,0.0,0.011777950450778008,0.024923544377088547,4.8983969463733956e-05,1.0,0.0,-4.336808689942018e-19,-1.3552527156068805e-20
924.0,0.0,0.0,0.0,0.0,0.0,0.0,0.016947783529758453,0.015926700085401535,0.0006988936220295727,1.0,0.0,-1.734723475976807e-18,-3.144186300207963e-18
925.0,0.0,0.0,0.0,0.0,0.0,0.0,0.02775934338569641,0.007715730462223291,0.003522717859596014,1.0,0.0,8.673617379884035e-19,1.9651164376299768e-18
926.0,0.0,0.0,0.0,0.0,0.0,0.0,0.02893182821571827,-0.002651236718520522,0.0029116198420524597,1.0,-4.336808689942018e-19,0.0,2.4665599424045226e-18
927.0,0.0,0.0,0.0,0.0,0.0,0.0,0.024351468309760094,-0.001232394715771079,-0.0023594999220222235,1.0,4.336808689942018e-19,1.734723475976807e-18,4.065758146820642e-18
928.0,0.0,0.0,0.0,0.0,0.0,0.0,0.0051141101866960526,0.005083635449409485,-0.006440696772187948,1.0,0.0,1.734723475976807e-18,5.041540102057596e-18
929.0,0.0,0.0,0.0,0.0,0.0,0.0,-0.002351272851228714,0.0021392852067947388,-0.0064858305267989635,1.0,-1.3010426069826053e-18,0.0,8.402566836762659e-19
930.0,0.0,0.0,0.0,0.0,0.0,0.0,-0.003460029372945428,0.004621485713869333,-0.002310411538928747,1.0,4.336808689942018e-19,-1.734723475976807e-18,-2.7376104855258987e-18
931.0,0.0,0.0,0.0,0.0,0.0,0.0,0.003117088694125414,0.00014642358291894197,-0.0004111558082513511,1.0,-8.673617379884035e-19,-5.204170427930421e-18,8.673617379884035e-18
932.0,0.0,0.0,0.0,0.0,0.0,0.0,0.011939791962504387,-0.003141965251415968,0.0010045267408713698,1.0,-8.673617379884035e-19,1.734723475976807e-18,-2.168404344971009e-19
933.0,0.0,0.0,0.0,0.0,0.0,0.0,0.000840995111502707,-0.0037387593183666468,0.002058209152892232,1.0,1.734723475976807e-18,0.0,4.87890977618477e-19
934.0,0.0,0.0,0.0,0.0,0.0,0.0,-0.011876323260366917,-0.0017789429984986782,-0.008408230729401112,1.0,8.673617379884035e-19,1.734723475976807e-18,4.445228907190568e-18
935.0,0.0,0.0,0.0,0.0,0.0,0.0,-0.011989573948085308,-0.008274701423943043,-0.014600688591599464,1.0,3.469446951953614e-18,1.734723475976807e-18,-1.2902005852577503e-17
936.0,0.0,0.0,0.0,0.0,0.0,0.0,0.01227843202650547,0.017465218901634216,-0.00044674050877802074,1.0,0.0,-1.734723475976807e-18,-2.2768245622195593e-18
937.0,0.0,0.0,0.0,0.0,0.0,0.0,-0.020609697327017784,0.027596276253461838,-0.015130944550037384,1.0,1.734723475976807e-18,1.734723475976807e-18,3.7947076036992655e-18
938.0,0.0,0.0,0.0,0.0,0.0,0.0,-0.009901180863380432,0.008062395267188549,-0.006062187720090151,1.0,3.469446951953614e-18,0.0,9.540979117872439e-18
939.0,0.0,0.0,0.0,0.0,0.0,0.0,0.008106947876513004,0.002273985417559743,0.004035063087940216,1.0,0.0,0.0,7.589415207398531e-19
940.0,0.0,0.0,0.0,0.0,0.0,0.0,0.0030147326178848743,0.0068086860701441765,0.0028275293298065662,1.0,0.0,-3.469446951953614e-18,5.204170427930421e-18
941.0,0.0,0.0,0.0,0.0,0.0,0.0,-0.011007698252797127,0.011073650792241096,-0.0008850954473018646,1.0,-6.938893903907228e-18,-1.734723475976807e-18,1.2685165418080402e-17
942.0,0.0,0.0,0.0,0.0,0.0,0.0,-0.011691016145050526,0.013047104701399803,0.0033627005759626627,1.0,-3.469446951953614e-18,-1.734723475976807e-18,-1.951563910473908e-18
943.0,0.0,0.0,0.0,0.0,0.0,0.0,-0.023163987323641777,0.013028359971940517,0.0005562295555137098,1.0,0.0,0.0,-2.2659825404947043e-17
944.0,0.0,0.0,0.0,0.0,0.0,0.0,-0.03409310430288315,0.023288434371352196,-0.0006480177980847657,1.0,3.469446951953614e-18,0.0,-7.806255641895632e-18
945.0,0.0,0.0,0.0,0.0,0.0,0.0,-0.023938018828630447,0.027108823880553246,0.006719217635691166,1.0,3.469446951953614e-18,0.0,-7.426784881525705e-18
946.0,0.0,0.0,0.0,0.0,0.0,0.0,-0.018697945401072502,0.02140878699719906,0.007803796324878931,1.0,-3.469446951953614e-18,-1.3010426069826053e-18,-1.463672932855431e-17
947.0,0.0,0.0,0.0,0.0,0.0,0.0,-0.02028428204357624,0.01971024088561535,0.006318909116089344,1.0,-3.469446951953614e-18,-4.336808689942018e-19,1.1384122811097797e-18
948.0,0.0,0.0,0.0,0.0,0.0,0.0,-0.02305687963962555,0.018284600228071213,0.0030612086411565542,1.0,0.0,-2.168404344971009e-19,3.537209587733958e-18
949.0,0.0,0.0,0.0,0.0,0.0,0.0,-0.0282173790037632,0.01467626728117466,0.0010363927576690912,1.0,3.469446951953614e-18,-4.0657581468206416e-19,-4.861969117239684e-18
950.0,0.0,0.0,0.0,0.0,0.0,0.0,-0.031403642147779465,0.01633962243795395,-0.00020163925364613533,1.0,-3.469446951953614e-18,8.673617379884035e-19,6.80336863234654e-18
951.0,0.0,0.0,0.0,0.0,0.0,0.0,-0.0309000127017498,0.018530895933508873,0.002829007338732481,1.0,3.469446951953614e-18,1.5178830414797062e-18,-4.87890977618477e-19
952.0,0.0,0.0,0.0,0.0,0.0,0.0,-0.028258059173822403,0.02010272815823555,0.0017544114962220192,1.0,-3.469446951953614e-18,-4.336808689942018e-19,-1.2468324983583301e-18
953.0,0.0,0.0,0.0,0.0,0.0,0.0,-0.030781950801610947,0.021593032404780388,0.0003515324497129768,1.0,-3.469446951953614e-18,0.0,-3.577867169202165e-18
954.0,0.0,0.0,0.0,0.0,0.0,0.0,-0.03517545387148857,0.018604911863803864,-4.303947207517922e-05,1.0,0.0,0.0,-6.938893903907228e-18
955.0,0.0,0.0,0.0,0.0,0.0,0.0,-0.03994183987379074,0.022560833021998405,0.003630717983469367,1.0,-1.734723475976807e-18,-8.673617379884035e-19,1.2305694657710475e-17
956.0,0.0,0.0,0.0,0.0,0.0,0.0,-0.031809963285923004,0.02135477401316166,0.006550482474267483,1.0,3.469446951953614e-18,-8.673617379884035e-19,1.0354130747236567e-17
957.0,0.0,0.0,0.0,0.0,0.0,0.0,-0.018842656165361404,0.013286815956234932,0.0057007125578820705,1.0,-1.734723475976807e-18,1.734723475976807e-18,-1.0842021724855044e-17
958.0,0.0,0.0,0.0,0.0,0.0,0.0,-0.015833618119359016,0.009394180960953236,0.0002712135901674628,1.0,1.734723475976807e-18,0.0,2.439454888092385e-18
959.0,0.0,0.0,0.0,0.0,0.0,0.0,-0.011304124258458614,0.01227884367108345,-0.004755539819598198,1.0,3.469446951953614e-18,0.0,-3.144186300207963e-18
960.0,0.0,0.0,0.0,0.0,0.0,0.0,-0.007557443343102932,0.012121569365262985,-0.0073903948068618774,1.0,-3.469446951953614e-18,0.0,3.2526065174565133e-19
961.0,0.0,0.0,0.0,0.0,0.0,0.0,-0.0013814048143103719,0.01444396935403347,-0.0009807029273360968,1.0,-1.734723475976807e-18,1.734723475976807e-18,-3.577867169202165e-18
962.0,0.0,0.0,0.0,0.0,0.0,0.0,0.00308811804279685,0.012406419031322002,0.0005688597448170185,1.0,-1.734723475976807e-18,1.734723475976807e-18,-1.5178830414797062e-18
963.0,0.0,0.0,0.0,0.0,0.0,0.0,0.010270971804857254,0.007999046705663204,-0.0014773030998185277,1.0,1.734723475976807e-18,-3.469446951953614e-18,-4.336808689942018e-19
964.0,0.0,0.0,0.0,0.0,0.0,0.0,0.01543245930224657,0.005246050655841827,0.0007452810532413423,1.0,0.0,-1.734723475976807e-18,-4.9873299934333204e-18
965.0,0.0,0.0,0.0,0.0,0.0,0.0,0.019571082666516304,0.0001333058753516525,-0.003633658867329359,1.0,1.734723475976807e-18,1.734723475976807e-18,2.927345865710862e-18
966.0,0.0,0.0,0.0,0.0,0.0,0.0,0.02040926367044449,-0.00526489969342947,-0.00586337735876441,1.0,-1.734723475976807e-18,3.469446951953614e-18,4.824699667560495e-18
967.0,0.0,0.0,0.0,0.0,0.0,0.0,0.01618337258696556,-0.005419051740318537,-0.0043151481077075005,1.0,-8.673617379884035e-19,1.734723475976807e-18,2.222614453595284e-18
968.0,0.0,0.0,0.0,0.0,0.0,0.0,0.018161550164222717,-0.007257952354848385,-0.002873141085729003,1.0,0.0,1.734723475976807e-18,2.927345865710862e-18
969.0,0.0,0.0,0.0,0.0,0.0,0.0,0.02175956405699253,-0.0034861925523728132,-0.0013357381103560328,1.0,-1.734723475976807e-18,1.734723475976807e-18,4.119968255444917e-18
970.0,0.0,0.0,0.0,0.0,0.0,0.0,0.017587050795555115,0.005422941874712706,-0.004639245569705963,1.0,8.673617379884035e-19,-3.469446951953614e-18,-7.589415207398531e-19
971.0,0.0,0.0,0.0,0.0,0.0,0.0,0.00922361295670271,0.004900061991065741,-0.009070262312889099,1.0,-8.673617379884035e-19,1.734723475976807e-18,0.0
972.0,0.0,0.0,0.0,0.0,0.0,0.0,0.010260744951665401,-0.0023434325121343136,-0.00827611330896616,1.0,-1.734723475976807e-18,-1.734723475976807e-18,2.3852447794681098e-18
973.0,0.0,0.0,0.0,0.0,0.0,0.0,0.017121726647019386,-0.0042608026415109634,-0.0013007321394979954,1.0,0.0,0.0,9.215718466126788e-19
974.0,0.0,0.0,0.0,0.0,0.0,0.0,0.022533029317855835,-0.0025797660928219557,0.0021510557271540165,1.0,8.673617379884035e-19,0.0,-5.421010862427522e-19
975.0,0.0,0.0,0.0,0.0,0.0,0.0,0.018592050299048424,-0.003167856950312853,0.0009351121843792498,1.0,1.734723475976807e-18,1.734723475976807e-18,9.215718466126788e-19
976.0,0.0,0.0,0.0,0.0,0.0,0.0,0.009135995991528034,-0.005418392363935709,-0.0032752479892224073,1.0,8.673617379884035e-19,0.0,8.131516293641283e-20
977.0,0.0,0.0,0.0,0.0,0.0,0.0,0.011056805029511452,-0.008795542642474174,-0.004960176069289446,1.0,8.673617379884035e-19,-8.673617379884035e-19,-3.5236570605778894e-19
978.0,0.0,0.0,0.0,0.0,0.0,0.0,0.012058332562446594,-0.003417731262743473,0.0019003682537004352,1.0,-1.734723475976807e-18,-8.673617379884035e-19,-2.439454888092385e-19
979.0,0.0,0.0,0.0,0.0,0.0,0.0,0.009960396215319633,0.005821827799081802,0.0022866365034133196,1.0,-2.6020852139652106e-18,0.0,5.421010862427522e-20
980.0,0.0,0.0,0.0,0.0,0.0,0.0,0.0017108179163187742,0.006477342918515205,-0.004015995655208826,1.0,0.0,-8.673617379884035e-19,3.7947076036992655e-19
981.0,0.0,0.0,0.0,0.0,0.0,0.0,0.0009586708038114011,0.003226550528779626,-0.00574179133400321,1.0,0.0,4.336808689942018e-19,-9.351243737687476e-19
