,Position_X,Position_Y,Position_Z,Velocity_X,Velocity_Y,Velocity_Z,Acceleration_X,Acceleration_Y,Acceleration_Z,Quaterion_0,Quaterion_1,Quaterion_2,Quaterion_3
207.0,0.0,0.0,0.0,0.0,0.0,0.0,-0.012924320995807648,-0.015440765768289566,-0.0014554578810930252,1.0,8.239936510889834e-18,1.925929944387236e-34,3.122502256758253e-17
208.0,0.0,0.0,0.0,0.0,0.0,0.0,-0.00704572768881917,-0.016359593719244003,-0.022260423749685287,0.9999996423721313,-0.00045955023961141706,0.0006533702835440636,0.00036944745806977153
209.0,0.0,0.0,0.0,0.0,0.0,0.0,0.0005301727796904743,-0.02938149683177471,-0.019567908719182014,0.9999988675117493,-0.0011011571623384953,0.0009329101303592324,0.00045244270586408675
210.0,0.0,0.0,0.0,0.0,0.0,0.0,0.0018628613324835896,-0.024749301373958588,-0.009861988015472889,0.9999982714653015,-0.0014759453479200602,0.0010270015336573124,0.0005181309534236789
211.0,0.0,0.0,0.0,0.0,0.0,0.0,-0.0015223391819745302,-0.021205944940447807,0.0013341332087293267,0.9999974370002747,-0.002103241393342614,0.0007558751385658979,0.0003530730027705431
212.0,0.0,0.0,0.0,0.0,0.0,0.0,-0.002501790877431631,-0.011826776899397373,0.011140076443552971,0.999997079372406,-0.0022952519357204437,0.0005946417804807425,0.00043735027429647744
213.0,0.0,0.0,0.0,0.0,0.0,0.0,-0.004996248055249453,-0.0033775782212615013,0.014632556587457657,0.9999975562095642,-0.002012407872825861,0.0006008894415572286,0.0006825830787420273
214.0,0.0,0.0,0.0,0.0,0.0,0.0,-0.008052299730479717,0.0010539438808336854,0.020376278087496758,0.9999974966049194,-0.001719299121759832,0.0005353146698325872,0.0013125812401995063
215.0,0.0,0.0,0.0,0.0,0.0,0.0,-0.0064224055968225,0.003130457131192088,0.01697658747434616,0.9999973773956299,-0.0012576512526720762,0.000959131692070514,0.001659334055148065
216.0,0.0,0.0,0.0,0.0,0.0,0.0,-0.0011786801042035222,0.006571215111762285,0.004746937658637762,0.9999968409538269,-0.0005730578559450805,0.0017958845710381866,0.0016463868087157607
217.0,0.0,0.0,0.0,0.0,0.0,0.0,0.002609901363030076,0.00669466657564044,-0.006491794716566801,0.9999945759773254,0.00046193681191653013,0.00265442649833858,0.0019059539772570133
218.0,0.0,0.0,0.0,0.0,0.0,0.0,0.004271507728844881,0.005027193576097488,-0.021226583048701286,0.9999897480010986,0.0013019737089052796,0.00332109397277236,0.002789167920127511
219.0,0.0,0.0,0.0,0.0,0.0,0.0,0.007468699477612972,0.005833344999700785,-0.02186323143541813,0.999987781047821,0.0018348345765843987,0.003569485619664192,0.0028830119408667088
220.0,0.0,0.0,0.0,0.0,0.0,0.0,0.007016975432634354,0.011622308753430843,-0.008142360486090183,0.9999866485595703,0.0023337462916970253,0.0032597030512988567,0.0032625412568449974
221.0,0.0,0.0,0.0,0.0,0.0,0.0,0.004517005756497383,0.015672488138079643,0.006213717628270388,0.9999840259552002,0.002928555477410555,0.0019327807240188122,0.004430866800248623
222.0,0.0,0.0,0.0,0.0,0.0,0.0,0.0033912742510437965,0.012787630781531334,0.014910341240465641,0.9999802708625793,0.0031355638056993484,0.00016261739074252546,0.005443241912871599
223.0,0.0,0.0,0.0,0.0,0.0,0.0,-0.0007999909576028585,0.007558327168226242,0.016748614609241486,0.999979555606842,0.002817088970914483,-0.0007802396430633962,0.0056821079924702644
224.0,0.0,0.0,0.0,0.0,0.0,0.0,-0.004905774258077145,0.0003220524522475898,0.018462974578142166,0.9999793767929077,0.002540783490985632,-0.001522452337667346,0.005695007741451263
225.0,0.0,0.0,0.0,0.0,0.0,0.0,-0.011038708500564098,-0.0059799919836223125,0.018939964473247528,0.999976396560669,0.002316516824066639,-0.0025095229502767324,0.0059644924476742744
226.0,0.0,0.0,0.0,0.0,0.0,0.0,-0.014686018228530884,-0.007198303937911987,0.014194188639521599,0.9999686479568481,0.002057562582194805,-0.0034583352971822023,0.0068185823038220406
227.0,0.0,0.0,0.0,0.0,0.0,0.0,-0.013879569247364998,-0.0067353262566030025,0.006184993777424097,0.9999670386314392,0.0019357351120561361,-0.003246054984629154,0.007186977192759514
228.0,0.0,0.0,0.0,0.0,0.0,0.0,-0.011071248911321163,-0.0049873352982103825,-0.0020891439635306597,0.9999679327011108,0.0021357841324061155,-0.002960318000987172,0.007129395846277475
229.0,0.0,0.0,0.0,0.0,0.0,0.0,-0.011528144590556622,-0.001469683600589633,-0.00767976650968194,0.9999632239341736,0.0022359751164913177,-0.0029942027758806944,0.007722618989646435
230.0,0.0,0.0,0.0,0.0,0.0,0.0,-0.010910595767199993,0.005160314030945301,-0.010031536221504211,0.9999598264694214,0.0024350895546376705,-0.0028761811554431915,0.00812967773526907
231.0,0.0,0.0,0.0,0.0,0.0,0.0,-0.006361791864037514,0.015311332419514656,-0.01242117304354906,0.9999508857727051,0.0026277597062289715,-0.0029286674689501524,0.009097285568714142
232.0,0.0,0.0,0.0,0.0,0.0,0.0,-0.0037058263551443815,0.020914128050208092,-0.015120862983167171,0.9999414086341858,0.0027617071755230427,-0.0029987115412950516,0.010028704069554806
233.0,0.0,0.0,0.0,0.0,0.0,0.0,-0.0007417192682623863,0.019170187413692474,-0.020727945491671562,0.9999331831932068,0.003160125110298395,-0.0026748385280370712,0.010794551111757755
234.0,0.0,0.0,0.0,0.0,0.0,0.0,0.0008426856365986168,0.016949940472841263,-0.019397716969251633,0.9999196529388428,0.0036296064499765635,-0.0032863568048924208,0.01169184222817421
235.0,0.0,0.0,0.0,0.0,0.0,0.0,0.001034497399814427,0.01335653755813837,-0.01490799617022276,0.9999018907546997,0.0036617193836718798,-0.004641215782612562,0.012698288075625896
236.0,0.0,0.0,0.0,0.0,0.0,0.0,0.0017986503662541509,0.0081391092389822,-0.010748752392828465,0.9998829364776611,0.0035814507864415646,-0.006076765712350607,0.013577749952673912
237.0,0.0,0.0,0.0,0.0,0.0,0.0,0.0015363856218755245,0.0017124908044934273,-0.004252726212143898,0.9998630881309509,0.0034261809196323156,-0.00732822623103857,0.01443494763225317
238.0,0.0,0.0,0.0,0.0,0.0,0.0,0.00040068267844617367,-0.004122809041291475,0.006652087904512882,0.9998409748077393,0.0025557945482432842,-0.008613522164523602,0.015405016951262951
239.0,0.0,0.0,0.0,0.0,0.0,0.0,-0.00153158709872514,-0.007935302332043648,0.017418332397937775,0.9998265504837036,0.0013618414523079991,-0.009582874365150928,0.01591421663761139
240.0,0.0,0.0,0.0,0.0,0.0,0.0,-0.005830029956996441,-0.015337496064603329,0.0217048991471529,0.9998289942741394,0.0005163095775060356,-0.009946434758603573,0.015582644380629063
241.0,0.0,0.0,0.0,0.0,0.0,0.0,-0.004152568988502026,-0.019915122538805008,0.0191660076379776,0.9998199343681335,-0.00014971230120863765,-0.010593478567898273,0.01574810966849327
242.0,0.0,0.0,0.0,0.0,0.0,0.0,-0.0057294731959700584,-0.02359849028289318,0.015341800637543201,0.9998071193695068,-0.0007873207796365023,-0.011204944923520088,0.01611412689089775
243.0,0.0,0.0,0.0,0.0,0.0,0.0,-0.008691695518791676,-0.024505943059921265,0.014605827629566193,0.9998050928115845,-0.0017560137202963233,-0.011597652919590473,0.01588006131350994
244.0,0.0,0.0,0.0,0.0,0.0,0.0,-0.008417962118983269,-0.023311100900173187,0.015258394181728363,0.999799370765686,-0.002143557881936431,-0.012014706619083881,0.01588338613510132
245.0,0.0,0.0,0.0,0.0,0.0,0.0,-0.008222438395023346,-0.0204718466848135,0.01116776280105114,0.9998002648353577,-0.0026947881560772657,-0.01159491203725338,0.016055285930633545
246.0,0.0,0.0,0.0,0.0,0.0,0.0,-0.0021964339539408684,-0.016912447288632393,0.00014933274360373616,0.9998225569725037,-0.0034238286316394806,-0.010500437580049038,0.015260964632034302
247.0,0.0,0.0,0.0,0.0,0.0,0.0,0.006646479479968548,-0.029548833146691322,-0.032764215022325516,0.9998394250869751,-0.0046430351212620735,-0.009550574235618114,0.014435774646699429
248.0,0.0,0.0,0.0,0.0,0.0,0.0,0.01159469410777092,-0.017902832478284836,-0.018048720434308052,0.9998461604118347,-0.005390600301325321,-0.009274378418922424,0.01388018298894167
249.0,0.0,0.0,0.0,0.0,0.0,0.0,0.008239109069108963,-0.0040442137978971004,-0.005787093658000231,0.9998337626457214,-0.005602361634373665,-0.010119087062776089,0.014097118750214577
250.0,0.0,0.0,0.0,0.0,0.0,0.0,0.0033808508887887,0.010675815865397453,0.015220706351101398,0.9998107552528381,-0.005517545621842146,-0.011111986823379993,0.014983581379055977
251.0,0.0,0.0,0.0,0.0,0.0,0.0,-0.0027790481690317392,0.020156431943178177,0.022664440795779228,0.9997991919517517,-0.005138694308698177,-0.011982603929936886,0.015218205749988556
252.0,0.0,0.0,0.0,0.0,0.0,0.0,-0.007440775167196989,0.01745774783194065,0.016754912212491035,0.999798595905304,-0.005295499227941036,-0.011960863135755062,0.015220830217003822
253.0,0.0,0.0,0.0,0.0,0.0,0.0,-0.008372846990823746,0.015563917346298695,0.005821125581860542,0.9998007416725159,-0.0053321500308811665,-0.011548301205039024,0.015383780002593994
254.0,0.0,0.0,0.0,0.0,0.0,0.0,-0.007158002350479364,0.01757284626364708,-0.003984184470027685,0.9997974038124084,-0.004982426762580872,-0.011297544464468956,0.015897495672106743
255.0,0.0,0.0,0.0,0.0,0.0,0.0,-0.005227364134043455,0.021858761087059975,-0.008565505966544151,0.9997935891151428,-0.004607759416103363,-0.011097020469605923,0.01638694852590561
256.0,0.0,0.0,0.0,0.0,0.0,0.0,-0.004283500369638205,0.020389925688505173,-0.008701059967279434,0.9997869729995728,-0.004046199377626181,-0.011308299377560616,0.016786174848675728
257.0,0.0,0.0,0.0,0.0,0.0,0.0,-0.00610118405893445,0.015649426728487015,-0.0068130758590996265,0.999786913394928,-0.0038837301544845104,-0.011367649771273136,0.01679001748561859
258.0,0.0,0.0,0.0,0.0,0.0,0.0,-0.006086447276175022,0.009554275311529636,-0.0077292718924582005,0.9997893571853638,-0.003921366762369871,-0.0114552341401577,0.01657674089074135
259.0,0.0,0.0,0.0,0.0,0.0,0.0,-0.008255134336650372,0.003089174861088395,-0.003868942381814122,0.9997737407684326,-0.004038574174046516,-0.012127602472901344,0.0170038640499115
260.0,0.0,0.0,0.0,0.0,0.0,0.0,-0.0052016982808709145,0.007436443120241165,-0.002544598188251257,0.999750554561615,-0.0046662031672894955,-0.013148682191967964,0.017439233139157295
261.0,0.0,0.0,0.0,0.0,0.0,0.0,-0.004246214870363474,0.010082311928272247,0.00973049271851778,0.9997289180755615,-0.005168516654521227,-0.014177558943629265,0.017731260508298874
262.0,0.0,0.0,0.0,0.0,0.0,0.0,-0.009868181310594082,0.0021052081137895584,0.025620946660637856,0.9997085928916931,-0.005604318808764219,-0.014652418904006481,0.018350224941968918
263.0,0.0,0.0,0.0,0.0,0.0,0.0,-0.010104439221322536,0.0019209141610190272,0.02490346133708954,0.9996894001960754,-0.005732739809900522,-0.015348765067756176,0.018782401457428932
264.0,0.0,0.0,0.0,0.0,0.0,0.0,-0.010002896189689636,-7.617942901561037e-05,0.016456494107842445,0.9996733069419861,-0.0059454431757330894,-0.015920739620923996,0.019090037792921066
265.0,0.0,0.0,0.0,0.0,0.0,0.0,-0.01174005214124918,-0.0011900116223841906,0.009439660236239433,0.9996760487556458,-0.006169635336846113,-0.015899747610092163,0.01889563538134098
266.0,0.0,0.0,0.0,0.0,0.0,0.0,-0.013239255174994469,0.0009040486766025424,0.0024720700457692146,0.9996774792671204,-0.0060073514468967915,-0.01582447439432144,0.018933158367872238
267.0,0.0,0.0,0.0,0.0,0.0,0.0,-0.013013940304517746,0.0005103769944980741,0.00015752394392620772,0.99968421459198,-0.005731562152504921,-0.015274172648787498,0.019114473834633827
268.0,0.0,0.0,0.0,0.0,0.0,0.0,-0.011670715175569057,0.0009376672678627074,-0.0032076684292405844,0.9997096657752991,-0.005297583062201738,-0.014122524298727512,0.01879143714904785
269.0,0.0,0.0,0.0,0.0,0.0,0.0,-0.008842638693749905,0.0022341415751725435,-0.008639885112643242,0.9997248649597168,-0.0051056863740086555,-0.013145883567631245,0.018744390457868576
270.0,0.0,0.0,0.0,0.0,0.0,0.0,-0.007120258640497923,0.003135459963232279,-0.010864078998565674,0.9997395873069763,-0.004755244590342045,-0.012534581124782562,0.018468091264367104
271.0,0.0,0.0,0.0,0.0,0.0,0.0,-0.005354783963412046,0.0010057705221697688,-0.008994081988930702,0.9997512102127075,-0.0040785204619169235,-0.011665836907923222,0.018572112545371056
272.0,0.0,0.0,0.0,0.0,0.0,0.0,-0.0032328374218195677,0.0030989234801381826,-0.0055831559002399445,0.9997518658638,-0.003335652407258749,-0.01125667430460453,0.01893078163266182
273.0,0.0,0.0,0.0,0.0,0.0,0.0,-0.0026025199331343174,0.0012445069150999188,-0.0018489438807591796,0.999753475189209,-0.0026301988400518894,-0.010667327791452408,0.019295942038297653
274.0,0.0,0.0,0.0,0.0,0.0,0.0,-0.0029953084886074066,0.0011489815078675747,0.0006380617269314826,0.9997419714927673,-0.0023248333018273115,-0.010465639643371105,0.02002629078924656
275.0,0.0,0.0,0.0,0.0,0.0,0.0,-0.0014850090956315398,0.0014326365198940039,0.00011277553130639717,0.9997382164001465,-0.0018627705285325646,-0.010271587409079075,0.02036156691610813
276.0,0.0,0.0,0.0,0.0,0.0,0.0,0.0013180411187931895,0.0005474571953527629,-0.004019210580736399,0.9997535943984985,-0.0015164328506216407,-0.008958719670772552,0.020256418734788895
277.0,0.0,0.0,0.0,0.0,0.0,0.0,0.00043499888852238655,-0.0008615375263616443,-0.004362362902611494,0.9997612833976746,-0.0014313537394627929,-0.008203650824725628,0.020199814811348915
278.0,0.0,0.0,0.0,0.0,0.0,0.0,-3.845519677270204e-05,0.00010410897084511817,-0.0002178675786126405,0.9997519254684448,-0.0016087344847619534,-0.007891419343650341,0.020766647532582283
279.0,0.0,0.0,0.0,0.0,0.0,0.0,0.0008276956505142152,0.0029615045059472322,0.00676362169906497,0.999727725982666,-0.001667054370045662,-0.007911984808743,0.021888546645641327
280.0,0.0,0.0,0.0,0.0,0.0,0.0,-0.003413128200918436,0.003350691171362996,0.010535433888435364,0.9997065663337708,-0.0019334336975589395,-0.00792929157614708,0.022806251421570778
281.0,0.0,0.0,0.0,0.0,0.0,0.0,-0.0031838901340961456,0.0024536631535738707,0.012077593244612217,0.9997214078903198,-0.0026288568042218685,-0.00653477618470788,0.022530091926455498
282.0,0.0,0.0,0.0,0.0,0.0,0.0,0.007817631587386131,-0.002857624087482691,-0.03935627639293671,0.9997245669364929,-0.004070407710969448,-0.005551950074732304,0.02243795618414879
283.0,0.0,0.0,0.0,0.0,0.0,0.0,0.01453842781484127,-0.0025046984665095806,-0.02630528062582016,0.9997209310531616,-0.005528044421225786,-0.005797021556645632,0.02222515270113945
284.0,0.0,0.0,0.0,0.0,0.0,0.0,0.016075968742370605,0.006776199210435152,-0.010528577491641045,0.9997045397758484,-0.0066674938425421715,-0.006929578725248575,0.02232467196881771
285.0,0.0,0.0,0.0,0.0,0.0,0.0,0.009891565889120102,0.013966755010187626,0.017065072432160378,0.9996779561042786,-0.0076004317961633205,-0.008802073076367378,0.02255551517009735
286.0,0.0,0.0,0.0,0.0,0.0,0.0,0.0024850552435964346,0.014447123743593693,0.02384519949555397,0.9996534585952759,-0.0085926977917552,-0.010512154549360275,0.02255362831056118
287.0,0.0,0.0,0.0,0.0,0.0,0.0,-0.004572103265672922,0.006691962014883757,0.01872085966169834,0.9996360540390015,-0.009398256428539753,-0.01164009515196085,0.022450685501098633
288.0,0.0,0.0,0.0,0.0,0.0,0.0,-0.009528324007987976,0.0010275311069563031,0.007100753486156464,0.9996258616447449,-0.010120002552866936,-0.011891997419297695,0.022458618506789207
289.0,0.0,0.0,0.0,0.0,0.0,0.0,-0.009988055564463139,-2.6113109925063327e-05,-0.0020553735084831715,0.9996289610862732,-0.010770904831588268,-0.01178063079714775,0.02207496203482151
290.0,0.0,0.0,0.0,0.0,0.0,0.0,-0.00920108612626791,0.005125217139720917,-0.004578123334795237,0.9996185898780823,-0.010930423624813557,-0.012101967819035053,0.022290769964456558
291.0,0.0,0.0,0.0,0.0,0.0,0.0,-0.008629143238067627,0.00659801485016942,0.0001823680941015482,0.9996245503425598,-0.010450632311403751,-0.01197271328419447,0.022323044016957283
292.0,0.0,0.0,0.0,0.0,0.0,0.0,-0.010811461135745049,0.005700141657143831,0.003251961199566722,0.9996554851531982,-0.010232055559754372,-0.010907018557190895,0.021571623161435127
293.0,0.0,0.0,0.0,0.0,0.0,0.0,-0.019868936389684677,0.029255447909235954,-0.11971769481897354,0.9996857643127441,-0.009899514727294445,-0.01015418954193592,0.020671606063842773
294.0,0.0,0.0,0.0,0.0,0.0,0.0,-0.01157310139387846,0.004952995106577873,-0.005882379598915577,0.999698281288147,-0.00923862773925066,-0.009729457087814808,0.020577214658260345
295.0,0.0,0.0,0.0,0.0,0.0,0.0,-0.005960829555988312,0.005254475865513086,-0.020272886380553246,0.9997180104255676,-0.00933464802801609,-0.009457185864448547,0.019684722647070885
296.0,0.0,0.0,0.0,0.0,0.0,0.0,-0.0008791944710537791,0.005899765528738499,-0.034052178263664246,0.9997282028198242,-0.010479331016540527,-0.010047121904790401,0.018243644386529922
297.0,0.0,0.0,0.0,0.0,0.0,0.0,0.0005211242823861539,-0.0008754804730415344,-0.030446572229266167,0.9997174143791199,-0.012209861539304256,-0.011034749448299408,0.017154237255454063
298.0,0.0,0.0,0.0,0.0,0.0,0.0,-0.0005026973667554557,-0.003688439726829529,-0.02625519223511219,0.9996920228004456,-0.015281879343092442,-0.01235168520361185,0.015160907059907913
299.0,0.0,0.0,0.0,0.0,0.0,0.0,0.00032377170282416046,0.0026672855019569397,-0.015653783455491066,0.9996485114097595,-0.018244177103042603,-0.013937517069280148,0.013261906802654266
300.0,0.0,0.0,0.0,0.0,0.0,0.0,-0.0009344542631879449,0.007384409196674824,-0.002353989752009511,0.9995723962783813,-0.02089880220592022,-0.01654777117073536,0.012021069414913654
301.0,0.0,0.0,0.0,0.0,0.0,0.0,-0.0005531064816750586,0.011619742028415203,0.004139924421906471,0.9994891881942749,-0.02359197475016117,-0.019045855849981308,0.010104695335030556
302.0,0.0,0.0,0.0,0.0,0.0,0.0,-0.0015531752724200487,0.01352471299469471,0.006575849372893572,0.999383807182312,-0.02619357220828533,-0.02173483930528164,0.008576441556215286
303.0,0.0,0.0,0.0,0.0,0.0,0.0,-0.002341182203963399,0.015218534506857395,0.009579838253557682,0.9992625713348389,-0.028743738308548927,-0.02437886781990528,0.007329867221415043
304.0,0.0,0.0,0.0,0.0,0.0,0.0,-0.002782254246994853,0.014963958412408829,0.012468100525438786,0.9991499185562134,-0.03100057877600193,-0.026470473036170006,0.006144477054476738
305.0,0.0,0.0,0.0,0.0,0.0,0.0,-0.0037705842405557632,0.013449199497699738,0.01473309751600027,0.9990510940551758,-0.03321198374032974,-0.02768261544406414,0.005258043762296438
306.0,0.0,0.0,0.0,0.0,0.0,0.0,-0.002589757554233074,0.011919012293219566,0.013767477124929428,0.9989882111549377,-0.034903764724731445,-0.02792397327721119,0.004966063890606165
307.0,0.0,0.0,0.0,0.0,0.0,0.0,0.00017484142153989524,0.009670097380876541,0.008751317858695984,0.9989271759986877,-0.036532625555992126,-0.028116164728999138,0.004402137361466885
308.0,0.0,0.0,0.0,0.0,0.0,0.0,0.00424393592402339,0.008132259361445904,0.0011944917496293783,0.9988538026809692,-0.038213055580854416,-0.028609097003936768,0.0035252117086201906
309.0,0.0,0.0,0.0,0.0,0.0,0.0,0.004676083102822304,0.009299959056079388,-0.0017549385083839297,0.9987630248069763,-0.04028259217739105,-0.02907552197575569,0.0021044411696493626
310.0,0.0,0.0,0.0,0.0,0.0,0.0,0.005163899157196283,0.010511466301977634,-0.005203345324844122,0.9986643195152283,-0.042504921555519104,-0.029372259974479675,0.0005259350291453302
311.0,0.0,0.0,0.0,0.0,0.0,0.0,0.005238922778517008,0.012897779233753681,-0.0013659066753461957,0.9985752701759338,-0.044234249740839005,-0.02984459325671196,-0.0005119926063343883
312.0,0.0,0.0,0.0,0.0,0.0,0.0,0.0057213096879422665,0.018637513741850853,0.008451132103800774,0.9984763860702515,-0.04587288200855255,-0.03065052069723606,-0.0010722668375819921
313.0,0.0,0.0,0.0,0.0,0.0,0.0,0.008740957826375961,0.021160788834095,0.0141345439478755,0.9984145164489746,-0.04683582857251167,-0.031165635213255882,-0.0018919087015092373
314.0,0.0,0.0,0.0,0.0,0.0,0.0,0.009311646223068237,0.023067720234394073,0.01783561334013939,0.9983652234077454,-0.04740734025835991,-0.03184786066412926,-0.0023101954720914364
315.0,0.0,0.0,0.0,0.0,0.0,0.0,0.0075019062496721745,0.025154056027531624,0.02281969040632248,0.9982823729515076,-0.047838859260082245,-0.03377314284443855,-0.0018114253180101514
316.0,0.0,0.0,0.0,0.0,0.0,0.0,0.006129895802587271,0.0263983141630888,0.02475486509501934,0.9982272982597351,-0.04795243591070175,-0.03523529693484306,-0.0011687056394293904
317.0,0.0,0.0,0.0,0.0,0.0,0.0,0.007375005632638931,0.02442491240799427,0.02142232470214367,0.9982087016105652,-0.0478813610970974,-0.035861436277627945,-0.000841753208078444
318.0,0.0,0.0,0.0,0.0,0.0,0.0,0.008261345326900482,0.022760719060897827,0.017128758132457733,0.9981741905212402,-0.04770176485180855,-0.037049662321805954,-0.0004126510175410658
319.0,0.0,0.0,0.0,0.0,0.0,0.0,0.007316224742680788,0.020385749638080597,0.012564020231366158,0.9981376528739929,-0.04798757657408714,-0.0376611091196537,-0.0003734354395419359
320.0,0.0,0.0,0.0,0.0,0.0,0.0,0.006001656409353018,0.01869864948093891,0.011034760624170303,0.9980881810188293,-0.04878152161836624,-0.037952981889247894,-0.00011748122051358223
321.0,0.0,0.0,0.0,0.0,0.0,0.0,0.004781231749802828,0.017898909747600555,0.007691243663430214,0.9980204701423645,-0.049553774297237396,-0.038723815232515335,0.00026503350818529725
322.0,0.0,0.0,0.0,0.0,0.0,0.0,0.0034641281235963106,0.01537525374442339,0.004700668156147003,0.9980091452598572,-0.04983575642108917,-0.03864703327417374,0.000741566764190793
323.0,0.0,0.0,0.0,0.0,0.0,0.0,0.0037506907247006893,0.014444049447774887,-0.0011698980815708637,0.9980393052101135,-0.04997715726494789,-0.03768084570765495,0.0002666182117536664
324.0,0.0,0.0,0.0,0.0,0.0,0.0,0.004744037054479122,0.012561922892928123,-0.010148047469556332,0.9980601668357849,-0.049937136471271515,-0.03717966377735138,-5.4009728046366945e-05
325.0,0.0,0.0,0.0,0.0,0.0,0.0,0.005084021482616663,0.009372254833579063,-0.01513359323143959,0.9980646967887878,-0.04994100704789162,-0.03705105185508728,0.00029867273406125605
326.0,0.0,0.0,0.0,0.0,0.0,0.0,0.004414663650095463,0.010256350971758366,-0.01851973496377468,0.9980674386024475,-0.05032525956630707,-0.036452315747737885,0.0004405236686579883
327.0,0.0,0.0,0.0,0.0,0.0,0.0,0.0068509746342897415,0.01039644330739975,-0.02282293513417244,0.998079776763916,-0.05059922859072685,-0.035729147493839264,0.0002413680631434545
328.0,0.0,0.0,0.0,0.0,0.0,0.0,0.008962927386164665,0.007533658761531115,-0.023662712424993515,0.9980844259262085,-0.051088277250528336,-0.03489182889461517,-0.00023876690829638392
329.0,0.0,0.0,0.0,0.0,0.0,0.0,0.008556574583053589,0.008962095715105534,-0.02625209651887417,0.9980663657188416,-0.05176587775349617,-0.034402575343847275,-0.0005581693258136511
330.0,0.0,0.0,0.0,0.0,0.0,0.0,0.006630174815654755,0.007576374337077141,-0.020481310784816742,0.9979959726333618,-0.052825767546892166,-0.034832924604415894,-0.0004820524773094803
331.0,0.0,0.0,0.0,0.0,0.0,0.0,0.004136472009122372,0.005569548346102238,-0.008589958772063255,0.9979127645492554,-0.05412495508790016,-0.0352182574570179,-0.0006005639443174005
332.0,0.0,0.0,0.0,0.0,0.0,0.0,0.0035510838497430086,0.0034159920178353786,0.0003342098498251289,0.9978346228599548,-0.05519945174455643,-0.03576265275478363,-0.0005654177512042224
333.0,0.0,0.0,0.0,0.0,0.0,0.0,0.0025127525441348553,0.0024463662412017584,0.008472762070596218,0.9977413415908813,-0.05619637295603752,-0.03679826855659485,-0.0004825426440220326
334.0,0.0,0.0,0.0,0.0,0.0,0.0,-0.0007462709909304976,0.001999611733481288,0.01388603076338768,0.9976100921630859,-0.057592131197452545,-0.038175277411937714,-4.955142503604293e-05
335.0,0.0,0.0,0.0,0.0,0.0,0.0,-0.0037621757946908474,0.0011676506837829947,0.018652163445949554,0.9974724650382996,-0.05878157168626785,-0.039920106530189514,-0.00024808748275972903
336.0,0.0,0.0,0.0,0.0,0.0,0.0,-0.004718635231256485,-0.00010735923569882289,0.02359490655362606,0.9973630905151367,-0.05983472242951393,-0.04106755927205086,-0.00040663889376446605
337.0,0.0,0.0,0.0,0.0,0.0,0.0,-0.002760385861620307,0.0020506433211266994,0.02247752994298935,0.997295081615448,-0.0604989118874073,-0.04174315184354782,-8.300157060148194e-05
338.0,0.0,0.0,0.0,0.0,0.0,0.0,-0.0012373179197311401,0.002516187261790037,0.012991894967854023,0.9972256422042847,-0.06123457849025726,-0.04232386499643326,-7.371748506557196e-05
339.0,0.0,0.0,0.0,0.0,0.0,0.0,-0.0013947832630947232,0.0014056615764275193,0.008295942097902298,0.9972125291824341,-0.06145951896905899,-0.04230901598930359,0.000218334753299132
340.0,0.0,0.0,0.0,0.0,0.0,0.0,-0.0007802614709362388,0.004199802875518799,0.013022548519074917,0.9972563982009888,-0.06128175929188728,-0.04152374342083931,0.00041118869557976723
341.0,0.0,0.0,0.0,0.0,0.0,0.0,0.002121376572176814,0.0036706426180899143,0.010534838773310184,0.9973596334457397,-0.06038924306631088,-0.040335219353437424,0.0004396714793983847
342.0,0.0,0.0,0.0,0.0,0.0,0.0,0.004367035813629627,0.001993532059714198,0.0019705293234437704,0.9974380135536194,-0.059767842292785645,-0.039312686771154404,0.00020987517200410366
343.0,0.0,0.0,0.0,0.0,0.0,0.0,0.006444054655730724,-0.0021849782206118107,-0.004262581001967192,0.9974775314331055,-0.059415943920612335,-0.0388379767537117,-0.00027599927852861583
344.0,0.0,0.0,0.0,0.0,0.0,0.0,0.007019232027232647,-0.0029867077246308327,-0.00541854789480567,0.9974615573883057,-0.05954272672533989,-0.03905424475669861,-0.00026940350653603673
345.0,0.0,0.0,0.0,0.0,0.0,0.0,0.005603570956736803,7.948392885737121e-05,0.0007736986735835671,0.9974522590637207,-0.059407789260149,-0.0394962802529335,-9.42078695516102e-05
346.0,0.0,0.0,0.0,0.0,0.0,0.0,0.003529872978106141,0.0042534638196229935,0.017681309953331947,0.9974731206893921,-0.05881151929497719,-0.039846453815698624,0.0008738064207136631
347.0,0.0,0.0,0.0,0.0,0.0,0.0,0.00016885851800907403,0.0074242278933525085,0.03292419761419296,0.997514545917511,-0.05798712372779846,-0.039978817105293274,0.001968834549188614
348.0,0.0,0.0,0.0,0.0,0.0,0.0,0.0016279922565445304,0.007670702878385782,0.03453892841935158,0.9976025223731995,-0.056575316935777664,-0.0397610142827034,0.002771760104224086
349.0,0.0,0.0,0.0,0.0,0.0,0.0,0.004812972620129585,0.004804642871022224,0.019805103540420532,0.9977246522903442,-0.05488761514425278,-0.039005789905786514,0.003388909623026848
350.0,0.0,0.0,0.0,0.0,0.0,0.0,0.007261137943714857,0.00460244482383132,0.005861025769263506,0.9978622198104858,-0.05284658074378967,-0.03819214552640915,0.004425952676683664
351.0,0.0,0.0,0.0,0.0,0.0,0.0,0.00712836068123579,0.005317525006830692,-0.0041739619337022305,0.9979912638664246,-0.05075330659747124,-0.037523675709962845,0.005444961134344339
352.0,0.0,0.0,0.0,0.0,0.0,0.0,0.004697045776993036,0.004714996088296175,-0.007217029575258493,0.9981064796447754,-0.04867678880691528,-0.037030674517154694,0.0065469215624034405
353.0,0.0,0.0,0.0,0.0,0.0,0.0,0.004694174975156784,0.0051413788460195065,-0.006939750164747238,0.9982225298881531,-0.046686578541994095,-0.03615543991327286,0.00806304719299078
354.0,0.0,0.0,0.0,0.0,0.0,0.0,0.004263776820152998,0.004680104088038206,-0.014214038848876953,0.998307466506958,-0.04500526189804077,-0.035599540919065475,0.00946324598044157
355.0,0.0,0.0,0.0,0.0,0.0,0.0,0.003323604352772236,0.0024454861413687468,-0.014751467853784561,0.9983933568000793,-0.04299387335777283,-0.03525998070836067,0.010920446366071701
356.0,0.0,0.0,0.0,0.0,0.0,0.0,0.0011972261127084494,0.0003593900182750076,-0.003892935113981366,0.9984617829322815,-0.04125099256634712,-0.03491116687655449,0.012393685057759285
357.0,0.0,0.0,0.0,0.0,0.0,0.0,-0.0005752574652433395,-0.0001509661233285442,0.0009082180331461132,0.9985254406929016,-0.0398360975086689,-0.03425845503807068,0.013659318909049034
358.0,0.0,0.0,0.0,0.0,0.0,0.0,0.00040743110002949834,-0.004202814772725105,-0.0003695347113534808,0.9986287355422974,-0.038108941167593,-0.032881829887628555,0.014398385770618916
359.0,0.0,0.0,0.0,0.0,0.0,0.0,0.003533455543220043,-0.00410042516887188,0.0004667621979024261,0.9987239241600037,-0.036816902458667755,-0.031181570142507553,0.014924704097211361
360.0,0.0,0.0,0.0,0.0,0.0,0.0,0.007661815267056227,-0.0027749338187277317,-0.0025687168817967176,0.9988110065460205,-0.035835180431604385,-0.029231872409582138,0.015417778864502907
361.0,0.0,0.0,0.0,0.0,0.0,0.0,0.008335789665579796,-0.0037828292697668076,0.0045632789842784405,0.9988932013511658,-0.03459111973643303,-0.027490854263305664,0.016127491369843483
362.0,0.0,0.0,0.0,0.0,0.0,0.0,0.007604791782796383,-0.0021264743991196156,0.01545797660946846,0.9989503026008606,-0.03356144204735756,-0.026126762852072716,0.017012186348438263
363.0,0.0,0.0,0.0,0.0,0.0,0.0,0.010212413035333157,-0.0005453944904729724,0.015925535932183266,0.9990091323852539,-0.03239878639578819,-0.02502874843776226,0.017455125227570534
364.0,0.0,0.0,0.0,0.0,0.0,0.0,0.01120710838586092,-0.0014626303454861045,0.014907277189195156,0.9990513920783997,-0.03129521384835243,-0.024124540388584137,0.01830163784325123
365.0,0.0,0.0,0.0,0.0,0.0,0.0,0.011620906181633472,-0.002105053747072816,-0.0029601131100207567,0.999108076095581,-0.02990611270070076,-0.02331841178238392,0.018578579649329185
366.0,0.0,0.0,0.0,0.0,0.0,0.0,0.011823433451354504,0.0002070299378829077,-0.009495852515101433,0.9991479516029358,-0.028847139328718185,-0.022724125534296036,0.01884116604924202
367.0,0.0,0.0,0.0,0.0,0.0,0.0,0.009380783885717392,0.0011353229638189077,-0.013453634455800056,0.9991609454154968,-0.028372177854180336,-0.02238733135163784,0.019267603754997253
368.0,0.0,0.0,0.0,0.0,0.0,0.0,0.006513018626719713,0.0033586458303034306,-0.01939498260617256,0.9991840124130249,-0.027811875566840172,-0.021717900410294533,0.019655950367450714
369.0,0.0,0.0,0.0,0.0,0.0,0.0,0.003981386311352253,0.003085229778662324,-0.019186871126294136,0.9991911053657532,-0.02725805528461933,-0.021376438438892365,0.020429758355021477
370.0,0.0,0.0,0.0,0.0,0.0,0.0,0.0022206611465662718,0.00491903955116868,-0.017021749168634415,0.9991813898086548,-0.02676154486835003,-0.021363308653235435,0.021543141454458237
371.0,0.0,0.0,0.0,0.0,0.0,0.0,-0.0003350882907398045,0.0050183068960905075,-0.019947495311498642,0.9991720914840698,-0.026427574455738068,-0.021262921392917633,0.0224684439599514
372.0,0.0,0.0,0.0,0.0,0.0,0.0,-0.0014195680851116776,-0.0005368140409700572,-0.02205411158502102,0.9991902112960815,-0.02596113085746765,-0.02007973939180374,0.023277072235941887
373.0,0.0,0.0,0.0,0.0,0.0,0.0,0.002317999955266714,-0.008335303515195847,-0.03592692315578461,0.9992265105247498,-0.025831375271081924,-0.018143825232982635,0.023455731570720673
374.0,0.0,0.0,0.0,0.0,0.0,0.0,0.010084840469062328,-0.013368125073611736,-0.0377107672393322,0.9992466568946838,-0.02595534361898899,-0.016448933631181717,0.023704838007688522
375.0,0.0,0.0,0.0,0.0,0.0,0.0,0.012911601923406124,-0.0169513039290905,-0.025388168171048164,0.999241054058075,-0.025872068479657173,-0.015828611329197884,0.024444904178380966
376.0,0.0,0.0,0.0,0.0,0.0,0.0,0.01344300713390112,-0.014428106136620045,-0.00012343628623057157,0.999235212802887,-0.025619322434067726,-0.015380852855741978,0.025226566940546036
377.0,0.0,0.0,0.0,0.0,0.0,0.0,0.013058430515229702,-0.007067108992487192,0.03847559913992882,0.9992120862007141,-0.025616567581892014,-0.015367986634373665,0.026134420186281204
378.0,0.0,0.0,0.0,0.0,0.0,0.0,0.01110827550292015,-0.004971761722117662,0.057368434965610504,0.9991767406463623,-0.0258479081094265,-0.015771610662341118,0.02700047567486763
379.0,0.0,0.0,0.0,0.0,0.0,0.0,0.01257494930177927,-0.0047857146710157394,0.05850398167967796,0.9991318583488464,-0.025787850841879845,-0.017166581004858017,0.027852876111865044
380.0,0.0,0.0,0.0,0.0,0.0,0.0,0.012053164653480053,-0.005832016002386808,0.054949961602687836,0.9991095662117004,-0.0254971981048584,-0.01868709735572338,0.027946235612034798
381.0,0.0,0.0,0.0,0.0,0.0,0.0,0.010008079931139946,-0.006796291563659906,0.04119451344013214,0.9991044998168945,-0.024984216317534447,-0.01977120153605938,0.02783970907330513
382.0,0.0,0.0,0.0,0.0,0.0,0.0,0.006174742244184017,-0.008940857835114002,0.0201442651450634,0.9991183280944824,-0.02441697008907795,-0.02018345147371292,0.027555521577596664
383.0,0.0,0.0,0.0,0.0,0.0,0.0,0.003672567894682288,-0.009700488299131393,0.002657600911334157,0.999151885509491,-0.023872051388025284,-0.02017253264784813,0.026811588555574417
384.0,0.0,0.0,0.0,0.0,0.0,0.0,0.0008959231781773269,-0.006276492029428482,-0.0017340178601443768,0.9991812705993652,-0.023096174001693726,-0.01986895315349102,0.026622282341122627
385.0,0.0,0.0,0.0,0.0,0.0,0.0,-0.0007996758795343339,-0.0007106283446773887,0.001154394238255918,0.9992080330848694,-0.02216886170208454,-0.01924838311970234,0.02686336822807789
386.0,0.0,0.0,0.0,0.0,0.0,0.0,0.0014106510207057,0.002164090983569622,-0.00454323273152113,0.9992538690567017,-0.02098020911216736,-0.018299587070941925,0.026776643469929695
387.0,0.0,0.0,0.0,0.0,0.0,0.0,0.002271075267344713,0.0011066744336858392,-0.008330552838742733,0.9992989301681519,-0.020563192665576935,-0.016870364546775818,0.026353253051638603
388.0,0.0,0.0,0.0,0.0,0.0,0.0,0.004816465079784393,-0.0015275252517312765,-0.005956265144050121,0.9993554949760437,-0.020516695454716682,-0.01476355828344822,0.025491610169410706
389.0,0.0,0.0,0.0,0.0,0.0,0.0,0.010790640488266945,-0.006011561956256628,-0.006055434234440327,0.9994259476661682,-0.020287388935685158,-0.01195004303008318,0.02436053566634655
390.0,0.0,0.0,0.0,0.0,0.0,0.0,0.01436915434896946,-0.010504811070859432,-0.005206175148487091,0.9994823932647705,-0.020217135548591614,-0.009440861642360687,0.023176120594143867
391.0,0.0,0.0,0.0,0.0,0.0,0.0,0.018406765535473824,-0.012668050825595856,-0.00482742115855217,0.9995563626289368,-0.0197000615298748,-0.007316918112337589,0.02110588550567627
392.0,0.0,0.0,0.0,0.0,0.0,0.0,0.017974376678466797,-0.013720753602683544,0.005316737107932568,0.9996106624603271,-0.01893533021211624,-0.006585678551346064,0.019406484439969063
393.0,0.0,0.0,0.0,0.0,0.0,0.0,0.015391206368803978,-0.014988304115831852,0.021963251754641533,0.9996384382247925,-0.017977261915802956,-0.006660050712525845,0.018852287903428078
394.0,0.0,0.0,0.0,0.0,0.0,0.0,0.01591438241302967,-0.014746354892849922,0.030604852363467216,0.9996649622917175,-0.016846230253577232,-0.007126341108232737,0.018317069858312607
395.0,0.0,0.0,0.0,0.0,0.0,0.0,0.011148222722113132,-0.013769860379397869,0.05464398115873337,0.9996656179428101,-0.01594763621687889,-0.0077940733171999454,0.018804721534252167
396.0,0.0,0.0,0.0,0.0,0.0,0.0,0.008758941665291786,-0.017740141600370407,0.061300478875637054,0.9996887445449829,-0.014804855920374393,-0.006919715087860823,0.01885521411895752
397.0,0.0,0.0,0.0,0.0,0.0,0.0,0.016432002186775208,-0.02342366985976696,0.04991374537348747,0.9997536540031433,-0.013319076970219612,-0.00400704937055707,0.01729758456349373
398.0,0.0,0.0,0.0,0.0,0.0,0.0,0.02249356545507908,-0.02526409924030304,0.02527312934398651,0.9998188614845276,-0.011349626816809177,0.0007594646885991096,0.015267432667315006
399.0,0.0,0.0,0.0,0.0,0.0,0.0,0.02620595507323742,-0.01743868738412857,-0.0028831823728978634,0.9998429417610168,-0.00905337743461132,0.006586252711713314,0.013746537268161774
400.0,0.0,0.0,0.0,0.0,0.0,0.0,0.027439918369054794,-0.00858750008046627,-0.02393648400902748,0.9998147487640381,-0.006737252697348595,0.011927793733775616,0.013521295972168446
401.0,0.0,0.0,0.0,0.0,0.0,0.0,0.024561163038015366,0.003548321546986699,-0.031154336407780647,0.9997355937957764,-0.004409384448081255,0.01737562194466591,0.014414164237678051
402.0,0.0,0.0,0.0,0.0,0.0,0.0,0.021249018609523773,0.019489774480462074,-0.031353116035461426,0.9995930194854736,-0.0018986220238730311,0.02364148199558258,0.015855997800827026
403.0,0.0,0.0,0.0,0.0,0.0,0.0,0.022684328258037567,0.03206014260649681,-0.038576822727918625,0.9993706345558167,0.0008080153493210673,0.030751753598451614,0.017657838761806488
404.0,0.0,0.0,0.0,0.0,0.0,0.0,0.022640414535999298,0.03240315243601799,-0.0523306168615818,0.9991229772567749,0.0037504658102989197,0.0372275672852993,0.01879812590777874
405.0,0.0,0.0,0.0,0.0,0.0,0.0,0.01966850832104683,0.026544557884335518,-0.050300974398851395,0.998865008354187,0.005912397056818008,0.04288510978221893,0.019879305735230446
406.0,0.0,0.0,0.0,0.0,0.0,0.0,0.014129935763776302,0.0188002847135067,-0.04101072624325752,0.9985925555229187,0.0077579873614013195,0.04793744161725044,0.021337391808629036
407.0,0.0,0.0,0.0,0.0,0.0,0.0,0.014293283224105835,0.010799183510243893,-0.037631209939718246,0.9983806610107422,0.0088479183614254,0.05181795731186867,0.021743452176451683
408.0,0.0,0.0,0.0,0.0,0.0,0.0,0.010116527788341045,0.005699740257114172,-0.01795303262770176,0.9982430338859558,0.009166618809103966,0.054365016520023346,0.021731890738010406
409.0,0.0,0.0,0.0,0.0,0.0,0.0,0.004517584573477507,0.0072656660340726376,-0.004225015640258789,0.9981751441955566,0.00948888249695301,0.05525505542755127,0.022428788244724274
410.0,0.0,0.0,0.0,0.0,0.0,0.0,-0.007944110780954361,0.0140394801273942,0.03722906857728958,0.9982055425643921,0.009197752922773361,0.05452191084623337,0.02300226502120495
411.0,0.0,0.0,0.0,0.0,0.0,0.0,-0.010850799269974232,0.01761269010603428,0.06920446455478668,0.9983333349227905,0.009482006542384624,0.0519987978041172,0.023178260773420334
412.0,0.0,0.0,0.0,0.0,0.0,0.0,-0.010914815589785576,0.013465932570397854,0.07141055911779404,0.998478889465332,0.010114811360836029,0.04939696192741394,0.022315677255392075
413.0,0.0,0.0,0.0,0.0,0.0,0.0,-0.006686049979180098,0.008886375464498997,0.07178295403718948,0.9985857009887695,0.010611258447170258,0.04767761006951332,0.021016115322709084
414.0,0.0,0.0,0.0,0.0,0.0,0.0,0.002787081291899085,0.002851128811016679,0.07062353193759918,0.9986437559127808,0.011350082233548164,0.04640256240963936,0.02071620337665081
415.0,0.0,0.0,0.0,0.0,0.0,0.0,0.016393471509218216,-0.015030029229819775,0.029648473486304283,0.9987573027610779,0.01240110956132412,0.04435015469789505,0.019069455564022064
416.0,0.0,0.0,0.0,0.0,0.0,0.0,0.02221551537513733,-0.02364763617515564,-0.008112333714962006,0.9989458918571472,0.014387690462172031,0.04067365825176239,0.01568165048956871
417.0,0.0,0.0,0.0,0.0,0.0,0.0,0.018037868663668633,-0.013122690841555595,-0.019633155316114426,0.9991748929023743,0.0190731193870306,0.03439657390117645,0.010155134834349155
418.0,0.0,0.0,0.0,0.0,0.0,0.0,0.01267943624407053,-0.01489399652928114,-0.028206590563058853,0.9993427395820618,0.02429167740046978,0.026325343176722527,0.005627800244837999
419.0,0.0,0.0,0.0,0.0,0.0,0.0,0.006515245884656906,-0.013693581335246563,-0.033980559557676315,0.999406635761261,0.030344413593411446,0.016231626272201538,0.0018620569026097655
420.0,0.0,0.0,0.0,0.0,0.0,0.0,0.0009200838394463062,-0.01288822665810585,-0.049042921513319016,0.9993374943733215,0.03609396889805794,0.004436008166521788,0.0015776982763782144
421.0,0.0,0.0,0.0,0.0,0.0,0.0,-0.010979991406202316,-0.009887340478599072,-0.027516307309269905,0.9991622567176819,0.04038345441222191,-0.006388681009411812,0.0020806090906262398
422.0,0.0,0.0,0.0,0.0,0.0,0.0,-0.013570754788815975,-0.01778029091656208,-0.03141991049051285,0.998919665813446,0.04374149441719055,-0.015385904349386692,0.003328163642436266
423.0,0.0,0.0,0.0,0.0,0.0,0.0,-0.023072028532624245,-0.04811940714716911,-0.05454655736684799,0.9986892938613892,0.04552048072218895,-0.022905105724930763,0.0048275296576321125
424.0,0.0,0.0,0.0,0.0,0.0,0.0,-0.023442961275577545,-0.05955918878316879,-0.013569261878728867,0.9985421299934387,0.045523907989263535,-0.028230879455804825,0.0066717746667563915
425.0,0.0,0.0,0.0,0.0,0.0,0.0,-0.020157454535365105,-0.0602155476808548,0.011553389951586723,0.9984127879142761,0.045045509934425354,-0.032708313316106796,0.008715900592505932
426.0,0.0,0.0,0.0,0.0,0.0,0.0,-0.017328007146716118,-0.06279751658439636,0.03187207505106926,0.9983575940132141,0.0426812507212162,-0.03664562478661537,0.010873275808990002
427.0,0.0,0.0,0.0,0.0,0.0,0.0,-0.014913218095898628,-0.06628800928592682,0.0318945050239563,0.9983128309249878,0.039314571768045425,-0.039705779403448105,0.015845222398638725
428.0,0.0,0.0,0.0,0.0,0.0,0.0,-0.008517805486917496,-0.06065168231725693,0.02951904758810997,0.9983226656913757,0.03517230600118637,-0.04210946708917618,0.018497409299016
429.0,0.0,0.0,0.0,0.0,0.0,0.0,-0.008341915905475616,-0.05854727327823639,0.02201157622039318,0.9983183145523071,0.030928120017051697,-0.044307272881269455,0.021027252078056335
430.0,0.0,0.0,0.0,0.0,0.0,0.0,0.001502926112152636,-0.04274513199925423,0.02364792302250862,0.9983206987380981,0.026118703186511993,-0.04632192477583885,0.023025425150990486
431.0,0.0,0.0,0.0,0.0,0.0,0.0,0.0076090008951723576,-0.02749612182378769,0.016075091436505318,0.9982950091362,0.021475160494446754,-0.04848957061767578,0.02444441057741642
432.0,0.0,0.0,0.0,0.0,0.0,0.0,0.011290166527032852,-0.016129888594150543,0.005725932773202658,0.9982467889785767,0.016684668138623238,-0.05085524916648865,0.025278573855757713
433.0,0.0,0.0,0.0,0.0,0.0,0.0,0.010946327820420265,-0.006423044949769974,0.002051966730505228,0.9981700778007507,0.01264614425599575,-0.053337521851062775,0.02558203414082527
434.0,0.0,0.0,0.0,0.0,0.0,0.0,0.0071542952209711075,0.006137531716376543,-0.009154056198894978,0.998099684715271,0.00926167145371437,-0.055579040199518204,0.02501540817320347
435.0,0.0,0.0,0.0,0.0,0.0,0.0,0.004307376220822334,0.012913803569972515,-0.019520467147231102,0.9980138540267944,0.006296334322541952,-0.057917334139347076,0.024019893258810043
436.0,0.0,0.0,0.0,0.0,0.0,0.0,0.0021967662032693624,0.015513471327722073,-0.019225435331463814,0.9979212284088135,0.0038716616109013557,-0.05964701622724533,0.024163981899619102
437.0,0.0,0.0,0.0,0.0,0.0,0.0,0.0037365059833973646,0.017066841945052147,-0.010032094083726406,0.9979011416435242,0.001745324581861496,-0.06007787957787514,0.024142082780599594
438.0,0.0,0.0,0.0,0.0,0.0,0.0,-0.0006214685854502022,0.01625129021704197,-0.020217282697558403,0.9979267716407776,-0.0004505183605942875,-0.05997001379728317,0.02336689457297325
439.0,0.0,0.0,0.0,0.0,0.0,0.0,-0.001795128802768886,0.014940932393074036,-0.02580392174422741,0.9979583024978638,-0.002171895233914256,-0.05911767855286598,0.02411687560379505
440.0,0.0,0.0,0.0,0.0,0.0,0.0,-0.0011491397162899375,0.014522298239171505,-0.023630524054169655,0.9979739189147949,-0.0038472998421639204,-0.058214493095874786,0.02542576566338539
441.0,0.0,0.0,0.0,0.0,0.0,0.0,0.002230622572824359,0.014118769206106663,-0.022556252777576447,0.9980515837669373,-0.005512530449777842,-0.05666026100516319,0.025550933554768562
442.0,0.0,0.0,0.0,0.0,0.0,0.0,-0.0008885657298378646,0.012561524286866188,-0.013190245255827904,0.9980290532112122,-0.007892689667642117,-0.05686810612678528,0.025341058149933815
443.0,0.0,0.0,0.0,0.0,0.0,0.0,0.003121531568467617,0.015361085534095764,-0.0003070188104175031,0.9980737566947937,-0.008950870484113693,-0.05626928061246872,0.0245845764875412
444.0,0.0,0.0,0.0,0.0,0.0,0.0,0.009931941516697407,0.016624541953206062,0.01819794997572899,0.9981133341789246,-0.009211876429617405,-0.05645240843296051,0.02232886664569378
445.0,0.0,0.0,0.0,0.0,0.0,0.0,0.016897564753890038,0.021330974996089935,0.03798651695251465,0.998153567314148,-0.00933989230543375,-0.05660529434680939,0.019962992519140244
446.0,0.0,0.0,0.0,0.0,0.0,0.0,0.03000864014029503,0.027269791811704636,0.05452873557806015,0.9982001185417175,-0.009318849071860313,-0.05651414394378662,0.01781303994357586
447.0,0.0,0.0,0.0,0.0,0.0,0.0,0.03691926598548889,0.029162095859646797,0.05453437939286232,0.9982457160949707,-0.008049975149333477,-0.05642876774072647,0.016010943800210953
448.0,0.0,0.0,0.0,0.0,0.0,0.0,0.04084417596459389,0.026147229596972466,0.03012911230325699,0.9982816576957703,-0.005833661183714867,-0.05642003193497658,0.01475601363927126
449.0,0.0,0.0,0.0,0.0,0.0,0.0,0.04038944095373154,0.024033408612012863,0.015179888345301151,0.9983090162277222,-0.0032453411258757114,-0.05629632622003555,0.014124862849712372
450.0,0.0,0.0,0.0,0.0,0.0,0.0,0.03647085279226303,0.02307576686143875,0.009442416951060295,0.99830561876297,-0.0008963259169831872,-0.056523118168115616,0.013823098503053188
451.0,0.0,0.0,0.0,0.0,0.0,0.0,0.030759159475564957,0.019792748615145683,0.0016782053280621767,0.9982397556304932,0.0012963118497282267,-0.05765300244092941,0.013852073810994625
452.0,0.0,0.0,0.0,0.0,0.0,0.0,0.019290803000330925,0.009565361775457859,-0.0012019375571981072,0.9982442855834961,0.003113608341664076,-0.057411134243011475,0.014282955788075924
453.0,0.0,0.0,0.0,0.0,0.0,0.0,0.00815553031861782,0.003845403902232647,0.0013691515196114779,0.9983137249946594,0.0033002709969878197,-0.055978137999773026,0.01502111367881298
454.0,0.0,0.0,0.0,0.0,0.0,0.0,-0.0009546950459480286,-0.01364036276936531,0.015671081840991974,0.9984745979309082,0.0022445269860327244,-0.05333440378308296,0.014109224081039429
455.0,0.0,0.0,0.0,0.0,0.0,0.0,-0.006945987232029438,-0.02938562072813511,0.006899899337440729,0.9986855983734131,0.0021039790008217096,-0.04977324977517128,0.012074061669409275
456.0,0.0,0.0,0.0,0.0,0.0,0.0,-0.014594984240829945,-0.0488436296582222,0.0037504746578633785,0.9988860487937927,0.0023159771226346493,-0.04594401642680168,0.010529899038374424
457.0,0.0,0.0,0.0,0.0,0.0,0.0,-0.01389284711331129,-0.05146324262022972,0.009838213212788105,0.9991001486778259,0.0023890379816293716,-0.04134366288781166,0.009179700165987015
458.0,0.0,0.0,0.0,0.0,0.0,0.0,-0.016880951821804047,-0.04563335329294205,0.0054326485842466354,0.9993358254432678,0.002710259985178709,-0.03538373485207558,0.008300288580358028
459.0,0.0,0.0,0.0,0.0,0.0,0.0,-0.007627539336681366,-0.04257892072200775,0.10846731811761856,0.9995692372322083,0.0040331026539206505,-0.028337977826595306,0.006504393182694912
460.0,0.0,0.0,0.0,0.0,0.0,0.0,-0.0023473831824958324,-0.038712166249752045,0.09360403567552567,0.9997562766075134,0.007887898944318295,-0.02023208513855934,0.003961862530559301
461.0,0.0,0.0,0.0,0.0,0.0,0.0,-0.0072981989942491055,-0.056399885565042496,-0.008983397856354713,0.9998485445976257,0.011637098155915737,-0.012961763888597488,-0.0002746123936958611
462.0,0.0,0.0,0.0,0.0,0.0,0.0,-0.0008170150103978813,-0.04640587046742439,-0.009495026431977749,0.9998421669006348,0.015136168338358402,-0.007871570065617561,-0.00502016581594944
463.0,0.0,0.0,0.0,0.0,0.0,0.0,-0.004990310873836279,-0.056243591010570526,-0.06018715724349022,0.9997886419296265,0.018234403803944588,-0.0035410034470260143,-0.008824273012578487
464.0,0.0,0.0,0.0,0.0,0.0,0.0,-0.003120470093563199,-0.06111930310726166,-0.07904177904129028,0.9997280240058899,0.020317383110523224,-0.00035299608134664595,-0.011444180272519588
465.0,0.0,0.0,0.0,0.0,0.0,0.0,0.0031922468915581703,-0.03942413255572319,-0.054442211985588074,0.9996480941772461,0.022577743977308273,0.0014567961916327477,-0.01385965570807457
466.0,0.0,0.0,0.0,0.0,0.0,0.0,0.007481346372514963,-0.04934856668114662,-0.08365614712238312,0.9995907545089722,0.023677553981542587,0.004008616786450148,-0.015551125630736351
467.0,0.0,0.0,0.0,0.0,0.0,0.0,0.017812328413128853,-0.042168114334344864,-0.10915245115756989,0.9995763301849365,0.02439652383327484,0.006846940610557795,-0.014329257421195507
468.0,0.0,0.0,0.0,0.0,0.0,0.0,0.020509187132120132,-0.024074221029877663,-0.09890482574701309,0.9996031522750854,0.023642119020223618,0.009256125427782536,-0.012230876833200455
469.0,0.0,0.0,0.0,0.0,0.0,0.0,0.015444692224264145,-0.010441861115396023,-0.04646211490035057,0.9996678233146667,0.02044779062271118,0.011727038770914078,-0.010441848076879978
470.0,0.0,0.0,0.0,0.0,0.0,0.0,0.019494254142045975,-0.0038640410639345646,-0.058604996651411057,0.9997184872627258,0.016498493030667305,0.014636214822530746,-0.008769650012254715
471.0,0.0,0.0,0.0,0.0,0.0,0.0,0.020860828459262848,0.0008329643751494586,-0.08029401302337646,0.9997832179069519,0.01191285252571106,0.01636720634996891,-0.004944216459989548
472.0,0.0,0.0,0.0,0.0,0.0,0.0,0.012913322076201439,0.02814325876533985,0.0046999468468129635,0.9998544454574585,0.006992303766310215,0.015587511472404003,0.00025128896231763065
473.0,0.0,0.0,0.0,0.0,0.0,0.0,0.003751257434487343,0.04526721313595772,0.07436736673116684,0.9998987913131714,0.0027618994936347008,0.01299373246729374,0.0051238033920526505
474.0,0.0,0.0,0.0,0.0,0.0,0.0,0.0038507385179400444,0.03426820784807205,0.08732371777296066,0.9999237656593323,-0.0006777832168154418,0.009260964579880238,0.00819444376975298
475.0,0.0,0.0,0.0,0.0,0.0,0.0,0.00027209281688556075,0.032101087272167206,0.08749542385339737,0.9999542236328125,-0.003321627853438258,0.005129874683916569,0.007481781765818596
476.0,0.0,0.0,0.0,0.0,0.0,0.0,0.005196288228034973,0.02269558049738407,0.06242559105157852,0.9999524354934692,-0.005999087821692228,0.0009725395357236266,0.0076869274489581585
477.0,0.0,0.0,0.0,0.0,0.0,0.0,0.008374319411814213,0.016078000888228416,0.036844659596681595,0.9999330043792725,-0.008099622093141079,-0.00361889461055398,0.007464966271072626
478.0,0.0,0.0,0.0,0.0,0.0,0.0,0.00482165114954114,0.013420319184660912,0.03189451992511749,0.9998984932899475,-0.010170205496251583,-0.007523283828049898,0.006645208224654198
479.0,0.0,0.0,0.0,0.0,0.0,0.0,-0.0010865419171750546,0.01423688791692257,0.037764184176921844,0.9998579025268555,-0.01194734126329422,-0.00995880551636219,0.006544269155710936
480.0,0.0,0.0,0.0,0.0,0.0,0.0,-0.005273943301290274,0.01195535622537136,0.028579317033290863,0.9998188018798828,-0.0131257064640522,-0.012317010201513767,0.006226710509508848
481.0,0.0,0.0,0.0,0.0,0.0,0.0,-0.004915039986371994,-0.0010533961467444897,0.019031185656785965,0.9997930526733398,-0.014003033749759197,-0.013879841193556786,0.0050775459967553616
482.0,0.0,0.0,0.0,0.0,0.0,0.0,-0.004365228582173586,-0.005446245893836021,0.001776838325895369,0.9997606873512268,-0.015041531063616276,-0.015380204655230045,0.0040984442457556725
483.0,0.0,0.0,0.0,0.0,0.0,0.0,-0.003974854480475187,-0.010776630602777004,-0.009416909888386726,0.9997206926345825,-0.016200773417949677,-0.01703561097383499,0.0025894506834447384
484.0,0.0,0.0,0.0,0.0,0.0,0.0,-0.0041944896802306175,-0.012763929553329945,-0.008721256628632545,0.999671995639801,-0.01746363751590252,-0.01867838017642498,0.00171347102150321
485.0,0.0,0.0,0.0,0.0,0.0,0.0,-0.003417420666664839,-0.012569409795105457,-0.010370180942118168,0.9996012449264526,-0.019202934578061104,-0.020673440769314766,0.001493240357376635
486.0,0.0,0.0,0.0,0.0,0.0,0.0,-0.007159304339438677,-0.0067252409644424915,0.00020317232701927423,0.999531090259552,-0.020490724593400955,-0.022762013599276543,0.0009544591885060072
487.0,0.0,0.0,0.0,0.0,0.0,0.0,-0.01010120753198862,-0.002130239037796855,0.016330622136592865,0.9994598627090454,-0.02134796418249607,-0.024978650733828545,0.0011183005990460515
488.0,0.0,0.0,0.0,0.0,0.0,0.0,-0.00967528484761715,0.003591379150748253,0.023593291640281677,0.9993948340415955,-0.021776841953396797,-0.027109170332551003,0.0011619243305176497
489.0,0.0,0.0,0.0,0.0,0.0,0.0,-0.00851853471249342,0.00408435333520174,0.01569405011832714,0.9993500709533691,-0.02138741873204708,-0.02903004176914692,0.00010593681508908048
490.0,0.0,0.0,0.0,0.0,0.0,0.0,-0.004554215352982283,0.0021666984539479017,0.0028537458274513483,0.9993093013763428,-0.020474763587117195,-0.030994489789009094,-0.0010283529991284013
491.0,0.0,0.0,0.0,0.0,0.0,0.0,-0.005122259724885225,-0.0005626381607726216,-0.011000772938132286,0.9992558360099792,-0.019870007410645485,-0.03304889053106308,-0.0011752359569072723
492.0,0.0,0.0,0.0,0.0,0.0,0.0,-0.01162683218717575,0.001376311993226409,-0.0005574280512519181,0.9991880655288696,-0.020103048533201218,-0.034912388771772385,-0.0010535818291828036
493.0,0.0,0.0,0.0,0.0,0.0,0.0,-0.015888195484876633,0.00976574793457985,0.006746797822415829,0.999117910861969,-0.02059571072459221,-0.03659064695239067,-0.0005357660702429712
494.0,0.0,0.0,0.0,0.0,0.0,0.0,-0.012369074858725071,0.006749206222593784,0.00215142872184515,0.999086320400238,-0.020442858338356018,-0.03753628209233284,-0.00027997218421660364
495.0,0.0,0.0,0.0,0.0,0.0,0.0,-0.010581497102975845,0.0027706690598279238,0.0030792795587331057,0.9990535974502563,-0.020699357613921165,-0.03826192393898964,-0.0004519509384408593
496.0,0.0,0.0,0.0,0.0,0.0,0.0,-0.007455564569681883,0.006154039409011602,-0.001630482729524374,0.9990234971046448,-0.020809758454561234,-0.03897253796458244,-0.000909420195966959
497.0,0.0,0.0,0.0,0.0,0.0,0.0,-0.004778645932674408,0.0025634323246777058,-0.011619975790381432,0.9989995956420898,-0.020725607872009277,-0.03959861397743225,-0.0016310196369886398
498.0,0.0,0.0,0.0,0.0,0.0,0.0,-0.004133190494030714,0.003288157982751727,-0.016057761386036873,0.9989714026451111,-0.020886225625872612,-0.040220003575086594,-0.0018218338955193758
499.0,0.0,0.0,0.0,0.0,0.0,0.0,-0.004348249174654484,0.006225080695003271,-0.008964546024799347,0.998945951461792,-0.020775943994522095,-0.04089966043829918,-0.0016963036032393575
500.0,0.0,0.0,0.0,0.0,0.0,0.0,-0.005414201878011227,0.005084820557385683,-0.001733256853185594,0.9989197254180908,-0.021316269412636757,-0.0412844680249691,-0.0013255436206236482
501.0,0.0,0.0,0.0,0.0,0.0,0.0,-0.003549995133653283,0.006940620020031929,0.004393404815346003,0.998903214931488,-0.02172304131090641,-0.04146410524845123,-0.0010624908609315753
502.0,0.0,0.0,0.0,0.0,0.0,0.0,0.0005446078721433878,0.003072841325774789,0.0003906668280251324,0.9988923668861389,-0.021992703899741173,-0.041594840586185455,-0.0007960158982314169
503.0,0.0,0.0,0.0,0.0,0.0,0.0,0.003909149207174778,0.0013756334083154798,-0.0033449367620050907,0.9988749623298645,-0.0221877358853817,-0.041908588260412216,-0.0006321851396933198
504.0,0.0,0.0,0.0,0.0,0.0,0.0,0.007592353038489819,0.0010655857622623444,-0.0021423122379928827,0.9988673329353333,-0.021818550303578377,-0.04228868708014488,-0.00019812244863715023
505.0,0.0,0.0,0.0,0.0,0.0,0.0,0.00830585602670908,-0.0005332597065716982,0.00025228128652088344,0.9988541603088379,-0.021875200793147087,-0.04256681725382805,0.0004537961503956467
506.0,0.0,0.0,0.0,0.0,0.0,0.0,0.0067023951560258865,-0.002753262408077717,0.01055839192122221,0.9988368153572083,-0.022604314610362053,-0.042488984763622284,0.0029876921325922012
507.0,0.0,0.0,0.0,0.0,0.0,0.0,0.003079310292378068,0.0014959829859435558,0.015163187868893147,0.9988256096839905,-0.022309448570013046,-0.04284592345356941,0.0038130017928779125
508.0,0.0,0.0,0.0,0.0,0.0,0.0,0.0026375511661171913,0.0016342176822945476,0.014600267633795738,0.9988463521003723,-0.021321147680282593,-0.042807742953300476,0.004416563548147678
509.0,0.0,0.0,0.0,0.0,0.0,0.0,0.0008817972266115248,0.00042933240183629096,0.03521939367055893,0.9988767504692078,-0.019728992134332657,-0.042827852070331573,0.004720186814665794
510.0,0.0,0.0,0.0,0.0,0.0,0.0,-0.005182754248380661,0.007311471272259951,0.05256276950240135,0.9989442229270935,-0.0170282032340765,-0.042411088943481445,0.004725653678178787
511.0,0.0,0.0,0.0,0.0,0.0,0.0,-0.007821197621524334,0.0026227328926324844,0.05337147414684296,0.9990769624710083,-0.014380359090864658,-0.040204185992479324,0.0046839057467877865
512.0,0.0,0.0,0.0,0.0,0.0,0.0,0.0002962901198770851,0.005252138711512089,0.056326840072870255,0.9992771148681641,-0.010809310711920261,-0.03624332323670387,0.0038755997084081173
513.0,0.0,0.0,0.0,0.0,0.0,0.0,4.414312570588663e-06,-0.004450865555554628,0.022485431283712387,0.9994738698005676,-0.006456983275711536,-0.031569238752126694,0.00381841161288321
514.0,0.0,0.0,0.0,0.0,0.0,0.0,0.00860296655446291,-0.009594685398042202,-0.007515755016356707,0.9996205568313599,-0.0005031860200688243,-0.0272765401750803,0.0039248112589120865
515.0,0.0,0.0,0.0,0.0,0.0,0.0,0.01531754806637764,-0.012292484752833843,-0.05022509768605232,0.9996944665908813,0.005627132486552,-0.023845259100198746,0.0032975433859974146
516.0,0.0,0.0,0.0,0.0,0.0,0.0,0.01608339324593544,-0.03100869618356228,-0.04619093984365463,0.9996997117996216,0.009613350965082645,-0.022375281900167465,0.00276335165835917
517.0,0.0,0.0,0.0,0.0,0.0,0.0,0.020056409761309624,-0.033996861428022385,-0.03913268446922302,0.9996564984321594,0.012707751244306564,-0.022789400070905685,0.0025410386733710766
518.0,0.0,0.0,0.0,0.0,0.0,0.0,0.01698876917362213,-0.035524025559425354,-0.030430860817432404,0.9996001720428467,0.014354643411934376,-0.024124227464199066,0.0033890176564455032
519.0,0.0,0.0,0.0,0.0,0.0,0.0,0.012361986562609673,-0.028301851823925972,-0.0006087754154577851,0.999538242816925,0.01530110277235508,-0.02598700299859047,0.003770603099837899
520.0,0.0,0.0,0.0,0.0,0.0,0.0,0.013274727389216423,-0.029246635735034943,0.008037778548896313,0.9994921684265137,0.015569653362035751,-0.027514005079865456,0.004112045746296644
521.0,0.0,0.0,0.0,0.0,0.0,0.0,0.015306270681321621,-0.02759968303143978,-0.004926941357553005,0.9994472861289978,0.01486482098698616,-0.029368199408054352,0.004727039951831102
522.0,0.0,0.0,0.0,0.0,0.0,0.0,0.013582293875515461,-0.027401631698012352,-0.011218725703656673,0.9993862509727478,0.013881349936127663,-0.03150695934891701,0.006467646919190884
523.0,0.0,0.0,0.0,0.0,0.0,0.0,0.009570428170263767,-0.026642264798283577,-0.015183108858764172,0.9993396401405334,0.012206414714455605,-0.03319474309682846,0.008355491794645786
524.0,0.0,0.0,0.0,0.0,0.0,0.0,-0.0016414555720984936,-0.01735835149884224,0.005100485403090715,0.9993250966072083,0.009411649778485298,-0.034232247620821,0.009442705661058426
525.0,0.0,0.0,0.0,0.0,0.0,0.0,-0.008773102425038815,-0.017549501731991768,0.034118056297302246,0.9993604421615601,0.0058703431859612465,-0.033625341951847076,0.010675834491848946
526.0,0.0,0.0,0.0,0.0,0.0,0.0,-0.004020169842988253,-0.014231331646442413,0.056147653609514236,0.9993943572044373,0.0034903038758784533,-0.03255954012274742,0.011782120913267136
527.0,0.0,0.0,0.0,0.0,0.0,0.0,0.0009412204963155091,-0.020426630973815918,0.005211456213146448,0.9994350671768188,0.0018261130899190903,-0.03127855807542801,0.012162827886641026
528.0,0.0,0.0,0.0,0.0,0.0,0.0,0.005923605058342218,-0.02037554420530796,0.007434147875756025,0.999461829662323,0.0007545641856268048,-0.030873194336891174,0.011066919192671776
529.0,0.0,0.0,0.0,0.0,0.0,0.0,0.004051275551319122,-0.019992101937532425,0.0032564057037234306,0.9994894862174988,0.00026501205866225064,-0.030521003529429436,0.00946149230003357
530.0,0.0,0.0,0.0,0.0,0.0,0.0,0.0037760487757623196,-0.019803667441010475,-0.00949781946837902,0.9995477199554443,-0.0020551218185573816,-0.02898276224732399,0.007796150632202625
531.0,0.0,0.0,0.0,0.0,0.0,0.0,0.001324060489423573,-0.021543486043810844,-0.012612390331923962,0.99957674741745,-0.004618936218321323,-0.027930915355682373,0.006716001313179731
532.0,0.0,0.0,0.0,0.0,0.0,0.0,-0.0028228797018527985,-0.016683073714375496,-0.015450650826096535,0.9996070265769958,-0.007189993746578693,-0.02650146372616291,0.0056319087743759155
533.0,0.0,0.0,0.0,0.0,0.0,0.0,-0.006192059721797705,-0.00845396425575018,-0.0019162732642143965,0.9996392130851746,-0.009834040887653828,-0.024496177211403847,0.005000778939574957
534.0,0.0,0.0,0.0,0.0,0.0,0.0,-0.007671003695577383,-0.009402827359735966,-0.005590150598436594,0.9996626973152161,-0.011864356696605682,-0.02272145450115204,0.004237744025886059
535.0,0.0,0.0,0.0,0.0,0.0,0.0,-0.009102200157940388,-0.010534154251217842,-0.01872103475034237,0.9996724128723145,-0.013681159354746342,-0.02141939476132393,0.0030630948022007942
536.0,0.0,0.0,0.0,0.0,0.0,0.0,-0.009073271416127682,-0.014186179265379906,-0.01863531582057476,0.9996767044067383,-0.014745648019015789,-0.020571179687976837,0.0023726795334368944
537.0,0.0,0.0,0.0,0.0,0.0,0.0,-0.011312935501337051,-0.018286019563674927,-0.004785933066159487,0.9996883273124695,-0.015634644776582718,-0.019442247226834297,0.00101674092002213
538.0,0.0,0.0,0.0,0.0,0.0,0.0,-0.011399710550904274,-0.016221974045038223,0.004871852695941925,0.9997049570083618,-0.016097232699394226,-0.018192263320088387,-8.465779683319852e-05
539.0,0.0,0.0,0.0,0.0,0.0,0.0,-0.015153962187469006,-0.008681434206664562,0.012601709924638271,0.999726414680481,-0.01553456299006939,-0.017425116151571274,-0.0015548678347840905
540.0,0.0,0.0,0.0,0.0,0.0,0.0,-0.013265522196888924,-0.008921870961785316,0.006314381491392851,0.9997475743293762,-0.013977617025375366,-0.017172759398818016,-0.0038202241994440556
541.0,0.0,0.0,0.0,0.0,0.0,0.0,-0.01049918495118618,-0.009947204031050205,-0.010522092692553997,0.9997469186782837,-0.01235442515462637,-0.018054286018013954,-0.005265399347990751
542.0,0.0,0.0,0.0,0.0,0.0,0.0,-0.019289448857307434,-0.001512598362751305,0.002877800492569804,0.9997533559799194,-0.010763699188828468,-0.018747450783848763,-0.005091749131679535
543.0,0.0,0.0,0.0,0.0,0.0,0.0,-0.02788376994431019,0.011358304880559444,0.04539775103330612,0.999775767326355,-0.00938341859728098,-0.01836889050900936,-0.004810374695807695
544.0,0.0,0.0,0.0,0.0,0.0,0.0,-0.019245341420173645,0.00529476348310709,0.035598404705524445,0.999805212020874,-0.0070027378387749195,-0.017934778705239296,-0.004352283664047718
545.0,0.0,0.0,0.0,0.0,0.0,0.0,-0.010553899221122265,0.004329029005020857,0.028543557971715927,0.999822199344635,-0.003701993962749839,-0.018253758549690247,-0.003009175881743431
546.0,0.0,0.0,0.0,0.0,0.0,0.0,-0.012093152850866318,0.0036778124049305916,0.04861701279878616,0.9998301863670349,0.0004647380264941603,-0.018296321853995323,-0.002231326187029481
547.0,0.0,0.0,0.0,0.0,0.0,0.0,-0.011994440108537674,0.0081877950578928,0.0552419051527977,0.9998448491096497,0.004613686818629503,-0.01688067801296711,-0.002027633134275675
548.0,0.0,0.0,0.0,0.0,0.0,0.0,-0.008531929925084114,0.005860971286892891,0.04801008477807045,0.9998610019683838,0.00871436670422554,-0.014185240492224693,-0.001159621519036591
549.0,0.0,0.0,0.0,0.0,0.0,0.0,-0.008286855183541775,0.0006265203701332211,0.042105745524168015,0.9998666048049927,0.012497363612055779,-0.010480892844498158,-0.0010577284265309572
550.0,0.0,0.0,0.0,0.0,0.0,0.0,0.0009235944598913193,-0.011789185926318169,-0.025955239310860634,0.9998568296432495,0.015499650500714779,-0.006497433874756098,-0.002098612952977419
551.0,0.0,0.0,0.0,0.0,0.0,0.0,0.003615430323407054,-0.015510927885770798,-0.06099266558885574,0.9998219013214111,0.018406348302960396,-0.0029275936540216208,-0.0030351211316883564
552.0,0.0,0.0,0.0,0.0,0.0,0.0,0.0003632707230281085,-0.0031065510120242834,-0.06841977685689926,0.9997820854187012,0.020561816170811653,0.0005312756402418017,-0.0036386779975146055
553.0,0.0,0.0,0.0,0.0,0.0,0.0,0.005054729524999857,-0.010323741473257542,-0.08806278556585312,0.999767005443573,0.021117039024829865,0.002847043564543128,-0.00349355093203485
554.0,0.0,0.0,0.0,0.0,0.0,0.0,0.0035872389562427998,-0.01284685730934143,-0.062892384827137,0.9997633695602417,0.021026792004704475,0.00405971659347415,-0.0039007223676890135
555.0,0.0,0.0,0.0,0.0,0.0,0.0,0.0010026827221736312,-0.018588781356811523,-0.07108251005411148,0.999782145023346,0.01971588283777237,0.004993991460651159,-0.004679382778704166
556.0,0.0,0.0,0.0,0.0,0.0,0.0,0.0034910528920590878,-0.028191298246383667,-0.08905794471502304,0.9998229742050171,0.017061885446310043,0.005824824795126915,-0.005467631854116917
557.0,0.0,0.0,0.0,0.0,0.0,0.0,0.00437106192111969,-0.022402919828891754,-0.059402480721473694,0.9998650550842285,0.014009484089910984,0.005952666513621807,-0.006167375948280096
558.0,0.0,0.0,0.0,0.0,0.0,0.0,0.00617792597040534,-0.024116065353155136,-0.05731011554598808,0.9999172687530518,0.011144304648041725,0.00311196013353765,-0.00569012388586998
559.0,0.0,0.0,0.0,0.0,0.0,0.0,0.004704790655523539,-0.015483065508306026,-0.018379945307970047,0.9999527931213379,0.008124500513076782,-0.0018169548129662871,-0.005109942983835936
560.0,0.0,0.0,0.0,0.0,0.0,0.0,0.006328638643026352,-0.011523750610649586,0.031102580949664116,0.9999513626098633,0.005159277468919754,-0.006438958924263716,-0.005455892067402601
561.0,0.0,0.0,0.0,0.0,0.0,0.0,0.001840459299273789,-0.005767700262367725,0.04326947033405304,0.999914288520813,0.0021307743154466152,-0.011359822005033493,-0.006220723036676645
562.0,0.0,0.0,0.0,0.0,0.0,0.0,0.0016459894832223654,0.0025225039571523666,0.05273905396461487,0.999862015247345,-0.0010364006739109755,-0.01530617754906416,-0.006441948004066944
563.0,0.0,0.0,0.0,0.0,0.0,0.0,0.0045867981389164925,0.011544469743967056,0.049586985260248184,0.999806821346283,-0.0042391587048769,-0.018308421596884727,-0.0058611235581338406
564.0,0.0,0.0,0.0,0.0,0.0,0.0,0.007882310077548027,0.010071133263409138,0.047016825526952744,0.9997548460960388,-0.0067505440674722195,-0.02040151134133339,-0.005350811872631311
565.0,0.0,0.0,0.0,0.0,0.0,0.0,0.013650963082909584,0.010182046331465244,0.022545086219906807,0.9997040033340454,-0.009251289069652557,-0.02174905687570572,-0.0057542589493095875
566.0,0.0,0.0,0.0,0.0,0.0,0.0,0.01532046776264906,0.010987966321408749,0.01696956902742386,0.9996394515037537,-0.011624658480286598,-0.023679375648498535,-0.005117193330079317
567.0,0.0,0.0,0.0,0.0,0.0,0.0,0.010659195482730865,0.008243762888014317,0.017319973558187485,0.9995524287223816,-0.01395370252430439,-0.026121575385332108,-0.004219713155180216
568.0,0.0,0.0,0.0,0.0,0.0,0.0,0.008755801245570183,0.004293749108910561,0.013418860733509064,0.9994813799858093,-0.015042411163449287,-0.02811441197991371,-0.004576805513352156
569.0,0.0,0.0,0.0,0.0,0.0,0.0,0.0054471418261528015,0.00635203393176198,0.00575281260535121,0.9994233250617981,-0.015981892123818398,-0.02928519807755947,-0.006334119010716677
570.0,0.0,0.0,0.0,0.0,0.0,0.0,0.008432252332568169,-0.0024527795612812042,-0.03520622104406357,0.9993094801902771,-0.018614092841744423,-0.03130657970905304,-0.00734619190916419
571.0,0.0,0.0,0.0,0.0,0.0,0.0,0.005764600820839405,-0.0045992229133844376,-0.009132067672908306,0.9991482496261597,-0.020757218822836876,-0.03496453911066055,-0.0070695397444069386
572.0,0.0,0.0,0.0,0.0,0.0,0.0,-0.0028167767450213432,0.002385817700996995,0.012411318719387054,0.9989864230155945,-0.022114502266049385,-0.0386602021753788,-0.006549153011292219
573.0,0.0,0.0,0.0,0.0,0.0,0.0,-0.006706900428980589,0.0034987940452992916,0.02620057947933674,0.9988545179367065,-0.023027470335364342,-0.04160883650183678,-0.005331525579094887
574.0,0.0,0.0,0.0,0.0,0.0,0.0,-0.005501777399331331,-0.0005198949947953224,0.02829635515809059,0.9987344145774841,-0.0241542998701334,-0.04390376806259155,-0.004396050237119198
575.0,0.0,0.0,0.0,0.0,0.0,0.0,-0.0059393467381596565,-0.004923368338495493,0.02370138093829155,0.9986244440078735,-0.025382736697793007,-0.04562988504767418,-0.00484247412532568
576.0,0.0,0.0,0.0,0.0,0.0,0.0,-0.006606062408536673,-0.0030852430500090122,0.027199923992156982,0.9985300302505493,-0.02647734247148037,-0.047002483159303665,-0.00530941691249609
577.0,0.0,0.0,0.0,0.0,0.0,0.0,-0.0037876388523727655,0.0009761176188476384,0.03059842623770237,0.9984702467918396,-0.028075477108359337,-0.047300130128860474,-0.00565287284553051
578.0,0.0,0.0,0.0,0.0,0.0,0.0,-0.0038377176970243454,0.004488825332373381,0.0318022221326828,0.9984534382820129,-0.029218187555670738,-0.04692453891038895,-0.00597752071917057
579.0,0.0,0.0,0.0,0.0,0.0,0.0,0.0007769959629513323,0.00038280521403066814,0.014053106307983398,0.9984464645385742,-0.029794231057167053,-0.04671993851661682,-0.0059061902575194836
580.0,0.0,0.0,0.0,0.0,0.0,0.0,0.0006069703958928585,-0.005001173820346594,0.0028093454893678427,0.9984497427940369,-0.030426189303398132,-0.04626208916306496,-0.005728231742978096
581.0,0.0,0.0,0.0,0.0,0.0,0.0,0.0002985972969327122,0.0004825283249374479,0.005899776704609394,0.9984698295593262,-0.0308453980833292,-0.04552624002099037,-0.00590598164126277
582.0,0.0,0.0,0.0,0.0,0.0,0.0,0.001038933522067964,-0.0037909867241978645,-0.01144690252840519,0.9984977841377258,-0.03040044754743576,-0.0451311320066452,-0.006408620625734329
583.0,0.0,0.0,0.0,0.0,0.0,0.0,0.0011516005033627152,-0.004689796827733517,-0.015298975631594658,0.9985311031341553,-0.02978394739329815,-0.04475584253668785,-0.006746773608028889
584.0,0.0,0.0,0.0,0.0,0.0,0.0,0.004034155514091253,-0.00854756124317646,-0.012638176791369915,0.9985761642456055,-0.02969234436750412,-0.04381364956498146,-0.006666111759841442
585.0,0.0,0.0,0.0,0.0,0.0,0.0,0.003655675332993269,-0.011926895007491112,-0.0018221932696178555,0.9985982179641724,-0.03000601753592491,-0.0431038923561573,-0.006607270799577236
586.0,0.0,0.0,0.0,0.0,0.0,0.0,0.004542800597846508,-0.009588658809661865,-0.002469457685947418,0.9986127614974976,-0.02976156584918499,-0.042938001453876495,-0.0065884580835700035
587.0,0.0,0.0,0.0,0.0,0.0,0.0,0.0031179646030068398,-0.008763393387198448,0.00861971452832222,0.9986628293991089,-0.028946824371814728,-0.04235844314098358,-0.006383925676345825
588.0,0.0,0.0,0.0,0.0,0.0,0.0,0.004912516567856073,-0.008247940801084042,0.014452233910560608,0.9987210035324097,-0.02773045375943184,-0.04184207320213318,-0.0061119310557842255
589.0,0.0,0.0,0.0,0.0,0.0,0.0,0.007522766478359699,-0.005804132670164108,0.011014744639396667,0.998782753944397,-0.026102496311068535,-0.041495777666568756,-0.005485555622726679
590.0,0.0,0.0,0.0,0.0,0.0,0.0,0.0034060142934322357,0.00022063877258915454,0.028353029862046242,0.9988390803337097,-0.024304071441292763,-0.04121053218841553,-0.005614033900201321
591.0,0.0,0.0,0.0,0.0,0.0,0.0,-0.0033514683600515127,0.004449153784662485,0.04873666167259216,0.9989464282989502,-0.021835830062627792,-0.03981743007898331,-0.006633162032812834
592.0,0.0,0.0,0.0,0.0,0.0,0.0,-0.0015200531342998147,-0.00828993134200573,0.037042975425720215,0.9991106390953064,-0.0197477824985981,-0.03642278164625168,-0.007850075140595436
593.0,0.0,0.0,0.0,0.0,0.0,0.0,-0.0011700346367433667,-0.010448455810546875,0.019705183804035187,0.9992838501930237,-0.017409803345799446,-0.03245821222662926,-0.008674774318933487
594.0,0.0,0.0,0.0,0.0,0.0,0.0,0.0005179276340641081,-0.009729976765811443,0.012925178743898869,0.9994367361068726,-0.014752967283129692,-0.028745613992214203,-0.009088349528610706
595.0,0.0,0.0,0.0,0.0,0.0,0.0,0.0056634098291397095,-0.014250007458031178,-0.004169805441051722,0.9995636343955994,-0.011465538293123245,-0.02580627240240574,-0.008692121133208275
596.0,0.0,0.0,0.0,0.0,0.0,0.0,0.0037097204476594925,-0.018354391679167747,0.0024128714576363564,0.9996443390846252,-0.008453861810266972,-0.02412191964685917,-0.007611175533384085
597.0,0.0,0.0,0.0,0.0,0.0,0.0,-0.0007090329891070724,-0.016362914815545082,0.02424664981663227,0.9997044801712036,-0.004940180107951164,-0.022585103288292885,-0.007516906596720219
598.0,0.0,0.0,0.0,0.0,0.0,0.0,0.0044006770476698875,-0.0190909281373024,0.007548753637820482,0.9997462630271912,-0.001075136591680348,-0.021355818957090378,-0.007109554950147867
599.0,0.0,0.0,0.0,0.0,0.0,0.0,0.008155453018844128,-0.018537530675530434,-0.02868635579943657,0.9997506141662598,0.0022660037502646446,-0.02143956534564495,-0.005839051678776741
600.0,0.0,0.0,0.0,0.0,0.0,0.0,0.0018036256078630686,-0.005730794742703438,-0.030113376677036285,0.999751091003418,0.005708554293960333,-0.021253017708659172,-0.003725155256688595
601.0,0.0,0.0,0.0,0.0,0.0,0.0,-0.00543522834777832,-0.014755114912986755,-0.037061791867017746,0.999746561050415,0.008353875949978828,-0.020875805988907814,-0.0012620254419744015
602.0,0.0,0.0,0.0,0.0,0.0,0.0,-0.00654959212988615,-0.011337732896208763,-0.04350928217172623,0.9997577667236328,0.009111016988754272,-0.02000517025589943,0.0011643641628324986
603.0,0.0,0.0,0.0,0.0,0.0,0.0,-0.006380912847816944,-0.002343148225918412,-0.016185900196433067,0.9997897148132324,0.00796717032790184,-0.018582185730338097,0.00342298811301589
604.0,0.0,0.0,0.0,0.0,0.0,0.0,-0.008801428601145744,-0.008593423292040825,0.022286977618932724,0.999832034111023,0.006480994634330273,-0.016519708558917046,0.004587952513247728
605.0,0.0,0.0,0.0,0.0,0.0,0.0,0.004095002543181181,-0.024325154721736908,-0.053363192826509476,0.9998779296875,0.0046709151938557625,-0.013921312056481838,0.0053603691048920155
606.0,0.0,0.0,0.0,0.0,0.0,0.0,0.006539950147271156,-0.023972932249307632,-0.04867425188422203,0.9998997449874878,0.002207177458330989,-0.01254932302981615,0.006193504203110933
607.0,0.0,0.0,0.0,0.0,0.0,0.0,-0.004055056720972061,-0.020352043211460114,-0.0009674340253695846,0.9999076724052429,0.00029242585878819227,-0.012227334082126617,0.00591354351490736
608.0,0.0,0.0,0.0,0.0,0.0,0.0,-0.0049599334597587585,-0.021189695224165916,0.0014710825635120273,0.9999193549156189,-0.0018024299060925841,-0.011696585454046726,0.00463193841278553
609.0,0.0,0.0,0.0,0.0,0.0,0.0,0.003225414315238595,-0.022836318239569664,-0.010697049088776112,0.9998998641967773,-0.004229210317134857,-0.012768365442752838,0.00440498860552907
610.0,0.0,0.0,0.0,0.0,0.0,0.0,0.006654231809079647,-0.023327002301812172,-0.006146731786429882,0.9998615980148315,-0.006410093978047371,-0.01468532346189022,0.004563201684504747
611.0,0.0,0.0,0.0,0.0,0.0,0.0,0.0028926341328769922,-0.016153765842318535,0.0204114131629467,0.9998303055763245,-0.008747527375817299,-0.01569075509905815,0.004139598924666643
612.0,0.0,0.0,0.0,0.0,0.0,0.0,0.0016169965965673327,-0.016121068969368935,0.03171324357390404,0.9998051524162292,-0.010495902970433235,-0.016260161995887756,0.003897120011970401
613.0,0.0,0.0,0.0,0.0,0.0,0.0,0.0009509262745268643,-0.014615954831242561,0.02495548129081726,0.999783992767334,-0.011357562616467476,-0.01691361702978611,0.004191844258457422
614.0,0.0,0.0,0.0,0.0,0.0,0.0,0.0035945677664130926,-0.016884632408618927,0.012709449976682663,0.9997588992118835,-0.011774472892284393,-0.017963150516152382,0.004623567219823599
615.0,0.0,0.0,0.0,0.0,0.0,0.0,0.00493126455694437,-0.014828198589384556,0.017373759299516678,0.9997490048408508,-0.011647065170109272,-0.018696323037147522,0.004179009236395359
616.0,0.0,0.0,0.0,0.0,0.0,0.0,0.002270808909088373,-0.01444255094975233,0.022209499031305313,0.9997372031211853,-0.011147365905344486,-0.01977761834859848,0.00318612577393651
617.0,0.0,0.0,0.0,0.0,0.0,0.0,-0.001365611795336008,-0.01354900747537613,0.01621571183204651,0.9997172951698303,-0.010088223963975906,-0.021512199193239212,0.0010794391855597496
618.0,0.0,0.0,0.0,0.0,0.0,0.0,0.001618576585315168,-0.016719691455364227,-0.00775248184800148,0.9997041821479797,-0.007870754227042198,-0.022969428449869156,-0.001471462775953114
619.0,0.0,0.0,0.0,0.0,0.0,0.0,0.0036866634618490934,-0.024662798270583153,-0.05388850346207619,0.9996710419654846,-0.006337206810712814,-0.024671806022524834,-0.003073822008445859
620.0,0.0,0.0,0.0,0.0,0.0,0.0,-0.008085655979812145,-0.01745731383562088,0.006698667071759701,0.9996216297149658,-0.005151387304067612,-0.02664356492459774,-0.004535819869488478
621.0,0.0,0.0,0.0,0.0,0.0,0.0,-0.010884405113756657,-0.018239516764879227,-0.00027109618531540036,0.9995657205581665,-0.003337293630465865,-0.028722427785396576,-0.005724841263145208
622.0,0.0,0.0,0.0,0.0,0.0,0.0,-0.009210756979882717,-0.0203571617603302,-0.0009148283279500902,0.999485969543457,-0.0013064771192148328,-0.03133697435259819,-0.006659105885773897
623.0,0.0,0.0,0.0,0.0,0.0,0.0,-0.008914446458220482,-0.00807812251150608,0.02522960864007473,0.9994126558303833,0.00030693691223859787,-0.03353087231516838,-0.007081753574311733
624.0,0.0,0.0,0.0,0.0,0.0,0.0,-0.011014075949788094,0.00028337142430245876,0.04273312911391258,0.9993854761123657,0.0012102728942409158,-0.03431672602891922,-0.007110417354851961
625.0,0.0,0.0,0.0,0.0,0.0,0.0,-0.008246762678027153,0.009152471087872982,0.025469651445746422,0.9994058609008789,0.0011337149189785123,-0.03389837592840195,-0.006217706482857466
626.0,0.0,0.0,0.0,0.0,0.0,0.0,-0.0045060692355036736,0.009340698830783367,0.018650341778993607,0.9994368553161621,0.0002586448681540787,-0.03312576189637184,-0.005425586365163326
627.0,0.0,0.0,0.0,0.0,0.0,0.0,-0.003706013783812523,0.005415508057922125,-0.004766253754496574,0.9994723200798035,-0.00030850464827381074,-0.032077349722385406,-0.00526767410337925
628.0,0.0,0.0,0.0,0.0,0.0,0.0,-0.0035308056976646185,0.0031780085992068052,-0.030626198276877403,0.9995120763778687,-0.0005367916892282665,-0.030893392860889435,-0.00462595047429204
629.0,0.0,0.0,0.0,0.0,0.0,0.0,-0.0075647165067493916,-0.0014221516903489828,-0.030430041253566742,0.9995607137680054,-0.0017604491440579295,-0.029381223022937775,-0.0035394919104874134
630.0,0.0,0.0,0.0,0.0,0.0,0.0,-0.011968819424510002,0.002965597901493311,-0.016706103459000587,0.99961918592453,-0.004035948310047388,-0.027065247297286987,-0.0036772028543055058
631.0,0.0,0.0,0.0,0.0,0.0,0.0,-0.014203513972461224,-0.007764617446810007,-0.03492875024676323,0.9996459484100342,-0.0065338388085365295,-0.025651657953858376,-0.0030435698572546244
632.0,0.0,0.0,0.0,0.0,0.0,0.0,-0.013313479721546173,-0.009029140695929527,-0.02675199881196022,0.9996577501296997,-0.0085945725440979,-0.024598918855190277,-0.0025021550245583057
633.0,0.0,0.0,0.0,0.0,0.0,0.0,-0.013049710541963577,0.0008004232659004629,-0.015525736846029758,0.9996787905693054,-0.01058380026370287,-0.02295789122581482,-0.0021243030205368996
634.0,0.0,0.0,0.0,0.0,0.0,0.0,-0.008496110327541828,0.0008887986186891794,-0.008753607980906963,0.9997067451477051,-0.012559960596263409,-0.020705273374915123,-0.0009078244329430163
635.0,0.0,0.0,0.0,0.0,0.0,0.0,-0.004457883536815643,0.007243812549859285,0.010925986804068089,0.9997181296348572,-0.014643706381320953,-0.01868109032511711,0.0008653296390548348
636.0,0.0,0.0,0.0,0.0,0.0,0.0,-0.001284632715396583,0.006294583436101675,0.007808587048202753,0.9997128844261169,-0.016946952790021896,-0.01682882010936737,0.0021814429201185703
637.0,0.0,0.0,0.0,0.0,0.0,0.0,0.005733183119446039,0.0043336073867976665,-0.0027350462041795254,0.9997094869613647,-0.01926325261592865,-0.014151085168123245,0.0032189262565225363
638.0,0.0,0.0,0.0,0.0,0.0,0.0,0.008428439497947693,0.004475054796785116,-0.012821088545024395,0.9996963739395142,-0.02133130468428135,-0.011502627283334732,0.00453229108825326
639.0,0.0,0.0,0.0,0.0,0.0,0.0,0.009669257327914238,0.0056459298357367516,-0.020169679075479507,0.999672532081604,-0.022854648530483246,-0.009688462130725384,0.006206123158335686
640.0,0.0,0.0,0.0,0.0,0.0,0.0,0.006304942071437836,0.0026606889441609383,-0.021658366546034813,0.9996561408042908,-0.024103399366140366,-0.007286484353244305,0.007355973590165377
641.0,0.0,0.0,0.0,0.0,0.0,0.0,0.004013739991933107,0.002538653090596199,-0.027907663956284523,0.9996107220649719,-0.02612830325961113,-0.004712414927780628,0.008657625876367092
642.0,0.0,0.0,0.0,0.0,0.0,0.0,0.00316029810346663,0.0016041140770539641,-0.033373843878507614,0.9995465874671936,-0.02775740623474121,-0.0023081584367901087,0.011458325199782848
643.0,0.0,0.0,0.0,0.0,0.0,0.0,-0.0009561951155774295,0.005040873307734728,-0.025190899148583412,0.9994838237762451,-0.028619913384318352,-0.000128679777844809,0.014632372185587883
644.0,0.0,0.0,0.0,0.0,0.0,0.0,-0.0025546932592988014,0.015535307116806507,-0.014069445431232452,0.9994351863861084,-0.028588084504008293,0.0016235974617302418,0.017618639394640923
645.0,0.0,0.0,0.0,0.0,0.0,0.0,-0.0038896771147847176,0.018493253737688065,-0.0018937272252514958,0.9993958473205566,-0.02811163291335106,0.003444061614573002,0.02017289027571678
646.0,0.0,0.0,0.0,0.0,0.0,0.0,-0.0037938214372843504,0.02040402777493,0.010628430172801018,0.9993690848350525,-0.02717275172472,0.005218578968197107,0.022281553596258163
647.0,0.0,0.0,0.0,0.0,0.0,0.0,0.0023410797584801912,0.023231804370880127,0.010961353778839111,0.9993630647659302,-0.02592025138437748,0.00647491030395031,0.023708071559667587
648.0,0.0,0.0,0.0,0.0,0.0,0.0,0.001999387750402093,0.03628125786781311,0.02712235227227211,0.9993638396263123,-0.02481297217309475,0.007549379486590624,0.024509020149707794
649.0,0.0,0.0,0.0,0.0,0.0,0.0,0.0025612234603613615,0.0395863801240921,0.04503033310174942,0.9993662238121033,-0.023569289594888687,0.0073562078177928925,0.025653021410107613
650.0,0.0,0.0,0.0,0.0,0.0,0.0,0.009840508922934532,0.03674941137433052,0.04143662378191948,0.999407172203064,-0.021397516131401062,0.0066818674094974995,0.026135511696338654
651.0,0.0,0.0,0.0,0.0,0.0,0.0,0.014649841003119946,0.040510088205337524,0.024663640186190605,0.9994748830795288,-0.018816398456692696,0.006444545928388834,0.025629358366131783
652.0,0.0,0.0,0.0,0.0,0.0,0.0,0.016393715515732765,0.03126022219657898,0.0190032459795475,0.9995521903038025,-0.016291029751300812,0.005785117391496897,0.024479834362864494
653.0,0.0,0.0,0.0,0.0,0.0,0.0,0.018028387799859047,0.018358608707785606,0.011620109900832176,0.9996123909950256,-0.01471208781003952,0.005353046581149101,0.023059356957674026
654.0,0.0,0.0,0.0,0.0,0.0,0.0,0.013445073738694191,0.006028950214385986,0.01034342497587204,0.999642550945282,-0.013911154121160507,0.0047842818312346935,0.022366095334291458
655.0,0.0,0.0,0.0,0.0,0.0,0.0,0.013920508325099945,-0.004160855431109667,0.01019273977726698,0.9996817111968994,-0.013113966211676598,0.00385088799521327,0.021239548921585083
656.0,0.0,0.0,0.0,0.0,0.0,0.0,0.011912710964679718,-0.005767625756561756,0.014513032510876656,0.9997328519821167,-0.011951674707233906,0.002460918389260769,0.019687674939632416
657.0,0.0,0.0,0.0,0.0,0.0,0.0,0.009805687703192234,-0.009441561996936798,0.012108676135540009,0.9997555017471313,-0.010993498377501965,0.001190037583000958,0.01913122832775116
658.0,0.0,0.0,0.0,0.0,0.0,0.0,0.013691849075257778,-0.012147882021963596,0.0014989891787990928,0.9997841715812683,-0.01035226508975029,0.00020095883519388735,0.01803971268236637
659.0,0.0,0.0,0.0,0.0,0.0,0.0,0.014941981993615627,-0.015703042969107628,-0.003687796648591757,0.9998171329498291,-0.00948332343250513,-0.0009914704132825136,0.016597073525190353
660.0,0.0,0.0,0.0,0.0,0.0,0.0,0.014663784764707088,-0.019592292606830597,-0.001538515673018992,0.9998419880867004,-0.008099978789687157,-0.0029565426521003246,0.015552177093923092
661.0,0.0,0.0,0.0,0.0,0.0,0.0,0.010787079110741615,-0.022815123200416565,0.005417362786829472,0.9998608827590942,-0.006772695574909449,-0.004724792204797268,0.014580710791051388
662.0,0.0,0.0,0.0,0.0,0.0,0.0,0.010186160914599895,-0.02958432026207447,0.0056102038361132145,0.9998691082000732,-0.005949960555881262,-0.006125091575086117,0.013787198811769485
663.0,0.0,0.0,0.0,0.0,0.0,0.0,0.007017800118774176,-0.02820424549281597,0.0073885791935026646,0.9998709559440613,-0.005768162198364735,-0.007139893248677254,0.01329337153583765
664.0,0.0,0.0,0.0,0.0,0.0,0.0,-0.0006702696555294096,-0.01905694231390953,0.013027157634496689,0.9998530745506287,-0.005819397047162056,-0.00777969928458333,0.014174053445458412
665.0,0.0,0.0,0.0,0.0,0.0,0.0,-0.006173715926706791,-0.013015874661505222,0.038592465221881866,0.9998381733894348,-0.005591542925685644,-0.00767128448933363,0.015305854380130768
666.0,0.0,0.0,0.0,0.0,0.0,0.0,-0.0056524877436459064,-0.011327761225402355,0.05653490126132965,0.9998318552970886,-0.003195154946297407,-0.008390441536903381,0.016049442812800407
667.0,0.0,0.0,0.0,0.0,0.0,0.0,-0.0030142671894282103,-0.011940186843276024,0.04470039904117584,0.9998228549957275,0.00019819903536699712,-0.008742425590753555,0.01670938730239868
668.0,0.0,0.0,0.0,0.0,0.0,0.0,-0.02305048145353794,0.011667383834719658,0.1025642603635788,0.9998166561126709,0.0033794217742979527,-0.007055750582367182,0.017507236450910568
669.0,0.0,0.0,0.0,0.0,0.0,0.0,-0.023599954321980476,0.02018331177532673,0.09629562497138977,0.9998149275779724,0.007570198737084866,-0.0020739007741212845,0.01759803295135498
670.0,0.0,0.0,0.0,0.0,0.0,0.0,-0.010868827812373638,0.008015225641429424,0.05913814902305603,0.9997593760490417,0.012586386874318123,0.0051873293705284595,0.017228588461875916
671.0,0.0,0.0,0.0,0.0,0.0,0.0,-0.010247948579490185,-0.00482588168233633,0.06168026849627495,0.9996190667152405,0.019086776301264763,0.012339993380010128,0.01570361852645874
672.0,0.0,0.0,0.0,0.0,0.0,0.0,0.008533110842108727,-0.031125376001000404,0.0008876415668055415,0.9994341731071472,0.024510294198989868,0.01735067367553711,0.015174114145338535
673.0,0.0,0.0,0.0,0.0,0.0,0.0,0.008649788796901703,-0.025929493829607964,-0.026806291192770004,0.9992880821228027,0.028553377836942673,0.019147809594869614,0.01554589532315731
674.0,0.0,0.0,0.0,0.0,0.0,0.0,-0.003455204889178276,-0.012728546746075153,0.00459126615896821,0.999191164970398,0.031879525631666183,0.018930470570921898,0.0155915142968297
675.0,0.0,0.0,0.0,0.0,0.0,0.0,-0.0022831792011857033,-0.033167991787195206,-0.026072388514876366,0.9990891814231873,0.03519323468208313,0.018178915604948997,0.015877777710556984
676.0,0.0,0.0,0.0,0.0,0.0,0.0,0.008595128543674946,-0.04447350651025772,-0.06599204987287521,0.9990224838256836,0.03748690336942673,0.01663277857005596,0.016523078083992004
677.0,0.0,0.0,0.0,0.0,0.0,0.0,-0.0009751322213560343,-0.040650948882102966,-0.06321419775485992,0.9990058541297913,0.03806672990322113,0.015571332536637783,0.017209462821483612
678.0,0.0,0.0,0.0,0.0,0.0,0.0,-0.017564428970217705,-0.03225984051823616,-0.02820214256644249,0.9990326166152954,0.03745460882782936,0.015095851384103298,0.017409490421414375
679.0,0.0,0.0,0.0,0.0,0.0,0.0,-0.021541936323046684,-0.022597435861825943,-0.0010174495400860906,0.999082624912262,0.03675025328993797,0.014090399257838726,0.01689538173377514
680.0,0.0,0.0,0.0,0.0,0.0,0.0,-0.015587594360113144,-0.02996710315346718,-0.016044003888964653,0.9991312623023987,0.03591030091047287,0.01395791582763195,0.01589350402355194
681.0,0.0,0.0,0.0,0.0,0.0,0.0,-0.013653072528541088,-0.02756974846124649,-0.019998207688331604,0.9991928935050964,0.034717414528131485,0.013592886738479137,0.014961822889745235
682.0,0.0,0.0,0.0,0.0,0.0,0.0,-0.013194182887673378,-0.027649857103824615,-0.00787421129643917,0.9992361068725586,0.03416234254837036,0.012694057077169418,0.014125100336968899
683.0,0.0,0.0,0.0,0.0,0.0,0.0,-0.007306395098567009,-0.029050135985016823,-0.02064240165054798,0.9992574453353882,0.03443548083305359,0.011047055944800377,0.013299823738634586
684.0,0.0,0.0,0.0,0.0,0.0,0.0,-0.003449816955253482,-0.026796165853738785,-0.027248481288552284,0.9992707371711731,0.035028502345085144,0.009101120755076408,0.01218358613550663
685.0,0.0,0.0,0.0,0.0,0.0,0.0,-0.0012658948544412851,-0.030238663777709007,-0.027726542204618454,0.9992600679397583,0.03603348135948181,0.007107123266905546,0.011426389217376709
686.0,0.0,0.0,0.0,0.0,0.0,0.0,-0.0006243922980502248,-0.030533911660313606,-0.02012944407761097,0.9992703199386597,0.03646627068519592,0.004347413312643766,0.010507754981517792
687.0,0.0,0.0,0.0,0.0,0.0,0.0,0.0009940281743183732,-0.033279821276664734,-0.00537951709702611,0.9992652535438538,0.03731196001172066,0.0014374677557498217,0.00864441692829132
688.0,0.0,0.0,0.0,0.0,0.0,0.0,0.008319579996168613,-0.036363277584314346,-0.004519027192145586,0.9991917610168457,0.03954456001520157,-0.0013352074893191457,0.007115596905350685
689.0,0.0,0.0,0.0,0.0,0.0,0.0,0.010187323205173016,-0.04259229451417923,-0.028227461501955986,0.9990756511688232,0.04223255068063736,-0.0050435662269592285,0.006248298101127148
690.0,0.0,0.0,0.0,0.0,0.0,0.0,0.010110531002283096,-0.041116539388895035,-0.021015062928199768,0.9989845156669617,0.043869975954294205,-0.008690236136317253,0.005466899368911982
691.0,0.0,0.0,0.0,0.0,0.0,0.0,0.01015100721269846,-0.042111437767744064,-0.01687299832701683,0.998907208442688,0.04473487287759781,-0.012448925524950027,0.005335891619324684
692.0,0.0,0.0,0.0,0.0,0.0,0.0,0.00991081353276968,-0.032862599939107895,0.003110308200120926,0.998832643032074,0.045189257711172104,-0.016132352873682976,0.005600489675998688
693.0,0.0,0.0,0.0,0.0,0.0,0.0,-0.003429684555158019,-0.036672193557024,0.029307907447218895,0.9988787174224854,0.04357390105724335,-0.017569852992892265,0.0058237104676663876
694.0,0.0,0.0,0.0,0.0,0.0,0.0,-0.013074648566544056,-0.045906078070402145,0.07722806185483932,0.9989844560623169,0.04144424945116043,-0.01700836792588234,0.004843029659241438
695.0,0.0,0.0,0.0,0.0,0.0,0.0,-0.0003089013625867665,-0.048212822526693344,-0.01726926863193512,0.9990841746330261,0.03960151597857475,-0.01590290665626526,0.0031553765293210745
696.0,0.0,0.0,0.0,0.0,0.0,0.0,0.0017481878167018294,-0.044089507311582565,-0.027331892400979996,0.9991502165794373,0.03776687756180763,-0.01640443131327629,0.0019028543028980494
697.0,0.0,0.0,0.0,0.0,0.0,0.0,-0.012035011313855648,-0.031608883291482925,0.011295479722321033,0.9991713762283325,0.036675889045000076,-0.017635876312851906,-0.0006549008539877832
698.0,0.0,0.0,0.0,0.0,0.0,0.0,-0.013292480260133743,-0.022464318200945854,-0.018522558733820915,0.9992625713348389,0.03427325189113617,-0.017074555158615112,-0.0028809444047510624
699.0,0.0,0.0,0.0,0.0,0.0,0.0,-0.010518417693674564,-0.014825657941401005,-0.018191469833254814,0.999397337436676,0.029904311522841454,-0.017073119059205055,-0.004400694742798805
700.0,0.0,0.0,0.0,0.0,0.0,0.0,-0.007207958493381739,-0.017062140628695488,-0.023851808160543442,0.999496340751648,0.02570650354027748,-0.017647502943873405,-0.005908939056098461
701.0,0.0,0.0,0.0,0.0,0.0,0.0,-0.006502728909254074,-0.012028269469738007,-0.027698688209056854,0.9995758533477783,0.021599655970931053,-0.018029913306236267,-0.007516949903219938
702.0,0.0,0.0,0.0,0.0,0.0,0.0,-0.015431725420057774,-0.010156124830245972,-0.002048519905656576,0.9996433258056641,0.017301145941019058,-0.01846197247505188,-0.008556228131055832
703.0,0.0,0.0,0.0,0.0,0.0,0.0,-0.02105628326535225,-0.009734824299812317,0.014019124209880829,0.9996770024299622,0.012909465469419956,-0.01921045035123825,-0.01049390435218811
704.0,0.0,0.0,0.0,0.0,0.0,0.0,-0.020578445866703987,-0.011333085596561432,0.019523385912179947,0.9996613264083862,0.009382420219480991,-0.020425070077180862,-0.013121390715241432
705.0,0.0,0.0,0.0,0.0,0.0,0.0,-0.01704496704041958,-0.011682547628879547,-0.00021173291315790266,0.9996076822280884,0.006577593274414539,-0.02161135897040367,-0.016562437638640404
706.0,0.0,0.0,0.0,0.0,0.0,0.0,-0.018223952502012253,-0.004926552064716816,-0.0017651336966082454,0.999518096446991,0.003940152935683727,-0.023036153987050056,-0.020433304831385612
707.0,0.0,0.0,0.0,0.0,0.0,0.0,-0.02041351981461048,0.0013048985274508595,0.0017372717848047614,0.9993844032287598,0.0028121944051235914,-0.02517641894519329,-0.024270500987768173
708.0,0.0,0.0,0.0,0.0,0.0,0.0,-0.020348016172647476,0.003195138880982995,-0.015973931178450584,0.9992101192474365,0.0027494386304169893,-0.02777303010225296,-0.028288865461945534
709.0,0.0,0.0,0.0,0.0,0.0,0.0,-0.02135644480586052,0.0006252970197238028,-0.04371882975101471,0.9990288615226746,0.002837058389559388,-0.03105650469660759,-0.03112875483930111
710.0,0.0,0.0,0.0,0.0,0.0,0.0,-0.03514355421066284,0.009584288112819195,0.0074089281260967255,0.9988414645195007,0.0029250243678689003,-0.034056756645441055,-0.03387412801384926
711.0,0.0,0.0,0.0,0.0,0.0,0.0,-0.03479553014039993,0.016015026718378067,0.011192385107278824,0.9986141920089722,0.003706995863467455,-0.037621527910232544,-0.036614760756492615
712.0,0.0,0.0,0.0,0.0,0.0,0.0,-0.032389409840106964,0.009444708935916424,-0.0025952374562621117,0.9983934164047241,0.005588916130363941,-0.04192551225423813,-0.03770634904503822
713.0,0.0,0.0,0.0,0.0,0.0,0.0,-0.04179888218641281,0.010262718424201012,0.026780707761645317,0.9982247948646545,0.006632903125137091,-0.04466177150607109,-0.038843683898448944
714.0,0.0,0.0,0.0,0.0,0.0,0.0,-0.042657628655433655,0.017553137615323067,0.05044979974627495,0.9981201887130737,0.0062296767719089985,-0.04572715982794762,-0.04033126309514046
715.0,0.0,0.0,0.0,0.0,0.0,0.0,-0.02659059874713421,0.004356555640697479,0.0033711008727550507,0.9981061220169067,0.005068512167781591,-0.045378249138593674,-0.041222959756851196
716.0,0.0,0.0,0.0,0.0,0.0,0.0,-0.021761253476142883,-0.00502933980897069,-0.003469230141490698,0.9980760812759399,0.004153714515268803,-0.04491552338004112,-0.04253819212317467
717.0,0.0,0.0,0.0,0.0,0.0,0.0,-0.022084876894950867,0.002638840349391103,-0.008946409448981285,0.998035192489624,0.0035310951061546803,-0.04570429399609566,-0.042715732008218765
718.0,0.0,0.0,0.0,0.0,0.0,0.0,-0.02225870080292225,0.002061167499050498,-0.006485893856734037,0.9980243444442749,0.002208058489486575,-0.04569632187485695,-0.04306494817137718
719.0,0.0,0.0,0.0,0.0,0.0,0.0,-0.025578822940587997,0.0009038170101121068,0.0024223963264375925,0.9980086088180542,0.0004848151293117553,-0.04545750468969345,-0.043729931116104126
720.0,0.0,0.0,0.0,0.0,0.0,0.0,-0.02104177325963974,0.00488306675106287,-0.021576600149273872,0.9979857802391052,-0.0011489639291539788,-0.04475076496601105,-0.044952310621738434
721.0,0.0,0.0,0.0,0.0,0.0,0.0,-0.015220140106976032,0.002712354063987732,-0.04743104800581932,0.9979292154312134,-0.003115980187430978,-0.04405774548649788,-0.04675925895571709
722.0,0.0,0.0,0.0,0.0,0.0,0.0,-0.011072523891925812,0.002190382918342948,-0.04555865377187729,0.9978018403053284,-0.0061455704271793365,-0.04459604248404503,-0.048632048070430756
723.0,0.0,0.0,0.0,0.0,0.0,0.0,-0.008150204084813595,0.006785683799535036,-0.05051218718290329,0.9976834654808044,-0.009137709625065327,-0.04599718749523163,-0.049278534948825836
724.0,0.0,0.0,0.0,0.0,0.0,0.0,-0.01638520322740078,0.012411361560225487,-0.017624275758862495,0.9976386427879333,-0.012260422110557556,-0.046990327537059784,-0.04857189580798149
725.0,0.0,0.0,0.0,0.0,0.0,0.0,-0.014117399230599403,0.01694497838616371,-0.0038220956921577454,0.9976823925971985,-0.015604530461132526,-0.046739086508750916,-0.04692167043685913
726.0,0.0,0.0,0.0,0.0,0.0,0.0,-0.007171206176280975,0.016776546835899353,-0.012296653352677822,0.9977377653121948,-0.020011020824313164,-0.04588783532381058,-0.04487347602844238
727.0,0.0,0.0,0.0,0.0,0.0,0.0,-0.004951993469148874,0.019560450688004494,0.015758836641907692,0.9977851510047913,-0.025206182152032852,-0.043770842254161835,-0.04328372702002525
728.0,0.0,0.0,0.0,0.0,0.0,0.0,0.005534383002668619,0.021419594064354897,0.00176234042737633,0.997853696346283,-0.02990417554974556,-0.0414559505879879,-0.04093049466609955
729.0,0.0,0.0,0.0,0.0,0.0,0.0,0.014488098211586475,0.014864710159599781,-0.019487224519252777,0.9979592561721802,-0.033238064497709274,-0.039903298020362854,-0.03715803846716881
730.0,0.0,0.0,0.0,0.0,0.0,0.0,0.016962550580501556,0.020060408860445023,-0.012633253820240498,0.9981025457382202,-0.033451687544584274,-0.04068953916430473,-0.03188495710492134
731.0,0.0,0.0,0.0,0.0,0.0,0.0,0.01260897796601057,0.02002730220556259,0.010686294175684452,0.9981755018234253,-0.03464238718152046,-0.041054219007492065,-0.027576744556427002
732.0,0.0,0.0,0.0,0.0,0.0,0.0,0.01822979375720024,0.01582021266222,-0.016635991632938385,0.9982049465179443,-0.03660978376865387,-0.04150383919477463,-0.022903386503458023
733.0,0.0,0.0,0.0,0.0,0.0,0.0,0.007328243926167488,0.025614935904741287,0.028978023678064346,0.9981917142868042,-0.038059037178754807,-0.042112573981285095,-0.019795449450612068
734.0,0.0,0.0,0.0,0.0,0.0,0.0,0.0038442767690867186,0.02436542510986328,0.032156188040971756,0.9981536269187927,-0.03952401503920555,-0.04252868890762329,-0.017853843048214912
735.0,0.0,0.0,0.0,0.0,0.0,0.0,0.005911432672291994,0.02424493059515953,0.027528023347258568,0.9981213212013245,-0.040925152599811554,-0.04251920431852341,-0.016480980440974236
736.0,0.0,0.0,0.0,0.0,0.0,0.0,0.005146887619048357,0.031783487647771835,0.031783998012542725,0.9980828166007996,-0.042395152151584625,-0.04232008010149002,-0.015585377812385559
737.0,0.0,0.0,0.0,0.0,0.0,0.0,0.007499059196561575,0.028305022045969963,0.03099755384027958,0.9980453252792358,-0.04332771897315979,-0.0426752083003521,-0.014402349479496479
738.0,0.0,0.0,0.0,0.0,0.0,0.0,0.009365702979266644,0.025680189952254295,0.025919953361153603,0.9980214238166809,-0.04356304556131363,-0.043331269174814224,-0.013327222317457199
739.0,0.0,0.0,0.0,0.0,0.0,0.0,0.010831780731678009,0.0257047601044178,0.028865648433566093,0.9979957938194275,-0.043534137308597565,-0.04394340142607689,-0.013337147422134876
740.0,0.0,0.0,0.0,0.0,0.0,0.0,0.013143825344741344,0.027301305904984474,0.028890307992696762,0.9979821443557739,-0.04391010105609894,-0.043671704828739166,-0.014028332196176052
741.0,0.0,0.0,0.0,0.0,0.0,0.0,0.015318844467401505,0.02250746078789234,0.014767639338970184,0.9980032444000244,-0.04385491833090782,-0.04310324043035507,-0.014450255781412125
742.0,0.0,0.0,0.0,0.0,0.0,0.0,0.017315592616796494,0.02151515521109104,-0.0019354906398802996,0.9980044960975647,-0.04381866008043289,-0.042962055653333664,-0.014894470572471619
743.0,0.0,0.0,0.0,0.0,0.0,0.0,0.013959698379039764,0.02055981196463108,0.0006951596587896347,0.9980000257492065,-0.04371726140379906,-0.04295104369521141,-0.015522644855082035
744.0,0.0,0.0,0.0,0.0,0.0,0.0,0.014371129684150219,0.02024434134364128,-0.001166782807558775,0.9979960322380066,-0.04363000765442848,-0.04292755201458931,-0.016072090715169907
745.0,0.0,0.0,0.0,0.0,0.0,0.0,0.014067508280277252,0.013946682214736938,-0.0027666150126606226,0.9979676604270935,-0.043398868292570114,-0.043565019965171814,-0.01672653667628765
746.0,0.0,0.0,0.0,0.0,0.0,0.0,0.014223841018974781,0.009237905032932758,-0.006534346379339695,0.9979389905929565,-0.04285192862153053,-0.04448384419083595,-0.017404038459062576
747.0,0.0,0.0,0.0,0.0,0.0,0.0,0.009003302082419395,0.008391864597797394,0.0006324260029941797,0.9978872537612915,-0.04223817214369774,-0.045899178832769394,-0.018200425431132317
748.0,0.0,0.0,0.0,0.0,0.0,0.0,0.005843927152454853,0.0047295186668634415,0.004347091540694237,0.9978164434432983,-0.041487306356430054,-0.04765060544013977,-0.019256021827459335
749.0,0.0,0.0,0.0,0.0,0.0,0.0,0.006120225414633751,0.002455592155456543,0.0005530507769435644,0.9977653622627258,-0.0408632792532444,-0.04898326098918915,-0.01988077722489834
750.0,0.0,0.0,0.0,0.0,0.0,0.0,0.003916928078979254,-0.00022094963060226291,-0.0020667826756834984,0.9976997375488281,-0.04121652990579605,-0.05004901811480522,-0.019803721457719803
751.0,0.0,0.0,0.0,0.0,0.0,0.0,0.006322567351162434,0.003257917705923319,-0.004503076896071434,0.9976661801338196,-0.0420532263815403,-0.050258342176675797,-0.019201865419745445
752.0,0.0,0.0,0.0,0.0,0.0,0.0,0.011643354780972004,0.017469357699155807,-0.015434900298714638,0.9976750016212463,-0.04281031712889671,-0.04940030723810196,-0.019275981932878494
753.0,0.0,0.0,0.0,0.0,0.0,0.0,0.04007503390312195,0.050388652831315994,-0.0650486946105957,0.9977537393569946,-0.04249779134988785,-0.04798661544919014,-0.01947869174182415
754.0,0.0,0.0,0.0,0.0,0.0,0.0,0.05987127870321274,0.1060769185423851,-0.10388139635324478,0.9977779984474182,-0.041504621505737305,-0.04702863469719887,-0.02245626598596573
755.0,0.0,0.0,0.0,0.0,0.0,0.0,-0.022206490859389305,0.004178191069513559,0.03488789498806,0.997704803943634,-0.0427166223526001,-0.043490905314683914,-0.029470868408679962
756.0,0.0,0.0,0.0,0.0,0.0,0.0,-0.04637625068426132,-0.010682321153581142,0.06167062371969223,0.9976188540458679,-0.04334346950054169,-0.04013551026582718,-0.03560442104935646
757.0,0.0,0.0,0.0,0.0,0.0,0.0,-0.03091445565223694,-0.03407527878880501,0.05057963356375694,0.9975354075431824,-0.04330722242593765,-0.038350772112607956,-0.039709530770778656
758.0,0.0,0.0,0.0,0.0,0.0,0.0,-0.013762754388153553,-0.07690490037202835,0.010297443717718124,0.9974620938301086,-0.04373277351260185,-0.03735047206282616,-0.04198010638356209
759.0,0.0,0.0,0.0,0.0,0.0,0.0,-0.008030915632843971,-0.03229186311364174,0.016259880736470222,0.9974973797798157,-0.043163955211639404,-0.0363658107817173,-0.042584553360939026
760.0,0.0,0.0,0.0,0.0,0.0,0.0,-0.010755852796137333,-0.023025095462799072,0.04817066341638565,0.9975566267967224,-0.04297167807817459,-0.035792749375104904,-0.041877031326293945
761.0,0.0,0.0,0.0,0.0,0.0,0.0,-0.018268156796693802,-0.036468081176280975,0.05698893591761589,0.9976652264595032,-0.0426897294819355,-0.03473104164004326,-0.040440116077661514
762.0,0.0,0.0,0.0,0.0,0.0,0.0,-0.018405351787805557,-0.0328880250453949,0.04478450119495392,0.9977793097496033,-0.042112939059734344,-0.034306593239307404,-0.038556333631277084
763.0,0.0,0.0,0.0,0.0,0.0,0.0,0.010281101800501347,0.02002873830497265,0.004936559591442347,0.9979437589645386,-0.04077182710170746,-0.03455057740211487,-0.03539673984050751
764.0,0.0,0.0,0.0,0.0,0.0,0.0,-0.001048211008310318,-0.019358690828084946,0.014935432933270931,0.998062014579773,-0.04029066488146782,-0.03427478298544884,-0.032785963267087936
765.0,0.0,0.0,0.0,0.0,0.0,0.0,-0.002427221741527319,-0.014599106274545193,0.011001923121511936,0.9980915784835815,-0.039693400263786316,-0.03550141677260399,-0.031262632459402084
766.0,0.0,0.0,0.0,0.0,0.0,0.0,0.0018121727043762803,-0.006708149798214436,-0.005830983631312847,0.9981368780136108,-0.03880986571311951,-0.03677636384963989,-0.029400279745459557
767.0,0.0,0.0,0.0,0.0,0.0,0.0,-0.0039436970837414265,-0.012654991820454597,0.0054744454100728035,0.9981695413589478,-0.03833422437310219,-0.03730300813913345,-0.028227360919117928
768.0,0.0,0.0,0.0,0.0,0.0,0.0,-0.007647991646081209,-0.029010439291596413,0.008398992009460926,0.9982240796089172,-0.0378289669752121,-0.03706580027937889,-0.02727433107793331
769.0,0.0,0.0,0.0,0.0,0.0,0.0,-0.008395491167902946,-0.03673206642270088,-0.00973170343786478,0.9982749819755554,-0.03722018748521805,-0.03712359443306923,-0.026149781420826912
770.0,0.0,0.0,0.0,0.0,0.0,0.0,0.008615443482995033,-0.011155592277646065,-0.02451271004974842,0.9983418583869934,-0.035851724445819855,-0.03728139400482178,-0.025267187505960464
771.0,0.0,0.0,0.0,0.0,0.0,0.0,0.006133077200502157,-0.02139376662671566,-0.03176027536392212,0.9983968734741211,-0.03485920652747154,-0.03668820858001709,-0.02535284124314785
772.0,0.0,0.0,0.0,0.0,0.0,0.0,0.0052481465972959995,-0.024498606100678444,-0.017823314294219017,0.9983972311019897,-0.03415242210030556,-0.03693127632141113,-0.02594604715704918
773.0,0.0,0.0,0.0,0.0,0.0,0.0,0.010550986975431442,-0.0180648323148489,-0.008045509457588196,0.9984228014945984,-0.032956842333078384,-0.03700917586684227,-0.026390084996819496
774.0,0.0,0.0,0.0,0.0,0.0,0.0,0.01120644249022007,-0.016938501968979836,-0.01683383621275425,0.9984085559844971,-0.032139018177986145,-0.037254102528095245,-0.027565985918045044
775.0,0.0,0.0,0.0,0.0,0.0,0.0,0.0012050046352669597,-0.02709144540131092,0.017975984141230583,0.9983937740325928,-0.03089377097785473,-0.03797171637415886,-0.028529983013868332
776.0,0.0,0.0,0.0,0.0,0.0,0.0,0.026857344433665276,0.000646097760181874,-0.005384450778365135,0.998437762260437,-0.027535682544112206,-0.03864901512861252,-0.02949843928217888
777.0,0.0,0.0,0.0,0.0,0.0,0.0,0.015775755047798157,-0.015082570724189281,-0.01874392107129097,0.9984431266784668,-0.025764603167772293,-0.03900032490491867,-0.030455613508820534
778.0,0.0,0.0,0.0,0.0,0.0,0.0,0.011967460624873638,-0.01918669231235981,0.004806400742381811,0.9983823299407959,-0.025878528133034706,-0.04008667916059494,-0.030929988250136375
779.0,0.0,0.0,0.0,0.0,0.0,0.0,0.02025654911994934,0.007480061613023281,-0.002985819475725293,0.9983160495758057,-0.025328505784273148,-0.041747577488422394,-0.031325358897447586
780.0,0.0,0.0,0.0,0.0,0.0,0.0,0.006707139313220978,-0.012017954140901566,0.01884695701301098,0.9983238577842712,-0.025154154747724533,-0.042045414447784424,-0.030812866985797882
781.0,0.0,0.0,0.0,0.0,0.0,0.0,0.005923504941165447,-0.013571133837103844,0.019067304208874702,0.9983178973197937,-0.02533043920993805,-0.042578112334012985,-0.030127186328172684
782.0,0.0,0.0,0.0,0.0,0.0,0.0,0.018582148477435112,0.004998514894396067,-0.0063240258023142815,0.9982651472091675,-0.025041364133358,-0.044251374900341034,-0.029697569087147713
783.0,0.0,0.0,0.0,0.0,0.0,0.0,0.015983425080776215,0.015935847535729408,-0.011640099808573723,0.9982760548591614,-0.024197863414883614,-0.04536246135830879,-0.028329117223620415
784.0,0.0,0.0,0.0,0.0,0.0,0.0,0.011827890761196613,0.0026882002130150795,0.0020500714890658855,0.9982499480247498,-0.024039961397647858,-0.04669395834207535,-0.027192406356334686
785.0,0.0,0.0,0.0,0.0,0.0,0.0,0.008288300596177578,0.0061818198300898075,0.004087451379746199,0.9981844425201416,-0.024013705551624298,-0.04834713414311409,-0.02673519402742386
786.0,0.0,0.0,0.0,0.0,0.0,0.0,0.009276479482650757,0.011558761820197105,0.0038602694403380156,0.9981025457382202,-0.02341313473880291,-0.050064802169799805,-0.027155354619026184
787.0,0.0,0.0,0.0,0.0,0.0,0.0,-0.0040814937092363834,-0.00592951150611043,0.026027852669358253,0.9980727434158325,-0.023572426289319992,-0.0504850409924984,-0.02733180671930313
788.0,0.0,0.0,0.0,0.0,0.0,0.0,-1.5075195733516011e-05,0.0014164154417812824,0.017833027988672256,0.9980376362800598,-0.023744478821754456,-0.051540352404117584,-0.026496103033423424
789.0,0.0,0.0,0.0,0.0,0.0,0.0,0.005323594901710749,0.013370051980018616,0.006975534837692976,0.9979609847068787,-0.023608382791280746,-0.05297834053635597,-0.026649806648492813
790.0,0.0,0.0,0.0,0.0,0.0,0.0,0.0050961896777153015,0.02689424343407154,0.00659861508756876,0.9979221224784851,-0.023101994767785072,-0.05359918624162674,-0.02730688452720642
791.0,0.0,0.0,0.0,0.0,0.0,0.0,-0.0032924499828368425,0.008284962736070156,0.014192028902471066,0.9979180693626404,-0.022612417116761208,-0.054135508835315704,-0.02679559960961342
792.0,0.0,0.0,0.0,0.0,0.0,0.0,-0.0013124686665832996,-0.0014198134886100888,0.005795919336378574,0.997908890247345,-0.022628070786595345,-0.054050154983997345,-0.027293439954519272
793.0,0.0,0.0,0.0,0.0,0.0,0.0,0.0020465923007577658,0.012986990623176098,-0.011509261094033718,0.9978907108306885,-0.02263866737484932,-0.05401047319173813,-0.028006667271256447
794.0,0.0,0.0,0.0,0.0,0.0,0.0,-9.362463606521487e-05,0.01585065759718418,-0.006300042383372784,0.9978874325752258,-0.022620124742388725,-0.0542791448533535,-0.027626508846879005
795.0,0.0,0.0,0.0,0.0,0.0,0.0,-0.006674880161881447,0.014766935259103775,-0.010343094356358051,0.9978705048561096,-0.02280171774327755,-0.05453212186694145,-0.027590980753302574
796.0,0.0,0.0,0.0,0.0,0.0,0.0,-0.009180043824017048,0.009921126067638397,-0.0087309954687953,0.9978640079498291,-0.022470172494649887,-0.055000804364681244,-0.027165083214640617
797.0,0.0,0.0,0.0,0.0,0.0,0.0,-0.007847855798900127,0.012560253962874413,-0.01946457289159298,0.9978456497192383,-0.021948032081127167,-0.05595066025853157,-0.02631964534521103
798.0,0.0,0.0,0.0,0.0,0.0,0.0,-0.010761873796582222,0.018312640488147736,-0.021735312417149544,0.9978343844413757,-0.02194642834365368,-0.05624115467071533,-0.026113005355000496
799.0,0.0,0.0,0.0,0.0,0.0,0.0,-0.016640275716781616,0.013156967237591743,0.002540749032050371,0.997833251953125,-0.02224927954375744,-0.056248266249895096,-0.025888653472065926
800.0,0.0,0.0,0.0,0.0,0.0,0.0,-0.01940169371664524,0.005530507303774357,0.016557462513446808,0.9978746175765991,-0.022656556218862534,-0.05560280382633209,-0.025338323786854744
801.0,0.0,0.0,0.0,0.0,0.0,0.0,-0.012983920983970165,0.00965102482587099,0.012781473807990551,0.9979457259178162,-0.022646255791187286,-0.054886385798454285,-0.024066776037216187
802.0,0.0,0.0,0.0,0.0,0.0,0.0,-0.000613885116763413,0.020097339525818825,-0.020405881106853485,0.9979479312896729,-0.02248568832874298,-0.05511312186717987,-0.023607343435287476
803.0,0.0,0.0,0.0,0.0,0.0,0.0,0.0011249891249462962,0.010341973043978214,-0.019636033102869987,0.9979144930839539,-0.02322615683078766,-0.054950159043073654,-0.02466280572116375
804.0,0.0,0.0,0.0,0.0,0.0,0.0,0.0022466727532446384,0.00829221960157156,-0.015002411790192127,0.9978985786437988,-0.024281414225697517,-0.0542021282017231,-0.025899522006511688
805.0,0.0,0.0,0.0,0.0,0.0,0.0,0.005241882987320423,0.0031260980758816004,-0.015769723802804947,0.9978572726249695,-0.025568775832653046,-0.053792692720890045,-0.027082577347755432
806.0,0.0,0.0,0.0,0.0,0.0,0.0,0.006142871920019388,-0.001074114814400673,-0.003004886209964752,0.9978170394897461,-0.026789750903844833,-0.05345192179083824,-0.02804851531982422
807.0,0.0,0.0,0.0,0.0,0.0,0.0,0.013445566408336163,-0.00622947420924902,-0.023176591843366623,0.9977458715438843,-0.028106573969125748,-0.0535128153860569,-0.029148181900382042
808.0,0.0,0.0,0.0,0.0,0.0,0.0,0.011573501862585545,-0.019078262150287628,-0.011693169362843037,0.9976122379302979,-0.03069024719297886,-0.053582631051540375,-0.030946725979447365
809.0,0.0,0.0,0.0,0.0,0.0,0.0,0.009532773867249489,-0.003644912503659725,-0.0003832905204035342,0.9974640011787415,-0.03326188400387764,-0.053596414625644684,-0.03296883404254913
810.0,0.0,0.0,0.0,0.0,0.0,0.0,0.010588199831545353,-0.005517812445759773,0.0034136089961975813,0.9973707795143127,-0.03504856675863266,-0.0536356046795845,-0.033859092742204666
811.0,0.0,0.0,0.0,0.0,0.0,0.0,0.003073277184739709,-0.015655314549803734,0.02201651595532894,0.9973019361495972,-0.03655124828219414,-0.05353971943259239,-0.03444914147257805
812.0,0.0,0.0,0.0,0.0,0.0,0.0,0.006789356470108032,-2.062337262032088e-05,0.023151347413659096,0.9972566366195679,-0.037252236157655716,-0.05319727957248688,-0.035525012761354446
813.0,0.0,0.0,0.0,0.0,0.0,0.0,0.012434937991201878,0.006567677482962608,0.0105239013209939,0.9972249269485474,-0.03688744828104973,-0.052984569221735,-0.03707319498062134
814.0,0.0,0.0,0.0,0.0,0.0,0.0,0.011586884036660194,-0.004699773620814085,0.0053022620268166065,0.9972192645072937,-0.03638940677046776,-0.05238997936248779,-0.0385342538356781
815.0,0.0,0.0,0.0,0.0,0.0,0.0,0.012379530817270279,-0.008017566055059433,-0.002935787197202444,0.9972591400146484,-0.03574211895465851,-0.05124767869710922,-0.03963571414351463
816.0,0.0,0.0,0.0,0.0,0.0,0.0,0.009740128181874752,-0.01640462875366211,-0.000948181957937777,0.9972845315933228,-0.03541215881705284,-0.05040774494409561,-0.04035361483693123
817.0,0.0,0.0,0.0,0.0,0.0,0.0,0.010373104363679886,-0.01152899581938982,-0.008647757582366467,0.9973373413085938,-0.03516343981027603,-0.04927005246281624,-0.040678203105926514
818.0,0.0,0.0,0.0,0.0,0.0,0.0,0.011479669250547886,-0.004421162884682417,-0.007911772467195988,0.9974492192268372,-0.03442526236176491,-0.04770934209227562,-0.04042157530784607
819.0,0.0,0.0,0.0,0.0,0.0,0.0,0.008206238970160484,-0.005401717033237219,-0.003039394738152623,0.9976087212562561,-0.033328525722026825,-0.046148914843797684,-0.039195578545331955
820.0,0.0,0.0,0.0,0.0,0.0,0.0,0.0062271226197481155,-0.006307114381343126,-0.0011857323115691543,0.9977681040763855,-0.03235675022006035,-0.043891794979572296,-0.038547974079847336
821.0,0.0,0.0,0.0,0.0,0.0,0.0,0.006427842658013105,-0.006593608297407627,0.0002344181848457083,0.9979053735733032,-0.03144368901848793,-0.04157667234539986,-0.03831559047102928
822.0,0.0,0.0,0.0,0.0,0.0,0.0,0.006605810951441526,-0.0041604735888540745,-0.0043306173756718636,0.9980134963989258,-0.03081609308719635,-0.03988016024231911,-0.0378093384206295
823.0,0.0,0.0,0.0,0.0,0.0,0.0,0.006830285768955946,-0.0010433387942612171,-0.005988286808133125,0.9981410503387451,-0.02977682091295719,-0.03863959386944771,-0.036535993218421936
824.0,0.0,0.0,0.0,0.0,0.0,0.0,-0.0004460236232262105,0.0024801925756037235,0.0015942478785291314,0.9983029961585999,-0.02864149957895279,-0.036674100905656815,-0.0350164994597435
825.0,0.0,0.0,0.0,0.0,0.0,0.0,-0.005368937272578478,0.0036773926112800837,0.00657639792189002,0.9984553456306458,-0.027752697467803955,-0.0346992202103138,-0.03336668759584427
826.0,0.0,0.0,0.0,0.0,0.0,0.0,-0.009538006968796253,0.0060556004755198956,0.0026211817748844624,0.9986292123794556,-0.02668815664947033,-0.03243362158536911,-0.031240735203027725
827.0,0.0,0.0,0.0,0.0,0.0,0.0,-0.016621427610516548,0.00725187174975872,0.007808939553797245,0.9988300800323486,-0.025091120973229408,-0.03032834827899933,-0.02809823863208294
828.0,0.0,0.0,0.0,0.0,0.0,0.0,-0.017488354817032814,0.012429162859916687,-0.008470254950225353,0.9990085959434509,-0.023490646854043007,-0.027953969314694405,-0.02548600360751152
829.0,0.0,0.0,0.0,0.0,0.0,0.0,-0.018622122704982758,0.012437657453119755,-0.016422854736447334,0.9991519451141357,-0.02163904905319214,-0.02577519416809082,-0.02373492158949375
830.0,0.0,0.0,0.0,0.0,0.0,0.0,-0.016458366066217422,0.009032350964844227,-0.02135029062628746,0.999286413192749,-0.020411936566233635,-0.023358477279543877,-0.021547891199588776
831.0,0.0,0.0,0.0,0.0,0.0,0.0,-0.015038125216960907,0.012720515951514244,-0.014587482437491417,0.9993753433227539,-0.019405946135520935,-0.021497730165719986,-0.020270949229598045
832.0,0.0,0.0,0.0,0.0,0.0,0.0,-0.010763545520603657,0.019508594647049904,-0.006526355631649494,0.9994526505470276,-0.017979051917791367,-0.020439479500055313,-0.018800728023052216
833.0,0.0,0.0,0.0,0.0,0.0,0.0,-0.0028976534958928823,0.017024053260684013,-0.014519207179546356,0.9995104670524597,-0.01643812470138073,-0.020436882972717285,-0.01706944778561592
834.0,0.0,0.0,0.0,0.0,0.0,0.0,0.0018404811853542924,0.02180442214012146,-0.004355373326689005,0.9995225071907043,-0.015457487665116787,-0.021385522559285164,-0.016081100329756737
835.0,0.0,0.0,0.0,0.0,0.0,0.0,-0.0006389654008671641,0.018823714926838875,0.03605744242668152,0.9995295405387878,-0.014794118702411652,-0.022611103951931,-0.014530465938150883
836.0,0.0,0.0,0.0,0.0,0.0,0.0,-0.0011571053182706237,0.025325000286102295,0.04951385408639908,0.9995275139808655,-0.014337372966110706,-0.023909123614430428,-0.012967240996658802
837.0,0.0,0.0,0.0,0.0,0.0,0.0,0.0007824916974641383,0.017295563593506813,0.04652846232056618,0.9995248913764954,-0.014231782406568527,-0.02459128201007843,-0.011963814496994019
838.0,0.0,0.0,0.0,0.0,0.0,0.0,0.005822453182190657,0.016477070748806,0.046600256115198135,0.9995312690734863,-0.013922592625021935,-0.024486340582370758,-0.012005696073174477
839.0,0.0,0.0,0.0,0.0,0.0,0.0,0.014498594217002392,0.015525405295193195,0.024382399395108223,0.9995420575141907,-0.012702862732112408,-0.024610264226794243,-0.012236016802489758
840.0,0.0,0.0,0.0,0.0,0.0,0.0,0.02175753191113472,0.01155934389680624,-0.0014086721930652857,0.999534547328949,-0.011007491499185562,-0.02540779858827591,-0.01282917894423008
841.0,0.0,0.0,0.0,0.0,0.0,0.0,0.016568921506404877,-0.0032572776544839144,-0.0072406018152832985,0.9995095729827881,-0.01043397095054388,-0.02593494951725006,-0.014116676524281502
842.0,0.0,0.0,0.0,0.0,0.0,0.0,0.01019959058612585,-0.013507617637515068,-0.0007641019183211029,0.9994797110557556,-0.010179990902543068,-0.026216279715299606,-0.015823684632778168
843.0,0.0,0.0,0.0,0.0,0.0,0.0,0.003407117212191224,-0.020794762298464775,0.005668533965945244,0.9994242787361145,-0.009993690066039562,-0.026493679732084274,-0.01870548725128174
844.0,0.0,0.0,0.0,0.0,0.0,0.0,0.003430767450481653,-0.02507941983640194,-9.292014146922156e-05,0.9993430972099304,-0.009946844540536404,-0.027529742568731308,-0.021375317126512527
845.0,0.0,0.0,0.0,0.0,0.0,0.0,0.0010195114882662892,-0.031991347670555115,0.0017528091557323933,0.9992476105690002,-0.01005830429494381,-0.028963809832930565,-0.02376832254230976
846.0,0.0,0.0,0.0,0.0,0.0,0.0,0.0007297508418560028,-0.03283069655299187,0.002947205677628517,0.9991371631622314,-0.009714438579976559,-0.030622178688645363,-0.026342302560806274
847.0,0.0,0.0,0.0,0.0,0.0,0.0,-0.0003131428675260395,-0.030310511589050293,-0.0005841946694999933,0.9990327954292297,-0.009433876723051071,-0.031498268246650696,-0.029212605208158493
848.0,0.0,0.0,0.0,0.0,0.0,0.0,-0.00044426476233638823,-0.026057105511426926,-0.004768074490129948,0.9989150166511536,-0.009806028567254543,-0.03263608738780022,-0.03174389526247978
849.0,0.0,0.0,0.0,0.0,0.0,0.0,0.001628063153475523,-0.024882573634386063,-0.006269277073442936,0.9987866282463074,-0.009967178106307983,-0.034345608204603195,-0.03385547176003456
850.0,0.0,0.0,0.0,0.0,0.0,0.0,0.0033348160795867443,-0.012529161758720875,-0.01121311355382204,0.9986485242843628,-0.009865534491837025,-0.03639063611626625,-0.03577529266476631
851.0,0.0,0.0,0.0,0.0,0.0,0.0,0.007386587094515562,-0.005120111163705587,-0.018124939873814583,0.9984650015830994,-0.009922266006469727,-0.038924090564250946,-0.03814345598220825
852.0,0.0,0.0,0.0,0.0,0.0,0.0,0.009498437866568565,-0.008249999955296516,-0.015798550099134445,0.9982783198356628,-0.009983880445361137,-0.04147975146770477,-0.04025771841406822
853.0,0.0,0.0,0.0,0.0,0.0,0.0,0.008409503847360611,-0.004715147893875837,-0.003905452322214842,0.9981130957603455,-0.010271554812788963,-0.04327505826950073,-0.04233478382229805
854.0,0.0,0.0,0.0,0.0,0.0,0.0,0.007583111058920622,0.006921670865267515,0.008078444749116898,0.9979415535926819,-0.01053073350340128,-0.04550175368785858,-0.04395751655101776
855.0,0.0,0.0,0.0,0.0,0.0,0.0,0.009857282042503357,0.007691154256463051,0.008447818458080292,0.9977968335151672,-0.010466011241078377,-0.04850181192159653,-0.044044751673936844
856.0,0.0,0.0,0.0,0.0,0.0,0.0,0.00855979323387146,0.0036251822020858526,0.008393306285142899,0.997663140296936,-0.010577509179711342,-0.05171140283346176,-0.0433945506811142
857.0,0.0,0.0,0.0,0.0,0.0,0.0,0.006313895341008902,0.007347892038524151,0.01957436464726925,0.9975419044494629,-0.011181029491126537,-0.05436726659536362,-0.04277753457427025
858.0,0.0,0.0,0.0,0.0,0.0,0.0,0.0014396816259250045,-0.0005665877251885831,0.026266878470778465,0.9974560141563416,-0.012196793220937252,-0.05607505887746811,-0.04228580370545387
859.0,0.0,0.0,0.0,0.0,0.0,0.0,-0.004491810686886311,-0.014165840111672878,0.014783689752221107,0.9974087476730347,-0.013184303417801857,-0.05731060355901718,-0.04145057499408722
860.0,0.0,0.0,0.0,0.0,0.0,0.0,-0.007470428012311459,-0.02700718864798546,0.010557875968515873,0.997458279132843,-0.014706498011946678,-0.056961335241794586,-0.04020822048187256
861.0,0.0,0.0,0.0,0.0,0.0,0.0,-0.009961170144379139,-0.029003538191318512,0.007878595031797886,0.9975221753120422,-0.016341213136911392,-0.0561683252453804,-0.03909501060843468
862.0,0.0,0.0,0.0,0.0,0.0,0.0,-0.008468542248010635,-0.02729048766195774,0.008004389703273773,0.9976088404655457,-0.01716892421245575,-0.05490323528647423,-0.038325682282447815
863.0,0.0,0.0,0.0,0.0,0.0,0.0,-0.007217549253255129,-0.023719409480690956,-0.0015375204384326935,0.9977403283119202,-0.017401203513145447,-0.0527212880551815,-0.03785137087106705
864.0,0.0,0.0,0.0,0.0,0.0,0.0,-0.007606188766658306,-0.02437952160835266,-0.005410649348050356,0.9979341626167297,-0.017657291144132614,-0.04960506036877632,-0.03682233393192291
865.0,0.0,0.0,0.0,0.0,0.0,0.0,-0.0002268294192617759,-0.02181454934179783,-0.012959086336195469,0.9981397986412048,-0.0180580522865057,-0.04578586667776108,-0.035982370376586914
866.0,0.0,0.0,0.0,0.0,0.0,0.0,0.008844688534736633,-0.014315281994640827,-0.025428690016269684,0.9983424544334412,-0.01920650526881218,-0.04205374792218208,-0.03428174927830696
867.0,0.0,0.0,0.0,0.0,0.0,0.0,0.00896246638149023,-0.0011314008152112365,-0.015249475836753845,0.9985405206680298,-0.02042245864868164,-0.038114044815301895,-0.03236084058880806
868.0,0.0,0.0,0.0,0.0,0.0,0.0,0.013579398393630981,0.011121207848191261,-0.026288550347089767,0.9986929297447205,-0.021276161074638367,-0.03498000279068947,-0.030608538538217545
869.0,0.0,0.0,0.0,0.0,0.0,0.0,0.019965557381510735,0.024321969598531723,-0.028491424396634102,0.9987881183624268,-0.022419696673750877,-0.03285730257630348,-0.028985973447561264
870.0,0.0,0.0,0.0,0.0,0.0,0.0,0.023214301094412804,0.03690386191010475,-0.004582338035106659,0.9988259673118591,-0.02285190485417843,-0.03220652416348457,-0.02806774526834488
871.0,0.0,0.0,0.0,0.0,0.0,0.0,0.021147551015019417,0.02959331125020981,-0.010373310185968876,0.9988635182380676,-0.02195962704718113,-0.032519321888685226,-0.027060914784669876
872.0,0.0,0.0,0.0,0.0,0.0,0.0,0.013149343430995941,0.03661833703517914,0.012455746531486511,0.9989013671875,-0.0201676357537508,-0.03322707116603851,-0.02618362568318844
873.0,0.0,0.0,0.0,0.0,0.0,0.0,-0.0021222135983407497,0.047218237072229385,0.0499478280544281,0.9989490509033203,-0.016821250319480896,-0.03358471021056175,-0.0262752678245306
874.0,0.0,0.0,0.0,0.0,0.0,0.0,0.00015694457397330552,0.03787199780344963,0.02585192210972309,0.9990573525428772,-0.013038410805165768,-0.03172517567873001,-0.026625484228134155
875.0,0.0,0.0,0.0,0.0,0.0,0.0,0.008158520795404911,0.02942386083304882,-0.0045915753580629826,0.9991932511329651,-0.009942843578755856,-0.028821004554629326,-0.026152048259973526
876.0,0.0,0.0,0.0,0.0,0.0,0.0,-0.0008435906493104994,0.035457342863082886,0.002545920666307211,0.9993062615394592,-0.006774821784347296,-0.026220932602882385,-0.02557915821671486
877.0,0.0,0.0,0.0,0.0,0.0,0.0,-0.00016239864635281265,0.02872447296977043,-0.016682973131537437,0.9994029998779297,-0.003423594171181321,-0.02470369078218937,-0.023929961025714874
