,Position_X,Position_Y,Position_Z,Velocity_X,Velocity_Y,Velocity_Z,Acceleration_X,Acceleration_Y,Acceleration_Z,Quaterion_0,Quaterion_1,Quaterion_2,Quaterion_3
207.0,0.0,0.0,0.0,0.0,0.0,0.0,0.006484314799308777,-0.001969299279153347,-0.00915559008717537,1.0,9.75781955236954e-18,-2.6020852139652106e-18,3.469446951953614e-17
208.0,0.0,0.0,0.0,0.0,0.0,0.0,0.02132076770067215,-0.023482706397771835,-0.024111488834023476,0.9999995827674866,-0.0008545636665076017,9.46460640989244e-05,0.00026809083647094667
209.0,0.0,0.0,0.0,0.0,0.0,0.0,0.01849161647260189,-0.011612498201429844,-0.01420062966644764,0.9999988079071045,-0.0015336060896515846,0.00028366633341647685,-4.741964949062094e-05
210.0,0.0,0.0,0.0,0.0,0.0,0.0,0.011763779446482658,-0.01087239384651184,0.0024356066714972258,0.9999972581863403,-0.002200372749939561,0.0005071665509603918,-0.0005765918176621199
211.0,0.0,0.0,0.0,0.0,0.0,0.0,0.004273231141269207,-3.3510123103042133e-06,0.0034311015624552965,0.999996542930603,-0.0025490561965852976,-0.0003168586117681116,-0.0005556392716243863
212.0,0.0,0.0,0.0,0.0,0.0,0.0,-0.002288722898811102,0.006205153651535511,0.0192768145352602,0.9999960660934448,-0.0027113757096230984,-0.0006803746800869703,-0.0003335662477184087
213.0,0.0,0.0,0.0,0.0,0.0,0.0,-0.004598140250891447,0.010148635134100914,0.015395468100905418,0.9999960660934448,-0.002761887153610587,-0.00042527998448349535,5.7970217312686145e-05
214.0,0.0,0.0,0.0,0.0,0.0,0.0,-0.0019910638220608234,0.017847180366516113,0.01588449627161026,0.9999958872795105,-0.0027909514028578997,-0.00017819961067289114,0.0006685355328954756
215.0,0.0,0.0,0.0,0.0,0.0,0.0,0.004992921371012926,0.02170250192284584,0.007843599654734135,0.9999961853027344,-0.002501349663361907,0.0009136691223829985,0.0007676362292841077
216.0,0.0,0.0,0.0,0.0,0.0,0.0,0.009700378403067589,0.020224491134285927,-0.0031465322244912386,0.9999973177909851,-0.001695897663012147,0.0009717983193695545,0.0012334282509982586
217.0,0.0,0.0,0.0,0.0,0.0,0.0,0.013152417726814747,0.014407451264560223,-0.011042238213121891,0.9999972581863403,-0.001152094453573227,0.000988856889307499,0.0017736440058797598
218.0,0.0,0.0,0.0,0.0,0.0,0.0,0.01811494119465351,0.009722663089632988,-0.014891260303556919,0.9999970197677612,-0.0009529031813144684,0.0009350915206596255,0.0020543888676911592
219.0,0.0,0.0,0.0,0.0,0.0,0.0,0.010484274476766586,0.016871647909283638,-0.005892985966056585,0.9999964833259583,-0.0006750274333171546,-8.349522977368906e-05,0.0025626036804169416
220.0,0.0,0.0,0.0,0.0,0.0,0.0,0.0015247320989146829,0.02570769377052784,0.008587907068431377,0.9999921917915344,-0.0004081936494912952,-0.0016368540236726403,0.003573786932975054
221.0,0.0,0.0,0.0,0.0,0.0,0.0,-0.006521869916468859,0.027266714721918106,0.013916442170739174,0.9999833703041077,-0.00016912123828660697,-0.0029576504603028297,0.004947538487613201
222.0,0.0,0.0,0.0,0.0,0.0,0.0,-0.010036049410700798,0.023752164095640182,0.014009383507072926,0.9999709725379944,-0.00013384719204623252,-0.004632457159459591,0.0060503208078444
223.0,0.0,0.0,0.0,0.0,0.0,0.0,-0.012508668005466461,0.01893250085413456,0.013579897582530975,0.9999608397483826,-0.0004876407328993082,-0.0061253514140844345,0.006369674112647772
224.0,0.0,0.0,0.0,0.0,0.0,0.0,-0.013700748793780804,0.017306454479694366,0.0119164464995265,0.999954879283905,-0.001043515163473785,-0.006810104474425316,0.006542128976434469
225.0,0.0,0.0,0.0,0.0,0.0,0.0,-0.014706775546073914,0.013676224276423454,0.008118975907564163,0.9999449253082275,-0.0013117195339873433,-0.007523648906499147,0.007196038495749235
226.0,0.0,0.0,0.0,0.0,0.0,0.0,-0.012842822819948196,0.011866633780300617,0.003654565429314971,0.9999361634254456,-0.0013680540723726153,-0.007942675612866879,0.007919291965663433
227.0,0.0,0.0,0.0,0.0,0.0,0.0,-0.011153381317853928,0.011887849308550358,-0.003572253743186593,0.9999238848686218,-0.0015511478995904326,-0.008492154069244862,0.008814448490738869
228.0,0.0,0.0,0.0,0.0,0.0,0.0,-0.011054874397814274,0.011574439704418182,-0.008676021359860897,0.9999086856842041,-0.0015149416867643595,-0.009483188390731812,0.00950993038713932
229.0,0.0,0.0,0.0,0.0,0.0,0.0,-0.010894847102463245,0.018055696040391922,-0.009287524968385696,0.9998995065689087,-0.0014458468649536371,-0.009559938684105873,0.010365745052695274
230.0,0.0,0.0,0.0,0.0,0.0,0.0,-0.01074293814599514,0.025873105973005295,-0.01218858640640974,0.999883770942688,-0.0012773796916007996,-0.009991755709052086,0.011443288996815681
231.0,0.0,0.0,0.0,0.0,0.0,0.0,-0.009774606674909592,0.03567821905016899,-0.013962255790829659,0.9998753070831299,-0.0012233912711963058,-0.009719236753880978,0.012384777888655663
232.0,0.0,0.0,0.0,0.0,0.0,0.0,-0.004372041672468185,0.035392504185438156,-0.017226018011569977,0.9998852610588074,-0.00144912488758564,-0.008583924733102322,0.012397953309118748
233.0,0.0,0.0,0.0,0.0,0.0,0.0,0.0010244102450087667,0.03359890356659889,-0.01889505237340927,0.9998823404312134,-0.001402925350703299,-0.00816721934825182,0.012910214252769947
234.0,0.0,0.0,0.0,0.0,0.0,0.0,0.0013114509638398886,0.027570325881242752,-0.013844620436429977,0.9998526573181152,-0.0007836070726625621,-0.009553566575050354,0.01424203347414732
235.0,0.0,0.0,0.0,0.0,0.0,0.0,7.637683665961958e-06,0.021372580900788307,-0.007606630213558674,0.9998262524604797,-0.0007230205810628831,-0.010691936127841473,0.01525183953344822
236.0,0.0,0.0,0.0,0.0,0.0,0.0,-0.0016800443409010768,0.017586413770914078,-0.0027827564626932144,0.9998070001602173,-0.0012083053588867188,-0.011665647849440575,0.015761572867631912
237.0,0.0,0.0,0.0,0.0,0.0,0.0,-0.0022738873958587646,0.014354107901453972,0.0033288192935287952,0.9997846484184265,-0.001763567328453064,-0.012579348869621754,0.016409844160079956
238.0,0.0,0.0,0.0,0.0,0.0,0.0,-0.0005749777774326503,0.01650545559823513,0.013061773031949997,0.9997698664665222,-0.0025149432476609945,-0.012905795127153397,0.016952170059084892
239.0,0.0,0.0,0.0,0.0,0.0,0.0,-0.0008960074046626687,0.008253327570855618,0.017142904922366142,0.999773383140564,-0.0039108083583414555,-0.012385332025587559,0.01686854287981987
240.0,0.0,0.0,0.0,0.0,0.0,0.0,0.0012118546292185783,0.0011696135625243187,0.019260484725236893,0.9997856616973877,-0.005261886864900589,-0.01169061940163374,0.016257435083389282
241.0,0.0,0.0,0.0,0.0,0.0,0.0,0.0027862340211868286,-0.0036724270321428776,0.014833478257060051,0.9997664093971252,-0.005914395209401846,-0.012387974187731743,0.016694776713848114
242.0,0.0,0.0,0.0,0.0,0.0,0.0,0.0020734150893986225,-0.0050804042257368565,0.01187241543084383,0.9997386932373047,-0.006420445162802935,-0.013290170580148697,0.017459550872445107
243.0,0.0,0.0,0.0,0.0,0.0,0.0,0.0031959121115505695,-0.0025288586039096117,0.012944422662258148,0.9997429251670837,-0.0071912724524736404,-0.013008817099034786,0.017120907083153725
244.0,0.0,0.0,0.0,0.0,0.0,0.0,0.003406945150345564,-0.002366803353652358,0.0117054283618927,0.9997449517250061,-0.00749248219653964,-0.012688640505075455,0.017114123329520226
245.0,0.0,0.0,0.0,0.0,0.0,0.0,0.006594216451048851,0.000838724197819829,0.004008914809674025,0.9997255206108093,-0.007867453619837761,-0.012803994119167328,0.01797591708600521
246.0,0.0,0.0,0.0,0.0,0.0,0.0,0.023718545213341713,-0.015688367187976837,-0.02316482737660408,0.9997249841690063,-0.008708933368325233,-0.013030961155891418,0.017445234581828117
247.0,0.0,0.0,0.0,0.0,0.0,0.0,0.02220151573419571,-0.008365202695131302,-0.02582855522632599,0.9997050166130066,-0.01006531622260809,-0.013778846710920334,0.017283979803323746
248.0,0.0,0.0,0.0,0.0,0.0,0.0,0.01118103414773941,0.009075270965695381,-0.0018666142132133245,0.999673068523407,-0.01061779260635376,-0.015141107141971588,0.01765628345310688
249.0,0.0,0.0,0.0,0.0,0.0,0.0,-0.003096529748290777,0.02407754212617874,0.0027958217542618513,0.9996309280395508,-0.010397895239293575,-0.016947587952017784,0.01851246878504753
250.0,0.0,0.0,0.0,0.0,0.0,0.0,-0.01839793473482132,0.038281042128801346,0.02080228179693222,0.9995761513710022,-0.010160794481635094,-0.01873921789228916,0.019828228279948235
251.0,0.0,0.0,0.0,0.0,0.0,0.0,-0.025611456483602524,0.03846659138798714,0.023218058049678802,0.9995148777961731,-0.009734949097037315,-0.020773043856024742,0.02106667309999466
252.0,0.0,0.0,0.0,0.0,0.0,0.0,-0.021561479195952415,0.03642541542649269,0.0004521733499132097,0.9994774460792542,-0.010007343254983425,-0.021728970110416412,0.021738486364483833
253.0,0.0,0.0,0.0,0.0,0.0,0.0,-0.019574055448174477,0.03619397059082985,-0.005280727054923773,0.9994781017303467,-0.010288583114743233,-0.021429434418678284,0.02187507413327694
254.0,0.0,0.0,0.0,0.0,0.0,0.0,-0.017081549391150475,0.037219129502773285,-0.007753156591206789,0.9994827508926392,-0.010109718888998032,-0.021138995885849,0.022027017548680305
255.0,0.0,0.0,0.0,0.0,0.0,0.0,-0.01774231158196926,0.03788377344608307,-0.00890612043440342,0.9994590878486633,-0.009983272291719913,-0.02141510881483555,0.022878173738718033
256.0,0.0,0.0,0.0,0.0,0.0,0.0,-0.019850634038448334,0.03383876383304596,-0.007186950650066137,0.9994016289710999,-0.009794391691684723,-0.022652368992567062,0.024235093966126442
257.0,0.0,0.0,0.0,0.0,0.0,0.0,-0.018015749752521515,0.028285810723900795,-0.006533392239362001,0.999382495880127,-0.010296422988176346,-0.02306685596704483,0.024425754323601723
258.0,0.0,0.0,0.0,0.0,0.0,0.0,-0.02017243579030037,0.022203966975212097,-0.005755317863076925,0.9993719458580017,-0.010952296666800976,-0.023188216611742973,0.024457864463329315
259.0,0.0,0.0,0.0,0.0,0.0,0.0,-0.01989036612212658,0.024366948753595352,-0.005534191150218248,0.9993031024932861,-0.01114334724843502,-0.024621790274977684,0.02574864774942398
260.0,0.0,0.0,0.0,0.0,0.0,0.0,-0.022135524079203606,0.032186660915613174,0.002430462511256337,0.999268651008606,-0.011824985966086388,-0.025242749601602554,0.02617691084742546
261.0,0.0,0.0,0.0,0.0,0.0,0.0,-0.02862934023141861,0.02827182225883007,0.015633704140782356,0.9992316365242004,-0.012525388039648533,-0.025752611458301544,0.026759786531329155
262.0,0.0,0.0,0.0,0.0,0.0,0.0,-0.029327837750315666,0.028526734560728073,0.01950809173285961,0.9991492629051208,-0.01288196537643671,-0.026961801573634148,0.028425166383385658
263.0,0.0,0.0,0.0,0.0,0.0,0.0,-0.02881961688399315,0.025485916063189507,0.014996470883488655,0.9990772604942322,-0.013012995943427086,-0.02800692245364189,0.029849423095583916
264.0,0.0,0.0,0.0,0.0,0.0,0.0,-0.02733295038342476,0.022334499284625053,0.0029763178899884224,0.9990494847297668,-0.013368627987802029,-0.028234148398041725,0.03040030039846897
265.0,0.0,0.0,0.0,0.0,0.0,0.0,-0.026665296405553818,0.02380972169339657,0.0009438156266696751,0.9990542531013489,-0.01393467653542757,-0.027899611741304398,0.03029991127550602
266.0,0.0,0.0,0.0,0.0,0.0,0.0,-0.027257973328232765,0.02464287355542183,-0.002540821209549904,0.9989928007125854,-0.013832456432282925,-0.02875334955751896,0.031548842787742615
267.0,0.0,0.0,0.0,0.0,0.0,0.0,-0.0265561044216156,0.02553490549325943,-0.005220956169068813,0.9989773631095886,-0.01343833189457655,-0.028568724170327187,0.03236541152000427
268.0,0.0,0.0,0.0,0.0,0.0,0.0,-0.02399306744337082,0.025075778365135193,-0.008564967662096024,0.9989752769470215,-0.013402633368968964,-0.02816353179514408,0.03279807046055794
269.0,0.0,0.0,0.0,0.0,0.0,0.0,-0.023991795256733894,0.023437485098838806,-0.011495943181216717,0.9989487528800964,-0.013330665417015553,-0.028193717822432518,0.03359884396195412
270.0,0.0,0.0,0.0,0.0,0.0,0.0,-0.024202482774853706,0.024035563692450523,-0.010749975219368935,0.9989418387413025,-0.013262256979942322,-0.028142722323536873,0.03387175872921944
271.0,0.0,0.0,0.0,0.0,0.0,0.0,-0.02696848474442959,0.02665049023926258,-0.008305476047098637,0.9989248514175415,-0.012856646440923214,-0.027975648641586304,0.034660376608371735
272.0,0.0,0.0,0.0,0.0,0.0,0.0,-0.02450258657336235,0.02586504817008972,-0.004149765707552433,0.998924195766449,-0.0127515634521842,-0.027033168822526932,0.03545523062348366
273.0,0.0,0.0,0.0,0.0,0.0,0.0,-0.02195766381919384,0.02758181095123291,-0.0020334802102297544,0.9989378452301025,-0.012457341887056828,-0.02569935843348503,0.03615950420498848
274.0,0.0,0.0,0.0,0.0,0.0,0.0,-0.022927002981305122,0.02449304237961769,0.0006490819505415857,0.9989360570907593,-0.012272607535123825,-0.024828357622027397,0.03687470406293869
275.0,0.0,0.0,0.0,0.0,0.0,0.0,-0.02055964805185795,0.0253191739320755,-0.0025952463038265705,0.998918890953064,-0.011791680008172989,-0.024706775322556496,0.0375724621117115
276.0,0.0,0.0,0.0,0.0,0.0,0.0,-0.020541295409202576,0.025079796090722084,-0.006459719035774469,0.9989116191864014,-0.011639313772320747,-0.02452017180621624,0.03793414682149887
277.0,0.0,0.0,0.0,0.0,0.0,0.0,-0.02398611232638359,0.026270851492881775,-0.004967391956597567,0.9988765716552734,-0.011454715393483639,-0.02493312582373619,0.038636960089206696
278.0,0.0,0.0,0.0,0.0,0.0,0.0,-0.02804548665881157,0.028484834358096123,0.001377108390443027,0.9987983703613281,-0.011564943008124828,-0.025640495121479034,0.04013337939977646
279.0,0.0,0.0,0.0,0.0,0.0,0.0,-0.026313679292798042,0.030024733394384384,0.0062393443658947945,0.9988035559654236,-0.012390674091875553,-0.023364132270216942,0.041134122759103775
280.0,0.0,0.0,0.0,0.0,0.0,0.0,-0.028481988236308098,0.03042687475681305,0.009650546126067638,0.9987590312957764,-0.012722158804535866,-0.02289404161274433,0.042359884828329086
281.0,0.0,0.0,0.0,0.0,0.0,0.0,-0.0103652598336339,0.021393099799752235,-0.013503942638635635,0.9987768530845642,-0.013852274045348167,-0.021709276363253593,0.04221012443304062
282.0,0.0,0.0,0.0,0.0,0.0,0.0,0.005305515136569738,0.018869196996092796,-0.03933252766728401,0.9987620711326599,-0.015545318834483624,-0.02160973846912384,0.04202105849981308
283.0,0.0,0.0,0.0,0.0,0.0,0.0,-0.005267783999443054,0.03321458026766777,-0.022134030237793922,0.9986652135848999,-0.016633914783596992,-0.023591037839651108,0.04283181577920914
284.0,0.0,0.0,0.0,0.0,0.0,0.0,-0.022623395547270775,0.040650270879268646,0.008310546167194843,0.9985834360122681,-0.017532141879200935,-0.02529747784137726,0.04340183362364769
285.0,0.0,0.0,0.0,0.0,0.0,0.0,-0.030756672844290733,0.04402550309896469,0.020634818822145462,0.998590886592865,-0.018706820905208588,-0.025320325046777725,0.04272163659334183
286.0,0.0,0.0,0.0,0.0,0.0,0.0,-0.02877243049442768,0.035636790096759796,0.022409649565815926,0.998607873916626,-0.01994677633047104,-0.02500995248556137,0.04194064065814018
287.0,0.0,0.0,0.0,0.0,0.0,0.0,-0.026741163805127144,0.02899997867643833,0.005073064472526312,0.9985743761062622,-0.020975517109036446,-0.025536198168992996,0.04191870987415314
288.0,0.0,0.0,0.0,0.0,0.0,0.0,-0.02323881909251213,0.029089972376823425,-0.0030841664411127567,0.9985108971595764,-0.021641340106725693,-0.026358161121606827,0.0425778366625309
289.0,0.0,0.0,0.0,0.0,0.0,0.0,-0.021394355222582817,0.030349303036928177,-0.005674006417393684,0.9985050559043884,-0.022208882495760918,-0.026270808652043343,0.042477842420339584
290.0,0.0,0.0,0.0,0.0,0.0,0.0,-0.023440347984433174,0.03191075101494789,-0.0012085015187039971,0.9985137581825256,-0.022380568087100983,-0.02584703639149666,0.04244277998805046
291.0,0.0,0.0,0.0,0.0,0.0,0.0,-0.027345184236764908,0.032803114503622055,0.0019088347908109426,0.9985039234161377,-0.022315137088298798,-0.02583840861916542,0.04271317645907402
292.0,0.0,0.0,0.0,0.0,0.0,0.0,-0.028773033991456032,0.034011002629995346,0.0018127696821466088,0.9985217452049255,-0.022097885608673096,-0.025659926235675812,0.042516615241765976
293.0,0.0,0.0,0.0,0.0,0.0,0.0,-0.029706371948122978,0.028682714328169823,-0.003996608778834343,0.9985653758049011,-0.021502463147044182,-0.025538776069879532,0.04186573252081871
294.0,0.0,0.0,0.0,0.0,0.0,0.0,-0.024293411523103714,0.02390344813466072,-0.012228555046021938,0.9986014366149902,-0.02099853754043579,-0.025060776621103287,0.04154926910996437
295.0,0.0,0.0,0.0,0.0,0.0,0.0,-0.018006645143032074,0.023667285218834877,-0.027800336480140686,0.9985801577568054,-0.02109028957784176,-0.026278257369995117,0.04126012697815895
296.0,0.0,0.0,0.0,0.0,0.0,0.0,-0.017112361267209053,0.022857531905174255,-0.030758187174797058,0.998532772064209,-0.022424694150686264,-0.028421178460121155,0.04027179628610611
297.0,0.0,0.0,0.0,0.0,0.0,0.0,-0.015236139297485352,0.018173687160015106,-0.026568930596113205,0.9984882473945618,-0.024627920240163803,-0.029897816479206085,0.03899874910712242
298.0,0.0,0.0,0.0,0.0,0.0,0.0,-0.019089272245764732,0.025846654549241066,-0.023634932935237885,0.998367965221405,-0.027411868795752525,-0.03327389433979988,0.03745633736252785
299.0,0.0,0.0,0.0,0.0,0.0,0.0,-0.02449094131588936,0.02440744824707508,-0.0025552036240696907,0.99826580286026,-0.030113693326711655,-0.0360276959836483,0.03550723195075989
300.0,0.0,0.0,0.0,0.0,0.0,0.0,-0.029493628069758415,0.029515378177165985,0.003877212991937995,0.9981330037117004,-0.03280514106154442,-0.03847222402691841,0.03426870331168175
301.0,0.0,0.0,0.0,0.0,0.0,0.0,-0.03386183828115463,0.029806489124894142,0.009247355163097382,0.9979863166809082,-0.035584624856710434,-0.04111252725124359,0.03266448155045509
302.0,0.0,0.0,0.0,0.0,0.0,0.0,-0.03738705813884735,0.031205037608742714,0.008426910266280174,0.9978452920913696,-0.03838249295949936,-0.043424610048532486,0.03075849637389183
303.0,0.0,0.0,0.0,0.0,0.0,0.0,-0.03660790994763374,0.03615938127040863,0.009290356189012527,0.9976776838302612,-0.04128601402044296,-0.04546632245182991,0.029452474787831306
304.0,0.0,0.0,0.0,0.0,0.0,0.0,-0.0335330069065094,0.038999591022729874,0.01102546975016594,0.9975359439849854,-0.043707966804504395,-0.04701860994100571,0.028300469741225243
305.0,0.0,0.0,0.0,0.0,0.0,0.0,-0.031659726053476334,0.03857635706663132,0.008189159445464611,0.9973955154418945,-0.045836564153432846,-0.048342783004045486,0.02764241024851799
306.0,0.0,0.0,0.0,0.0,0.0,0.0,-0.027775311842560768,0.036932267248630524,0.0037844094913452864,0.9972811341285706,-0.04724191501736641,-0.04939000681042671,0.02755500189960003
307.0,0.0,0.0,0.0,0.0,0.0,0.0,-0.025861438363790512,0.03384869918227196,-0.002891397336497903,0.9971709251403809,-0.04877203702926636,-0.05022074654698372,0.02737533114850521
308.0,0.0,0.0,0.0,0.0,0.0,0.0,-0.024746086448431015,0.033873897045850754,-0.006530732847750187,0.9970405101776123,-0.05026577413082123,-0.05148382484912872,0.027076508849859238
309.0,0.0,0.0,0.0,0.0,0.0,0.0,-0.023326806724071503,0.03557002544403076,-0.00928606279194355,0.996941864490509,-0.05202028527855873,-0.05225908383727074,0.025881510227918625
310.0,0.0,0.0,0.0,0.0,0.0,0.0,-0.023619500920176506,0.03691565617918968,-0.009601980447769165,0.996853232383728,-0.054302822798490524,-0.052556730806827545,0.023929042741656303
311.0,0.0,0.0,0.0,0.0,0.0,0.0,-0.024493327364325523,0.0416792556643486,-0.0008504065917804837,0.9967697858810425,-0.05578390881419182,-0.05323461443185806,0.02246166579425335
312.0,0.0,0.0,0.0,0.0,0.0,0.0,-0.025226453319191933,0.04256322979927063,0.010123205371201038,0.996700644493103,-0.057128991931676865,-0.05350989103317261,0.021468769758939743
313.0,0.0,0.0,0.0,0.0,0.0,0.0,-0.027249997481703758,0.04161353036761284,0.01658073626458645,0.9966292977333069,-0.05790029093623161,-0.05427638813853264,0.020779279991984367
314.0,0.0,0.0,0.0,0.0,0.0,0.0,-0.030330786481499672,0.04318758472800255,0.020005488768219948,0.9965324401855469,-0.05846496298909187,-0.055469024926424026,0.020703373476862907
315.0,0.0,0.0,0.0,0.0,0.0,0.0,-0.03145569562911987,0.046211693435907364,0.020734267309308052,0.9964430928230286,-0.0587812177836895,-0.056517623364925385,0.021259529516100883
316.0,0.0,0.0,0.0,0.0,0.0,0.0,-0.02810707502067089,0.04673456773161888,0.018310636281967163,0.9964072108268738,-0.05905444547533989,-0.05670168995857239,0.02168530970811844
317.0,0.0,0.0,0.0,0.0,0.0,0.0,-0.02612670697271824,0.04663310945034027,0.013560564257204533,0.9963571429252625,-0.05901910737156868,-0.05739221349358559,0.022262942045927048
318.0,0.0,0.0,0.0,0.0,0.0,0.0,-0.027983497828245163,0.043056219816207886,0.009487027302384377,0.9962736368179321,-0.058634866029024124,-0.05883529782295227,0.023225057870149612
319.0,0.0,0.0,0.0,0.0,0.0,0.0,-0.027972545474767685,0.04204941913485527,0.007356331218034029,0.9962286949157715,-0.05898715555667877,-0.059234995394945145,0.023242751136422157
320.0,0.0,0.0,0.0,0.0,0.0,0.0,-0.027775950729846954,0.041919875890016556,0.0040565067902207375,0.99611896276474,-0.059833887964487076,-0.059951309114694595,0.023937754333019257
321.0,0.0,0.0,0.0,0.0,0.0,0.0,-0.027339722961187363,0.041015271097421646,0.0008186580380424857,0.9960116147994995,-0.060352738946676254,-0.06088535115122795,0.02472837269306183
322.0,0.0,0.0,0.0,0.0,0.0,0.0,-0.024686075747013092,0.03907003253698349,-0.0026378086768090725,0.9959731698036194,-0.060460396111011505,-0.0611225962638855,0.02541581727564335
323.0,0.0,0.0,0.0,0.0,0.0,0.0,-0.02161410078406334,0.03378565236926079,-0.00919804722070694,0.9960201382637024,-0.06070876121520996,-0.0602455660700798,0.025075577199459076
324.0,0.0,0.0,0.0,0.0,0.0,0.0,-0.016963012516498566,0.030860653147101402,-0.013508846051990986,0.9960864186286926,-0.06113612279295921,-0.05896800756454468,0.024440303444862366
325.0,0.0,0.0,0.0,0.0,0.0,0.0,-0.016748540103435516,0.029924670234322548,-0.013249916024506092,0.9960988759994507,-0.06122609227895737,-0.05866948142647743,0.024421479552984238
326.0,0.0,0.0,0.0,0.0,0.0,0.0,-0.014351435005664825,0.028246816247701645,-0.01802986115217209,0.9961082339286804,-0.06128215417265892,-0.05850152298808098,0.024307826533913612
327.0,0.0,0.0,0.0,0.0,0.0,0.0,-0.013531421311199665,0.022521870210766792,-0.019648779183626175,0.996119499206543,-0.06171285733580589,-0.05787019804120064,0.024263493716716766
328.0,0.0,0.0,0.0,0.0,0.0,0.0,-0.016606422141194344,0.02331177331507206,-0.01557818055152893,0.9960922598838806,-0.062083207070827484,-0.05802388861775398,0.024068670347332954
329.0,0.0,0.0,0.0,0.0,0.0,0.0,-0.01693318411707878,0.02303188480436802,-0.01623188704252243,0.9961106181144714,-0.06287867575883865,-0.05723509564995766,0.02311588078737259
330.0,0.0,0.0,0.0,0.0,0.0,0.0,-0.016317065805196762,0.02456057257950306,-0.01036333292722702,0.9960970282554626,-0.06437160819768906,-0.05617304518818855,0.022176366299390793
331.0,0.0,0.0,0.0,0.0,0.0,0.0,-0.019208263605833054,0.023731214925646782,-0.002990144304931164,0.995975911617279,-0.06532116234302521,-0.057101745158433914,0.022469758987426758
332.0,0.0,0.0,0.0,0.0,0.0,0.0,-0.024369576945900917,0.022943507879972458,0.0019172249594703317,0.995837926864624,-0.06599671393632889,-0.05849860981106758,0.02300981432199478
333.0,0.0,0.0,0.0,0.0,0.0,0.0,-0.027519041672348976,0.02252289652824402,0.00738905556499958,0.9957294464111328,-0.0665784478187561,-0.05948813259601593,0.02348938025534153
334.0,0.0,0.0,0.0,0.0,0.0,0.0,-0.026902085170149803,0.02292989380657673,0.01135476864874363,0.9956628084182739,-0.06770318001508713,-0.059419918805360794,0.02326931245625019
335.0,0.0,0.0,0.0,0.0,0.0,0.0,-0.02633480541408062,0.020457372069358826,0.01864442601799965,0.9956024289131165,-0.06883521378040314,-0.05941319465637207,0.022538483142852783
336.0,0.0,0.0,0.0,0.0,0.0,0.0,-0.028757087886333466,0.019164597615599632,0.01888861693441868,0.9954460859298706,-0.06929074227809906,-0.0611952506005764,0.023262646049261093
337.0,0.0,0.0,0.0,0.0,0.0,0.0,-0.028508439660072327,0.017459027469158173,0.01142137311398983,0.9952811598777771,-0.06942810118198395,-0.06316883116960526,0.024592256173491478
338.0,0.0,0.0,0.0,0.0,0.0,0.0,-0.024998195469379425,0.021557847037911415,0.003085019066929817,0.9952141642570496,-0.07009480148553848,-0.06329099088907242,0.02508946880698204
339.0,0.0,0.0,0.0,0.0,0.0,0.0,-0.02728303149342537,0.028139609843492508,0.003913549240678549,0.9952003359794617,-0.0701741948723793,-0.06323538720607758,0.025565387681126595
340.0,0.0,0.0,0.0,0.0,0.0,0.0,-0.02576187439262867,0.02419297769665718,0.0072477119974792,0.9952865242958069,-0.06971722096204758,-0.062261730432510376,0.025839725509285927
341.0,0.0,0.0,0.0,0.0,0.0,0.0,-0.0216610599309206,0.020683303475379944,0.003640602109953761,0.9953905940055847,-0.06915584206581116,-0.06107526272535324,0.026175031438469887
342.0,0.0,0.0,0.0,0.0,0.0,0.0,-0.016921252012252808,0.013939433731138706,-0.004237169399857521,0.9954701662063599,-0.0686250552535057,-0.06029658764600754,0.026342835277318954
343.0,0.0,0.0,0.0,0.0,0.0,0.0,-0.01542982179671526,0.012121039442718029,-0.004431428387761116,0.9954738616943359,-0.06829185783863068,-0.06057616323232651,0.026428909972310066
344.0,0.0,0.0,0.0,0.0,0.0,0.0,-0.01880703866481781,0.018640920519828796,-0.004595662467181683,0.9954364895820618,-0.06824269145727158,-0.06116556003689766,0.026601692661643028
345.0,0.0,0.0,0.0,0.0,0.0,0.0,-0.023832306265830994,0.026553204283118248,0.0037421626038849354,0.9954525232315063,-0.06808160245418549,-0.06108790263533592,0.026601750403642654
346.0,0.0,0.0,0.0,0.0,0.0,0.0,-0.02918498031795025,0.028906453400850296,0.021755032241344452,0.9955237507820129,-0.06742407381534576,-0.06019037589430809,0.027639469131827354
347.0,0.0,0.0,0.0,0.0,0.0,0.0,-0.028982440009713173,0.03016761876642704,0.028001319617033005,0.9956141114234924,-0.06647974252700806,-0.05898713693022728,0.02921619452536106
348.0,0.0,0.0,0.0,0.0,0.0,0.0,-0.01964966021478176,0.026778986677527428,0.019423605874180794,0.9957594275474548,-0.0647410973906517,-0.05800913646817207,0.030117204412817955
349.0,0.0,0.0,0.0,0.0,0.0,0.0,-0.012883244082331657,0.016668668016791344,0.011823467910289764,0.995912492275238,-0.06318612396717072,-0.05690658092498779,0.03045906499028206
350.0,0.0,0.0,0.0,0.0,0.0,0.0,-0.009480521082878113,0.01684306189417839,0.0029803081415593624,0.996076226234436,-0.06140424311161041,-0.055357933044433594,0.031581003218889236
351.0,0.0,0.0,0.0,0.0,0.0,0.0,-0.007674331311136484,0.016725899651646614,-0.0009645542013458908,0.9962279796600342,-0.05944449082016945,-0.053973522037267685,0.032913196831941605
352.0,0.0,0.0,0.0,0.0,0.0,0.0,-0.006830758415162563,0.019095266237854958,-0.001935355132445693,0.9963836669921875,-0.05805221572518349,-0.051838312298059464,0.034092679619789124
353.0,0.0,0.0,0.0,0.0,0.0,0.0,-0.004204871598631144,0.0228559710085392,-0.009485169313848019,0.9965202808380127,-0.05588781088590622,-0.05055497959256172,0.03561347723007202
354.0,0.0,0.0,0.0,0.0,0.0,0.0,-0.005748128984123468,0.01751677691936493,-0.00911769550293684,0.9966176748275757,-0.05385421961545944,-0.049800582230091095,0.03705393522977829
355.0,0.0,0.0,0.0,0.0,0.0,0.0,-0.004693212918937206,0.016302546486258507,-0.0028963249642401934,0.9967385530471802,-0.052317798137664795,-0.04792165011167526,0.03845294564962387
356.0,0.0,0.0,0.0,0.0,0.0,0.0,-0.0011166371405124664,0.021791594102978706,0.0005714265862479806,0.9968830347061157,-0.05034217610955238,-0.045942459255456924,0.0397377535700798
357.0,0.0,0.0,0.0,0.0,0.0,0.0,-0.0016867329832166433,0.01675441302359104,-0.0014227869687601924,0.9970242381095886,-0.048224225640296936,-0.04434835910797119,0.04062853753566742
358.0,0.0,0.0,0.0,0.0,0.0,0.0,0.001641775481402874,0.018682513386011124,-0.0014142667641863227,0.997191846370697,-0.04596680775284767,-0.04237661510705948,0.04122709855437279
359.0,0.0,0.0,0.0,0.0,0.0,0.0,0.0052240993827581406,0.021705161780118942,-0.009199941530823708,0.9972819685935974,-0.043658748269081116,-0.04147990047931671,0.042452432215213776
360.0,0.0,0.0,0.0,0.0,0.0,0.0,0.0003408830671105534,0.014908651821315289,0.000751410610973835,0.9973254799842834,-0.04178158566355705,-0.040896035730838776,0.04386237636208534
361.0,0.0,0.0,0.0,0.0,0.0,0.0,-0.0020068753510713577,0.018396399915218353,0.0057910834439098835,0.997385561466217,-0.04003606736660004,-0.03973817080259323,0.0451677106320858
362.0,0.0,0.0,0.0,0.0,0.0,0.0,-0.0017029446316882968,0.021439941599965096,0.008954827673733234,0.9975242614746094,-0.03887183964252472,-0.03643391653895378,0.04590227082371712
363.0,0.0,0.0,0.0,0.0,0.0,0.0,-0.00180995452683419,0.02115456387400627,0.01074639055877924,0.9975841641426086,-0.03721843659877777,-0.035262588411569595,0.046878278255462646
364.0,0.0,0.0,0.0,0.0,0.0,0.0,0.005514466669410467,0.01865028776228428,-0.002475460758432746,0.9976551532745361,-0.035887211561203,-0.03347655013203621,0.04770347476005554
365.0,0.0,0.0,0.0,0.0,0.0,0.0,0.007402895484119654,0.015278292819857597,-0.006345013156533241,0.9977838397026062,-0.03447051718831062,-0.0316375270485878,0.047310587018728256
366.0,0.0,0.0,0.0,0.0,0.0,0.0,0.0049459608271718025,0.014657118357717991,-0.009849277324974537,0.9978756904602051,-0.03341507911682129,-0.030072074383497238,0.04715392738580704
367.0,0.0,0.0,0.0,0.0,0.0,0.0,0.004069466609507799,0.017984068021178246,-0.011469791643321514,0.997931182384491,-0.032820530235767365,-0.028852786868810654,0.04715728759765625
368.0,0.0,0.0,0.0,0.0,0.0,0.0,0.0033389173913747072,0.016772322356700897,-0.016297219321131706,0.9979727268218994,-0.03211759030818939,-0.027914855629205704,0.04732678085565567
369.0,0.0,0.0,0.0,0.0,0.0,0.0,9.726146527100354e-05,0.020287584513425827,-0.016900446265935898,0.9979490041732788,-0.031148996204137802,-0.02772921323776245,0.04856867343187332
370.0,0.0,0.0,0.0,0.0,0.0,0.0,-0.0012127385707572103,0.017744053155183792,-0.011063894256949425,0.9979043006896973,-0.030071740970015526,-0.027848996222019196,0.05007127299904823
371.0,0.0,0.0,0.0,0.0,0.0,0.0,0.002019360428676009,0.010977850295603275,-0.013554452918469906,0.9979240894317627,-0.029593365266919136,-0.02658778615295887,0.05064652860164642
372.0,0.0,0.0,0.0,0.0,0.0,0.0,0.010429645888507366,0.0035680311266332865,-0.026674896478652954,0.9979723691940308,-0.0287308432161808,-0.025226745754480362,0.050884753465652466
373.0,0.0,0.0,0.0,0.0,0.0,0.0,0.014826311729848385,-0.003526068991050124,-0.0323500782251358,0.9979855418205261,-0.02777315117418766,-0.02442718856036663,0.05154585465788841
374.0,0.0,0.0,0.0,0.0,0.0,0.0,0.01616494730114937,-0.007532602176070213,-0.022763332352042198,0.9980176091194153,-0.027196243405342102,-0.02307797782123089,0.05185255780816078
375.0,0.0,0.0,0.0,0.0,0.0,0.0,0.011713596060872078,-0.010655722580850124,1.9074335796176456e-05,0.998040497303009,-0.026327058672904968,-0.02192024514079094,0.05236060172319412
376.0,0.0,0.0,0.0,0.0,0.0,0.0,0.004941266030073166,-0.002793483901768923,0.030832475051283836,0.9980260729789734,-0.02533016726374626,-0.021313505247235298,0.053369201719760895
377.0,0.0,0.0,0.0,0.0,0.0,0.0,-0.0008557565161027014,0.0024773909244686365,0.054168641567230225,0.9979679584503174,-0.02443481795489788,-0.02139354683458805,0.05482027307152748
378.0,0.0,0.0,0.0,0.0,0.0,0.0,-0.008439376018941402,0.008670831099152565,0.049482375383377075,0.9978897571563721,-0.02375655062496662,-0.021862752735614777,0.05633809044957161
379.0,0.0,0.0,0.0,0.0,0.0,0.0,-0.00542765436694026,0.012638197280466557,0.03674333170056343,0.9978488683700562,-0.02269965410232544,-0.022102998569607735,0.05739474296569824
380.0,0.0,0.0,0.0,0.0,0.0,0.0,-0.0027258857153356075,0.006366003304719925,0.027956726029515266,0.9978393316268921,-0.02166595496237278,-0.022632712498307228,0.05775006487965584
381.0,0.0,0.0,0.0,0.0,0.0,0.0,-0.00116544624324888,0.004853446036577225,0.019904473796486855,0.9978703260421753,-0.02046319469809532,-0.022706370800733566,0.057624995708465576
382.0,0.0,0.0,0.0,0.0,0.0,0.0,0.0036650788970291615,-1.1531996278790757e-05,0.005039192270487547,0.9979351758956909,-0.019376561045646667,-0.02165532112121582,0.057281579822301865
383.0,0.0,0.0,0.0,0.0,0.0,0.0,0.006983781233429909,-0.001494518481194973,-0.004000864923000336,0.9980114102363586,-0.01856737583875656,-0.02034791372716427,0.056697286665439606
384.0,0.0,0.0,0.0,0.0,0.0,0.0,0.0017375681782141328,0.009264063090085983,-0.0049700988456606865,0.9979878664016724,-0.017275799065828323,-0.020647235214710236,0.05740801617503166
385.0,0.0,0.0,0.0,0.0,0.0,0.0,-0.0013429285027086735,0.010778451338410378,-0.004149948712438345,0.9980015158653259,-0.015941273421049118,-0.02066696621477604,0.05755167827010155
386.0,0.0,0.0,0.0,0.0,0.0,0.0,0.002370018046349287,0.00936163030564785,-0.0071576787158846855,0.9980533123016357,-0.015014760196208954,-0.019342197105288506,0.05736010521650314
387.0,0.0,0.0,0.0,0.0,0.0,0.0,0.008027909323573112,0.008457621559500694,-0.00904171820729971,0.9981166124343872,-0.01451658271253109,-0.017766393721103668,0.056894704699516296
388.0,0.0,0.0,0.0,0.0,0.0,0.0,0.015431852079927921,0.008122571744024754,-0.008226894773542881,0.9982110261917114,-0.01418262254446745,-0.015575209632515907,0.05595715343952179
389.0,0.0,0.0,0.0,0.0,0.0,0.0,0.02312530018389225,0.00015149539103731513,-0.0052818432450294495,0.9983164668083191,-0.014051226899027824,-0.012863297015428543,0.05478493869304657
390.0,0.0,0.0,0.0,0.0,0.0,0.0,0.0248836912214756,-0.0027419859543442726,-0.008918194100260735,0.9983961582183838,-0.013516134582459927,-0.011096800677478313,0.053846776485443115
391.0,0.0,0.0,0.0,0.0,0.0,0.0,0.021724523976445198,-0.0037053609266877174,-0.002413734095171094,0.9984838366508484,-0.01253711897879839,-0.010577620007097721,0.052546244114637375
392.0,0.0,0.0,0.0,0.0,0.0,0.0,0.014267039485275745,-0.008139248006045818,0.011438986286520958,0.9985749125480652,-0.011604901403188705,-0.010035221464931965,0.05111570283770561
393.0,0.0,0.0,0.0,0.0,0.0,0.0,0.0062641240656375885,-0.013951112516224384,0.030023697763681412,0.9986145496368408,-0.010697542689740658,-0.009935269132256508,0.05055590718984604
394.0,0.0,0.0,0.0,0.0,0.0,0.0,-0.002477646106854081,-0.01603672280907631,0.049029503017663956,0.9986425042152405,-0.00994701124727726,-0.009609822183847427,0.05021776258945465
395.0,0.0,0.0,0.0,0.0,0.0,0.0,-0.0005516788805834949,-0.017317671328783035,0.054841432720422745,0.9986563324928284,-0.009182721376419067,-0.008731970563530922,0.05025108903646469
396.0,0.0,0.0,0.0,0.0,0.0,0.0,0.007499244064092636,-0.022769836708903313,0.052770040929317474,0.9986829161643982,-0.008233368396759033,-0.00660698302090168,0.05021164193749428
397.0,0.0,0.0,0.0,0.0,0.0,0.0,0.022204669192433357,-0.02317490614950657,0.03506375476717949,0.9987542033195496,-0.007065459154546261,-0.00282976939342916,0.0493176095187664
398.0,0.0,0.0,0.0,0.0,0.0,0.0,0.030296480283141136,-0.018434086814522743,0.016264325007796288,0.9987967610359192,-0.005096503533422947,0.0006317653460428119,0.04877195134758949
399.0,0.0,0.0,0.0,0.0,0.0,0.0,0.03407047316431999,-0.009448595345020294,-0.0033163779880851507,0.9988117218017578,-0.003178406972438097,0.004746968857944012,0.04840314760804176
400.0,0.0,0.0,0.0,0.0,0.0,0.0,0.030949227511882782,0.003398462664335966,-0.018605709075927734,0.9987627267837524,-0.001309170969761908,0.008835199289023876,0.04892322048544884
401.0,0.0,0.0,0.0,0.0,0.0,0.0,0.021432166919112206,0.02098984643816948,-0.028987059369683266,0.9986362457275391,0.000921223487239331,0.013257698155939579,0.05049501359462738
402.0,0.0,0.0,0.0,0.0,0.0,0.0,0.01427756529301405,0.03549867123365402,-0.032974064350128174,0.9984738230705261,0.003375640604645014,0.019098607823252678,0.05171293765306473
403.0,0.0,0.0,0.0,0.0,0.0,0.0,0.010833831503987312,0.040824923664331436,-0.041229136288166046,0.9982361793518066,0.006029210053384304,0.025715824216604233,0.05317150056362152
404.0,0.0,0.0,0.0,0.0,0.0,0.0,0.010799537412822247,0.034235838800668716,-0.05028699338436127,0.9979973435401917,0.008597283624112606,0.031330253928899765,0.0542764887213707
405.0,0.0,0.0,0.0,0.0,0.0,0.0,0.008534448221325874,0.028226014226675034,-0.05406268686056137,0.9977748394012451,0.010813233442604542,0.036452438682317734,0.05477696657180786
406.0,0.0,0.0,0.0,0.0,0.0,0.0,0.00493997149169445,0.020587412640452385,-0.045476630330085754,0.9975342154502869,0.012976707890629768,0.039802104234695435,0.056331437081098557
407.0,0.0,0.0,0.0,0.0,0.0,0.0,-0.005031411070376635,0.013187670148909092,-0.03260064497590065,0.9973710179328918,0.015129209496080875,0.040739864110946655,0.05798961594700813
408.0,0.0,0.0,0.0,0.0,0.0,0.0,-0.01655658893287182,0.009295155294239521,-0.01486402377486229,0.9972727298736572,0.016140498220920563,0.042110875248909,0.058432020246982574
409.0,0.0,0.0,0.0,0.0,0.0,0.0,-0.027173779904842377,0.013078008778393269,0.007874672301113605,0.997187614440918,0.01649283990263939,0.04374426230788231,0.05857138708233833
410.0,0.0,0.0,0.0,0.0,0.0,0.0,-0.047608014196157455,0.014711206778883934,0.04239930212497711,0.9971776008605957,0.017140788957476616,0.042487531900405884,0.059487342834472656
411.0,0.0,0.0,0.0,0.0,0.0,0.0,-0.0590173564851284,0.006530984304845333,0.07250312715768814,0.9971781373023987,0.017849156633019447,0.04165924713015556,0.05984792113304138
412.0,0.0,0.0,0.0,0.0,0.0,0.0,-0.05482584983110428,0.0024869819171726704,0.09005574882030487,0.9972572922706604,0.01783459261059761,0.04237385839223862,0.05800879746675491
413.0,0.0,0.0,0.0,0.0,0.0,0.0,-0.03812430053949356,-0.004534709267318249,0.09134563058614731,0.9973344802856445,0.01756276749074459,0.04331076145172119,0.056042540818452835
414.0,0.0,0.0,0.0,0.0,0.0,0.0,-0.005667712539434433,-0.010810728184878826,0.0540112741291523,0.9973350167274475,0.01754593290388584,0.044833891093730927,0.05482495203614235
415.0,0.0,0.0,0.0,0.0,0.0,0.0,0.01882549189031124,-0.01611894555389881,0.012283270247280598,0.9973943829536438,0.017971428111195564,0.04649564251303673,0.05215180665254593
416.0,0.0,0.0,0.0,0.0,0.0,0.0,0.02242380753159523,-0.005585418548434973,0.002385554602369666,0.997602105140686,0.01977357268333435,0.045756157487630844,0.04801694676280022
417.0,0.0,0.0,0.0,0.0,0.0,0.0,0.021715907379984856,-0.0040610902942717075,0.0021530459634959698,0.997918426990509,0.022732021287083626,0.04417167976498604,0.04112883284687996
418.0,0.0,0.0,0.0,0.0,0.0,0.0,0.032313838601112366,-0.004515684675425291,-0.003697852371260524,0.998223066329956,0.026339970529079437,0.04089323803782463,0.034434106200933456
419.0,0.0,0.0,0.0,0.0,0.0,0.0,0.0204839576035738,-0.006524553056806326,-0.03174806386232376,0.9985616207122803,0.031022964045405388,0.03283588960766792,0.02890036255121231
420.0,0.0,0.0,0.0,0.0,0.0,0.0,0.018735196441411972,0.00757222855463624,-0.018938783556222916,0.9987379908561707,0.03560584783554077,0.023355664685368538,0.026648573577404022
421.0,0.0,0.0,0.0,0.0,0.0,0.0,0.009455699473619461,0.0059880842454731464,-0.027216890826821327,0.9987890124320984,0.03971327468752861,0.012973691336810589,0.02600611373782158
422.0,0.0,0.0,0.0,0.0,0.0,0.0,0.005676950793713331,-0.013036918826401234,-0.05922875180840492,0.9986414313316345,0.04390266165137291,0.0025810752995312214,0.027974549680948257
423.0,0.0,0.0,0.0,0.0,0.0,0.0,0.00011914603965124115,-0.026695942506194115,-0.04431614652276039,0.9983804225921631,0.04734039306640625,-0.006278508342802525,0.030935324728488922
424.0,0.0,0.0,0.0,0.0,0.0,0.0,-0.00416421378031373,-0.025521237403154373,-0.01908092200756073,0.9980372786521912,0.050273556262254715,-0.013545692898333073,0.03479865938425064
425.0,0.0,0.0,0.0,0.0,0.0,0.0,0.0005931347259320319,-0.03245067596435547,-0.005549237597733736,0.9977409839630127,0.052118901163339615,-0.01926991529762745,0.0377722904086113
426.0,0.0,0.0,0.0,0.0,0.0,0.0,0.0006779848481528461,-0.03945167362689972,-0.01130341924726963,0.9975314736366272,0.05204344540834427,-0.02347087860107422,0.04090598598122597
427.0,0.0,0.0,0.0,0.0,0.0,0.0,0.019686242565512657,-0.038951460272073746,0.01059823390096426,0.9972724318504333,0.05100708454847336,-0.027858663350343704,0.04551529139280319
428.0,0.0,0.0,0.0,0.0,0.0,0.0,0.027637474238872528,-0.04079890623688698,-0.0011301031336188316,0.9972268342971802,0.04819560796022415,-0.030820108950138092,0.047606874257326126
429.0,0.0,0.0,0.0,0.0,0.0,0.0,0.02545887418091297,-0.03199116140604019,-0.006080310791730881,0.997208833694458,0.044757939875125885,-0.033912889659404755,0.04921453818678856
430.0,0.0,0.0,0.0,0.0,0.0,0.0,0.02193497307598591,-0.010018429718911648,0.01231470424681902,0.997124433517456,0.04124034568667412,-0.0371902696788311,0.051586877554655075
431.0,0.0,0.0,0.0,0.0,0.0,0.0,0.022521134465932846,-0.0025256776716560125,-0.0053710537031292915,0.9970476627349854,0.03770885989069939,-0.040110815316438675,0.053548965603113174
432.0,0.0,0.0,0.0,0.0,0.0,0.0,0.02198716253042221,0.0007565233972854912,-0.011417822912335396,0.9969544410705566,0.034041792154312134,-0.04414256662130356,0.0545448437333107
433.0,0.0,0.0,0.0,0.0,0.0,0.0,0.013142784126102924,0.01243696641176939,-0.007397320121526718,0.9968563914299011,0.031072227284312248,-0.047690220177173615,0.05513228848576546
434.0,0.0,0.0,0.0,0.0,0.0,0.0,0.0063361506909132,0.021290825679898262,-0.01224608812481165,0.996788501739502,0.02861846797168255,-0.050697702914476395,0.05500736087560654
435.0,0.0,0.0,0.0,0.0,0.0,0.0,0.006360675673931837,0.021862946450710297,-0.01714487001299858,0.9968603253364563,0.02615247666835785,-0.05240931361913681,0.05329626426100731
436.0,0.0,0.0,0.0,0.0,0.0,0.0,0.00467876298353076,0.025833941996097565,-0.01383381150662899,0.9969674348831177,0.02375241182744503,-0.05285144969820976,0.05197487771511078
437.0,0.0,0.0,0.0,0.0,0.0,0.0,0.00504560861736536,0.024875085800886154,-0.01860087178647518,0.9970285892486572,0.021865084767341614,-0.052970536053180695,0.05149470269680023
438.0,0.0,0.0,0.0,0.0,0.0,0.0,0.0015776046784594655,0.021416418254375458,-0.0348973423242569,0.9970405697822571,0.020472101867198944,-0.05387653410434723,0.0508812814950943
439.0,0.0,0.0,0.0,0.0,0.0,0.0,0.0007071736035868526,0.016172608360648155,-0.02031572535634041,0.9969695210456848,0.019659511744976044,-0.054174650460481644,0.052268724888563156
440.0,0.0,0.0,0.0,0.0,0.0,0.0,0.004679227713495493,0.01389466505497694,-0.026198765262961388,0.9969448447227478,0.018642554059624672,-0.053793687373399734,0.053494542837142944
441.0,0.0,0.0,0.0,0.0,0.0,0.0,0.005148568190634251,0.008957983925938606,-0.016400637105107307,0.9970277547836304,0.01727917604148388,-0.05283846706151962,0.053350940346717834
442.0,0.0,0.0,0.0,0.0,0.0,0.0,0.009257546626031399,0.009196814149618149,-0.004908701870590448,0.9971954822540283,0.015577157959342003,-0.05104173719882965,0.0524771548807621
443.0,0.0,0.0,0.0,0.0,0.0,0.0,0.008097518235445023,0.005305125843733549,0.014093511737883091,0.9973560571670532,0.01423543132841587,-0.04986533895134926,0.050924867391586304
444.0,0.0,0.0,0.0,0.0,0.0,0.0,0.005262115504592657,0.008243873715400696,0.041618362069129944,0.997413694858551,0.014347061514854431,-0.050642598420381546,0.04894794151186943
445.0,0.0,0.0,0.0,0.0,0.0,0.0,0.0020920501556247473,0.013255557045340538,0.05711746588349342,0.997435450553894,0.014673237688839436,-0.051354557275772095,0.04764245077967644
446.0,0.0,0.0,0.0,0.0,0.0,0.0,0.010577675886452198,0.012816899456083775,0.0629633218050003,0.9975904822349548,0.01496589183807373,-0.0501398891210556,0.0455746054649353
447.0,0.0,0.0,0.0,0.0,0.0,0.0,0.024463990703225136,0.009019555523991585,0.044293876737356186,0.9977956414222717,0.015567785128951073,-0.047922756522893906,0.04318881779909134
448.0,0.0,0.0,0.0,0.0,0.0,0.0,0.03168478235602379,0.005432083737105131,0.025101028382778168,0.997996985912323,0.016691001132130623,-0.04521441459655762,0.04098968952894211
449.0,0.0,0.0,0.0,0.0,0.0,0.0,0.0347733311355114,0.007589323446154594,0.024027856066823006,0.9981186389923096,0.017970185726881027,-0.043271731585264206,0.039548199623823166
450.0,0.0,0.0,0.0,0.0,0.0,0.0,0.02773004025220871,0.01212838664650917,0.011996233835816383,0.9981545209884644,0.01927337981760502,-0.042320940643548965,0.03906133398413658
451.0,0.0,0.0,0.0,0.0,0.0,0.0,0.06943933665752411,-0.09752313792705536,0.03609662875533104,0.998201847076416,0.019342906773090363,-0.04203364625573158,0.038110725581645966
452.0,0.0,0.0,0.0,0.0,0.0,0.0,0.014815949834883213,0.005239612422883511,-0.00016230408800765872,0.9981490969657898,0.021317703649401665,-0.04157267510890961,0.038945071399211884
453.0,0.0,0.0,0.0,0.0,0.0,0.0,0.008076654747128487,-0.002971728565171361,-0.02093694359064102,0.9981205463409424,0.021652355790138245,-0.040254123508930206,0.04082585126161575
454.0,0.0,0.0,0.0,0.0,0.0,0.0,0.009562880732119083,-0.013974432833492756,-0.014285706914961338,0.9982913136482239,0.020673463121056557,-0.03712484613060951,0.040117520838975906
455.0,0.0,0.0,0.0,0.0,0.0,0.0,0.009200776927173138,-0.037633016705513,-0.039231084287166595,0.9984772801399231,0.020456966012716293,-0.03374875336885452,0.03854938969016075
456.0,0.0,0.0,0.0,0.0,0.0,0.0,0.017627796158194542,-0.04927811026573181,-0.029489286243915558,0.9985556602478027,0.02096625231206417,-0.03212964907288551,0.037623532116413116
457.0,0.0,0.0,0.0,0.0,0.0,0.0,0.007807033136487007,-0.04781470447778702,-0.024902179837226868,0.9986505508422852,0.019960863515734673,-0.030198976397514343,0.037243492901325226
458.0,0.0,0.0,0.0,0.0,0.0,0.0,-0.003425021655857563,-0.03303505480289459,0.021721167489886284,0.9987425208091736,0.018986031413078308,-0.02695106528699398,0.03777570277452469
459.0,0.0,0.0,0.0,0.0,0.0,0.0,0.004217120818793774,-0.03042386844754219,0.0292817335575819,0.9987491965293884,0.0196001548320055,-0.025710374116897583,0.03814982995390892
460.0,0.0,0.0,0.0,0.0,0.0,0.0,0.008959447033703327,-0.05412115156650543,6.586242670891806e-05,0.9987215995788574,0.02093619294464588,-0.02540985308587551,0.0383576825261116
461.0,0.0,0.0,0.0,0.0,0.0,0.0,-0.0045639704912900925,-0.04530608654022217,0.024786483496427536,0.9987396597862244,0.023149296641349792,-0.02354527823626995,0.03780908137559891
462.0,0.0,0.0,0.0,0.0,0.0,0.0,0.0026409500278532505,-0.050210557878017426,0.025632984936237335,0.9987106919288635,0.02647489868104458,-0.02252897620201111,0.0369998961687088
463.0,0.0,0.0,0.0,0.0,0.0,0.0,0.013429658487439156,-0.07357094436883926,-0.018843386322259903,0.9987234473228455,0.029005393385887146,-0.02085530385375023,0.03571591153740883
464.0,0.0,0.0,0.0,0.0,0.0,0.0,0.008349115028977394,-0.05077403411269188,-0.012349000200629234,0.9987095594406128,0.03174325078725815,-0.019686438143253326,0.03440984711050987
465.0,0.0,0.0,0.0,0.0,0.0,0.0,0.02049318701028824,-0.06425481289625168,-0.024866541847586632,0.9987427592277527,0.03354548290371895,-0.018493399024009705,0.03234033286571503
466.0,0.0,0.0,0.0,0.0,0.0,0.0,0.02341861091554165,-0.05633914843201637,-0.05478084087371826,0.9987898468971252,0.03391430526971817,-0.01759842224419117,0.030969087034463882
467.0,0.0,0.0,0.0,0.0,0.0,0.0,0.0066976058296859264,-0.037220630794763565,-0.042784884572029114,0.9988009333610535,0.033477574586868286,-0.01651712879538536,0.031674034893512726
468.0,0.0,0.0,0.0,0.0,0.0,0.0,-0.01047269906848669,-0.015261044725775719,-0.016924917697906494,0.998928964138031,0.031207609921693802,-0.013935361057519913,0.03120422549545765
469.0,0.0,0.0,0.0,0.0,0.0,0.0,-0.01728331670165062,-0.009960278868675232,0.0010835875291377306,0.9991037249565125,0.027312198653817177,-0.010700130835175514,0.030523158609867096
470.0,0.0,0.0,0.0,0.0,0.0,0.0,-0.019103407859802246,-0.008933202363550663,-0.013092221692204475,0.9992199540138245,0.024073630571365356,-0.008289236575365067,0.030197713524103165
471.0,0.0,0.0,0.0,0.0,0.0,0.0,-0.024445440620183945,-0.0008712955750524998,-0.0015638694167137146,0.9993024468421936,0.020524578168988228,-0.006228848826140165,0.030573122203350067
472.0,0.0,0.0,0.0,0.0,0.0,0.0,-0.03313537687063217,0.007397881709039211,0.05314185470342636,0.9993860125541687,0.016931133344769478,-0.003871340537443757,0.030436554923653603
473.0,0.0,0.0,0.0,0.0,0.0,0.0,-0.02597842924296856,0.009488672018051147,0.044008769094944,0.9994427561759949,0.013298159465193748,-0.002880250569432974,0.030486958101391792
474.0,0.0,0.0,0.0,0.0,0.0,0.0,-0.0223868265748024,0.010358705185353756,0.0414375364780426,0.9994776248931885,0.010189239867031574,-0.003019181778654456,0.03053675964474678
475.0,0.0,0.0,0.0,0.0,0.0,0.0,-0.01593666896224022,0.008566121570765972,0.02989821322262287,0.999494194984436,0.007361618801951408,-0.0032604068983346224,0.030780909582972527
476.0,0.0,0.0,0.0,0.0,0.0,0.0,-0.0039110989309847355,-0.0007022378267720342,0.017408665269613266,0.999485194683075,0.004659297410398722,-0.0053568389266729355,0.03130386397242546
477.0,0.0,0.0,0.0,0.0,0.0,0.0,-0.017435278743505478,-0.005248678848147392,0.014246116392314434,0.9994342923164368,0.002716460032388568,-0.008229034952819347,0.032505396753549576
478.0,0.0,0.0,0.0,0.0,0.0,0.0,-0.02983696758747101,0.004775001667439938,0.02382648177444935,0.9994215965270996,0.0005282452329993248,-0.008932963944971561,0.03282477706670761
479.0,0.0,0.0,0.0,0.0,0.0,0.0,-0.027262430638074875,0.0033904172014445066,0.013215561397373676,0.9993950128555298,-0.0006802448187954724,-0.009954261593520641,0.03332948312163353
480.0,0.0,0.0,0.0,0.0,0.0,0.0,-0.02252271957695484,-0.006122458726167679,0.006695397663861513,0.9993628859519958,-0.0019274885999038815,-0.010670015588402748,0.034016236662864685
481.0,0.0,0.0,0.0,0.0,0.0,0.0,-0.010838598012924194,-0.01035453099757433,-0.007152329199016094,0.9993951320648193,-0.003320378251373768,-0.010618944652378559,0.03295808658003807
482.0,0.0,0.0,0.0,0.0,0.0,0.0,-0.008081193082034588,-0.017896685749292374,-0.013220320455729961,0.9993940591812134,-0.004538609646260738,-0.011894349940121174,0.0324045866727829
483.0,0.0,0.0,0.0,0.0,0.0,0.0,-0.011071788147091866,-0.01738608628511429,-0.011080557480454445,0.9994103908538818,-0.0059242392890155315,-0.013264192268252373,0.031124858185648918
484.0,0.0,0.0,0.0,0.0,0.0,0.0,-0.008598697371780872,-0.017157049849629402,-0.01490860991179943,0.9994192123413086,-0.008056490682065487,-0.01370894256979227,0.030149104073643684
485.0,0.0,0.0,0.0,0.0,0.0,0.0,-0.011697722598910332,-0.009641927666962147,-0.0034155454486608505,0.9994062781333923,-0.010087952949106693,-0.014489554800093174,0.02961037866771221
486.0,0.0,0.0,0.0,0.0,0.0,0.0,-0.016565842553973198,-0.0019397343276068568,0.00701375724747777,0.9993895292282104,-0.01150972954928875,-0.01570018194615841,0.029036302119493484
487.0,0.0,0.0,0.0,0.0,0.0,0.0,-0.01813451573252678,0.0031278934329748154,0.01058430690318346,0.999325692653656,-0.012049107812345028,-0.01764652319252491,0.02987658418715
488.0,0.0,0.0,0.0,0.0,0.0,0.0,-0.020527513697743416,0.003985644318163395,0.013955832459032536,0.9992411136627197,-0.01199183240532875,-0.019987670704722404,0.031224021688103676
489.0,0.0,0.0,0.0,0.0,0.0,0.0,-0.015749257057905197,0.0012073589023202658,0.009348715655505657,0.9991887211799622,-0.011378242634236813,-0.02254783920943737,0.031389299780130386
490.0,0.0,0.0,0.0,0.0,0.0,0.0,-0.013106321915984154,-0.0069981650449335575,0.00010181594552705064,0.9991230964660645,-0.01034189946949482,-0.02526937797665596,0.03174326941370964
491.0,0.0,0.0,0.0,0.0,0.0,0.0,-0.008873837068676949,-0.01187580730766058,-0.0037413532845675945,0.9990352392196655,-0.010885365307331085,-0.026501696556806564,0.03329439088702202
492.0,0.0,0.0,0.0,0.0,0.0,0.0,-0.018879491835832596,0.014927291311323643,0.005596534814685583,0.9988638162612915,-0.010441891849040985,-0.030382826924324036,0.035211045295000076
493.0,0.0,0.0,0.0,0.0,0.0,0.0,-0.021950986236333847,0.0029014935716986656,-0.0012514761183410883,0.9987421035766602,-0.010109307244420052,-0.033287402242422104,0.036124806851148605
494.0,0.0,0.0,0.0,0.0,0.0,0.0,-0.020557349547743797,-0.010139300487935543,0.0018501774175092578,0.9986505508422852,-0.010391847230494022,-0.03445487841963768,0.03744634613394737
495.0,0.0,0.0,0.0,0.0,0.0,0.0,-0.017087779939174652,0.0048986016772687435,-0.0021769755985587835,0.9986507296562195,-0.01080214325338602,-0.034520283341407776,0.03727121651172638
496.0,0.0,0.0,0.0,0.0,0.0,0.0,-0.010751580819487572,-0.0007626785663887858,-0.006770761217921972,0.9986211061477661,-0.011122501455247402,-0.03541436046361923,0.037130217999219894
497.0,0.0,0.0,0.0,0.0,0.0,0.0,-0.00703314458951354,-0.003911777399480343,-0.008870035409927368,0.9985904097557068,-0.011151434853672981,-0.036702997982501984,0.036690179258584976
498.0,0.0,0.0,0.0,0.0,0.0,0.0,-0.012028982862830162,0.004700697027146816,-0.0048853931948542595,0.9985852241516113,-0.011186105199158192,-0.037207722663879395,0.03632587939500809
499.0,0.0,0.0,0.0,0.0,0.0,0.0,-0.012424411252140999,0.00187464349437505,-0.0011931505287066102,0.9985438585281372,-0.011159515008330345,-0.03778154030442238,0.03685892000794411
500.0,0.0,0.0,0.0,0.0,0.0,0.0,-0.010823196731507778,0.006132237147539854,0.004309881944209337,0.9985537528991699,-0.011665658093988895,-0.03736143186688423,0.03686122968792915
501.0,0.0,0.0,0.0,0.0,0.0,0.0,-0.004710348788648844,0.0003627952828537673,0.004589570686221123,0.9986075162887573,-0.012055586092174053,-0.036138828843832016,0.03649844601750374
502.0,0.0,0.0,0.0,0.0,0.0,0.0,0.005840265657752752,-0.00015278387581929564,-0.0043290299363434315,0.9986208081245422,-0.012327747419476509,-0.03553876280784607,0.03663395717740059
503.0,0.0,0.0,0.0,0.0,0.0,0.0,0.004345453344285488,-0.00042269291589036584,-0.0007543176179751754,0.998627245426178,-0.011980483308434486,-0.03579610213637352,0.03631320223212242
504.0,0.0,0.0,0.0,0.0,0.0,0.0,0.005416656844317913,-0.005291950423270464,0.010136174038052559,0.9986593723297119,-0.011761224828660488,-0.035364747047424316,0.03592664748430252
505.0,0.0,0.0,0.0,0.0,0.0,0.0,0.006331761833280325,-0.003518224461004138,0.0026103255804628134,0.9987249374389648,-0.011989553458988667,-0.03404143080115318,0.03529913350939751
506.0,0.0,0.0,0.0,0.0,0.0,0.0,0.00133196369279176,-0.0003929563390556723,0.01716965064406395,0.9986254572868347,-0.012111321091651917,-0.03385617583990097,0.03814183920621872
507.0,0.0,0.0,0.0,0.0,0.0,0.0,0.0020770221017301083,-0.00107286823913455,0.0034992326982319355,0.9985636472702026,-0.010794137604534626,-0.034638792276382446,0.0394316203892231
508.0,0.0,0.0,0.0,0.0,0.0,0.0,-0.0023066753055900335,-0.0016334513202309608,0.014662664383649826,0.9985749125480652,-0.009298690594732761,-0.033604566007852554,0.040404919534921646
509.0,0.0,0.0,0.0,0.0,0.0,0.0,-0.004449392203241587,0.0010696713579818606,0.027804158627986908,0.9985976815223694,-0.006854167673736811,-0.032863181084394455,0.04093751311302185
510.0,0.0,0.0,0.0,0.0,0.0,0.0,-0.004598273895680904,0.0025191549211740494,0.006425823550671339,0.9986362457275391,-0.0036846029106527567,-0.03184732794761658,0.04121190309524536
511.0,0.0,0.0,0.0,0.0,0.0,0.0,-0.011268066242337227,-0.0007567767752334476,0.02369822934269905,0.9987139105796814,-0.0011212442768737674,-0.028807327151298523,0.04170798510313034
512.0,0.0,0.0,0.0,0.0,0.0,0.0,-0.004830428399145603,-0.005626549478620291,0.016207637265324593,0.9987945556640625,0.002005206886678934,-0.025420857593417168,0.04195450246334076
513.0,0.0,0.0,0.0,0.0,0.0,0.0,0.010335929691791534,-0.010547134093940258,-0.021294403821229935,0.9988541603088379,0.005901493597775698,-0.02224956452846527,0.04196958243846893
514.0,0.0,0.0,0.0,0.0,0.0,0.0,0.009566474705934525,-0.023090114817023277,0.006054478231817484,0.9988670349121094,0.010304278694093227,-0.01936812326312065,0.04223709926009178
515.0,0.0,0.0,0.0,0.0,0.0,0.0,0.030190985649824142,-0.03060966171324253,-0.009158490225672722,0.9988394379615784,0.01430986076593399,-0.018305014818906784,0.04219745099544525
516.0,0.0,0.0,0.0,0.0,0.0,0.0,0.032538626343011856,-0.0393839105963707,-0.017359506338834763,0.9988102912902832,0.017029693350195885,-0.018630625680088997,0.041729144752025604
517.0,0.0,0.0,0.0,0.0,0.0,0.0,0.0248061902821064,-0.041666075587272644,-0.00090526242274791,0.9986931681632996,0.019604410976171494,-0.02052658423781395,0.04250641539692879
518.0,0.0,0.0,0.0,0.0,0.0,0.0,0.01702342927455902,-0.03280885890126228,0.013970601372420788,0.9986070394515991,0.021180838346481323,-0.021459707990288734,0.04330630972981453
519.0,0.0,0.0,0.0,0.0,0.0,0.0,0.012311532162129879,-0.03291303664445877,0.028728919103741646,0.9985980987548828,0.021796641871333122,-0.021624550223350525,0.043126627802848816
520.0,0.0,0.0,0.0,0.0,0.0,0.0,0.01679345965385437,-0.03186888247728348,0.013817483559250832,0.998590886592865,0.022198764607310295,-0.022057702764868736,0.042870718985795975
521.0,0.0,0.0,0.0,0.0,0.0,0.0,0.0229475237429142,-0.030628783628344536,-0.0009185944218188524,0.9986256957054138,0.02171655185520649,-0.022236336022615433,0.04220002144575119
522.0,0.0,0.0,0.0,0.0,0.0,0.0,0.022846296429634094,-0.029009707272052765,-0.009322842583060265,0.9985803961753845,0.02119883894920349,-0.02313859760761261,0.043041929602622986
523.0,0.0,0.0,0.0,0.0,0.0,0.0,0.01177737396210432,-0.021290402859449387,0.0035674641840159893,0.9984835386276245,0.021054288372397423,-0.024723943322896957,0.044454921036958694
524.0,0.0,0.0,0.0,0.0,0.0,0.0,0.0027792344335466623,-0.01785801351070404,0.016003169119358063,0.9985197186470032,0.01913297362625599,-0.02476111240684986,0.044486649334430695
525.0,0.0,0.0,0.0,0.0,0.0,0.0,0.000518078391905874,-0.017130902037024498,0.029292341321706772,0.9986433982849121,0.015830593183636665,-0.022352218627929688,0.044287413358688354
526.0,0.0,0.0,0.0,0.0,0.0,0.0,0.011008026078343391,-0.01562096830457449,0.002991081913933158,0.9986745715141296,0.013717899098992348,-0.020564772188663483,0.0451497919857502
527.0,0.0,0.0,0.0,0.0,0.0,0.0,0.017420509830117226,-0.023220906034111977,-0.0034811836667358875,0.9986689686775208,0.01234004832804203,-0.02012721821665764,0.04585922136902809
528.0,0.0,0.0,0.0,0.0,0.0,0.0,0.012961622327566147,-0.01999552734196186,0.0056173489429056644,0.998728334903717,0.011258602142333984,-0.01946592517197132,0.045128658413887024
529.0,0.0,0.0,0.0,0.0,0.0,0.0,0.01786184310913086,-0.01798403263092041,-0.014290405437350273,0.9988481998443604,0.010483751073479652,-0.018284371122717857,0.04310724511742592
530.0,0.0,0.0,0.0,0.0,0.0,0.0,0.01822623610496521,-0.02243833616375923,-0.009695256128907204,0.9989545345306396,0.007963506504893303,-0.01728500798344612,0.041573554277420044
531.0,0.0,0.0,0.0,0.0,0.0,0.0,0.01271830778568983,-0.014407051727175713,-0.01689472422003746,0.9990204572677612,0.005113900173455477,-0.01661420240998268,0.04069545120000839
532.0,0.0,0.0,0.0,0.0,0.0,0.0,0.001162416418083012,-0.007520405575633049,-0.012237063609063625,0.9990509152412415,0.002830964047461748,-0.016246052458882332,0.04031410813331604
533.0,0.0,0.0,0.0,0.0,0.0,0.0,-0.007123960182070732,-0.00626949081197381,-0.005854603368788958,0.9990789890289307,0.00043519592145457864,-0.01483861729502678,0.04026555269956589
534.0,0.0,0.0,0.0,0.0,0.0,0.0,-0.002450005616992712,-0.01107728760689497,0.0009338546078652143,0.9991634488105774,-0.0017925845459103584,-0.012502573430538177,0.038899876177310944
535.0,0.0,0.0,0.0,0.0,0.0,0.0,0.0017960829427465796,-0.014375622384250164,-0.003087393706664443,0.9992599487304688,-0.003123748814687133,-0.010574131272733212,0.03685830906033516
536.0,0.0,0.0,0.0,0.0,0.0,0.0,0.0022305340971797705,-0.017230676487088203,-0.020724674686789513,0.9993455410003662,-0.0039881374686956406,-0.008762972429394722,0.034876737743616104
537.0,0.0,0.0,0.0,0.0,0.0,0.0,-0.0012309005251154304,-0.01702074706554413,-0.010309834964573383,0.9994067549705505,-0.004476645030081272,-0.007220523431897163,0.03337675333023071
538.0,0.0,0.0,0.0,0.0,0.0,0.0,0.0031036175787448883,-0.012438221834599972,-0.0037609899882227182,0.9994394183158875,-0.004159663803875446,-0.0075381845235824585,0.0323505662381649
539.0,0.0,0.0,0.0,0.0,0.0,0.0,-0.011007451452314854,-0.010344470851123333,-0.01641985774040222,0.9994731545448303,-0.0034265192225575447,-0.007831784896552563,0.031314775347709656
540.0,0.0,0.0,0.0,0.0,0.0,0.0,-0.008174706250429153,-0.01518907118588686,0.00961153581738472,0.999525249004364,-0.0018343403935432434,-0.007729271426796913,0.029768820852041245
541.0,0.0,0.0,0.0,0.0,0.0,0.0,-0.00168754649348557,-0.018654974177479744,-0.006062510889023542,0.9995766878128052,-0.0005814055330120027,-0.008036894723773003,0.027953073382377625
542.0,0.0,0.0,0.0,0.0,0.0,0.0,-0.02282809652388096,-0.0018037072150036693,0.03427921235561371,0.9996000528335571,0.0002985103346873075,-0.007627012208104134,0.027234671637415886
543.0,0.0,0.0,0.0,0.0,0.0,0.0,-0.02377679944038391,0.0037203284446150064,0.02534775622189045,0.9996086955070496,0.0013777524000033736,-0.006866069044917822,0.027080556377768517
544.0,0.0,0.0,0.0,0.0,0.0,0.0,-0.01474221982061863,-0.0057432386092841625,0.029560400173068047,0.9995742440223694,0.0038640284910798073,-0.0067009394988417625,0.02813689596951008
545.0,0.0,0.0,0.0,0.0,0.0,0.0,-0.0061850231140851974,-0.006379051599651575,0.03465799614787102,0.999492883682251,0.007135042920708656,-0.007108383346349001,0.030219072476029396
546.0,0.0,0.0,0.0,0.0,0.0,0.0,-0.012551285326480865,0.001433039316907525,0.037979479879140854,0.9994078278541565,0.011393439956009388,-0.007783952634781599,0.03152477741241455
547.0,0.0,0.0,0.0,0.0,0.0,0.0,-0.02383924275636673,0.005005901213735342,0.0419820211827755,0.9993013739585876,0.015884334221482277,-0.006946573033928871,0.03311812877655029
548.0,0.0,0.0,0.0,0.0,0.0,0.0,-0.019454212859272957,0.004811652470380068,0.039225589483976364,0.9991580247879028,0.020171135663986206,-0.004689591005444527,0.03542482480406761
549.0,0.0,0.0,0.0,0.0,0.0,0.0,0.007281112484633923,-0.01128516998142004,-0.004349884111434221,0.9990453124046326,0.024415677413344383,-0.0024029037449508905,0.036159731447696686
550.0,0.0,0.0,0.0,0.0,0.0,0.0,0.01704668626189232,-0.02257922664284706,-0.03510347008705139,0.9989436864852905,0.027824316173791885,-0.0006861729780212045,0.03657276928424835
551.0,0.0,0.0,0.0,0.0,0.0,0.0,0.00862248707562685,-0.014064324088394642,-0.022707955911755562,0.9988176822662354,0.031193722039461136,0.00022473801800515503,0.03728350251913071
552.0,0.0,0.0,0.0,0.0,0.0,0.0,0.01605803146958351,-0.01556715089827776,-0.052158355712890625,0.9987740516662598,0.0332452654838562,0.0019110346911475062,0.03663818538188934
553.0,0.0,0.0,0.0,0.0,0.0,0.0,0.014555681496858597,-0.027974994853138924,-0.04731902480125427,0.9987998604774475,0.03294491022825241,0.0031790868379175663,0.03611617907881737
554.0,0.0,0.0,0.0,0.0,0.0,0.0,-0.002035886514931917,-0.018451077863574028,-0.03356805071234703,0.9988318681716919,0.03241119533777237,0.0038109857123345137,0.03563809022307396
555.0,0.0,0.0,0.0,0.0,0.0,0.0,-0.000644541869405657,-0.02907109260559082,-0.048093196004629135,0.9988508224487305,0.03155745938420296,0.0035844985395669937,0.03589204326272011
556.0,0.0,0.0,0.0,0.0,0.0,0.0,0.005538008641451597,-0.029563190415501595,-0.022859476506710052,0.9988755583763123,0.030068889260292053,0.003300340147688985,0.03651618957519531
557.0,0.0,0.0,0.0,0.0,0.0,0.0,0.017706342041492462,-0.03320571035146713,-0.0196996983140707,0.999035656452179,0.027245936915278435,0.003298344789072871,0.03427443653345108
558.0,0.0,0.0,0.0,0.0,0.0,0.0,0.024210786446928978,-0.02863844484090805,-0.05173376575112343,0.9992144107818604,0.023530123755335808,0.0014183444436639547,0.03186701983213425
559.0,0.0,0.0,0.0,0.0,0.0,0.0,-0.005005654413253069,-0.02341967448592186,0.0176994688808918,0.9993076324462891,0.02012881077826023,-0.002397632459178567,0.031201383098959923
560.0,0.0,0.0,0.0,0.0,0.0,0.0,-0.004233955405652523,-0.019053570926189423,0.03688425198197365,0.9994006752967834,0.01680750958621502,-0.005295889917761087,0.029802855104207993
561.0,0.0,0.0,0.0,0.0,0.0,0.0,0.008366922847926617,-0.013449112884700298,0.009582443162798882,0.9994800090789795,0.013677292503416538,-0.008520490489900112,0.027945540845394135
562.0,0.0,0.0,0.0,0.0,0.0,0.0,-0.015589792281389236,0.002041285391896963,0.022512689232826233,0.9995031952857971,0.010730817914009094,-0.011406421661376953,0.027350233867764473
563.0,0.0,0.0,0.0,0.0,0.0,0.0,-0.022728292271494865,0.0018750964663922787,0.04043024778366089,0.9994819760322571,0.00788152776658535,-0.01330548245459795,0.02823486737906933
564.0,0.0,0.0,0.0,0.0,0.0,0.0,-0.0019759959541261196,0.005242073908448219,0.009320927783846855,0.9994543194770813,0.006090301088988781,-0.015374548733234406,0.02859073132276535
565.0,0.0,0.0,0.0,0.0,0.0,0.0,-0.002049615839496255,0.003645127173513174,0.014508564956486225,0.9995020627975464,0.003821491962298751,-0.01588871143758297,0.026993317529559135
566.0,0.0,0.0,0.0,0.0,0.0,0.0,-0.006675376556813717,0.0014407845446839929,0.00450410321354866,0.9995007514953613,-0.0006624513771384954,-0.016941631212830544,0.026666203513741493
567.0,0.0,0.0,0.0,0.0,0.0,0.0,0.004256869200617075,0.0009519460727460682,0.0008981954888440669,0.9994373917579651,0.0004605375579558313,-0.01691138930618763,0.028976067900657654
568.0,0.0,0.0,0.0,0.0,0.0,0.0,-0.007412825245410204,-0.001498612342402339,0.0035086728166788816,0.9994028806686401,-0.0019983819220215082,-0.019777217879891396,0.02828253246843815
569.0,0.0,0.0,0.0,0.0,0.0,0.0,0.007497246842831373,-0.01380164548754692,-0.007085789926350117,0.9994877576828003,-0.005087823141366243,-0.021025093272328377,0.023602573201060295
570.0,0.0,0.0,0.0,0.0,0.0,0.0,0.007481097709387541,-0.004391187336295843,-0.027734432369470596,0.999377429485321,-0.003741768654435873,-0.022402150556445122,0.027007218450307846
571.0,0.0,0.0,0.0,0.0,0.0,0.0,-0.009450879879295826,-0.0016959125641733408,0.016264552250504494,0.9993830323219299,-0.008404621854424477,-0.024289721623063087,0.023948505520820618
572.0,0.0,0.0,0.0,0.0,0.0,0.0,-0.006324185989797115,0.003427470801398158,0.01190289855003357,0.9993624091148376,-0.009760027751326561,-0.026213793084025383,0.02219056710600853
573.0,0.0,0.0,0.0,0.0,0.0,0.0,-0.012590774334967136,0.0038431715220212936,0.011860668659210205,0.9991806745529175,-0.00906439870595932,-0.028556091710925102,0.027216633781790733
574.0,0.0,0.0,0.0,0.0,0.0,0.0,-0.001863855286501348,-0.0005317817558534443,0.016238082200288773,0.9991685748100281,-0.010004262439906597,-0.0297845508903265,0.025979049503803253
575.0,0.0,0.0,0.0,0.0,0.0,0.0,0.004431052599102259,-0.0016748271882534027,0.019623255357146263,0.9991924166679382,-0.009672696702182293,-0.030840106308460236,0.02388276532292366
576.0,0.0,0.0,0.0,0.0,0.0,0.0,0.001006999402306974,0.00013690469495486468,0.01470870990306139,0.9991083145141602,-0.011630802415311337,-0.030758630484342575,0.02648462913930416
577.0,0.0,0.0,0.0,0.0,0.0,0.0,0.0012385391164571047,0.0010804076446220279,0.022288572043180466,0.9991381764411926,-0.011234278790652752,-0.031013378873467445,0.02519189566373825
578.0,0.0,0.0,0.0,0.0,0.0,0.0,0.010223484598100185,-0.007780642248690128,0.002277700463309884,0.9991306662559509,-0.00985159631818533,-0.032038670033216476,0.024797197431325912
579.0,0.0,0.0,0.0,0.0,0.0,0.0,-0.0016447976231575012,0.002811252139508724,0.017114832997322083,0.999082088470459,-0.013135270215570927,-0.030734946951270103,0.02680146135389805
580.0,0.0,0.0,0.0,0.0,0.0,0.0,0.007764092180877924,-0.009955926798284054,0.0015529884258285165,0.999077320098877,-0.011758383363485336,-0.03140430524945259,0.026839997619390488
581.0,0.0,0.0,0.0,0.0,0.0,0.0,0.008871681988239288,-0.013996336609125137,-0.006925840862095356,0.9990634918212891,-0.01127440296113491,-0.0319160521030426,0.02694881707429886
582.0,0.0,0.0,0.0,0.0,0.0,0.0,0.008240815252065659,-0.00877369474619627,-0.0048391008749604225,0.999078094959259,-0.012949109077453613,-0.03072068840265274,0.02705235406756401
583.0,0.0,0.0,0.0,0.0,0.0,0.0,0.013388523831963539,-0.017946718260645866,-0.006300240755081177,0.9991009831428528,-0.011715750209987164,-0.03098081797361374,0.026464853435754776
584.0,0.0,0.0,0.0,0.0,0.0,0.0,0.00790762435644865,-0.012358871288597584,0.006767666898667812,0.9991456866264343,-0.011464823968708515,-0.030095143243670464,0.025899555534124374
585.0,0.0,0.0,0.0,0.0,0.0,0.0,0.010316428728401661,-0.018393978476524353,0.001087778015062213,0.9991418123245239,-0.012737817130982876,-0.029089409857988358,0.026607774198055267
586.0,0.0,0.0,0.0,0.0,0.0,0.0,0.010178823955357075,-0.014707333408296108,0.0042449068278074265,0.9991286993026733,-0.011105619370937347,-0.02979833260178566,0.027043264359235764
587.0,0.0,0.0,0.0,0.0,0.0,0.0,0.012481418438255787,-0.011745407246053219,0.004989649634808302,0.9991841912269592,-0.009951941668987274,-0.028505168855190277,0.026824401691555977
588.0,0.0,0.0,0.0,0.0,0.0,0.0,0.011617681011557579,-0.015336486510932446,0.005731840152293444,0.9991421103477478,-0.009620646946132183,-0.02892066352069378,0.028050145134329796
589.0,0.0,0.0,0.0,0.0,0.0,0.0,0.007084133569151163,-0.0054901838302612305,0.008820303715765476,0.999200701713562,-0.007785291876643896,-0.027602609246969223,0.02785268798470497
590.0,0.0,0.0,0.0,0.0,0.0,0.0,-0.004766366444528103,-0.009000922553241253,0.025914112105965614,0.999223530292511,-0.004175178706645966,-0.026723675429821014,0.02865138277411461
591.0,0.0,0.0,0.0,0.0,0.0,0.0,-0.0005427149008028209,0.0016299757407978177,0.020070282742381096,0.9992972016334534,-0.004629442468285561,-0.025650931522250175,0.026945481076836586
592.0,0.0,0.0,0.0,0.0,0.0,0.0,0.0011770122218877077,-0.015795383602380753,0.006545563228428364,0.9993571043014526,-0.0010912884026765823,-0.022945398464798927,0.027531303465366364
593.0,0.0,0.0,0.0,0.0,0.0,0.0,0.010058282874524593,-0.019273966550827026,0.00033715632162056863,0.9994202852249146,0.0023041958920657635,-0.01954793930053711,0.02778520993888378
594.0,0.0,0.0,0.0,0.0,0.0,0.0,0.00529706384986639,-0.014948016032576561,0.0015211171703413129,0.9994518756866455,0.0008906138828024268,-0.017985986545681953,0.0277774166315794
595.0,0.0,0.0,0.0,0.0,0.0,0.0,0.011859321035444736,-0.023712826892733574,0.006665288005024195,0.9994357228279114,0.0045553348027169704,-0.016287771984934807,0.02902243658900261
596.0,0.0,0.0,0.0,0.0,0.0,0.0,-0.0031527646351605654,-0.03165597841143608,0.02838127315044403,0.9993451833724976,0.008441057056188583,-0.01400070358067751,0.03229139745235443
597.0,0.0,0.0,0.0,0.0,0.0,0.0,0.00048316101310774684,-0.02233848348259926,0.012508800253272057,0.9993640184402466,0.007997957058250904,-0.015413730405271053,0.03115333989262581
598.0,0.0,0.0,0.0,0.0,0.0,0.0,0.02000533603131771,-0.024345695972442627,0.01280867587774992,0.999257504940033,0.011442274786531925,-0.012122519314289093,0.0347384549677372
599.0,0.0,0.0,0.0,0.0,0.0,0.0,0.0076031312346458435,-0.02497992478311062,-0.0143081434071064,0.9991706609725952,0.01594894751906395,-0.01283450797200203,0.03520303592085838
600.0,0.0,0.0,0.0,0.0,0.0,0.0,0.02094653807580471,-0.008797931484878063,-0.00975719839334488,0.9991503357887268,0.015135474503040314,-0.01366432849317789,0.03582111746072769
601.0,0.0,0.0,0.0,0.0,0.0,0.0,0.010074170306324959,-0.018453285098075867,-0.016778545454144478,0.9990403652191162,0.017541825771331787,-0.013618158176541328,0.03776206448674202
602.0,0.0,0.0,0.0,0.0,0.0,0.0,-0.017959782853722572,-0.013006137683987617,0.028528966009616852,0.9989853501319885,0.017953764647245407,-0.012436730787158012,0.0393928661942482
603.0,0.0,0.0,0.0,0.0,0.0,0.0,-0.004461538977921009,-0.006851389538496733,0.003944120369851589,0.9989920854568481,0.01606179215013981,-0.011941713280975819,0.04017333686351776
604.0,0.0,0.0,0.0,0.0,0.0,0.0,0.0026564113795757294,-0.026361895725131035,-0.022845812141895294,0.9989592432975769,0.016022035852074623,-0.011127680540084839,0.04123656451702118
605.0,0.0,0.0,0.0,0.0,0.0,0.0,0.001840860233642161,-0.03653229400515556,-0.00619460828602314,0.9989286065101624,0.014498055912554264,-0.010678082704544067,0.042637694627046585
606.0,0.0,0.0,0.0,0.0,0.0,0.0,0.015609645284712315,-0.03989069536328316,-0.040790531784296036,0.999022364616394,0.013623961247503757,-0.009188730269670486,0.041043542325496674
607.0,0.0,0.0,0.0,0.0,0.0,0.0,0.0007872519199736416,-0.03558632358908653,-0.008708448149263859,0.9990391135215759,0.01169585157185793,-0.00916415173560381,0.04123149439692497
608.0,0.0,0.0,0.0,0.0,0.0,0.0,0.011314036324620247,-0.03855128213763237,-0.012608129531145096,0.9991233348846436,0.008197973482310772,-0.009030533954501152,0.040048401802778244
609.0,0.0,0.0,0.0,0.0,0.0,0.0,0.005755275022238493,-0.03796936571598053,-0.014657717198133469,0.9991523623466492,0.009204586036503315,-0.008691055700182915,0.039173025637865067
610.0,0.0,0.0,0.0,0.0,0.0,0.0,-0.006723626051098108,-0.026889484375715256,0.008510461077094078,0.9991758465766907,0.005125582218170166,-0.009107965044677258,0.03922748938202858
611.0,0.0,0.0,0.0,0.0,0.0,0.0,-0.00796768069267273,-0.022033045068383217,0.010554688982665539,0.9991669654846191,0.0021828338503837585,-0.009649565443396568,0.039593782275915146
612.0,0.0,0.0,0.0,0.0,0.0,0.0,-0.013206912204623222,-0.022324319928884506,0.020746897906064987,0.9992043375968933,0.002761085983365774,-0.008852961473166943,0.03879472240805626
613.0,0.0,0.0,0.0,0.0,0.0,0.0,-0.005226995795965195,-0.024360014125704765,0.009779950603842735,0.9991719722747803,0.0010365821653977036,-0.009170516394078732,0.0396261103451252
614.0,0.0,0.0,0.0,0.0,0.0,0.0,-0.008470147848129272,-0.02361716330051422,0.010504280216991901,0.9991791844367981,-0.00043468468356877565,-0.00818275474011898,0.03967992961406708
615.0,0.0,0.0,0.0,0.0,0.0,0.0,0.0015182164497673512,-0.027652135118842125,0.010073632001876831,0.9992148280143738,0.0009223546949215233,-0.00874163769185543,0.03862947225570679
616.0,0.0,0.0,0.0,0.0,0.0,0.0,-0.003167100017890334,-0.020710453391075134,0.0064399950206279755,0.999228835105896,0.0005661841132678092,-0.008641375228762627,0.03830078989267349
617.0,0.0,0.0,0.0,0.0,0.0,0.0,0.011964640580117702,-0.035253435373306274,-0.024003557860851288,0.9993261694908142,-0.0009056292474269867,-0.009140245616436005,0.035538770258426666
618.0,0.0,0.0,0.0,0.0,0.0,0.0,0.005423367023468018,-0.026799872517585754,-0.010674289427697659,0.9993746876716614,0.0029559785034507513,-0.010967263951897621,0.03348838537931442
619.0,0.0,0.0,0.0,0.0,0.0,0.0,-0.0012234485475346446,-0.03236740827560425,0.01288851909339428,0.9994222521781921,0.0012343720300123096,-0.012849797494709492,0.03144912049174309
620.0,0.0,0.0,0.0,0.0,0.0,0.0,-0.005148324649780989,-0.026694631204009056,0.007180787622928619,0.9993990063667297,-0.0011024539126083255,-0.01515906397253275,0.03116866573691368
621.0,0.0,0.0,0.0,0.0,0.0,0.0,-0.010249238461256027,-0.02198708988726139,0.026665035635232925,0.9993706345558167,0.004769689403474331,-0.018461259081959724,0.029910117387771606
622.0,0.0,0.0,0.0,0.0,0.0,0.0,-0.007695420179516077,-0.0163022018969059,0.015031927265226841,0.9993199706077576,0.004328461829572916,-0.020962579175829887,0.0300191268324852
623.0,0.0,0.0,0.0,0.0,0.0,0.0,-0.016199246048927307,0.006660717073827982,0.03424456715583801,0.9991689324378967,0.005338034592568874,-0.023033156991004944,0.03320860490202904
624.0,0.0,0.0,0.0,0.0,0.0,0.0,-0.013041880913078785,-0.001809513196349144,0.021184349432587624,0.9991170763969421,0.010345304384827614,-0.026157265529036522,0.03121788054704666
625.0,0.0,0.0,0.0,0.0,0.0,0.0,-0.015606723725795746,0.010176760144531727,0.02027224563062191,0.9990062713623047,0.009622827172279358,-0.026018798351287842,0.034897178411483765
626.0,0.0,0.0,0.0,0.0,0.0,0.0,-0.006890143733471632,0.010172810405492783,-0.021446919068694115,0.9989853501319885,0.009352986700832844,-0.023025725036859512,0.037572868168354034
627.0,0.0,0.0,0.0,0.0,0.0,0.0,-0.016512330621480942,0.014590982347726822,0.001667191507294774,0.9990315437316895,0.01031048595905304,-0.024887830018997192,0.03480653837323189
628.0,0.0,0.0,0.0,0.0,0.0,0.0,-0.0044007436372339725,-0.0034821073058992624,-0.03139190375804901,0.999006450176239,0.010145582258701324,-0.022951139137148857,0.036839913576841354
629.0,0.0,0.0,0.0,0.0,0.0,0.0,-0.0051868995651602745,-0.004349531140178442,-0.030287396162748337,0.9990013837814331,0.008206925354897976,-0.02115558460354805,0.03848839923739433
630.0,0.0,0.0,0.0,0.0,0.0,0.0,-0.010998167097568512,0.004716252908110619,-0.01841297186911106,0.9991350173950195,0.007280421908944845,-0.019934259355068207,0.0357673205435276
631.0,0.0,0.0,0.0,0.0,0.0,0.0,-0.00039237047894857824,-0.009930689819157124,-0.0339638888835907,0.9990467429161072,0.00459857564419508,-0.02025713585317135,0.038414835929870605
632.0,0.0,0.0,0.0,0.0,0.0,0.0,-0.0019224740099161863,-0.004200685769319534,-0.026932120323181152,0.9990037679672241,0.0019943059887737036,-0.020290689542889595,0.03970741108059883
633.0,0.0,0.0,0.0,0.0,0.0,0.0,-0.005348109640181065,-0.004472301807254553,-0.022767262533307076,0.9991222023963928,0.001576162176206708,-0.017358537763357162,0.038120757788419724
634.0,0.0,0.0,0.0,0.0,0.0,0.0,-0.008755642920732498,0.0014404990943148732,0.0024653917644172907,0.9990097880363464,-0.0008695393335074186,-0.01754450611770153,0.040892958641052246
635.0,0.0,0.0,0.0,0.0,0.0,0.0,-0.004961652215570211,-0.01003294251859188,0.005070682615041733,0.9987221360206604,-0.001075609470717609,-0.020518580451607704,0.046184491366147995
636.0,0.0,0.0,0.0,0.0,0.0,0.0,-0.01073339581489563,0.002569091273471713,0.01076835859566927,0.9989243745803833,-0.0033033876679837704,-0.013771218247711658,0.044165320694446564
637.0,0.0,0.0,0.0,0.0,0.0,0.0,0.002171906176954508,-0.007465399336069822,-0.004393500741571188,0.9986894726753235,-0.0044453199952840805,-0.01502955425530672,0.0487196110188961
638.0,0.0,0.0,0.0,0.0,0.0,0.0,-0.000653209222946316,-0.010412919335067272,0.0035370562691241503,0.9985476136207581,-0.007013367488980293,-0.014572997577488422,0.05139652639627457
639.0,0.0,0.0,0.0,0.0,0.0,0.0,0.0032665389589965343,-0.005713182035833597,-0.009970380924642086,0.9986768364906311,-0.007026820909231901,-0.009383483789861202,0.0500788614153862
640.0,0.0,0.0,0.0,0.0,0.0,0.0,-0.0006255776970647275,-0.011574231088161469,-0.007126632146537304,0.998465895652771,-0.008495796471834183,-0.00990711897611618,0.053821053355932236
641.0,0.0,0.0,0.0,0.0,0.0,0.0,-0.005074756685644388,-0.012165773659944534,-0.012205586768686771,0.9981801509857178,-0.011558846570551395,-0.01084025390446186,0.05818438157439232
642.0,0.0,0.0,0.0,0.0,0.0,0.0,-0.0022588439751416445,-0.014006255194544792,-0.020882708951830864,0.9983683824539185,-0.009939402341842651,-0.004857692401856184,0.05602293461561203
643.0,0.0,0.0,0.0,0.0,0.0,0.0,-0.01605633646249771,-0.005152777303010225,-0.005804889835417271,0.9980440735816956,-0.012191361747682095,-0.005434412509202957,0.061088286340236664
644.0,0.0,0.0,0.0,0.0,0.0,0.0,-0.024502446874976158,0.0016944101080298424,0.012180948629975319,0.9976728558540344,-0.013851135037839413,-0.00678566237911582,0.06642021983861923
645.0,0.0,0.0,0.0,0.0,0.0,0.0,-0.021052220836281776,0.0008869491866789758,-0.0021360383834689856,0.9979426264762878,-0.010162838734686375,-0.0004800885799340904,0.06330142915248871
646.0,0.0,0.0,0.0,0.0,0.0,0.0,-0.018392059952020645,0.002631634706631303,0.005594631191343069,0.9976853728294373,-0.010531643405556679,-0.0019281940767541528,0.06716592609882355
647.0,0.0,0.0,0.0,0.0,0.0,0.0,-0.03343149274587631,0.014940974302589893,0.025187477469444275,0.9975005984306335,-0.009017009288072586,-0.003055043751373887,0.07001940160989761
648.0,0.0,0.0,0.0,0.0,0.0,0.0,-0.028523260727524757,0.01308738999068737,0.015074183233082294,0.9978143572807312,-0.006735998671501875,0.0020314492285251617,0.06571944802999496
649.0,0.0,0.0,0.0,0.0,0.0,0.0,-0.025634078308939934,0.0128322783857584,0.024057837203145027,0.9976683259010315,-0.0058413296937942505,0.0013098032213747501,0.0679861456155777
650.0,0.0,0.0,0.0,0.0,0.0,0.0,-0.009733160957694054,0.008307409472763538,0.013699648901820183,0.9976980686187744,-0.003228127956390381,0.0020813720766454935,0.06771270185709
651.0,0.0,0.0,0.0,0.0,0.0,0.0,-0.017110249027609825,0.015306804329156876,0.017695371061563492,0.9978324174880981,-0.0012172441929578781,0.003017136361449957,0.06573908776044846
652.0,0.0,0.0,0.0,0.0,0.0,0.0,-0.0014990655472502112,-0.0011650839587673545,0.01103571429848671,0.9979719519615173,0.00070509675424546,0.004385687410831451,0.06351254880428314
653.0,0.0,0.0,0.0,0.0,0.0,0.0,0.007302484475076199,-0.02232222445309162,0.00783662311732769,0.9980702996253967,0.0019295482197776437,0.00450180983170867,0.06190894544124603
654.0,0.0,0.0,0.0,0.0,0.0,0.0,0.0034211871679872274,-0.013910701498389244,0.005880541168153286,0.9981058835983276,0.0022569112479686737,0.0053575299680233,0.061254799365997314
655.0,0.0,0.0,0.0,0.0,0.0,0.0,0.006520182825624943,-0.025096777826547623,0.006972888484597206,0.9981575608253479,0.0033869461622089148,0.004259994253516197,0.06043034791946411
656.0,0.0,0.0,0.0,0.0,0.0,0.0,0.009462851099669933,-0.028517814353108406,0.004115085117518902,0.9983262419700623,0.004758615046739578,0.004139054100960493,0.05749629810452461
657.0,0.0,0.0,0.0,0.0,0.0,0.0,0.006266282871365547,-0.026027657091617584,0.009581407532095909,0.9982814788818359,0.005179444327950478,0.004262891132384539,0.05821618437767029
658.0,0.0,0.0,0.0,0.0,0.0,0.0,0.011393973603844643,-0.030468925833702087,0.004866356495767832,0.9983993768692017,0.006119444500654936,0.00385273527354002,0.056115102022886276
659.0,0.0,0.0,0.0,0.0,0.0,0.0,0.015900231897830963,-0.034581929445266724,0.0045700399205088615,0.9986076951026917,0.007017390336841345,0.004098477307707071,0.05213586241006851
660.0,0.0,0.0,0.0,0.0,0.0,0.0,0.012529417872428894,-0.03319057077169418,0.005332171451300383,0.998535692691803,0.00808000285178423,0.0027822284027934074,0.05342649295926094
661.0,0.0,0.0,0.0,0.0,0.0,0.0,0.01965651474893093,-0.041348423808813095,0.0065668607130646706,0.9986942410469055,0.009826332330703735,0.0014675232814624906,0.05013878270983696
662.0,0.0,0.0,0.0,0.0,0.0,0.0,0.013645041733980179,-0.03307034820318222,0.008506673388183117,0.9988275766372681,0.010621563531458378,0.0009246936533600092,0.047239504754543304
663.0,0.0,0.0,0.0,0.0,0.0,0.0,0.021988071501255035,-0.045118749141693115,0.00684426398947835,0.9987362027168274,0.010735906660556793,0.0004609954194165766,0.04911603778600693
664.0,0.0,0.0,0.0,0.0,0.0,0.0,0.00045864269486628473,-0.026726365089416504,0.02527305856347084,0.9987874627113342,0.010280347429215908,0.0009303352562710643,0.04813462495803833
665.0,0.0,0.0,0.0,0.0,0.0,0.0,0.01823277585208416,-0.029602602124214172,0.0008724879007786512,0.9987363815307617,0.011757905595004559,0.0019472520798444748,0.04883880913257599
666.0,0.0,0.0,0.0,0.0,0.0,0.0,0.0026356237940490246,-0.023706119507551193,0.02519271895289421,0.9986535906791687,0.011613275855779648,0.0012060749577358365,0.050558000802993774
667.0,0.0,0.0,0.0,0.0,0.0,0.0,-0.007363447919487953,-0.013408629223704338,0.025493763387203217,0.9986107349395752,0.014297554269433022,0.00203664880245924,0.050698164850473404
668.0,0.0,0.0,0.0,0.0,0.0,0.0,-0.007982779294252396,0.0007503433735109866,0.022401832044124603,0.9984773397445679,0.01972375437617302,0.005707221571356058,0.05122293904423714
669.0,0.0,0.0,0.0,0.0,0.0,0.0,-0.028407687321305275,0.00787283107638359,0.05431990697979927,0.9985184669494629,0.01262949500232935,0.0076880124397575855,0.05238053947687149
670.0,0.0,0.0,0.0,0.0,0.0,0.0,-0.005775167141109705,0.006138750817626715,0.003123834263533354,0.9983433485031128,0.018820911645889282,0.010725241154432297,0.05331191420555115
671.0,0.0,0.0,0.0,0.0,0.0,0.0,0.009175391867756844,-0.02706753835082054,0.045002531260252,0.9982905387878418,0.026846889406442642,0.013120198622345924,0.05023738741874695
672.0,0.0,0.0,0.0,0.0,0.0,0.0,0.0017031324096024036,-0.0023267825599759817,0.039808306843042374,0.9982235431671143,0.018683606758713722,0.011951806955039501,0.05530897155404091
673.0,0.0,0.0,0.0,0.0,0.0,0.0,0.0026105327997356653,-0.01935814879834652,0.03220280259847641,0.998191237449646,0.026246443390846252,0.01320955902338028,0.05245300009846687
674.0,0.0,0.0,0.0,0.0,0.0,0.0,0.027007147669792175,-0.04590432718396187,-0.003240259364247322,0.9981288313865662,0.03270679712295532,0.014480313286185265,0.04960225895047188
675.0,0.0,0.0,0.0,0.0,0.0,0.0,0.010759103111922741,-0.025799037888646126,0.013416002504527569,0.9980834126472473,0.02593189850449562,0.009912647306919098,0.05530691519379616
676.0,0.0,0.0,0.0,0.0,0.0,0.0,0.024520201608538628,-0.04783304035663605,-0.013237899169325829,0.9981302618980408,0.03135804459452629,0.01199408806860447,0.051080118864774704
677.0,0.0,0.0,0.0,0.0,0.0,0.0,0.01433448027819395,-0.03426692262291908,0.007599388714879751,0.9982190132141113,0.034157637506723404,0.016877496615052223,0.04590369388461113
678.0,0.0,0.0,0.0,0.0,0.0,0.0,0.015663012862205505,-0.04036492109298706,0.00443950854241848,0.9981366991996765,0.030126499012112617,0.010067305527627468,0.05210002139210701
679.0,0.0,0.0,0.0,0.0,0.0,0.0,0.015365349128842354,-0.038956303149461746,-0.0030369760934263468,0.9982033967971802,0.03323327377438545,0.012967808172106743,0.048147160559892654
680.0,0.0,0.0,0.0,0.0,0.0,0.0,0.021686147898435593,-0.036791976541280746,-0.010273516178131104,0.998242974281311,0.035647813230752945,0.015579214319586754,0.04469973221421242
681.0,0.0,0.0,0.0,0.0,0.0,0.0,0.017090046778321266,-0.037894703447818756,-0.005438709165900946,0.9981491565704346,0.032702140510082245,0.01058865338563919,0.050169847905635834
682.0,0.0,0.0,0.0,0.0,0.0,0.0,0.02484491840004921,-0.03614284470677376,-0.012312560342252254,0.9982753992080688,0.03454720601439476,0.013611153699457645,0.045471202582120895
683.0,0.0,0.0,0.0,0.0,0.0,0.0,0.031233463436365128,-0.03439011424779892,-0.011811476200819016,0.9983646869659424,0.036913517862558365,0.014159761369228363,0.04129551723599434
684.0,0.0,0.0,0.0,0.0,0.0,0.0,0.02854376658797264,-0.032929666340351105,-0.01731223799288273,0.9982627034187317,0.03559493273496628,0.010747415944933891,0.04571361467242241
685.0,0.0,0.0,0.0,0.0,0.0,0.0,0.03345780074596405,-0.03530830144882202,-0.011939186602830887,0.9983259439468384,0.03859575092792511,0.010144972242414951,0.04186815768480301
686.0,0.0,0.0,0.0,0.0,0.0,0.0,0.03830711916089058,-0.04095275700092316,-0.0038594757206737995,0.9984332919120789,0.04067589342594147,0.0091251190751791,0.0373331643640995
687.0,0.0,0.0,0.0,0.0,0.0,0.0,0.030878936871886253,-0.03935817629098892,-0.00825318694114685,0.9983403086662292,0.040534231811761856,0.007094331085681915,0.04029642418026924
688.0,0.0,0.0,0.0,0.0,0.0,0.0,0.04973451793193817,-0.04724809527397156,-0.021563397720456123,0.998383641242981,0.043943993747234344,0.0047341748140752316,0.03573675453662872
689.0,0.0,0.0,0.0,0.0,0.0,0.0,0.04310167208313942,-0.05361359566450119,0.0006189109990373254,0.9984130263328552,0.046832289546728134,0.0008713934221304953,0.03127027302980423
690.0,0.0,0.0,0.0,0.0,0.0,0.0,0.04330180585384369,-0.04748636856675148,-0.004068965092301369,0.9982134103775024,0.048130299896001816,-0.0014472445473074913,0.03537268936634064
691.0,0.0,0.0,0.0,0.0,0.0,0.0,0.04216814041137695,-0.046294935047626495,0.00012886295735370368,0.9982158541679382,0.05003153905272484,-0.005871424917131662,0.032059453427791595
692.0,0.0,0.0,0.0,0.0,0.0,0.0,0.0029957720544189215,-0.0579129159450531,0.06380554288625717,0.9982768893241882,0.04958910122513771,-0.009142838418483734,0.030015291646122932
693.0,0.0,0.0,0.0,0.0,0.0,0.0,0.02851272188127041,-0.04441053792834282,0.005450842436403036,0.9981971383094788,0.04884318262338638,-0.009768344461917877,0.03348870202898979
694.0,0.0,0.0,0.0,0.0,0.0,0.0,0.02838204614818096,-0.046164534986019135,0.018420500680804253,0.9983505010604858,0.04560410976409912,-0.009664701297879219,0.03351745381951332
695.0,0.0,0.0,0.0,0.0,0.0,0.0,0.01052277721464634,-0.052211370319128036,0.01117029506713152,0.998447060585022,0.04463564231991768,-0.013047769665718079,0.03067840449512005
696.0,0.0,0.0,0.0,0.0,0.0,0.0,0.04973277449607849,-0.04606897383928299,-0.05504921078681946,0.9985368847846985,0.042638059705495834,-0.010781985707581043,0.03146643191576004
697.0,0.0,0.0,0.0,0.0,0.0,0.0,0.008151150308549404,-0.03331175446510315,0.006916797254234552,0.998663604259491,0.04103397950530052,-0.013153096660971642,0.028533726930618286
698.0,0.0,0.0,0.0,0.0,0.0,0.0,0.0010749739594757557,-0.03298985958099365,-0.0030548139475286007,0.9987427592277527,0.03957941010594368,-0.01681770570576191,0.025763681158423424
699.0,0.0,0.0,0.0,0.0,0.0,0.0,0.010916398838162422,-0.02657206542789936,-0.026290860027074814,0.998943030834198,0.03606963902711868,-0.012831767089664936,0.025440189987421036
700.0,0.0,0.0,0.0,0.0,0.0,0.0,-0.009865290485322475,-0.01937812566757202,-0.01805889420211315,0.9990683197975159,0.03327522054314613,-0.015275591984391212,0.022848814725875854
701.0,0.0,0.0,0.0,0.0,0.0,0.0,0.001914103515446186,-0.026483990252017975,-0.005785096902400255,0.9992247223854065,0.030885381624102592,-0.015457306988537312,0.018896764144301414
702.0,0.0,0.0,0.0,0.0,0.0,0.0,-0.009886611253023148,-0.021733902394771576,-0.0015542833134531975,0.9993816018104553,0.025704070925712585,-0.012577421963214874,0.020431075245141983
703.0,0.0,0.0,0.0,0.0,0.0,0.0,-0.004200955852866173,-0.023971108719706535,-0.009728179313242435,0.9994714260101318,0.023172784596681595,-0.016016829758882523,0.016226286068558693
704.0,0.0,0.0,0.0,0.0,0.0,0.0,-0.010779510252177715,-0.026030123233795166,-0.013409646227955818,0.9995077252388,0.02121298387646675,-0.02024662308394909,0.011158067733049393
705.0,0.0,0.0,0.0,0.0,0.0,0.0,-0.013933589681982994,-0.0221097394824028,-0.01057356595993042,0.9996644854545593,0.016510235145688057,-0.016689065843820572,0.010952763259410858
706.0,0.0,0.0,0.0,0.0,0.0,0.0,-0.02451637201011181,-0.01770598255097866,-0.0033807007130235434,0.999588131904602,0.015747949481010437,-0.023132814094424248,0.006367547437548637
707.0,0.0,0.0,0.0,0.0,0.0,0.0,-0.019640063866972923,-0.027497045695781708,-0.025907790288329124,0.9994291067123413,0.015081875026226044,-0.02999071218073368,0.0038227310869842768
708.0,0.0,0.0,0.0,0.0,0.0,0.0,-0.02633642591536045,-0.024807099252939224,-0.013110378757119179,0.9995357394218445,0.012884354218840599,-0.027550108730793,0.0018573428969830275
709.0,0.0,0.0,0.0,0.0,0.0,0.0,-0.02825254760682583,-0.028130607679486275,-0.0036377834621816874,0.9993085861206055,0.012562735937535763,-0.034987080842256546,-0.0007629900937899947
710.0,0.0,0.0,0.0,0.0,0.0,0.0,-0.031063271686434746,-0.01293665636330843,-0.007638316601514816,0.9990639686584473,0.012377001345157623,-0.041367724537849426,-0.0026651876978576183
711.0,0.0,0.0,0.0,0.0,0.0,0.0,-0.05107104778289795,-0.011586446315050125,0.008299904875457287,0.9990869760513306,0.012266728095710278,-0.04087994620203972,-0.0019461909541860223
712.0,0.0,0.0,0.0,0.0,0.0,0.0,-0.04013720154762268,-0.01634630560874939,0.0231541208922863,0.9988361597061157,0.012742958031594753,-0.0463094636797905,-0.004433536436408758
713.0,0.0,0.0,0.0,0.0,0.0,0.0,-0.04643437638878822,-0.0056960731744766235,0.01623190939426422,0.9985445737838745,0.0136941559612751,-0.051944367587566376,-0.004769823979586363
714.0,0.0,0.0,0.0,0.0,0.0,0.0,-0.06118592247366905,-0.004661929327994585,0.043720945715904236,0.998631477355957,0.012985404580831528,-0.050530076026916504,-0.003642986761406064
715.0,0.0,0.0,0.0,0.0,0.0,0.0,-0.035256337374448776,-0.02462056092917919,0.015527666546404362,0.9984959959983826,0.011765331029891968,-0.05347983166575432,-0.0027303120587021112
716.0,0.0,0.0,0.0,0.0,0.0,0.0,-0.018351325765252113,-0.018405020236968994,-0.007040306925773621,0.9985914826393127,0.010016207583248615,-0.05199425667524338,-0.003413663012906909
717.0,0.0,0.0,0.0,0.0,0.0,0.0,-0.04345518350601196,-0.014174962416291237,0.025340726599097252,0.9984989166259766,0.011179741472005844,-0.053545184433460236,-0.00279328809119761
718.0,0.0,0.0,0.0,0.0,0.0,0.0,-0.022265879437327385,-0.02326170727610588,0.002890888834372163,0.9986189007759094,0.008886588737368584,-0.05162753909826279,-0.004019027575850487
719.0,0.0,0.0,0.0,0.0,0.0,0.0,-0.008192475885152817,-0.02185048721730709,-0.029351990669965744,0.998681366443634,0.0049355304799973965,-0.05094718933105469,-0.003950977232307196
720.0,0.0,0.0,0.0,0.0,0.0,0.0,-0.023469073697924614,-0.010106117464601994,-0.009926821105182171,0.9986806511878967,0.00772601505741477,-0.05043290555477142,-0.00581825478002429
721.0,0.0,0.0,0.0,0.0,0.0,0.0,-0.006550295744091272,-0.020102856680750847,-0.0310977753251791,0.9987179040908813,0.0024823446292430162,-0.05013124272227287,-0.006597294472157955
722.0,0.0,0.0,0.0,0.0,0.0,0.0,-0.01283960323780775,-0.005128900986164808,-0.0155174033716321,0.9986413717269897,-0.004173838999122381,-0.051472488790750504,-0.0069719222374260426
723.0,0.0,0.0,0.0,0.0,0.0,0.0,-0.005930862855166197,-0.014218482188880444,-0.035667236894369125,0.9986525177955627,0.0007674108492210507,-0.05120845139026642,-0.008387003093957901
724.0,0.0,0.0,0.0,0.0,0.0,0.0,-0.026186570525169373,0.007331645116209984,0.016020776703953743,0.9986210465431213,-0.005684398114681244,-0.051696836948394775,-0.007162047084420919
725.0,0.0,0.0,0.0,0.0,0.0,0.0,-0.02077331207692623,0.010927369818091393,0.02321864850819111,0.9985328316688538,-0.010926441289484501,-0.05297185853123665,-0.0026527978479862213
726.0,0.0,0.0,0.0,0.0,0.0,0.0,-0.019322291016578674,0.014145705848932266,0.005369656719267368,0.9986811280250549,-0.006868469063192606,-0.050770945847034454,-0.0033694596495479345
727.0,0.0,0.0,0.0,0.0,0.0,0.0,-0.01420492772012949,0.01618037559092045,0.021151546388864517,0.998717188835144,-0.013135318644344807,-0.04889814183115959,-0.0008251152466982603
728.0,0.0,0.0,0.0,0.0,0.0,0.0,0.005546716041862965,0.006724843755364418,-0.0035218652337789536,0.9987499117851257,-0.02056470513343811,-0.04548591375350952,0.0026680713053792715
729.0,0.0,0.0,0.0,0.0,0.0,0.0,0.001962375594303012,0.0008387830457650125,-0.009343035519123077,0.9989163875579834,-0.01603289134800434,-0.04368673264980316,0.0009899663273245096
730.0,0.0,0.0,0.0,0.0,0.0,0.0,-0.009557804092764854,0.01167948916554451,0.011730104684829712,0.9988303184509277,-0.020202362909913063,-0.04361990466713905,0.005240084137767553
731.0,0.0,0.0,0.0,0.0,0.0,0.0,0.0014113947981968522,0.01328892633318901,0.0022622200194746256,0.9987167716026306,-0.024808550253510475,-0.04339415580034256,0.008167439140379429
732.0,0.0,0.0,0.0,0.0,0.0,0.0,0.013517034240067005,0.010054822079837322,-0.018776269629597664,0.9988775253295898,-0.02060718461871147,-0.04214807599782944,0.006545261014252901
733.0,0.0,0.0,0.0,0.0,0.0,0.0,-0.006091900635510683,0.021383315324783325,0.015947097912430763,0.9987138509750366,-0.025704922154545784,-0.04253015294671059,0.010068711824715137
734.0,0.0,0.0,0.0,0.0,0.0,0.0,-0.007317670620977879,0.032194584608078,0.005309527739882469,0.9985862374305725,-0.028792092576622963,-0.04277024045586586,0.012936793267726898
735.0,0.0,0.0,0.0,0.0,0.0,0.0,0.0038854856975376606,0.023471882566809654,-0.006198444869369268,0.9987856149673462,-0.026785878464579582,-0.04015767201781273,0.009839911013841629
736.0,0.0,0.0,0.0,0.0,0.0,0.0,-0.006181951612234116,0.02373955026268959,0.017274681478738785,0.9986259341239929,-0.029398322105407715,-0.04131713882088661,0.013229785487055779
737.0,0.0,0.0,0.0,0.0,0.0,0.0,-0.002354721538722515,0.021309886127710342,0.01639193668961525,0.9985856413841248,-0.03145550563931465,-0.0399923250079155,0.015430914238095284
738.0,0.0,0.0,0.0,0.0,0.0,0.0,-0.0036571079399436712,0.020287474617362022,0.009924964047968388,0.9986613988876343,-0.029946163296699524,-0.03959473967552185,0.014529391191899776
739.0,0.0,0.0,0.0,0.0,0.0,0.0,0.0009095094865188003,0.022249190136790276,0.012775405310094357,0.9986536502838135,-0.03053181804716587,-0.038802653551101685,0.015918351709842682
740.0,0.0,0.0,0.0,0.0,0.0,0.0,0.010455800220370293,0.017921870574355125,0.002335374942049384,0.9987351298332214,-0.030312949791550636,-0.0371352881193161,0.01518048532307148
741.0,0.0,0.0,0.0,0.0,0.0,0.0,0.002135340590029955,0.0226622074842453,0.004164318088442087,0.9987475275993347,-0.030813898891210556,-0.03656167536973953,0.01474821474403143
742.0,0.0,0.0,0.0,0.0,0.0,0.0,0.013430203311145306,0.009974641725420952,-0.005869261454790831,0.9988380670547485,-0.030866753309965134,-0.034593984484672546,0.013180655427277088
743.0,0.0,0.0,0.0,0.0,0.0,0.0,0.011011714115738869,0.0053171925246715546,0.0011739603942260146,0.998879611492157,-0.03099048137664795,-0.03379053995013237,0.011727855540812016
744.0,0.0,0.0,0.0,0.0,0.0,0.0,0.01335262879729271,0.013185502029955387,-0.004033799283206463,0.9989100694656372,-0.031449392437934875,-0.032455798238515854,0.011687103658914566
745.0,0.0,0.0,0.0,0.0,0.0,0.0,0.008843227289617062,0.006977011915296316,0.0023557664826512337,0.9988892078399658,-0.030921516939997673,-0.03363693505525589,0.011519926600158215
746.0,0.0,0.0,0.0,0.0,0.0,0.0,0.011401132680475712,-0.0005392268649302423,0.0027650543488562107,0.9989181756973267,-0.030435575172305107,-0.03371182084083557,0.009991548955440521
747.0,0.0,0.0,0.0,0.0,0.0,0.0,0.012448541820049286,-0.001633992069400847,0.0036765229888260365,0.9989054799079895,-0.02963939681649208,-0.03456484526395798,0.010710583999752998
748.0,0.0,0.0,0.0,0.0,0.0,0.0,0.01186114177107811,-0.005628838203847408,0.006241268943995237,0.9989538788795471,-0.029154151678085327,-0.034298863261938095,0.008071968331933022
749.0,0.0,0.0,0.0,0.0,0.0,0.0,0.003397557884454727,-0.01126809511333704,0.009028627537190914,0.9989259243011475,-0.027921289205551147,-0.036286361515522,0.007132536265999079
750.0,0.0,0.0,0.0,0.0,0.0,0.0,0.006382707040756941,-0.00877579115331173,0.0100256921723485,0.998896062374115,-0.028004838153719902,-0.03673548251390457,0.008564756251871586
751.0,0.0,0.0,0.0,0.0,0.0,0.0,-0.006508296821266413,-0.006972806993871927,0.017845099791884422,0.9989087581634521,-0.02817775309085846,-0.036404650658369064,0.007882775738835335
752.0,0.0,0.0,0.0,0.0,0.0,0.0,-0.008658315986394882,0.015606451779603958,-0.004849675577133894,0.9989739656448364,-0.02737291157245636,-0.03512721136212349,0.008231322281062603
753.0,0.0,0.0,0.0,0.0,0.0,0.0,-0.006765774916857481,-0.00028819794533774257,0.011145314201712608,0.9989185333251953,-0.02759329229593277,-0.036267247051000595,0.009247942827641964
754.0,0.0,0.0,0.0,0.0,0.0,0.0,-0.010121766477823257,0.020246008411049843,-0.00421096570789814,0.9989187121391296,-0.026682758703827858,-0.03640127554535866,0.011150636710226536
755.0,0.0,0.0,0.0,0.0,0.0,0.0,-0.0007594757480546832,0.015022745355963707,0.012575365602970123,0.998996913433075,-0.02719380334019661,-0.03374765068292618,0.011269713751971722
756.0,0.0,0.0,0.0,0.0,0.0,0.0,-0.01571563258767128,0.025988582521677017,0.015925852581858635,0.9989625811576843,-0.02654118835926056,-0.03496302291750908,0.012136123143136501
757.0,0.0,0.0,0.0,0.0,0.0,0.0,0.031824346631765366,-0.028593560680747032,-0.02036270499229431,0.9990058541297913,-0.026790689677000046,-0.03376731276512146,0.011385270394384861
758.0,0.0,0.0,0.0,0.0,0.0,0.0,0.005399713758379221,-0.005033508408814669,0.02953462116420269,0.9990404844284058,-0.027951372787356377,-0.032151635736227036,0.010190775617957115
759.0,0.0,0.0,0.0,0.0,0.0,0.0,0.027652697637677193,-0.021841609850525856,-0.017860475927591324,0.9989933371543884,-0.026012107729911804,-0.03426119685173035,0.012736909091472626
760.0,0.0,0.0,0.0,0.0,0.0,0.0,0.00535229779779911,-0.012959068641066551,0.03352731093764305,0.9990017414093018,-0.027183225378394127,-0.03286532685160637,0.013311384245753288
761.0,0.0,0.0,0.0,0.0,0.0,0.0,-0.0010986775159835815,0.01123457308858633,0.021063724532723427,0.9990920424461365,-0.02792007476091385,-0.030146481469273567,0.011272670701146126
762.0,0.0,0.0,0.0,0.0,0.0,0.0,0.013286751694977283,-0.011159195564687252,0.02031921036541462,0.998927891254425,-0.027214106172323227,-0.0341792069375515,0.015325702726840973
763.0,0.0,0.0,0.0,0.0,0.0,0.0,0.004756258800625801,-0.001079063629731536,0.02590298466384411,0.9990440011024475,-0.02722224034368992,-0.0308085884898901,0.01488078199326992
764.0,0.0,0.0,0.0,0.0,0.0,0.0,0.01357028353959322,-0.006189765874296427,0.0017463302938267589,0.9991708397865295,-0.02653401717543602,-0.027196384966373444,0.014634798280894756
765.0,0.0,0.0,0.0,0.0,0.0,0.0,0.01577368937432766,-0.009301945567131042,0.01565833017230034,0.9989485144615173,-0.026522086933255196,-0.0326324999332428,0.01827561855316162
766.0,0.0,0.0,0.0,0.0,0.0,0.0,0.014384008012712002,-0.00683375122025609,0.017055131494998932,0.9990898370742798,-0.025150638073682785,-0.0296083465218544,0.017619213089346886
767.0,0.0,0.0,0.0,0.0,0.0,0.0,0.03051086887717247,-0.032791487872600555,-0.021748773753643036,0.9991630911827087,-0.02488917112350464,-0.028140265494585037,0.016187520697712898
768.0,0.0,0.0,0.0,0.0,0.0,0.0,0.026239730417728424,-0.01852688193321228,0.002374767092987895,0.9990611672401428,-0.024510733783245087,-0.03071320243179798,0.01825634576380253
769.0,0.0,0.0,0.0,0.0,0.0,0.0,0.026535658165812492,-0.018472174182534218,-0.019753163680434227,0.9991033673286438,-0.024006227031350136,-0.02999638207256794,0.0177860576659441
770.0,0.0,0.0,0.0,0.0,0.0,0.0,0.029712185263633728,-0.0174429751932621,-0.014401521533727646,0.9991883039474487,-0.023784857243299484,-0.02759549766778946,0.01720130629837513
771.0,0.0,0.0,0.0,0.0,0.0,0.0,0.025724196806550026,-0.01442898903042078,-0.01013751421123743,0.999144434928894,-0.02265515737235546,-0.030053487047553062,0.017145998775959015
772.0,0.0,0.0,0.0,0.0,0.0,0.0,0.03188212960958481,-0.017722919583320618,-0.008894954808056355,0.9992411136627197,-0.022129405289888382,-0.027915282174944878,0.015767332166433334
773.0,0.0,0.0,0.0,0.0,0.0,0.0,0.035945478826761246,-0.020977968350052834,0.0014360386412590742,0.9992596507072449,-0.02119019813835621,-0.02826927974820137,0.015231029130518436
774.0,0.0,0.0,0.0,0.0,0.0,0.0,0.03065798245370388,-0.013743079267442226,-0.0007029672269709408,0.9993053674697876,-0.019601434469223022,-0.02867797389626503,0.013493584468960762
775.0,0.0,0.0,0.0,0.0,0.0,0.0,0.03600667044520378,-0.012749379500746727,-0.00043414856190793216,0.9993230700492859,-0.01801452971994877,-0.029579905793070793,0.012417794205248356
776.0,0.0,0.0,0.0,0.0,0.0,0.0,0.04140873998403549,-0.017656724900007248,-0.003428642638027668,0.9993460178375244,-0.016882652416825294,-0.030643491074442863,0.009159614332020283
777.0,0.0,0.0,0.0,0.0,0.0,0.0,0.035006776452064514,-0.007874230854213238,-0.003615829860791564,0.9993727803230286,-0.012911449186503887,-0.03172583878040314,0.009016341529786587
778.0,0.0,0.0,0.0,0.0,0.0,0.0,0.02774984762072563,-2.9177486794651486e-05,0.0025593077298253775,0.999347984790802,-0.014075898565351963,-0.03245655074715614,0.007217989303171635
779.0,0.0,0.0,0.0,0.0,0.0,0.0,0.030061563476920128,-0.0015610511181876063,0.004307042341679335,0.999328076839447,-0.01379708293825388,-0.033195860683918,0.0071939933113753796
780.0,0.0,0.0,0.0,0.0,0.0,0.0,0.02947465144097805,1.8333975049245055e-06,0.007782456465065479,0.9993363618850708,-0.012301776558160782,-0.033615145832300186,0.006779758725315332
781.0,0.0,0.0,0.0,0.0,0.0,0.0,0.02749849297106266,0.003337146947160363,0.005430307704955339,0.999311089515686,-0.011880014091730118,-0.03439946845173836,0.007305668201297522
782.0,0.0,0.0,0.0,0.0,0.0,0.0,0.026300299912691116,0.003957380075007677,0.005034230183809996,0.999298095703125,-0.011458951979875565,-0.034804876893758774,0.007809877395629883
783.0,0.0,0.0,0.0,0.0,0.0,0.0,0.025107325986027718,0.011931173503398895,0.003443752182647586,0.9992676973342896,-0.010250591672956944,-0.035963963717222214,0.008140943013131618
784.0,0.0,0.0,0.0,0.0,0.0,0.0,0.021977795287966728,0.00533243827521801,0.0036334095057100058,0.9991613626480103,-0.009568089619278908,-0.03844292834401131,0.01037805899977684
785.0,0.0,0.0,0.0,0.0,0.0,0.0,0.015227770432829857,0.0051363008096814156,0.016501830890774727,0.9991567134857178,-0.009259282611310482,-0.038648951798677444,0.010348690673708916
786.0,0.0,0.0,0.0,0.0,0.0,0.0,0.02058444730937481,0.01450246199965477,0.002015967620536685,0.999065101146698,-0.007858993485569954,-0.04125400632619858,0.010279107838869095
787.0,0.0,0.0,0.0,0.0,0.0,0.0,0.015540340915322304,0.0063963658176362514,0.01402291003614664,0.9990777373313904,-0.007571662776172161,-0.041177548468112946,0.00956263579428196
788.0,0.0,0.0,0.0,0.0,0.0,0.0,0.002034110249951482,0.02262406051158905,0.011275961995124817,0.9990102052688599,-0.00570665393024683,-0.04274994507431984,0.010918092913925648
789.0,0.0,0.0,0.0,0.0,0.0,0.0,0.01139787770807743,0.009980112314224243,0.0028967983089387417,0.9989463686943054,-0.006294156890362501,-0.044381942600011826,0.009861712343990803
790.0,0.0,0.0,0.0,0.0,0.0,0.0,0.006911176722496748,0.018243253231048584,0.015425129793584347,0.9989539384841919,-0.004977008793503046,-0.044306397438049316,0.010193485766649246
791.0,0.0,0.0,0.0,0.0,0.0,0.0,0.011126888915896416,0.013236245140433311,-0.010409754700958729,0.998997151851654,-0.004222927615046501,-0.04357948154211044,0.009390108287334442
792.0,0.0,0.0,0.0,0.0,0.0,0.0,0.01619507186114788,0.004073181189596653,-0.00283037219196558,0.998888373374939,-0.005084571894258261,-0.04584237188100815,0.009731767699122429
793.0,0.0,0.0,0.0,0.0,0.0,0.0,0.006746829021722078,0.020306909456849098,-0.007198874838650227,0.999005913734436,-0.004930560011416674,-0.043542973697185516,0.008171593770384789
794.0,0.0,0.0,0.0,0.0,0.0,0.0,0.00954143051058054,0.01538457814604044,-0.017764287069439888,0.9989765882492065,-0.002993410686030984,-0.04438770189881325,0.008188551291823387
795.0,0.0,0.0,0.0,0.0,0.0,0.0,0.00657964963465929,0.0218514371663332,-0.005681158043444157,0.9989606142044067,-0.005514413584023714,-0.04443452134728432,0.008559984154999256
796.0,0.0,0.0,0.0,0.0,0.0,0.0,0.0011432833271101117,0.014625742100179195,-0.014357487671077251,0.9989249110221863,-0.003980088979005814,-0.04540545120835304,0.00849188957363367
797.0,0.0,0.0,0.0,0.0,0.0,0.0,-0.0016037632012739778,0.015284791588783264,0.0009936410933732986,0.9989076852798462,-0.0020419287029653788,-0.04582472890615463,0.008942412212491035
798.0,0.0,0.0,0.0,0.0,0.0,0.0,-0.0024544689804315567,0.01972717046737671,-0.011630737222731113,0.998905599117279,-0.004533693194389343,-0.04559699073433876,0.0093923918902874
799.0,0.0,0.0,0.0,0.0,0.0,0.0,-0.001615941058844328,0.013892566785216331,0.0023399400524795055,0.9988594055175781,-0.0023703451734036207,-0.04652129113674164,0.010492370463907719
800.0,0.0,0.0,0.0,0.0,0.0,0.0,-0.0005273509887047112,0.01614045910537243,-1.2314270634306013e-06,0.9988401532173157,-0.00010212804045295343,-0.04693390429019928,0.01077432744204998
801.0,0.0,0.0,0.0,0.0,0.0,0.0,0.00046772899804636836,0.013250799849629402,-2.5846229618764482e-05,0.9989041090011597,-0.0032170331105589867,-0.045418646186590195,0.010849401354789734
802.0,0.0,0.0,0.0,0.0,0.0,0.0,0.004277460742741823,0.008458856493234634,-0.009761754423379898,0.9988141655921936,-0.0005661915056407452,-0.04732907563447952,0.011404445394873619
803.0,0.0,0.0,0.0,0.0,0.0,0.0,0.009799080900847912,0.003472901415079832,-0.013110976666212082,0.998726487159729,0.0013385933125391603,-0.04921622946858406,0.011041050776839256
804.0,0.0,0.0,0.0,0.0,0.0,0.0,0.0052221957594156265,0.006923317909240723,-0.008642727509140968,0.998843252658844,-0.0017968484899029136,-0.046896956861019135,0.010465424507856369
805.0,0.0,0.0,0.0,0.0,0.0,0.0,0.009700772352516651,-0.001797573291696608,-0.0005003308178856969,0.9988387227058411,-0.001488628564402461,-0.047387514263391495,0.008567863143980503
806.0,0.0,0.0,0.0,0.0,0.0,0.0,0.021455245092511177,-0.020083431154489517,-0.021292103454470634,0.9986976981163025,-0.0014177878620103002,-0.05048751458525658,0.007215920370072126
807.0,0.0,0.0,0.0,0.0,0.0,0.0,0.019083840772509575,-0.009551684372127056,-0.01518953125923872,0.9988908171653748,-0.0040311506018042564,-0.04649119824171066,0.0062869638204574585
808.0,0.0,0.0,0.0,0.0,0.0,0.0,0.012405727058649063,-0.017389969900250435,-0.0006070806994102895,0.9987291097640991,-0.005594067741185427,-0.04986676946282387,0.0047501628287136555
809.0,0.0,0.0,0.0,0.0,0.0,0.0,0.004156980197876692,-0.009856735356152058,0.00826357677578926,0.9985566735267639,-0.00792771764099598,-0.05303211137652397,0.0030610356479883194
810.0,0.0,0.0,0.0,0.0,0.0,0.0,0.013340618461370468,-0.010948770679533482,-0.005188682582229376,0.998726487159729,-0.010044442489743233,-0.04937068000435829,0.002636267337948084
811.0,0.0,0.0,0.0,0.0,0.0,0.0,-0.00518933217972517,-0.008687394671142101,0.025605160742998123,0.9986886978149414,-0.012065781280398369,-0.049755122512578964,0.0003419798449613154
812.0,0.0,0.0,0.0,0.0,0.0,0.0,0.004338385071605444,-0.00892532616853714,0.008856778033077717,0.9986172914505005,-0.012378467246890068,-0.05109159275889397,-8.843757314025424e-06
813.0,0.0,0.0,0.0,0.0,0.0,0.0,-0.0005558807752095163,0.0002791750303003937,0.017618099227547646,0.998772919178009,-0.013662436977028847,-0.04758276045322418,-0.0014001261442899704
814.0,0.0,0.0,0.0,0.0,0.0,0.0,0.006639722269028425,-0.017699994146823883,-0.0014860486844554543,0.9986701607704163,-0.013340424746274948,-0.04974708706140518,-0.00225850916467607
815.0,0.0,0.0,0.0,0.0,0.0,0.0,0.007901616394519806,-0.01646830327808857,-0.0005210906965658069,0.9986273050308228,-0.014353154227137566,-0.050321321934461594,-0.002339791739359498
816.0,0.0,0.0,0.0,0.0,0.0,0.0,0.010713957250118256,-0.019037388265132904,-0.0001258487463928759,0.9988073706626892,-0.013925169594585896,-0.04661177471280098,-0.004143796861171722
817.0,0.0,0.0,0.0,0.0,0.0,0.0,0.00047200394328683615,-0.0120988879352808,0.00022410039673559368,0.9987238049507141,-0.014170844107866287,-0.04839964956045151,-0.002781917806714773
818.0,0.0,0.0,0.0,0.0,0.0,0.0,-0.0071046785451471806,-0.00980522483587265,0.0008283473434858024,0.9986573457717896,-0.014662574045360088,-0.049673497676849365,-0.0011035669595003128
819.0,0.0,0.0,0.0,0.0,0.0,0.0,-0.0019663143903017044,-0.013186464086174965,0.0003968154778704047,0.9988304972648621,-0.013012873008847237,-0.0465448722243309,-0.0014931336045265198
820.0,0.0,0.0,0.0,0.0,0.0,0.0,-0.008343620225787163,-0.007200191263109446,-0.0010973903117701411,0.9988227486610413,-0.012868070043623447,-0.046769604086875916,0.0008450750028714538
821.0,0.0,0.0,0.0,0.0,0.0,0.0,-0.006266752723604441,-0.008448869921267033,-0.011045461520552635,0.9987831115722656,-0.012663675472140312,-0.047556933015584946,0.0032748861704021692
822.0,0.0,0.0,0.0,0.0,0.0,0.0,-0.004385748878121376,-0.007537334691733122,-0.008048704825341702,0.9990071058273315,-0.011502226814627647,-0.043031178414821625,0.0009294578339904547
823.0,0.0,0.0,0.0,0.0,0.0,0.0,-0.015451844781637192,-0.0070505584590137005,-0.00636022025719285,0.998979926109314,-0.011146396398544312,-0.043615177273750305,0.0035386623349040747
824.0,0.0,0.0,0.0,0.0,0.0,0.0,-0.022603679448366165,0.003612274071201682,-0.0006253461469896138,0.9990422129631042,-0.011896373704075813,-0.04176203906536102,0.005394640378654003
825.0,0.0,0.0,0.0,0.0,0.0,0.0,-0.01998223178088665,0.0007624829304404557,0.004736277740448713,0.9991856217384338,-0.010215341113507748,-0.03873078152537346,0.004895541816949844
826.0,0.0,0.0,0.0,0.0,0.0,0.0,-0.02744830586016178,0.005296656396239996,-0.0038772982079535723,0.9992174506187439,-0.01007173489779234,-0.037412311881780624,0.007980559021234512
827.0,0.0,0.0,0.0,0.0,0.0,0.0,-0.03868497163057327,0.008828921243548393,-0.011875014752149582,0.9992169737815857,-0.008657008409500122,-0.03656069189310074,0.01240592822432518
828.0,0.0,0.0,0.0,0.0,0.0,0.0,-0.035941231995821,0.00857116375118494,-0.004033239092677832,0.9993535876274109,-0.007749531883746386,-0.033076073974370956,0.01176383439451456
829.0,0.0,0.0,0.0,0.0,0.0,0.0,-0.032742056995630264,0.008032262325286865,-0.022172706201672554,0.9993301033973694,-0.005990106612443924,-0.03280610218644142,0.015079711563885212
830.0,0.0,0.0,0.0,0.0,0.0,0.0,-0.038358043879270554,0.01426035538315773,-0.00789067056030035,0.9992743134498596,-0.005458800587803125,-0.03255600854754448,0.01902357116341591
831.0,0.0,0.0,0.0,0.0,0.0,0.0,-0.038707248866558075,0.005473276600241661,-0.017504099756479263,0.9993996620178223,-0.004521453287452459,-0.029093846678733826,0.018264753744006157
832.0,0.0,0.0,0.0,0.0,0.0,0.0,-0.0352184884250164,0.008092484436929226,-0.00953869242221117,0.9993255734443665,-0.0038464050740003586,-0.029774649068713188,0.021159758791327477
833.0,0.0,0.0,0.0,0.0,0.0,0.0,-0.03970806300640106,0.012959827668964863,0.024949299171566963,0.9992252588272095,-0.0030232402496039867,-0.03073444589972496,0.024418093264102936
834.0,0.0,0.0,0.0,0.0,0.0,0.0,-0.036693789064884186,0.011520094238221645,-0.000622088264208287,0.9992527961730957,-0.0014944166177883744,-0.030228430405259132,0.024040069431066513
835.0,0.0,0.0,0.0,0.0,0.0,0.0,-0.040659572929143906,0.016722597181797028,0.04085364192724228,0.9992470741271973,-0.0019151500891894102,-0.029239928349852562,0.02543364278972149
836.0,0.0,0.0,0.0,0.0,0.0,0.0,-0.020308688282966614,0.016628792509436607,0.03284735977649689,0.9993574023246765,-0.0034590819850564003,-0.025247929617762566,0.02521672658622265
837.0,0.0,0.0,0.0,0.0,0.0,0.0,-0.031599853187799454,0.014889819547533989,0.043134868144989014,0.9992194771766663,-0.0017577819526195526,-0.028760230168700218,0.027022914960980415
838.0,0.0,0.0,0.0,0.0,0.0,0.0,-0.011415582150220871,0.017225954681634903,0.022252429276704788,0.9993602633476257,-0.0030847438611090183,-0.024591146036982536,0.02580041065812111
839.0,0.0,0.0,0.0,0.0,0.0,0.0,0.005158605985343456,0.003954665269702673,-0.002906452165916562,0.9994253516197205,-0.003253111382946372,-0.022206522524356842,0.025418031960725784
840.0,0.0,0.0,0.0,0.0,0.0,0.0,-0.003875232767313719,0.012534587644040585,0.010850343853235245,0.9993070960044861,-0.0002008187584578991,-0.02645982801914215,0.02618964947760105
841.0,0.0,0.0,0.0,0.0,0.0,0.0,0.002756717847660184,-0.0014194363029673696,-0.005437206942588091,0.9994639158248901,-0.0014231810346245766,-0.022895630449056625,0.023355228826403618
842.0,0.0,0.0,0.0,0.0,0.0,0.0,0.0012434176169335842,-0.008934568613767624,-0.0031508745159953833,0.999574601650238,-0.00221645156852901,-0.02089926041662693,0.02024129591882229
843.0,0.0,0.0,0.0,0.0,0.0,0.0,0.0018362787086516619,-0.005566778592765331,-0.0015805922448635101,0.9994934797286987,-0.00019252435595262796,-0.024676820263266563,0.020114189013838768
844.0,0.0,0.0,0.0,0.0,0.0,0.0,0.0018688631244003773,-0.014311864972114563,-0.0038287935312837362,0.999577522277832,-0.0005562204169109464,-0.0240169744938612,0.01635846495628357
845.0,0.0,0.0,0.0,0.0,0.0,0.0,0.002225890289992094,-0.015238627791404724,-0.003409850411117077,0.9995881915092468,-0.0006391857750713825,-0.02511676773428917,0.013869978487491608
846.0,0.0,0.0,0.0,0.0,0.0,0.0,0.002717265160754323,-0.01876246929168701,0.0011431826278567314,0.9995139241218567,0.0005503328866325319,-0.02841225452721119,0.012852427549660206
847.0,0.0,0.0,0.0,0.0,0.0,0.0,0.003721607383340597,-0.014649921096861362,-0.005370795261114836,0.9995025992393494,7.98577893874608e-05,-0.02994677424430847,0.00993078388273716
848.0,0.0,0.0,0.0,0.0,0.0,0.0,0.00021177955204620957,-0.004068980924785137,-0.004843410104513168,0.9994706511497498,-0.0008159799035638571,-0.03154691308736801,0.007915053516626358
849.0,0.0,0.0,0.0,0.0,0.0,0.0,0.004938826430588961,-0.016713352873921394,-0.005974104627966881,0.9994333386421204,-0.00025937773170880973,-0.03321343660354614,0.005475446581840515
850.0,0.0,0.0,0.0,0.0,0.0,0.0,-0.0013266607420518994,0.003916773945093155,-0.0016650664620101452,0.9993530511856079,-0.00018486114277038723,-0.03576457127928734,0.0038682781159877777
851.0,0.0,0.0,0.0,0.0,0.0,0.0,0.00930062122642994,0.005751409567892551,-0.01103384979069233,0.9993283748626709,-0.0014540491392835975,-0.0366162434220314,-0.00030548195354640484
852.0,0.0,0.0,0.0,0.0,0.0,0.0,0.006737861782312393,0.0025064211804419756,-0.009585491381585598,0.99924635887146,-8.168476051650941e-05,-0.03879258409142494,-0.0015061874873936176
853.0,0.0,0.0,0.0,0.0,0.0,0.0,0.0004977059434168041,0.017196444794535637,-0.002500551985576749,0.9991345405578613,-0.0008320039487443864,-0.04145348072052002,-0.0033605967182666063
854.0,0.0,0.0,0.0,0.0,0.0,0.0,-0.0017375053139403462,0.01766168512403965,0.004254601430147886,0.99900221824646,-0.001491206232458353,-0.04434879496693611,-0.005113356281071901
855.0,0.0,0.0,0.0,0.0,0.0,0.0,-0.000778859481215477,0.020892426371574402,0.002891543321311474,0.9988765120506287,-0.0008697690791450441,-0.04719671234488487,-0.004229411017149687
856.0,0.0,0.0,0.0,0.0,0.0,0.0,-0.003745918394997716,0.022008035331964493,0.017223704606294632,0.9987697601318359,-0.0015824651345610619,-0.04929542914032936,-0.005175570957362652
857.0,0.0,0.0,0.0,0.0,0.0,0.0,0.0032536701764911413,0.006045504938811064,0.009803809225559235,0.9987266659736633,-0.0014976290985941887,-0.050068002194166183,-0.006031624972820282
858.0,0.0,0.0,0.0,0.0,0.0,0.0,0.0002362649393035099,0.018555641174316406,0.01001765113323927,0.9985910058021545,-0.003407130716368556,-0.05280308425426483,-0.004052822943776846
859.0,0.0,0.0,0.0,0.0,0.0,0.0,0.008837904781103134,-0.009657789021730423,0.003351506544277072,0.9986312985420227,-0.004065511282533407,-0.051910821348428726,-0.0049772728234529495
860.0,0.0,0.0,0.0,0.0,0.0,0.0,0.00630926201120019,-0.018583983182907104,-0.001984091941267252,0.9985554218292236,-0.004153955262154341,-0.0534852109849453,-0.00310956290923059
861.0,0.0,0.0,0.0,0.0,0.0,0.0,0.010739732533693314,-0.016574308276176453,0.0003688515571411699,0.9985939264297485,-0.007605342194437981,-0.052379000931978226,-0.00294638448394835
862.0,0.0,0.0,0.0,0.0,0.0,0.0,0.0008642379543744028,-0.013923868536949158,-0.0008917808881960809,0.9986334443092346,-0.007763146422803402,-0.05164474621415138,-0.0021121716126799583
863.0,0.0,0.0,0.0,0.0,0.0,0.0,0.016333850100636482,-0.017181962728500366,-0.01651538535952568,0.9986845254898071,-0.007614860311150551,-0.05070934072136879,0.00036385710700415075
864.0,0.0,0.0,0.0,0.0,0.0,0.0,0.005494982469826937,-0.015889164060354233,0.009881673380732536,0.9988236427307129,-0.009832264855504036,-0.047425173223018646,-0.002460659947246313
865.0,0.0,0.0,0.0,0.0,0.0,0.0,0.020465759560465813,-0.011448856443166733,-0.02209259755909443,0.9988959431648254,-0.009622333571314812,-0.045985493808984756,0.00021507954807020724
866.0,0.0,0.0,0.0,0.0,0.0,0.0,0.009814196266233921,0.010375271551311016,-0.0021418780088424683,0.998928427696228,-0.010938873514533043,-0.044756416231393814,0.004424723796546459
867.0,0.0,0.0,0.0,0.0,0.0,0.0,0.01883004605770111,0.001169369206763804,-0.013372617773711681,0.9991592764854431,-0.013561103492975235,-0.038694169372320175,-0.0002950686903204769
868.0,0.0,0.0,0.0,0.0,0.0,0.0,0.010173553600907326,0.023314274847507477,-0.016320759430527687,0.9991399645805359,-0.014771468937397003,-0.03854701295495033,0.003980785142630339
869.0,0.0,0.0,0.0,0.0,0.0,0.0,0.006557431537657976,0.021997129544615746,-0.011048714630305767,0.9990110397338867,-0.015048920176923275,-0.04050567373633385,0.010500559583306313
870.0,0.0,0.0,0.0,0.0,0.0,0.0,0.002425259677693248,0.034389201551675797,-0.005816963966935873,0.9992432594299316,-0.016039973124861717,-0.03531881049275398,0.0028945114463567734
871.0,0.0,0.0,0.0,0.0,0.0,0.0,-0.004929426126182079,0.028927255421876907,0.00019036955200135708,0.999081015586853,-0.015954742208123207,-0.03852696344256401,0.009938175790011883
872.0,0.0,0.0,0.0,0.0,0.0,0.0,-0.02604646421968937,0.03941752016544342,0.01572190225124359,0.9989765286445618,-0.01354388240724802,-0.04062369093298912,0.014589195139706135
873.0,0.0,0.0,0.0,0.0,0.0,0.0,-0.027899129316210747,0.05423673614859581,0.021489687263965607,0.9991349577903748,-0.012512977235019207,-0.038671087473630905,0.008839941583573818
874.0,0.0,0.0,0.0,0.0,0.0,0.0,-0.016554199159145355,0.026951417326927185,-0.013967460952699184,0.9991344809532166,-0.010575953871011734,-0.038539495319128036,0.011599934659898281
875.0,0.0,0.0,0.0,0.0,0.0,0.0,-0.020929815247654915,0.037265535444021225,-0.009779131039977074,0.9991278648376465,-0.008810682222247124,-0.038424257189035416,0.013778735883533955
876.0,0.0,0.0,0.0,0.0,0.0,0.0,-0.024545082822442055,0.038540326058864594,-0.0023884305264800787,0.9992563724517822,-0.00941343791782856,-0.0359550416469574,0.010301689617335796
877.0,0.0,0.0,0.0,0.0,0.0,0.0,-0.016421198844909668,0.025361353531479836,0.003484058426693082,0.9992387294769287,-0.007442965637892485,-0.03630200773477554,0.012255357578396797
878.0,0.0,0.0,0.0,0.0,0.0,0.0,-0.03216108679771423,0.01776767149567604,0.010292904451489449,0.9991462230682373,-0.004016244318336248,-0.037573978304862976,0.01671774871647358
879.0,0.0,0.0,0.0,0.0,0.0,0.0,-0.02605840191245079,0.014139450155198574,0.02755388244986534,0.999184250831604,-0.005946581717580557,-0.037126947194337845,0.014759095385670662
880.0,0.0,0.0,0.0,0.0,0.0,0.0,-0.03349390998482704,0.019567394629120827,0.02270437590777874,0.99912029504776,-0.0036636574659496546,-0.03642702475190163,0.020460261031985283
