,Position_X,Position_Y,Position_Z,Velocity_X,Velocity_Y,Velocity_Z,Acceleration_X,Acceleration_Y,Acceleration_Z,Quaterion_0,Quaterion_1,Quaterion_2,Quaterion_3
207.0,0.0,0.0,0.0,0.0,0.0,0.0,-0.019583415240049362,0.002026684582233429,-0.003299841657280922,1.0,1.214306433183765e-17,3.469446951953614e-18,5.551115123125783e-17
208.0,0.0,0.0,0.0,0.0,0.0,0.0,-0.018576808273792267,0.0032788473181426525,-0.004122068639844656,0.9999990463256836,-0.00015411476488225162,0.0013725532917305827,0.00010696683602873236
209.0,0.0,0.0,0.0,0.0,0.0,0.0,-0.01636485382914543,0.001991770463064313,-0.018697934225201607,0.9999967813491821,-5.581347431871109e-05,0.0025171861052513123,0.00021286329138092697
210.0,0.0,0.0,0.0,0.0,0.0,0.0,-0.005766419693827629,-0.005943118128925562,-0.027090715244412422,0.9999955296516418,-0.0003937534929718822,0.002898929174989462,0.0006600595079362392
211.0,0.0,0.0,0.0,0.0,0.0,0.0,-0.00283071119338274,-0.006650666240602732,-0.013999476097524166,0.999995231628418,-0.0007894892478361726,0.0028875083662569523,0.0007949381251819432
212.0,0.0,0.0,0.0,0.0,0.0,0.0,-0.009021907113492489,-0.00421171123161912,-0.007678813301026821,0.9999958276748657,-0.0008666886133141816,0.002596569014713168,0.000939374091103673
213.0,0.0,0.0,0.0,0.0,0.0,0.0,-0.006395678035914898,0.004450353793799877,0.004676589276641607,0.9999958872795105,-0.0006349434261210263,0.0022461041808128357,0.001664981828071177
214.0,0.0,0.0,0.0,0.0,0.0,0.0,-0.008472825400531292,0.010954133234918118,0.004999014548957348,0.999994695186615,-4.271838770364411e-05,0.0019635118078440428,0.002606935566291213
215.0,0.0,0.0,0.0,0.0,0.0,0.0,-0.010878055356442928,0.01443918701261282,0.010520312003791332,0.9999922513961792,0.0005311747081577778,0.0024386243894696236,0.0030500139109790325
216.0,0.0,0.0,0.0,0.0,0.0,0.0,-0.009296408854424953,0.015257036313414574,0.01306227222084999,0.9999886155128479,0.0011355741880834103,0.0035363617353141308,0.002991057001054287
217.0,0.0,0.0,0.0,0.0,0.0,0.0,-0.004028120078146458,0.01740150712430477,0.004429000895470381,0.9999805688858032,0.002076607197523117,0.004710262641310692,0.0035198323894292116
218.0,0.0,0.0,0.0,0.0,0.0,0.0,0.002694504801183939,0.018247298896312714,-0.008673906326293945,0.9999693036079407,0.0033723763190209866,0.0055910260416567326,0.004338403232395649
219.0,0.0,0.0,0.0,0.0,0.0,0.0,0.0043399943970143795,0.01702478714287281,-0.029254164546728134,0.9999593496322632,0.004676919896155596,0.006177197210490704,0.004614959005266428
220.0,0.0,0.0,0.0,0.0,0.0,0.0,0.005204599350690842,0.017413847148418427,-0.03437002748250961,0.9999521970748901,0.0056757316924631596,0.005875373259186745,0.00537560461089015
221.0,0.0,0.0,0.0,0.0,0.0,0.0,0.009270413778722286,0.02134811505675316,-0.02074332721531391,0.9999412298202515,0.006595399230718613,0.004615485668182373,0.007260987535119057
222.0,0.0,0.0,0.0,0.0,0.0,0.0,0.00926192570477724,0.023675011470913887,-0.00440251687541604,0.9999300837516785,0.007121860980987549,0.002898853039368987,0.008986813947558403
223.0,0.0,0.0,0.0,0.0,0.0,0.0,0.009059857577085495,0.020039353519678116,0.006465777289122343,0.9999252557754517,0.0070584299974143505,0.0010101262014359236,0.00993124209344387
224.0,0.0,0.0,0.0,0.0,0.0,0.0,0.004310087766498327,0.013385040685534477,0.009583120234310627,0.9999198317527771,0.006813656538724899,-0.0004677998076658696,0.010664648376405239
225.0,0.0,0.0,0.0,0.0,0.0,0.0,-0.004125888459384441,0.009533148258924484,0.013701945543289185,0.9999121427536011,0.0066408682614564896,-0.0018308676080778241,0.01132705807685852
226.0,0.0,0.0,0.0,0.0,0.0,0.0,-0.011640775948762894,0.004905033390969038,0.016492869704961777,0.9999040961265564,0.00669760350137949,-0.002713245339691639,0.011813306249678135
227.0,0.0,0.0,0.0,0.0,0.0,0.0,-0.01693427376449108,0.0044857109896838665,0.01260471809655428,0.9999055862426758,0.0065574306063354015,-0.0028700167313218117,0.01172951515763998
228.0,0.0,0.0,0.0,0.0,0.0,0.0,-0.017801282927393913,0.00288748717866838,0.0052028014324605465,0.9999070763587952,0.006725170649588108,-0.0027681575156748295,0.01152933482080698
229.0,0.0,0.0,0.0,0.0,0.0,0.0,-0.016903705894947052,0.0053076306357979774,-0.007741759065538645,0.9999029040336609,0.007109918165951967,-0.0023851830046623945,0.011744246818125248
230.0,0.0,0.0,0.0,0.0,0.0,0.0,-0.016323620453476906,0.008672282099723816,-0.01357025746256113,0.9998978972434998,0.007568486034870148,-0.002045341534540057,0.01194959506392479
231.0,0.0,0.0,0.0,0.0,0.0,0.0,-0.01263958029448986,0.011699297465384007,-0.013832122087478638,0.9998882412910461,0.007738517131656408,-0.0015160745242610574,0.012700135819613934
232.0,0.0,0.0,0.0,0.0,0.0,0.0,-0.0043355985544621944,0.01794464886188507,-0.015817245468497276,0.9998718500137329,0.007882132194936275,-0.0010659442050382495,0.013891859911382198
233.0,0.0,0.0,0.0,0.0,0.0,0.0,0.002688860520720482,0.022919349372386932,-0.01842835545539856,0.999848484992981,0.008474864065647125,-0.0007094938773661852,0.015188539400696754
234.0,0.0,0.0,0.0,0.0,0.0,0.0,0.005444915033876896,0.023125560954213142,-0.02560146152973175,0.9998142719268799,0.009267388842999935,-0.0007795215933583677,0.01688183657824993
235.0,0.0,0.0,0.0,0.0,0.0,0.0,0.00495552783831954,0.0210071112960577,-0.026343531906604767,0.9997795224189758,0.009865175001323223,-0.0016173247713595629,0.018465209752321243
236.0,0.0,0.0,0.0,0.0,0.0,0.0,0.004671781323850155,0.016024241223931313,-0.023161420598626137,0.9997459053993225,0.010237287729978561,-0.002971877111122012,0.01986090838909149
237.0,0.0,0.0,0.0,0.0,0.0,0.0,0.002404819242656231,0.010415609925985336,-0.0209824051707983,0.9997075796127319,0.010446603409945965,-0.004672587383538485,0.021301938220858574
238.0,0.0,0.0,0.0,0.0,0.0,0.0,0.0007840917096473277,0.006412203889340162,-0.015534186735749245,0.9996709823608398,0.0098470663651824,-0.006398383527994156,0.022803226485848427
239.0,0.0,0.0,0.0,0.0,0.0,0.0,-0.0024548880755901337,0.0003360912960488349,-0.003152202581986785,0.9996483325958252,0.008643544279038906,-0.007669114042073488,0.02387070097029209
240.0,0.0,0.0,0.0,0.0,0.0,0.0,-0.004493136890232563,-0.004850971512496471,0.00948594231158495,0.999643862247467,0.0076055387035012245,-0.008819282054901123,0.024012282490730286
241.0,0.0,0.0,0.0,0.0,0.0,0.0,-0.011452081613242626,-0.010448100976645947,0.013483641669154167,0.999627947807312,0.006750014144927263,-0.010020197369158268,0.024456383660435677
242.0,0.0,0.0,0.0,0.0,0.0,0.0,-0.01445898599922657,-0.013957506977021694,0.011674713343381882,0.99961918592453,0.006068982183933258,-0.01080241333693266,0.024657510221004486
243.0,0.0,0.0,0.0,0.0,0.0,0.0,-0.016364136710762978,-0.017373772338032722,0.006746260914951563,0.999631404876709,0.005274421069771051,-0.011337347328662872,0.024099253118038177
244.0,0.0,0.0,0.0,0.0,0.0,0.0,-0.019079118967056274,-0.017365632578730583,0.007310716435313225,0.999638020992279,0.004699213430285454,-0.011742393486201763,0.023747023195028305
245.0,0.0,0.0,0.0,0.0,0.0,0.0,-0.020070334896445274,-0.016725754365324974,0.008664811961352825,0.9996565580368042,0.004175242967903614,-0.011038044467568398,0.023400137200951576
246.0,0.0,0.0,0.0,0.0,0.0,0.0,-0.01926492713391781,-0.014603857882320881,0.002822978887706995,0.9997026324272156,0.0034959656186401844,-0.009688097983598709,0.02210507169365883
247.0,0.0,0.0,0.0,0.0,0.0,0.0,-0.014512208290398121,-0.01204598043113947,-0.007223961409181356,0.9997401237487793,0.0028760347049683332,-0.008331225253641605,0.02102535404264927
248.0,0.0,0.0,0.0,0.0,0.0,0.0,-0.002717023016884923,-0.019815390929579735,-0.04529577121138573,0.9997588396072388,0.0022154212929308414,-0.007213873788714409,0.02062428556382656
249.0,0.0,0.0,0.0,0.0,0.0,0.0,0.0037331015337258577,-0.015031557530164719,-0.026635702699422836,0.9997473359107971,0.001953406725078821,-0.007506189867854118,0.021099155768752098
250.0,0.0,0.0,0.0,0.0,0.0,0.0,0.005462111439555883,-0.002593421842902899,-0.01895155757665634,0.9997105002403259,0.0021921100560575724,-0.008673524484038353,0.022334730252623558
251.0,0.0,0.0,0.0,0.0,0.0,0.0,0.004207689315080643,0.006930690258741379,0.004658297635614872,0.9996845126152039,0.002453995868563652,-0.009727831929922104,0.02302565611898899
252.0,0.0,0.0,0.0,0.0,0.0,0.0,0.0023244647309184074,0.014247355982661247,0.015928233042359352,0.9996704459190369,0.0024335139896720648,-0.010102882981300354,0.02347491681575775
253.0,0.0,0.0,0.0,0.0,0.0,0.0,-0.0047101471573114395,0.013918804936110973,0.010873724706470966,0.999664306640625,0.0024761317763477564,-0.009995592758059502,0.02377343736588955
254.0,0.0,0.0,0.0,0.0,0.0,0.0,-0.006675403099507093,0.014078331179916859,0.005241135600954294,0.9996558427810669,0.002886570291593671,-0.009743491187691689,0.024186082184314728
255.0,0.0,0.0,0.0,0.0,0.0,0.0,-0.007536343764513731,0.015935633331537247,-0.004917487036436796,0.9996440410614014,0.003510438371449709,-0.009395245462656021,0.024723678827285767
256.0,0.0,0.0,0.0,0.0,0.0,0.0,-0.0035277940332889557,0.01938560977578163,-0.011239126324653625,0.9996251463890076,0.00421954644843936,-0.009410995990037918,0.02536262944340706
257.0,0.0,0.0,0.0,0.0,0.0,0.0,-0.00200881389901042,0.018011480569839478,-0.012438504956662655,0.9996188282966614,0.00461546191945672,-0.00957966223359108,0.025479480624198914
258.0,0.0,0.0,0.0,0.0,0.0,0.0,-0.003262885846197605,0.0136693911626935,-0.011206128634512424,0.9996039271354675,0.004909988958388567,-0.00998949445784092,0.02584953047335148
259.0,0.0,0.0,0.0,0.0,0.0,0.0,-0.005552863702178001,0.007999591529369354,-0.0141052957624197,0.9995770454406738,0.005180603824555874,-0.010648485273122787,0.026561515405774117
260.0,0.0,0.0,0.0,0.0,0.0,0.0,-0.011088885366916656,0.0030925364699214697,-0.01143017690628767,0.999560534954071,0.004671080969274044,-0.011394346132874489,0.026964494958519936
261.0,0.0,0.0,0.0,0.0,0.0,0.0,-0.006807335652410984,0.004952217917889357,-0.007807668298482895,0.9995379447937012,0.004240886773914099,-0.012371220625936985,0.027439190074801445
262.0,0.0,0.0,0.0,0.0,0.0,0.0,-0.003708185628056526,0.007876562885940075,0.0018085361225530505,0.9995015859603882,0.0038208747282624245,-0.01348052080720663,0.028290320187807083
263.0,0.0,0.0,0.0,0.0,0.0,0.0,-0.012234238907694817,0.00022495492885354906,0.01903827302157879,0.9994716048240662,0.003365242388099432,-0.014569190330803394,0.028862228617072105
264.0,0.0,0.0,0.0,0.0,0.0,0.0,-0.012729494832456112,-0.0016960613429546356,0.022752856835722923,0.9994574785232544,0.0030679197516292334,-0.015376279130578041,0.028964519500732422
265.0,0.0,0.0,0.0,0.0,0.0,0.0,-0.013443374074995518,-0.0010905738454312086,0.012567125260829926,0.9994699954986572,0.00281940377317369,-0.015524604357779026,0.02847542241215706
266.0,0.0,0.0,0.0,0.0,0.0,0.0,-0.016448158770799637,-0.0018934550462290645,0.0043209027498960495,0.9994757771492004,0.0028929971158504486,-0.015615507960319519,0.02821197360754013
267.0,0.0,0.0,0.0,0.0,0.0,0.0,-0.017755737528204918,4.104797699255869e-05,0.00036801001988351345,0.9994879364967346,0.003062887815758586,-0.015095123089849949,0.028047986328601837
268.0,0.0,0.0,0.0,0.0,0.0,0.0,-0.017835058271884918,0.0018893025116994977,-0.0025585894472897053,0.9995189905166626,0.0031644199043512344,-0.014160373248159885,0.027410713955760002
269.0,0.0,0.0,0.0,0.0,0.0,0.0,-0.015710175037384033,0.0009268684079870582,-0.006781811360269785,0.9995486736297607,0.003447794821113348,-0.012938684783875942,0.026891693472862244
270.0,0.0,0.0,0.0,0.0,0.0,0.0,-0.013245479203760624,0.0025650421157479286,-0.011877447366714478,0.9995729923248291,0.0037452743854373693,-0.011858019046485424,0.026443103328347206
271.0,0.0,0.0,0.0,0.0,0.0,0.0,-0.012130266055464745,0.004399117082357407,-0.01746969111263752,0.9995792508125305,0.004570783581584692,-0.01093363482505083,0.026477139443159103
272.0,0.0,0.0,0.0,0.0,0.0,0.0,-0.010353254154324532,0.003671579761430621,-0.017323164269328117,0.9995700716972351,0.005189714953303337,-0.010313627310097218,0.02695116214454174
273.0,0.0,0.0,0.0,0.0,0.0,0.0,-0.0071791294030845165,0.0028109420090913773,-0.01332310400903225,0.9995510578155518,0.005951618310064077,-0.009754308499395847,0.027697499841451645
274.0,0.0,0.0,0.0,0.0,0.0,0.0,-0.006643080618232489,0.0015794862993061543,-0.009710561484098434,0.9995443224906921,0.006361400708556175,-0.009051874279975891,0.02808554470539093
275.0,0.0,0.0,0.0,0.0,0.0,0.0,-0.0053251758217811584,0.001222077989950776,-0.007400494068861008,0.9995372891426086,0.00692386319860816,-0.00845602061599493,0.02838609740138054
276.0,0.0,0.0,0.0,0.0,0.0,0.0,-0.004203135147690773,-0.00037095966399647295,-0.007260351441800594,0.9995437264442444,0.007121019996702671,-0.007747496012598276,0.02831350453197956
277.0,0.0,0.0,0.0,0.0,0.0,0.0,-0.0011335122399032116,-0.0007093478343449533,-0.010688355192542076,0.9995424151420593,0.007261986844241619,-0.007357963360846043,0.028428079560399055
278.0,0.0,0.0,0.0,0.0,0.0,0.0,-0.002081206301227212,0.0001161186519311741,-0.011427055113017559,0.999523401260376,0.007302194833755493,-0.00727483443915844,0.029099399223923683
279.0,0.0,0.0,0.0,0.0,0.0,0.0,-0.0027193273417651653,0.0009790277108550072,-0.00945263635367155,0.999485194683075,0.007138171698898077,-0.007271602749824524,0.030422141775488853
280.0,0.0,0.0,0.0,0.0,0.0,0.0,-0.0041941069066524506,0.00191778177395463,-0.0028422847390174866,0.9994533061981201,0.006828851532191038,-0.007314554415643215,0.03151196986436844
281.0,0.0,0.0,0.0,0.0,0.0,0.0,-0.004329218994826078,0.0012710236478596926,0.0011681955074891448,0.9994735717773438,0.006008681375533342,-0.006207140162587166,0.03127436339855194
282.0,0.0,0.0,0.0,0.0,0.0,0.0,-0.0063992757350206375,0.0013756905682384968,0.00355637539178133,0.9994889497756958,0.00494584022089839,-0.005180258769541979,0.031155146658420563
283.0,0.0,0.0,0.0,0.0,0.0,0.0,0.00020528139430098236,-0.003525689709931612,-0.042538631707429886,0.9994879961013794,0.0035976353101432323,-0.004593991208821535,0.03145988658070564
284.0,0.0,0.0,0.0,0.0,0.0,0.0,0.013284064829349518,-0.0035014869645237923,-0.0361933633685112,0.9994648098945618,0.0020578589756041765,-0.005448885727673769,0.03218996524810791
285.0,0.0,0.0,0.0,0.0,0.0,0.0,0.016552353277802467,0.004472306463867426,-0.017965739592909813,0.9994144439697266,0.0008713473216630518,-0.007462426088750362,0.033380649983882904
286.0,0.0,0.0,0.0,0.0,0.0,0.0,0.012182076461613178,0.009302732534706593,0.004205367527902126,0.999376654624939,-1.6703197616152465e-05,-0.009538756683468819,0.033990319818258286
287.0,0.0,0.0,0.0,0.0,0.0,0.0,0.004555592313408852,0.009698107838630676,0.013720077462494373,0.9993534684181213,-0.000669418484903872,-0.01101128850132227,0.03422018885612488
288.0,0.0,0.0,0.0,0.0,0.0,0.0,-0.006815255153924227,0.005069594830274582,0.010294950567185879,0.9993402361869812,-0.0012687921989709139,-0.011883114464581013,0.03429851680994034
289.0,0.0,0.0,0.0,0.0,0.0,0.0,-0.01608695648610592,0.0011643925681710243,0.002208807272836566,0.9993664026260376,-0.0017950960900634527,-0.011658397503197193,0.033581383526325226
290.0,0.0,0.0,0.0,0.0,0.0,0.0,-0.01752343773841858,0.001826010993681848,-0.005409962497651577,0.9993745684623718,-0.0017624507891014218,-0.011579291895031929,0.033366668969392776
291.0,0.0,0.0,0.0,0.0,0.0,0.0,-0.016133587807416916,0.004119261633604765,-0.009039066731929779,0.9993839263916016,-0.001182457199320197,-0.011595088057219982,0.0331067219376564
292.0,0.0,0.0,0.0,0.0,0.0,0.0,-0.01371551863849163,0.005854208022356033,-0.006912929937243462,0.9994170069694519,-0.0007454139995388687,-0.010908863507211208,0.03234531357884407
293.0,0.0,0.0,0.0,0.0,0.0,0.0,-0.015886204317212105,0.005859082564711571,-0.0031485427170991898,0.9994649291038513,-0.00026054895715788007,-0.009867873042821884,0.03118518739938736
294.0,0.0,0.0,0.0,0.0,0.0,0.0,-0.016138166189193726,0.004370571114122868,-0.0020606094039976597,0.9994861483573914,0.0008750639390200377,-0.0090031111612916,0.03075130470097065
295.0,0.0,0.0,0.0,0.0,0.0,0.0,-0.016168659552931786,0.0019950661808252335,-0.011287379078567028,0.9995176196098328,0.0013335340190678835,-0.008481394499540329,0.029848041012883186
296.0,0.0,0.0,0.0,0.0,0.0,0.0,-0.010341798886656761,0.003251617541536689,-0.029987327754497528,0.9995402693748474,0.0005441096145659685,-0.009075840935111046,0.02892487496137619
297.0,0.0,0.0,0.0,0.0,0.0,0.0,-0.0025264702271670103,0.004259602632373571,-0.04433952271938324,0.9995422959327698,-0.0005633124965243042,-0.01014240738004446,0.028496339917182922
298.0,0.0,0.0,0.0,0.0,0.0,0.0,-0.00299330847337842,-0.0007713421364314854,-0.041636306792497635,0.9995703101158142,-0.0030374820344150066,-0.011349375359714031,0.02685636095702648
299.0,0.0,0.0,0.0,0.0,0.0,0.0,-0.008153448812663555,-0.003817623946815729,-0.03760465234518051,0.999592661857605,-0.005542500875890255,-0.012502477504312992,0.02505062334239483
300.0,0.0,0.0,0.0,0.0,0.0,0.0,-0.005160775035619736,-0.0005708637181669474,-0.02400512620806694,0.9995735883712769,-0.007516366429626942,-0.014468454755842686,0.024225180968642235
301.0,0.0,0.0,0.0,0.0,0.0,0.0,-0.004971727728843689,0.001488500856794417,-0.011318724602460861,0.9995599389076233,-0.009591642767190933,-0.016510723158717155,0.022701891139149666
302.0,0.0,0.0,0.0,0.0,0.0,0.0,-0.002799726789817214,0.0034562384244054556,-0.006694620940834284,0.9995163083076477,-0.01140525285154581,-0.019012020900845528,0.021809130907058716
303.0,0.0,0.0,0.0,0.0,0.0,0.0,-0.0005650981911458075,0.005147004500031471,-0.007074549328535795,0.999445378780365,-0.013249313458800316,-0.02193892002105713,0.021261420100927353
304.0,0.0,0.0,0.0,0.0,0.0,0.0,-0.0016949062701314688,0.005489447619765997,-0.005312422290444374,0.9993770122528076,-0.015093808993697166,-0.02414071373641491,0.02085581235587597
305.0,0.0,0.0,0.0,0.0,0.0,0.0,-0.003419494489207864,0.005479665007442236,0.0016942138317972422,0.9993258118629456,-0.016972120851278305,-0.02530595473945141,0.02048412151634693
306.0,0.0,0.0,0.0,0.0,0.0,0.0,-0.004450674168765545,0.003380187787115574,0.008243914693593979,0.999280571937561,-0.018414491787552834,-0.026019735261797905,0.020550068467855453
307.0,0.0,0.0,0.0,0.0,0.0,0.0,-0.004099574405699968,0.0011574106756597757,0.01013245340436697,0.9992348551750183,-0.019977763295173645,-0.02656119130551815,0.020619552582502365
308.0,0.0,0.0,0.0,0.0,0.0,0.0,-0.0018096191342920065,-0.00031832081731408834,0.006596971303224564,0.9991964101791382,-0.021595794707536697,-0.02693977952003479,0.020357416942715645
309.0,0.0,0.0,0.0,0.0,0.0,0.0,0.0016924041556194425,-0.0013040757039561868,-0.00010643148561939597,0.9991645216941833,-0.023481499403715134,-0.02715223841369152,0.019537683576345444
310.0,0.0,0.0,0.0,0.0,0.0,0.0,0.004537074360996485,-0.0011947468155995011,-0.004289346747100353,0.9991251826286316,-0.025725815445184708,-0.027350809425115585,0.018412591889500618
311.0,0.0,0.0,0.0,0.0,0.0,0.0,0.00587350782006979,0.0005760862841270864,-0.007822083309292793,0.9990778565406799,-0.027395790442824364,-0.027877993881702423,0.017772546038031578
312.0,0.0,0.0,0.0,0.0,0.0,0.0,0.0050948322750627995,0.0019639176316559315,-0.004126889165490866,0.9990248680114746,-0.02890702150762081,-0.028402304276823997,0.01752353273332119
313.0,0.0,0.0,0.0,0.0,0.0,0.0,0.006080955732613802,0.004991572350263596,0.00255848397500813,0.9989854693412781,-0.029813699424266815,-0.029073286801576614,0.017147207632660866
314.0,0.0,0.0,0.0,0.0,0.0,0.0,0.007282709237188101,0.006127708591520786,0.009686118923127651,0.9989420175552368,-0.03033025749027729,-0.03006565570831299,0.01706312596797943
315.0,0.0,0.0,0.0,0.0,0.0,0.0,0.009882191196084023,0.009485775604844093,0.010056992061436176,0.998878002166748,-0.030371561646461487,-0.03163972869515419,0.017870567739009857
316.0,0.0,0.0,0.0,0.0,0.0,0.0,0.011893589980900288,0.011543466709554195,0.013153230771422386,0.9988150596618652,-0.03025718405842781,-0.03309667110443115,0.018913067877292633
317.0,0.0,0.0,0.0,0.0,0.0,0.0,0.013357804156839848,0.01199525035917759,0.016404535621404648,0.9987478256225586,-0.03035256639122963,-0.03451387956738472,0.019757647067308426
318.0,0.0,0.0,0.0,0.0,0.0,0.0,0.01248166523873806,0.010559499263763428,0.015666605904698372,0.9986829161643982,-0.03032599575817585,-0.036017775535583496,0.02038632705807686
319.0,0.0,0.0,0.0,0.0,0.0,0.0,0.013857911340892315,0.009812615811824799,0.012218334712088108,0.9986166954040527,-0.030926289036870003,-0.037131767719984055,0.020725995302200317
320.0,0.0,0.0,0.0,0.0,0.0,0.0,0.01250373013317585,0.008125243708491325,0.008824550546705723,0.9985432624816895,-0.03201233968138695,-0.0379316583275795,0.021164333447813988
321.0,0.0,0.0,0.0,0.0,0.0,0.0,0.011540625244379044,0.007089454215019941,0.006707594729959965,0.9984712600708008,-0.033001091331243515,-0.038717061281204224,0.02161264792084694
322.0,0.0,0.0,0.0,0.0,0.0,0.0,0.010121013037860394,0.006266382057219744,0.005816666875034571,0.998440682888031,-0.03350794315338135,-0.03881799057126045,0.02206074818968773
323.0,0.0,0.0,0.0,0.0,0.0,0.0,0.006266762502491474,0.0061086323112249374,0.003318378236144781,0.9984530806541443,-0.033972542732954025,-0.03833998367190361,0.021617917343974113
324.0,0.0,0.0,0.0,0.0,0.0,0.0,0.005982011090964079,0.005274444818496704,-0.0019765489269047976,0.9984601140022278,-0.03421406075358391,-0.037989553064107895,0.02153375931084156
325.0,0.0,0.0,0.0,0.0,0.0,0.0,0.005515686701983213,0.0053865802474319935,-0.011758525855839252,0.9984614253044128,-0.03423137962818146,-0.0377248115837574,0.021908368915319443
326.0,0.0,0.0,0.0,0.0,0.0,0.0,0.004245375283062458,0.004186560865491629,-0.018442627042531967,0.9984782934188843,-0.03441658616065979,-0.03709649667143822,0.021923460066318512
327.0,0.0,0.0,0.0,0.0,0.0,0.0,0.004629029426723719,0.0038786304648965597,-0.02378588542342186,0.9985271096229553,-0.0344121940433979,-0.03587481379508972,0.021733438596129417
328.0,0.0,0.0,0.0,0.0,0.0,0.0,0.006067474838346243,0.0045471517369151115,-0.02802952006459236,0.9985580444335938,-0.034604135900735855,-0.0350162573158741,0.021405301988124847
329.0,0.0,0.0,0.0,0.0,0.0,0.0,0.0058865114115178585,0.0023119118995964527,-0.03179553896188736,0.9985494017601013,-0.034948285669088364,-0.03470711410045624,0.021754568442702293
330.0,0.0,0.0,0.0,0.0,0.0,0.0,0.00860638078302145,0.002444263081997633,-0.035438552498817444,0.9985163807868958,-0.03549614176154137,-0.03476938232779503,0.02227458544075489
331.0,0.0,0.0,0.0,0.0,0.0,0.0,0.007068571634590626,0.0011626917403191328,-0.030653253197669983,0.9984508752822876,-0.03649647533893585,-0.035369470715522766,0.02264905348420143
332.0,0.0,0.0,0.0,0.0,0.0,0.0,0.003946516662836075,-0.00031008434598334134,-0.017061613500118256,0.9983775019645691,-0.037434499710798264,-0.036134980618953705,0.023138675838708878
333.0,0.0,0.0,0.0,0.0,0.0,0.0,0.0017782844370231032,-0.0034811252262443304,-0.004980584140866995,0.9982883930206299,-0.03835466131567955,-0.03733054921030998,0.023576585575938225
334.0,0.0,0.0,0.0,0.0,0.0,0.0,-0.0012098514707759023,-0.005961064714938402,0.0032950921449810266,0.9981820583343506,-0.03946750983595848,-0.03873921185731888,0.02396341785788536
335.0,0.0,0.0,0.0,0.0,0.0,0.0,-0.0027427487075328827,-0.006204307544976473,0.009270762093365192,0.998083233833313,-0.04059997946023941,-0.040124014019966125,0.023913085460662842
336.0,0.0,0.0,0.0,0.0,0.0,0.0,-0.004447136539965868,-0.007637673523277044,0.015368730761110783,0.9979902505874634,-0.041465748101472855,-0.041598740965127945,0.02378322370350361
337.0,0.0,0.0,0.0,0.0,0.0,0.0,-0.006868844386190176,-0.00949359592050314,0.017668310552835464,0.9979020357131958,-0.0421135313808918,-0.04285856708884239,0.024109777063131332
338.0,0.0,0.0,0.0,0.0,0.0,0.0,-0.0062948414124548435,-0.009002270177006721,0.017007188871502876,0.9978429079055786,-0.04280387982726097,-0.043549250811338425,0.024100007489323616
339.0,0.0,0.0,0.0,0.0,0.0,0.0,-0.005730122793465853,-0.008217978291213512,0.012621498666703701,0.9977961182594299,-0.043413009494543076,-0.04382298141717911,0.024454722180962563
340.0,0.0,0.0,0.0,0.0,0.0,0.0,-0.0058745951391756535,-0.007737885229289532,0.007714287843555212,0.9977939128875732,-0.0436420664191246,-0.043604858219623566,0.024521522223949432
341.0,0.0,0.0,0.0,0.0,0.0,0.0,-0.0027930305805057287,-0.0052131544798612595,0.012070451863110065,0.997810423374176,-0.04354017972946167,-0.04319494962692261,0.024760020896792412
342.0,0.0,0.0,0.0,0.0,0.0,0.0,-0.0007772481767460704,-0.0073705147951841354,0.010851874016225338,0.9978529810905457,-0.04330338165163994,-0.042550038546323776,0.024572961032390594
343.0,0.0,0.0,0.0,0.0,0.0,0.0,0.0015842790016904473,-0.007339774630963802,-0.0002022172702709213,0.9978570938110352,-0.043356649577617645,-0.04247201606631279,0.024448547512292862
344.0,0.0,0.0,0.0,0.0,0.0,0.0,0.0015145039651542902,-0.010074296034872532,-0.008608393371105194,0.9978229403495789,-0.043695446103811264,-0.04291822388768196,0.02446119301021099
345.0,0.0,0.0,0.0,0.0,0.0,0.0,-0.00048018828965723515,-0.009468480944633484,-0.009770299308001995,0.9977526068687439,-0.04409986361861229,-0.04387180879712105,0.024909326806664467
346.0,0.0,0.0,0.0,0.0,0.0,0.0,-0.002660770434886217,-0.006251275539398193,-0.002658872865140438,0.9976835250854492,-0.04412800073623657,-0.0447896309196949,0.02596677653491497
347.0,0.0,0.0,0.0,0.0,0.0,0.0,-0.005894886329770088,-0.00203455938026309,0.016752343624830246,0.9976445436477661,-0.04370659589767456,-0.04539310187101364,0.027103330940008163
348.0,0.0,0.0,0.0,0.0,0.0,0.0,-0.010506664402782917,-0.0003281255776528269,0.028994565829634666,0.9976407289505005,-0.04301029071211815,-0.04579457268118858,0.02767804078757763
349.0,0.0,0.0,0.0,0.0,0.0,0.0,-0.011660761199891567,0.00017821413348428905,0.028975533321499825,0.9977020621299744,-0.041742533445358276,-0.04547290876507759,0.027937868610024452
350.0,0.0,0.0,0.0,0.0,0.0,0.0,-0.008663556538522243,0.00113778468221426,0.015050100162625313,0.997782826423645,-0.0400698222219944,-0.04490590840578079,0.028413819149136543
351.0,0.0,0.0,0.0,0.0,0.0,0.0,-0.008180754259228706,0.0013152637984603643,-0.002315020188689232,0.997871458530426,-0.038094084709882736,-0.04421187564730644,0.029099658131599426
352.0,0.0,0.0,0.0,0.0,0.0,0.0,-0.00695055304095149,0.0025959096383303404,-0.012327545322477818,0.9979370832443237,-0.036308445036411285,-0.04363122209906578,0.02999398484826088
353.0,0.0,0.0,0.0,0.0,0.0,0.0,-0.009398619644343853,0.003618620103225112,-0.016155550256371498,0.9979985356330872,-0.03443154692649841,-0.04294033348560333,0.031137047335505486
354.0,0.0,0.0,0.0,0.0,0.0,0.0,-0.009943455457687378,0.006028696428984404,-0.014430087059736252,0.9980496168136597,-0.03279849514365196,-0.04229334741830826,0.03213171660900116
355.0,0.0,0.0,0.0,0.0,0.0,0.0,-0.009538402780890465,0.0054017589427530766,-0.018520444631576538,0.9980809092521667,-0.031045684590935707,-0.04189946874976158,0.033394813537597656
356.0,0.0,0.0,0.0,0.0,0.0,0.0,-0.010944892652332783,0.00499493395909667,-0.020655188709497452,0.9981154799461365,-0.02912256121635437,-0.04137861728668213,0.03471604362130165
357.0,0.0,0.0,0.0,0.0,0.0,0.0,-0.01238409336656332,0.0035406227689236403,-0.012613227590918541,0.9981650710105896,-0.02786438539624214,-0.040190476924180984,0.03570488840341568
358.0,0.0,0.0,0.0,0.0,0.0,0.0,-0.014960773289203644,0.00020373077131807804,-0.0006085996283218265,0.9982511401176453,-0.02645917236804962,-0.03866913914680481,0.03604695200920105
359.0,0.0,0.0,0.0,0.0,0.0,0.0,-0.012488767504692078,-0.0013021854683756828,-0.001084127463400364,0.9983484745025635,-0.025270942598581314,-0.036708950996398926,0.036251556128263474
360.0,0.0,0.0,0.0,0.0,0.0,0.0,-0.010483639314770699,0.0006021586596034467,0.0022649115417152643,0.9984216094017029,-0.02481725811958313,-0.034658242017030716,0.03656871244311333
361.0,0.0,0.0,0.0,0.0,0.0,0.0,-0.0073238154873251915,0.0010545110562816262,0.0006306330324150622,0.998472273349762,-0.023937871679663658,-0.0330042839050293,0.0372941792011261
362.0,0.0,0.0,0.0,0.0,0.0,0.0,-0.004528889432549477,-0.0006728930165991187,0.0037635548505932093,0.9985010027885437,-0.02325695939362049,-0.03165347874164581,0.03811716288328171
363.0,0.0,0.0,0.0,0.0,0.0,0.0,-0.0037197647616267204,0.002161010866984725,0.012372547760605812,0.9985333681106567,-0.022567836567759514,-0.03040151111781597,0.03869974613189697
364.0,0.0,0.0,0.0,0.0,0.0,0.0,-0.0015366568695753813,0.003346341662108898,0.015850240364670753,0.9985343217849731,-0.021916409954428673,-0.029644936323165894,0.03962613642215729
365.0,0.0,0.0,0.0,0.0,0.0,0.0,-0.002024713670834899,0.0024883635342121124,0.015189158730208874,0.9985559582710266,-0.021068163216114044,-0.029029639437794685,0.03999291732907295
366.0,0.0,0.0,0.0,0.0,0.0,0.0,-0.0027453163638710976,0.0024652890861034393,-7.366536010522395e-05,0.9985785484313965,-0.02042629010975361,-0.028476499021053314,0.04016009345650673
367.0,0.0,0.0,0.0,0.0,0.0,0.0,-0.0024884073063731194,0.004394263029098511,-0.013988724909722805,0.9985923767089844,-0.02008984424173832,-0.027872545644640923,0.04041089117527008
368.0,0.0,0.0,0.0,0.0,0.0,0.0,-0.004581758286803961,0.005898591130971909,-0.0173310749232769,0.9985957145690918,-0.01960800401866436,-0.027399880811572075,0.04088452830910683
369.0,0.0,0.0,0.0,0.0,0.0,0.0,-0.006069696042686701,0.0099791269749403,-0.02222204953432083,0.9985885620117188,-0.018988503143191338,-0.02699235826730728,0.04161493852734566
370.0,0.0,0.0,0.0,0.0,0.0,0.0,-0.00938333012163639,0.011114826425909996,-0.02073175087571144,0.9985743165016174,-0.018682217225432396,-0.026662038639187813,0.04230199009180069
371.0,0.0,0.0,0.0,0.0,0.0,0.0,-0.011825086548924446,0.012128687463700771,-0.016513515263795853,0.9985796213150024,-0.01830240525305271,-0.02597658336162567,0.04276788979768753
372.0,0.0,0.0,0.0,0.0,0.0,0.0,-0.012481644749641418,0.010585551150143147,-0.02197776734828949,0.9986133575439453,-0.01765153370797634,-0.02454669028520584,0.043096207082271576
373.0,0.0,0.0,0.0,0.0,0.0,0.0,-0.015198349952697754,0.006020702421665192,-0.026690145954489708,0.9986774921417236,-0.017252080142498016,-0.022224271669983864,0.04303281381726265
374.0,0.0,0.0,0.0,0.0,0.0,0.0,-0.01308552734553814,0.0005947108147665858,-0.03883407264947891,0.9987383484840393,-0.016912538558244705,-0.019880743697285652,0.04289989918470383
375.0,0.0,0.0,0.0,0.0,0.0,0.0,-0.007870172150433064,-0.004476102534681559,-0.03858296573162079,0.9987417459487915,-0.01638425514101982,-0.01859072409570217,0.04359828308224678
376.0,0.0,0.0,0.0,0.0,0.0,0.0,-0.002835747553035617,-0.00868328008800745,-0.032921675592660904,0.9987187385559082,-0.015818383544683456,-0.017741195857524872,0.04467610642313957
377.0,0.0,0.0,0.0,0.0,0.0,0.0,0.0016101348446682096,-0.008350570686161518,-0.017723219469189644,0.9986470937728882,-0.015746835619211197,-0.017905859276652336,0.04621089622378349
378.0,0.0,0.0,0.0,0.0,0.0,0.0,0.005845871288329363,-0.005209825932979584,0.02386343851685524,0.9985384345054626,-0.016223620623350143,-0.01907907798886299,0.04789533466100693
379.0,0.0,0.0,0.0,0.0,0.0,0.0,0.004469132516533136,-0.0042510321363806725,0.05048666149377823,0.9984202980995178,-0.016527168452739716,-0.021254973486065865,0.04931611567735672
380.0,0.0,0.0,0.0,0.0,0.0,0.0,0.002752174623310566,-0.0024455704260617495,0.05286290496587753,0.998351514339447,-0.016919873654842377,-0.023542718961834908,0.04953581467270851
381.0,0.0,0.0,0.0,0.0,0.0,0.0,-0.00022228083980735391,-0.0024773364420980215,0.05171472951769829,0.9983139634132385,-0.016969114542007446,-0.02523665688931942,0.04944276809692383
382.0,0.0,0.0,0.0,0.0,0.0,0.0,-0.0027046853210777044,-0.0034673651680350304,0.04106137529015541,0.9983277320861816,-0.016886742785573006,-0.025854824110865593,0.04886941239237785
383.0,0.0,0.0,0.0,0.0,0.0,0.0,-0.005341241601854563,-0.002602736232802272,0.023717129603028297,0.9983789920806885,-0.016704723238945007,-0.025893311947584152,0.04785165190696716
384.0,0.0,0.0,0.0,0.0,0.0,0.0,-0.010499387979507446,-0.0009683693642728031,0.003210106398910284,0.998416543006897,-0.016167644411325455,-0.025886861607432365,0.04725475236773491
385.0,0.0,0.0,0.0,0.0,0.0,0.0,-0.013068105094134808,0.0018615239532664418,-0.0023355220910161734,0.9984544515609741,-0.015557561069726944,-0.025435874238610268,0.04690495878458023
386.0,0.0,0.0,0.0,0.0,0.0,0.0,-0.014597371220588684,0.008221990428864956,0.0007682733121328056,0.9985111355781555,-0.014560720883309841,-0.024689294397830963,0.046411555260419846
387.0,0.0,0.0,0.0,0.0,0.0,0.0,-0.012655562721192837,0.011155248619616032,-0.0036785276606678963,0.9986056089401245,-0.013985387049615383,-0.02282717078924179,0.045498933643102646
388.0,0.0,0.0,0.0,0.0,0.0,0.0,-0.009754407219588757,0.008694459684193134,-0.007335898000746965,0.9987286925315857,-0.013851619325578213,-0.02016712911427021,0.04407216235995293
389.0,0.0,0.0,0.0,0.0,0.0,0.0,-0.008685859851539135,0.007849794812500477,-0.003997202031314373,0.9988541603088379,-0.01385078951716423,-0.01695256493985653,0.04255721718072891
390.0,0.0,0.0,0.0,0.0,0.0,0.0,-0.0032035813201218843,0.004333709832280874,-0.0025458959862589836,0.9989772439002991,-0.013733156025409698,-0.013686257414519787,0.04085081070661545
391.0,0.0,0.0,0.0,0.0,0.0,0.0,0.003157405648380518,-0.0010647893650457263,-0.004685184918344021,0.9991037845611572,-0.013275031931698322,-0.01114165410399437,0.038617271929979324
392.0,0.0,0.0,0.0,0.0,0.0,0.0,0.0064146071672439575,-0.004288611467927694,-0.0035689363721758127,0.9992005228996277,-0.012539121322333813,-0.009728743694722652,0.036694686859846115
393.0,0.0,0.0,0.0,0.0,0.0,0.0,0.00977256614714861,-0.004518844652920961,0.0020575011149048805,0.9992460608482361,-0.01132859755307436,-0.009256764315068722,0.03596395626664162
394.0,0.0,0.0,0.0,0.0,0.0,0.0,0.00937303900718689,-0.006608234252780676,0.012039873749017715,0.9992767572402954,-0.010024583898484707,-0.009657933376729488,0.03538962081074715
395.0,0.0,0.0,0.0,0.0,0.0,0.0,0.006458199582993984,-0.008606220595538616,0.014937070198357105,0.9992787837982178,-0.008579576388001442,-0.010412310250103474,0.03549683839082718
396.0,0.0,0.0,0.0,0.0,0.0,0.0,0.0025001990143209696,-0.009996620006859303,0.025585563853383064,0.9993067383766174,-0.006981140002608299,-0.010146204382181168,0.035135019570589066
397.0,0.0,0.0,0.0,0.0,0.0,0.0,0.001587000791914761,-0.012718897312879562,0.03253434598445892,0.99940425157547,-0.004879687447100878,-0.00813518650829792,0.03318354859948158
398.0,0.0,0.0,0.0,0.0,0.0,0.0,0.0031101363711059093,-0.012948447838425636,0.02766059897840023,0.9994983077049255,-0.002094794297590852,-0.005342694465070963,0.031149255111813545
399.0,0.0,0.0,0.0,0.0,0.0,0.0,0.0027758285868912935,-0.013891786336898804,0.010273040272295475,0.9995508790016174,0.0007254300289787352,-0.001330250990577042,0.02992791309952736
400.0,0.0,0.0,0.0,0.0,0.0,0.0,0.011059919372200966,-0.005438134539872408,-0.008917172439396381,0.999541699886322,0.0036849777679890394,0.003384857904165983,0.029854372143745422
401.0,0.0,0.0,0.0,0.0,0.0,0.0,0.017391033470630646,0.002374183852225542,-0.026707913726568222,0.9994638562202454,0.006541843060404062,0.009202998131513596,0.03073902614414692
402.0,0.0,0.0,0.0,0.0,0.0,0.0,0.02433858811855316,0.014451798051595688,-0.037323590368032455,0.9993122220039368,0.009624726139008999,0.016005195677280426,0.032034873962402344
403.0,0.0,0.0,0.0,0.0,0.0,0.0,0.030520044267177582,0.028730088844895363,-0.03527039662003517,0.9990631937980652,0.012483268976211548,0.023733360692858696,0.0339701883494854
404.0,0.0,0.0,0.0,0.0,0.0,0.0,0.03974128141999245,0.040723081678152084,-0.03709011152386665,0.9987503290176392,0.015570969320833683,0.031003698706626892,0.035974737256765366
405.0,0.0,0.0,0.0,0.0,0.0,0.0,0.048192039132118225,0.0437442921102047,-0.04401708394289017,0.9983975887298584,0.018257876858115196,0.03782101348042488,0.03793175145983696
406.0,0.0,0.0,0.0,0.0,0.0,0.0,0.05269855633378029,0.038739584386348724,-0.048742808401584625,0.9980126023292542,0.020632347092032433,0.04351212829351425,0.040649570524692535
407.0,0.0,0.0,0.0,0.0,0.0,0.0,0.052266381680965424,0.032507266849279404,-0.0447748638689518,0.9976862668991089,0.022365393117070198,0.04748690500855446,0.04320553317666054
408.0,0.0,0.0,0.0,0.0,0.0,0.0,0.048812780529260635,0.025686001405119896,-0.0387636199593544,0.997467041015625,0.02323204278945923,0.04942413046956062,0.04558271914720535
409.0,0.0,0.0,0.0,0.0,0.0,0.0,0.040869466960430145,0.0190682802349329,-0.019944747909903526,0.9973210692405701,0.023586172610521317,0.04965312406420708,0.04825679957866669
410.0,0.0,0.0,0.0,0.0,0.0,0.0,0.03454669564962387,0.02037069760262966,0.00019654612697195262,0.9972929358482361,0.023556366562843323,0.04771236702799797,0.050759777426719666
411.0,0.0,0.0,0.0,0.0,0.0,0.0,0.024303611367940903,0.021900463849306107,0.02612766996026039,0.997344970703125,0.023966094478964806,0.04361896216869354,0.0531628355383873
412.0,0.0,0.0,0.0,0.0,0.0,0.0,0.016648024320602417,0.0248749777674675,0.05822543799877167,0.9975117444992065,0.02437656745314598,0.03848399221897125,0.0538175106048584
413.0,0.0,0.0,0.0,0.0,0.0,0.0,0.00868997909128666,0.017807796597480774,0.06531646102666855,0.9977262020111084,0.024212349206209183,0.033813465386629105,0.053039729595184326
414.0,0.0,0.0,0.0,0.0,0.0,0.0,0.007028128951787949,0.009286667220294476,0.06851175427436829,0.9978812336921692,0.023762227967381477,0.02994733676314354,0.0526532419025898
415.0,0.0,0.0,0.0,0.0,0.0,0.0,0.015350451692938805,0.005885019898414612,0.05872398614883423,0.9980898499488831,0.023719441145658493,0.025922615081071854,0.050820402801036835
416.0,0.0,0.0,0.0,0.0,0.0,0.0,0.020790433511137962,-0.0007759112631902099,0.0201027262955904,0.9983908534049988,0.025046007707715034,0.02039327472448349,0.046614836901426315
417.0,0.0,0.0,0.0,0.0,0.0,0.0,0.016780806705355644,-0.004404508974403143,-0.01819293387234211,0.998705267906189,0.02843780256807804,0.013141928240656853,0.04008461534976959
418.0,0.0,0.0,0.0,0.0,0.0,0.0,0.014763889834284782,0.002629760419949889,-0.027832230553030968,0.9988479614257812,0.03307943046092987,0.004337115213274956,0.03449775278568268
419.0,0.0,0.0,0.0,0.0,0.0,0.0,0.008795544505119324,0.00551819009706378,-0.04073142260313034,0.9987832307815552,0.03873402997851372,-0.006518778391182423,0.02983340062201023
420.0,0.0,0.0,0.0,0.0,0.0,0.0,0.0009459531866014004,0.0043244026601314545,-0.05444047972559929,0.9984301924705505,0.04446544125676155,-0.018367936834692955,0.028690196573734283
421.0,0.0,0.0,0.0,0.0,0.0,0.0,-0.005562504753470421,0.003057017456740141,-0.07207442820072174,0.9979678392410278,0.04891190677881241,-0.028927963227033615,0.028841214254498482
422.0,0.0,0.0,0.0,0.0,0.0,0.0,-0.0166784655302763,0.006781302858144045,-0.057721346616744995,0.9974548816680908,0.05218895897269249,-0.038199283182621,0.030040819197893143
423.0,0.0,0.0,0.0,0.0,0.0,0.0,-0.022646889090538025,0.009837249293923378,-0.03849439322948456,0.9969696402549744,0.05433008074760437,-0.046024139970541,0.031337007880210876
424.0,0.0,0.0,0.0,0.0,0.0,0.0,-0.03814263269305229,-0.012337169609963894,-0.05311913043260574,0.9967014789581299,0.05373281240463257,-0.0511489100754261,0.032904352992773056
425.0,0.0,0.0,0.0,0.0,0.0,0.0,-0.04296170920133591,-0.016602985560894012,-0.007352659944444895,0.9965296387672424,0.05201509967446327,-0.05511153116822243,0.03446156904101372
426.0,0.0,0.0,0.0,0.0,0.0,0.0,-0.040000494569540024,-0.0132977943867445,0.030698228627443314,0.9964514374732971,0.04879530519247055,-0.05849073454737663,0.035827308893203735
427.0,0.0,0.0,0.0,0.0,0.0,0.0,-0.04005565121769905,-0.017889320850372314,0.03898919001221657,0.9964537620544434,0.0444357767701149,-0.06073947995901108,0.03764054924249649
428.0,0.0,0.0,0.0,0.0,0.0,0.0,-0.0380825474858284,-0.021022887900471687,0.041484422981739044,0.9964836835861206,0.03939402848482132,-0.06237470358610153,0.03972910717129707
429.0,0.0,0.0,0.0,0.0,0.0,0.0,-0.03318503499031067,-0.016245469450950623,0.03724298253655434,0.9965128898620605,0.03463796153664589,-0.06374719738960266,0.041219886392354965
430.0,0.0,0.0,0.0,0.0,0.0,0.0,-0.03547685220837593,-0.01892722025513649,0.028063766658306122,0.9965595006942749,0.029286596924066544,-0.06480780243873596,0.0425884909927845
431.0,0.0,0.0,0.0,0.0,0.0,0.0,-0.025611767545342445,-0.005104430485516787,0.02828679047524929,0.996576726436615,0.023908840492367744,-0.06615570187568665,0.04346761479973793
432.0,0.0,0.0,0.0,0.0,0.0,0.0,-0.017844034358859062,0.010775099508464336,0.027288369834423065,0.996586799621582,0.018804563209414482,-0.06758056581020355,0.043529901653528214
433.0,0.0,0.0,0.0,0.0,0.0,0.0,-0.012714128009974957,0.019886378198862076,0.015557331964373589,0.9965964555740356,0.014561537653207779,-0.0686294212937355,0.043309614062309265
434.0,0.0,0.0,0.0,0.0,0.0,0.0,-0.010485799983143806,0.026472046971321106,0.009072807617485523,0.9966338872909546,0.011239995248615742,-0.06949180364608765,0.04205097258090973
435.0,0.0,0.0,0.0,0.0,0.0,0.0,-0.008941439911723137,0.03344560042023659,-0.0039698900654911995,0.996696412563324,0.00859361607581377,-0.06992611289024353,0.040430836379528046
436.0,0.0,0.0,0.0,0.0,0.0,0.0,-0.006268825847655535,0.04101511836051941,-0.010085693560540676,0.9967694878578186,0.0065092104487121105,-0.06954193860292435,0.03968097269535065
437.0,0.0,0.0,0.0,0.0,0.0,0.0,-0.006396489217877388,0.041254594922065735,-0.013954434543848038,0.9968332052230835,0.004608372692018747,-0.06883839517831802,0.03956367075443268
438.0,0.0,0.0,0.0,0.0,0.0,0.0,-0.005670707672834396,0.040969397872686386,-0.005701256915926933,0.9969789385795593,0.002670127432793379,-0.06732061505317688,0.038654666393995285
439.0,0.0,0.0,0.0,0.0,0.0,0.0,-0.008787352591753006,0.03986087813973427,-0.01408315822482109,0.9971511960029602,0.0012850590283051133,-0.06461969017982483,0.03890647366642952
440.0,0.0,0.0,0.0,0.0,0.0,0.0,-0.00731701822951436,0.03889433294534683,-0.019552739337086678,0.9973160624504089,6.449056672863662e-05,-0.061475273221731186,0.039788760244846344
441.0,0.0,0.0,0.0,0.0,0.0,0.0,-0.006476193200796843,0.033635079860687256,-0.02100961096584797,0.9975070357322693,-0.0011604002211242914,-0.05833021551370621,0.039710693061351776
442.0,0.0,0.0,0.0,0.0,0.0,0.0,-0.0016271448694169521,0.03208424896001816,-0.017431195825338364,0.9976745247840881,-0.0022986873518675566,-0.055469732731580734,0.03953968733549118
443.0,0.0,0.0,0.0,0.0,0.0,0.0,0.0006026605842635036,0.02599692903459072,-0.012486854568123817,0.9978049993515015,-0.0026885555125772953,-0.053527139127254486,0.03891626372933388
444.0,0.0,0.0,0.0,0.0,0.0,0.0,0.004543980583548546,0.02308456413447857,-0.005703105125576258,0.9979135394096375,-0.002378563629463315,-0.052749671041965485,0.03715786710381508
445.0,0.0,0.0,0.0,0.0,0.0,0.0,0.00986806396394968,0.021049441769719124,0.009067765437066555,0.9980036616325378,-0.0020203443709760904,-0.052410002797842026,0.035187751054763794
446.0,0.0,0.0,0.0,0.0,0.0,0.0,0.01654994860291481,0.022664984688162804,0.024297039955854416,0.9981076717376709,-0.0017893561162054539,-0.05178986117243767,0.03312693536281586
447.0,0.0,0.0,0.0,0.0,0.0,0.0,0.0249033123254776,0.025923332199454308,0.03408215939998627,0.9981817603111267,-0.000692113651894033,-0.05150540545582771,0.03130107372999191
448.0,0.0,0.0,0.0,0.0,0.0,0.0,0.03519811853766441,0.025425434112548828,0.0326913520693779,0.998228907585144,0.0013078150805085897,-0.05122871696949005,0.030230391770601273
449.0,0.0,0.0,0.0,0.0,0.0,0.0,0.042792923748493195,0.023221010342240334,0.013026543892920017,0.9982081651687622,0.003723291214555502,-0.05152217298746109,0.030191563069820404
450.0,0.0,0.0,0.0,0.0,0.0,0.0,0.04582049697637558,0.022816024720668793,-0.0037378740962594748,0.9981593489646912,0.005445736460387707,-0.05203210562467575,0.0306903887540102
451.0,0.0,0.0,0.0,0.0,0.0,0.0,0.046280715614557266,0.02346668392419815,-0.009054851718246937,0.9980710744857788,0.007553583942353725,-0.05311233177781105,0.03124702163040638
452.0,0.0,0.0,0.0,0.0,0.0,0.0,0.04298115149140358,0.0230292696505785,-0.011245941743254662,0.998013973236084,0.008862849324941635,-0.05330006405711174,0.03239705413579941
453.0,0.0,0.0,0.0,0.0,0.0,0.0,0.03262702375650406,0.01803191937506199,-0.010559521615505219,0.9980159997940063,0.008488928899168968,-0.052540894597768784,0.0336458757519722
454.0,0.0,0.0,0.0,0.0,0.0,0.0,0.0221558827906847,0.014313080348074436,-0.005101082846522331,0.9981458187103271,0.007253154180943966,-0.05043843388557434,0.03329091519117355
455.0,0.0,0.0,0.0,0.0,0.0,0.0,0.008704722858965397,0.0034050678368657827,0.011636747047305107,0.9983633160591125,0.006423828192055225,-0.04732731729745865,0.0314662903547287
456.0,0.0,0.0,0.0,0.0,0.0,0.0,-0.0021309806033968925,-0.008851614780724049,0.014789571054279804,0.9985738396644592,0.006456473376601934,-0.04398413002490997,0.029571495950222015
457.0,0.0,0.0,0.0,0.0,0.0,0.0,-0.01271663885563612,-0.024716459214687347,-0.010234012268483639,0.9987351298332214,0.006091209128499031,-0.04081963002681732,0.028722122311592102
458.0,0.0,0.0,0.0,0.0,0.0,0.0,-0.015437176451086998,-0.029807329177856445,-0.004468915984034538,0.9988831877708435,0.005870636086910963,-0.03736143559217453,0.028320763260126114
459.0,0.0,0.0,0.0,0.0,0.0,0.0,-0.023867100477218628,-0.028127025812864304,-0.0007678366382606328,0.9990841150283813,0.005561945494264364,-0.033155784010887146,0.026472486555576324
460.0,0.0,0.0,0.0,0.0,0.0,0.0,-0.019109267741441727,-0.018339570611715317,0.06474092602729797,0.9992402195930481,0.00665405485779047,-0.02941693179309368,0.024683061987161636
461.0,0.0,0.0,0.0,0.0,0.0,0.0,-0.013144325464963913,-0.01319678220897913,0.09955640137195587,0.9993350505828857,0.009773033671081066,-0.027134545147418976,0.022315438836812973
462.0,0.0,0.0,0.0,0.0,0.0,0.0,-0.03838133066892624,-0.04430786520242691,-0.0033468459732830524,0.9994287490844727,0.012773988768458366,-0.024746429175138474,0.01915930025279522
463.0,0.0,0.0,0.0,0.0,0.0,0.0,-0.021000266075134277,-0.03598671406507492,0.022770944982767105,0.9994893074035645,0.015333549119532108,-0.022583823651075363,0.01661781594157219
464.0,0.0,0.0,0.0,0.0,0.0,0.0,-0.017665237188339233,-0.044778045266866684,-0.03338842839002609,0.9995347261428833,0.016838062554597855,-0.02083900384604931,0.014575227163732052
465.0,0.0,0.0,0.0,0.0,0.0,0.0,-0.0024031202774494886,-0.05184165760874748,-0.08130496740341187,0.9995865821838379,0.017397038638591766,-0.018226010724902153,0.013864553533494473
466.0,0.0,0.0,0.0,0.0,0.0,0.0,0.006528555881232023,-0.03269606828689575,-0.05217747762799263,0.9996073246002197,0.017869027331471443,-0.01646430604159832,0.013966362923383713
467.0,0.0,0.0,0.0,0.0,0.0,0.0,0.010443666018545628,-0.04095949977636337,-0.08758629858493805,0.9996275901794434,0.016814054921269417,-0.015378962270915508,0.015018464997410774
468.0,0.0,0.0,0.0,0.0,0.0,0.0,0.023585135117173195,-0.03635120391845703,-0.10028903186321259,0.9996959567070007,0.014681337401270866,-0.013190235011279583,0.01479651965200901
469.0,0.0,0.0,0.0,0.0,0.0,0.0,0.033851176500320435,-0.02342352457344532,-0.09495566785335541,0.999792754650116,0.011883637867867947,-0.0089801587164402,0.0138927036896348
470.0,0.0,0.0,0.0,0.0,0.0,0.0,0.041994303464889526,-0.017161637544631958,-0.0761018767952919,0.9998437762260437,0.010283183306455612,-0.003983037546277046,0.013815147802233696
471.0,0.0,0.0,0.0,0.0,0.0,0.0,0.044449519366025925,-0.010932992212474346,-0.07603142410516739,0.9998369216918945,0.010180521756410599,0.00018293042376171798,0.014934040606021881
472.0,0.0,0.0,0.0,0.0,0.0,0.0,0.04536157846450806,-0.01194999273866415,-0.08940927684307098,0.9997968673706055,0.010587336495518684,0.003683248767629266,0.01676923781633377
473.0,0.0,0.0,0.0,0.0,0.0,0.0,0.04579007625579834,0.012934469617903233,0.006122670602053404,0.9997483491897583,0.009968196041882038,0.006173693574965,0.01912928745150566
474.0,0.0,0.0,0.0,0.0,0.0,0.0,0.0420692153275013,0.03415879234671593,0.09323955327272415,0.999714732170105,0.009223287925124168,0.007089759223163128,0.02088320069015026
475.0,0.0,0.0,0.0,0.0,0.0,0.0,0.043998684734106064,0.02853492461144924,0.08468598872423172,0.9996852874755859,0.007832745090126991,0.007160380482673645,0.02275427244603634
476.0,0.0,0.0,0.0,0.0,0.0,0.0,0.0453730970621109,0.028274070471525192,0.07413225620985031,0.9996901750564575,0.006735657341778278,0.005062444601207972,0.02341568097472191
477.0,0.0,0.0,0.0,0.0,0.0,0.0,0.03841404244303703,0.01371910609304905,0.04595951363444328,0.999679684638977,0.006581370253115892,0.0013073000591248274,0.024410735815763474
478.0,0.0,0.0,0.0,0.0,0.0,0.0,0.03997063636779785,0.010710105299949646,0.012951132841408253,0.9996584057807922,0.005212243180721998,-0.0015031140064820647,0.025589020922780037
479.0,0.0,0.0,0.0,0.0,0.0,0.0,0.032550957053899765,0.011139375157654285,0.01760013774037361,0.9996247291564941,0.0035330327227711678,-0.0038926200941205025,0.02688569761812687
480.0,0.0,0.0,0.0,0.0,0.0,0.0,0.02159753255546093,0.010201580822467804,0.029941074550151825,0.9995892643928528,0.001984611852094531,-0.006106248125433922,0.02794649451971054
481.0,0.0,0.0,0.0,0.0,0.0,0.0,0.01734795980155468,0.01230531930923462,0.02756296843290329,0.99958336353302,0.0009375351364724338,-0.008129030466079712,0.027683982625603676
482.0,0.0,0.0,0.0,0.0,0.0,0.0,0.009880175814032555,-0.0014222075697034597,0.018739767372608185,0.9995847940444946,-0.0003716622886713594,-0.009593880735337734,0.027172304689884186
483.0,0.0,0.0,0.0,0.0,0.0,0.0,0.010810158215463161,-0.003691030666232109,0.003449364099651575,0.9995819330215454,-0.0017176874680444598,-0.011246883310377598,0.02660224959254265
484.0,0.0,0.0,0.0,0.0,0.0,0.0,0.008329840376973152,-0.008489636704325676,-0.009592147544026375,0.9995700716972351,-0.0030755791813135147,-0.01282800268381834,0.026202386245131493
485.0,0.0,0.0,0.0,0.0,0.0,0.0,0.00489204004406929,-0.011748102493584156,-0.010848108679056168,0.9995411038398743,-0.0046765063889324665,-0.014800690114498138,0.026034073904156685
486.0,0.0,0.0,0.0,0.0,0.0,0.0,0.0006082342006266117,-0.011649650521576405,-0.009980189613997936,0.9995012283325195,-0.006434919778257608,-0.01690814271569252,0.025899818167090416
487.0,0.0,0.0,0.0,0.0,0.0,0.0,-0.002965722931548953,-0.004282329697161913,0.0009509452502243221,0.9994505643844604,-0.007495758589357138,-0.019023168832063675,0.026103952899575233
488.0,0.0,0.0,0.0,0.0,0.0,0.0,-0.005964136682450771,-0.001536551397293806,0.016604159027338028,0.9994120001792908,-0.008343002758920193,-0.02102159522473812,0.02577950246632099
489.0,0.0,0.0,0.0,0.0,0.0,0.0,-0.005166501738131046,0.0017237337306141853,0.025603286921977997,0.9993824362754822,-0.008531364612281322,-0.02340121939778328,0.024798884987831116
490.0,0.0,0.0,0.0,0.0,0.0,0.0,-0.004956879187375307,0.004915471188724041,0.018429569900035858,0.9993680119514465,-0.007822335697710514,-0.025592444464564323,0.02338189072906971
491.0,0.0,0.0,0.0,0.0,0.0,0.0,-0.0038680844008922577,0.004213201813399792,0.004747526720166206,0.9993138313293457,-0.00751425139605999,-0.027993611991405487,0.02307068184018135
492.0,0.0,0.0,0.0,0.0,0.0,0.0,-0.006048119161278009,0.0020605474710464478,-0.008269167505204678,0.9992614984512329,-0.007700713351368904,-0.029952820390462875,0.022819316014647484
493.0,0.0,0.0,0.0,0.0,0.0,0.0,-0.012685407884418964,0.001437460188753903,-0.004697592929005623,0.9992207288742065,-0.008337690494954586,-0.03129822760820389,0.02256540022790432
494.0,0.0,0.0,0.0,0.0,0.0,0.0,-0.014096119441092014,0.008886412717401981,0.007369906175881624,0.9991794228553772,-0.00846693105995655,-0.03270962834358215,0.02233726531267166
495.0,0.0,0.0,0.0,0.0,0.0,0.0,-0.0139398742467165,0.008737338706851006,0.0036692689172923565,0.9991601705551147,-0.008898825384676456,-0.033690810203552246,0.021580830216407776
496.0,0.0,0.0,0.0,0.0,0.0,0.0,-0.01595648005604744,0.0026177482213824987,0.004725808743387461,0.999147891998291,-0.009278055280447006,-0.0345652736723423,0.02057819254696369
497.0,0.0,0.0,0.0,0.0,0.0,0.0,-0.011150766164064407,0.006501044146716595,0.00012070380034856498,0.9991455078125,-0.009414294734597206,-0.03520791605114937,0.0195135660469532
498.0,0.0,0.0,0.0,0.0,0.0,0.0,-0.009082012809813023,0.00437547080218792,-0.009776019491255283,0.9991475343704224,-0.00976432766765356,-0.03536533936858177,0.018949808552861214
499.0,0.0,0.0,0.0,0.0,0.0,0.0,-0.006908760406076908,0.005060211289674044,-0.013963584788143635,0.9991343021392822,-0.009906287305057049,-0.035683922469615936,0.018948955461382866
500.0,0.0,0.0,0.0,0.0,0.0,0.0,-0.005113639868795872,0.006719239987432957,-0.007204889319837093,0.9991328716278076,-0.010507553815841675,-0.03558041900396347,0.018904082477092743
501.0,0.0,0.0,0.0,0.0,0.0,0.0,-0.007431543432176113,0.007510960102081299,0.00020154810044914484,0.9991446733474731,-0.010992965660989285,-0.03521730378270149,0.018673261627554893
502.0,0.0,0.0,0.0,0.0,0.0,0.0,-0.0038811671547591686,0.00820399820804596,0.007370446342974901,0.9991567730903625,-0.011339910328388214,-0.0347190722823143,0.01876864582300186
503.0,0.0,0.0,0.0,0.0,0.0,0.0,0.0009996287990361452,0.0036068351473659277,0.0024376295041292906,0.9991621971130371,-0.011401642113924026,-0.03451855480670929,0.018800441175699234
504.0,0.0,0.0,0.0,0.0,0.0,0.0,0.0048340423963963985,0.002684116130694747,-0.00619258638471365,0.9991589784622192,-0.011232378892600536,-0.034401554614305496,0.019284335896372795
505.0,0.0,0.0,0.0,0.0,0.0,0.0,0.007882948964834213,0.0033150706440210342,-0.005079479888081551,0.9991395473480225,-0.01140531711280346,-0.03463822230696678,0.019755912944674492
506.0,0.0,0.0,0.0,0.0,0.0,0.0,0.008872434496879578,0.001113916514441371,-0.00393429072573781,0.9990687966346741,-0.012306204065680504,-0.03460448235273361,0.022654680535197258
507.0,0.0,0.0,0.0,0.0,0.0,0.0,0.0073524159379303455,0.0011177425039932132,0.005154071841388941,0.9990494847297668,-0.012158321216702461,-0.03480861335992813,0.023264912888407707
508.0,0.0,0.0,0.0,0.0,0.0,0.0,0.006177406292408705,0.000872890348546207,0.013893342576920986,0.9990602135658264,-0.011486909352242947,-0.03443371132016182,0.023696482181549072
509.0,0.0,0.0,0.0,0.0,0.0,0.0,0.008256014436483383,0.00249234726652503,0.008874916471540928,0.9990758895874023,-0.01022238377481699,-0.034255314618349075,0.023861225694417953
510.0,0.0,0.0,0.0,0.0,0.0,0.0,0.008872972801327705,0.0058518447913229465,0.019650764763355255,0.9991259574890137,-0.008173536509275436,-0.0334351472556591,0.02372545376420021
511.0,0.0,0.0,0.0,0.0,0.0,0.0,0.0067990063689649105,0.009105353616178036,0.03945035859942436,0.9992027878761292,-0.006428556516766548,-0.0315796360373497,0.023567134514451027
512.0,0.0,0.0,0.0,0.0,0.0,0.0,0.0060800169594585896,0.005923467222601175,0.03793792054057121,0.9993230104446411,-0.004856566432863474,-0.028743518516421318,0.022452859207987785
513.0,0.0,0.0,0.0,0.0,0.0,0.0,0.004847648553550243,0.009365875273942947,0.057176440954208374,0.9994303584098816,-0.002584449714049697,-0.025598417967557907,0.021857382729649544
514.0,0.0,0.0,0.0,0.0,0.0,0.0,0.00175193150062114,0.0015119960298761725,0.02269631251692772,0.9995155930519104,0.0008530535269528627,-0.022808315232396126,0.021169079467654228
515.0,0.0,0.0,0.0,0.0,0.0,0.0,0.006968407426029444,-0.0024699228815734386,9.483214853389654e-06,0.999576210975647,0.0040606106631457806,-0.021169915795326233,0.01956106349825859
516.0,0.0,0.0,0.0,0.0,0.0,0.0,0.013964122161269188,-0.005236385390162468,-0.023849619552493095,0.9995822906494141,0.006597185507416725,-0.021290836855769157,0.018407393246889114
517.0,0.0,0.0,0.0,0.0,0.0,0.0,0.013065177015960217,-0.02304370142519474,-0.05729838088154793,0.9995489120483398,0.008512411266565323,-0.022587459534406662,0.017878612503409386
518.0,0.0,0.0,0.0,0.0,0.0,0.0,0.01796845532953739,-0.025364236906170845,-0.048305194824934006,0.9994933605194092,0.009568319655954838,-0.024495679885149002,0.017927858978509903
519.0,0.0,0.0,0.0,0.0,0.0,0.0,0.013449933379888535,-0.02677704021334648,-0.03629715368151665,0.9994508028030396,0.009641881100833416,-0.026429099962115288,0.017524009570479393
520.0,0.0,0.0,0.0,0.0,0.0,0.0,0.0072753834538161755,-0.020102649927139282,-0.008505403064191341,0.9994100332260132,0.009533971548080444,-0.02817702293395996,0.017180223017930984
521.0,0.0,0.0,0.0,0.0,0.0,0.0,0.0071104587987065315,-0.02125067077577114,0.002486768877133727,0.9993593096733093,0.008914678357541561,-0.029915232211351395,0.01751507818698883
522.0,0.0,0.0,0.0,0.0,0.0,0.0,0.009566150605678558,-0.01855492778122425,-0.005506846122443676,0.9992927312850952,0.008134773932397366,-0.03145352751016617,0.018945418298244476
523.0,0.0,0.0,0.0,0.0,0.0,0.0,0.0071058874018490314,-0.015954039990901947,-0.007576885167509317,0.9992375373840332,0.007189097348600626,-0.03250622749328613,0.020401641726493835
524.0,0.0,0.0,0.0,0.0,0.0,0.0,0.004085441119968891,-0.013822038657963276,-0.012742357328534126,0.9992265105247498,0.005084051750600338,-0.032617684453725815,0.021374741569161415
525.0,0.0,0.0,0.0,0.0,0.0,0.0,0.0017736823065206409,-0.0036954404786229134,-0.0019775903783738613,0.9992226958274841,0.002313673496246338,-0.0319947749376297,0.02291863225400448
526.0,0.0,0.0,0.0,0.0,0.0,0.0,-0.008690712973475456,-0.006220126990228891,0.024368053302168846,0.9992132782936096,9.174396109301597e-05,-0.03126200661063194,0.024414952844381332
527.0,0.0,0.0,0.0,0.0,0.0,0.0,-0.00915629230439663,-0.0013556784251704812,0.05222585052251816,0.9992324709892273,-0.0012171571142971516,-0.03025352954864502,0.024853531271219254
528.0,0.0,0.0,0.0,0.0,0.0,0.0,-0.0036685727536678314,-0.006708295550197363,0.0029501006938517094,0.9992679953575134,-0.002126813167706132,-0.02951759658753872,0.024248016998171806
529.0,0.0,0.0,0.0,0.0,0.0,0.0,0.003259517252445221,-0.004734019748866558,-0.0007796111749485135,0.9993289113044739,-0.002418806543573737,-0.028547709807753563,0.02283049374818802
530.0,0.0,0.0,0.0,0.0,0.0,0.0,-0.0016294558299705386,-0.004536498337984085,-0.0022025136277079582,0.9994080662727356,-0.004373676143586636,-0.026658229529857635,0.021305406466126442
531.0,0.0,0.0,0.0,0.0,0.0,0.0,-0.0014088163152337074,-0.004168328363448381,-0.016256187111139297,0.9994455575942993,-0.0065933349542319775,-0.025453120470046997,0.02042679488658905
532.0,0.0,0.0,0.0,0.0,0.0,0.0,-0.0026704103220254183,-0.00367236346937716,-0.012786783277988434,0.9994856715202332,-0.008999808691442013,-0.023751677945256233,0.0195750892162323
533.0,0.0,0.0,0.0,0.0,0.0,0.0,-0.007004190236330032,-1.2487150343076792e-05,-0.016871079802513123,0.9995113611221313,-0.0117471469566226,-0.02166159078478813,0.019238831475377083
534.0,0.0,0.0,0.0,0.0,0.0,0.0,-0.011183464899659157,0.007447265088558197,-0.0022432841360569,0.9995406866073608,-0.013715247623622417,-0.019808342680335045,0.01838318258523941
535.0,0.0,0.0,0.0,0.0,0.0,0.0,-0.013073165901005268,0.0073498147539794445,-0.0029118272941559553,0.9995768070220947,-0.015083745121955872,-0.01801510527729988,0.017150674015283585
536.0,0.0,0.0,0.0,0.0,0.0,0.0,-0.011861912906169891,0.004366402048617601,-0.01649419218301773,0.999604344367981,-0.015835581347346306,-0.016589844599366188,0.016290947794914246
537.0,0.0,0.0,0.0,0.0,0.0,0.0,-0.013476403430104256,0.0011119683040305972,-0.01661751978099346,0.9996406435966492,-0.01632307656109333,-0.015299839898943901,0.014765349216759205
538.0,0.0,0.0,0.0,0.0,0.0,0.0,-0.017898980528116226,-0.0014197520213201642,-0.003557362128049135,0.9996779561042786,-0.016578255221247673,-0.013886384665966034,0.013280442915856838
539.0,0.0,0.0,0.0,0.0,0.0,0.0,-0.019826456904411316,-0.0037345183081924915,0.0017826432595029473,0.9997251629829407,-0.015873637050390244,-0.01299019530415535,0.011362333782017231
540.0,0.0,0.0,0.0,0.0,0.0,0.0,-0.018418533727526665,0.0008621221641078591,0.00776567030698061,0.9997881054878235,-0.014000151306390762,-0.012320160865783691,0.008719648234546185
541.0,0.0,0.0,0.0,0.0,0.0,0.0,-0.01953279972076416,0.0038911388255655766,0.002759978175163269,0.9998297095298767,-0.01188682857900858,-0.012384600937366486,0.006782518699765205
542.0,0.0,0.0,0.0,0.0,0.0,0.0,-0.013779724016785622,0.0022981739602983,-0.022404590621590614,0.9998508095741272,-0.009892669506371021,-0.012455932796001434,0.006743432022631168
543.0,0.0,0.0,0.0,0.0,0.0,0.0,-0.016421275213360786,0.00718715088441968,-0.011587955057621002,0.9998663067817688,-0.008296745829284191,-0.012448234483599663,0.0066467286087572575
544.0,0.0,0.0,0.0,0.0,0.0,0.0,-0.026529695838689804,0.011170042678713799,0.02979055978357792,0.9998795390129089,-0.0055161225609481335,-0.01294921524822712,0.006564637646079063
545.0,0.0,0.0,0.0,0.0,0.0,0.0,-0.021201374009251595,0.007465083617717028,0.028600098565220833,0.999866783618927,-0.0018174161668866873,-0.014161625877022743,0.007932111620903015
546.0,0.0,0.0,0.0,0.0,0.0,0.0,-0.01047280989587307,0.007988308556377888,0.021422147750854492,0.9998359680175781,0.0023682203609496355,-0.015608658082783222,0.0088869733735919
547.0,0.0,0.0,0.0,0.0,0.0,0.0,-0.009040803648531437,0.005351000931113958,0.02863222360610962,0.9998123645782471,0.006133704911917448,-0.01596926338970661,0.00907905213534832
548.0,0.0,0.0,0.0,0.0,0.0,0.0,-0.007823508232831955,0.01048548799008131,0.05100332200527191,0.9997942447662354,0.009235940873622894,-0.015261143445968628,0.009680870920419693
549.0,0.0,0.0,0.0,0.0,0.0,0.0,-0.00799950584769249,0.01202173437923193,0.0514947734773159,0.9997844696044922,0.01251237466931343,-0.013602025806903839,0.009468250907957554
550.0,0.0,0.0,0.0,0.0,0.0,0.0,-0.005392466206103563,0.004740550648421049,0.02223803661763668,0.9997850656509399,0.015056074596941471,-0.011511101387441158,0.008429763838648796
551.0,0.0,0.0,0.0,0.0,0.0,0.0,0.0025613007601350546,-0.005480058025568724,-0.022775035351514816,0.9997782111167908,0.01737506501376629,-0.009404373355209827,0.007325724232941866
552.0,0.0,0.0,0.0,0.0,0.0,0.0,0.006658611353486776,-0.006481554359197617,-0.04977146536111832,0.9997738003730774,0.019270433112978935,-0.006709182634949684,0.005997545551508665
553.0,0.0,0.0,0.0,0.0,0.0,0.0,0.006737818010151386,0.004303693771362305,-0.053392138332128525,0.9997689723968506,0.020441733300685883,-0.004238469526171684,0.005140249151736498
554.0,0.0,0.0,0.0,0.0,0.0,0.0,0.012663958594202995,-0.001074597123079002,-0.08274069428443909,0.9997655749320984,0.021086057648062706,-0.0023327218368649483,0.004376350436359644
555.0,0.0,0.0,0.0,0.0,0.0,0.0,0.01386641152203083,-0.0032433224841952324,-0.07078109681606293,0.9997707605361938,0.02113976888358593,-0.000799887697212398,0.0032967503648251295
556.0,0.0,0.0,0.0,0.0,0.0,0.0,0.008716200478374958,-0.008143896237015724,-0.07541457563638687,0.9997955560684204,0.02007387764751911,0.0006957657751627266,0.002456461312249303
557.0,0.0,0.0,0.0,0.0,0.0,0.0,0.006351494695991278,-0.014342313632369041,-0.09019642323255539,0.9998282790184021,0.018388479948043823,0.0013399193994700909,0.0019157725619152188
558.0,0.0,0.0,0.0,0.0,0.0,0.0,0.003026732709258795,-0.009057424031198025,-0.05295130982995033,0.999849796295166,0.01719217747449875,0.0002818208304233849,0.002346915425732732
559.0,0.0,0.0,0.0,0.0,0.0,0.0,0.009984375908970833,-0.014058307744562626,-0.049445781856775284,0.9998713731765747,0.015642261132597923,-0.0018882681615650654,0.003104995470494032
560.0,0.0,0.0,0.0,0.0,0.0,0.0,0.016969110816717148,-0.01101107057183981,-0.03534776344895363,0.9998883008956909,0.013605990447103977,-0.005043522454798222,0.0036888914182782173
561.0,0.0,0.0,0.0,0.0,0.0,0.0,0.01797596551477909,-0.0067994436249136925,0.010253481566905975,0.9998902082443237,0.011457639746367931,-0.008495262823998928,0.004106802865862846
562.0,0.0,0.0,0.0,0.0,0.0,0.0,0.017542202025651932,-0.005470491014420986,0.015120318159461021,0.9998773336410522,0.009167296811938286,-0.011467671021819115,0.005467985291033983
563.0,0.0,0.0,0.0,0.0,0.0,0.0,0.014729880727827549,0.002978494158014655,0.02889913134276867,0.9998602271080017,0.006078854203224182,-0.013714306987822056,0.007413304410874844
564.0,0.0,0.0,0.0,0.0,0.0,0.0,0.014279280789196491,0.014355061575770378,0.04136881232261658,0.9998353719711304,0.0035779993049800396,-0.015421274118125439,0.008876166306436062
565.0,0.0,0.0,0.0,0.0,0.0,0.0,0.01458000298589468,0.011024842038750648,0.04344552755355835,0.9998188018798828,0.0009677783818915486,-0.016570791602134705,0.009324515238404274
566.0,0.0,0.0,0.0,0.0,0.0,0.0,0.02215292491018772,0.012334221042692661,0.023134281858801842,0.999778687953949,-0.0016978498315438628,-0.017769046127796173,0.011131533421576023
567.0,0.0,0.0,0.0,0.0,0.0,0.0,0.02756698615849018,0.013273275457322598,0.014455332420766354,0.9997135996818542,-0.004382247570902109,-0.019342711195349693,0.01341575663536787
568.0,0.0,0.0,0.0,0.0,0.0,0.0,0.02628551609814167,0.012777832336723804,0.012497708201408386,0.9996422529220581,-0.0057105994783341885,-0.02171158976852894,0.014553737826645374
569.0,0.0,0.0,0.0,0.0,0.0,0.0,0.020365765318274498,0.01073064748197794,0.013783651404082775,0.9996021389961243,-0.006798097863793373,-0.023468777537345886,0.014100144617259502
570.0,0.0,0.0,0.0,0.0,0.0,0.0,0.014695482328534126,0.009116086177527905,0.008134533651173115,0.9995357394218445,-0.009265504777431488,-0.025423012673854828,0.014030617661774158
571.0,0.0,0.0,0.0,0.0,0.0,0.0,0.014894736930727959,0.003067998681217432,-0.02857285924255848,0.9994035959243774,-0.011162403039634228,-0.028787128627300262,0.015466445125639439
572.0,0.0,0.0,0.0,0.0,0.0,0.0,0.01207182090729475,0.0011487724259495735,-0.008403964340686798,0.9992466568946838,-0.012798907235264778,-0.03261808678507805,0.016717063263058662
573.0,0.0,0.0,0.0,0.0,0.0,0.0,0.0006439511780627072,0.004885696340352297,0.013020647689700127,0.9990859031677246,-0.013893828727304935,-0.03609694540500641,0.01820654235780239
574.0,0.0,0.0,0.0,0.0,0.0,0.0,-0.006094963289797306,0.007378074340522289,0.0305648036301136,0.9989404082298279,-0.01496017538011074,-0.03896865248680115,0.019374823197722435
575.0,0.0,0.0,0.0,0.0,0.0,0.0,-0.007709374185651541,0.004567140247672796,0.030239932239055634,0.9988529086112976,-0.01641733944416046,-0.0407463014125824,0.019062871113419533
576.0,0.0,0.0,0.0,0.0,0.0,0.0,-0.007743391208350658,8.833793253870681e-05,0.026420118287205696,0.9987899661064148,-0.01788954623043537,-0.04191648215055466,0.018493499606847763
577.0,0.0,0.0,0.0,0.0,0.0,0.0,-0.008711996488273144,-0.00041517624049447477,0.030003128573298454,0.9987462162971497,-0.019598303362727165,-0.04243958741426468,0.01791645772755146
578.0,0.0,0.0,0.0,0.0,0.0,0.0,-0.00878471415489912,0.0017009777948260307,0.031079499050974846,0.9987032413482666,-0.021385177969932556,-0.04277801513671875,0.017452046275138855
579.0,0.0,0.0,0.0,0.0,0.0,0.0,-0.010559117421507835,0.005613362416625023,0.03550763428211212,0.9986859560012817,-0.022180989384651184,-0.04291209578514099,0.01711687259376049
580.0,0.0,0.0,0.0,0.0,0.0,0.0,-0.008593931794166565,0.0039324043318629265,0.02282956801354885,0.9986844062805176,-0.022976528853178024,-0.04257822781801224,0.017005804926156998
581.0,0.0,0.0,0.0,0.0,0.0,0.0,-0.004545491188764572,-0.0010292964288964868,0.003380622947588563,0.9986860156059265,-0.023833604529500008,-0.042335573583841324,0.016301246359944344
582.0,0.0,0.0,0.0,0.0,0.0,0.0,-0.007780753541737795,0.0010019108885899186,0.009942793287336826,0.9987173676490784,-0.0235960204154253,-0.04220893979072571,0.015032646246254444
583.0,0.0,0.0,0.0,0.0,0.0,0.0,-0.006844828836619854,-0.0029862530063837767,-0.010346502996981144,0.9987562298774719,-0.022948497906327248,-0.041875965893268585,0.014356549829244614
584.0,0.0,0.0,0.0,0.0,0.0,0.0,-0.004461971111595631,-0.003710476215928793,-0.018439264968037605,0.9987689852714539,-0.022658495232462883,-0.04166978597640991,0.014512425288558006
585.0,0.0,0.0,0.0,0.0,0.0,0.0,-0.004606928210705519,-0.00487107690423727,-0.019515903666615486,0.9987873435020447,-0.022877858951687813,-0.0412190817296505,0.01420310977846384
586.0,0.0,0.0,0.0,0.0,0.0,0.0,-0.007845736108720303,-0.00737793929874897,-0.0011206537019461393,0.9988257884979248,-0.02295028790831566,-0.04051206633448601,0.013402370736002922
587.0,0.0,0.0,0.0,0.0,0.0,0.0,-0.004711236339062452,-0.00764000229537487,0.0020435263868421316,0.9988694787025452,-0.02236226573586464,-0.039800211787223816,0.013255870901048183
588.0,0.0,0.0,0.0,0.0,0.0,0.0,-0.0006707271677441895,-0.006079592276364565,0.0013715085806325078,0.9988926649093628,-0.021457424387335777,-0.039645299315452576,0.013467500917613506
589.0,0.0,0.0,0.0,0.0,0.0,0.0,-0.001715037040412426,-0.003304621670395136,0.010566458106040955,0.9989297986030579,-0.02017006278038025,-0.039271049201488495,0.013797452673316002
590.0,0.0,0.0,0.0,0.0,0.0,0.0,0.0005221212632022798,-0.0027527837082743645,0.011945249512791634,0.9989954233169556,-0.018633505329489708,-0.03854607790708542,0.013250509276986122
591.0,0.0,0.0,0.0,0.0,0.0,0.0,0.0023554526269435883,0.0013626173604279757,0.021436942741274834,0.9991033673286438,-0.016937604174017906,-0.036896537989377975,0.0120232617482543
592.0,0.0,0.0,0.0,0.0,0.0,0.0,0.0016103093512356281,0.007472991477698088,0.03988607972860336,0.999241292476654,-0.015286944806575775,-0.03414963558316231,0.010805639438331127
593.0,0.0,0.0,0.0,0.0,0.0,0.0,-0.003256560303270817,-0.002742161974310875,0.03423890471458435,0.9993760585784912,-0.013930057175457478,-0.030844958499073982,0.010119403712451458
594.0,0.0,0.0,0.0,0.0,0.0,0.0,-0.004324575420469046,-0.0029796420130878687,0.015132589265704155,0.9994854927062988,-0.012665176764130592,-0.02796730399131775,0.009292440488934517
595.0,0.0,0.0,0.0,0.0,0.0,0.0,-0.0016747132176533341,-0.002251205500215292,0.01577265001833439,0.9995604753494263,-0.010846387594938278,-0.02612454816699028,0.008882636204361916
596.0,0.0,0.0,0.0,0.0,0.0,0.0,0.0007435044972226024,-0.0076222773641347885,-0.0016433220589533448,0.9996057748794556,-0.009003289975225925,-0.025093799456954002,0.008806347846984863
597.0,0.0,0.0,0.0,0.0,0.0,0.0,-0.0015009698690846562,-0.011815125122666359,-0.00825155433267355,0.9996493458747864,-0.007143275812268257,-0.02416730485856533,0.008129791356623173
598.0,0.0,0.0,0.0,0.0,0.0,0.0,-0.006686772685497999,-0.006928666029125452,0.01796167716383934,0.9996880292892456,-0.0050674849189817905,-0.02347024530172348,0.006902404595166445
599.0,0.0,0.0,0.0,0.0,0.0,0.0,-0.009039592929184437,-0.006549725774675608,0.024932006374001503,0.9997057318687439,-0.003340428462252021,-0.023216864094138145,0.006191772408783436
600.0,0.0,0.0,0.0,0.0,0.0,0.0,-0.004791575483977795,-0.008047998882830143,-0.010905788280069828,0.9997243881225586,-0.0021243314258754253,-0.022476600483059883,0.006482789292931557
601.0,0.0,0.0,0.0,0.0,0.0,0.0,-0.0029102941043674946,0.005602783523499966,-0.018459690734744072,0.9997422695159912,-0.0014147635083645582,-0.02166256494820118,0.006668022833764553
602.0,0.0,0.0,0.0,0.0,0.0,0.0,-0.005564779508858919,-0.004989083856344223,-0.033517345786094666,0.9997714161872864,-0.002327536465600133,-0.02001272700726986,0.007145116571336985
603.0,0.0,0.0,0.0,0.0,0.0,0.0,-0.0009158384054899216,-0.006369691342115402,-0.05882148817181587,0.999783992767334,-0.004351403564214706,-0.018353212624788284,0.008737056516110897
604.0,0.0,0.0,0.0,0.0,0.0,0.0,0.0024135103449225426,0.004088974557816982,-0.03822267800569534,0.99979567527771,-0.005072895437479019,-0.01690649427473545,0.009855134412646294
605.0,0.0,0.0,0.0,0.0,0.0,0.0,-0.009651071391999722,-0.004137940239161253,0.011434206739068031,0.9998334646224976,-0.0048227086663246155,-0.014539739117026329,0.009922713041305542
606.0,0.0,0.0,0.0,0.0,0.0,0.0,-0.0040302276611328125,-0.015728149563074112,-0.04249093681573868,0.9998576045036316,-0.004581654444336891,-0.01235012523829937,0.01055190060287714
607.0,0.0,0.0,0.0,0.0,0.0,0.0,0.008534803055226803,-0.012966655194759369,-0.04935483634471893,0.9998733401298523,-0.003906785976141691,-0.011216829530894756,0.010593429207801819
608.0,0.0,0.0,0.0,0.0,0.0,0.0,0.003625494195148349,-0.011144140735268593,-0.010049739852547646,0.999894917011261,-0.003906772471964359,-0.009952669031918049,0.009797368198633194
609.0,0.0,0.0,0.0,0.0,0.0,0.0,-0.00018128658120986074,-0.013786635361611843,-0.001995695987716317,0.9998924136161804,-0.004350839648395777,-0.009589239954948425,0.010209934785962105
610.0,0.0,0.0,0.0,0.0,0.0,0.0,0.008900529704988003,-0.0149000883102417,-0.02105083502829075,0.999870240688324,-0.005087415687739849,-0.00995641015470028,0.011599205434322357
611.0,0.0,0.0,0.0,0.0,0.0,0.0,0.014258787967264652,-0.014907780103385448,-0.019764238968491554,0.9998459815979004,-0.006648973561823368,-0.01031569018959999,0.012558754533529282
612.0,0.0,0.0,0.0,0.0,0.0,0.0,0.009211230091750622,-0.007918890565633774,0.008401262573897839,0.9998243451118469,-0.007721349131315947,-0.01048935204744339,0.01348226610571146
613.0,0.0,0.0,0.0,0.0,0.0,0.0,0.004857826512306929,-0.007600940763950348,0.022693272680044174,0.9998064637184143,-0.008153361268341541,-0.01055293157696724,0.014456558041274548
614.0,0.0,0.0,0.0,0.0,0.0,0.0,0.009119012393057346,-0.005756323225796223,0.01763335056602955,0.9997867345809937,-0.008342936635017395,-0.010790026746690273,0.015512993559241295
615.0,0.0,0.0,0.0,0.0,0.0,0.0,0.01212203036993742,-0.0055141872726380825,0.006084384862333536,0.999777615070343,-0.00822208821773529,-0.011316974647343159,0.015796063467860222
616.0,0.0,0.0,0.0,0.0,0.0,0.0,0.013038874603807926,-0.006252836436033249,0.00955655612051487,0.9997764825820923,-0.007810670882463455,-0.012384611181914806,0.015257086604833603
617.0,0.0,0.0,0.0,0.0,0.0,0.0,0.01018501352518797,-0.006173648871481419,0.011697872541844845,0.9997925758361816,-0.007056087721139193,-0.013643880374729633,0.013370884582400322
618.0,0.0,0.0,0.0,0.0,0.0,0.0,0.010300126858055592,-0.003385172924026847,0.004718073643743992,0.9998039603233337,-0.005308995023369789,-0.015370436012744904,0.011295583099126816
619.0,0.0,0.0,0.0,0.0,0.0,0.0,0.0050743939355015755,-0.007873818278312683,-0.009466351941227913,0.9997826814651489,-0.0035366606898605824,-0.017680799588561058,0.010505055077373981
620.0,0.0,0.0,0.0,0.0,0.0,0.0,0.0045721083879470825,-0.01624409481883049,-0.058405134826898575,0.9997369050979614,-0.0023000382352620363,-0.020353365689516068,0.010361295193433762
621.0,0.0,0.0,0.0,0.0,0.0,0.0,-0.007575089577585459,-0.0075559308752417564,-0.010203036479651928,0.9996666312217712,-0.000402682984713465,-0.023825036361813545,0.009962677024304867
622.0,0.0,0.0,0.0,0.0,0.0,0.0,-0.017334381118416786,-0.008028005249798298,-0.006151282694190741,0.9995846748352051,0.0021134126000106335,-0.02719523012638092,0.00931553728878498
623.0,0.0,0.0,0.0,0.0,0.0,0.0,-0.014631647616624832,-0.012854091823101044,-0.013973209075629711,0.9994869828224182,0.0043637617491185665,-0.030291393399238586,0.009455546736717224
624.0,0.0,0.0,0.0,0.0,0.0,0.0,-0.013845659792423248,-0.002812728751450777,0.011535050347447395,0.9994111657142639,0.00564152467995882,-0.032307203859090805,0.010110239498317242
625.0,0.0,0.0,0.0,0.0,0.0,0.0,-0.01409184467047453,0.006909465882927179,0.025355687364935875,0.9993714094161987,0.005734968464821577,-0.03312619775533676,0.011291271075606346
626.0,0.0,0.0,0.0,0.0,0.0,0.0,-0.013156606815755367,0.014866979792714119,0.030593983829021454,0.9993695020675659,0.005039434880018234,-0.03296009823679924,0.012247102335095406
627.0,0.0,0.0,0.0,0.0,0.0,0.0,-0.0064864433370530605,0.020016735419631004,0.03142910078167915,0.9994039535522461,0.004364075139164925,-0.03200767934322357,0.012215216644108295
628.0,0.0,0.0,0.0,0.0,0.0,0.0,-0.002650568261742592,0.020396174862980843,0.016721084713935852,0.999452531337738,0.003731762059032917,-0.03053365647792816,0.012191951274871826
629.0,0.0,0.0,0.0,0.0,0.0,0.0,-0.0008119826088659465,0.016806315630674362,-0.010516958311200142,0.999508798122406,0.0027632678393274546,-0.02851557731628418,0.012723605148494244
630.0,0.0,0.0,0.0,0.0,0.0,0.0,0.001053496147505939,0.012304876931011677,-0.023545466363430023,0.9995836615562439,0.000615522381849587,-0.026051664724946022,0.01240735873579979
631.0,0.0,0.0,0.0,0.0,0.0,0.0,-0.004766740836203098,0.016223372891545296,-0.007526979316025972,0.9996321201324463,-0.0010347733041271567,-0.023924237117171288,0.01278259139508009
632.0,0.0,0.0,0.0,0.0,0.0,0.0,-0.007301631849259138,0.0073960889130830765,-0.03001413866877556,0.9996770620346069,-0.0022458271123468876,-0.021656939759850502,0.013088217005133629
633.0,0.0,0.0,0.0,0.0,0.0,0.0,-0.006095958407968283,0.005309044383466244,-0.031891100108623505,0.9997189044952393,-0.003783187596127391,-0.01924861967563629,0.013354973867535591
634.0,0.0,0.0,0.0,0.0,0.0,0.0,-0.004252874758094549,0.011132695712149143,-0.018513750284910202,0.999735951423645,-0.005073556210845709,-0.01678887940943241,0.014867756515741348
635.0,0.0,0.0,0.0,0.0,0.0,0.0,-0.00132828950881958,0.010619734413921833,-0.015029878355562687,0.9997376799583435,-0.006770875304937363,-0.014113237150013447,0.01674257218837738
636.0,0.0,0.0,0.0,0.0,0.0,0.0,0.002114427275955677,0.016795143485069275,0.005481604486703873,0.9997304677963257,-0.008365320041775703,-0.011352316476404667,0.018466124311089516
637.0,0.0,0.0,0.0,0.0,0.0,0.0,0.005501804873347282,0.01353752613067627,5.8908804930979386e-05,0.9997113347053528,-0.010010938160121441,-0.0084500377997756,0.020162150263786316
638.0,0.0,0.0,0.0,0.0,0.0,0.0,0.012627584859728813,0.008775531314313412,-0.005368279758840799,0.9996799826622009,-0.011670860461890697,-0.005738695152103901,0.021704092621803284
639.0,0.0,0.0,0.0,0.0,0.0,0.0,0.016577139496803284,0.010192415677011013,-0.01234032679349184,0.9996337890625,-0.012529357336461544,-0.003681462723761797,0.02370455674827099
640.0,0.0,0.0,0.0,0.0,0.0,0.0,0.018229318782687187,0.011646867729723454,-0.015407308004796505,0.9995793104171753,-0.013115493580698967,-0.0012575997970998287,0.025839775800704956
641.0,0.0,0.0,0.0,0.0,0.0,0.0,0.017373058944940567,0.006467015016824007,-0.01834261603653431,0.99952232837677,-0.014015261083841324,0.0010836956789717078,0.02751314453780651
642.0,0.0,0.0,0.0,0.0,0.0,0.0,0.015985190868377686,0.008333147503435612,-0.02020016312599182,0.9994405508041382,-0.014489852823317051,0.0035374739672988653,0.029941391199827194
643.0,0.0,0.0,0.0,0.0,0.0,0.0,0.016529662534594536,0.006320688407868147,-0.02827572077512741,0.9993396401405334,-0.014303119853138924,0.006018276792019606,0.03285827115178108
644.0,0.0,0.0,0.0,0.0,0.0,0.0,0.014593798667192459,0.00792731810361147,-0.024750227108597755,0.9992433786392212,-0.013561345636844635,0.008226921781897545,0.035524267703294754
645.0,0.0,0.0,0.0,0.0,0.0,0.0,0.015793127939105034,0.015565327368676662,-0.010457046329975128,0.9991524815559387,-0.012458663433790207,0.01041476521641016,0.037829987704753876
646.0,0.0,0.0,0.0,0.0,0.0,0.0,0.015266052447259426,0.01765923574566841,0.002167962957173586,0.9990860223770142,-0.010668299160897732,0.012256581336259842,0.03954626992344856
647.0,0.0,0.0,0.0,0.0,0.0,0.0,0.01681036502122879,0.015866171568632126,0.01543044950813055,0.9990367293357849,-0.009005081839859486,0.014074989594519138,0.040585342794656754
648.0,0.0,0.0,0.0,0.0,0.0,0.0,0.025887003168463707,0.01901943050324917,0.016958625987172127,0.998984158039093,-0.008099071681499481,0.015885815024375916,0.04141227528452873
649.0,0.0,0.0,0.0,0.0,0.0,0.0,0.03203006833791733,0.03035527653992176,0.035095810890197754,0.9989278316497803,-0.006975057069212198,0.0169268399477005,0.04253164678812027
650.0,0.0,0.0,0.0,0.0,0.0,0.0,0.03939087316393852,0.034321948885917664,0.04563651606440544,0.9988993406295776,-0.0050866506062448025,0.017091093584895134,0.04336769878864288
651.0,0.0,0.0,0.0,0.0,0.0,0.0,0.048212744295597076,0.02982395328581333,0.04282212257385254,0.9988928437232971,-0.0033280313946306705,0.017247073352336884,0.043661169707775116
652.0,0.0,0.0,0.0,0.0,0.0,0.0,0.056564927101135254,0.03532617166638374,0.033756233751773834,0.9988888502120972,-0.0015742494724690914,0.016873164102435112,0.043997518718242645
653.0,0.0,0.0,0.0,0.0,0.0,0.0,0.058028217405080795,0.02841636911034584,0.02460634522140026,0.9989064335823059,-0.0005183775210753083,0.016038259491324425,0.04392547160387039
654.0,0.0,0.0,0.0,0.0,0.0,0.0,0.05426619201898575,0.01904621534049511,0.01641324907541275,0.9989091157913208,-0.0001961571688298136,0.015135146677494049,0.044186923652887344
655.0,0.0,0.0,0.0,0.0,0.0,0.0,0.04870690777897835,0.008518556132912636,0.012662375345826149,0.998943030834198,9.214700548909605e-05,0.013887008652091026,0.043820567429065704
656.0,0.0,0.0,0.0,0.0,0.0,0.0,0.04407954216003418,-0.002124650636687875,0.009703507646918297,0.9990010857582092,0.0006507175276055932,0.012476446107029915,0.04290628433227539
657.0,0.0,0.0,0.0,0.0,0.0,0.0,0.03861682862043381,-0.005698883440345526,0.012526538223028183,0.9990415573120117,0.0011132535291835666,0.011080625467002392,0.042330414056777954
658.0,0.0,0.0,0.0,0.0,0.0,0.0,0.03319663554430008,-0.008310590870678425,0.013931585475802422,0.999092161655426,0.0010572626488283277,0.009812584146857262,0.04145697504281998
659.0,0.0,0.0,0.0,0.0,0.0,0.0,0.03374230116605759,-0.010523123666644096,0.008684365078806877,0.99915611743927,0.0016416724538430572,0.008053325116634369,0.040234774351119995
660.0,0.0,0.0,0.0,0.0,0.0,0.0,0.03388676792383194,-0.013474679552018642,-0.0020553134381771088,0.9992063045501709,0.0025150880683213472,0.0057588559575378895,0.039329010993242264
661.0,0.0,0.0,0.0,0.0,0.0,0.0,0.030724918469786644,-0.01640569418668747,-0.0032071152236312628,0.9992505311965942,0.003378293476998806,0.0035046194680035114,0.03841812536120415
662.0,0.0,0.0,0.0,0.0,0.0,0.0,0.025490129366517067,-0.01858605444431305,0.003955234307795763,0.999285101890564,0.0038843487855046988,0.0016528759151697159,0.03756842017173767
663.0,0.0,0.0,0.0,0.0,0.0,0.0,0.021473584696650505,-0.022685669362545013,0.0010516815818846226,0.9993118643760681,0.0034233538899570704,0.0003135506995022297,0.036945685744285583
664.0,0.0,0.0,0.0,0.0,0.0,0.0,0.016238050535321236,-0.02323850244283676,0.006401559803634882,0.9992972612380981,0.002372513059526682,-0.0003778280224651098,0.037408892065286636
665.0,0.0,0.0,0.0,0.0,0.0,0.0,0.012351675890386105,-0.014707395806908607,0.012050743214786053,0.9992707371711731,0.001571785775013268,-0.0009805491426959634,0.03815262392163277
666.0,0.0,0.0,0.0,0.0,0.0,0.0,0.002325787441805005,-0.006527411285787821,0.03760163486003876,0.9992801547050476,0.002196243265643716,-0.0019308833871036768,0.03783314302563667
667.0,0.0,0.0,0.0,0.0,0.0,0.0,0.00038077004137448967,0.0017355019226670265,0.059851787984371185,0.9993066191673279,0.0026665115728974342,-0.00257688295096159,0.037069205194711685
668.0,0.0,0.0,0.0,0.0,0.0,0.0,0.00623198552057147,0.002452111802995205,0.04709487780928612,0.9993693232536316,0.0004133043985348195,-0.0017951991176232696,0.035487376153469086
669.0,0.0,0.0,0.0,0.0,0.0,0.0,-0.00951061025261879,0.01792379468679428,0.10970571637153625,0.999444842338562,-0.0028165343683212996,0.000556403654627502,0.03320816904306412
670.0,0.0,0.0,0.0,0.0,0.0,0.0,-0.026900742202997208,0.025005491450428963,0.11983484774827957,0.999506413936615,-0.005331273656338453,0.003465445013716817,0.030790697783231735
671.0,0.0,0.0,0.0,0.0,0.0,0.0,-0.019248606637120247,0.018201928585767746,0.08004245907068253,0.9995625019073486,-0.006755581125617027,0.004891799297183752,0.028406178578734398
672.0,0.0,0.0,0.0,0.0,0.0,0.0,0.002439489122480154,0.007786920759826899,0.05214749649167061,0.9995893836021423,-0.00808169599622488,0.0040381536819040775,0.027200426906347275
673.0,0.0,0.0,0.0,0.0,0.0,0.0,0.024683961644768715,-0.007297573145478964,0.009673746302723885,0.9995712041854858,-0.009090207517147064,0.0005281974445097148,0.02782772108912468
674.0,0.0,0.0,0.0,0.0,0.0,0.0,0.01564488746225834,-0.009189093485474586,-0.008726351894438267,0.9995297193527222,-0.009900189936161041,-0.0042935991659760475,0.028722617775201797
675.0,0.0,0.0,0.0,0.0,0.0,0.0,0.008143363520503044,-0.001370066194795072,0.013449076563119888,0.9994754791259766,-0.010044791735708714,-0.009221954271197319,0.02938288077712059
676.0,0.0,0.0,0.0,0.0,0.0,0.0,0.002397168194875121,-0.016232948750257492,-0.02037743851542473,0.9994515180587769,-0.009958186186850071,-0.013238918036222458,0.028678499162197113
677.0,0.0,0.0,0.0,0.0,0.0,0.0,0.002413894049823284,-0.02939286269247532,-0.06555413454771042,0.9994704723358154,-0.010179177857935429,-0.015497099608182907,0.026747290045022964
678.0,0.0,0.0,0.0,0.0,0.0,0.0,-0.00330246496014297,-0.03745328262448311,-0.10382958501577377,0.9995467662811279,-0.009580912999808788,-0.014963045716285706,0.02431868202984333
679.0,0.0,0.0,0.0,0.0,0.0,0.0,-0.01441995333880186,-0.02642255835235119,-0.0723278671503067,0.9996869564056396,-0.006691549904644489,-0.012081094086170197,0.020869635045528412
680.0,0.0,0.0,0.0,0.0,0.0,0.0,-0.024236468598246574,-0.009876131080091,-0.0041684177704155445,0.9997949004173279,-0.0024847695603966713,-0.009050286374986172,0.017955364659428596
681.0,0.0,0.0,0.0,0.0,0.0,0.0,-0.027657944709062576,-0.014809141866862774,-0.03161242976784706,0.9998488426208496,0.0008034862112253904,-0.0068770418874919415,0.015949832275509834
682.0,0.0,0.0,0.0,0.0,0.0,0.0,-0.03263579681515694,-0.00868819747120142,-0.028902219608426094,0.9998617172241211,0.0035798773169517517,-0.005926330108195543,0.015135127119719982
683.0,0.0,0.0,0.0,0.0,0.0,0.0,-0.03736225515604019,-0.001586118247359991,0.006387108005583286,0.9998494982719421,0.0060412464663386345,-0.006291021592915058,0.015002314932644367
684.0,0.0,0.0,0.0,0.0,0.0,0.0,-0.03234870359301567,-0.006369377486407757,-0.02365492843091488,0.9998432993888855,0.007927419617772102,-0.006813028361648321,0.014287098310887814
685.0,0.0,0.0,0.0,0.0,0.0,0.0,-0.024212701246142387,-0.0009912085952237248,-0.013227991759777069,0.9998217821121216,0.010026480071246624,-0.0076803783886134624,0.014028478413820267
686.0,0.0,0.0,0.0,0.0,0.0,0.0,-0.020927127450704575,-0.004631546325981617,-0.022687850520014763,0.9998019337654114,0.011708032339811325,-0.008817191235721111,0.013474364764988422
687.0,0.0,0.0,0.0,0.0,0.0,0.0,-0.015565118752419949,-0.01256562303751707,-0.03611219674348831,0.999783456325531,0.013578969985246658,-0.01023348979651928,0.012002195231616497
688.0,0.0,0.0,0.0,0.0,0.0,0.0,-0.015252388082444668,-0.012980438768863678,-0.019402669742703438,0.999733030796051,0.016135191544890404,-0.012249627150595188,0.011133312247693539
689.0,0.0,0.0,0.0,0.0,0.0,0.0,-0.018036238849163055,-0.011021475307643414,0.003079514019191265,0.9996733069419861,0.01820092275738716,-0.014693161472678185,0.010313360020518303
690.0,0.0,0.0,0.0,0.0,0.0,0.0,-0.011218732222914696,-0.015360869467258453,-0.025324881076812744,0.999612033367157,0.019122010096907616,-0.017801115289330482,0.009667294099926949
691.0,0.0,0.0,0.0,0.0,0.0,0.0,-0.007537092547863722,-0.020499620586633682,-0.03713437169790268,0.9995476007461548,0.019443323835730553,-0.020683815702795982,0.009956387802958488
692.0,0.0,0.0,0.0,0.0,0.0,0.0,-0.008769726380705833,-0.0181951392441988,-0.027379408478736877,0.9994901418685913,0.019190674647688866,-0.023438649252057076,0.010108869522809982
693.0,0.0,0.0,0.0,0.0,0.0,0.0,-0.011384821496903896,-0.010455694980919361,0.015157678164541721,0.9995092153549194,0.016004018485546112,-0.024815507233142853,0.010465176776051521
694.0,0.0,0.0,0.0,0.0,0.0,0.0,-0.016867952421307564,-0.012750696390867233,0.004388876259326935,0.9995687007904053,0.01188162062317133,-0.024956852197647095,0.009934957139194012
695.0,0.0,0.0,0.0,0.0,0.0,0.0,-0.03987802565097809,-0.019879044964909554,0.0738024115562439,0.999649703502655,0.008306629955768585,-0.02399657666683197,0.007472483441233635
696.0,0.0,0.0,0.0,0.0,0.0,0.0,-0.030052147805690765,-0.023024260997772217,0.01501624658703804,0.9996901154518127,0.00417111674323678,-0.023642143234610558,0.006597873754799366
697.0,0.0,0.0,0.0,0.0,0.0,0.0,-0.007432017475366592,-0.016350852325558662,-0.05211573466658592,0.9996718764305115,0.0010857292218133807,-0.02494777925312519,0.005732995457947254
698.0,0.0,0.0,0.0,0.0,0.0,0.0,-0.020208187401294708,-0.014971178025007248,-0.018950780853629112,0.9996933341026306,-0.0010702760191634297,-0.024439368396997452,0.003860118333250284
699.0,0.0,0.0,0.0,0.0,0.0,0.0,-0.024747531861066818,-0.010302265174686909,-0.04311448708176613,0.999713659286499,-0.0036198890302330256,-0.023561760783195496,0.00216514989733696
700.0,0.0,0.0,0.0,0.0,0.0,0.0,-0.023181065917015076,0.0003609117411542684,-0.01705004833638668,0.9997165203094482,-0.005626212805509567,-0.023133236914873123,0.0004728310741484165
701.0,0.0,0.0,0.0,0.0,0.0,0.0,-0.02211846224963665,-0.0020517336670309305,-0.016086826100945473,0.9997153878211975,-0.008536950685083866,-0.02224157005548477,-0.0011917543597519398
702.0,0.0,0.0,0.0,0.0,0.0,0.0,-0.022858761250972748,-0.00021091957751195878,-0.020687712356448174,0.9996767044067383,-0.012106886133551598,-0.02227635681629181,-0.0019150602165609598
703.0,0.0,0.0,0.0,0.0,0.0,0.0,-0.021877648308873177,-0.0025850231759250164,-0.005791190080344677,0.9996132254600525,-0.015688974410295486,-0.022695137187838554,-0.0034990054555237293
704.0,0.0,0.0,0.0,0.0,0.0,0.0,-0.02733655273914337,-0.0041558388620615005,0.020401906222105026,0.9995455145835876,-0.018227241933345795,-0.023321770131587982,-0.005734575912356377
705.0,0.0,0.0,0.0,0.0,0.0,0.0,-0.032900370657444,-0.0073112309910357,0.027906352654099464,0.9994566440582275,-0.020098106935620308,-0.02470923587679863,-0.008492684923112392
706.0,0.0,0.0,0.0,0.0,0.0,0.0,-0.028939345851540565,-0.009862953796982765,0.0054160114377737045,0.9993466138839722,-0.02188640646636486,-0.026443151757121086,-0.011322892270982265
707.0,0.0,0.0,0.0,0.0,0.0,0.0,-0.026616450399160385,-0.004584257956594229,2.286594963152311e-06,0.9992268681526184,-0.022432560101151466,-0.028858359903097153,-0.01448129117488861
708.0,0.0,0.0,0.0,0.0,0.0,0.0,-0.032056063413619995,-0.001056449138559401,0.005219694226980209,0.9990971684455872,-0.02194247767329216,-0.031622931361198425,-0.017977774143218994
709.0,0.0,0.0,0.0,0.0,0.0,0.0,-0.032477349042892456,0.001202483894303441,-0.01218380220234394,0.9989533424377441,-0.021472357213497162,-0.035098105669021606,-0.01998543180525303
710.0,0.0,0.0,0.0,0.0,0.0,0.0,-0.03310677036643028,0.0012004879536107183,-0.043568629771471024,0.9988032579421997,-0.020823907107114792,-0.03883931413292885,-0.02121455781161785
711.0,0.0,0.0,0.0,0.0,0.0,0.0,-0.04478435218334198,0.004208758473396301,-0.007341088727116585,0.9986222386360168,-0.01982428878545761,-0.04313640668988228,-0.02236463502049446
712.0,0.0,0.0,0.0,0.0,0.0,0.0,-0.04884183034300804,0.006842452101409435,0.005160810891538858,0.9984443783760071,-0.01810160093009472,-0.04756680503487587,-0.022778401151299477
713.0,0.0,0.0,0.0,0.0,0.0,0.0,-0.04102538153529167,0.0033542606979608536,-0.013031551614403725,0.9982218742370605,-0.018063396215438843,-0.05183416232466698,-0.023234406486153603
714.0,0.0,0.0,0.0,0.0,0.0,0.0,-0.04554019868373871,0.001399935339577496,0.009417803026735783,0.9980486631393433,-0.01966109685599804,-0.05426062270998955,-0.023843223229050636
715.0,0.0,0.0,0.0,0.0,0.0,0.0,-0.051909592002630234,0.004020648542791605,0.036081232130527496,0.9979461431503296,-0.021724266931414604,-0.05506431683897972,-0.024491408839821815
716.0,0.0,0.0,0.0,0.0,0.0,0.0,-0.047019947320222855,-0.0048142047598958015,0.005880736745893955,0.9978684782981873,-0.02307589165866375,-0.055232640355825424,-0.025989854708313942
717.0,0.0,0.0,0.0,0.0,0.0,0.0,-0.03658824786543846,-0.01019741129130125,-0.010763641446828842,0.997817873954773,-0.02270134724676609,-0.05559929460287094,-0.02743672952055931
718.0,0.0,0.0,0.0,0.0,0.0,0.0,-0.03535645827651024,-0.010308139957487583,-0.010347222909331322,0.9978410005569458,-0.021566513925790787,-0.0546741746366024,-0.029310746118426323
719.0,0.0,0.0,0.0,0.0,0.0,0.0,-0.0298960842192173,-0.01080656424164772,-0.016110988333821297,0.9978910088539124,-0.020669467747211456,-0.05316011607646942,-0.030991457402706146
720.0,0.0,0.0,0.0,0.0,0.0,0.0,-0.03655846416950226,-0.013290693052113056,-0.0076643978245556355,0.9979376196861267,-0.019928719848394394,-0.05151219666004181,-0.0327085517346859
721.0,0.0,0.0,0.0,0.0,0.0,0.0,-0.03848496079444885,-0.009167945012450218,-0.020029474049806595,0.9979434013366699,-0.019532009959220886,-0.050399720668792725,-0.03446047008037567
722.0,0.0,0.0,0.0,0.0,0.0,0.0,-0.030718626454472542,-0.009183376096189022,-0.05599348247051239,0.9979227185249329,-0.01994107849895954,-0.04977515712380409,-0.03570890426635742
723.0,0.0,0.0,0.0,0.0,0.0,0.0,-0.02257300168275833,-0.01052167173475027,-0.06223180517554283,0.9979185461997986,-0.020335929468274117,-0.049934130162000656,-0.03537902235984802
724.0,0.0,0.0,0.0,0.0,0.0,0.0,-0.02284030057489872,-0.007372948341071606,-0.054919954389333725,0.9979479908943176,-0.021341504529118538,-0.05022958293557167,-0.03348911181092262
725.0,0.0,0.0,0.0,0.0,0.0,0.0,-0.026754552498459816,-0.002679584315046668,-0.020019404590129852,0.9980003833770752,-0.02305862493813038,-0.050161607563495636,-0.030776359140872955
726.0,0.0,0.0,0.0,0.0,0.0,0.0,-0.025671858340501785,-0.0001230972120538354,-0.005851428955793381,0.9980912804603577,-0.025308668613433838,-0.049049001187086105,-0.027704602107405663
727.0,0.0,0.0,0.0,0.0,0.0,0.0,-0.013541718013584614,-0.003742724657058716,-0.02422637864947319,0.9981927275657654,-0.027539601549506187,-0.047312214970588684,-0.024792412295937538
728.0,0.0,0.0,0.0,0.0,0.0,0.0,-0.011576609686017036,-0.004139157012104988,0.012956998310983181,0.998316764831543,-0.02946408838033676,-0.04517991840839386,-0.021322451531887054
729.0,0.0,0.0,0.0,0.0,0.0,0.0,-0.005199746694415808,0.0012888474157080054,0.031488385051488876,0.9984322190284729,-0.030263498425483704,-0.043448854237794876,-0.018151763826608658
730.0,0.0,0.0,0.0,0.0,0.0,0.0,0.0014702132903039455,-0.002712580608204007,0.0064993686974048615,0.9985294938087463,-0.02889539673924446,-0.043359559029340744,-0.014963295310735703
731.0,0.0,0.0,0.0,0.0,0.0,0.0,0.011140859685838223,0.0013879406033083797,0.004436794202774763,0.9986069798469543,-0.028645390644669533,-0.042444754391908646,-0.01272733323276043
732.0,0.0,0.0,0.0,0.0,0.0,0.0,0.008014393970370293,-0.004648315254598856,0.017877427861094475,0.9986947178840637,-0.02917112410068512,-0.040967293083667755,-0.008910474367439747
733.0,0.0,0.0,0.0,0.0,0.0,0.0,0.02036725915968418,-0.004589254502207041,-0.009042932651937008,0.9987365007400513,-0.03008461743593216,-0.03993108868598938,-0.005131532903760672
734.0,0.0,0.0,0.0,0.0,0.0,0.0,0.018389660865068436,0.0036918967962265015,0.027547813951969147,0.998773455619812,-0.030677340924739838,-0.038769230246543884,-0.0027294568717479706
735.0,0.0,0.0,0.0,0.0,0.0,0.0,0.014982027001678944,0.0048049502074718475,0.03580021485686302,0.9988032579421997,-0.03162284567952156,-0.03731590509414673,-0.0003564514627214521
736.0,0.0,0.0,0.0,0.0,0.0,0.0,0.018102450296282768,0.006270778365433216,0.02891385741531849,0.9988195896148682,-0.03276212140917778,-0.0358256921172142,0.001519177807494998
737.0,0.0,0.0,0.0,0.0,0.0,0.0,0.02192910574376583,0.010828092694282532,0.03336348757147789,0.9988188743591309,-0.03352772071957588,-0.034967321902513504,0.003749073715880513
738.0,0.0,0.0,0.0,0.0,0.0,0.0,0.023697419092059135,0.007700297981500626,0.03162013366818428,0.9988213777542114,-0.03343961015343666,-0.03466610983014107,0.0059873503632843494
739.0,0.0,0.0,0.0,0.0,0.0,0.0,0.027949737384915352,0.0070404792204499245,0.027142733335494995,0.9988222122192383,-0.03341970220208168,-0.034456003457307816,0.007058845832943916
740.0,0.0,0.0,0.0,0.0,0.0,0.0,0.029314450919628143,0.006094681564718485,0.02773306518793106,0.9988229870796204,-0.033906035125255585,-0.03388310223817825,0.007395836524665356
741.0,0.0,0.0,0.0,0.0,0.0,0.0,0.02953483909368515,0.008869463577866554,0.03204048052430153,0.9988222718238831,-0.03444276377558708,-0.03329799696803093,0.007722095586359501
742.0,0.0,0.0,0.0,0.0,0.0,0.0,0.027721699327230453,0.007037867326289415,0.023137513548135757,0.9988341331481934,-0.034631989896297455,-0.032717492431402206,0.0078020961955189705
743.0,0.0,0.0,0.0,0.0,0.0,0.0,0.03000456467270851,0.005386693403124809,0.005139037035405636,0.9988443851470947,-0.03465241193771362,-0.03239060938358307,0.0077446079812943935
744.0,0.0,0.0,0.0,0.0,0.0,0.0,0.029291128739714622,0.004240171518176794,0.0001866175007307902,0.9988287091255188,-0.03492693230509758,-0.03247901052236557,0.00822105910629034
745.0,0.0,0.0,0.0,0.0,0.0,0.0,0.028160804882645607,0.0031050262041389942,0.0004596601938828826,0.9988124370574951,-0.03472341597080231,-0.033164847642183304,0.008304624818265438
746.0,0.0,0.0,0.0,0.0,0.0,0.0,0.02632804773747921,0.0002639344602357596,-0.0006525013013742864,0.9987987279891968,-0.03431626781821251,-0.0340067557990551,0.00820979755371809
747.0,0.0,0.0,0.0,0.0,0.0,0.0,0.02460412308573723,-0.0022198969963937998,-0.0028491788543760777,0.9987694025039673,-0.03384150192141533,-0.035319793969392776,0.008182383142411709
748.0,0.0,0.0,0.0,0.0,0.0,0.0,0.020745065063238144,-0.004318265710026026,0.0021421799901872873,0.9987390637397766,-0.03329756110906601,-0.03683648258447647,0.007407801691442728
749.0,0.0,0.0,0.0,0.0,0.0,0.0,0.01542041078209877,-0.007577301934361458,0.00810110755264759,0.9987000226974487,-0.03275227174162865,-0.0384056381881237,0.007128364872187376
750.0,0.0,0.0,0.0,0.0,0.0,0.0,0.016187241300940514,-0.012282825075089931,0.0018973543774336576,0.998634397983551,-0.03295047581195831,-0.039859652519226074,0.0074178557842969894
751.0,0.0,0.0,0.0,0.0,0.0,0.0,0.009601459838449955,-0.01787911355495453,-0.00662267068400979,0.9985805153846741,-0.033248171210289,-0.04066554829478264,0.008803758770227432
752.0,0.0,0.0,0.0,0.0,0.0,0.0,-0.0022031187545508146,-0.01757841557264328,0.002481807256117463,0.9985641837120056,-0.032923683524131775,-0.04105087369680405,0.010022071190178394
753.0,0.0,0.0,0.0,0.0,0.0,0.0,-0.007922823540866375,-0.011463351547718048,0.010192617774009705,0.9985974431037903,-0.031396426260471344,-0.041073642671108246,0.011435241438448429
754.0,0.0,0.0,0.0,0.0,0.0,0.0,-0.008647219277918339,-0.005858713760972023,0.009577540680766106,0.9986445903778076,-0.02995106764137745,-0.04074404016137123,0.012320982292294502
755.0,0.0,0.0,0.0,0.0,0.0,0.0,-0.013571360148489475,0.031204061582684517,0.04042288288474083,0.9988411664962769,-0.02817581035196781,-0.03790818154811859,0.00926838256418705
756.0,0.0,0.0,0.0,0.0,0.0,0.0,-0.014350411482155323,0.012552556581795216,0.04811135679483414,0.9990586638450623,-0.027027571573853493,-0.03349936380982399,0.005435901693999767
757.0,0.0,0.0,0.0,0.0,0.0,0.0,-0.015639761462807655,-0.0060958764515817165,0.030955785885453224,0.9991756081581116,-0.02648766338825226,-0.030438536778092384,0.004483871161937714
758.0,0.0,0.0,0.0,0.0,0.0,0.0,-0.01256871223449707,-0.01652313582599163,0.018265411257743835,0.9992440938949585,-0.02805735543370247,-0.026088375598192215,0.006626172456890345
759.0,0.0,0.0,0.0,0.0,0.0,0.0,0.009812610223889351,-0.01617238111793995,-0.03408418595790863,0.9992274045944214,-0.030453961342573166,-0.021367227658629417,0.012679117731750011
760.0,0.0,0.0,0.0,0.0,0.0,0.0,0.01434012595564127,0.013658844865858555,-0.00670344103127718,0.9991278648376465,-0.03328370675444603,-0.01800091750919819,0.017647357657551765
761.0,0.0,0.0,0.0,0.0,0.0,0.0,0.004262776579707861,0.0035311179235577583,0.024299176409840584,0.9989915490150452,-0.0364530012011528,-0.016232207417488098,0.020589295774698257
762.0,0.0,0.0,0.0,0.0,0.0,0.0,0.004591001197695732,0.004640987142920494,0.03171267360448837,0.9988054037094116,-0.04075790196657181,-0.015616391785442829,0.02198357880115509
763.0,0.0,0.0,0.0,0.0,0.0,0.0,-0.0016587673453614116,0.010627210140228271,0.0376969613134861,0.9986310601234436,-0.04513164609670639,-0.015638839453458786,0.021329151466488838
764.0,0.0,0.0,0.0,0.0,0.0,0.0,0.018598023802042007,0.001612544059753418,-0.00810086727142334,0.9984503388404846,-0.04913897439837456,-0.016476120799779892,0.020274313166737556
765.0,0.0,0.0,0.0,0.0,0.0,0.0,0.001564937294460833,-0.003522966057062149,-0.006076951045542955,0.9982770085334778,-0.052592627704143524,-0.01694924756884575,0.01975545845925808
766.0,0.0,0.0,0.0,0.0,0.0,0.0,-0.007726303767412901,-0.005018636118620634,0.0047108326107263565,0.9981787204742432,-0.05478515475988388,-0.01657259277999401,0.019061598926782608
767.0,0.0,0.0,0.0,0.0,0.0,0.0,-0.0016622102120891213,-0.008553200401365757,0.004042934160679579,0.9980069994926453,-0.05808321386575699,-0.016312628984451294,0.018512429669499397
768.0,0.0,0.0,0.0,0.0,0.0,0.0,-0.00838195439428091,0.0021302609238773584,0.00804977212101221,0.9978508949279785,-0.06087383255362511,-0.016260351985692978,0.017989013344049454
769.0,0.0,0.0,0.0,0.0,0.0,0.0,-0.015175260603427887,-0.0056991116143763065,0.0028216701466590166,0.9976993799209595,-0.06348954141139984,-0.015819208696484566,0.017745524644851685
770.0,0.0,0.0,0.0,0.0,0.0,0.0,-0.013080365024507046,-0.013728460296988487,-0.021477622911334038,0.9975833892822266,-0.06567778438329697,-0.015062166377902031,0.016943322494626045
771.0,0.0,0.0,0.0,0.0,0.0,0.0,-0.005616757553070784,-0.0063521782867610455,-0.014199323952198029,0.9974514245986938,-0.06811665743589401,-0.01442957203835249,0.015583532862365246
772.0,0.0,0.0,0.0,0.0,0.0,0.0,-0.006493492051959038,-0.007911665365099907,-0.023757776245474815,0.9973323345184326,-0.07004757970571518,-0.014040571637451649,0.014992550015449524
773.0,0.0,0.0,0.0,0.0,0.0,0.0,-0.0030443451832979918,-0.009293856099247932,-0.02891865372657776,0.9972859025001526,-0.07090356945991516,-0.013334503397345543,0.014684281311929226
774.0,0.0,0.0,0.0,0.0,0.0,0.0,0.005504573229700327,-0.004652335308492184,-0.01191943883895874,0.9972379803657532,-0.07190564274787903,-0.012302002869546413,0.013951721601188183
775.0,0.0,0.0,0.0,0.0,0.0,0.0,-0.001106091309338808,-0.003887227037921548,-0.017212778329849243,0.9972459077835083,-0.0719878226518631,-0.012272936291992664,0.012970591895282269
776.0,0.0,0.0,0.0,0.0,0.0,0.0,0.0026552642229944468,-0.008998542092740536,-0.011585365980863571,0.9973940849304199,-0.07015757262706757,-0.012120774015784264,0.011655478738248348
777.0,0.0,0.0,0.0,0.0,0.0,0.0,0.019601335749030113,0.00047275348333641887,0.004669679794460535,0.9974547624588013,-0.06944010406732559,-0.011736634187400341,0.01116185262799263
778.0,0.0,0.0,0.0,0.0,0.0,0.0,0.011286732740700245,0.004918815102428198,-0.013846983201801777,0.9974109530448914,-0.07006187736988068,-0.01216115802526474,0.010781961493194103
779.0,0.0,0.0,0.0,0.0,0.0,0.0,0.01111855823546648,-0.005926403217017651,-0.01634942926466465,0.9974048733711243,-0.07022092491388321,-0.012411446310579777,0.009976551868021488
780.0,0.0,0.0,0.0,0.0,0.0,0.0,0.015317156910896301,0.0025478762108832598,0.003954534884542227,0.9973605275154114,-0.070851169526577,-0.01177188754081726,0.010670380666851997
781.0,0.0,0.0,0.0,0.0,0.0,0.0,0.013093207962810993,0.015250402502715588,0.011331118643283844,0.9972870349884033,-0.07189195603132248,-0.01108216680586338,0.0113054309040308
782.0,0.0,0.0,0.0,0.0,0.0,0.0,0.010779234580695629,0.00808036606758833,0.006330097559839487,0.9972092509269714,-0.07289361953735352,-0.011572178453207016,0.011257963255047798
783.0,0.0,0.0,0.0,0.0,0.0,0.0,0.011942045763134956,0.004655031021684408,-0.005721082910895348,0.9971843361854553,-0.07309660315513611,-0.012191735208034515,0.011488405056297779
784.0,0.0,0.0,0.0,0.0,0.0,0.0,0.012733976356685162,0.021512752398848534,0.01380061637610197,0.9971920251846313,-0.07276564091444016,-0.012596654705703259,0.012462024576961994
785.0,0.0,0.0,0.0,0.0,0.0,0.0,0.010732167400419712,0.018798310309648514,0.007885468192398548,0.9972411394119263,-0.07202021032571793,-0.012982271611690521,0.012479293160140514
786.0,0.0,0.0,0.0,0.0,0.0,0.0,0.011140108108520508,0.012325833551585674,-0.0011675338027998805,0.9972805976867676,-0.07130617648363113,-0.014146210625767708,0.012145908549427986
787.0,0.0,0.0,0.0,0.0,0.0,0.0,0.007893484085798264,0.021136421710252762,0.008081691339612007,0.9972548484802246,-0.07155095785856247,-0.01454823836684227,0.012379836291074753
788.0,0.0,0.0,0.0,0.0,0.0,0.0,0.0012786311563104391,0.011944206431508064,0.01414954848587513,0.9972509145736694,-0.07165142893791199,-0.014648884534835815,0.011887132190167904
789.0,0.0,0.0,0.0,0.0,0.0,0.0,0.0035770053509622812,0.010161451995372772,0.021669046953320503,0.9972289204597473,-0.07195974141359329,-0.01580919697880745,0.010324756614863873
790.0,0.0,0.0,0.0,0.0,0.0,0.0,0.0013932044385001063,0.020379725843667984,0.017167899757623672,0.9972547888755798,-0.07157400250434875,-0.016838623210787773,0.008802609518170357
791.0,0.0,0.0,0.0,0.0,0.0,0.0,-0.005652447231113911,0.026826057583093643,0.03819405287504196,0.9973540306091309,-0.0702168196439743,-0.016942868009209633,0.008225834928452969
792.0,0.0,0.0,0.0,0.0,0.0,0.0,0.005081783048808575,0.02286665141582489,0.034532222896814346,0.9973241090774536,-0.0705980509519577,-0.01735081896185875,0.007722335867583752
793.0,0.0,0.0,0.0,0.0,0.0,0.0,-0.009043818339705467,0.009873800911009312,-0.0038714525289833546,0.9972928166389465,-0.07113781571388245,-0.017495421692728996,0.006398599129170179
794.0,0.0,0.0,0.0,0.0,0.0,0.0,-0.0057432642206549644,0.01642376370728016,-0.0016110532451421022,0.997329592704773,-0.07088156044483185,-0.016513537615537643,0.006096617318689823
795.0,0.0,0.0,0.0,0.0,0.0,0.0,0.0007547380519099534,0.02079600654542446,0.002052531111985445,0.9973398447036743,-0.07086824625730515,-0.016036249697208405,0.005925917532294989
796.0,0.0,0.0,0.0,0.0,0.0,0.0,-0.002588236005976796,0.026028776541352272,-0.0019708387553691864,0.9974494576454163,-0.06937350332736969,-0.015904996544122696,0.005444174632430077
797.0,0.0,0.0,0.0,0.0,0.0,0.0,0.0053153373301029205,0.022772641852498055,-0.005996229592710733,0.9975241422653198,-0.06808477640151978,-0.016851307824254036,0.00507362699136138
798.0,0.0,0.0,0.0,0.0,0.0,0.0,-0.00834590382874012,0.014591829851269722,-0.02115160971879959,0.997515082359314,-0.06806837767362595,-0.017826441675424576,0.0036836916115134954
799.0,0.0,0.0,0.0,0.0,0.0,0.0,-0.030877873301506042,0.012896683998405933,-0.012025644071400166,0.9975833296775818,-0.06727831065654755,-0.01716228388249874,0.0028312960639595985
800.0,0.0,0.0,0.0,0.0,0.0,0.0,-0.01054508239030838,0.01827385276556015,0.007018039934337139,0.9976938962936401,-0.06586701422929764,-0.01623930223286152,0.0023081458639353514
801.0,0.0,0.0,0.0,0.0,0.0,0.0,-0.01338596548885107,0.010183252394199371,-0.0027951481752097607,0.997839093208313,-0.06381003558635712,-0.015650726854801178,0.0006859902059659362
802.0,0.0,0.0,0.0,0.0,0.0,0.0,-0.008170811459422112,0.007465938106179237,0.005147801712155342,0.9979981184005737,-0.06136029213666916,-0.015222111716866493,-0.0017934272764250636
803.0,0.0,0.0,0.0,0.0,0.0,0.0,-0.012136467732489109,0.013010398484766483,-0.0035219828132539988,0.9981685280799866,-0.05852344632148743,-0.01451871357858181,-0.0049390848726034164
804.0,0.0,0.0,0.0,0.0,0.0,0.0,-0.009627247229218483,0.003347552614286542,-0.01889517903327942,0.99830162525177,-0.056174635887145996,-0.013402344658970833,-0.007677649147808552
805.0,0.0,0.0,0.0,0.0,0.0,0.0,0.004184756428003311,0.005286994390189648,-0.0014528699684888124,0.998383641242981,-0.0545005276799202,-0.012740073725581169,-0.009903104975819588
806.0,0.0,0.0,0.0,0.0,0.0,0.0,0.006325185764580965,0.0033892847131937742,-0.0086061367765069,0.9984371662139893,-0.05310345068573952,-0.012440036050975323,-0.012224926613271236
807.0,0.0,0.0,0.0,0.0,0.0,0.0,0.008595941588282585,-0.0034284985158592463,-0.002145596547052264,0.9984808564186096,-0.051655568182468414,-0.012617104686796665,-0.014437603764235973
808.0,0.0,0.0,0.0,0.0,0.0,0.0,0.0001757801219355315,-0.014751087874174118,-0.020423363894224167,0.9984676837921143,-0.051179561764001846,-0.012410222552716732,-0.017005305737257004
809.0,0.0,0.0,0.0,0.0,0.0,0.0,0.0036920825950801373,-0.021160375326871872,-0.027184156700968742,0.9984176158905029,-0.051375046372413635,-0.011981470510363579,-0.019473612308502197
810.0,0.0,0.0,0.0,0.0,0.0,0.0,0.006827510427683592,-0.008564000949263573,0.02123991958796978,0.9983721971511841,-0.051537029445171356,-0.012329678051173687,-0.02109185792505741
811.0,0.0,0.0,0.0,0.0,0.0,0.0,0.007555070333182812,-0.011587370187044144,0.01890754885971546,0.9982773661613464,-0.05298600718379021,-0.012534060515463352,-0.021857917308807373
812.0,0.0,0.0,0.0,0.0,0.0,0.0,0.00681759137660265,-0.015515569597482681,0.007652620784938335,0.9981848001480103,-0.054499439895153046,-0.012913975864648819,-0.022138167172670364
813.0,0.0,0.0,0.0,0.0,0.0,0.0,0.00794421136379242,-0.012498266994953156,0.01992752030491829,0.9981786608695984,-0.05386178568005562,-0.01390046440064907,-0.02333647385239601
814.0,0.0,0.0,0.0,0.0,0.0,0.0,0.003742971457540989,-0.00971019547432661,0.009724690578877926,0.9982382655143738,-0.05176519230008125,-0.014265402220189571,-0.02523607388138771
815.0,0.0,0.0,0.0,0.0,0.0,0.0,0.005796470679342747,-0.015665370970964432,-0.0025490724947303534,0.9982808828353882,-0.05023842677474022,-0.013892646878957748,-0.02680177614092827
816.0,0.0,0.0,0.0,0.0,0.0,0.0,0.007949118502438068,-0.017946258187294006,0.00475482689216733,0.9983100295066833,-0.04913661256432533,-0.01302268635481596,-0.028162913396954536
817.0,0.0,0.0,0.0,0.0,0.0,0.0,0.006611224729567766,-0.023804612457752228,-0.011760889552533627,0.9983379244804382,-0.04851188883185387,-0.011966308578848839,-0.028719868510961533
818.0,0.0,0.0,0.0,0.0,0.0,0.0,0.005430728197097778,-0.025147708132863045,-0.020014163106679916,0.9983819127082825,-0.04798455536365509,-0.011049289256334305,-0.028446506708860397
819.0,0.0,0.0,0.0,0.0,0.0,0.0,0.003910653293132782,-0.014728142879903316,-0.011371114291250706,0.9984705448150635,-0.04688866063952446,-0.010361768305301666,-0.0274056326597929
820.0,0.0,0.0,0.0,0.0,0.0,0.0,0.005047657061368227,-0.014238548465073109,-0.004425630439072847,0.9985604286193848,-0.04545511305332184,-0.008726528845727444,-0.02711465209722519
821.0,0.0,0.0,0.0,0.0,0.0,0.0,0.006666840985417366,-0.016324147582054138,-0.003104553325101733,0.9986225366592407,-0.04431807994842529,-0.00724957836791873,-0.02713075280189514
822.0,0.0,0.0,0.0,0.0,0.0,0.0,0.007896448485553265,-0.01627085730433464,-0.008263797499239445,0.9986599683761597,-0.04359207674860954,-0.00610055448487401,-0.02721591666340828
823.0,0.0,0.0,0.0,0.0,0.0,0.0,0.00769893079996109,-0.0143262455239892,-0.005185768473893404,0.9987499117851257,-0.042175598442554474,-0.005451276898384094,-0.026278164237737656
824.0,0.0,0.0,0.0,0.0,0.0,0.0,0.004932435695081949,-0.011258944869041443,-0.005681885406374931,0.9988580346107483,-0.04047336056828499,-0.0043367911130189896,-0.025011174380779266
825.0,0.0,0.0,0.0,0.0,0.0,0.0,0.001854166854172945,-0.010051416233181953,0.005474736448377371,0.9989412426948547,-0.039065662771463394,-0.002946031978353858,-0.02412279322743416
826.0,0.0,0.0,0.0,0.0,0.0,0.0,-0.0013771820813417435,-0.010499448515474796,0.008163120597600937,0.9990239143371582,-0.03793874755501747,-0.0015849261544644833,-0.022576365619897842
827.0,0.0,0.0,0.0,0.0,0.0,0.0,-0.004769479855895042,-0.007345962803810835,0.0025864343624562025,0.9991282224655151,-0.036293063312768936,-5.63518142371322e-06,-0.020624136552214622
828.0,0.0,0.0,0.0,0.0,0.0,0.0,-0.008390597999095917,-0.005376685876399279,0.014139218255877495,0.9992136359214783,-0.03468124195933342,0.0015664161182940006,-0.01914779096841812
829.0,0.0,0.0,0.0,0.0,0.0,0.0,-0.018220923840999603,-0.004014917183667421,0.0069256797432899475,0.9992952346801758,-0.03270967677235603,0.002989471424371004,-0.018177052959799767
830.0,0.0,0.0,0.0,0.0,0.0,0.0,-0.017232488840818405,-0.006498456466943026,-0.0061199055053293705,0.9993681907653809,-0.030962305143475533,0.004681188613176346,-0.016819557175040245
831.0,0.0,0.0,0.0,0.0,0.0,0.0,-0.008979127742350101,-0.009349844418466091,-0.025294486433267593,0.9994282126426697,-0.029177222400903702,0.00578617537394166,-0.016085468232631683
832.0,0.0,0.0,0.0,0.0,0.0,0.0,-0.005231690593063831,-0.010888488031923771,-0.01865348219871521,0.9995142817497253,-0.02637745998799801,0.006170229520648718,-0.015398699790239334
833.0,0.0,0.0,0.0,0.0,0.0,0.0,-0.0028215155471116304,-0.005860466510057449,0.0061396281234920025,0.9995938539505005,-0.0239985603839159,0.005915634334087372,-0.014189229346811771
834.0,0.0,0.0,0.0,0.0,0.0,0.0,-5.792132287751883e-05,-0.007865561172366142,-0.014340211637318134,0.9996485710144043,-0.02256193943321705,0.004809706471860409,-0.013076607137918472
835.0,0.0,0.0,0.0,0.0,0.0,0.0,0.005515372846275568,-0.00552188977599144,-0.004650200251489878,0.9997022747993469,-0.02138814888894558,0.0029273410327732563,-0.011389901861548424
836.0,0.0,0.0,0.0,0.0,0.0,0.0,0.011494461447000504,-0.006948110647499561,0.017532896250486374,0.999746561050415,-0.02020084299147129,0.0006563253118656576,-0.009930082596838474
837.0,0.0,0.0,0.0,0.0,0.0,0.0,0.01188699435442686,-0.008776381611824036,0.04169594123959541,0.9997792840003967,-0.01919242925941944,-0.0010800828458741307,-0.008482883684337139
838.0,0.0,0.0,0.0,0.0,0.0,0.0,0.012377233244478703,-0.011312431655824184,0.03238682821393013,0.9997941255569458,-0.018686752766370773,-0.0018714946927502751,-0.007696743123233318
839.0,0.0,0.0,0.0,0.0,0.0,0.0,0.015911750495433807,-0.011486764997243881,0.036089446395635605,0.9998153448104858,-0.017395665869116783,-0.0029687818605452776,-0.007605310995131731
840.0,0.0,0.0,0.0,0.0,0.0,0.0,0.02316257543861866,-0.010709106922149658,0.021984202787280083,0.9998394846916199,-0.015546901151537895,-0.004663421306759119,-0.007615409791469574
841.0,0.0,0.0,0.0,0.0,0.0,0.0,0.023573508486151695,-0.008441262878477573,0.005401163827627897,0.9998452663421631,-0.014140182174742222,-0.006060618441551924,-0.00853666476905346
842.0,0.0,0.0,0.0,0.0,0.0,0.0,0.0184691920876503,-0.0200965479016304,-0.007053837645798922,0.9998316764831543,-0.013824169524013996,-0.007208096329122782,-0.009690448641777039
843.0,0.0,0.0,0.0,0.0,0.0,0.0,0.010570679791271687,-0.02368060313165188,0.006613642442971468,0.9997941255569458,-0.01401128713041544,-0.008167664520442486,-0.012204629369080067
844.0,0.0,0.0,0.0,0.0,0.0,0.0,-0.0005591401131823659,-0.0271290335804224,0.01210893876850605,0.9997358918190002,-0.014695982448756695,-0.009757825173437595,-0.014721676707267761
845.0,0.0,0.0,0.0,0.0,0.0,0.0,-0.003192765871062875,-0.03350156918168068,0.004762914497405291,0.999669075012207,-0.01523598562926054,-0.01166999526321888,-0.017138903960585594
846.0,0.0,0.0,0.0,0.0,0.0,0.0,-0.006376500707119703,-0.03661845251917839,-0.00017894463962875307,0.9995896220207214,-0.015501407906413078,-0.01369850616902113,-0.019826795905828476
847.0,0.0,0.0,0.0,0.0,0.0,0.0,-0.014701785519719124,-0.031090859323740005,0.015396412461996078,0.9995008707046509,-0.01630610227584839,-0.014952270314097404,-0.022561270743608475
848.0,0.0,0.0,0.0,0.0,0.0,0.0,-0.011843642219901085,-0.029965179041028023,0.0029702780302613974,0.9993942379951477,-0.01780221052467823,-0.01602909341454506,-0.02524239756166935
849.0,0.0,0.0,0.0,0.0,0.0,0.0,-0.009375630877912045,-0.027103811502456665,-0.004868754651397467,0.9992848634719849,-0.018383294343948364,-0.01769522950053215,-0.027906091883778572
850.0,0.0,0.0,0.0,0.0,0.0,0.0,-0.01205480471253395,-0.024429919198155403,-0.00404966389760375,0.9991742968559265,-0.018681664019823074,-0.01979457587003708,-0.030166909098625183
851.0,0.0,0.0,0.0,0.0,0.0,0.0,-0.012148311361670494,-0.016258882358670235,-0.005034052766859531,0.999045193195343,-0.019661609083414078,-0.021613605320453644,-0.03248465061187744
852.0,0.0,0.0,0.0,0.0,0.0,0.0,-0.0059470925480127335,-0.003644755110144615,-0.00437367707490921,0.9989297986030579,-0.020484698936343193,-0.02323867939412594,-0.03435520455241203
853.0,0.0,0.0,0.0,0.0,0.0,0.0,-0.001222234801389277,-0.010721531696617603,-0.020611461251974106,0.998817503452301,-0.022034311667084694,-0.02473294921219349,-0.035591255873441696
854.0,0.0,0.0,0.0,0.0,0.0,0.0,0.007910223677754402,-0.006224219221621752,-0.010573447681963444,0.998689591884613,-0.023963985964655876,-0.026943515986204147,-0.03631746396422386
855.0,0.0,0.0,0.0,0.0,0.0,0.0,0.004758019000291824,0.008997838012874126,0.01368492841720581,0.9985918402671814,-0.025454051792621613,-0.02982519008219242,-0.03574348986148834
856.0,0.0,0.0,0.0,0.0,0.0,0.0,0.003006179817020893,0.013912618160247803,0.021392561495304108,0.9984990358352661,-0.02761622704565525,-0.032511014491319656,-0.03436129540205002
857.0,0.0,0.0,0.0,0.0,0.0,0.0,0.008514447137713432,0.0008828015998005867,-0.005346641410142183,0.9983726143836975,-0.03053206577897072,-0.03502765670418739,-0.03305666148662567
858.0,0.0,0.0,0.0,0.0,0.0,0.0,0.004912578966468573,0.004665612708777189,0.01579287275671959,0.9982373714447021,-0.03272758051753044,-0.03706878423690796,-0.032823145389556885
859.0,0.0,0.0,0.0,0.0,0.0,0.0,-0.0037074333522468805,0.004254062194377184,0.03681770712137222,0.9981767535209656,-0.0338975265622139,-0.037855636328458786,-0.03257756307721138
860.0,0.0,0.0,0.0,0.0,0.0,0.0,-0.009345208294689655,-0.007829665206372738,0.024705369025468826,0.9981465935707092,-0.03522582724690437,-0.03758392110466957,-0.03241204097867012
861.0,0.0,0.0,0.0,0.0,0.0,0.0,-0.018424678593873978,-0.021746141836047173,0.014105768874287605,0.9981077313423157,-0.03718574345111847,-0.03669421374797821,-0.032440342009067535
862.0,0.0,0.0,0.0,0.0,0.0,0.0,-0.025650344789028168,-0.02296753227710724,0.016112733632326126,0.9980719685554504,-0.03918085992336273,-0.03508218377828598,-0.032962292432785034
863.0,0.0,0.0,0.0,0.0,0.0,0.0,-0.025206588208675385,-0.01971527747809887,0.012890773825347424,0.9980718493461609,-0.04059839993715286,-0.03267718851566315,-0.03372425585985184
864.0,0.0,0.0,0.0,0.0,0.0,0.0,-0.022067947313189507,-0.018566086888313293,0.008426344953477383,0.998127281665802,-0.04142565652728081,-0.029394127428531647,-0.03409656882286072
865.0,0.0,0.0,0.0,0.0,0.0,0.0,-0.02180436998605728,-0.0211375392973423,-0.0013167334254831076,0.9981824159622192,-0.042404480278491974,-0.025415219366550446,-0.03445915877819061
866.0,0.0,0.0,0.0,0.0,0.0,0.0,-0.022585429251194,-0.01698949933052063,-0.009411659091711044,0.9982388019561768,-0.0439363457262516,-0.020796742290258408,-0.03400539979338646
867.0,0.0,0.0,0.0,0.0,0.0,0.0,-0.0056399148888885975,-0.011933334171772003,-0.023259373381733894,0.9982603192329407,-0.04608497768640518,-0.016450971364974976,-0.03289226442575455
868.0,0.0,0.0,0.0,0.0,0.0,0.0,0.009554936550557613,-0.0012483070604503155,-0.025341492146253586,0.9982811212539673,-0.0473538339138031,-0.013134263455867767,-0.03193028271198273
869.0,0.0,0.0,0.0,0.0,0.0,0.0,0.0150340236723423,0.0036748098209500313,-0.04896675795316696,0.9983348250389099,-0.04752383381128311,-0.01016211323440075,-0.031071441248059273
870.0,0.0,0.0,0.0,0.0,0.0,0.0,0.025429578498005867,0.014199762605130672,-0.0383794791996479,0.9984143376350403,-0.046374645084142685,-0.008718629367649555,-0.030704079195857048
871.0,0.0,0.0,0.0,0.0,0.0,0.0,0.03242991492152214,0.027929503470659256,0.015381881967186928,0.9985045790672302,-0.04520721733570099,-0.00844584871083498,-0.02955813892185688
872.0,0.0,0.0,0.0,0.0,0.0,0.0,0.03823208063840866,0.023658858612179756,-0.004126617684960365,0.998602569103241,-0.04393157362937927,-0.008668569847941399,-0.028064176440238953
873.0,0.0,0.0,0.0,0.0,0.0,0.0,0.0277697890996933,0.024498451501131058,0.026050090789794922,0.9987184405326843,-0.041546329855918884,-0.008600439876317978,-0.027595102787017822
874.0,0.0,0.0,0.0,0.0,0.0,0.0,0.018866730853915215,0.03863443806767464,0.07723724842071533,0.9987925887107849,-0.0400722399353981,-0.007202394772320986,-0.02750639244914055
875.0,0.0,0.0,0.0,0.0,0.0,0.0,0.01799721084535122,0.023332329466938972,0.05753827095031738,0.9987936019897461,-0.04084928333759308,-0.005423625931143761,-0.026708293706178665
876.0,0.0,0.0,0.0,0.0,0.0,0.0,0.0350266695022583,0.02037752792239189,-0.00250727660022676,0.9987888932228088,-0.042019765824079514,-0.004694098606705666,-0.02517348900437355
877.0,0.0,0.0,0.0,0.0,0.0,0.0,0.03743796795606613,0.02767322212457657,0.007034501526504755,0.9988342523574829,-0.04220020771026611,-0.005512744188308716,-0.022800227627158165
878.0,0.0,0.0,0.0,0.0,0.0,0.0,0.03642090782523155,0.02270033396780491,-0.014553419314324856,0.9988687038421631,-0.0423615425825119,-0.007675748784095049,-0.020205721259117126
879.0,0.0,0.0,0.0,0.0,0.0,0.0,0.039297714829444885,0.014971918426454067,-0.035741232335567474,0.9988863468170166,-0.04252679646015167,-0.008837227709591389,-0.01844863034784794
