,Position_X,Position_Y,Position_Z,Velocity_X,Velocity_Y,Velocity_Z,Acceleration_X,Acceleration_Y,Acceleration_Z,Quaterion_0,Quaterion_1,Quaterion_2,Quaterion_3
207.0,0.0,0.0,0.0,0.0,0.0,0.0,-0.0020324289798736572,-0.003438040614128113,-0.0007492173463106155,1.0,0.0,-1.0842021724855044e-18,3.0357660829594124e-17
208.0,0.0,0.0,0.0,0.0,0.0,0.0,-0.0010966102126985788,-0.0004413714341353625,-0.0025732649955898523,0.9999990463256836,7.818577432772145e-05,0.0013673476641997695,-3.256884156144224e-05
209.0,0.0,0.0,0.0,0.0,0.0,0.0,0.011388422921299934,-0.011691994965076447,-0.004900679457932711,0.9999992847442627,0.00011912734771613032,0.0012001137947663665,9.079987648874521e-05
210.0,0.0,0.0,0.0,0.0,0.0,0.0,0.0051026493310928345,-0.009203694760799408,-0.031103897839784622,0.9999970197677612,-0.0002706107043195516,0.002403674880042672,0.000371108646504581
211.0,0.0,0.0,0.0,0.0,0.0,0.0,0.006222654599696398,-0.010164503008127213,-0.007152367848902941,0.9999985694885254,-0.00037555996095761657,0.0016267631435766816,0.00028952612774446607
212.0,0.0,0.0,0.0,0.0,0.0,0.0,0.0069713289849460125,0.003864951664581895,0.004971199668943882,0.9999995827674866,0.000223018869291991,0.0005670880782417953,0.0007153438637033105
213.0,0.0,0.0,0.0,0.0,0.0,0.0,0.0073797390796244144,-0.001611750922165811,0.005324657540768385,0.9999987483024597,-0.00038567313458770514,0.0013017798773944378,0.0008113443618640304
214.0,0.0,0.0,0.0,0.0,0.0,0.0,0.005114605650305748,0.008942976593971252,0.006072895601391792,0.9999979734420776,0.0007018066244199872,0.0003119534521829337,0.001869955100119114
215.0,0.0,0.0,0.0,0.0,0.0,0.0,0.00987178087234497,0.010786512866616249,0.01037803664803505,0.999993085861206,0.0023270894307643175,0.0005303947837091982,0.002845474984496832
216.0,0.0,0.0,0.0,0.0,0.0,0.0,0.0059393420815467834,0.010671134106814861,0.014979474246501923,0.9999956488609314,0.0012666592374444008,0.0015392801724374294,0.0021703075617551804
217.0,0.0,0.0,0.0,0.0,0.0,0.0,0.015652315691113472,0.011408737860620022,-0.0004766587517224252,0.9999874234199524,0.0035011745058000088,0.0021589715033769608,0.0028651126194745302
218.0,0.0,0.0,0.0,0.0,0.0,0.0,0.01751113124191761,0.009972340427339077,-0.03429839015007019,0.9999727606773376,0.005670204758644104,0.002220200840383768,0.004177749156951904
219.0,0.0,0.0,0.0,0.0,0.0,0.0,0.016666818410158157,0.010161727666854858,-0.02381320111453533,0.9999748468399048,0.005365382879972458,0.0033435665536671877,0.0032225060276687145
220.0,0.0,0.0,0.0,0.0,0.0,0.0,0.021233608946204185,0.012596373446285725,-0.024176185950636864,0.9999651312828064,0.006610856857150793,0.0018429105402901769,0.0047561959363520145
221.0,0.0,0.0,0.0,0.0,0.0,0.0,0.02480044960975647,0.008133315481245518,0.0010445545194670558,0.9999459385871887,0.006954140495508909,-0.00044146846630610526,0.007715590298175812
222.0,0.0,0.0,0.0,0.0,0.0,0.0,0.02420412003993988,0.011710790917277336,-0.009135745465755463,0.9999386668205261,0.007681785151362419,-0.0011164627503603697,0.007897578179836273
223.0,0.0,0.0,0.0,0.0,0.0,0.0,0.019658679142594337,0.004595168400555849,0.005838731303811073,0.9999226331710815,0.0066947732120752335,-0.003643421456217766,0.009829947724938393
224.0,0.0,0.0,0.0,0.0,0.0,0.0,0.0011265418725088239,0.000246207055170089,0.020298216491937637,0.9999179244041443,0.005956954788416624,-0.004888547584414482,0.010236388072371483
225.0,0.0,0.0,0.0,0.0,0.0,0.0,0.01160905696451664,0.0014904281124472618,0.011260048486292362,0.9998958706855774,0.006040725391358137,-0.0066567277535796165,0.01128828339278698
226.0,0.0,0.0,0.0,0.0,0.0,0.0,-0.005771583877503872,0.0020317614544183016,0.02124667912721634,0.999889075756073,0.006230768281966448,-0.00695290369912982,0.011605734936892986
227.0,0.0,0.0,0.0,0.0,0.0,0.0,-0.008560012094676495,0.0035506258718669415,0.002156422007828951,0.9998925924301147,0.006869867909699678,-0.006334211211651564,0.011290878988802433
228.0,0.0,0.0,0.0,0.0,0.0,0.0,-0.0089794360101223,0.002513270592316985,0.012843748554587364,0.9998811483383179,0.006152000743895769,-0.007632449269294739,0.01189707312732935
229.0,0.0,0.0,0.0,0.0,0.0,0.0,-0.006653907708823681,0.005333608482033014,-0.006838549859821796,0.9998831152915955,0.0072427974082529545,-0.006592537742108107,0.011742312461137772
230.0,0.0,0.0,0.0,0.0,0.0,0.0,0.006293411832302809,0.009960092604160309,-0.009180380031466484,0.9998708963394165,0.00813329964876175,-0.006255898158997297,0.0123679731041193
231.0,0.0,0.0,0.0,0.0,0.0,0.0,-0.0037881245370954275,0.007392877247184515,-0.008544642478227615,0.9998672604560852,0.00740640377625823,-0.00623753946274519,0.013102971017360687
232.0,0.0,0.0,0.0,0.0,0.0,0.0,0.01637091673910618,0.010960439220070839,-0.010299722664058208,0.9998476505279541,0.007637528236955404,-0.005956361535936594,0.014523304998874664
233.0,0.0,0.0,0.0,0.0,0.0,0.0,0.017976541072130203,0.011349623091518879,-0.0197492353618145,0.9998288154602051,0.00794618297368288,-0.006856733001768589,0.015237092971801758
234.0,0.0,0.0,0.0,0.0,0.0,0.0,0.01933453045785427,0.010293502360582352,-0.01841956004500389,0.9998006820678711,0.007918785326182842,-0.005648639053106308,0.017435241490602493
235.0,0.0,0.0,0.0,0.0,0.0,0.0,0.017049826681613922,0.00894200149923563,-0.017651384696364403,0.9997683167457581,0.007917639799416065,-0.007474503945559263,0.018568765372037888
236.0,0.0,0.0,0.0,0.0,0.0,0.0,0.011404706165194511,0.0033499575220048428,-0.016263404861092567,0.9997459650039673,0.006801307201385498,-0.010003766976296902,0.019017791375517845
237.0,0.0,0.0,0.0,0.0,0.0,0.0,0.014735902659595013,0.005875243339687586,-0.018183542415499687,0.9996806979179382,0.007798964623361826,-0.009328357875347137,0.022150462493300438
238.0,0.0,0.0,0.0,0.0,0.0,0.0,0.0076222228817641735,0.0009781166445463896,-0.007343069650232792,0.9996474981307983,0.0055888378992676735,-0.012225144542753696,0.02289637178182602
239.0,0.0,0.0,0.0,0.0,0.0,0.0,-0.0022363411262631416,-0.004079756326973438,0.018356330692768097,0.9996413588523865,0.0031885518692433834,-0.013848250731825829,0.02269984409213066
240.0,0.0,0.0,0.0,0.0,0.0,0.0,0.004579359199851751,-0.001993848942220211,0.011932536028325558,0.9995855093002319,0.0033199989702552557,-0.013462242670357227,0.02523127570748329
241.0,0.0,0.0,0.0,0.0,0.0,0.0,-0.006500000599771738,-0.007275833282619715,0.012706572189927101,0.9995889067649841,0.0013610163005068898,-0.014891115017235279,0.02446395717561245
242.0,0.0,0.0,0.0,0.0,0.0,0.0,-0.01339906919747591,-0.0066871945746243,0.009165351279079914,0.9996007680892944,0.0005905036232434213,-0.015250169672071934,0.023779066279530525
243.0,0.0,0.0,0.0,0.0,0.0,0.0,-0.009772003628313541,-0.0077481577172875404,0.00615310063585639,0.9995592832565308,0.0002861105022020638,-0.015802433714270592,0.025128846988081932
244.0,0.0,0.0,0.0,0.0,0.0,0.0,-0.013729621656239033,-0.006172364577651024,0.011639992706477642,0.9995868802070618,-3.5208813642384484e-05,-0.015621650964021683,0.024126088246703148
245.0,0.0,0.0,0.0,0.0,0.0,0.0,-0.010757115669548512,-0.005420516710728407,-6.157763709779829e-05,0.9996113777160645,-8.726160558580887e-06,-0.014311309903860092,0.023924963548779488
246.0,0.0,0.0,0.0,0.0,0.0,0.0,-0.01235379558056593,-0.007141830865293741,0.00633497117087245,0.9996410012245178,-0.0007134872721508145,-0.013838626444339752,0.02293170616030693
247.0,0.0,0.0,0.0,0.0,0.0,0.0,-0.004912171047180891,-0.012747538276016712,-0.029478438198566437,0.9996817708015442,-0.0011242871405556798,-0.012394445016980171,0.021944651380181313
248.0,0.0,0.0,0.0,0.0,0.0,0.0,0.013768891803920269,-0.007743143010884523,-0.019362283870577812,0.9996576309204102,-0.001767079345881939,-0.012623148038983345,0.022851789370179176
249.0,0.0,0.0,0.0,0.0,0.0,0.0,0.0056691463105380535,-0.01562633365392685,-0.02324521541595459,0.9997040629386902,-0.0009587714448571205,-0.012011941522359848,0.021132372319698334
250.0,0.0,0.0,0.0,0.0,0.0,0.0,0.011968900449573994,0.0008027477306313813,-0.0015702705131843686,0.9996216893196106,-0.0008642241009511054,-0.014113200828433037,0.02359159104526043
251.0,0.0,0.0,0.0,0.0,0.0,0.0,0.007058995775878429,0.009060096926987171,0.009430207312107086,0.9995676875114441,0.00022683317365590483,-0.01536555401980877,0.025064697489142418
252.0,0.0,0.0,0.0,0.0,0.0,0.0,0.013659912161529064,0.007721572648733854,0.014170600101351738,0.9995937347412109,-0.000297675549518317,-0.01569213531911373,0.023790769279003143
253.0,0.0,0.0,0.0,0.0,0.0,0.0,0.0034681044053286314,0.009913329035043716,0.01139000803232193,0.9995697140693665,0.0003397905093152076,-0.01557052694261074,0.024856451898813248
254.0,0.0,0.0,0.0,0.0,0.0,0.0,0.0034212011378258467,0.013192038983106613,-0.005195665173232555,0.9995495676994324,0.0010838587768375874,-0.015475374646484852,0.02568979188799858
255.0,0.0,0.0,0.0,0.0,0.0,0.0,0.001473599928431213,0.011642636731266975,0.0028638779185712337,0.9995549321174622,0.0009158042958006263,-0.015466085635125637,0.02549418807029724
256.0,0.0,0.0,0.0,0.0,0.0,0.0,0.005514915566891432,0.013772150501608849,-0.009702586568892002,0.9995228052139282,0.0017277153674513102,-0.01579592004418373,0.026490401476621628
257.0,0.0,0.0,0.0,0.0,0.0,0.0,0.0010579926893115044,0.006312900688499212,-0.008447910659015179,0.9995133280754089,0.0018802382983267307,-0.016302738338708878,0.026529718190431595
258.0,0.0,0.0,0.0,0.0,0.0,0.0,0.004321608226746321,0.010812164284288883,-0.007626896724104881,0.9995037913322449,0.002062241779640317,-0.01657285913825035,0.02670786716043949
259.0,0.0,0.0,0.0,0.0,0.0,0.0,-0.004275024402886629,0.0033692417200654745,-0.010374343954026699,0.9994713664054871,0.0016212695045396686,-0.017375783994793892,0.02743234485387802
260.0,0.0,0.0,0.0,0.0,0.0,0.0,0.004091418813914061,0.004120980855077505,0.002335525816306472,0.9994481205940247,0.0013527717674151063,-0.018239609897136688,0.02773039974272251
261.0,0.0,0.0,0.0,0.0,0.0,0.0,-0.004395139869302511,0.004901119042187929,-0.0050502377562224865,0.9994193911552429,0.0008804411045275629,-0.018865007907152176,0.02836032211780548
262.0,0.0,0.0,0.0,0.0,0.0,0.0,-0.0042418804951012135,0.0024090863298624754,0.01592842862010002,0.9993791580200195,0.0006169768748804927,-0.019930360838770866,0.02904694527387619
263.0,0.0,0.0,0.0,0.0,0.0,0.0,-0.007008326705545187,-0.0009103647898882627,0.01658400148153305,0.9993705749511719,0.000589588307775557,-0.020151324570178986,0.029190804809331894
264.0,0.0,0.0,0.0,0.0,0.0,0.0,-0.008945811539888382,0.001501155085861683,0.02503064274787903,0.9993104338645935,-0.0002981919969897717,-0.021880989894270897,0.029996570199728012
265.0,0.0,0.0,0.0,0.0,0.0,0.0,-0.009944535791873932,0.00022116028412710875,0.009287391789257526,0.9993557929992676,0.00026801973581314087,-0.021155044436454773,0.028990549966692924
266.0,0.0,0.0,0.0,0.0,0.0,0.0,-0.010655098594725132,0.002441203920170665,0.0032360851764678955,0.9993864297866821,0.0009054617839865386,-0.020289193838834763,0.028536122292280197
267.0,0.0,0.0,0.0,0.0,0.0,0.0,-0.010675265453755856,0.0005027340957894921,0.004177588503807783,0.9993523955345154,7.307625492103398e-05,-0.021281853318214417,0.02901703305542469
268.0,0.0,0.0,0.0,0.0,0.0,0.0,-0.010958394035696983,0.0017144656740128994,0.0009993622079491615,0.9994111657142639,0.0012968126684427261,-0.019576145336031914,0.028151212260127068
269.0,0.0,0.0,0.0,0.0,0.0,0.0,-0.005519550759345293,0.0012597256572917104,-0.010250267572700977,0.9994553327560425,0.002728839172050357,-0.01779957301914692,0.02765500545501709
270.0,0.0,0.0,0.0,0.0,0.0,0.0,-0.007114993408322334,0.000519775552675128,-0.005297366995364428,0.9994716048240662,0.0019164180848747492,-0.017869705334305763,0.02708306536078453
271.0,0.0,0.0,0.0,0.0,0.0,0.0,-0.0028527877293527126,0.0010572216706350446,-0.013368414714932442,0.9994876384735107,0.002835595980286598,-0.016622887924313545,0.027206286787986755
272.0,0.0,0.0,0.0,0.0,0.0,0.0,-0.0011251651449128985,-0.0005592635134235024,-0.0075130704790353775,0.9994668960571289,0.003969219978898764,-0.016268020495772362,0.02802794612944126
273.0,0.0,0.0,0.0,0.0,0.0,0.0,-0.00011579973943298683,0.0007166362483985722,-0.011091729626059532,0.9994664192199707,0.003769350005313754,-0.015955466777086258,0.02825055457651615
274.0,0.0,0.0,0.0,0.0,0.0,0.0,0.0011805988615378737,-0.0019616475328803062,-0.002565724542364478,0.9994543790817261,0.00468518165871501,-0.015429546125233173,0.028825154528021812
275.0,0.0,0.0,0.0,0.0,0.0,0.0,0.004079784266650677,-0.0029801917262375355,-0.00846148282289505,0.9994426965713501,0.005347725935280323,-0.014847524464130402,0.029416415840387344
276.0,0.0,0.0,0.0,0.0,0.0,0.0,0.0023738970048725605,-0.002020463114604354,-0.0036001589614897966,0.9994690418243408,0.0050787553191185,-0.014249689877033234,0.028859378769993782
277.0,0.0,0.0,0.0,0.0,0.0,0.0,0.004460378084331751,-0.005203360691666603,-0.0077935499139130116,0.9994671940803528,0.005839885678142309,-0.013956059701740742,0.028923138976097107
278.0,0.0,0.0,0.0,0.0,0.0,0.0,0.0031639952212572098,-0.0036397664807736874,0.00012350826000329107,0.9994332790374756,0.005818608216941357,-0.01414744183421135,0.029986964538693428
279.0,0.0,0.0,0.0,0.0,0.0,0.0,0.003819845151156187,-0.004724561236798763,-0.0056928303092718124,0.999415934085846,0.005726989358663559,-0.01412243116647005,0.0305875726044178
280.0,0.0,0.0,0.0,0.0,0.0,0.0,0.002814127365127206,-0.0033540823496878147,0.0022902628406882286,0.999372661113739,0.005316281225532293,-0.014183280989527702,0.03201398253440857
281.0,0.0,0.0,0.0,0.0,0.0,0.0,-0.0009320593671873212,-0.006706736516207457,-0.015205036848783493,0.9994084239006042,0.00463617779314518,-0.01279145572334528,0.03158695250749588
282.0,0.0,0.0,0.0,0.0,0.0,0.0,-0.00011226237256778404,-0.0035567120648920536,0.005192295182496309,0.9994258284568787,0.003498227335512638,-0.012125642970204353,0.03144517540931702
283.0,0.0,0.0,0.0,0.0,0.0,0.0,0.018987517803907394,-0.010893569327890873,-0.031838707625865936,0.9994189143180847,0.0013996788766235113,-0.01211695745587349,0.03182883560657501
284.0,0.0,0.0,0.0,0.0,0.0,0.0,0.02157198265194893,-0.0021906879264861345,-6.064991612220183e-05,0.9993414282798767,-4.29567699029576e-05,-0.01470708567649126,0.03317311406135559
285.0,0.0,0.0,0.0,0.0,0.0,0.0,0.023835018277168274,-0.006470217369496822,-0.012371460907161236,0.9993445873260498,-0.0009970210958272219,-0.01433444581925869,0.0332249216735363
286.0,0.0,0.0,0.0,0.0,0.0,0.0,0.015353689901530743,0.0030771323945373297,0.010093039833009243,0.9992707967758179,-0.0019373091636225581,-0.017156090587377548,0.03405604884028435
287.0,0.0,0.0,0.0,0.0,0.0,0.0,-0.009596515446901321,0.0041746036149561405,0.005936252884566784,0.9992703795433044,-0.0029254870023578405,-0.017896469682455063,0.0336151085793972
288.0,0.0,0.0,0.0,0.0,0.0,0.0,0.0038462840020656586,0.0038753708358854055,0.007867874577641487,0.9992223978042603,-0.0038007216062396765,-0.018744751811027527,0.034480322152376175
289.0,0.0,0.0,0.0,0.0,0.0,0.0,-0.012834885157644749,0.003416194347664714,0.0006394045776687562,0.9992707371711731,-0.003614310175180435,-0.01817924715578556,0.03338450565934181
290.0,0.0,0.0,0.0,0.0,0.0,0.0,-0.008354242891073227,0.004908101633191109,-0.006299731321632862,0.999283492565155,-0.0033098512794822454,-0.018008006736636162,0.033126141875982285
291.0,0.0,0.0,0.0,0.0,0.0,0.0,-0.010501140728592873,0.0044901431538164616,-0.004285021685063839,0.9992809891700745,-0.002968374639749527,-0.01838882453739643,0.033024176955223083
292.0,0.0,0.0,0.0,0.0,0.0,0.0,-0.009382656775414944,0.004569496493786573,-0.0016362644964829087,0.999320924282074,-0.0025715474039316177,-0.017703155055642128,0.03221489116549492
293.0,0.0,0.0,0.0,0.0,0.0,0.0,-0.011727682314813137,0.00393452774733305,-0.0031638918444514275,0.9993722438812256,-0.0018773549236357212,-0.016513463109731674,0.03128838166594505
294.0,0.0,0.0,0.0,0.0,0.0,0.0,-0.010890897363424301,0.003231062786653638,0.005139450076967478,0.9994103312492371,-0.0010042779613286257,-0.01602277159690857,0.030354168266057968
295.0,0.0,0.0,0.0,0.0,0.0,0.0,-0.008342149667441845,0.000472053827252239,-0.018780795857310295,0.9994320869445801,-0.0007479693740606308,-0.01567891612648964,0.029819156974554062
296.0,0.0,0.0,0.0,0.0,0.0,0.0,0.0002313086442882195,-0.004011726472526789,-0.03841777518391609,0.9994202852249146,-0.002467621583491564,-0.01747136563062668,0.029117297381162643
297.0,0.0,0.0,0.0,0.0,0.0,0.0,-0.0009838808327913284,-0.0026761493645608425,-0.036691926419734955,0.999467670917511,-0.0021817204542458057,-0.01754632219672203,0.027419107034802437
298.0,0.0,0.0,0.0,0.0,0.0,0.0,-0.007133267354220152,-0.0046073636040091515,-0.03036736138164997,0.9994459748268127,-0.005870339460670948,-0.01961516961455345,0.026241837069392204
299.0,0.0,0.0,0.0,0.0,0.0,0.0,-0.004124483559280634,0.002270176773890853,-0.0076098209246993065,0.9993779063224792,-0.009797041304409504,-0.022457027807831764,0.02536856383085251
300.0,0.0,0.0,0.0,0.0,0.0,0.0,-0.0069770109839737415,-0.0009975858265534043,-0.01939866691827774,0.9994556307792664,-0.00936533510684967,-0.02212175540626049,0.0226164311170578
301.0,0.0,0.0,0.0,0.0,0.0,0.0,-0.0033862381242215633,0.0035398448817431927,-0.005781521555036306,0.9993433952331543,-0.012911535799503326,-0.025813743472099304,0.02190529741346836
302.0,0.0,0.0,0.0,0.0,0.0,0.0,-0.0026352745480835438,0.004435170907527208,-0.009040875360369682,0.999151885509491,-0.01715027168393135,-0.030189581215381622,0.022137628868222237
303.0,0.0,0.0,0.0,0.0,0.0,0.0,-0.002743229502812028,0.0040907240472733974,-0.009061967022716999,0.9992265701293945,-0.015687279403209686,-0.030582604929804802,0.019102871417999268
304.0,0.0,0.0,0.0,0.0,0.0,0.0,-0.0053284913301467896,0.006903409957885742,-0.003225885797291994,0.9990084767341614,-0.02001136913895607,-0.034329235553741455,0.020077915862202644
305.0,0.0,0.0,0.0,0.0,0.0,0.0,-0.010164870880544186,0.004678953904658556,0.014956360682845116,0.998832643032074,-0.023944152519106865,-0.03630119562149048,0.021029971539974213
306.0,0.0,0.0,0.0,0.0,0.0,0.0,-0.00841757282614708,0.006391379050910473,0.006580751854926348,0.9989400506019592,-0.02193416841328144,-0.035849787294864655,0.018776943907141685
307.0,0.0,0.0,0.0,0.0,0.0,0.0,-0.007932852022349834,0.0028053894639015198,0.015412822365760803,0.9987686276435852,-0.025678442791104317,-0.0373043529689312,0.02025591768324375
308.0,0.0,0.0,0.0,0.0,0.0,0.0,-0.002186504192650318,0.00017446510901208967,0.002975381910800934,0.9986191391944885,-0.02817857451736927,-0.0388476587831974,0.021370556205511093
309.0,0.0,0.0,0.0,0.0,0.0,0.0,-0.002930200658738613,0.0013730169739574194,0.008533338084816933,0.9987534284591675,-0.027599629014730453,-0.03759114816784859,0.01780063845217228
310.0,0.0,0.0,0.0,0.0,0.0,0.0,-0.0023857965134084225,0.0013728406047448516,-0.0009821578860282898,0.9985955357551575,-0.030905840918421745,-0.039149172604084015,0.017865128815174103
311.0,0.0,0.0,0.0,0.0,0.0,0.0,-0.00031395014957524836,0.007717995438724756,0.005755683872848749,0.9984545707702637,-0.0329778678715229,-0.040740132331848145,0.01847504824399948
312.0,0.0,0.0,0.0,0.0,0.0,0.0,-0.0029577126260846853,0.0039238473400473595,-0.0005145062459632754,0.998565137386322,-0.032803669571876526,-0.03939297795295715,0.01548571977764368
313.0,0.0,0.0,0.0,0.0,0.0,0.0,-0.0007486312533728778,0.008660644292831421,0.01345214992761612,0.9984201788902283,-0.034396350383758545,-0.04132826253771782,0.016310572624206543
314.0,0.0,0.0,0.0,0.0,0.0,0.0,0.006068691611289978,0.00901982095092535,0.008465627208352089,0.9983132481575012,-0.034709542989730835,-0.043123986572027206,0.01750338450074196
315.0,0.0,0.0,0.0,0.0,0.0,0.0,0.0031431668903678656,0.008255145512521267,0.01093247439712286,0.9983624219894409,-0.03429114446043968,-0.043136633932590485,0.015359877608716488
316.0,0.0,0.0,0.0,0.0,0.0,0.0,0.004889768548309803,0.01067988108843565,0.011534836143255234,0.9982066750526428,-0.03468048945069313,-0.04541602358222008,0.01783950999379158
317.0,0.0,0.0,0.0,0.0,0.0,0.0,0.0061155762523412704,0.009595772251486778,0.014063162729144096,0.9980884194374084,-0.035161007195711136,-0.0467849038541317,0.01986205205321312
318.0,0.0,0.0,0.0,0.0,0.0,0.0,0.00437315134331584,0.009455694817006588,0.015292665921151638,0.9980869889259338,-0.03424886241555214,-0.048138029873371124,0.018224215134978294
319.0,0.0,0.0,0.0,0.0,0.0,0.0,0.005736291874200106,0.007190284319221973,0.008101418614387512,0.9979783296585083,-0.035249195992946625,-0.04912553355097771,0.019583310931921005
320.0,0.0,0.0,0.0,0.0,0.0,0.0,0.0025256250519305468,0.006050550378859043,0.009490443393588066,0.9978733062744141,-0.03697522357106209,-0.049404390156269073,0.021000131964683533
321.0,0.0,0.0,0.0,0.0,0.0,0.0,0.006188602652400732,0.005622887518256903,0.007244913838803768,0.9978088140487671,-0.03725830093026161,-0.05091467127203941,0.019927550107240677
322.0,0.0,0.0,0.0,0.0,0.0,0.0,-0.0006524189375340939,0.007712898775935173,0.009535805322229862,0.9977904558181763,-0.038014769554138184,-0.05026590824127197,0.021036112681031227
323.0,0.0,0.0,0.0,0.0,0.0,0.0,-0.0013184320414438844,0.005796415731310844,-0.0026761305052787066,0.9978557229042053,-0.03795868530869484,-0.04910287633538246,0.020788585767149925
324.0,0.0,0.0,0.0,0.0,0.0,0.0,-0.0023215089458972216,0.006882081273943186,0.007191259413957596,0.9978389739990234,-0.03836417570710182,-0.049516331404447556,0.019845683127641678
325.0,0.0,0.0,0.0,0.0,0.0,0.0,-0.0012819167459383607,0.005839922931045294,-0.011561023071408272,0.9978699088096619,-0.038105543702840805,-0.048874784260988235,0.02037051133811474
326.0,0.0,0.0,0.0,0.0,0.0,0.0,0.001317654037848115,0.004246964119374752,-0.020792977884411812,0.9978441596031189,-0.03904932364821434,-0.048473507165908813,0.020801005885004997
327.0,0.0,0.0,0.0,0.0,0.0,0.0,-0.0017526057781651616,0.004967667628079653,-0.016213739290833473,0.9979889392852783,-0.03825174272060394,-0.0465422198176384,0.01971781626343727
328.0,0.0,0.0,0.0,0.0,0.0,0.0,-0.0021063501480966806,0.003599749878048897,-0.021133746951818466,0.9979499578475952,-0.03952256962656975,-0.046249620616436005,0.019870346412062645
329.0,0.0,0.0,0.0,0.0,0.0,0.0,0.00352649949491024,0.0019973129965364933,-0.03165603056550026,0.9977809190750122,-0.04194101691246033,-0.04746444150805473,0.020525740459561348
330.0,0.0,0.0,0.0,0.0,0.0,0.0,0.002174446126446128,0.0023496332578361034,-0.03122868202626705,0.9979672431945801,-0.04017786309123039,-0.045254167169332504,0.019979635253548622
331.0,0.0,0.0,0.0,0.0,0.0,0.0,-6.995398143772036e-05,0.002514870837330818,-0.016633490100502968,0.9977350234985352,-0.04329334571957588,-0.047006286680698395,0.02100151777267456
332.0,0.0,0.0,0.0,0.0,0.0,0.0,-0.010553528554737568,0.0011624492472037673,0.005316687282174826,0.9974998235702515,-0.04633181542158127,-0.048800960183143616,0.0215865820646286
333.0,0.0,0.0,0.0,0.0,0.0,0.0,-0.007634586654603481,0.0021044884342700243,-0.004356861114501953,0.9976457357406616,-0.04412824660539627,-0.047750748693943024,0.021805793046951294
334.0,0.0,0.0,0.0,0.0,0.0,0.0,-0.01214283611625433,-0.0008133092778734863,0.010487047955393791,0.9974032044410706,-0.04703927040100098,-0.04975506290793419,0.022330524399876595
335.0,0.0,0.0,0.0,0.0,0.0,0.0,-0.017177127301692963,1.7678987205727026e-05,0.018040550872683525,0.9972254633903503,-0.049113061279058456,-0.05130038410425186,0.02231099270284176
336.0,0.0,0.0,0.0,0.0,0.0,0.0,-0.014054560102522373,3.398970511625521e-05,0.01603611931204796,0.9972852468490601,-0.047760505229234695,-0.0514662079513073,0.022192103788256645
337.0,0.0,0.0,0.0,0.0,0.0,0.0,-0.01581847108900547,-0.00043960020411759615,0.01681164652109146,0.9970980286598206,-0.049881480634212494,-0.052872348576784134,0.02262871153652668
338.0,0.0,0.0,0.0,0.0,0.0,0.0,-0.015396174974739552,0.0006137600285001099,0.010520835407078266,0.9969897270202637,-0.051732227206230164,-0.053088415414094925,0.022734856233000755
339.0,0.0,0.0,0.0,0.0,0.0,0.0,-0.014894511550664902,0.000611372641287744,0.014391811564564705,0.9970285892486572,-0.05038488656282425,-0.05349571257829666,0.02310292050242424
340.0,0.0,0.0,0.0,0.0,0.0,0.0,-0.011336729861795902,0.0021280422806739807,0.018276572227478027,0.9969939589500427,-0.051589515060186386,-0.05293194204568863,0.023233456537127495
341.0,0.0,0.0,0.0,0.0,0.0,0.0,-0.0060230642557144165,-0.0013956357724964619,0.005458107218146324,0.997005820274353,-0.051922477781772614,-0.052335985004901886,0.023335516452789307
342.0,0.0,0.0,0.0,0.0,0.0,0.0,-0.009972965344786644,0.0007430232944898307,0.016819460317492485,0.99709153175354,-0.0507965087890625,-0.05186089128255844,0.023213215172290802
343.0,0.0,0.0,0.0,0.0,0.0,0.0,-0.004169460851699114,-0.00434867525473237,-0.004085208754986525,0.9970721006393433,-0.05159616097807884,-0.051577530801296234,0.02291516214609146
344.0,0.0,0.0,0.0,0.0,0.0,0.0,-0.006739468313753605,-0.002633273834362626,-0.0006134547293186188,0.9970357418060303,-0.052213434129953384,-0.05186716467142105,0.022433534264564514
345.0,0.0,0.0,0.0,0.0,0.0,0.0,-0.0031717270612716675,-0.004426021594554186,-0.005100301932543516,0.9969932436943054,-0.051788199692964554,-0.05258563905954361,0.023607853800058365
346.0,0.0,0.0,0.0,0.0,0.0,0.0,-0.009997772052884102,0.0032582024578005075,0.017157111316919327,0.9969664216041565,-0.05163194239139557,-0.052952948957681656,0.02425319515168667
347.0,0.0,0.0,0.0,0.0,0.0,0.0,-0.016565212979912758,0.009005045518279076,0.028835702687501907,0.997085690498352,-0.05028105899691582,-0.05197581276297569,0.024306630715727806
348.0,0.0,0.0,0.0,0.0,0.0,0.0,-0.013145708478987217,0.006920842453837395,0.029276184737682343,0.9969611167907715,-0.05030553787946701,-0.05315922200679779,0.026685042306780815
349.0,0.0,0.0,0.0,0.0,0.0,0.0,-0.011260144412517548,0.009817718528211117,0.01833391934633255,0.9971819519996643,-0.04814654588699341,-0.05137934908270836,0.02588878571987152
350.0,0.0,0.0,0.0,0.0,0.0,0.0,-0.009017792530357838,0.009535808116197586,-0.011475234292447567,0.9973921775817871,-0.045925039798021317,-0.04926935210824013,0.025929799303412437
351.0,0.0,0.0,0.0,0.0,0.0,0.0,-0.011552806943655014,0.00795410480350256,-0.0011476229410618544,0.9973443746566772,-0.044496819376945496,-0.0504215806722641,0.02796565368771553
352.0,0.0,0.0,0.0,0.0,0.0,0.0,-0.01065654307603836,0.012432441115379333,-0.016958029940724373,0.9975001811981201,-0.042901650071144104,-0.04845511540770531,0.02837419882416725
353.0,0.0,0.0,0.0,0.0,0.0,0.0,-0.010452114045619965,0.011515321210026741,-0.014983310364186764,0.9976380467414856,-0.04115423932671547,-0.046457428485155106,0.029432596638798714
354.0,0.0,0.0,0.0,0.0,0.0,0.0,-0.010428442619740963,0.011774933896958828,-0.013523419387638569,0.9976032972335815,-0.03881494700908661,-0.04782799258828163,0.03152161464095116
355.0,0.0,0.0,0.0,0.0,0.0,0.0,-0.010376101359724998,0.010055693797767162,-0.0182351004332304,0.9977001547813416,-0.03737349063158035,-0.04626331850886345,0.032516930252313614
356.0,0.0,0.0,0.0,0.0,0.0,0.0,-0.015112734399735928,0.009114324115216732,0.0017629150534048676,0.9977544546127319,-0.03654161095619202,-0.044810950756073,0.033803440630435944
357.0,0.0,0.0,0.0,0.0,0.0,0.0,-0.010926328599452972,0.008754094131290913,-0.01403670385479927,0.9977768659591675,-0.033123813569545746,-0.045557908713817596,0.03562046214938164
358.0,0.0,0.0,0.0,0.0,0.0,0.0,-0.014977467246353626,0.00721415039151907,0.0038390064146369696,0.997877836227417,-0.03304124251008034,-0.04298042505979538,0.036067165434360504
359.0,0.0,0.0,0.0,0.0,0.0,0.0,-0.009148979559540749,0.005692348349839449,0.008547578006982803,0.9979987144470215,-0.03237612172961235,-0.04030090942978859,0.03641798347234726
360.0,0.0,0.0,0.0,0.0,0.0,0.0,-0.013260101899504662,0.0066905575804412365,0.010816685855388641,0.9980615973472595,-0.030342143028974533,-0.03961252421140671,0.037193503230810165
361.0,0.0,0.0,0.0,0.0,0.0,0.0,-0.0050521171651780605,0.005855174735188484,0.010069044306874275,0.9981256127357483,-0.0300750695168972,-0.0374189056456089,0.0379546582698822
362.0,0.0,0.0,0.0,0.0,0.0,0.0,-0.0017681129975244403,0.006688620895147324,0.02050294540822506,0.9981728792190552,-0.029954899102449417,-0.03542453050613403,0.03871613368391991
363.0,0.0,0.0,0.0,0.0,0.0,0.0,-0.005002700258046389,0.005307421553879976,0.015822237357497215,0.9982096552848816,-0.028293220326304436,-0.0349104069173336,0.039475202560424805
364.0,0.0,0.0,0.0,0.0,0.0,0.0,-0.0007208486786112189,0.006131053902208805,0.020381279289722443,0.9982293248176575,-0.028417974710464478,-0.03342822194099426,0.040166519582271576
365.0,0.0,0.0,0.0,0.0,0.0,0.0,-0.0010246902238577604,0.008740371093153954,-0.008810793980956078,0.9983037114143372,-0.02798793651163578,-0.03186149522662163,0.0398918054997921
366.0,0.0,0.0,0.0,0.0,0.0,0.0,-0.003346372628584504,0.007027345709502697,0.005906165577471256,0.9982830286026001,-0.027111005038022995,-0.03228576481342316,0.04066576808691025
367.0,0.0,0.0,0.0,0.0,0.0,0.0,-0.003030364401638508,0.01067663636058569,-0.013412266038358212,0.9983254075050354,-0.027325032278895378,-0.030889855697751045,0.04056696593761444
368.0,0.0,0.0,0.0,0.0,0.0,0.0,-0.007883293554186821,0.01524088904261589,-0.02006169781088829,0.9983689785003662,-0.02731192857027054,-0.029816845431923866,0.04030612111091614
369.0,0.0,0.0,0.0,0.0,0.0,0.0,-0.0048375120386481285,0.013216369785368443,-0.019393250346183777,0.9982998371124268,-0.026707135140895844,-0.030068544670939445,0.042190901935100555
370.0,0.0,0.0,0.0,0.0,0.0,0.0,-0.010870394296944141,0.01782090775668621,-0.014159188605844975,0.9983258843421936,-0.026659028604626656,-0.028981700539588928,0.04236537218093872
371.0,0.0,0.0,0.0,0.0,0.0,0.0,-0.014462247490882874,0.016557661816477776,-0.019869763404130936,0.9983934760093689,-0.026319166645407677,-0.02765536680817604,0.041870880872011185
372.0,0.0,0.0,0.0,0.0,0.0,0.0,-0.010813124477863312,0.01865466684103012,-0.016629738733172417,0.9983609914779663,-0.025329504162073135,-0.026715755462646484,0.04381886497139931
373.0,0.0,0.0,0.0,0.0,0.0,0.0,-0.016060344874858856,0.008771206252276897,-0.02924453094601631,0.9984685778617859,-0.025297952815890312,-0.024093816056847572,0.04289738088846207
374.0,0.0,0.0,0.0,0.0,0.0,0.0,-0.009397689253091812,0.0016234356444329023,-0.027309508994221687,0.9984567165374756,-0.02659578062593937,-0.02293224260210991,0.04302247241139412
375.0,0.0,0.0,0.0,0.0,0.0,0.0,-0.012079959735274315,0.006303881760686636,-0.03115658089518547,0.9985476732254028,-0.02373972348868847,-0.020333651453256607,0.043880049139261246
376.0,0.0,0.0,0.0,0.0,0.0,0.0,-0.004820006433874369,-0.0020935158245265484,-0.020573662593960762,0.998457133769989,-0.02501637488603592,-0.020636634901165962,0.0450754389166832
377.0,0.0,0.0,0.0,0.0,0.0,0.0,0.0018798745004460216,0.0033505531027913094,0.04456783086061478,0.9982492923736572,-0.02801898680627346,-0.021965621039271355,0.0472332239151001
378.0,0.0,0.0,0.0,0.0,0.0,0.0,0.0014677172293886542,-0.001433538505807519,0.012773610651493073,0.9983181953430176,-0.02464270405471325,-0.02114376239478588,0.048026684671640396
379.0,0.0,0.0,0.0,0.0,0.0,0.0,0.0001805860665626824,0.005092774983495474,0.05125761404633522,0.9980749487876892,-0.027590714395046234,-0.024209804832935333,0.04998954012989998
380.0,0.0,0.0,0.0,0.0,0.0,0.0,-0.006724229548126459,0.007332514971494675,0.04525650292634964,0.9980288743972778,-0.02853766642510891,-0.025264184921979904,0.0498589351773262
381.0,0.0,0.0,0.0,0.0,0.0,0.0,-0.0034104916267096996,0.00534460786730051,0.05098331719636917,0.9979714751243591,-0.02732606790959835,-0.027494244277477264,0.050500888377428055
382.0,0.0,0.0,0.0,0.0,0.0,0.0,-0.010067755356431007,0.009245592169463634,0.02962007373571396,0.9980573654174805,-0.027301935479044914,-0.026873106136918068,0.04913095384836197
383.0,0.0,0.0,0.0,0.0,0.0,0.0,-0.01568601280450821,0.01047585904598236,0.0007761663291603327,0.9982198476791382,-0.026147713884711266,-0.025572044774889946,0.047112561762332916
384.0,0.0,0.0,0.0,0.0,0.0,0.0,-0.012401171959936619,0.009753784164786339,0.015726303681731224,0.998149573802948,-0.026067672297358513,-0.02742142789065838,0.047603294253349304
385.0,0.0,0.0,0.0,0.0,0.0,0.0,-0.01633051224052906,0.01729298010468483,0.006417302880436182,0.9982757568359375,-0.024880338460206985,-0.025796132162213326,0.04648997262120247
386.0,0.0,0.0,0.0,0.0,0.0,0.0,-0.01377969328314066,0.01720583811402321,-0.002499342430382967,0.998393177986145,-0.023070460185408592,-0.024147603660821915,0.04578116908669472
387.0,0.0,0.0,0.0,0.0,0.0,0.0,-0.015474210493266582,0.01846136897802353,0.0019127653213217854,0.9984117746353149,-0.023784901946783066,-0.023857345804572105,0.04515938460826874
388.0,0.0,0.0,0.0,0.0,0.0,0.0,-0.011222089640796185,0.01733112893998623,0.0022574050817638636,0.9985918998718262,-0.022718463093042374,-0.020389394834637642,0.04338568449020386
389.0,0.0,0.0,0.0,0.0,0.0,0.0,-0.0030971483793109655,0.0096623869612813,0.003895657369866967,0.998746395111084,-0.021120287477970123,-0.017061147838830948,0.0420561283826828
390.0,0.0,0.0,0.0,0.0,0.0,0.0,-0.00803326815366745,0.013095594011247158,0.0073190354742109776,0.9988570213317871,-0.022631503641605377,-0.014185152016580105,0.03964101895689964
391.0,0.0,0.0,0.0,0.0,0.0,0.0,0.00047802089829929173,0.004244236741214991,0.007023449521511793,0.9990296363830566,-0.0203094482421875,-0.011674183420836926,0.037297505885362625
392.0,0.0,0.0,0.0,0.0,0.0,0.0,0.005169966723769903,-0.003341738600283861,0.015211552381515503,0.999148964881897,-0.016964783892035484,-0.010735631920397282,0.03603333979845047
393.0,0.0,0.0,0.0,0.0,0.0,0.0,0.006918541621416807,-0.0012129857204854488,0.007822748273611069,0.999244749546051,-0.018288834020495415,-0.009385022334754467,0.03297555446624756
394.0,0.0,0.0,0.0,0.0,0.0,0.0,0.002860997337847948,-0.006142715457826853,0.010812385939061642,0.9992929697036743,-0.015010228380560875,-0.010205221362411976,0.032927803695201874
395.0,0.0,0.0,0.0,0.0,0.0,0.0,-0.001649740501306951,-0.0014615021646022797,0.032253097742795944,0.9992623329162598,-0.014114007353782654,-0.010108825750648975,0.03425741568207741
396.0,0.0,0.0,0.0,0.0,0.0,0.0,-0.0005115431849844754,-0.005673018749803305,0.01066588331013918,0.9993895888328552,-0.012636021710932255,-0.01087983325123787,0.030699852854013443
397.0,0.0,0.0,0.0,0.0,0.0,0.0,0.00058462203014642,0.0070770964957773685,0.03594069555401802,0.999383270740509,-0.01377909630537033,-0.008345898240804672,0.031202703714370728
398.0,0.0,0.0,0.0,0.0,0.0,0.0,-0.004236571025103331,-0.002333411481231451,-0.012901626527309418,0.9993610382080078,-0.012908819131553173,-0.0023620736319571733,0.03324638679623604
399.0,0.0,0.0,0.0,0.0,0.0,0.0,-0.009298976510763168,0.0021849023178219795,0.004811462014913559,0.999630331993103,-0.010041652247309685,-0.0030785861890763044,0.025077365338802338
400.0,0.0,0.0,0.0,0.0,0.0,0.0,-0.0027683463413268328,-0.0024810191243886948,-0.0361715666949749,0.9995710253715515,-0.007486478425562382,0.004168554209172726,0.02800905704498291
401.0,0.0,0.0,0.0,0.0,0.0,0.0,0.014282372780144215,0.010355819948017597,-0.03967561200261116,0.9993866086006165,-0.0038319705054163933,0.012134011834859848,0.03262852504849434
402.0,0.0,0.0,0.0,0.0,0.0,0.0,0.004095129668712616,0.0007589392480440438,-0.045583732426166534,0.9995985627174377,-0.0009144651121459901,0.013809760101139545,0.02472521737217903
403.0,0.0,0.0,0.0,0.0,0.0,0.0,0.027706729248166084,0.015491383150219917,-0.030638040974736214,0.9992581605911255,0.0025715194642543793,0.022617105394601822,0.031070353463292122
404.0,0.0,0.0,0.0,0.0,0.0,0.0,0.04846934229135513,0.008729169145226479,-0.03228779882192612,0.9988816380500793,0.005678781308233738,0.029093682765960693,0.036837078630924225
405.0,0.0,0.0,0.0,0.0,0.0,0.0,0.04045670107007027,0.010902712121605873,-0.03542773053050041,0.9989431500434875,0.008948673494160175,0.033550865948200226,0.030123312026262283
406.0,0.0,0.0,0.0,0.0,0.0,0.0,0.05108359083533287,0.00597117654979229,-0.020164309069514275,0.998539388179779,0.010040044784545898,0.038254011422395706,0.03681771084666252
407.0,0.0,0.0,0.0,0.0,0.0,0.0,0.036491695791482925,-0.005619840696454048,-0.00950660090893507,0.9983349442481995,0.009313426911830902,0.03950995206832886,0.0409809909760952
408.0,0.0,0.0,0.0,0.0,0.0,0.0,0.04489218071103096,-0.0004352055548224598,-0.01866917684674263,0.9982475638389587,0.01203918643295765,0.04379333183169365,0.03794902190566063
409.0,0.0,0.0,0.0,0.0,0.0,0.0,0.029762577265501022,-0.002122345846146345,0.017029600217938423,0.9981716275215149,0.009682578966021538,0.04202454164624214,0.042348772287368774
410.0,0.0,0.0,0.0,0.0,0.0,0.0,0.00880369171500206,0.0064145298674702644,0.05894254520535469,0.9982619881629944,0.006139256525784731,0.03874468430876732,0.04398953914642334
411.0,0.0,0.0,0.0,0.0,0.0,0.0,0.0163979921489954,-0.002216781722381711,0.024233955889940262,0.9982041120529175,0.008082258515059948,0.03851546347141266,0.04516858607530594
412.0,0.0,0.0,0.0,0.0,0.0,0.0,-0.00046895979903638363,0.004122954327613115,0.05016263946890831,0.9984273910522461,0.005008636973798275,0.033299144357442856,0.044832490384578705
413.0,0.0,0.0,0.0,0.0,0.0,0.0,-0.005708737298846245,-0.007557140663266182,0.026336733251810074,0.9986253380775452,0.0016998727805912495,0.03307006135582924,0.04063786193728447
414.0,0.0,0.0,0.0,0.0,0.0,0.0,-0.008424170315265656,-0.004860492888838053,0.03117668814957142,0.9986458420753479,0.0030526346527040005,0.02738518826663494,0.044137101620435715
415.0,0.0,0.0,0.0,0.0,0.0,0.0,0.002637722995132208,-0.0030379081144928932,0.01895964704453945,0.9988349080085754,0.0006347359740175307,0.028051404282450676,0.039265695959329605
416.0,0.0,0.0,0.0,0.0,0.0,0.0,-0.0030613038688898087,0.0011708404636010528,-0.04309065639972687,0.999045193195343,-0.0010908666299656034,0.028849797323346138,0.03279576078057289
417.0,0.0,0.0,0.0,0.0,0.0,0.0,0.0002473065396770835,-0.0022784993052482605,-0.019060350954532623,0.9993658661842346,0.005650494247674942,0.01578998938202858,0.03140958771109581
418.0,0.0,0.0,0.0,0.0,0.0,0.0,-0.006184934172779322,0.004149525426328182,-0.051331304013729095,0.9995973706245422,0.008202298544347286,0.012205757200717926,0.024277299642562866
419.0,0.0,0.0,0.0,0.0,0.0,0.0,-0.008077450096607208,0.004782693460583687,-0.07810210436582565,0.9997621178627014,0.010373379103839397,0.005771612282842398,0.018329907208681107
420.0,0.0,0.0,0.0,0.0,0.0,0.0,-0.012041977606713772,0.004188335966318846,-0.056900858879089355,0.9994223117828369,0.02246389538049698,-0.012655417434871197,0.022153224796056747
421.0,0.0,0.0,0.0,0.0,0.0,0.0,-0.02128634601831436,0.007301670033484697,-0.06924769282341003,0.9993137717247009,0.023228654637932777,-0.019451996311545372,0.021334221586585045
422.0,0.0,0.0,0.0,0.0,0.0,0.0,-0.03922293335199356,0.004904172383248806,-0.0447128564119339,0.9992247819900513,0.020595015957951546,-0.025470517575740814,0.02186889760196209
423.0,0.0,0.0,0.0,0.0,0.0,0.0,-0.027910761535167694,0.01865314692258835,-0.0341738760471344,0.9982332587242126,0.03346830606460571,-0.03968649357557297,0.028911372646689415
424.0,0.0,0.0,0.0,0.0,0.0,0.0,-0.05268978700041771,0.0034649858716875315,-0.0033789805602282286,0.998309850692749,0.02789081074297428,-0.041507184505462646,0.029609987512230873
425.0,0.0,0.0,0.0,0.0,0.0,0.0,-0.048120252788066864,0.01564675010740757,0.06368781626224518,0.9983096718788147,0.024736758321523666,-0.04350258782505989,0.02959868498146534
426.0,0.0,0.0,0.0,0.0,0.0,0.0,-0.043884582817554474,0.020505959168076515,0.05758858844637871,0.9975454211235046,0.0296991765499115,-0.051528725773096085,0.03696650266647339
427.0,0.0,0.0,0.0,0.0,0.0,0.0,-0.04484584182500839,0.012097779661417007,0.06625521928071976,0.9977160096168518,0.024004966020584106,-0.05162659287452698,0.03635525703430176
428.0,0.0,0.0,0.0,0.0,0.0,0.0,-0.04498463124036789,0.015291737392544746,0.04920496791601181,0.997789740562439,0.01970917545258999,-0.05226457118988037,0.036000028252601624
429.0,0.0,0.0,0.0,0.0,0.0,0.0,-0.038464952260255814,0.012134814634919167,0.054772134870290756,0.9973507523536682,0.018331361934542656,-0.056301504373550415,0.04226898401975632
430.0,0.0,0.0,0.0,0.0,0.0,0.0,-0.03852570429444313,0.023563070222735405,0.041076719760894775,0.9974626302719116,0.013768086209893227,-0.05661681294441223,0.04092922806739807
431.0,0.0,0.0,0.0,0.0,0.0,0.0,-0.02060306817293167,0.04344133287668228,0.02983131818473339,0.9973878860473633,0.011360685341060162,-0.05884317308664322,0.040349941700696945
432.0,0.0,0.0,0.0,0.0,0.0,0.0,-0.023947840556502342,0.03739079833030701,0.04446190595626831,0.9972606301307678,0.005366814322769642,-0.060380902141332626,0.042394183576107025
433.0,0.0,0.0,0.0,0.0,0.0,0.0,-0.014317424036562443,0.04519745334982872,0.022047821432352066,0.997218668460846,0.0039038790855556726,-0.06270226836204529,0.04013185575604439
434.0,0.0,0.0,0.0,0.0,0.0,0.0,-0.00867718830704689,0.0502164326608181,-0.00013016669254284352,0.9971583485603333,0.004834156949073076,-0.06540292501449585,0.03710786998271942
435.0,0.0,0.0,0.0,0.0,0.0,0.0,-0.01359009649604559,0.04502633213996887,0.007326643448323011,0.9972659945487976,-0.002070898190140724,-0.06445960700511932,0.036096423864364624
436.0,0.0,0.0,0.0,0.0,0.0,0.0,-0.00723551819100976,0.05125093087553978,-0.010071713477373123,0.9972479939460754,-0.0005025397404097021,-0.06618721038103104,0.033435121178627014
437.0,0.0,0.0,0.0,0.0,0.0,0.0,-0.009008275344967842,0.05098060145974159,-0.004856716841459274,0.997229278087616,0.0020185706671327353,-0.06755772978067398,0.03110458143055439
438.0,0.0,0.0,0.0,0.0,0.0,0.0,-0.007474690210074186,0.05128636211156845,-0.00027294771280139685,0.9974684715270996,-0.005349950864911079,-0.06365025788545609,0.03125469386577606
439.0,0.0,0.0,0.0,0.0,0.0,0.0,-0.006338051520287991,0.045859742909669876,-0.009002177976071835,0.9974850416183472,0.0004110357549507171,-0.06508927047252655,0.028074918314814568
440.0,0.0,0.0,0.0,0.0,0.0,0.0,-0.002107666339725256,0.040292464196681976,-0.00786711648106575,0.9976271390914917,-0.00011130191705888137,-0.06296460330486298,0.027885960415005684
441.0,0.0,0.0,0.0,0.0,0.0,0.0,0.0006866802577860653,0.034972745925188065,-0.004120021127164364,0.9977831244468689,-0.0009006240870803595,-0.06086678430438042,0.02691764198243618
442.0,0.0,0.0,0.0,0.0,0.0,0.0,0.0033529174979776144,0.029590390622615814,-0.0003925636119674891,0.9979512095451355,-0.0016725045861676335,-0.058545079082250595,0.02576119266450405
443.0,0.0,0.0,0.0,0.0,0.0,0.0,0.005497205536812544,0.02955317497253418,0.006060200743377209,0.9980672001838684,-0.0021808797027915716,-0.057240262627601624,0.02413768507540226
444.0,0.0,0.0,0.0,0.0,0.0,0.0,0.012012197636067867,0.028484370559453964,0.011964261531829834,0.9981785416603088,-0.0019985323306173086,-0.05630482733249664,0.021577028557658195
445.0,0.0,0.0,0.0,0.0,0.0,0.0,0.01839587092399597,0.02740796096622944,0.018020087853074074,0.9982686042785645,-0.0016704528825357556,-0.0556931309401989,0.018850326538085938
446.0,0.0,0.0,0.0,0.0,0.0,0.0,0.02834346331655979,0.02797546237707138,0.01856895536184311,0.9983940124511719,-0.0016337966080754995,-0.05422257259488106,0.016369743272662163
447.0,0.0,0.0,0.0,0.0,0.0,0.0,0.035429950803518295,0.02339944802224636,-0.00026798134786076844,0.9985043406486511,-0.0009130360558629036,-0.05272253602743149,0.014443504624068737
448.0,0.0,0.0,0.0,0.0,0.0,0.0,0.042821940034627914,0.019025154411792755,-0.019133076071739197,0.9985730648040771,0.0007932715234346688,-0.05174689739942551,0.013203757815063
449.0,0.0,0.0,0.0,0.0,0.0,0.0,0.04568540304899216,0.019677206873893738,-0.021515952423214912,0.9985913634300232,0.002296815626323223,-0.05131814628839493,0.01328262034803629
450.0,0.0,0.0,0.0,0.0,0.0,0.0,0.04298892617225647,0.01857832819223404,-0.017008036375045776,0.9985913038253784,0.003431842662394047,-0.051163215190172195,0.013674444518983364
451.0,0.0,0.0,0.0,0.0,0.0,0.0,0.04028943181037903,0.017436647787690163,-0.01258088182657957,0.9985385537147522,0.005025056656450033,-0.05184306204319,0.0144273042678833
452.0,0.0,0.0,0.0,0.0,0.0,0.0,0.03080541454255581,0.015118039213120937,-0.0007392962579615414,0.9985367059707642,0.005875415168702602,-0.05151744559407234,0.015392718836665154
453.0,0.0,0.0,0.0,0.0,0.0,0.0,0.019406024366617203,0.01249439176172018,0.0195376668125391,0.998598039150238,0.004821442533284426,-0.05010991916060448,0.016373656690120697
454.0,0.0,0.0,0.0,0.0,0.0,0.0,0.007878747768700123,0.009908242151141167,0.03987724706530571,0.9987451434135437,0.002698452677577734,-0.04732413962483406,0.016170009970664978
455.0,0.0,0.0,0.0,0.0,0.0,0.0,-0.001068157609552145,-0.002285822993144393,0.02332918904721737,0.9989453554153442,0.0007035035523585975,-0.043599531054496765,0.014387769624590874
456.0,0.0,0.0,0.0,0.0,0.0,0.0,-0.010615239851176739,-0.001338287373073399,0.017869306728243828,0.9991388916969299,-0.002274829428642988,-0.03940453380346298,0.0128024248406291
457.0,0.0,0.0,0.0,0.0,0.0,0.0,-0.02013213373720646,-0.00037654238985851407,0.012293504551053047,0.9993143081665039,-0.005778970662504435,-0.034607674926519394,0.011839629150927067
458.0,0.0,0.0,0.0,0.0,0.0,0.0,-0.007926647551357746,0.016523074358701706,0.0767483338713646,0.9994761347770691,-0.009259968064725399,-0.028771957382559776,0.011592877097427845
459.0,0.0,0.0,0.0,0.0,0.0,0.0,-0.029262742027640343,-0.0039991941303014755,0.031837742775678635,0.999640166759491,-0.012285697273910046,-0.021229341626167297,0.01087381411343813
460.0,0.0,0.0,0.0,0.0,0.0,0.0,-0.049538008868694305,-0.024820320308208466,-0.013386022299528122,0.9997562766075134,-0.014397661201655865,-0.013854080811142921,0.009387088008224964
461.0,0.0,0.0,0.0,0.0,0.0,0.0,-0.05890252813696861,-0.03216896206140518,-0.010619965381920338,0.9998120069503784,-0.016084350645542145,-0.006868051365017891,0.008412180468440056
462.0,0.0,0.0,0.0,0.0,0.0,0.0,-0.04540381580591202,-0.03242354840040207,-0.054289862513542175,0.9998399615287781,-0.015955083072185516,-0.0008869452285580337,0.008077028207480907
463.0,0.0,0.0,0.0,0.0,0.0,0.0,-0.0312153659760952,-0.03278757631778717,-0.09773711115121841,0.9998396635055542,-0.01580982655286789,0.004727733787149191,0.006956787779927254
464.0,0.0,0.0,0.0,0.0,0.0,0.0,-0.019399134442210197,-0.0249470267444849,-0.05644823983311653,0.9998332858085632,-0.014523892663419247,0.00954344216734171,0.005602980498224497
465.0,0.0,0.0,0.0,0.0,0.0,0.0,-0.015377288684248924,-0.030434370040893555,-0.09177746623754501,0.9998352527618408,-0.011317508295178413,0.013703854754567146,0.003727436065673828
466.0,0.0,0.0,0.0,0.0,0.0,0.0,-0.0106993168592453,-0.03573980927467346,-0.12708327174186707,0.99980229139328,-0.008665150962769985,0.01780502311885357,0.0018529274966567755
467.0,0.0,0.0,0.0,0.0,0.0,0.0,0.0020479534287005663,-0.03338896855711937,-0.12147471308708191,0.9997634887695312,-0.003024239558726549,0.021511824801564217,-0.0012627782998606563
468.0,0.0,0.0,0.0,0.0,0.0,0.0,0.01366634201258421,-0.02722594328224659,-0.08871181309223175,0.9997103214263916,0.000801909132860601,0.02346068061888218,-0.005362429190427065
469.0,0.0,0.0,0.0,0.0,0.0,0.0,0.024308349937200546,-0.02121274545788765,-0.05557020381093025,0.9996188879013062,0.0032685683108866215,0.025761958211660385,-0.009380276314914227
470.0,0.0,0.0,0.0,0.0,0.0,0.0,0.018184667453169823,-0.032053276896476746,-0.08309844881296158,0.999553918838501,0.007647186517715454,0.02544526942074299,-0.013651393353939056
471.0,0.0,0.0,0.0,0.0,0.0,0.0,0.03101530112326145,-0.024302074685692787,-0.014771017245948315,0.9995768666267395,0.01200647559016943,0.022163670510053635,-0.014525159262120724
472.0,0.0,0.0,0.0,0.0,0.0,0.0,0.0415828600525856,-0.017962386831641197,0.05412144958972931,0.9995986223220825,0.016539886593818665,0.017651014029979706,-0.01476427260786295
473.0,0.0,0.0,0.0,0.0,0.0,0.0,0.06112624704837799,-0.005121144000440836,0.08697684854269028,0.9996039271354675,0.01906445436179638,0.016273047775030136,-0.012793108820915222
474.0,0.0,0.0,0.0,0.0,0.0,0.0,0.05873237922787666,-0.002796915825456381,0.07092568278312683,0.999677836894989,0.01937953755259514,0.012987782247364521,-0.010031934827566147
475.0,0.0,0.0,0.0,0.0,0.0,0.0,0.05655904859304428,-0.000311144016450271,0.05478154122829437,0.9997422099113464,0.019716961309313774,0.009087496437132359,-0.0067106131464242935
476.0,0.0,0.0,0.0,0.0,0.0,0.0,0.05725780874490738,-0.008752619847655296,0.01671743206679821,0.9998306632041931,0.01722165197134018,0.0050124479457736015,-0.004176293034106493
477.0,0.0,0.0,0.0,0.0,0.0,0.0,0.046039555221796036,-0.0051816790364682674,0.02395596168935299,0.9998791813850403,0.015380779281258583,0.0008830641163513064,-0.002128993161022663
478.0,0.0,0.0,0.0,0.0,0.0,0.0,0.03475833311676979,-0.001642833580262959,0.031188014894723892,0.9999061822891235,0.013408859260380268,-0.0028837795834988356,-0.0001956432097358629
479.0,0.0,0.0,0.0,0.0,0.0,0.0,0.02819066494703293,-0.002251068828627467,0.029593398794531822,0.9999195337295532,0.011244110763072968,-0.005636701826006174,0.001704021473415196
480.0,0.0,0.0,0.0,0.0,0.0,0.0,0.021665630862116814,-0.005627370439469814,0.021644534543156624,0.9999232292175293,0.009290541522204876,-0.007739207707345486,0.002800155198201537
481.0,0.0,0.0,0.0,0.0,0.0,0.0,0.015122608281672001,-0.009022973477840424,0.013748235069215298,0.9999188184738159,0.007377391215413809,-0.009857230819761753,0.003338888054713607
482.0,0.0,0.0,0.0,0.0,0.0,0.0,0.010428134351968765,-0.012579056434333324,-0.002112362766638398,0.9999119639396667,0.005627973936498165,-0.01155595201998949,0.003386902390047908
483.0,0.0,0.0,0.0,0.0,0.0,0.0,0.005898221395909786,-0.010615398176014423,-0.004077075980603695,0.9998965263366699,0.00330904358997941,-0.013719641603529453,0.0028842135798186064
484.0,0.0,0.0,0.0,0.0,0.0,0.0,0.0013490422861650586,-0.008651395328342915,-0.006027913652360439,0.999870777130127,0.0009859662968665361,-0.015782294794917107,0.0030189217068254948
485.0,0.0,0.0,0.0,0.0,0.0,0.0,-0.00231047417037189,-0.001393521437421441,0.0041151391342282295,0.9998330473899841,-0.0015606996603310108,-0.017918162047863007,0.003395433072000742
486.0,0.0,0.0,0.0,0.0,0.0,0.0,-0.0037279038224369287,0.005036646034568548,0.015757514163851738,0.9997889399528503,-0.0033940088469535112,-0.019996801391243935,0.0033584542106837034
487.0,0.0,0.0,0.0,0.0,0.0,0.0,-0.005024650599807501,0.01151264924556017,0.027398066595196724,0.9997365474700928,-0.004934785421937704,-0.02208436094224453,0.003864560043439269
488.0,0.0,0.0,0.0,0.0,0.0,0.0,-0.0031873059924691916,0.013206440955400467,0.02423415333032608,0.9996878504753113,-0.006098543293774128,-0.02391580492258072,0.003988589625805616
489.0,0.0,0.0,0.0,0.0,0.0,0.0,-0.002655518939718604,0.013561097905039787,0.009532410651445389,0.9996368288993835,-0.006467957049608231,-0.025991354137659073,0.003027882194146514
490.0,0.0,0.0,0.0,0.0,0.0,0.0,-0.0022541754879057407,0.01390218734741211,-0.005188372451812029,0.9995844960212708,-0.006387195084244013,-0.028053419664502144,0.0018574962159618735
491.0,0.0,0.0,0.0,0.0,0.0,0.0,-0.008448191918432713,0.013539745472371578,-0.012489919550716877,0.9995230436325073,-0.00684185978025198,-0.030073057860136032,0.0016349094221368432
492.0,0.0,0.0,0.0,0.0,0.0,0.0,-0.010048716329038143,0.01986096240580082,-0.00077221286483109,0.999481737613678,-0.007134505081921816,-0.03135332837700844,0.0016439055325463414
493.0,0.0,0.0,0.0,0.0,0.0,0.0,-0.011479626409709454,0.026178279891610146,0.010970943607389927,0.9994500279426575,-0.007633286993950605,-0.03222277760505676,0.0017865168629214168
494.0,0.0,0.0,0.0,0.0,0.0,0.0,-0.014147497713565826,0.022187599912285805,0.004542181733995676,0.9994098544120789,-0.00783419981598854,-0.03338106349110603,0.0020854678004980087
495.0,0.0,0.0,0.0,0.0,0.0,0.0,-0.010082501918077469,0.022024575620889664,0.0003139566979371011,0.99937903881073,-0.008293336257338524,-0.034205008298158646,0.0018633075524121523
496.0,0.0,0.0,0.0,0.0,0.0,0.0,-0.00605480931699276,0.02184828743338585,-0.003936483059078455,0.999346911907196,-0.008778735995292664,-0.03503280133008957,0.0013352253008633852
497.0,0.0,0.0,0.0,0.0,0.0,0.0,-0.003450448624789715,0.02008036896586418,-0.010408003814518452,0.9993119835853577,-0.009117366746068,-0.035939496010541916,0.000900138053111732
498.0,0.0,0.0,0.0,0.0,0.0,0.0,-0.002986990148201585,0.020977932959794998,-0.0054313139989972115,0.999279797077179,-0.009723171591758728,-0.03667895868420601,0.0009078319417312741
499.0,0.0,0.0,0.0,0.0,0.0,0.0,-0.002505159005522728,0.021862171590328217,-0.0004616311634890735,0.9992489814758301,-0.010155989788472652,-0.03737964853644371,0.0012394895311444998
500.0,0.0,0.0,0.0,0.0,0.0,0.0,-0.0004127304709982127,0.024199917912483215,0.009168798103928566,0.9992340207099915,-0.01085382979363203,-0.037575893104076385,0.0015283323591575027
501.0,0.0,0.0,0.0,0.0,0.0,0.0,0.003044344484806061,0.01989767514169216,0.002819413086399436,0.9992228746414185,-0.011525638401508331,-0.03766203299164772,0.0015465005999431014
502.0,0.0,0.0,0.0,0.0,0.0,0.0,0.0065281325951218605,0.015605960041284561,-0.0035243495367467403,0.9992195963859558,-0.012216879054903984,-0.037528812885284424,0.0017531017074361444
503.0,0.0,0.0,0.0,0.0,0.0,0.0,0.012387413531541824,0.01602191850543022,-0.0035816486924886703,0.9992043972015381,-0.012394027784466743,-0.037848517298698425,0.0020660257432609797
504.0,0.0,0.0,0.0,0.0,0.0,0.0,0.012719345279037952,0.015270370058715343,-0.0028614243492484093,0.9991889595985413,-0.012605557218194008,-0.038154296576976776,0.0026574470102787018
505.0,0.0,0.0,0.0,0.0,0.0,0.0,0.013049094006419182,0.01451711356639862,-0.002132304012775421,0.9991695284843445,-0.013050575740635395,-0.03845790773630142,0.0033542185556143522
506.0,0.0,0.0,0.0,0.0,0.0,0.0,0.009588719345629215,0.015843264758586884,0.012880327180027962,0.9991486072540283,-0.014093988575041294,-0.03827798739075661,0.006207216996699572
507.0,0.0,0.0,0.0,0.0,0.0,0.0,0.013474933803081512,0.017053086310625076,0.014957104809582233,0.9991559982299805,-0.013724070973694324,-0.03808724135160446,0.006969686597585678
508.0,0.0,0.0,0.0,0.0,0.0,0.0,0.017346272245049477,0.018264662474393845,0.017040027305483818,0.9991816878318787,-0.012888099066913128,-0.037572942674160004,0.007653540465980768
509.0,0.0,0.0,0.0,0.0,0.0,0.0,0.018113262951374054,0.0204971581697464,0.03407372534275055,0.9992167949676514,-0.011719144880771637,-0.036988891661167145,0.007779882755130529
510.0,0.0,0.0,0.0,0.0,0.0,0.0,0.02004230208694935,0.023591626435518265,0.044532060623168945,0.999288022518158,-0.010924037545919418,-0.035335756838321686,0.007472670637071133
511.0,0.0,0.0,0.0,0.0,0.0,0.0,0.02186014875769615,0.026723602786660194,0.05503721535205841,0.9993833899497986,-0.010648573748767376,-0.032637279480695724,0.007394073065370321
512.0,0.0,0.0,0.0,0.0,0.0,0.0,0.01206569466739893,0.022687099874019623,0.028651216998696327,0.9995427131652832,-0.010782506316900253,-0.027686329558491707,0.005651468876749277
513.0,0.0,0.0,0.0,0.0,0.0,0.0,0.015807699412107468,0.018020721152424812,0.00981126818805933,0.9996945858001709,-0.010302569717168808,-0.022064562886953354,0.00427308538928628
514.0,0.0,0.0,0.0,0.0,0.0,0.0,0.01955823041498661,0.01316264271736145,-0.009025978855788708,0.9998067021369934,-0.008894233033061028,-0.01725177839398384,0.0032249167561531067
515.0,0.0,0.0,0.0,0.0,0.0,0.0,0.008867044933140278,-0.010211342014372349,-0.06231506168842316,0.9998825788497925,-0.006696589756757021,-0.013696345500648022,0.0016386976931244135
516.0,0.0,0.0,0.0,0.0,0.0,0.0,0.0098907221108675,-0.00992501899600029,-0.05154680460691452,0.9999045133590698,-0.0048791165463626385,-0.012903254479169846,0.0010207949671894312
517.0,0.0,0.0,0.0,0.0,0.0,0.0,0.010824017226696014,-0.009557729586958885,-0.040808290243148804,0.9999069571495056,-0.0030540090519934893,-0.013264821842312813,0.0010359864681959152
518.0,0.0,0.0,0.0,0.0,0.0,0.0,0.00649783993139863,-0.0026261224411427975,-0.01600494422018528,0.9998851418495178,-0.0011161724105477333,-0.01493249461054802,0.0024615267757326365
519.0,0.0,0.0,0.0,0.0,0.0,0.0,0.00870822835713625,-0.0032739967573434114,-0.010564599186182022,0.9998536705970764,0.0009869353380054235,-0.016800407320261,0.003145022550597787
520.0,0.0,0.0,0.0,0.0,0.0,0.0,0.010951623320579529,-0.003917768597602844,-0.005139998625963926,0.9998149871826172,0.002687524538487196,-0.018743282184004784,0.0034708576276898384
521.0,0.0,0.0,0.0,0.0,0.0,0.0,0.012880714610219002,-0.0002843151451088488,-0.0061412351205945015,0.9997570514678955,0.0033030828926712275,-0.02140740677714348,0.004107028711587191
522.0,0.0,0.0,0.0,0.0,0.0,0.0,0.012424719519913197,0.003115143859758973,-0.0032843046355992556,0.999691367149353,0.004257844295352697,-0.023872658610343933,0.005432808771729469
523.0,0.0,0.0,0.0,0.0,0.0,0.0,0.012012873776257038,0.006504586897790432,-0.00039084634045138955,0.9996289014816284,0.004777044523507357,-0.025949742645025253,0.006821001414209604
524.0,0.0,0.0,0.0,0.0,0.0,0.0,0.004048276226967573,0.011228403076529503,0.01947343908250332,0.9995989799499512,0.003750390838831663,-0.02711724303662777,0.0072457026690244675
525.0,0.0,0.0,0.0,0.0,0.0,0.0,0.00154817511793226,0.011361027136445045,0.01928161270916462,0.999613881111145,0.0014725994551554322,-0.026502322405576706,0.00823519192636013
526.0,0.0,0.0,0.0,0.0,0.0,0.0,-0.0009449580102227628,0.011542908847332,0.019078444689512253,0.9996197819709778,-0.00019230834732297808,-0.025982804596424103,0.00925484299659729
527.0,0.0,0.0,0.0,0.0,0.0,0.0,0.010438619181513786,0.005081110168248415,-0.0038541655521839857,0.9996283054351807,-0.0015784509014338255,-0.025465715676546097,0.009605305269360542
528.0,0.0,0.0,0.0,0.0,0.0,0.0,0.007798464503139257,0.007023825775831938,-0.009471721947193146,0.9996402859687805,-0.0022103069350123405,-0.025268111377954483,0.00872125755995512
529.0,0.0,0.0,0.0,0.0,0.0,0.0,0.005138837266713381,0.008997279219329357,-0.015072046779096127,0.999668300151825,-0.002327490597963333,-0.024652037769556046,0.007100417744368315
530.0,0.0,0.0,0.0,0.0,0.0,0.0,0.004785775672644377,0.009794985875487328,-0.00513480743393302,0.9997056722640991,-0.004705369006842375,-0.023071512579917908,0.005863555707037449
531.0,0.0,0.0,0.0,0.0,0.0,0.0,0.001760065439157188,0.014005911536514759,-0.0011612008092924953,0.999721348285675,-0.006941977422684431,-0.02200997993350029,0.0049720038659870625
532.0,0.0,0.0,0.0,0.0,0.0,0.0,-0.0012813650537282228,0.018164295703172684,0.0028606040868908167,0.9997431635856628,-0.009276452474296093,-0.0202714204788208,0.0040872967801988125
533.0,0.0,0.0,0.0,0.0,0.0,0.0,-0.004506226629018784,0.02158907800912857,0.0056684548035264015,0.9997616410255432,-0.011469556018710136,-0.018225951120257378,0.003642749972641468
534.0,0.0,0.0,0.0,0.0,0.0,0.0,-0.00578260188922286,0.018347233533859253,-0.0023974645882844925,0.9997671246528625,-0.013360639102756977,-0.016748156398534775,0.0026473761536180973
535.0,0.0,0.0,0.0,0.0,0.0,0.0,-0.0070113083347678185,0.015207292512059212,-0.010531380772590637,0.9997730851173401,-0.014828466810286045,-0.015252365730702877,0.001138266990892589
536.0,0.0,0.0,0.0,0.0,0.0,0.0,-0.010760425589978695,0.01431602705270052,0.0004978953511454165,0.9997739195823669,-0.01572434976696968,-0.014319789595901966,4.120407174923457e-05
537.0,0.0,0.0,0.0,0.0,0.0,0.0,-0.012358836829662323,0.015920640900731087,0.005546380300074816,0.9997868537902832,-0.015911396592855453,-0.013077888637781143,-0.001488588866777718
538.0,0.0,0.0,0.0,0.0,0.0,0.0,-0.014009568840265274,0.017471574246883392,0.010586884804069996,0.9998037219047546,-0.015678515657782555,-0.011727620847523212,-0.0030750648584216833
539.0,0.0,0.0,0.0,0.0,0.0,0.0,-0.012076937593519688,0.018367616459727287,0.012002544477581978,0.9998253583908081,-0.014709383249282837,-0.01054387167096138,-0.004674730356782675
540.0,0.0,0.0,0.0,0.0,0.0,0.0,-0.009434673003852367,0.018745046108961105,-0.006969063077121973,0.9998388290405273,-0.01335202343761921,-0.009693289175629616,-0.007078081835061312
541.0,0.0,0.0,0.0,0.0,0.0,0.0,-0.006703242193907499,0.019186902791261673,-0.02591838501393795,0.999843418598175,-0.011869832873344421,-0.009624808095395565,-0.008917402476072311
542.0,0.0,0.0,0.0,0.0,0.0,0.0,-0.018749330192804337,0.030490608885884285,0.015683742240071297,0.9998558759689331,-0.01106362883001566,-0.009134583175182343,-0.009091955609619617
543.0,0.0,0.0,0.0,0.0,0.0,0.0,-0.011669653467833996,0.02730998769402504,0.0164277795702219,0.9998776912689209,-0.010039658285677433,-0.007707072421908379,-0.009203155525028706
544.0,0.0,0.0,0.0,0.0,0.0,0.0,-0.004537439905107021,0.02419251762330532,0.01713649556040764,0.9999028444290161,-0.00792539119720459,-0.007129468023777008,-0.008980521000921726
545.0,0.0,0.0,0.0,0.0,0.0,0.0,-0.003969829063862562,0.024089818820357323,0.018911471590399742,0.9999282956123352,-0.005404386669397354,-0.007823880761861801,-0.007298086304217577
546.0,0.0,0.0,0.0,0.0,0.0,0.0,-0.00029123315471224487,0.02568146400153637,0.03607157990336418,0.9999496340751648,-0.001787814893759787,-0.007830707356333733,-0.006029811222106218
547.0,0.0,0.0,0.0,0.0,0.0,0.0,0.0034945826046168804,0.02744160033762455,0.053194791078567505,0.9999614953994751,0.0015717950882390141,-0.007042809389531612,-0.005000341217964888
548.0,0.0,0.0,0.0,0.0,0.0,0.0,-0.001581442542374134,0.01690242812037468,0.015557833015918732,0.9999703168869019,0.004668600391596556,-0.004578432068228722,-0.0041082981042563915
549.0,0.0,0.0,0.0,0.0,0.0,0.0,0.0028034825809299946,0.0086373845115304,-0.01677771285176277,0.9999634623527527,0.00778359966352582,-0.0017535861115902662,-0.0031166300177574158
550.0,0.0,0.0,0.0,0.0,0.0,0.0,0.006977308541536331,0.00032354562426917255,-0.04910237714648247,0.9999385476112366,0.010721527971327305,0.0011330080451443791,-0.002687989268451929
551.0,0.0,0.0,0.0,0.0,0.0,0.0,0.006457985378801823,-0.00037511458504013717,-0.057955000549554825,0.9998903274536133,0.014198267832398415,0.003441366832703352,-0.0024584459606558084
552.0,0.0,0.0,0.0,0.0,0.0,0.0,0.01390502043068409,-0.004264981485903263,-0.06646185368299484,0.9998395442962646,0.016688449308276176,0.005517539102584124,-0.003480111015960574
553.0,0.0,0.0,0.0,0.0,0.0,0.0,0.021382300183176994,-0.007988306693732738,-0.07496081292629242,0.9997928738594055,0.01846919395029545,0.0074500152841210365,-0.0042539332062006
554.0,0.0,0.0,0.0,0.0,0.0,0.0,0.011363070458173752,-0.007175236940383911,-0.06555905938148499,0.9997599720954895,0.019605256617069244,0.00810112152248621,-0.005519939586520195
555.0,0.0,0.0,0.0,0.0,0.0,0.0,0.008353118784725666,-0.008880119770765305,-0.05919366329908371,0.9997527599334717,0.01966162770986557,0.007881429977715015,-0.006762058474123478
556.0,0.0,0.0,0.0,0.0,0.0,0.0,0.005339711904525757,-0.010530834086239338,-0.052858322858810425,0.9997557401657104,0.019089192152023315,0.007969663478434086,-0.007828778587281704
557.0,0.0,0.0,0.0,0.0,0.0,0.0,-0.0005069926264695823,-0.011674683541059494,-0.03797096759080887,0.9997764229774475,0.01811053231358528,0.006487867794930935,-0.00876425951719284
558.0,0.0,0.0,0.0,0.0,0.0,0.0,0.0073581901378929615,-0.008825104683637619,-0.018443193286657333,0.9998276829719543,0.016537100076675415,0.002901573898270726,-0.00795708503574133
559.0,0.0,0.0,0.0,0.0,0.0,0.0,0.014950691722333431,-0.005733869504183531,0.0011550416238605976,0.9998640418052673,0.014930006116628647,-0.0015120155876502395,-0.006874384358525276
560.0,0.0,0.0,0.0,0.0,0.0,0.0,0.011859958991408348,-0.0018880300922319293,0.011415611952543259,0.9998766779899597,0.013025887310504913,-0.006271005608141422,-0.006166241597384214
561.0,0.0,0.0,0.0,0.0,0.0,0.0,0.012504891492426395,0.006308489479124546,0.02126818709075451,0.999873697757721,0.01049419678747654,-0.01080862246453762,-0.005126231350004673
562.0,0.0,0.0,0.0,0.0,0.0,0.0,0.013015907257795334,0.01465875655412674,0.03107156604528427,0.9998522996902466,0.008012659847736359,-0.014869198203086853,-0.0032416898757219315
563.0,0.0,0.0,0.0,0.0,0.0,0.0,0.009972420521080494,0.023124342784285545,0.04450936242938042,0.9998282194137573,0.005137066822499037,-0.017805762588977814,-0.0008727602544240654
564.0,0.0,0.0,0.0,0.0,0.0,0.0,0.0165286622941494,0.020380627363920212,0.0294503141194582,0.9997957348823547,0.0028949480038136244,-0.019988350570201874,0.000918978126719594
565.0,0.0,0.0,0.0,0.0,0.0,0.0,0.023135272786021233,0.017582345753908157,0.014486956410109997,0.9997584223747253,0.00034848868381232023,-0.021912459284067154,0.0018114423146471381
566.0,0.0,0.0,0.0,0.0,0.0,0.0,0.021034521982073784,0.019680924713611603,0.017082950100302696,0.9997105598449707,-0.0028083499055355787,-0.023617032915353775,0.003705015406012535
567.0,0.0,0.0,0.0,0.0,0.0,0.0,0.015257144346833229,0.018877537921071053,0.015220781788229942,0.9996417164802551,-0.005953768268227577,-0.025524279102683067,0.005457357037812471
568.0,0.0,0.0,0.0,0.0,0.0,0.0,0.009469589218497276,0.018155163154006004,0.013309260830283165,0.9995514154434204,-0.008078241720795631,-0.02811349183320999,0.006487434729933739
569.0,0.0,0.0,0.0,0.0,0.0,0.0,0.0046076723374426365,0.015094712376594543,-0.01464509591460228,0.9994814991950989,-0.00976596400141716,-0.03019491583108902,0.005456944461911917
570.0,0.0,0.0,0.0,0.0,0.0,0.0,-0.001182060339488089,0.017908018082380295,-0.002223760122433305,0.9993600845336914,-0.013504006899893284,-0.032706163823604584,0.005257127340883017
571.0,0.0,0.0,0.0,0.0,0.0,0.0,-0.00692463805899024,0.02086583338677883,0.010172114707529545,0.9991698265075684,-0.01673598773777485,-0.03655722364783287,0.006652329582720995
572.0,0.0,0.0,0.0,0.0,0.0,0.0,-0.01670839637517929,0.02834993414580822,0.026469027623534203,0.999014139175415,-0.01839146949350834,-0.03972938656806946,0.0074012745171785355
573.0,0.0,0.0,0.0,0.0,0.0,0.0,-0.017998825758695602,0.02867084927856922,0.028107380494475365,0.9988695979118347,-0.019594790413975716,-0.04240880534052849,0.008798939175903797
574.0,0.0,0.0,0.0,0.0,0.0,0.0,-0.019312623888254166,0.0290068369358778,0.029757428914308548,0.9987210631370544,-0.021119898185133934,-0.04483315348625183,0.010018263943493366
575.0,0.0,0.0,0.0,0.0,0.0,0.0,-0.021289261057972908,0.029677249491214752,0.034389182925224304,0.9986233711242676,-0.02308286912739277,-0.04612741991877556,0.009544295258820057
576.0,0.0,0.0,0.0,0.0,0.0,0.0,-0.02041051723062992,0.03155352920293808,0.03473832458257675,0.9985717535018921,-0.02458023652434349,-0.046600937843322754,0.008881681598722935
577.0,0.0,0.0,0.0,0.0,0.0,0.0,-0.019540954381227493,0.03338233008980751,0.0351102314889431,0.9985227584838867,-0.02673443965613842,-0.04657711461186409,0.00827273540198803
578.0,0.0,0.0,0.0,0.0,0.0,0.0,-0.01769525185227394,0.03629033640027046,0.03198467940092087,0.9984824061393738,-0.02880905009806156,-0.046305593103170395,0.007702059578150511
579.0,0.0,0.0,0.0,0.0,0.0,0.0,-0.014539285562932491,0.032744549214839935,0.022023500874638557,0.9984803795814514,-0.030000945553183556,-0.045625023543834686,0.007469474337995052
580.0,0.0,0.0,0.0,0.0,0.0,0.0,-0.011427801102399826,0.02923583798110485,0.012038108892738819,0.9984879493713379,-0.03139324113726616,-0.04456089437007904,0.007184785325080156
581.0,0.0,0.0,0.0,0.0,0.0,0.0,-0.0160274188965559,0.02515334263443947,-0.004876589402556419,0.9984970092773438,-0.03245475888252258,-0.04370424896478653,0.006355298683047295
582.0,0.0,0.0,0.0,0.0,0.0,0.0,-0.012504469603300095,0.02228144370019436,-0.014298655092716217,0.9985296726226807,-0.032546985894441605,-0.043039221316576004,0.005210589151829481
583.0,0.0,0.0,0.0,0.0,0.0,0.0,-0.008962742052972317,0.01942855305969715,-0.02374778501689434,0.9985756278038025,-0.032262373715639114,-0.042268767952919006,0.004435432609170675
584.0,0.0,0.0,0.0,0.0,0.0,0.0,-0.011660756543278694,0.01776420697569847,-0.005839684046804905,0.9985899925231934,-0.03256475552916527,-0.041672494262456894,0.004579668398946524
585.0,0.0,0.0,0.0,0.0,0.0,0.0,-0.008235587738454342,0.016994616016745567,-0.004326557740569115,0.9986205697059631,-0.03261185437440872,-0.04091570898890495,0.004422150552272797
586.0,0.0,0.0,0.0,0.0,0.0,0.0,-0.004833846352994442,0.0161968395113945,-0.0028180296067148447,0.998670756816864,-0.03230879455804825,-0.03998810797929764,0.003750475123524666
587.0,0.0,0.0,0.0,0.0,0.0,0.0,-0.0011350916465744376,0.016794826835393906,0.0071398173458874226,0.9987516403198242,-0.03098689392209053,-0.03901604562997818,0.0036086812615394592
588.0,0.0,0.0,0.0,0.0,0.0,0.0,0.0016237772069871426,0.01748369075357914,0.010388603433966637,0.9988098740577698,-0.029680639505386353,-0.03851922228932381,0.003792364848777652
589.0,0.0,0.0,0.0,0.0,0.0,0.0,0.004383037332445383,0.018174970522522926,0.013626357540488243,0.998881459236145,-0.027931498363614082,-0.037935834378004074,0.004092774819582701
590.0,0.0,0.0,0.0,0.0,0.0,0.0,0.008266124874353409,0.02375728450715542,0.035732921212911606,0.998979389667511,-0.02602466009557247,-0.036723293364048004,0.003810473484918475
591.0,0.0,0.0,0.0,0.0,0.0,0.0,0.0031635703053325415,0.018628090620040894,0.023315824568271637,0.9991343021392822,-0.023923702538013458,-0.033965423703193665,0.002224554307758808
592.0,0.0,0.0,0.0,0.0,0.0,0.0,-0.0019389295484870672,0.013496235013008118,0.010912436991930008,0.9992889165878296,-0.02242751605808735,-0.03030896559357643,0.0007223552674986422
593.0,0.0,0.0,0.0,0.0,0.0,0.0,0.0035163830034434795,0.01612691767513752,0.013012917712330818,0.9994205832481384,-0.021819433197379112,-0.026125235483050346,-0.00045233339187689126
594.0,0.0,0.0,0.0,0.0,0.0,0.0,0.0009836279787123203,0.011664355173707008,0.0017911734757944942,0.9995181560516357,-0.02154669165611267,-0.022311588749289513,-0.0012585021322593093
595.0,0.0,0.0,0.0,0.0,0.0,0.0,-0.0015471538063138723,0.007212041411548853,-0.009438224136829376,0.9995965361595154,-0.020677465945482254,-0.01942872442305088,-0.001430834410712123
596.0,0.0,0.0,0.0,0.0,0.0,0.0,-0.0059686764143407345,0.009056772105395794,0.0037596046458929777,0.9996764063835144,-0.019046606495976448,-0.016816549003124237,-0.0014043846167623997
597.0,0.0,0.0,0.0,0.0,0.0,0.0,-0.00582937290892005,0.00857008807361126,-0.004203262738883495,0.9997599124908447,-0.016777366399765015,-0.013936101458966732,-0.0021479842253029346
598.0,0.0,0.0,0.0,0.0,0.0,0.0,-0.005777514539659023,0.008117595687508583,-0.01215034443885088,0.9998254776000977,-0.014490322209894657,-0.011347371153533459,-0.003267605323344469
599.0,0.0,0.0,0.0,0.0,0.0,0.0,0.0023156532552093267,0.009205701760947704,-0.03556700050830841,0.9998831748962402,-0.011087766848504543,-0.009764418005943298,-0.003974254243075848
600.0,0.0,0.0,0.0,0.0,0.0,0.0,0.0010614562779664993,0.010524407960474491,-0.037821296602487564,0.9999238848686218,-0.008059808053076267,-0.008583868853747845,-0.003752012038603425
601.0,0.0,0.0,0.0,0.0,0.0,0.0,-0.00017731613479554653,0.011902409605681896,-0.04003153741359711,0.9999555945396423,-0.005233739037066698,-0.0071274577639997005,-0.0033050496131181717
602.0,0.0,0.0,0.0,0.0,0.0,0.0,0.0103586595505476,0.016141701489686966,-0.02112007699906826,0.9999682903289795,-0.003855232847854495,-0.006714647635817528,-0.00185396836604923
603.0,0.0,0.0,0.0,0.0,0.0,0.0,0.0004457854083739221,0.006994802039116621,-0.018371477723121643,0.9999774098396301,-0.003305624006316066,-0.005836769938468933,-0.0005896128714084625
604.0,0.0,0.0,0.0,0.0,0.0,0.0,-0.009492968209087849,-0.0021800375543534756,-0.01576271466910839,0.9999854564666748,-0.00245428248308599,-0.004804704803973436,-0.00032161761191673577
605.0,0.0,0.0,0.0,0.0,0.0,0.0,0.011724524199962616,-0.010995534248650074,-0.05826476961374283,0.9999887943267822,-0.0020372283179312944,-0.0043098824098706245,-0.0001253546797670424
606.0,0.0,0.0,0.0,0.0,0.0,0.0,0.00769041059538722,-0.009637631475925446,-0.029909830540418625,0.9999878406524658,-0.002041721483692527,-0.004509922116994858,0.00023557413078378886
607.0,0.0,0.0,0.0,0.0,0.0,0.0,0.003395057050511241,-0.008583573624491692,-0.0015623833751305938,0.9999866485595703,-0.0012793145142495632,-0.004979041405022144,-0.00030783063266426325
608.0,0.0,0.0,0.0,0.0,0.0,0.0,0.010232845321297646,-0.011522840708494186,-0.02111358940601349,0.9999849200248718,-0.0015079929726198316,-0.005188102833926678,-0.001058971625752747
609.0,0.0,0.0,0.0,0.0,0.0,0.0,0.014168664813041687,-0.010934615507721901,-0.013252880424261093,0.9999747276306152,-0.0024620869662612677,-0.0066786110401153564,-0.00036956428084522486
610.0,0.0,0.0,0.0,0.0,0.0,0.0,0.018024813383817673,-0.010340705513954163,-0.005371983628720045,0.9999574422836304,-0.0031346881296485662,-0.00862564705312252,0.0009917881106957793
611.0,0.0,0.0,0.0,0.0,0.0,0.0,0.010503103025257587,-0.00590908620506525,0.01673644781112671,0.9999434947967529,-0.004421009216457605,-0.009528806433081627,0.0017187101766467094
612.0,0.0,0.0,0.0,0.0,0.0,0.0,0.014552869834005833,-0.00470806984230876,0.012288504280149937,0.9999329447746277,-0.0052345506846904755,-0.010028824210166931,0.002521357499063015
613.0,0.0,0.0,0.0,0.0,0.0,0.0,0.01861804537475109,-0.0034893774427473545,0.007851946167647839,0.9999202489852905,-0.005509179085493088,-0.010750251822173595,0.00370454671792686
614.0,0.0,0.0,0.0,0.0,0.0,0.0,0.019627464935183525,-0.0042446209117770195,0.005335064139217138,0.99990314245224,-0.006342694163322449,-0.011398307047784328,0.004868051037192345
615.0,0.0,0.0,0.0,0.0,0.0,0.0,0.017797643318772316,-0.002194767352193594,0.006806901656091213,0.9998929500579834,-0.00722969975322485,-0.011736379936337471,0.004927965812385082
616.0,0.0,0.0,0.0,0.0,0.0,0.0,0.01597418449819088,-0.00010881530761253089,0.008252903819084167,0.9998800754547119,-0.007918930612504482,-0.012565075419843197,0.0044008647091686726
617.0,0.0,0.0,0.0,0.0,0.0,0.0,0.008454433642327785,-0.0001158305021817796,-0.0030231005512177944,0.9998779892921448,-0.008506524376571178,-0.012956133112311363,0.0019090607529506087
618.0,0.0,0.0,0.0,0.0,0.0,0.0,3.444906178629026e-05,0.00132879544980824,-0.01436731405556202,0.9998564124107361,-0.009620489552617073,-0.013938539661467075,-0.0006549718091264367
619.0,0.0,0.0,0.0,0.0,0.0,0.0,-0.008545815013349056,0.002487666206434369,-0.025624634698033333,0.9998199343681335,-0.010479765012860298,-0.015721222385764122,-0.0019358161371201277
620.0,0.0,0.0,0.0,0.0,0.0,0.0,-0.02489772066473961,0.011145992204546928,-0.00720550213009119,0.9997824430465698,-0.011224041692912579,-0.01732548512518406,-0.0030475903768092394
621.0,0.0,0.0,0.0,0.0,0.0,0.0,-0.026877814903855324,0.015135683119297028,-0.002302050357684493,0.9997397661209106,-0.011072897352278233,-0.01964445225894451,-0.0034559706691652536
622.0,0.0,0.0,0.0,0.0,0.0,0.0,-0.02879086323082447,0.019275229424238205,0.0025399266742169857,0.9996906518936157,-0.009947008453309536,-0.022476859390735626,-0.0038056024350225925
623.0,0.0,0.0,0.0,0.0,0.0,0.0,-0.02556518092751503,0.02927052043378353,0.023681027814745903,0.9996396899223328,-0.008272482082247734,-0.02540111169219017,-0.0027037232648581266
624.0,0.0,0.0,0.0,0.0,0.0,0.0,-0.022843224927783012,0.030542053282260895,0.023746958002448082,0.9996103048324585,-0.006707096938043833,-0.027100995182991028,-0.0007250427734106779
625.0,0.0,0.0,0.0,0.0,0.0,0.0,-0.020127739757299423,0.03179986774921417,0.023797407746315002,0.9995883703231812,-0.006423527374863625,-0.027930650860071182,0.0016603786498308182
626.0,0.0,0.0,0.0,0.0,0.0,0.0,-0.014249496161937714,0.034350454807281494,0.029496878385543823,0.9995923638343811,-0.0059524900279939175,-0.02775530330836773,0.0031983337830752134
627.0,0.0,0.0,0.0,0.0,0.0,0.0,-0.011434940621256828,0.027547141537070274,0.006879971828311682,0.9996079802513123,-0.005142060108482838,-0.027346059679985046,0.003274927381426096
628.0,0.0,0.0,0.0,0.0,0.0,0.0,-0.008743924088776112,0.02069484069943428,-0.015733016654849052,0.9996342062950134,-0.004585793241858482,-0.02645077556371689,0.003322922857478261
629.0,0.0,0.0,0.0,0.0,0.0,0.0,-0.013570376671850681,0.026786526665091515,0.0029896325431764126,0.9996585845947266,-0.004285719711333513,-0.025500863790512085,0.0037806136533617973
630.0,0.0,0.0,0.0,0.0,0.0,0.0,-0.01756097748875618,0.02235422097146511,-0.010164626874029636,0.9996871948242188,-0.005768661852926016,-0.024124622344970703,0.0032967349980026484
631.0,0.0,0.0,0.0,0.0,0.0,0.0,-0.02144664339721203,0.01800648495554924,-0.02336844429373741,0.9997079968452454,-0.0070296404883265495,-0.022881200537085533,0.003525366773828864
632.0,0.0,0.0,0.0,0.0,0.0,0.0,-0.019096333533525467,0.02538674883544445,-0.007626499980688095,0.9997199773788452,-0.008103420026600361,-0.02193279005587101,0.003688247874379158
633.0,0.0,0.0,0.0,0.0,0.0,0.0,-0.01524705346673727,0.026647072285413742,0.00036148930666968226,0.9997317790985107,-0.009654677473008633,-0.020660197362303734,0.00416890112683177
634.0,0.0,0.0,0.0,0.0,0.0,0.0,-0.01144926343113184,0.027957063168287277,0.008385353721678257,0.9997397661209106,-0.01108278427273035,-0.019073504954576492,0.0058883498422801495
635.0,0.0,0.0,0.0,0.0,0.0,0.0,-0.011553569696843624,0.027263619005680084,0.005032213404774666,0.9997307658195496,-0.013524646870791912,-0.017151424661278725,0.00786969531327486
636.0,0.0,0.0,0.0,0.0,0.0,0.0,-0.00727622676640749,0.025272084400057793,0.0009378096438013017,0.999713122844696,-0.015949523076415062,-0.01490634586662054,0.009876073338091373
637.0,0.0,0.0,0.0,0.0,0.0,0.0,-0.0029023969545960426,0.023342404514551163,-0.0030756457708775997,0.9996830821037292,-0.01836998201906681,-0.012579334899783134,0.011765454895794392
638.0,0.0,0.0,0.0,0.0,0.0,0.0,-0.0016441409243270755,0.02103152498602867,-0.013152108527719975,0.9996380805969238,-0.02063354291021824,-0.010359467938542366,0.013811752200126648
639.0,0.0,0.0,0.0,0.0,0.0,0.0,-0.0047069936990737915,0.01858525350689888,-0.018250327557325363,0.9996033906936646,-0.021767323836684227,-0.008332139812409878,0.015803847461938858
640.0,0.0,0.0,0.0,0.0,0.0,0.0,-0.007645834237337112,0.01611722819507122,-0.023425329476594925,0.9995724558830261,-0.022605787962675095,-0.0060370746068656445,0.017544852569699287
641.0,0.0,0.0,0.0,0.0,0.0,0.0,-0.008602205663919449,0.01511367503553629,-0.02877708710730076,0.9995414018630981,-0.023433929309248924,-0.004054252989590168,0.018746884539723396
642.0,0.0,0.0,0.0,0.0,0.0,0.0,-0.009342699311673641,0.016878660768270493,-0.022439558058977127,0.9994921684265137,-0.023706618696451187,-0.002286908682435751,0.02117913030087948
643.0,0.0,0.0,0.0,0.0,0.0,0.0,-0.01023022085428238,0.018676457926630974,-0.016164181753993034,0.9994428753852844,-0.023260364308953285,-0.00048363200039602816,0.023943521082401276
644.0,0.0,0.0,0.0,0.0,0.0,0.0,-0.009028936736285686,0.02246539108455181,-0.0024589651729911566,0.9993962049484253,-0.022279275581240654,0.0009396293899044394,0.02665165439248085
645.0,0.0,0.0,0.0,0.0,0.0,0.0,-0.005564513616263866,0.021428406238555908,0.005444263573735952,0.999366819858551,-0.020540550351142883,0.00247138156555593,0.028949454426765442
646.0,0.0,0.0,0.0,0.0,0.0,0.0,-0.0022684046998620033,0.02058514952659607,0.013395980931818485,0.9993550181388855,-0.018320998176932335,0.0037245291750878096,0.030681204050779343
647.0,0.0,0.0,0.0,0.0,0.0,0.0,0.008627635426819324,0.02485239878296852,0.027238253504037857,0.9993589520454407,-0.01573125272989273,0.004545168485492468,0.03184384107589722
648.0,0.0,0.0,0.0,0.0,0.0,0.0,0.015271270647644997,0.023231586441397667,0.03377840667963028,0.9993749856948853,-0.01370353251695633,0.005728065501898527,0.03209783881902695
649.0,0.0,0.0,0.0,0.0,0.0,0.0,0.021909506991505623,0.021785713732242584,0.04041969031095505,0.9993699193000793,-0.012010864913463593,0.006108768284320831,0.03285534307360649
650.0,0.0,0.0,0.0,0.0,0.0,0.0,0.03823374956846237,0.020082147791981697,0.032579757273197174,0.9993972778320312,-0.008746160194277763,0.005954437889158726,0.0330674834549427
651.0,0.0,0.0,0.0,0.0,0.0,0.0,0.03834618628025055,0.015091991052031517,0.02500760927796364,0.9994387626647949,-0.0065363687463104725,0.005741545464843512,0.03238019347190857
652.0,0.0,0.0,0.0,0.0,0.0,0.0,0.03861938789486885,0.010025843977928162,0.01743777096271515,0.9994685053825378,-0.00467634154483676,0.004885988309979439,0.03192934766411781
653.0,0.0,0.0,0.0,0.0,0.0,0.0,0.02903757430613041,0.0015948695363476872,0.011559289880096912,0.9995101094245911,-0.003773563774302602,0.004235937260091305,0.030796131119132042
654.0,0.0,0.0,0.0,0.0,0.0,0.0,0.022474348545074463,-0.0007687818724662066,0.012683328241109848,0.9995324015617371,-0.003756660735234618,0.0037576889153569937,0.03013777732849121
655.0,0.0,0.0,0.0,0.0,0.0,0.0,0.015919681638479233,-0.003125102026388049,0.01377825066447258,0.9995598196983337,-0.003609196748584509,0.002894786186516285,0.02931004948914051
656.0,0.0,0.0,0.0,0.0,0.0,0.0,0.01080876961350441,-0.004484014119952917,0.012260692194104195,0.9996045231819153,-0.0033518148120492697,0.0019391885725781322,0.027861781418323517
657.0,0.0,0.0,0.0,0.0,0.0,0.0,0.010038205422461033,-0.0057510267943143845,0.0070652589201927185,0.9996312856674194,-0.0033500108402222395,0.0012340671382844448,0.02692488208413124
658.0,0.0,0.0,0.0,0.0,0.0,0.0,0.009271995164453983,-0.007042814511805773,0.0018684172537177801,0.99965900182724,-0.0038636696990579367,0.0005302601493895054,0.025853339582681656
659.0,0.0,0.0,0.0,0.0,0.0,0.0,0.00893363170325756,-0.00919474009424448,-0.007526621222496033,0.999692440032959,-0.004129983019083738,-0.0009682576637715101,0.024465108290314674
660.0,0.0,0.0,0.0,0.0,0.0,0.0,0.004401011858135462,-0.00946798361837864,-0.004948583897203207,0.9997235536575317,-0.003909258171916008,-0.0026902775280177593,0.02305208519101143
661.0,0.0,0.0,0.0,0.0,0.0,0.0,-0.00013673350622411817,-0.00970098003745079,-0.0023607092443853617,0.9997459053993225,-0.003684110939502716,-0.004262287635356188,0.02185274288058281
662.0,0.0,0.0,0.0,0.0,0.0,0.0,-0.003962444607168436,-0.0066826920956373215,-0.0001555057824589312,0.9997655153274536,-0.0033450040500611067,-0.0051962523721158504,0.02076825499534607
663.0,0.0,0.0,0.0,0.0,0.0,0.0,-0.005460499785840511,-9.337609662907198e-05,0.011650176718831062,0.9997749924659729,-0.0037630375009030104,-0.005565654020756483,0.02015512064099312
664.0,0.0,0.0,0.0,0.0,0.0,0.0,-0.00691347848623991,0.006519216578453779,0.023442409932613373,0.9997603297233582,-0.004849319811910391,-0.0054507628083229065,0.02064778096973896
665.0,0.0,0.0,0.0,0.0,0.0,0.0,-0.010757019743323326,0.013182970695197582,0.04444953799247742,0.9997485280036926,-0.005845716223120689,-0.004520681221038103,0.021180467680096626
666.0,0.0,0.0,0.0,0.0,0.0,0.0,-0.009072355926036835,0.02482549473643303,0.06512120366096497,0.9997586607933044,-0.006984662730246782,-0.0030937730334699154,0.02060973085463047
667.0,0.0,0.0,0.0,0.0,0.0,0.0,-0.0071618277579545975,0.03665949031710625,0.08566520363092422,0.99976646900177,-0.008395782671868801,-0.0013661689590662718,0.019912244752049446
668.0,0.0,0.0,0.0,0.0,0.0,0.0,-0.028874598443508148,0.05572685971856117,0.1345157027244568,0.9997696876525879,-0.011536512523889542,0.004579128697514534,0.017536994069814682
669.0,0.0,0.0,0.0,0.0,0.0,0.0,-0.012281925417482853,0.04948776215314865,0.11081507056951523,0.9996997117996216,-0.013755214400589466,0.0149873998016119,0.013656956143677235
670.0,0.0,0.0,0.0,0.0,0.0,0.0,0.0037349737249314785,0.0433642715215683,0.08684154599905014,0.9994843602180481,-0.016378313302993774,0.02568061277270317,0.010204337537288666
671.0,0.0,0.0,0.0,0.0,0.0,0.0,0.04652932286262512,0.02794945426285267,0.024978797882795334,0.999198853969574,-0.017850853502750397,0.03495736047625542,0.007885564118623734
672.0,0.0,0.0,0.0,0.0,0.0,0.0,0.036099016666412354,0.02223738096654415,0.014327459037303925,0.9989902973175049,-0.017516296356916428,0.040950529277324677,0.005908363964408636
673.0,0.0,0.0,0.0,0.0,0.0,0.0,0.025342728942632675,0.017296191304922104,0.003738133003935218,0.9988077282905579,-0.016964808106422424,0.04552920162677765,0.004770258907228708
674.0,0.0,0.0,0.0,0.0,0.0,0.0,0.01193492952734232,0.013476476073265076,-0.022206511348485947,0.9986558556556702,-0.017161384224891663,0.04883614182472229,0.002814130624756217
675.0,0.0,0.0,0.0,0.0,0.0,0.0,0.0051697432063519955,0.006343763321638107,-0.06293590366840363,0.9985985159873962,-0.01610703580081463,0.05040590465068817,0.0010938986670225859
676.0,0.0,0.0,0.0,0.0,0.0,0.0,-0.002862635301426053,0.0005299234762787819,-0.1036476343870163,0.9985498189926147,-0.014911159873008728,0.05172247439622879,-0.0012636443134397268
677.0,0.0,0.0,0.0,0.0,0.0,0.0,-0.004746915306895971,0.01235397532582283,-0.06887798011302948,0.9986531734466553,-0.011921617202460766,0.05041077733039856,-0.0029553240165114403
678.0,0.0,0.0,0.0,0.0,0.0,0.0,-0.011186513118445873,0.017675917595624924,-0.0404910109937191,0.9988026022911072,-0.009774161502718925,0.04777359217405319,-0.003927870653569698
679.0,0.0,0.0,0.0,0.0,0.0,0.0,-0.017125442624092102,0.02254597283899784,-0.011917720548808575,0.9989365935325623,-0.007737199310213327,0.045150794088840485,-0.005259317345917225
680.0,0.0,0.0,0.0,0.0,0.0,0.0,-0.013165383599698544,0.020255722105503082,-0.026720300316810608,0.9990589618682861,-0.006048023700714111,0.04257546737790108,-0.005674561019986868
681.0,0.0,0.0,0.0,0.0,0.0,0.0,-0.009935853071510792,0.01815604977309704,-0.02207307144999504,0.9991428256034851,-0.005244254134595394,0.04060898721218109,-0.006100775208324194
682.0,0.0,0.0,0.0,0.0,0.0,0.0,-0.006691681686788797,0.01593252643942833,-0.017503097653388977,0.9992201328277588,-0.004038042388856411,0.03872458264231682,-0.006611680146306753
683.0,0.0,0.0,0.0,0.0,0.0,0.0,0.004553175996989012,0.015455828979611397,-0.01197021920233965,0.9993194937705994,-0.003430382115766406,0.03612092509865761,-0.006657988298684359
684.0,0.0,0.0,0.0,0.0,0.0,0.0,0.0073246764950454235,0.01226523332297802,-0.021396715193986893,0.9993870854377747,-0.00191680493298918,0.03415290638804436,-0.007459084503352642
685.0,0.0,0.0,0.0,0.0,0.0,0.0,0.010009181685745716,0.00908871740102768,-0.030871236696839333,0.9994394779205322,-0.00014420007937587798,0.03252331167459488,-0.007941924966871738
686.0,0.0,0.0,0.0,0.0,0.0,0.0,0.012974433600902557,0.010175063274800777,-0.019566522911190987,0.9995014667510986,0.000745115103200078,0.030359135940670967,-0.00865374319255352
687.0,0.0,0.0,0.0,0.0,0.0,0.0,0.014862960204482079,0.006118325982242823,-0.02211565151810646,0.9995453953742981,0.0019793466199189425,0.028310948982834816,-0.010181169956922531
688.0,0.0,0.0,0.0,0.0,0.0,0.0,0.016681097447872162,0.0019949215929955244,-0.024697162210941315,0.9995924234390259,0.004056401085108519,0.025835243985056877,-0.011461323127150536
689.0,0.0,0.0,0.0,0.0,0.0,0.0,0.016813885420560837,0.004036527127027512,-0.02449965663254261,0.9996569752693176,0.006167929153889418,0.02249845862388611,-0.011915460228919983
690.0,0.0,0.0,0.0,0.0,0.0,0.0,0.015543057583272457,0.004033221397548914,-0.015118739567697048,0.999730110168457,0.007656799629330635,0.01841987855732441,-0.011914903298020363
691.0,0.0,0.0,0.0,0.0,0.0,0.0,0.014348022639751434,0.004094370640814304,-0.005713183898478746,0.9997873306274414,0.008726038038730621,0.014832441695034504,-0.011384266428649426
692.0,0.0,0.0,0.0,0.0,0.0,0.0,0.017859788611531258,0.007932937704026699,0.006366122048348188,0.9998286962509155,0.009044172242283821,0.011876674368977547,-0.010960733518004417
693.0,0.0,0.0,0.0,0.0,0.0,0.0,-0.0020631696097552776,0.006348456721752882,0.02201375737786293,0.9998435378074646,0.007621523924171925,0.011966140009462833,-0.010569687001407146
694.0,0.0,0.0,0.0,0.0,0.0,0.0,-0.022065090015530586,0.00485373567789793,0.03765679523348808,0.9998307824134827,0.0054097529500722885,0.013239935971796513,-0.011589465662837029
695.0,0.0,0.0,0.0,0.0,0.0,0.0,0.0183627400547266,-0.0008133325027301908,-0.026597533375024796,0.9998006820678711,0.004412876907736063,0.014630584046244621,-0.012862988747656345
696.0,0.0,0.0,0.0,0.0,0.0,0.0,0.008030169643461704,0.006544423755258322,-0.01728733256459236,0.9997917413711548,0.0031817262060940266,0.0147745031863451,-0.013721267692744732
697.0,0.0,0.0,0.0,0.0,0.0,0.0,-0.0023650473449379206,0.013805841095745564,-0.007952741347253323,0.9997736215591431,0.00264908978715539,0.014140219427645206,-0.015674127265810966
698.0,0.0,0.0,0.0,0.0,0.0,0.0,0.001860917778685689,0.012277824804186821,-0.034653615206480026,0.9997519254684448,0.0007967319688759744,0.01385531947016716,-0.017427530139684677
699.0,0.0,0.0,0.0,0.0,0.0,0.0,0.0028384921606630087,0.012836938723921776,-0.023056793957948685,0.999734103679657,-0.0021273924503475428,0.013540761545300484,-0.018548185005784035
700.0,0.0,0.0,0.0,0.0,0.0,0.0,0.003644460579380393,0.013229402713477612,-0.011438447050750256,0.9997134804725647,-0.004988897126168013,0.01275856513530016,-0.019632767885923386
701.0,0.0,0.0,0.0,0.0,0.0,0.0,0.0027980701997876167,0.014192878268659115,0.002683111699298024,0.9996870756149292,-0.008336441591382027,0.011664636433124542,-0.020497379824519157
702.0,0.0,0.0,0.0,0.0,0.0,0.0,-0.0018623776268213987,0.010741112753748894,0.020364396274089813,0.9996597766876221,-0.012255857698619366,0.01033918745815754,-0.020573152229189873
703.0,0.0,0.0,0.0,0.0,0.0,0.0,-0.006824535317718983,0.006961890030652285,0.037923675030469894,0.9995958209037781,-0.016385287046432495,0.00895039550960064,-0.021437838673591614
704.0,0.0,0.0,0.0,0.0,0.0,0.0,-0.00723298778757453,0.0019784613978117704,0.015049817971885204,0.9995105862617493,-0.01897210069000721,0.007953434251248837,-0.023569034412503242
705.0,0.0,0.0,0.0,0.0,0.0,0.0,-0.0067916265688836575,0.006163551937788725,0.0114079425111413,0.9994140267372131,-0.021081456914544106,0.006268146447837353,-0.026227004826068878
706.0,0.0,0.0,0.0,0.0,0.0,0.0,-0.006315923295915127,0.010433695279061794,0.007879778742790222,0.9993023872375488,-0.02317131496965885,0.0043669105507433414,-0.028962548822164536
707.0,0.0,0.0,0.0,0.0,0.0,0.0,-0.0072502996772527695,0.013774505816400051,-0.0012182017089799047,0.9991890788078308,-0.02413943223655224,0.002144056838005781,-0.032155852764844894
708.0,0.0,0.0,0.0,0.0,0.0,0.0,-0.010806452482938766,0.016975099220871925,-0.014717009849846363,0.9990658760070801,-0.024426095187664032,0.0001317209971603006,-0.03564845025539398
709.0,0.0,0.0,0.0,0.0,0.0,0.0,-0.014276030473411083,0.0203538965433836,-0.02818557620048523,0.9989877343177795,-0.024300694465637207,-0.002373825293034315,-0.037780869752168655
710.0,0.0,0.0,0.0,0.0,0.0,0.0,-0.022446952760219574,0.027143288403749466,-0.007240057922899723,0.9989092350006104,-0.0242729764431715,-0.004712371621280909,-0.03961225971579552
711.0,0.0,0.0,0.0,0.0,0.0,0.0,-0.01881483383476734,0.023834923282265663,-0.008979998528957367,0.9988723397254944,-0.023291517049074173,-0.0074716913513839245,-0.04069163277745247
712.0,0.0,0.0,0.0,0.0,0.0,0.0,-0.015142207965254784,0.02055220492184162,-0.010757938027381897,0.9989038109779358,-0.021141931414604187,-0.01105356216430664,-0.040275488048791885
713.0,0.0,0.0,0.0,0.0,0.0,0.0,-0.024943757802248,0.025825712829828262,0.014028582721948624,0.998890221118927,-0.02014702931046486,-0.014066766947507858,-0.040181372314691544
714.0,0.0,0.0,0.0,0.0,0.0,0.0,-0.02008742466568947,0.02049988880753517,0.008761750534176826,0.9988603591918945,-0.02026418410241604,-0.015075675211846828,-0.040497977286577225
715.0,0.0,0.0,0.0,0.0,0.0,0.0,-0.01525664608925581,0.015163849107921124,0.003486502217128873,0.9988467693328857,-0.020875856280326843,-0.015752695500850677,-0.04026514291763306
716.0,0.0,0.0,0.0,0.0,0.0,0.0,-0.017053626477718353,0.010265340097248554,-0.0056486488319933414,0.9988328218460083,-0.02005736343562603,-0.016341395676136017,-0.04078894481062889
717.0,0.0,0.0,0.0,0.0,0.0,0.0,-0.015310005284845829,0.009818321093916893,-0.00529266893863678,0.9988399147987366,-0.01962587982416153,-0.01762363314628601,-0.04028718173503876
718.0,0.0,0.0,0.0,0.0,0.0,0.0,-0.013565662316977978,0.009377219714224339,-0.004936865530908108,0.9988383054733276,-0.019532542675733566,-0.018513260409235954,-0.039973944425582886
719.0,0.0,0.0,0.0,0.0,0.0,0.0,-0.017088770866394043,0.009274372830986977,-0.021038830280303955,0.9988278150558472,-0.019688904285430908,-0.018657566979527473,-0.04009120538830757
720.0,0.0,0.0,0.0,0.0,0.0,0.0,-0.01372944563627243,0.006906741298735142,-0.041845954954624176,0.9987730383872986,-0.021087024360895157,-0.018974537029862404,-0.040591754019260406
721.0,0.0,0.0,0.0,0.0,0.0,0.0,-0.010248595848679543,0.004391533322632313,-0.06260430067777634,0.9986855983734131,-0.02236311510205269,-0.01951598934829235,-0.04178611561655998
722.0,0.0,0.0,0.0,0.0,0.0,0.0,-0.011812381446361542,0.005542938597500324,-0.0637061595916748,0.9985793828964233,-0.025020308792591095,-0.021175051108002663,-0.042010776698589325
723.0,0.0,0.0,0.0,0.0,0.0,0.0,-0.014261503703892231,0.01073020976036787,-0.029438480734825134,0.9985184669494629,-0.02726849354803562,-0.02366131916642189,-0.040713731199502945
724.0,0.0,0.0,0.0,0.0,0.0,0.0,-0.016923394054174423,0.016598086804151535,0.004722544923424721,0.9985069036483765,-0.0292503722012043,-0.025893310084939003,-0.03818337246775627
725.0,0.0,0.0,0.0,0.0,0.0,0.0,-0.012384160421788692,0.01565077155828476,-0.005776143632829189,0.9985222816467285,-0.030751952901482582,-0.028341272845864296,-0.0347059890627861
726.0,0.0,0.0,0.0,0.0,0.0,0.0,-0.01159942802041769,0.011959647759795189,0.008340652100741863,0.9985263347625732,-0.03267136961221695,-0.03017764911055565,-0.031099257990717888
727.0,0.0,0.0,0.0,0.0,0.0,0.0,-0.011061552911996841,0.008512182161211967,0.02254100888967514,0.9984909892082214,-0.03511958196759224,-0.03121720813214779,-0.028424352407455444
728.0,0.0,0.0,0.0,0.0,0.0,0.0,-0.009134463965892792,0.0031575856264680624,-0.003900754963979125,0.9984855055809021,-0.037259362637996674,-0.03131524473428726,-0.025654800236225128
729.0,0.0,0.0,0.0,0.0,0.0,0.0,-0.004522567614912987,0.0012039138237014413,-0.0007488051778636873,0.9984899759292603,-0.038455430418252945,-0.03182779625058174,-0.022938912734389305
730.0,0.0,0.0,0.0,0.0,0.0,0.0,8.885105489753187e-05,-0.0006080374005250633,0.0025051285047084093,0.9985077381134033,-0.037362031638622284,-0.0344611294567585,-0.019976943731307983
731.0,0.0,0.0,0.0,0.0,0.0,0.0,0.0041831666603684425,-0.0037795626558363438,-0.0038902699016034603,0.998509407043457,-0.03690246492624283,-0.03586767613887787,-0.018183913081884384
732.0,0.0,0.0,0.0,0.0,0.0,0.0,0.004991942085325718,-0.0015459054848179221,0.019207574427127838,0.9985352158546448,-0.03649953380227089,-0.03702859580516815,-0.01497653964906931
733.0,0.0,0.0,0.0,0.0,0.0,0.0,0.005656886380165815,0.0009182931971736252,0.042278651148080826,0.9985437989234924,-0.03605854883790016,-0.038193631917238235,-0.012318529188632965
734.0,0.0,0.0,0.0,0.0,0.0,0.0,0.007711273152381182,0.001389979152008891,0.029402876272797585,0.9985600709915161,-0.03557167947292328,-0.03881898149847984,-0.010293323546648026
735.0,0.0,0.0,0.0,0.0,0.0,0.0,0.010955949313938618,0.0023480653762817383,0.033463701605796814,0.9985606670379639,-0.03528185188770294,-0.039512984454631805,-0.008414245210587978
736.0,0.0,0.0,0.0,0.0,0.0,0.0,0.014124337583780289,0.003355966880917549,0.03755694255232811,0.9985518455505371,-0.03560415282845497,-0.0397815965116024,-0.006640699226409197
737.0,0.0,0.0,0.0,0.0,0.0,0.0,0.01798067055642605,-0.001175365992821753,0.030680019408464432,0.9985445141792297,-0.03554653748869896,-0.04029770940542221,-0.004652675241231918
738.0,0.0,0.0,0.0,0.0,0.0,0.0,0.019503172487020493,-0.0008231422980315983,0.031270530074834824,0.9985381364822388,-0.03516878932714462,-0.04096539691090584,-0.002629597205668688
739.0,0.0,0.0,0.0,0.0,0.0,0.0,0.02101294696331024,-0.00041441453504376113,0.03187049180269241,0.9985278248786926,-0.034901805222034454,-0.04150029644370079,-0.0014026900753378868
740.0,0.0,0.0,0.0,0.0,0.0,0.0,0.019800441339612007,0.0009796960512176156,0.02852380834519863,0.9985420107841492,-0.034812767058610916,-0.04123424366116524,-0.0013308253837749362
741.0,0.0,0.0,0.0,0.0,0.0,0.0,0.020260440185666084,0.00035438165650703013,0.01496411208063364,0.9985495209693909,-0.034921642392873764,-0.04095759242773056,-0.0013876804150640965
742.0,0.0,0.0,0.0,0.0,0.0,0.0,0.020825136452913284,-0.00024413384380750358,0.0014027534052729607,0.9985514879226685,-0.035045426338911057,-0.040807515382766724,-0.0013501731446012855
743.0,0.0,0.0,0.0,0.0,0.0,0.0,0.01988428831100464,-0.004246523138135672,-0.002779484959319234,0.9985589981079102,-0.03495270758867264,-0.040689051151275635,-0.0016485350206494331
744.0,0.0,0.0,0.0,0.0,0.0,0.0,0.017959147691726685,-0.005872843787074089,-0.004099003504961729,0.9985500574111938,-0.035330355167388916,-0.04058688506484032,-0.0015978798037394881
745.0,0.0,0.0,0.0,0.0,0.0,0.0,0.01603749208152294,-0.007502763066440821,-0.005440779961645603,0.9985305070877075,-0.03535623103380203,-0.04104556515812874,-0.0015533228870481253
746.0,0.0,0.0,0.0,0.0,0.0,0.0,0.015140845440328121,-0.00948101095855236,-0.0025041326880455017,0.9985064268112183,-0.03509547933936119,-0.04184175282716751,-0.0017148617189377546
747.0,0.0,0.0,0.0,0.0,0.0,0.0,0.01077480148524046,-0.010466886684298515,0.0019034959841519594,0.9984627962112427,-0.03489391505718231,-0.04300566390156746,-0.0023460150696337223
748.0,0.0,0.0,0.0,0.0,0.0,0.0,0.0064187198877334595,-0.011422193609178066,0.006318403873592615,0.9984109401702881,-0.03461902588605881,-0.04435112327337265,-0.0032689454965293407
749.0,0.0,0.0,0.0,0.0,0.0,0.0,-0.0007843128987587988,-0.014484592713415623,-0.0010050047421827912,0.9983631372451782,-0.03419378772377968,-0.04569252207875252,-0.003793880110606551
750.0,0.0,0.0,0.0,0.0,0.0,0.0,-0.013606755062937737,-0.014521759003400803,0.001857849769294262,0.9983317255973816,-0.03354343771934509,-0.046795204281806946,-0.004376811906695366
751.0,0.0,0.0,0.0,0.0,0.0,0.0,-0.026440370827913284,-0.014438836835324764,0.004726939368993044,0.9983071684837341,-0.03318847343325615,-0.047566477209329605,-0.00436101108789444
752.0,0.0,0.0,0.0,0.0,0.0,0.0,-0.04601971060037613,-0.023940309882164,-0.022763118147850037,0.998354971408844,-0.030380625277757645,-0.04834936559200287,-0.005128241144120693
753.0,0.0,0.0,0.0,0.0,0.0,0.0,-0.057821501046419144,-0.027982357889413834,-0.022833891212940216,0.998558759689331,-0.023035800084471703,-0.047982316464185715,-0.006878256797790527
754.0,0.0,0.0,0.0,0.0,0.0,0.0,-0.06969144940376282,-0.0316527858376503,-0.02274497039616108,0.9987043142318726,-0.01535711344331503,-0.04789871349930763,-0.007739560212939978
755.0,0.0,0.0,0.0,0.0,0.0,0.0,-0.022511444985866547,-0.010661281645298004,0.020676719024777412,0.9988730549812317,-0.006140655372291803,-0.04603595659136772,-0.009785342030227184
756.0,0.0,0.0,0.0,0.0,0.0,0.0,0.03489864990115166,-0.011089052073657513,0.014533125795423985,0.9989767074584961,0.0065710293129086494,-0.04207660257816315,-0.015219585970044136
757.0,0.0,0.0,0.0,0.0,0.0,0.0,0.0924282968044281,-0.011851798743009567,0.007872863672673702,0.9988669157028198,0.019430266693234444,-0.03822461888194084,-0.02065255492925644
758.0,0.0,0.0,0.0,0.0,0.0,0.0,0.08784250915050507,-0.02882564812898636,-0.011518307030200958,0.9985318183898926,0.032179173082113266,-0.03523742035031319,-0.025635091587901115
759.0,0.0,0.0,0.0,0.0,0.0,0.0,0.07177604734897614,-0.027760619297623634,0.010367417708039284,0.9982006549835205,0.04104147478938103,-0.03226920962333679,-0.029491281136870384
760.0,0.0,0.0,0.0,0.0,0.0,0.0,0.05626193806529045,-0.026828160509467125,0.03261367604136467,0.9977995753288269,0.04929684102535248,-0.030071765184402466,-0.03258300945162773
761.0,0.0,0.0,0.0,0.0,0.0,0.0,0.05455992370843887,-0.025386950001120567,0.03241748362779617,0.9974636435508728,0.0552264042198658,-0.02851770631968975,-0.034688759595155716
762.0,0.0,0.0,0.0,0.0,0.0,0.0,0.041512731462717056,-0.0287016611546278,0.018323758617043495,0.9971907734870911,0.059096116572618484,-0.02701522782444954,-0.037263497710227966
763.0,0.0,0.0,0.0,0.0,0.0,0.0,0.028189491480588913,-0.03135448694229126,0.004458010196685791,0.9969152808189392,0.06273473054170609,-0.025616412982344627,-0.03959978371858597
764.0,0.0,0.0,0.0,0.0,0.0,0.0,0.012578754685819149,-0.04206082224845886,0.0020756374578922987,0.996677815914154,0.06552617996931076,-0.024666188284754753,-0.041609954088926315
765.0,0.0,0.0,0.0,0.0,0.0,0.0,0.015612750314176083,-0.03901965543627739,0.005267749074846506,0.996407687664032,0.06911804527044296,-0.02499794028699398,-0.042067188769578934
766.0,0.0,0.0,0.0,0.0,0.0,0.0,0.018806833773851395,-0.0360090546309948,0.008487063460052013,0.9961134791374207,0.07283248007297516,-0.0253338310867548,-0.042565442621707916
767.0,0.0,0.0,0.0,0.0,0.0,0.0,0.016736701130867004,-0.04161984100937843,0.002244733739644289,0.9958672523498535,0.07581406086683273,-0.024937475100159645,-0.04334740340709686
768.0,0.0,0.0,0.0,0.0,0.0,0.0,0.016024552285671234,-0.042403753846883774,-0.011419073678553104,0.9957050085067749,0.07749652117490768,-0.0244002565741539,-0.04439150169491768
769.0,0.0,0.0,0.0,0.0,0.0,0.0,0.015108729712665081,-0.043094124644994736,-0.025013195350766182,0.9955071806907654,0.07968660444021225,-0.023807533085346222,-0.04526500776410103
770.0,0.0,0.0,0.0,0.0,0.0,0.0,0.014520905911922455,-0.04395429790019989,-0.0161220021545887,0.9952897429466248,0.0819375142455101,-0.023018259555101395,-0.04641980305314064
771.0,0.0,0.0,0.0,0.0,0.0,0.0,0.016890693455934525,-0.04476555436849594,-0.019624967128038406,0.9951034784317017,0.08334992080926895,-0.02268919162452221,-0.04803190007805824
772.0,0.0,0.0,0.0,0.0,0.0,0.0,0.019244013354182243,-0.045587942004203796,-0.02310173399746418,0.9948742985725403,0.08518856763839722,-0.022305406630039215,-0.04970588535070419
773.0,0.0,0.0,0.0,0.0,0.0,0.0,0.024671630933880806,-0.044255033135414124,-0.013020793907344341,0.9946362972259521,0.08719953894615173,-0.022349584847688675,-0.0509478822350502
774.0,0.0,0.0,0.0,0.0,0.0,0.0,0.02707846276462078,-0.043723758310079575,-0.009364714846014977,0.9944549798965454,0.08862033486366272,-0.022772416472434998,-0.05183989927172661
775.0,0.0,0.0,0.0,0.0,0.0,0.0,0.029518786817789078,-0.04314758628606796,-0.005657860077917576,0.9941277503967285,0.09115039557218552,-0.02390122599899769,-0.053200725466012955
776.0,0.0,0.0,0.0,0.0,0.0,0.0,0.030155129730701447,-0.04273786395788193,-0.01751144416630268,0.9937258958816528,0.09407729655504227,-0.025458447635173798,-0.054866451770067215
777.0,0.0,0.0,0.0,0.0,0.0,0.0,0.025083821266889572,-0.04215940460562706,-0.011579298414289951,0.9934638142585754,0.09633006900548935,-0.027040556073188782,-0.05494724214076996
778.0,0.0,0.0,0.0,0.0,0.0,0.0,0.020001456141471863,-0.04154658317565918,-0.0057312254793941975,0.9933363795280457,0.09738503396511078,-0.028451766818761826,-0.05467725917696953
779.0,0.0,0.0,0.0,0.0,0.0,0.0,0.028854483738541603,-0.03196391090750694,0.00735608022660017,0.9932459592819214,0.09824468195438385,-0.030352381989359856,-0.05375643074512482
780.0,0.0,0.0,0.0,0.0,0.0,0.0,0.02253907173871994,-0.032781291753053665,0.0007095843320712447,0.993217408657074,0.09858742356300354,-0.031576741486787796,-0.05294458195567131
781.0,0.0,0.0,0.0,0.0,0.0,0.0,0.016246022656559944,-0.033643197268247604,-0.005956294480711222,0.9932223558425903,0.09833813458681107,-0.03272181749343872,-0.05261671543121338
782.0,0.0,0.0,0.0,0.0,0.0,0.0,0.01899445615708828,-0.03261210769414902,-0.005036249756813049,0.9931689500808716,0.09903767704963684,-0.03466932848095894,-0.05104440823197365
783.0,0.0,0.0,0.0,0.0,0.0,0.0,0.01811251975595951,-0.029225772246718407,-0.0026207936462014914,0.993121862411499,0.09959669411182404,-0.0364866629242897,-0.0495857298374176
784.0,0.0,0.0,0.0,0.0,0.0,0.0,0.017257506027817726,-0.025817548856139183,-0.00023157516261562705,0.9930702447891235,0.10003907233476639,-0.038399871438741684,-0.04826327785849571
785.0,0.0,0.0,0.0,0.0,0.0,0.0,0.011604172177612782,-0.03071780502796173,-0.008353294804692268,0.9929195046424866,0.10110174864530563,-0.04035794362425804,-0.04755159839987755
786.0,0.0,0.0,0.0,0.0,0.0,0.0,0.011242556385695934,-0.025998756289482117,0.007310381159186363,0.9927139282226562,0.10227683186531067,-0.042486876249313354,-0.04747352749109268
787.0,0.0,0.0,0.0,0.0,0.0,0.0,0.010985086672008038,-0.021244557574391365,0.022943459451198578,0.9925670623779297,0.10294006019830704,-0.04431508854031563,-0.047441303730010986
788.0,0.0,0.0,0.0,0.0,0.0,0.0,0.01573559269309044,-0.023280642926692963,0.021487882360816002,0.9925305843353271,0.1026042029261589,-0.04577229171991348,-0.04754713550209999
789.0,0.0,0.0,0.0,0.0,0.0,0.0,0.012354672886431217,-0.021473504602909088,0.021835509687662125,0.9923822283744812,0.10313783586025238,-0.046574730426073074,-0.04869486019015312
790.0,0.0,0.0,0.0,0.0,0.0,0.0,0.00895974226295948,-0.019675251096487045,0.022210797294974327,0.992285430431366,0.10338575392961502,-0.04705248028039932,-0.049674056470394135
791.0,0.0,0.0,0.0,0.0,0.0,0.0,0.009054109454154968,-0.027254268527030945,0.010382807813584805,0.9922140836715698,0.10358601808547974,-0.04753420874476433,-0.050218697637319565
792.0,0.0,0.0,0.0,0.0,0.0,0.0,0.008412719704210758,-0.023056944832205772,0.006917671300470829,0.9921049475669861,0.10404567420482635,-0.047887418419122696,-0.05108114704489708
793.0,0.0,0.0,0.0,0.0,0.0,0.0,0.0077466885559260845,-0.018840057775378227,0.0034797077532857656,0.9920529723167419,0.10422753542661667,-0.047749076038599014,-0.0518413707613945
794.0,0.0,0.0,0.0,0.0,0.0,0.0,0.008159421384334564,-0.01957993023097515,0.00417540455237031,0.9920019507408142,0.10458482801914215,-0.048043590039014816,-0.05182875692844391
795.0,0.0,0.0,0.0,0.0,0.0,0.0,0.010879816487431526,-0.018478998914361,-0.004671150352805853,0.9920313358306885,0.10437332838773727,-0.04864712059497833,-0.05112549662590027
796.0,0.0,0.0,0.0,0.0,0.0,0.0,0.013559401035308838,-0.017322080209851265,-0.013505777344107628,0.9920173287391663,0.10456226766109467,-0.04961733520030975,-0.05006919801235199
797.0,0.0,0.0,0.0,0.0,0.0,0.0,-0.032315444201231,-0.025059673935174942,-0.02372642792761326,0.9920535683631897,0.1041693389415741,-0.049702443182468414,-0.050085317343473434
798.0,0.0,0.0,0.0,0.0,0.0,0.0,-0.014349915087223053,-0.02262595295906067,-0.004688544198870659,0.9920146465301514,0.10443025082349777,-0.05007174238562584,-0.0499432235956192
799.0,0.0,0.0,0.0,0.0,0.0,0.0,0.003601683769375086,-0.020414838567376137,0.014374864287674427,0.9920023679733276,0.1046270951628685,-0.05043090507388115,-0.049409836530685425
800.0,0.0,0.0,0.0,0.0,0.0,0.0,0.0006043746252544224,-0.02413165755569935,0.006893543992191553,0.9921841621398926,0.10342974215745926,-0.05107798054814339,-0.04758690670132637
801.0,0.0,0.0,0.0,0.0,0.0,0.0,-0.004410920664668083,-0.030915262177586555,-0.007930978201329708,0.9923957586288452,0.10173632949590683,-0.05150705203413963,-0.04634464532136917
802.0,0.0,0.0,0.0,0.0,0.0,0.0,-0.009275615215301514,-0.03767788037657738,-0.02279580943286419,0.9925795197486877,0.10020150244235992,-0.051645081490278244,-0.045592229813337326
803.0,0.0,0.0,0.0,0.0,0.0,0.0,0.009710884653031826,-0.03374329209327698,-0.012846918776631355,0.9928670525550842,0.0975569561123848,-0.05229241028428078,-0.04431210085749626
804.0,0.0,0.0,0.0,0.0,0.0,0.0,0.01264545600861311,-0.03635961934924126,-0.008346453309059143,0.9932281374931335,0.0939863920211792,-0.05267833545804024,-0.0434679314494133
805.0,0.0,0.0,0.0,0.0,0.0,0.0,0.015559247694909573,-0.03891643509268761,-0.0038313947152346373,0.9936037659645081,0.09001006186008453,-0.053232353180646896,-0.0426165796816349
806.0,0.0,0.0,0.0,0.0,0.0,0.0,0.008544817566871643,-0.0470532588660717,-0.01690824329853058,0.9940252304077148,0.08527370542287827,-0.05384612828493118,-0.041749533265829086
807.0,0.0,0.0,0.0,0.0,0.0,0.0,0.007935949601233006,-0.04683537036180496,-0.008748357184231281,0.9944711327552795,0.07998784631490707,-0.05474012345075607,-0.040405869483947754
808.0,0.0,0.0,0.0,0.0,0.0,0.0,0.007276269607245922,-0.0465066134929657,-0.0006038200808688998,0.9949409365653992,0.0741790235042572,-0.055068664252758026,-0.03946942090988159
809.0,0.0,0.0,0.0,0.0,0.0,0.0,0.0039840624667704105,-0.04671117290854454,0.0011361888609826565,0.995315432548523,0.06881076097488403,-0.055268216878175735,-0.03946966305375099
810.0,0.0,0.0,0.0,0.0,0.0,0.0,0.008877931162714958,-0.0462748222053051,0.013387301936745644,0.9956368803977966,0.06400848180055618,-0.056038931012153625,-0.03833818808197975
811.0,0.0,0.0,0.0,0.0,0.0,0.0,0.013559497892856598,-0.04569927230477333,0.025784539058804512,0.9959328174591064,0.05949699133634567,-0.05662907660007477,-0.03702859580516815
812.0,0.0,0.0,0.0,0.0,0.0,0.0,-0.0026169924531131983,-0.038403794169425964,0.008077923208475113,0.9962372183799744,0.05500342696905136,-0.056538600474596024,-0.03591100499033928
813.0,0.0,0.0,0.0,0.0,0.0,0.0,-0.003215870587155223,-0.045988909900188446,-0.005745492409914732,0.9963504672050476,0.0527753047645092,-0.05608205869793892,-0.036815397441387177
814.0,0.0,0.0,0.0,0.0,0.0,0.0,-0.0036160098388791084,-0.0536322295665741,-0.019503993913531303,0.9964520931243896,0.05089811235666275,-0.05537644028663635,-0.037764210253953934
815.0,0.0,0.0,0.0,0.0,0.0,0.0,-0.0012616931926459074,-0.050708577036857605,-0.0140144694596529,0.9966088533401489,0.04895411431789398,-0.05397510901093483,-0.03822533041238785
816.0,0.0,0.0,0.0,0.0,0.0,0.0,-0.004338352475315332,-0.04890737310051918,-0.016438744962215424,0.9967787265777588,0.046789441257715225,-0.05253608897328377,-0.038509663194417953
817.0,0.0,0.0,0.0,0.0,0.0,0.0,-0.007402156013995409,-0.047145020216703415,-0.018874866887927055,0.9969453811645508,0.04492580518126488,-0.050904229283332825,-0.03860592469573021
818.0,0.0,0.0,0.0,0.0,0.0,0.0,-0.007498730905354023,-0.04826020076870918,-0.010792046785354614,0.997078537940979,0.0443270169198513,-0.04954615980386734,-0.037614621222019196
819.0,0.0,0.0,0.0,0.0,0.0,0.0,-0.00588912982493639,-0.04405004531145096,-0.008901187218725681,0.9972245097160339,0.04378163814544678,-0.04837489500641823,-0.03586666285991669
820.0,0.0,0.0,0.0,0.0,0.0,0.0,-0.0042739384807646275,-0.03980446979403496,-0.007039335556328297,0.99737948179245,0.04323310777544975,-0.04671105369925499,-0.034398581832647324
821.0,0.0,0.0,0.0,0.0,0.0,0.0,-0.0015311121242120862,-0.04140918701887131,-0.005960763897746801,0.9975301623344421,0.0425218865275383,-0.04483719915151596,-0.033395033329725266
822.0,0.0,0.0,0.0,0.0,0.0,0.0,-0.004856274928897619,-0.04009196534752846,-0.0054454077035188675,0.9976646304130554,0.04168202355504036,-0.043017592281103134,-0.03282459080219269
823.0,0.0,0.0,0.0,0.0,0.0,0.0,-0.008263043127954006,-0.038777075707912445,-0.004938542377203703,0.9977823495864868,0.041314609348773956,-0.04169096052646637,-0.0313916951417923
824.0,0.0,0.0,0.0,0.0,0.0,0.0,-0.013126088306307793,-0.034527964890003204,0.0061075519770383835,0.9979156851768494,0.04127560928463936,-0.03992854431271553,-0.029434816911816597
825.0,0.0,0.0,0.0,0.0,0.0,0.0,-0.014419577084481716,-0.03078327886760235,0.01023770309984684,0.9980373978614807,0.041361041367053986,-0.03798992931842804,-0.02770569548010826
826.0,0.0,0.0,0.0,0.0,0.0,0.0,-0.015801794826984406,-0.026987550780177116,0.014328389428555965,0.9981610774993896,0.041613224893808365,-0.03588439151644707,-0.025596346706151962
827.0,0.0,0.0,0.0,0.0,0.0,0.0,-0.027073504403233528,-0.027233578264713287,0.014677604660391808,0.9982836842536926,0.04209490492939949,-0.033621158450841904,-0.02296585589647293
828.0,0.0,0.0,0.0,0.0,0.0,0.0,-0.026125038042664528,-0.030002014711499214,-0.0018429007614031434,0.9983717799186707,0.042668793350458145,-0.03146026283502579,-0.021064715459942818
829.0,0.0,0.0,0.0,0.0,0.0,0.0,-0.024913206696510315,-0.03291263431310654,-0.01832539774477482,0.9984405040740967,0.04333585128188133,-0.02920343354344368,-0.019645309075713158
830.0,0.0,0.0,0.0,0.0,0.0,0.0,-0.017836354672908783,-0.03433378413319588,-0.018569938838481903,0.9984896183013916,0.04417584836483002,-0.02733122929930687,-0.0178996454924345
831.0,0.0,0.0,0.0,0.0,0.0,0.0,-0.014331485144793987,-0.03496349975466728,-0.018363790586590767,0.9985381960868835,0.04444907233119011,-0.025876987725496292,-0.01661946065723896
832.0,0.0,0.0,0.0,0.0,0.0,0.0,-0.010857271030545235,-0.035583872348070145,-0.018057281151413918,0.9985508918762207,0.04504726454615593,-0.025150397792458534,-0.015304752625524998
833.0,0.0,0.0,0.0,0.0,0.0,0.0,-0.005580055993050337,-0.0372125469148159,-0.016611162573099136,0.998518705368042,0.04625413939356804,-0.02506043203175068,-0.01390149537473917
834.0,0.0,0.0,0.0,0.0,0.0,0.0,-0.0009186235256493092,-0.036582279950380325,0.0008263629279099405,0.9985009431838989,0.04661433398723602,-0.025626739487051964,-0.012907133437693119
835.0,0.0,0.0,0.0,0.0,0.0,0.0,0.0036063145380467176,-0.03580709174275398,0.018269559368491173,0.9984785914421082,0.04676561430096626,-0.027054622769355774,-0.011037771590054035
836.0,0.0,0.0,0.0,0.0,0.0,0.0,0.003589261556044221,-0.03821282088756561,0.015688525512814522,0.9984994530677795,0.04612813889980316,-0.027989178895950317,-0.009379644878208637
837.0,0.0,0.0,0.0,0.0,0.0,0.0,0.008650442585349083,-0.03591049462556839,0.018734753131866455,0.9985398650169373,0.04526453837752342,-0.028405888006091118,-0.007910317741334438
838.0,0.0,0.0,0.0,0.0,0.0,0.0,0.01377837359905243,-0.03356924280524254,0.021740538999438286,0.9985731840133667,0.04447811469435692,-0.028691761195659637,-0.007083544507622719
839.0,0.0,0.0,0.0,0.0,0.0,0.0,0.02026345767080784,-0.040749888867139816,-0.0023311662953346968,0.998562753200531,0.044552624225616455,-0.02888026088476181,-0.007331171538680792
840.0,0.0,0.0,0.0,0.0,0.0,0.0,0.012658651918172836,-0.043374549597501755,-0.0024419932160526514,0.9985517859458923,0.04430599510669708,-0.029555529356002808,-0.007624022196978331
841.0,0.0,0.0,0.0,0.0,0.0,0.0,0.005076454021036625,-0.04596061259508133,-0.0024256915785372257,0.9985564947128296,0.04372739419341087,-0.030066387727856636,-0.008300422690808773
842.0,0.0,0.0,0.0,0.0,0.0,0.0,-0.006374554708600044,-0.046134643256664276,0.00999557413160801,0.9985568523406982,0.04304816946387291,-0.030582718551158905,-0.009797765873372555
843.0,0.0,0.0,0.0,0.0,0.0,0.0,-0.010160214267671108,-0.04822811856865883,0.007717069238424301,0.9985254406929016,0.04268310219049454,-0.031065337359905243,-0.012664656154811382
844.0,0.0,0.0,0.0,0.0,0.0,0.0,-0.013989741913974285,-0.050320420414209366,0.005521511193364859,0.9984749555587769,0.042215682566165924,-0.03203719109296799,-0.015469655394554138
845.0,0.0,0.0,0.0,0.0,0.0,0.0,-0.02043755166232586,-0.04683230072259903,0.006572874262928963,0.9983817934989929,0.04223806783556938,-0.033421143889427185,-0.018244123086333275
846.0,0.0,0.0,0.0,0.0,0.0,0.0,-0.017754778265953064,-0.042553823441267014,0.0038079910445958376,0.9982880353927612,0.04188292846083641,-0.03500009700655937,-0.02102675847709179
847.0,0.0,0.0,0.0,0.0,0.0,0.0,-0.015125573612749577,-0.038281142711639404,0.0009295992203988135,0.9982192516326904,0.04111787676811218,-0.03605904430150986,-0.02383393980562687
848.0,0.0,0.0,0.0,0.0,0.0,0.0,-0.015253201127052307,-0.03535212203860283,-0.00536521477624774,0.9981498718261719,0.0402035154402256,-0.03684995323419571,-0.02688657119870186
849.0,0.0,0.0,0.0,0.0,0.0,0.0,-0.012987921014428139,-0.03127598762512207,-0.010186218656599522,0.9980432391166687,0.039926927536726,-0.03803174942731857,-0.0294847059994936
850.0,0.0,0.0,0.0,0.0,0.0,0.0,-0.01080636028200388,-0.02720685303211212,-0.015033598989248276,0.9979127645492554,0.039773862808942795,-0.03950057551264763,-0.032061513513326645
851.0,0.0,0.0,0.0,0.0,0.0,0.0,-0.006586940959095955,-0.0287819541990757,-0.019948258996009827,0.9977609515190125,0.03919821232557297,-0.04139290750026703,-0.034977030009031296
852.0,0.0,0.0,0.0,0.0,0.0,0.0,0.000323060987284407,-0.019270002841949463,-0.006096900440752506,0.9976046681404114,0.039163652807474136,-0.04329964146018028,-0.03710107132792473
853.0,0.0,0.0,0.0,0.0,0.0,0.0,0.007311656139791012,-0.009667422622442245,0.007640017196536064,0.9974687099456787,0.03896135091781616,-0.04513418301939964,-0.038747914135456085
854.0,0.0,0.0,0.0,0.0,0.0,0.0,0.006255493964999914,-0.00957860890775919,0.010422592051327229,0.9973406195640564,0.03806929662823677,-0.047198954969644547,-0.040438033640384674
855.0,0.0,0.0,0.0,0.0,0.0,0.0,0.0065571097657084465,-0.009109358303248882,0.015934636816382408,0.9972183108329773,0.0374659039080143,-0.049662407487630844,-0.04105961695313454
856.0,0.0,0.0,0.0,0.0,0.0,0.0,0.006916739512234926,-0.008639083243906498,0.021437352523207664,0.9971282482147217,0.03662126883864403,-0.05219602584838867,-0.04086563363671303
857.0,0.0,0.0,0.0,0.0,0.0,0.0,-0.0031692369375377893,-0.005890892818570137,0.033375032246112823,0.9971060752868652,0.03465505689382553,-0.05408843979239464,-0.04065784811973572
858.0,0.0,0.0,0.0,0.0,0.0,0.0,-0.011442700400948524,-0.014350231736898422,0.026763036847114563,0.9970802068710327,0.033477455377578735,-0.054754190146923065,-0.04138043150305748
859.0,0.0,0.0,0.0,0.0,0.0,0.0,-0.01992388255894184,-0.022656377404928207,0.020167948678135872,0.9970988631248474,0.03211864456534386,-0.05482743680477142,-0.04190865531563759
860.0,0.0,0.0,0.0,0.0,0.0,0.0,-0.03194788098335266,-0.025614161044359207,0.013880171813070774,0.9971631765365601,0.030838798731565475,-0.05416526645421982,-0.042200297117233276
861.0,0.0,0.0,0.0,0.0,0.0,0.0,-0.031029095873236656,-0.02458404190838337,0.010599319823086262,0.997256338596344,0.02963528409600258,-0.053108152002096176,-0.04220503568649292
862.0,0.0,0.0,0.0,0.0,0.0,0.0,-0.03008132427930832,-0.023550843819975853,0.007310003507882357,0.9973390698432922,0.028861721977591515,-0.05136407911777496,-0.04294154420495033
863.0,0.0,0.0,0.0,0.0,0.0,0.0,-0.027434200048446655,-0.02249058149755001,0.0017378595657646656,0.9974241256713867,0.029246171936392784,-0.04846925288438797,-0.0440555065870285
864.0,0.0,0.0,0.0,0.0,0.0,0.0,-0.02252834662795067,-0.02376273088157177,-0.00976928323507309,0.9975659847259521,0.030087757855653763,-0.04505285620689392,-0.04390154033899307
865.0,0.0,0.0,0.0,0.0,0.0,0.0,-0.01747051812708378,-0.02484474703669548,-0.02128998190164566,0.9977102875709534,0.03084511123597622,-0.040677547454833984,-0.04436426982283592
866.0,0.0,0.0,0.0,0.0,0.0,0.0,0.0008001365349628031,-0.01844155602157116,-0.029732145369052887,0.9979393482208252,0.030324572697281837,-0.036500852555036545,-0.0431891568005085
867.0,0.0,0.0,0.0,0.0,0.0,0.0,0.007680481765419245,-0.016704298555850983,-0.04041244089603424,0.998176097869873,0.028927139937877655,-0.03301829844713211,-0.041442666202783585
868.0,0.0,0.0,0.0,0.0,0.0,0.0,0.014696439728140831,-0.01473168283700943,-0.05093047022819519,0.9983240365982056,0.028394563123583794,-0.030244771391153336,-0.040353890508413315
869.0,0.0,0.0,0.0,0.0,0.0,0.0,0.02526272088289261,-0.008499200455844402,-0.019049759954214096,0.9984633326530457,0.02793017402291298,-0.02802051417529583,-0.038803830742836
870.0,0.0,0.0,0.0,0.0,0.0,0.0,0.0242942925542593,-0.008373059332370758,-0.005950752180069685,0.9985449910163879,0.027542144060134888,-0.026651687920093536,-0.037936028093099594
871.0,0.0,0.0,0.0,0.0,0.0,0.0,0.02316415309906006,-0.008261462673544884,0.007073982153087854,0.99857097864151,0.02817678637802601,-0.026508422568440437,-0.03687259554862976
872.0,0.0,0.0,0.0,0.0,0.0,0.0,0.01570185460150242,-0.002372629242017865,0.04895617067813873,0.9985509514808655,0.02955988608300686,-0.02614555135369301,-0.03658955171704292
873.0,0.0,0.0,0.0,0.0,0.0,0.0,0.02033589966595173,-0.009694209322333336,0.02641088329255581,0.9984620809555054,0.03220118209719658,-0.024489816278219223,-0.037908945232629776
874.0,0.0,0.0,0.0,0.0,0.0,0.0,0.025104839354753494,-0.01701551117002964,0.0039130751974880695,0.9984127283096313,0.03417927026748657,-0.021922800689935684,-0.039034441113471985
875.0,0.0,0.0,0.0,0.0,0.0,0.0,0.035237621515989304,-0.005700116511434317,0.00946758221834898,0.9984412789344788,0.03467969596385956,-0.01920168288052082,-0.03929015249013901
876.0,0.0,0.0,0.0,0.0,0.0,0.0,0.035565335303545,-0.009886822663247585,-0.00668308837339282,0.9983989000320435,0.036018602550029755,-0.016206108033657074,-0.040499843657016754
877.0,0.0,0.0,0.0,0.0,0.0,0.0,0.03588690981268883,-0.014100891537964344,-0.022900676354765892,0.9983678460121155,0.03753196820616722,-0.014140033163130283,-0.040668368339538574
878.0,0.0,0.0,0.0,0.0,0.0,0.0,0.02246140129864216,-0.016842301934957504,-0.0007760891458019614,0.9984064698219299,0.03827188163995743,-0.014315498061478138,-0.0389242023229599
879.0,0.0,0.0,0.0,0.0,0.0,0.0,0.01889076456427574,-0.017339978367090225,0.004427096340805292,0.9984375834465027,0.038639385253190994,-0.014955560676753521,-0.037505537271499634
