,Position_X,Position_Y,Position_Z,Velocity_X,Velocity_Y,Velocity_Z,Acceleration_X,Acceleration_Y,Acceleration_Z,Quaterion_0,Quaterion_1,Quaterion_2,Quaterion_3
207.0,0.0,0.0,0.0,0.0,0.0,0.0,-0.0007744459435343742,0.0041577741503715515,0.006318235769867897,1.0,6.938893903907228e-18,-5.204170427930421e-18,4.163336342344337e-17
208.0,0.0,0.0,0.0,0.0,0.0,0.0,0.0019406612263992429,0.005203053820878267,0.0048128035850822926,0.9999994039535522,-0.00028975369059480727,0.001002986216917634,0.0002532365615479648
209.0,0.0,0.0,0.0,0.0,0.0,0.0,0.014111332595348358,-0.005799448117613792,-0.019635654985904694,0.9999984502792358,-0.0008956571109592915,0.001265927217900753,0.0008539101108908653
210.0,0.0,0.0,0.0,0.0,0.0,0.0,0.01785731315612793,-0.008603976108133793,0.002118428237736225,0.9999991655349731,-0.0005131748039275408,0.0009885086910799146,0.0006241960218176246
211.0,0.0,0.0,0.0,0.0,0.0,0.0,0.009250406175851822,-0.005279522389173508,-0.0018646931275725365,0.9999996423721313,-7.585799176013097e-05,0.0007763660978525877,-0.00039523118175566196
212.0,0.0,0.0,0.0,0.0,0.0,0.0,0.00416960334405303,0.002979543060064316,0.004789966158568859,0.9999997019767761,-0.0007795283454470336,-9.62548529059859e-06,-0.00011259054736001417
213.0,0.0,0.0,0.0,0.0,0.0,0.0,0.0034609262365847826,0.011732855811715126,0.0031020359601825476,0.999997079372406,-0.0018866033060476184,-0.000912136456463486,0.0012174773728474975
214.0,0.0,0.0,0.0,0.0,0.0,0.0,-0.0048143197782337666,0.018803825601935387,0.002292963908985257,0.9999952912330627,-0.0018367996672168374,-0.0014033650513738394,0.0020285784266889095
215.0,0.0,0.0,0.0,0.0,0.0,0.0,-0.0036081161815673113,0.020537730306386948,0.013973497785627842,0.9999977350234985,-0.00043868753709830344,-0.000900203303899616,0.001894021057523787
216.0,0.0,0.0,0.0,0.0,0.0,0.0,0.0031156616751104593,0.02162167802453041,0.01261016633361578,0.9999985694885254,0.0009191493736580014,0.00017738189490046352,0.0014053446939215064
217.0,0.0,0.0,0.0,0.0,0.0,0.0,0.011871462687849998,0.018829280510544777,0.006339244078844786,0.9999955892562866,0.0021540385205298662,0.0009855559328570962,0.0017782356590032578
218.0,0.0,0.0,0.0,0.0,0.0,0.0,0.01678793877363205,0.015298490412533283,-0.014745891094207764,0.9999906420707703,0.0028776407707482576,0.0015737940557301044,0.0028173192404210567
219.0,0.0,0.0,0.0,0.0,0.0,0.0,0.0172862708568573,0.01394550409168005,-0.02708144672214985,0.9999871850013733,0.003595684887841344,0.0015610699774697423,0.003200725419446826
220.0,0.0,0.0,0.0,0.0,0.0,0.0,0.020824402570724487,0.01316944882273674,-0.017954576760530472,0.9999834895133972,0.004505847580730915,0.000601656676735729,0.003511950373649597
221.0,0.0,0.0,0.0,0.0,0.0,0.0,0.019195562228560448,0.014191214926540852,-0.006216374225914478,0.9999722838401794,0.00551869161427021,-0.0011619430733844638,0.004856976214796305
222.0,0.0,0.0,0.0,0.0,0.0,0.0,0.014710708521306515,0.010939565487205982,0.002836952218785882,0.9999581575393677,0.006555721629410982,-0.003131948644295335,0.00556389382109046
223.0,0.0,0.0,0.0,0.0,0.0,0.0,0.010349893011152744,0.005887239705771208,0.003970980178564787,0.9999479055404663,0.00700839189812541,-0.004803640767931938,0.005655563902109861
224.0,0.0,0.0,0.0,0.0,0.0,0.0,0.0038293213583528996,0.0024037198163568974,0.010478818789124489,0.9999385476112366,0.006717128679156303,-0.006528397090733051,0.005928707774728537
225.0,0.0,0.0,0.0,0.0,0.0,0.0,-0.0027624480426311493,0.005358194001019001,0.018695056438446045,0.9999282956123352,0.006667275447398424,-0.00762134836986661,0.006394237745553255
226.0,0.0,0.0,0.0,0.0,0.0,0.0,-0.008813941851258278,0.007521378807723522,0.022877352312207222,0.9999187588691711,0.007045152597129345,-0.008137171156704426,0.006831904873251915
227.0,0.0,0.0,0.0,0.0,0.0,0.0,-0.011383366771042347,0.0084369583055377,0.01554957777261734,0.9999184012413025,0.006713523995131254,-0.008150637149810791,0.00719041284173727
228.0,0.0,0.0,0.0,0.0,0.0,0.0,-0.009625613689422607,0.009088794700801373,0.007630608044564724,0.9999183416366577,0.0068763685412704945,-0.007962247356772423,0.007258752826601267
229.0,0.0,0.0,0.0,0.0,0.0,0.0,-0.006458799354732037,0.008234972134232521,-0.0004876104649156332,0.9999162554740906,0.007139019668102264,-0.007604822516441345,0.007664916571229696
230.0,0.0,0.0,0.0,0.0,0.0,0.0,-0.0023884952533990145,0.010474616661667824,-0.0037027946673333645,0.9999141693115234,0.006935986690223217,-0.007467029616236687,0.008236471563577652
231.0,0.0,0.0,0.0,0.0,0.0,0.0,0.005029402207583189,0.011813261546194553,-0.004452509339898825,0.9999083280563354,0.00674804113805294,-0.007204704452306032,0.009265671484172344
232.0,0.0,0.0,0.0,0.0,0.0,0.0,0.01396235078573227,0.009693575091660023,-0.004341214895248413,0.9998993873596191,0.00643725274130702,-0.007015257142484188,0.010517239570617676
233.0,0.0,0.0,0.0,0.0,0.0,0.0,0.01979326270520687,0.0077691939659416676,-0.008558357134461403,0.9998869299888611,0.006203752942383289,-0.006981023121625185,0.011785976588726044
234.0,0.0,0.0,0.0,0.0,0.0,0.0,0.020752491429448128,0.009530765004456043,-0.010393689386546612,0.99986332654953,0.00599839398637414,-0.0074648866429924965,0.01347828097641468
235.0,0.0,0.0,0.0,0.0,0.0,0.0,0.017870374023914337,0.00686368253082037,-0.010826881043612957,0.9998410940170288,0.006625633221119642,-0.00827335100620985,0.01433240994811058
236.0,0.0,0.0,0.0,0.0,0.0,0.0,0.014373518526554108,0.0033934442326426506,-0.012109045870602131,0.9998202919960022,0.007405976764857769,-0.009277074597775936,0.014780689962208271
237.0,0.0,0.0,0.0,0.0,0.0,0.0,0.010066120885312557,0.0020791450515389442,-0.013494223356246948,0.9997904300689697,0.007367956917732954,-0.01064426451921463,0.015857884660363197
238.0,0.0,0.0,0.0,0.0,0.0,0.0,0.006748654413968325,0.001030346262268722,-0.009051734581589699,0.9997677803039551,0.007438484579324722,-0.011812341399490833,0.016416991129517555
239.0,0.0,0.0,0.0,0.0,0.0,0.0,0.002423293888568878,0.00011085117148468271,0.00907838810235262,0.9997570514678955,0.0073450165800750256,-0.012783938087522984,0.016385290771722794
240.0,0.0,0.0,0.0,0.0,0.0,0.0,-0.003276281990110874,-0.0017781301867216825,0.018299756571650505,0.9997572302818298,0.006496711168438196,-0.01324216928333044,0.016370857134461403
241.0,0.0,0.0,0.0,0.0,0.0,0.0,-0.007571086287498474,-0.00415801489725709,0.012363715097308159,0.9997441172599792,0.005492237862199545,-0.013888978399336338,0.016992343589663506
242.0,0.0,0.0,0.0,0.0,0.0,0.0,-0.008706011809408665,-0.006046145688742399,0.005485466215759516,0.9997349977493286,0.004811848048120737,-0.014305723831057549,0.01738276146352291
243.0,0.0,0.0,0.0,0.0,0.0,0.0,-0.011783447116613388,-0.005412319675087929,0.005980376154184341,0.9997481107711792,0.00498224887996912,-0.014281362295150757,0.016581568866968155
244.0,0.0,0.0,0.0,0.0,0.0,0.0,-0.012288350611925125,-0.007072506006807089,0.009645016863942146,0.9997586607933044,0.006173701956868172,-0.014204264618456364,0.015579224564135075
245.0,0.0,0.0,0.0,0.0,0.0,0.0,-0.011650842614471912,-0.009818985126912594,0.007193881552666426,0.9997792840003967,0.006788584403693676,-0.01328602246940136,0.01479610987007618
246.0,0.0,0.0,0.0,0.0,0.0,0.0,-0.009854897856712341,-0.008888402953743935,-4.4507396523840725e-05,0.9998188614845276,0.006456144154071808,-0.011730319820344448,0.013527780771255493
247.0,0.0,0.0,0.0,0.0,0.0,0.0,0.006010296288877726,-0.020855451002717018,-0.01738639362156391,0.9998400211334229,0.005467139184474945,-0.010778223164379597,0.013189626857638359
248.0,0.0,0.0,0.0,0.0,0.0,0.0,0.015626782551407814,-0.02145073562860489,-0.028738435357809067,0.9998524785041809,0.00517962547019124,-0.010508927516639233,0.01256465446203947
249.0,0.0,0.0,0.0,0.0,0.0,0.0,0.018472766503691673,-0.01683718152344227,-0.007738546933978796,0.9998316168785095,0.005139308050274849,-0.011577373370528221,0.013277413323521614
250.0,0.0,0.0,0.0,0.0,0.0,0.0,0.009261302649974823,-0.0051697371527552605,-0.0063898274675011635,0.9997967481613159,0.005458040162920952,-0.013056298717856407,0.014362889342010021
251.0,0.0,0.0,0.0,0.0,0.0,0.0,0.009023833088576794,-0.0017840098589658737,0.009813055396080017,0.9997696280479431,0.005800222512334585,-0.014330709353089333,0.014890149235725403
252.0,0.0,0.0,0.0,0.0,0.0,0.0,0.0004625795118045062,0.003123508533462882,0.0050761764869093895,0.999757707118988,0.004897281061857939,-0.014949839562177658,0.015396996401250362
253.0,0.0,0.0,0.0,0.0,0.0,0.0,0.000671682006213814,0.003574356669560075,0.012895840220153332,0.9997549653053284,0.004839825909584761,-0.014818890951573849,0.015715036541223526
254.0,0.0,0.0,0.0,0.0,0.0,0.0,0.0013718787813559175,0.005525560583919287,0.007284411229193211,0.9997464418411255,0.005129784345626831,-0.014756480231881142,0.016216745600104332
255.0,0.0,0.0,0.0,0.0,0.0,0.0,0.0038215003442019224,0.00536679569631815,0.0007579606026411057,0.9997340440750122,0.005547264590859413,-0.014790006913244724,0.016805006191134453
256.0,0.0,0.0,0.0,0.0,0.0,0.0,0.007445521652698517,0.0033872744534164667,-0.0034974594600498676,0.9997180104255676,0.005729679949581623,-0.015011725947260857,0.017488107085227966
257.0,0.0,0.0,0.0,0.0,0.0,0.0,0.006350880954414606,0.0026750245597213507,-0.0037895003333687782,0.99970543384552,0.005496474914252758,-0.015359294600784779,0.017971694469451904
258.0,0.0,0.0,0.0,0.0,0.0,0.0,0.004045107867568731,-0.0009006641921587288,-0.0041717723943293095,0.9996974468231201,0.0056565734557807446,-0.015782425180077553,0.018002629280090332
259.0,0.0,0.0,0.0,0.0,0.0,0.0,-0.0024168577510863543,-0.004092823714017868,-0.007070169784128666,0.9996817708015442,0.006239369045943022,-0.016271721571683884,0.018239939585328102
260.0,0.0,0.0,0.0,0.0,0.0,0.0,-0.0037711409386247396,-0.0022751609794795513,-0.001894162967801094,0.9996656179428101,0.006012055091559887,-0.017147110775113106,0.01839916966855526
261.0,0.0,0.0,0.0,0.0,0.0,0.0,0.0037621723022311926,-0.003387889824807644,0.0036014055367559195,0.9996470808982849,0.005973690655082464,-0.018194055184721947,0.018414320424199104
262.0,0.0,0.0,0.0,0.0,0.0,0.0,-0.00856900867074728,-0.0006130861002020538,0.008630414493381977,0.9996277689933777,0.005803793668746948,-0.018995411694049835,0.01870499737560749
263.0,0.0,0.0,0.0,0.0,0.0,0.0,-0.013402292504906654,-0.0008601027657277882,0.02605394273996353,0.9996159672737122,0.005889479070901871,-0.019384272396564484,0.018908146768808365
264.0,0.0,0.0,0.0,0.0,0.0,0.0,-0.0070587266236543655,-0.005416774656623602,0.012976152822375298,0.9996078014373779,0.006559284403920174,-0.01972484588623047,0.01876612938940525
265.0,0.0,0.0,0.0,0.0,0.0,0.0,-0.0089108282700181,-0.0071213445626199245,0.009999210946261883,0.9996235966682434,0.0064315092749893665,-0.019451627507805824,0.018248451873660088
266.0,0.0,0.0,0.0,0.0,0.0,0.0,-0.008561453782022,-0.004976516589522362,0.006159347016364336,0.9996209740638733,0.006138622760772705,-0.019350068643689156,0.018597658723592758
267.0,0.0,0.0,0.0,0.0,0.0,0.0,-0.0074646384455263615,-0.00833340734243393,0.004331101197749376,0.9996098875999451,0.00852955412119627,-0.018763629719614983,0.018850374966859818
268.0,0.0,0.0,0.0,0.0,0.0,0.0,-0.006832894403487444,-0.008352088741958141,0.003901056246832013,0.9996336698532104,0.008818430826067924,-0.017751801759004593,0.018431689590215683
269.0,0.0,0.0,0.0,0.0,0.0,0.0,-0.003983244765549898,-0.007440852466970682,0.00014290987746790051,0.9996575713157654,0.00836306530982256,-0.016660474240779877,0.018367212265729904
270.0,0.0,0.0,0.0,0.0,0.0,0.0,-0.0003572664281819016,-0.009019382297992706,-0.00578267453238368,0.999679684638977,0.008850013837218285,-0.015565053559839725,0.017887184396386147
271.0,0.0,0.0,0.0,0.0,0.0,0.0,0.0013497293693944812,-0.00874944869428873,-0.00956160668283701,0.9996820688247681,0.009128117933869362,-0.014760923571884632,0.018292617052793503
272.0,0.0,0.0,0.0,0.0,0.0,0.0,0.0031688115559518337,-0.009351556189358234,-0.00999588891863823,0.9996706247329712,0.00941928569227457,-0.014320779591798782,0.019099881872534752
273.0,0.0,0.0,0.0,0.0,0.0,0.0,0.0031761382706463337,-0.00884671974927187,-0.006949116941541433,0.9996535778045654,0.009678649716079235,-0.013988958671689034,0.020083781331777573
274.0,0.0,0.0,0.0,0.0,0.0,0.0,0.004379527177661657,-0.008585840463638306,-0.0017359174089506269,0.999646008014679,0.010121162980794907,-0.01340073999017477,0.020637772977352142
275.0,0.0,0.0,0.0,0.0,0.0,0.0,0.004470151849091053,-0.011447940021753311,-0.0045327129773795605,0.9996424317359924,0.010828178375959396,-0.012909130193293095,0.020763205364346504
276.0,0.0,0.0,0.0,0.0,0.0,0.0,0.006112284492701292,-0.010973678901791573,-0.004782543517649174,0.9996453523635864,0.010373616591095924,-0.012236720882356167,0.021257512271404266
277.0,0.0,0.0,0.0,0.0,0.0,0.0,0.006871281191706657,-0.010982632637023926,-0.006330258212983608,0.9996498823165894,0.010616346262395382,-0.01195039413869381,0.02108808234333992
278.0,0.0,0.0,0.0,0.0,0.0,0.0,0.006398278754204512,-0.010445044375956059,-0.004230482038110495,0.9996387958526611,0.01057530753314495,-0.011964070610702038,0.02161979116499424
279.0,0.0,0.0,0.0,0.0,0.0,0.0,0.0058649624697864056,-0.008904900401830673,2.693364876904525e-05,0.9996111392974854,0.009953892789781094,-0.012286590412259102,0.02296813204884529
280.0,0.0,0.0,0.0,0.0,0.0,0.0,0.0029269205406308174,-0.007858206517994404,0.0043596914038062096,0.9995902180671692,0.00948750227689743,-0.012440316379070282,0.02397041767835617
281.0,0.0,0.0,0.0,0.0,0.0,0.0,0.0003430261858738959,-0.004531359300017357,0.005381136201322079,0.9996157884597778,0.007953302003443241,-0.01133726816624403,0.024013269692659378
282.0,0.0,0.0,0.0,0.0,0.0,0.0,0.0009918510913848877,-0.010684438049793243,-0.005596156232059002,0.9996374249458313,0.0067517408169806,-0.010177007876336575,0.023998895660042763
283.0,0.0,0.0,0.0,0.0,0.0,0.0,0.03085850365459919,-0.021027550101280212,-0.02676364779472351,0.9996359348297119,0.005239380989223719,-0.010600506328046322,0.024253608658909798
284.0,0.0,0.0,0.0,0.0,0.0,0.0,0.029943019151687622,-0.014102457091212273,-0.0036901545245200396,0.9996053576469421,0.0035359349567443132,-0.012321659363806248,0.02499597892165184
285.0,0.0,0.0,0.0,0.0,0.0,0.0,0.01802907884120941,-0.005111721344292164,0.0005144743481650949,0.9995562434196472,0.0016697432147338986,-0.014579052105545998,0.025922659784555435
286.0,0.0,0.0,0.0,0.0,0.0,0.0,0.009339768439531326,0.0002485930745024234,0.005784157197922468,0.9995347857475281,0.0006964977947063744,-0.01632719859480858,0.025753799825906754
287.0,0.0,0.0,0.0,0.0,0.0,0.0,-0.0025898776948451996,0.004544161260128021,0.00031930519617162645,0.9995378255844116,0.0004373054252937436,-0.01712142303586006,0.025116458535194397
288.0,0.0,0.0,0.0,0.0,0.0,0.0,-0.010667426511645317,0.006778707727789879,0.005987436044961214,0.9995346665382385,-0.00019697703828569502,-0.01745687983930111,0.025015557184815407
289.0,0.0,0.0,0.0,0.0,0.0,0.0,-0.012059413827955723,0.009169789962470531,0.0071617295034229755,0.9995449781417847,-0.0009683717507869005,-0.01720741018652916,0.024757444858551025
290.0,0.0,0.0,0.0,0.0,0.0,0.0,-0.009384010918438435,0.007577783428132534,0.0023032762110233307,0.9995595216751099,-0.00024269719142466784,-0.017133457586169243,0.02423230931162834
291.0,0.0,0.0,0.0,0.0,0.0,0.0,-0.008331675082445145,0.005552348680794239,-0.001944373594596982,0.9995574951171875,9.415535896550864e-05,-0.01737624779343605,0.02414422482252121
292.0,0.0,0.0,0.0,0.0,0.0,0.0,-0.008896972984075546,0.004635597113519907,0.00023673921532463282,0.9995808601379395,0.00011989264748990536,-0.01687195524573326,0.023527787998318672
293.0,0.0,0.0,0.0,0.0,0.0,0.0,-0.009654711931943893,0.004926831927150488,0.00801268219947815,0.9996239542961121,0.00047303258907049894,-0.015847591683268547,0.022375375032424927
294.0,0.0,0.0,0.0,0.0,0.0,0.0,-0.010083968751132488,0.0010064084781333804,0.005266827531158924,0.9996511936187744,0.0018185137305408716,-0.014946606010198593,0.021698487922549248
295.0,0.0,0.0,0.0,0.0,0.0,0.0,-0.004288956522941589,-0.0062485262751579285,-0.014106684364378452,0.9996821880340576,0.002869621617719531,-0.014635543338954449,0.020326487720012665
296.0,0.0,0.0,0.0,0.0,0.0,0.0,0.006121334154158831,-0.011883833445608616,-0.028361987322568893,0.9996874928474426,0.0014901421964168549,-0.015877922996878624,0.01925175078213215
297.0,0.0,0.0,0.0,0.0,0.0,0.0,0.008236118592321873,-0.011392700485885143,-0.03434033319354057,0.9996767044067383,-0.00012818117102142423,-0.017697088420391083,0.018257008865475655
298.0,0.0,0.0,0.0,0.0,0.0,0.0,-0.0020641793962568045,-0.007109896279871464,-0.025444690138101578,0.99967360496521,-0.003122991416603327,-0.019448498263955116,0.01627175509929657
299.0,0.0,0.0,0.0,0.0,0.0,0.0,-0.002394120441749692,-0.0006645823013968766,-0.012598535977303982,0.9996402263641357,-0.006545322015881538,-0.021372340619564056,0.014829938299953938
300.0,0.0,0.0,0.0,0.0,0.0,0.0,-0.002098008058965206,0.001039181835949421,-0.004234817810356617,0.9995911717414856,-0.008469441905617714,-0.02390969917178154,0.013196579180657864
301.0,0.0,0.0,0.0,0.0,0.0,0.0,-0.006642379332333803,-0.0006729839951731265,-0.0007496153702959418,0.9995552897453308,-0.009743518196046352,-0.026197971776127815,0.010393884032964706
302.0,0.0,0.0,0.0,0.0,0.0,0.0,-0.006364600732922554,-0.004369926638901234,-0.009458130225539207,0.9994739294052124,-0.011524168774485588,-0.029216136783361435,0.008096396923065186
303.0,0.0,0.0,0.0,0.0,0.0,0.0,-0.00872258935123682,-0.0012871392536908388,-0.013349544256925583,0.9993489980697632,-0.014005899429321289,-0.03255859762430191,0.006738781463354826
304.0,0.0,0.0,0.0,0.0,0.0,0.0,-0.012107155285775661,0.002489621751010418,-0.00747664924710989,0.9992184042930603,-0.016955427825450897,-0.03519102931022644,0.006057680118829012
305.0,0.0,0.0,0.0,0.0,0.0,0.0,-0.015686826780438423,0.004271300043910742,0.0035487774293869734,0.9991321563720703,-0.019015926867723465,-0.03671681880950928,0.005030892323702574
306.0,0.0,0.0,0.0,0.0,0.0,0.0,-0.015345921739935875,0.005072879604995251,0.013856998644769192,0.9990664124488831,-0.020404309034347534,-0.037808503955602646,0.0045425137504935265
307.0,0.0,0.0,0.0,0.0,0.0,0.0,-0.011766868643462658,0.0033952754456549883,0.018424207344651222,0.9989897608757019,-0.02216959372162819,-0.03883504122495651,0.004457529634237289
308.0,0.0,0.0,0.0,0.0,0.0,0.0,-0.007611006498336792,0.00065587367862463,0.012687968090176582,0.998908281326294,-0.024123897776007652,-0.039770398288965225,0.004326679278165102
309.0,0.0,0.0,0.0,0.0,0.0,0.0,0.10818349570035934,-0.03656945005059242,0.019008895382285118,0.9987196326255798,-0.026525726541876793,-0.04277357459068298,0.0050932359881699085
310.0,0.0,0.0,0.0,0.0,0.0,0.0,-0.007036103866994381,-0.001884939381852746,0.002196867484599352,0.9986397624015808,-0.02879384160041809,-0.04332512617111206,0.0035402339417487383
311.0,0.0,0.0,0.0,0.0,0.0,0.0,-0.007406041491776705,0.002458353992551565,0.002064783126115799,0.9985300302505493,-0.03116735629737377,-0.0442517064511776,0.0028971415013074875
312.0,0.0,0.0,0.0,0.0,0.0,0.0,-0.00962552335113287,0.007853968068957329,0.0065157595090568066,0.9984318614006042,-0.033040851354599,-0.04512035474181175,0.0025368710048496723
313.0,0.0,0.0,0.0,0.0,0.0,0.0,-0.011846251785755157,0.010118048638105392,0.011922909878194332,0.9983530640602112,-0.0343247726559639,-0.0459224171936512,0.002045628149062395
314.0,0.0,0.0,0.0,0.0,0.0,0.0,-0.007583233993500471,0.008428029716014862,0.009458314627408981,0.9983162879943848,-0.03440536558628082,-0.04668330401182175,0.001286818296648562
315.0,0.0,0.0,0.0,0.0,0.0,0.0,-0.007530274800956249,0.008205652236938477,0.003039914183318615,0.9982414245605469,-0.03463249281048775,-0.04808501899242401,0.0016292821383103728
316.0,0.0,0.0,0.0,0.0,0.0,0.0,-0.008082114160060883,0.009093844331800938,0.007863238453865051,0.9981761574745178,-0.0345984622836113,-0.04942038282752037,0.002239185618236661
317.0,0.0,0.0,0.0,0.0,0.0,0.0,-0.008285247720777988,0.010403512045741081,0.012456540018320084,0.9980998039245605,-0.034988317638635635,-0.05063773691654205,0.002926570363342762
318.0,0.0,0.0,0.0,0.0,0.0,0.0,-0.006297252140939236,0.009161136113107204,0.009861274622380733,0.9980021715164185,-0.0358060859143734,-0.05189566686749458,0.004075643606483936
319.0,0.0,0.0,0.0,0.0,0.0,0.0,-0.0035402681678533554,0.005915012676268816,0.006615401245653629,0.997961163520813,-0.03590848669409752,-0.05261059105396271,0.004047259222716093
320.0,0.0,0.0,0.0,0.0,0.0,0.0,-0.0018232478760182858,0.003344442928209901,0.005729277152568102,0.9979287385940552,-0.03638762608170509,-0.05287863686680794,0.004252891521900892
321.0,0.0,0.0,0.0,0.0,0.0,0.0,-0.00235853367485106,0.0026454401668161154,0.008666520938277245,0.9979045987129211,-0.036735352128744125,-0.053068384528160095,0.004555334337055683
322.0,0.0,0.0,0.0,0.0,0.0,0.0,-0.002300519496202469,0.00392990093678236,0.011678309179842472,0.9978969097137451,-0.03725190833210945,-0.0527922548353672,0.005209743045270443
323.0,0.0,0.0,0.0,0.0,0.0,0.0,-0.0012841633288189769,0.003339066868647933,0.011234224773943424,0.9979237914085388,-0.03761664777994156,-0.05203549936413765,0.0050616078078746796
324.0,0.0,0.0,0.0,0.0,0.0,0.0,0.0011085720034316182,-0.0012800226686522365,0.004041201435029507,0.9979696869850159,-0.03746943175792694,-0.05128005892038345,0.004810072481632233
325.0,0.0,0.0,0.0,0.0,0.0,0.0,0.0014543874422088265,-0.003111680969595909,-0.00378253567032516,0.997993528842926,-0.037466056644916534,-0.050762973725795746,0.0053289360366761684
326.0,0.0,0.0,0.0,0.0,0.0,0.0,0.0028027149382978678,-0.004611036274582148,-0.010384523309767246,0.9980486631393433,-0.0373118594288826,-0.04980425536632538,0.005133375525474548
327.0,0.0,0.0,0.0,0.0,0.0,0.0,0.008191687054932117,-0.005561659578233957,-0.015065347775816917,0.9980574250221252,-0.03754619136452675,-0.04927803948521614,0.0065930187702178955
328.0,0.0,0.0,0.0,0.0,0.0,0.0,0.0006761823897249997,-0.00929474737495184,-0.014421576634049416,0.9980437159538269,-0.038754429668188095,-0.04865217208862305,0.00631432281807065
329.0,0.0,0.0,0.0,0.0,0.0,0.0,0.0057178521528840065,-0.009111031889915466,-0.026252498850226402,0.99799644947052,-0.039996564388275146,-0.048555221408605576,0.006769811734557152
330.0,0.0,0.0,0.0,0.0,0.0,0.0,0.004830135963857174,-0.009007486514747143,-0.03184448927640915,0.9979280233383179,-0.0412454754114151,-0.048913247883319855,0.006797441281378269
331.0,0.0,0.0,0.0,0.0,0.0,0.0,-0.0017305787187069654,-0.007319068070501089,-0.020167022943496704,0.9978582859039307,-0.04237135499715805,-0.04941805079579353,0.006447813007980585
332.0,0.0,0.0,0.0,0.0,0.0,0.0,-0.0063348496332764626,-0.004769830498844385,-0.0033610810060054064,0.9977570176124573,-0.04355793073773384,-0.05038952827453613,0.006674355361610651
333.0,0.0,0.0,0.0,0.0,0.0,0.0,-0.012387081049382687,-0.0023025600239634514,0.0027328217402100563,0.9976705312728882,-0.044534120708703995,-0.051260799169540405,0.006538534536957741
334.0,0.0,0.0,0.0,0.0,0.0,0.0,-0.015187983401119709,-0.0030932642985135317,0.005652198102325201,0.9975842237472534,-0.045346468687057495,-0.052227579057216644,0.006470601074397564
335.0,0.0,0.0,0.0,0.0,0.0,0.0,-0.016420459374785423,-0.002265314804390073,0.011264357715845108,0.9974637031555176,-0.046614401042461395,-0.05344457924365997,0.006098034325987101
336.0,0.0,0.0,0.0,0.0,0.0,0.0,-0.021050453186035156,-0.002770413411781192,0.011262481100857258,0.9973222613334656,-0.04820955544710159,-0.054639652371406555,0.006227935664355755
337.0,0.0,0.0,0.0,0.0,0.0,0.0,-0.02178098075091839,-0.0023737349547445774,0.008878103457391262,0.9972133040428162,-0.04926301911473274,-0.0556461364030838,0.006507699843496084
338.0,0.0,0.0,0.0,0.0,0.0,0.0,-0.020579591393470764,-0.0035579255782067776,0.008470754139125347,0.9971672296524048,-0.04990987479686737,-0.05589517951011658,0.006512355525046587
339.0,0.0,0.0,0.0,0.0,0.0,0.0,-0.017597254365682602,-0.0017946591833606362,0.006681939586997032,0.9971223473548889,-0.05070515722036362,-0.05591095983982086,0.007075763773173094
340.0,0.0,0.0,0.0,0.0,0.0,0.0,-0.014906419441103935,0.001197220291942358,0.010951302014291286,0.9971303939819336,-0.05092015489935875,-0.05551842600107193,0.007476473227143288
341.0,0.0,0.0,0.0,0.0,0.0,0.0,-0.012596840038895607,-0.0024064010940492153,0.01318405382335186,0.997211754322052,-0.050351984798908234,-0.05458073318004608,0.007388742174953222
342.0,0.0,0.0,0.0,0.0,0.0,0.0,-0.00582301476970315,-0.010582701303064823,0.007238022051751614,0.997316837310791,-0.04952104389667511,-0.05347750708460808,0.0068617919459939
343.0,0.0,0.0,0.0,0.0,0.0,0.0,-0.001089938567019999,-0.013672128319740295,-0.004361766390502453,0.9972987771034241,-0.050238270312547684,-0.05308470129966736,0.007307758554816246
344.0,0.0,0.0,0.0,0.0,0.0,0.0,0.0005780717474408448,-0.015314234420657158,-0.004223082214593887,0.9972561597824097,-0.05085853487253189,-0.05326242744922638,0.007542391307651997
345.0,0.0,0.0,0.0,0.0,0.0,0.0,-0.0010113432072103024,-0.009342738427221775,-0.00018971732060890645,0.9972136616706848,-0.05088607221841812,-0.05396824702620506,0.007941334508359432
346.0,0.0,0.0,0.0,0.0,0.0,0.0,-0.0067201340571045876,0.00047314318362623453,0.009961147792637348,0.9971485137939453,-0.05129918456077576,-0.05453503131866455,0.009444487281143665
347.0,0.0,0.0,0.0,0.0,0.0,0.0,-0.014951350167393684,0.007239988539367914,0.022555846720933914,0.9971534609794617,-0.05092207342386246,-0.05456659197807312,0.010716033168137074
348.0,0.0,0.0,0.0,0.0,0.0,0.0,-0.02006693370640278,0.00803404301404953,0.022528275847434998,0.9972391724586487,-0.049743685871362686,-0.053897708654403687,0.011608957313001156
349.0,0.0,0.0,0.0,0.0,0.0,0.0,-0.016831735149025917,0.006053172517567873,0.010735380463302135,0.9973813891410828,-0.04818388819694519,-0.052601806819438934,0.011912348680198193
350.0,0.0,0.0,0.0,0.0,0.0,0.0,-0.011812872253358364,0.0034380306024104357,-0.003146674484014511,0.9975466728210449,-0.046102460473775864,-0.05113939195871353,0.012651661410927773
351.0,0.0,0.0,0.0,0.0,0.0,0.0,-0.004930031020194292,0.001584981451742351,-0.012832802720367908,0.9977065920829773,-0.043786533176898956,-0.04980532079935074,0.013563343323767185
352.0,0.0,0.0,0.0,0.0,0.0,0.0,-0.006127296481281519,0.0006764516001567245,-0.01884106919169426,0.9978011846542358,-0.04211697727441788,-0.04894031584262848,0.01496046967804432
353.0,0.0,0.0,0.0,0.0,0.0,0.0,-0.005884838290512562,0.004995361901819706,-0.01629919558763504,0.9978378415107727,-0.041192639619112015,-0.04825344309210777,0.017162399366497993
354.0,0.0,0.0,0.0,0.0,0.0,0.0,-0.003448102157562971,0.0046134330332279205,-0.014230483211576939,0.9979067444801331,-0.03964605927467346,-0.047540511935949326,0.018717831000685692
355.0,0.0,0.0,0.0,0.0,0.0,0.0,-0.003396387677639723,0.002130000153556466,-0.019798340275883675,0.9979742765426636,-0.03773362562060356,-0.04716048389673233,0.019990971311926842
356.0,0.0,0.0,0.0,0.0,0.0,0.0,-0.004245893098413944,0.0005843070684932172,-0.015489502809941769,0.9979937076568604,-0.0363578163087368,-0.04700816422700882,0.021840378642082214
357.0,0.0,0.0,0.0,0.0,0.0,0.0,-0.009212063625454903,0.005109379533678293,-0.000305852823657915,0.9980306625366211,-0.0355478934943676,-0.04605655372142792,0.0234548170119524
358.0,0.0,0.0,0.0,0.0,0.0,0.0,-0.008898033760488033,0.004331063479185104,0.0038224069867283106,0.998124897480011,-0.03408273309469223,-0.04470772668719292,0.024218358099460602
359.0,0.0,0.0,0.0,0.0,0.0,0.0,-0.0066384184174239635,0.0050582075491547585,0.012114275246858597,0.9982510805130005,-0.032429397106170654,-0.04288627579808235,0.02457423321902752
360.0,0.0,0.0,0.0,0.0,0.0,0.0,-0.002211229410022497,0.004127801861613989,0.010916832834482193,0.9983312487602234,-0.0318327322602272,-0.04114494472742081,0.025072436779737473
361.0,0.0,0.0,0.0,0.0,0.0,0.0,0.0014268752420321107,0.001959332963451743,0.012322825379669666,0.9983699321746826,-0.03137758746743202,-0.03982449322938919,0.026212794706225395
362.0,0.0,0.0,0.0,0.0,0.0,0.0,-0.0016285571036860347,0.0017593888333067298,0.011527633294463158,0.9984208345413208,-0.030664687976241112,-0.038593120872974396,0.026946652680635452
363.0,0.0,0.0,0.0,0.0,0.0,0.0,-0.0006033331737853587,0.0036178268492221832,0.016691531985998154,0.9984620213508606,-0.03018542006611824,-0.03735605254769325,0.0276943352073431
364.0,0.0,0.0,0.0,0.0,0.0,0.0,-0.0004330115334596485,0.005072121508419514,0.017022261396050453,0.9984703660011292,-0.029901335015892982,-0.03632808476686478,0.029039135202765465
365.0,0.0,0.0,0.0,0.0,0.0,0.0,0.00037106769741512835,0.004950430244207382,0.008016752079129219,0.9985308051109314,-0.02872099168598652,-0.035237621515989304,0.029490800574421883
366.0,0.0,0.0,0.0,0.0,0.0,0.0,0.004073106683790684,0.00442570960149169,-0.005961050279438496,0.9985665678977966,-0.02803897112607956,-0.0345773845911026,0.02971566654741764
367.0,0.0,0.0,0.0,0.0,0.0,0.0,-0.0003795893571805209,-0.0003595682792365551,-0.011978081427514553,0.998622715473175,-0.027272798120975494,-0.033564187586307526,0.02970566786825657
368.0,0.0,0.0,0.0,0.0,0.0,0.0,0.001440305495634675,0.002179504605010152,-0.017185242846608162,0.9986487627029419,-0.026723260059952736,-0.03279946371912956,0.030179599300026894
369.0,0.0,0.0,0.0,0.0,0.0,0.0,0.0008582239970564842,0.007528832647949457,-0.01732359454035759,0.9986286163330078,-0.02678505890071392,-0.03229041397571564,0.03132062777876854
370.0,0.0,0.0,0.0,0.0,0.0,0.0,-0.0032395515590906143,0.010439922101795673,-0.013532808981835842,0.9986380338668823,-0.02611025609076023,-0.031808607280254364,0.03207225352525711
371.0,0.0,0.0,0.0,0.0,0.0,0.0,-0.0031745729502290487,0.010625936090946198,-0.0125059112906456,0.9986473321914673,-0.02579268254339695,-0.030863072723150253,0.03295092657208443
372.0,0.0,0.0,0.0,0.0,0.0,0.0,-0.007093099877238274,0.009023072198033333,-0.017339300364255905,0.9987020492553711,-0.024951625615358353,-0.02927631512284279,0.033387698233127594
373.0,0.0,0.0,0.0,0.0,0.0,0.0,-0.008142814040184021,0.003809884889051318,-0.021938396617770195,0.9987954497337341,-0.024064380675554276,-0.026970671489834785,0.033184826374053955
374.0,0.0,0.0,0.0,0.0,0.0,0.0,0.0006721552927047014,-0.00039345433469861746,-0.024386657401919365,0.9988334774971008,-0.024062512442469597,-0.025205057114362717,0.03342900797724724
375.0,0.0,0.0,0.0,0.0,0.0,0.0,0.003696015803143382,-0.0040566446259617805,-0.020963823422789574,0.998806893825531,-0.024339187890291214,-0.024621495977044106,0.034441784024238586
376.0,0.0,0.0,0.0,0.0,0.0,0.0,0.0013341548619791865,-0.01072019524872303,-0.024151453748345375,0.9987960457801819,-0.02426563762128353,-0.024254662916064262,0.0350671224296093
377.0,0.0,0.0,0.0,0.0,0.0,0.0,0.0028427562210708857,-0.013591145165264606,-0.004363269545137882,0.9987845420837402,-0.0236525721848011,-0.02435431256890297,0.0357336550951004
378.0,0.0,0.0,0.0,0.0,0.0,0.0,0.0013235012302175164,-0.011232906021177769,0.03775942325592041,0.9987341165542603,-0.0235120952129364,-0.02532001957297325,0.036557652056217194
379.0,0.0,0.0,0.0,0.0,0.0,0.0,-0.006937733385711908,-0.0051506333984434605,0.04258136451244354,0.998674213886261,-0.023157013580203056,-0.02713761478662491,0.03711119666695595
380.0,0.0,0.0,0.0,0.0,0.0,0.0,-0.010333690792322159,0.00046995937009342015,0.03487041965126991,0.9986507296562195,-0.022872336208820343,-0.02850460074841976,0.03689611703157425
381.0,0.0,0.0,0.0,0.0,0.0,0.0,-0.010747327469289303,-0.00011890113091794774,0.029386645182967186,0.9986292719841003,-0.022776952013373375,-0.029329106211662292,0.03688882291316986
382.0,0.0,0.0,0.0,0.0,0.0,0.0,-0.008323471061885357,7.699793786741793e-05,0.023557348176836967,0.9986414313316345,-0.0226589348167181,-0.0293563324958086,0.03660964593291283
383.0,0.0,0.0,0.0,0.0,0.0,0.0,-0.007915561087429523,-0.0004568017029669136,0.012180219404399395,0.998698890209198,-0.022239474579691887,-0.028768910095095634,0.03575728461146355
384.0,0.0,0.0,0.0,0.0,0.0,0.0,-0.006058668252080679,0.0007281274884007871,0.0013430635444819927,0.9987156391143799,-0.02192564494907856,-0.028427962213754654,0.035755280405282974
385.0,0.0,0.0,0.0,0.0,0.0,0.0,-0.008860515430569649,0.007929820567369461,0.005859664641320705,0.9987250566482544,-0.021677590906620026,-0.027893466874957085,0.0360654853284359
386.0,0.0,0.0,0.0,0.0,0.0,0.0,-0.00835280492901802,0.010702740401029587,0.004161108750849962,0.9987528920173645,-0.02108428254723549,-0.027059314772486687,0.03627770021557808
387.0,0.0,0.0,0.0,0.0,0.0,0.0,-0.005639644805341959,0.011910701170563698,-0.0006140511250123382,0.9988197684288025,-0.020911550149321556,-0.02523605152964592,0.03584764152765274
388.0,0.0,0.0,0.0,0.0,0.0,0.0,-0.0009228361886925995,0.012196464464068413,0.002214571228250861,0.9989385008811951,-0.020471563562750816,-0.022675402462482452,0.03447810932993889
389.0,0.0,0.0,0.0,0.0,0.0,0.0,0.003458745311945677,0.011332878842949867,0.01060154102742672,0.9990495443344116,-0.020173655822873116,-0.019513782113790512,0.033351775258779526
390.0,0.0,0.0,0.0,0.0,0.0,0.0,0.007553270552307367,0.00693307351320982,0.009856782853603363,0.9991444945335388,-0.01996586099267006,-0.01670696958899498,0.03213496133685112
391.0,0.0,0.0,0.0,0.0,0.0,0.0,0.010850069113075733,0.005804251413792372,0.011263031512498856,0.9992542266845703,-0.019340205937623978,-0.014377439394593239,0.030173351988196373
392.0,0.0,0.0,0.0,0.0,0.0,0.0,0.015418696217238903,0.0009259481448680162,0.012498410418629646,0.9993454813957214,-0.018002888187766075,-0.0130762392655015,0.028524773195385933
393.0,0.0,0.0,0.0,0.0,0.0,0.0,0.009458704851567745,-0.004985023755580187,0.011506734415888786,0.9994239807128906,-0.016031887382268906,-0.012682890519499779,0.027091093361377716
394.0,0.0,0.0,0.0,0.0,0.0,0.0,0.003682998940348625,-0.008295540697872639,0.0036703103687614202,0.9994673728942871,-0.014669990167021751,-0.013073855079710484,0.02605675719678402
395.0,0.0,0.0,0.0,0.0,0.0,0.0,-0.006447906605899334,-0.005082128569483757,-0.011585754342377186,0.9994649887084961,-0.014165908098220825,-0.013432123698294163,0.026244662702083588
396.0,0.0,0.0,0.0,0.0,0.0,0.0,-0.016950109973549843,0.0027998897712677717,-0.011812643148005009,0.9994965195655823,-0.013199125416576862,-0.012378621846437454,0.026066606864333153
397.0,0.0,0.0,0.0,0.0,0.0,0.0,-0.017342664301395416,0.006081020925194025,-0.009313496761023998,0.9996318221092224,-0.010590923018753529,-0.009160859510302544,0.02324361726641655
398.0,0.0,0.0,0.0,0.0,0.0,0.0,-0.024458156898617744,0.00666092662140727,-0.007883655838668346,0.999749481678009,-0.007461982779204845,-0.004630983807146549,0.020587783306837082
399.0,0.0,0.0,0.0,0.0,0.0,0.0,0.0009666289552114904,0.009349401108920574,-0.012232871726155281,0.9997811913490295,-0.005662732291966677,0.0001426488597644493,0.0201424453407526
400.0,0.0,0.0,0.0,0.0,0.0,0.0,0.011161976493895054,0.01134752668440342,-0.023091763257980347,0.9997612833976746,-0.003815866308286786,0.0048079947009682655,0.020969389006495476
401.0,0.0,0.0,0.0,0.0,0.0,0.0,0.02024625800549984,0.017901577055454254,-0.026071764528751373,0.9997007846832275,-0.0014070523902773857,0.009990070015192032,0.022291090339422226
402.0,0.0,0.0,0.0,0.0,0.0,0.0,0.025940606370568275,0.019218208268284798,-0.025674382224678993,0.9995918869972229,0.0013379603624343872,0.015327502973377705,0.02407355047762394
403.0,0.0,0.0,0.0,0.0,0.0,0.0,0.03527960553765297,0.02455543726682663,-0.015622326172888279,0.9994077682495117,0.003773264354094863,0.021372593939304352,0.026709789410233498
404.0,0.0,0.0,0.0,0.0,0.0,0.0,0.05027139559388161,0.02094002440571785,-0.013828346505761147,0.9992095828056335,0.00642580958083272,0.026574894785881042,0.028859343379735947
405.0,0.0,0.0,0.0,0.0,0.0,0.0,0.05884099751710892,0.009590831585228443,-0.015329071320593357,0.9989988207817078,0.009122348390519619,0.031325843185186386,0.03061627596616745
406.0,0.0,0.0,0.0,0.0,0.0,0.0,0.058639705181121826,0.0018612021813169122,-0.014407829381525517,0.9987714886665344,0.011204470880329609,0.03524837642908096,0.0329841673374176
407.0,0.0,0.0,0.0,0.0,0.0,0.0,0.0572272352874279,-0.002106267027556896,-0.0037320496048778296,0.9986083507537842,0.01282548252493143,0.03779357671737671,0.03447757661342621
408.0,0.0,0.0,0.0,0.0,0.0,0.0,0.0471724271774292,-0.004556207451969385,0.0007384842028841376,0.9985131621360779,0.012704292312264442,0.03888881579041481,0.03603671118617058
409.0,0.0,0.0,0.0,0.0,0.0,0.0,0.03252913057804108,-0.0029301161412149668,0.01914849504828453,0.998474657535553,0.012478956021368504,0.03882092610001564,0.0372280552983284
410.0,0.0,0.0,0.0,0.0,0.0,0.0,0.01892736181616783,-0.0012058778665959835,0.025461414828896523,0.9985088109970093,0.012725137174129486,0.037540990859270096,0.03755013644695282
411.0,0.0,0.0,0.0,0.0,0.0,0.0,-0.00041406744276173413,-0.000677766976878047,0.037347033619880676,0.9986110925674438,0.014012444764375687,0.03471845015883446,0.0370725579559803
412.0,0.0,0.0,0.0,0.0,0.0,0.0,-0.016784081235527992,-0.003571955254301429,0.038782548159360886,0.9987706542015076,0.014558674767613411,0.031776536256074905,0.03516297787427902
413.0,0.0,0.0,0.0,0.0,0.0,0.0,-0.033479295670986176,-0.014937804080545902,0.005824419669806957,0.9989205002784729,0.013735215179622173,0.030064182355999947,0.032645586878061295
414.0,0.0,0.0,0.0,0.0,0.0,0.0,-0.03219250589609146,-0.011497197672724724,-0.008181911893188953,0.9990083575248718,0.013120323419570923,0.02898549474775791,0.03115832805633545
415.0,0.0,0.0,0.0,0.0,0.0,0.0,-0.01610381156206131,-0.007463394198566675,-0.004039288032799959,0.999103307723999,0.013248150236904621,0.027536770328879356,0.029312076047062874
416.0,0.0,0.0,0.0,0.0,0.0,0.0,0.00168716034386307,-0.0029239128343760967,-0.018096286803483963,0.9992644190788269,0.013667812570929527,0.024124231189489365,0.026501871645450592
417.0,0.0,0.0,0.0,0.0,0.0,0.0,0.008440513163805008,0.002541579771786928,-0.03327466547489166,0.9994582533836365,0.01692114770412445,0.018003806471824646,0.021750783547759056
418.0,0.0,0.0,0.0,0.0,0.0,0.0,0.006749304942786694,0.0012428100453689694,-0.037877157330513,0.9995612502098083,0.021653011441230774,0.009690177626907825,0.017757665365934372
419.0,0.0,0.0,0.0,0.0,0.0,0.0,0.0032791527919471264,-0.007127530872821808,-0.049911290407180786,0.9995220303535461,0.02726951614022255,-0.0009362706914544106,0.014554050751030445
420.0,0.0,0.0,0.0,0.0,0.0,0.0,-0.0018733297474682331,-0.018565712496638298,-0.07032493501901627,0.9992648959159851,0.033132944256067276,-0.013127515092492104,0.01414521224796772
421.0,0.0,0.0,0.0,0.0,0.0,0.0,-0.00980154238641262,-0.014102589339017868,-0.06405970454216003,0.998894989490509,0.03663381561636925,-0.024582311511039734,0.01624399982392788
422.0,0.0,0.0,0.0,0.0,0.0,0.0,-0.01885545812547207,0.002714387606829405,-0.03500641882419586,0.9984179139137268,0.04016483947634697,-0.03456248715519905,0.01885751076042652
423.0,0.0,0.0,0.0,0.0,0.0,0.0,-0.02668697014451027,-0.004070065449923277,-0.03200559318065643,0.9979102611541748,0.043657440692186356,-0.042940765619277954,0.02064567431807518
424.0,0.0,0.0,0.0,0.0,0.0,0.0,-0.03378552570939064,0.00327352830208838,-0.0028221518732607365,0.9975154399871826,0.04503735899925232,-0.04900194704532623,0.02308826893568039
425.0,0.0,0.0,0.0,0.0,0.0,0.0,-0.03463122993707657,0.022196399047970772,0.05475025996565819,0.9971694946289062,0.045036494731903076,-0.05414872244000435,0.02636396698653698
426.0,0.0,0.0,0.0,0.0,0.0,0.0,-0.028238780796527863,0.01813136227428913,0.06717013567686081,0.9969236254692078,0.0435248427093029,-0.05841800197958946,0.028929926455020905
427.0,0.0,0.0,0.0,0.0,0.0,0.0,-0.039339713752269745,0.005760363768786192,0.052936654537916183,0.996795654296875,0.04111888259649277,-0.06131156533956528,0.030813705176115036
428.0,0.0,0.0,0.0,0.0,0.0,0.0,-0.02206714265048504,-0.0017708434024825692,0.05167737603187561,0.9967086315155029,0.0381062850356102,-0.06353561580181122,0.03291557356715202
429.0,0.0,0.0,0.0,0.0,0.0,0.0,-0.03154700621962547,0.002905491506680846,0.04755943641066551,0.9966518878936768,0.03476431220769882,-0.06562990695238113,0.034217219799757004
430.0,0.0,0.0,0.0,0.0,0.0,0.0,-0.024978846311569214,0.00381982559338212,0.043796442449092865,0.9965991973876953,0.03203647583723068,-0.0673629641532898,0.03505004942417145
431.0,0.0,0.0,0.0,0.0,0.0,0.0,-0.017313864082098007,0.01578119955956936,0.037513189017772675,0.9965711236000061,0.02873256988823414,-0.06938839703798294,0.03475935012102127
432.0,0.0,0.0,0.0,0.0,0.0,0.0,-0.014894317835569382,0.0306021049618721,0.039147548377513885,0.9965658187866211,0.024807529523968697,-0.07137949019670486,0.033866941928863525
433.0,0.0,0.0,0.0,0.0,0.0,0.0,-0.011626210063695908,0.026707855984568596,0.02079804241657257,0.9965746402740479,0.02134576067328453,-0.072855643928051,0.03282998129725456
434.0,0.0,0.0,0.0,0.0,0.0,0.0,-0.009536570869386196,0.02423533797264099,0.008402167819440365,0.996579647064209,0.018130388110876083,-0.07418251782655716,0.03162211552262306
435.0,0.0,0.0,0.0,0.0,0.0,0.0,-0.004873559344559908,0.029769012704491615,0.003916557412594557,0.9966276288032532,0.015704074874520302,-0.0750076025724411,0.029368894174695015
436.0,0.0,0.0,0.0,0.0,0.0,0.0,-0.0021543544717133045,0.026998694986104965,-0.004832147620618343,0.9967084527015686,0.014259765855967999,-0.07507453858852386,0.027118666097521782
437.0,0.0,0.0,0.0,0.0,0.0,0.0,-0.0004059078055433929,0.028446724638342857,-0.001351213431917131,0.9967849850654602,0.012658718042075634,-0.07475738227367401,0.025938229635357857
438.0,0.0,0.0,0.0,0.0,0.0,0.0,-0.0036793388426303864,0.028857992962002754,-0.003688050899654627,0.9969633221626282,0.011222775094211102,-0.07338091731071472,0.023541050031781197
439.0,0.0,0.0,0.0,0.0,0.0,0.0,-0.0013520896900445223,0.025554364547133446,-0.01240977831184864,0.9971659779548645,0.009787729941308498,-0.07105596363544464,0.022739829495549202
440.0,0.0,0.0,0.0,0.0,0.0,0.0,-0.002368350513279438,0.02833319827914238,-0.006981282029300928,0.9973727464675903,0.007970021106302738,-0.068379707634449,0.0225920882076025
441.0,0.0,0.0,0.0,0.0,0.0,0.0,0.008408949710428715,0.026704957708716393,0.0016295755049213767,0.9975975155830383,0.006768472027033567,-0.06555931270122528,0.021372435614466667
442.0,0.0,0.0,0.0,0.0,0.0,0.0,0.012163559906184673,0.020898720249533653,-0.000356747506884858,0.9978174567222595,0.006352059543132782,-0.06276684254407883,0.01951630786061287
443.0,0.0,0.0,0.0,0.0,0.0,0.0,0.007769647520035505,0.010947066359221935,-0.0012002600124105811,0.9979895353317261,0.006007373332977295,-0.06070082262158394,0.01726353168487549
444.0,0.0,0.0,0.0,0.0,0.0,0.0,0.00809425674378872,0.007019811775535345,0.0021192035637795925,0.9980785846710205,0.004664462059736252,-0.059938084334135056,0.015008009038865566
445.0,0.0,0.0,0.0,0.0,0.0,0.0,0.00407529016956687,0.01185631100088358,0.0014899038942530751,0.9981549978256226,0.003583920421078801,-0.05938497185707092,0.012139634229242802
446.0,0.0,0.0,0.0,0.0,0.0,0.0,0.0014229337684810162,0.016810860484838486,0.0025037298910319805,0.9982795715332031,0.003239968791604042,-0.05792316421866417,0.008584600873291492
447.0,0.0,0.0,0.0,0.0,0.0,0.0,0.010930035263299942,0.01955062709748745,0.001472925883717835,0.998375415802002,0.004231940023601055,-0.05657748132944107,0.005268202628940344
448.0,0.0,0.0,0.0,0.0,0.0,0.0,0.022110119462013245,0.015446635894477367,-0.011994482949376106,0.9984514117240906,0.005460577551275492,-0.055239487439394,0.00378633220680058
449.0,0.0,0.0,0.0,0.0,0.0,0.0,0.03134883567690849,0.007788420654833317,-0.029339756816625595,0.9984671473503113,0.006281555630266666,-0.05483534559607506,0.004119265824556351
450.0,0.0,0.0,0.0,0.0,0.0,0.0,0.042426224797964096,0.008986986242234707,-0.029878107830882072,0.9984536170959473,0.007685501594096422,-0.05488032102584839,0.004520847462117672
451.0,0.0,0.0,0.0,0.0,0.0,0.0,0.04656052216887474,0.010083646513521671,-0.021957170218229294,0.9983965158462524,0.009465734474360943,-0.055541399866342545,0.005495477933436632
452.0,0.0,0.0,0.0,0.0,0.0,0.0,0.04586776718497276,0.002618765691295266,-0.015792645514011383,0.9983867406845093,0.011564821004867554,-0.05525653809309006,0.006152847316116095
453.0,0.0,0.0,0.0,0.0,0.0,0.0,0.04057488590478897,0.005961042363196611,-0.0022453146521002054,0.9984557628631592,0.011768643744289875,-0.05381923168897629,0.007188912946730852
454.0,0.0,0.0,0.0,0.0,0.0,0.0,0.034555014222860336,0.004349934868514538,0.008659145794808865,0.9986202120780945,0.01043111365288496,-0.05092376470565796,0.0074788108468055725
455.0,0.0,0.0,0.0,0.0,0.0,0.0,0.02130410633981228,0.006642792373895645,0.03130356967449188,0.9988232851028442,0.00990536529570818,-0.047116719186306,0.005865541752427816
456.0,0.0,0.0,0.0,0.0,0.0,0.0,0.008787143044173717,-0.0011318974429741502,0.015714528039097786,0.9990178942680359,0.009930362924933434,-0.042944781482219696,0.004562428221106529
457.0,0.0,0.0,0.0,0.0,0.0,0.0,0.009256064891815186,-0.016725586727261543,-0.005111108534038067,0.9992032051086426,0.009274817071855068,-0.03858150914311409,0.004333416931331158
458.0,0.0,0.0,0.0,0.0,0.0,0.0,0.003823723876848817,-0.020591160282492638,-0.0067682648077607155,0.9993858933448792,0.008487234823405743,-0.03377731144428253,0.003908293787389994
459.0,0.0,0.0,0.0,0.0,0.0,0.0,-0.016417525708675385,-0.0004511370789259672,0.017232095822691917,0.9995976090431213,0.007920069620013237,-0.027193402871489525,0.0016491403803229332
460.0,0.0,0.0,0.0,0.0,0.0,0.0,-0.02497648447751999,0.002696932526305318,0.04775414615869522,0.9997723698616028,0.007803667802363634,-0.019843565300107002,-0.0007817138684913516
461.0,0.0,0.0,0.0,0.0,0.0,0.0,-0.005721621681004763,-0.00047716728295199573,0.027297288179397583,0.9998793601989746,0.0091056227684021,-0.01207396574318409,-0.003628101199865341
462.0,0.0,0.0,0.0,0.0,0.0,0.0,-0.008526395075023174,-0.007930882275104523,0.013910170644521713,0.9998866319656372,0.012313873507082462,-0.004837025888264179,-0.00722575094550848
463.0,0.0,0.0,0.0,0.0,0.0,0.0,-0.009641796350479126,-0.005852981004863977,0.021978463977575302,0.9998369812965393,0.014549179933965206,0.002185304183512926,-0.010486424900591373
464.0,0.0,0.0,0.0,0.0,0.0,0.0,0.007559299934655428,-0.03105691447854042,-0.04170357435941696,0.999750554561615,0.01631353236734867,0.00804371852427721,-0.012963036075234413
465.0,0.0,0.0,0.0,0.0,0.0,0.0,0.004751955159008503,-0.03129877895116806,-0.041913989931344986,0.9996330142021179,0.01861368864774704,0.012935995124280453,-0.014847631566226482
466.0,0.0,0.0,0.0,0.0,0.0,0.0,0.026594510301947594,-0.031127355992794037,-0.046397771686315536,0.9995467066764832,0.0198366679251194,0.01640048809349537,-0.015627607703208923
467.0,0.0,0.0,0.0,0.0,0.0,0.0,0.03909904509782791,-0.02940938249230385,-0.055529236793518066,0.9995255470275879,0.02024523727595806,0.01826353184878826,-0.014338337816298008
468.0,0.0,0.0,0.0,0.0,0.0,0.0,0.04006119817495346,-0.022626006975769997,-0.0646950900554657,0.9995627999305725,0.019409215077757835,0.01810832880437374,-0.013040492311120033
469.0,0.0,0.0,0.0,0.0,0.0,0.0,0.03435206785798073,-0.013930559158325195,-0.031998567283153534,0.9996109008789062,0.018259258940815926,0.01725056581199169,-0.0121505968272686
470.0,0.0,0.0,0.0,0.0,0.0,0.0,0.028095515444874763,-0.008378081023693085,-0.0037884972989559174,0.9996606111526489,0.017651543021202087,0.015640243887901306,-0.01108602061867714
471.0,0.0,0.0,0.0,0.0,0.0,0.0,0.02042471244931221,-0.012049906887114048,-0.009578983299434185,0.999735414981842,0.017213838174939156,0.012262679636478424,-0.009104602038860321
472.0,0.0,0.0,0.0,0.0,0.0,0.0,0.030122078955173492,-0.013366211205720901,-0.013826766051352024,0.999799370765686,0.01699553243815899,0.007981422357261181,-0.007024131249636412
473.0,0.0,0.0,0.0,0.0,0.0,0.0,0.018308715894818306,-0.01250999141484499,0.006822842638939619,0.9998413920402527,0.01626402698457241,0.004283050540834665,-0.005867847707122564
474.0,0.0,0.0,0.0,0.0,0.0,0.0,0.01793748140335083,-0.016455577686429024,0.0068062907084822655,0.9998717904090881,0.015217280015349388,0.0005055195069871843,-0.005032192450016737
475.0,0.0,0.0,0.0,0.0,0.0,0.0,0.024825122207403183,-0.011061856523156166,0.01240015123039484,0.9998831748962402,0.014352921396493912,-0.002751212101429701,-0.004614328034222126
476.0,0.0,0.0,0.0,0.0,0.0,0.0,0.02072794921696186,-0.011527678929269314,0.009392780251801014,0.9998831152915955,0.013365008868277073,-0.005763341672718525,-0.004753574728965759
477.0,0.0,0.0,0.0,0.0,0.0,0.0,0.03628365695476532,-0.015054510906338692,-0.014205291867256165,0.9998563528060913,0.013173355720937252,-0.009587734006345272,-0.004725620150566101
478.0,0.0,0.0,0.0,0.0,0.0,0.0,0.02937704138457775,-0.011986336670815945,-0.00587115902453661,0.9998306035995483,0.011868110857903957,-0.013115151785314083,-0.005171412602066994
479.0,0.0,0.0,0.0,0.0,0.0,0.0,0.008593794889748096,-0.005546524189412594,0.012279865331947803,0.9998216032981873,0.009641628712415695,-0.015694016590714455,-0.004277834668755531
480.0,0.0,0.0,0.0,0.0,0.0,0.0,0.009406482800841331,-0.00036534981336444616,0.013699538074433804,0.9997998476028442,0.008279668167233467,-0.017833858728408813,-0.003817218355834484
481.0,0.0,0.0,0.0,0.0,0.0,0.0,-0.0003825377207249403,-0.0009069626685231924,0.011455266736447811,0.9997780919075012,0.007041244301944971,-0.019425785169005394,-0.004187047015875578
482.0,0.0,0.0,0.0,0.0,0.0,0.0,0.005078630521893501,-0.005976509768515825,0.005770795047283173,0.9997504949569702,0.006495799403637648,-0.020692337304353714,-0.005355465691536665
483.0,0.0,0.0,0.0,0.0,0.0,0.0,0.007082363590598106,-0.01583191566169262,-0.006193108391016722,0.9997088313102722,0.006208479404449463,-0.02214490808546543,-0.007338815368711948
484.0,0.0,0.0,0.0,0.0,0.0,0.0,0.0019012658158317208,-0.018247276544570923,-0.004522253759205341,0.9996736645698547,0.005072323139756918,-0.023577598854899406,-0.008461332879960537
485.0,0.0,0.0,0.0,0.0,0.0,0.0,-0.002494107000529766,-0.01228330098092556,-0.006153605878353119,0.9996358156204224,0.0030548213981091976,-0.02541287988424301,-0.00860284361988306
486.0,0.0,0.0,0.0,0.0,0.0,0.0,-0.004271312616765499,-0.004772425163537264,-0.0009457770502194762,0.9995800852775574,0.0011815816396847367,-0.027526259422302246,-0.00900640245527029
487.0,0.0,0.0,0.0,0.0,0.0,0.0,-0.009289205074310303,0.0014502641279250383,0.014342761598527431,0.9995203614234924,0.00042939282138831913,-0.0295026283711195,-0.009453842416405678
488.0,0.0,0.0,0.0,0.0,0.0,0.0,-0.01241807546466589,0.002519560046494007,0.01993885636329651,0.9994653463363647,-0.0002801170921884477,-0.031220445409417152,-0.009746711701154709
489.0,0.0,0.0,0.0,0.0,0.0,0.0,-0.010975334793329239,0.0068045565858483315,0.017145518213510513,0.999390721321106,-0.0014301666524261236,-0.03330867365002632,-0.010358056053519249
490.0,0.0,0.0,0.0,0.0,0.0,0.0,-0.00613552238792181,0.007096822373569012,0.009033989161252975,0.9993122816085815,-0.0009810985065996647,-0.03511127829551697,-0.011901868507266045
491.0,0.0,0.0,0.0,0.0,0.0,0.0,-0.0023846523836255074,0.002639913000166416,-0.0007027058745734394,0.9992339015007019,-0.0006513216649182141,-0.03707742318511009,-0.012518802657723427
492.0,0.0,0.0,0.0,0.0,0.0,0.0,-0.009864917024970055,0.004112245049327612,-0.010616499930620193,0.9991804361343384,-0.002266878029331565,-0.03871668875217438,-0.011617733165621758
493.0,0.0,0.0,0.0,0.0,0.0,0.0,-0.010693816468119621,0.018151139840483665,0.005878663156181574,0.9991424679756165,-0.002399119548499584,-0.03978694602847099,-0.01121971383690834
494.0,0.0,0.0,0.0,0.0,0.0,0.0,-0.012232990004122257,0.018853073939681053,0.010424530133605003,0.99910569190979,-0.0025730158668011427,-0.04073422774672508,-0.01105180848389864
495.0,0.0,0.0,0.0,0.0,0.0,0.0,-0.013892071321606636,0.012687823735177517,0.0015082412865012884,0.9990799427032471,-0.0033237170428037643,-0.04126143828034401,-0.011243765242397785
496.0,0.0,0.0,0.0,0.0,0.0,0.0,-0.005887715145945549,0.01586407981812954,0.0022524907253682613,0.9990507960319519,-0.0031299118418246508,-0.041726693511009216,-0.012129307724535465
497.0,0.0,0.0,0.0,0.0,0.0,0.0,-0.004202560521662235,0.011734318919479847,0.0016226102598011494,0.9990216493606567,-0.0033038929104804993,-0.04217224568128586,-0.01290051732212305
498.0,0.0,0.0,0.0,0.0,0.0,0.0,0.0009197045001201332,0.010933547280728817,-0.008144930005073547,0.9990109801292419,-0.0037914393469691277,-0.04232300817966461,-0.013125453144311905
499.0,0.0,0.0,0.0,0.0,0.0,0.0,0.007002656348049641,0.011512326076626778,-0.0012158273020759225,0.9989968538284302,-0.003314582398161292,-0.042571984231472015,-0.013497336767613888
500.0,0.0,0.0,0.0,0.0,0.0,0.0,0.0014355346793308854,0.008776888251304626,0.0034181929659098387,0.9990026354789734,-0.0028737527318298817,-0.042245861142873764,-0.014196435920894146
501.0,0.0,0.0,0.0,0.0,0.0,0.0,0.0006742169498465955,0.009543170221149921,0.00884513184428215,0.9990177750587463,-0.0032196270767599344,-0.041799332946538925,-0.014349418692290783
502.0,0.0,0.0,0.0,0.0,0.0,0.0,0.006218719761818647,0.007399098947644234,0.010687061585485935,0.9990500211715698,-0.004105635918676853,-0.04124416038393974,-0.01347929984331131
503.0,0.0,0.0,0.0,0.0,0.0,0.0,0.013221755623817444,0.0025754855014383793,-0.0015893846284598112,0.999072253704071,-0.004118438810110092,-0.04077911004424095,-0.013221299275755882
504.0,0.0,0.0,0.0,0.0,0.0,0.0,0.015814349055290222,-0.0013507022522389889,-0.0060577611438930035,0.999093234539032,-0.0035243253223598003,-0.04040773585438728,-0.01295565813779831
505.0,0.0,0.0,0.0,0.0,0.0,0.0,0.01767970621585846,-0.002193245105445385,-0.0018106931820511818,0.9991081357002258,-0.00318449130281806,-0.04024742171168327,-0.012376229278743267
506.0,0.0,0.0,0.0,0.0,0.0,0.0,0.01590169593691826,-0.0037469754461199045,-0.005871840752661228,0.9991569519042969,-0.0037558432668447495,-0.03970272094011307,-0.009757825173437595
507.0,0.0,0.0,0.0,0.0,0.0,0.0,0.011630605906248093,-1.5416022506542504e-05,0.006160518620163202,0.9991872906684875,-0.003235394600778818,-0.0391366146504879,-0.00910528376698494
508.0,0.0,0.0,0.0,0.0,0.0,0.0,0.014027499593794346,0.0026326209772378206,0.0058941952884197235,0.9992302656173706,-0.0020956636872142553,-0.03826984763145447,-0.008380098268389702
509.0,0.0,0.0,0.0,0.0,0.0,0.0,0.021773511543869972,0.0024786863941699266,0.007311657536774874,0.9992611408233643,-0.0007287914049811661,-0.03763489052653313,-0.007785594090819359
510.0,0.0,0.0,0.0,0.0,0.0,0.0,0.019203858450055122,0.003057310823351145,0.008459686301648617,0.9993005394935608,-0.00022258968965616077,-0.036467306315898895,-0.00831009354442358
511.0,0.0,0.0,0.0,0.0,0.0,0.0,0.011285173706710339,0.003182493383064866,0.013064074330031872,0.9993911385536194,0.0011331465793773532,-0.033957600593566895,-0.007964273914694786
512.0,0.0,0.0,0.0,0.0,0.0,0.0,0.012662781402468681,0.009066123515367508,0.012475792318582535,0.9994990229606628,0.002561066299676895,-0.03034367971122265,-0.008643625304102898
513.0,0.0,0.0,0.0,0.0,0.0,0.0,0.009377984330058098,0.007391851861029863,0.01888064108788967,0.9996128082275391,0.0048486036248505116,-0.025883864611387253,-0.009016449563205242
514.0,0.0,0.0,0.0,0.0,0.0,0.0,0.021344877779483795,0.0006074547418393195,-0.019120223820209503,0.9996857047080994,0.007650067564100027,-0.022213663905858994,-0.008790656924247742
515.0,0.0,0.0,0.0,0.0,0.0,0.0,0.03560005873441696,-0.012145841494202614,-0.0036018723621964455,0.9996976852416992,0.011201996356248856,-0.01961200125515461,-0.00972710084170103
516.0,0.0,0.0,0.0,0.0,0.0,0.0,0.04036423936486244,-0.02465437538921833,-0.014174194075167179,0.9996878504753113,0.01364003587514162,-0.018430981785058975,-0.009939044713973999
517.0,0.0,0.0,0.0,0.0,0.0,0.0,0.047145429998636246,-0.021096806973218918,-0.028506550937891006,0.9996522068977356,0.015201471745967865,-0.01954583264887333,-0.009093495085835457
518.0,0.0,0.0,0.0,0.0,0.0,0.0,0.036928270012140274,-0.01829402707517147,-0.01760943979024887,0.9996073842048645,0.016041429713368416,-0.021652856841683388,-0.007701672613620758
519.0,0.0,0.0,0.0,0.0,0.0,0.0,0.02463960088789463,-0.01417599804699421,-0.0018166886875405908,0.9995328783988953,0.017560215666890144,-0.023759780451655388,-0.007851077243685722
520.0,0.0,0.0,0.0,0.0,0.0,0.0,0.015365077182650566,-0.012901359237730503,0.00865384005010128,0.9994684457778931,0.01847011409699917,-0.025696096941828728,-0.007872232235968113
521.0,0.0,0.0,0.0,0.0,0.0,0.0,0.02142210304737091,-0.01735094003379345,-0.003098797984421253,0.9994244575500488,0.018170250579714775,-0.027745073661208153,-0.007157840300351381
522.0,0.0,0.0,0.0,0.0,0.0,0.0,0.026059912517666817,-0.016054466366767883,-0.0022257862146943808,0.9993857741355896,0.017766056582331657,-0.029622316360473633,-0.005942396819591522
523.0,0.0,0.0,0.0,0.0,0.0,0.0,0.023990044370293617,-0.012396086007356644,-0.005630070343613625,0.9993658661842346,0.016650822013616562,-0.031145144253969193,-0.004597302060574293
524.0,0.0,0.0,0.0,0.0,0.0,0.0,0.023061063140630722,-0.009938942268490791,-0.0038178402464836836,0.9993813037872314,0.014478554017841816,-0.03181113302707672,-0.003935670480132103
525.0,0.0,0.0,0.0,0.0,0.0,0.0,0.010260812938213348,-0.007150779012590647,0.003351805033162236,0.9994469285011292,0.011959463357925415,-0.030881477519869804,-0.0030705223325639963
526.0,0.0,0.0,0.0,0.0,0.0,0.0,0.002698873868212104,0.0006072873366065323,0.016620639711618423,0.9994953274726868,0.009896909818053246,-0.030107049271464348,-0.002250242279842496
527.0,0.0,0.0,0.0,0.0,0.0,0.0,-0.0008367589325644076,-0.00012887304183095694,0.014992479234933853,0.9995461702346802,0.008145102299749851,-0.028971929103136063,-0.0013811365934088826
528.0,0.0,0.0,0.0,0.0,0.0,0.0,0.0194317027926445,-0.0064810700714588165,-0.006307486444711685,0.9995666742324829,0.007647533901035786,-0.02836511842906475,-0.0019295605598017573
529.0,0.0,0.0,0.0,0.0,0.0,0.0,0.01796022430062294,-0.004494760651141405,-0.0003818632976617664,0.9995872974395752,0.0074857426807284355,-0.027529092505574226,-0.003433051286265254
530.0,0.0,0.0,0.0,0.0,0.0,0.0,0.016593540087342262,-0.008731242269277573,-0.018446682021021843,0.9996433258056641,0.005661739036440849,-0.025623468682169914,-0.00499310065060854
531.0,0.0,0.0,0.0,0.0,0.0,0.0,0.020896492525935173,-0.006492151878774166,-0.007534219417721033,0.999667763710022,0.0032376027666032314,-0.02490093931555748,-0.005826542153954506
532.0,0.0,0.0,0.0,0.0,0.0,0.0,0.017965925857424736,-0.002627254230901599,-0.0005237468867562711,0.9997014403343201,0.0007168094743974507,-0.0235018040984869,-0.006647840607911348
533.0,0.0,0.0,0.0,0.0,0.0,0.0,0.012297654524445534,0.005712095182389021,0.004705216269940138,0.9997378587722778,-0.0013231377815827727,-0.021647881716489792,-0.0073495544493198395
534.0,0.0,0.0,0.0,0.0,0.0,0.0,0.007671114057302475,0.00560356630012393,0.008932126685976982,0.9997566938400269,-0.0025935773737728596,-0.02019403874874115,-0.008503117598593235
535.0,0.0,0.0,0.0,0.0,0.0,0.0,0.005393252242356539,-0.0007246545283123851,-0.0007864795043133199,0.9997658729553223,-0.0034428515937179327,-0.018714046105742455,-0.010310969315469265
536.0,0.0,0.0,0.0,0.0,0.0,0.0,0.010201029479503632,-0.0020539818797260523,-0.0033600034657865763,0.9997686743736267,-0.004049831070005894,-0.017762066796422005,-0.01144169457256794
537.0,0.0,0.0,0.0,0.0,0.0,0.0,0.003555485513061285,0.001913167187012732,0.0056548877619206905,0.9997697472572327,-0.004393430892378092,-0.016501950100064278,-0.01299845241010189
538.0,0.0,0.0,0.0,0.0,0.0,0.0,-0.009775867685675621,0.002066703513264656,0.005044765304774046,0.9997671246528625,-0.0038882482331246138,-0.014877873472869396,-0.015149248763918877
539.0,0.0,0.0,0.0,0.0,0.0,0.0,-0.008621484972536564,0.0030942894518375397,0.004874948412179947,0.9997509717941284,-0.00259577389806509,-0.013960201293230057,-0.017219889909029007
540.0,0.0,0.0,0.0,0.0,0.0,0.0,-0.00844284612685442,0.00475615868344903,0.00558464415371418,0.9997138381004333,-0.0003250726731494069,-0.01302619744092226,-0.02006414718925953
541.0,0.0,0.0,0.0,0.0,0.0,0.0,-0.004421903286129236,0.0017703264020383358,-0.011806602589786053,0.999670684337616,0.0020682199392467737,-0.012818653136491776,-0.02213500812649727
542.0,0.0,0.0,0.0,0.0,0.0,0.0,0.004038334358483553,0.0019614091143012047,-0.03000672161579132,0.9996498823165894,0.004454189911484718,-0.012847297824919224,-0.022702107205986977
543.0,0.0,0.0,0.0,0.0,0.0,0.0,-0.010765229351818562,0.01041575986891985,0.008906067349016666,0.9996451139450073,0.0064045218750834465,-0.012220178730785847,-0.0227945726364851
544.0,0.0,0.0,0.0,0.0,0.0,0.0,-0.018662869930267334,0.007901391014456749,0.014349603094160557,0.999666154384613,0.008347848430275917,-0.011969050392508507,-0.021323729306459427
545.0,0.0,0.0,0.0,0.0,0.0,0.0,-0.0057803308591246605,0.010379860177636147,-0.00024545035557821393,0.999678373336792,0.01104759331792593,-0.013158096931874752,-0.01866121217608452
546.0,0.0,0.0,0.0,0.0,0.0,0.0,-0.00010437027958687395,0.010145370848476887,0.023455563932657242,0.9996541738510132,0.01487870141863823,-0.013789692893624306,-0.016739945858716965
547.0,0.0,0.0,0.0,0.0,0.0,0.0,-0.0020263318438082933,0.005157324951142073,0.02100932039320469,0.9996210336685181,0.018858978524804115,-0.012716813012957573,-0.015501749701797962
548.0,0.0,0.0,0.0,0.0,0.0,0.0,-0.0030413002241402864,0.009914049878716469,0.023589130491018295,0.999614953994751,0.02162623591721058,-0.010583564639091492,-0.013807553797960281
549.0,0.0,0.0,0.0,0.0,0.0,0.0,-0.0012141652405261993,0.011160237714648247,0.005875837989151478,0.999613344669342,0.023679878562688828,-0.007746720686554909,-0.012358628213405609
550.0,0.0,0.0,0.0,0.0,0.0,0.0,0.005852201487869024,0.006066065281629562,4.093222742085345e-05,0.9995805621147156,0.025977369397878647,-0.004655144177377224,-0.011949575506150723
551.0,0.0,0.0,0.0,0.0,0.0,0.0,0.026167063042521477,-0.004565776325762272,-0.022317474707961082,0.9995201230049133,0.028581324964761734,-0.00164584640879184,-0.011842591688036919
552.0,0.0,0.0,0.0,0.0,0.0,0.0,0.0335753932595253,-0.006095996126532555,-0.025196557864546776,0.9994491934776306,0.030957961454987526,0.0012511214008554816,-0.011901156976819038
553.0,0.0,0.0,0.0,0.0,0.0,0.0,0.0317978635430336,-0.01143067516386509,-0.045970138162374496,0.9994176030158997,0.031923070549964905,0.003001536475494504,-0.011698717251420021
554.0,0.0,0.0,0.0,0.0,0.0,0.0,0.04184018447995186,-0.016007715836167336,-0.05861659720540047,0.9994439482688904,0.03125818446278572,0.002984627615660429,-0.011235397309064865
555.0,0.0,0.0,0.0,0.0,0.0,0.0,0.025403868407011032,-0.012264140881597996,-0.042034681886434555,0.9994935989379883,0.02954835817217827,0.002478800481185317,-0.011547415517270565
556.0,0.0,0.0,0.0,0.0,0.0,0.0,0.016625767573714256,-0.006113455165177584,-0.04813003167510033,0.9994971752166748,0.02864391729235649,0.0021784428972750902,-0.013452650979161263
557.0,0.0,0.0,0.0,0.0,0.0,0.0,0.02870369143784046,-0.01133817620575428,-0.015607079491019249,0.9995327591896057,0.02697555162012577,0.000692143919877708,-0.0143564622849226
558.0,0.0,0.0,0.0,0.0,0.0,0.0,0.019526319578289986,-0.021626759320497513,-0.02593979798257351,0.9995772838592529,0.025059843435883522,-0.0028603957034647465,-0.01448787096887827
559.0,0.0,0.0,0.0,0.0,0.0,0.0,0.028620436787605286,-0.018049253150820732,-0.04251113906502724,0.9995580911636353,0.024259069934487343,-0.0076019177213311195,-0.01542680338025093
560.0,0.0,0.0,0.0,0.0,0.0,0.0,0.01557606365531683,-0.023825544863939285,-0.010281666181981564,0.9995202422142029,0.022704925388097763,-0.012904602102935314,-0.01666475459933281
561.0,0.0,0.0,0.0,0.0,0.0,0.0,0.002051970921456814,-0.020832065492868423,-0.00586409168317914,0.9994716048240662,0.020644305273890495,-0.017808012664318085,-0.01771366596221924
562.0,0.0,0.0,0.0,0.0,0.0,0.0,0.000773408857639879,-0.006891748867928982,-0.006864350754767656,0.9994258880615234,0.018799804151058197,-0.022119324654340744,-0.01748017780482769
563.0,0.0,0.0,0.0,0.0,0.0,0.0,-0.004014000296592712,0.009189465083181858,0.013245879672467709,0.9994054436683655,0.01624285615980625,-0.025488058105111122,-0.016608908772468567
564.0,0.0,0.0,0.0,0.0,0.0,0.0,-0.015450677834451199,0.008978506550192833,0.032017212361097336,0.9993898272514343,0.013879330828785896,-0.027830945327878,-0.01591133512556553
565.0,0.0,0.0,0.0,0.0,0.0,0.0,-2.2338910639518872e-05,0.004983479622751474,0.014300532639026642,0.9993855953216553,0.01117951050400734,-0.029547125101089478,-0.015192055143415928
566.0,0.0,0.0,0.0,0.0,0.0,0.0,0.015256236307322979,0.00471158605068922,0.0004668750043492764,0.9993813037872314,0.008605404756963253,-0.031116651371121407,-0.013986941426992416
567.0,0.0,0.0,0.0,0.0,0.0,0.0,0.017420955002307892,-0.0009965869830921292,0.01230529323220253,0.999353289604187,0.005813040304929018,-0.03333698585629463,-0.012174466624855995
568.0,0.0,0.0,0.0,0.0,0.0,0.0,0.012245001271367073,-0.0014139089034870267,0.007105627562850714,0.9992654919624329,0.003706888295710087,-0.03643779456615448,-0.011316899210214615
569.0,0.0,0.0,0.0,0.0,0.0,0.0,0.0027332394383847713,0.002086369786411524,0.009961775504052639,0.9991812109947205,0.00204850104637444,-0.03850378841161728,-0.012272847816348076
570.0,0.0,0.0,0.0,0.0,0.0,0.0,0.0026864130049943924,0.00034708777093328536,-0.00032744425698183477,0.9991024732589722,-0.0006168357213027775,-0.04031319171190262,-0.012995216995477676
571.0,0.0,0.0,0.0,0.0,0.0,0.0,0.013670585118234158,-0.010865092277526855,-0.011146940290927887,0.9989487528800964,-0.0022185335401445627,-0.04396183788776398,-0.012828709557652473
572.0,0.0,0.0,0.0,0.0,0.0,0.0,-0.007242503575980663,-0.0012703087413683534,0.014518441632390022,0.998779296875,-0.0028344541788101196,-0.0475318506360054,-0.01315297745168209
573.0,0.0,0.0,0.0,0.0,0.0,0.0,-0.024184100329875946,0.01241559162735939,0.027698537334799767,0.9986681938171387,-0.0038211727514863014,-0.050034306943416595,-0.0119980713352561
574.0,0.0,0.0,0.0,0.0,0.0,0.0,-0.022592604160308838,0.008655558340251446,0.025259923189878464,0.99858158826828,-0.0047698915004730225,-0.05187998339533806,-0.010998721234500408
575.0,0.0,0.0,0.0,0.0,0.0,0.0,-0.021455397829413414,0.006244259886443615,0.022626075893640518,0.998530387878418,-0.005909990053623915,-0.05263794586062431,-0.011495214886963367
576.0,0.0,0.0,0.0,0.0,0.0,0.0,-0.022884812206029892,0.012834127061069012,0.02924414724111557,0.9985159039497375,-0.007747190538793802,-0.05265316739678383,-0.011578039266169071
577.0,0.0,0.0,0.0,0.0,0.0,0.0,-0.018047291785478592,0.011282127350568771,0.030847590416669846,0.9985483884811401,-0.009179736487567425,-0.05175913870334625,-0.011759961023926735
578.0,0.0,0.0,0.0,0.0,0.0,0.0,-0.0177967119961977,0.008669467642903328,0.02598794735968113,0.9986006617546082,-0.00992863904684782,-0.0504320003092289,-0.01246893871575594
579.0,0.0,0.0,0.0,0.0,0.0,0.0,-0.016267461702227592,0.0091335354372859,0.02818988636136055,0.998673677444458,-0.009525354020297527,-0.0488428920507431,-0.013226214796304703
580.0,0.0,0.0,0.0,0.0,0.0,0.0,-0.004271266981959343,0.0022839747834950686,0.002772840205579996,0.9987564086914062,-0.010130248963832855,-0.047019850462675095,-0.013139926828444004
581.0,0.0,0.0,0.0,0.0,0.0,0.0,-0.003641825634986162,-0.001153645571321249,0.003638782538473606,0.9988081455230713,-0.011097496375441551,-0.04552791267633438,-0.013660276308655739
582.0,0.0,0.0,0.0,0.0,0.0,0.0,-0.008405021391808987,-0.0003765731235034764,-0.002725595375522971,0.9988635778427124,-0.010636119171977043,-0.04413628950715065,-0.014524544589221478
583.0,0.0,0.0,0.0,0.0,0.0,0.0,0.0020007530692964792,-0.006095249671489,-0.014362090267241001,0.9989117383956909,-0.010265575721859932,-0.04303935915231705,-0.014764858409762383
584.0,0.0,0.0,0.0,0.0,0.0,0.0,0.0030086881015449762,-0.007509202696382999,-0.018784107640385628,0.9989443421363831,-0.01043756678700447,-0.04224931448698044,-0.014713246375322342
585.0,0.0,0.0,0.0,0.0,0.0,0.0,0.0009892074158415198,-0.006271188147366047,-0.012866032309830189,0.9989900588989258,-0.010038552805781364,-0.04109355807304382,-0.015158233232796192
586.0,0.0,0.0,0.0,0.0,0.0,0.0,-0.0016636212822049856,-0.004991201683878899,0.00617783609777689,0.9990410208702087,-0.009136417880654335,-0.039709676057100296,-0.016031460836529732
587.0,0.0,0.0,0.0,0.0,0.0,0.0,0.005368384532630444,-0.005417863372713327,-6.453022069763392e-05,0.9990952610969543,-0.008852816186845303,-0.03862699493765831,-0.015448206104338169
588.0,0.0,0.0,0.0,0.0,0.0,0.0,0.009237022139132023,-0.0059351143427193165,-0.0003358561953064054,0.9991225004196167,-0.008293758146464825,-0.03831342235207558,-0.014759719371795654
589.0,0.0,0.0,0.0,0.0,0.0,0.0,0.005583630409091711,-0.004356461577117443,0.006632557604461908,0.9991787075996399,-0.006101707462221384,-0.03739241510629654,-0.014378111809492111
590.0,0.0,0.0,0.0,0.0,0.0,0.0,0.008459958247840405,-0.003066857811063528,0.004884805530309677,0.9992266297340393,-0.003939006943255663,-0.03620989993214607,-0.014829621650278568
591.0,0.0,0.0,0.0,0.0,0.0,0.0,0.01544808130711317,0.0020756362937390804,0.015485099516808987,0.9992777109146118,-0.001654447871260345,-0.03446764498949051,-0.015924958512187004
592.0,0.0,0.0,0.0,0.0,0.0,0.0,0.004585308022797108,-0.009931296110153198,0.018490608781576157,0.9993595480918884,-3.177198232151568e-05,-0.031231729313731194,-0.017474135383963585
593.0,0.0,0.0,0.0,0.0,0.0,0.0,0.0051172589883208275,-0.010101144202053547,-0.0018124986672773957,0.9994606971740723,0.001209195819683373,-0.027404217049479485,-0.018059026449918747
594.0,0.0,0.0,0.0,0.0,0.0,0.0,0.01370024960488081,-0.00854149367660284,-0.0016876026056706905,0.9995466470718384,0.002411894267424941,-0.02398201823234558,-0.018048373982310295
595.0,0.0,0.0,0.0,0.0,0.0,0.0,0.019679272547364235,-0.011710257269442081,0.006469391752034426,0.9996060729026794,0.0038844533264636993,-0.021699311211705208,-0.017374269664287567
596.0,0.0,0.0,0.0,0.0,0.0,0.0,0.016731303185224533,-0.011068110354244709,0.005108966957777739,0.9996558427810669,0.004594218917191029,-0.020260600373148918,-0.01602664403617382
597.0,0.0,0.0,0.0,0.0,0.0,0.0,0.013413451611995697,-0.0035517190117388964,0.006426854990422726,0.9996826648712158,0.00586510868743062,-0.01900137960910797,-0.015468822792172432
598.0,0.0,0.0,0.0,0.0,0.0,0.0,0.004259764216840267,-0.003472208511084318,0.011099312454462051,0.9996902346611023,0.008223268203437328,-0.017404599115252495,-0.015786990523338318
599.0,0.0,0.0,0.0,0.0,0.0,0.0,0.007862012833356857,-0.005333805922418833,0.006889563053846359,0.9996889233589172,0.010918071493506432,-0.016402622684836388,-0.015297109261155128
600.0,0.0,0.0,0.0,0.0,0.0,0.0,0.029385900124907494,0.0006323030102066696,-0.012001870200037956,0.9997024536132812,0.012606880627572536,-0.01607566326856613,-0.013343163765966892
601.0,0.0,0.0,0.0,0.0,0.0,0.0,0.017995065078139305,-0.005329858511686325,-0.013932829722762108,0.9997143149375916,0.013928358443081379,-0.015586701221764088,-0.01160092931240797
602.0,0.0,0.0,0.0,0.0,0.0,0.0,0.018335919827222824,-0.0038045758847147226,-0.016210757195949554,0.9997400641441345,0.014673137106001377,-0.014458348974585533,-0.009773765690624714
603.0,0.0,0.0,0.0,0.0,0.0,0.0,0.025940632447600365,0.0007825708016753197,-0.0031016976572573185,0.9997882843017578,0.01379964780062437,-0.013318273238837719,-0.007461450062692165
604.0,0.0,0.0,0.0,0.0,0.0,0.0,0.008618397638201714,0.0020516389049589634,0.01596452295780182,0.9998228549957275,0.013102441094815731,-0.01192079484462738,-0.006362795829772949
605.0,0.0,0.0,0.0,0.0,0.0,0.0,0.000531052122823894,-0.008118731901049614,0.006473609711974859,0.9998493790626526,0.012812521308660507,-0.009765716269612312,-0.0064759389497339725
606.0,0.0,0.0,0.0,0.0,0.0,0.0,0.03132336959242821,-0.02169695310294628,-0.047047507017850876,0.9998776912689209,0.01142713613808155,-0.008981364779174328,-0.005789344199001789
607.0,0.0,0.0,0.0,0.0,0.0,0.0,0.02682935819029808,-0.018950708210468292,-0.016242295503616333,0.9998886585235596,0.010129419155418873,-0.009179209358990192,-0.005995972082018852
608.0,0.0,0.0,0.0,0.0,0.0,0.0,0.01099298894405365,-0.016425300389528275,-0.013360007666051388,0.9998891949653625,0.009282960556447506,-0.008825317956507206,-0.007598515599966049
609.0,0.0,0.0,0.0,0.0,0.0,0.0,0.01891292631626129,-0.02152129076421261,-0.02547057345509529,0.9998884201049805,0.008190127089619637,-0.009747198782861233,-0.007835041731595993
610.0,0.0,0.0,0.0,0.0,0.0,0.0,0.029603661969304085,-0.02574991062283516,-0.025850825011730194,0.9998791813850403,0.0068284510634839535,-0.011866947636008263,-0.007384730968624353
611.0,0.0,0.0,0.0,0.0,0.0,0.0,0.020267656072974205,-0.01712561957538128,-0.01170275267213583,0.9998681545257568,0.0053193531930446625,-0.013546730391681194,-0.007214355282485485
612.0,0.0,0.0,0.0,0.0,0.0,0.0,0.005168599542230368,-0.010423236526548862,0.005680435337126255,0.9998637437820435,0.004433719906955957,-0.014205221086740494,-0.007157395128160715
613.0,0.0,0.0,0.0,0.0,0.0,0.0,0.009807510301470757,-0.010178156197071075,0.0030114443507045507,0.999859631061554,0.003698256565257907,-0.014988099224865437,-0.006529719568789005
614.0,0.0,0.0,0.0,0.0,0.0,0.0,0.01321783009916544,-0.01197772566229105,-0.0058725387789309025,0.9998512864112854,0.0029619743581861258,-0.016065968200564384,-0.00556030310690403
615.0,0.0,0.0,0.0,0.0,0.0,0.0,0.01572752743959427,-0.011077995412051678,-0.006016767118126154,0.9998321533203125,0.002788988873362541,-0.017247097566723824,-0.005540591664612293
616.0,0.0,0.0,0.0,0.0,0.0,0.0,0.006675974000245333,-0.013826427981257439,-0.009176474064588547,0.9998029470443726,0.0024283903185278177,-0.01865922287106514,-0.006342191249132156
617.0,0.0,0.0,0.0,0.0,0.0,0.0,0.004983514081686735,-0.007632652297616005,-0.013076732866466045,0.9997612237930298,0.002280809683725238,-0.020154472440481186,-0.00813544262200594
618.0,0.0,0.0,0.0,0.0,0.0,0.0,0.0062097650952637196,-0.01159526128321886,-0.019449926912784576,0.9996951222419739,0.002160097472369671,-0.022416649386286736,-0.010137702338397503
619.0,0.0,0.0,0.0,0.0,0.0,0.0,0.006432089023292065,-0.01648755930364132,-0.041512347757816315,0.9996042847633362,0.002822676906362176,-0.025380801409482956,-0.01182738970965147
620.0,0.0,0.0,0.0,0.0,0.0,0.0,0.0027252701111137867,-0.014429793693125248,-0.03434059023857117,0.9994995594024658,0.003955672029405832,-0.028537068516016006,-0.013089214451611042
621.0,0.0,0.0,0.0,0.0,0.0,0.0,-0.024908792227506638,-0.00022399456065613776,-0.003548532724380493,0.9993801712989807,0.004908125381916761,-0.03198324143886566,-0.013875401578843594
622.0,0.0,0.0,0.0,0.0,0.0,0.0,-0.026961952447891235,-0.0011954500805586576,-0.019883252680301666,0.9992397427558899,0.006618982646614313,-0.03565244749188423,-0.014321175403892994
623.0,0.0,0.0,0.0,0.0,0.0,0.0,-0.02338172122836113,0.0037729183677583933,0.004533297382295132,0.9990949630737305,0.009246477857232094,-0.03896891325712204,-0.014336285181343555
624.0,0.0,0.0,0.0,0.0,0.0,0.0,-0.03134961426258087,0.01882423274219036,0.0171230249106884,0.9989988207817078,0.011210373602807522,-0.04104369878768921,-0.013848154805600643
625.0,0.0,0.0,0.0,0.0,0.0,0.0,-0.032087359577417374,0.026509087532758713,0.024833377450704575,0.9989728331565857,0.011846751905977726,-0.04195394366979599,-0.01239339541643858
626.0,0.0,0.0,0.0,0.0,0.0,0.0,-0.02590605989098549,0.024029996246099472,0.03003322146832943,0.9990018606185913,0.010983713902533054,-0.04196237027645111,-0.010721839964389801
627.0,0.0,0.0,0.0,0.0,0.0,0.0,-0.018213016912341118,0.02713942714035511,0.02784876897931099,0.9990395307540894,0.010110178962349892,-0.04150313884019852,-0.009816113859415054
628.0,0.0,0.0,0.0,0.0,0.0,0.0,-0.011317480355501175,0.024991951882839203,0.017275692895054817,0.9990831613540649,0.010091109201312065,-0.040515411645174026,-0.009458198212087154
629.0,0.0,0.0,0.0,0.0,0.0,0.0,-0.0006985219079069793,0.014113514684140682,0.0036944288294762373,0.9991429448127747,0.009068320505321026,-0.039506472647190094,-0.008422414772212505
630.0,0.0,0.0,0.0,0.0,0.0,0.0,-0.008732415735721588,0.015574068762362003,0.004580816254019737,0.9992138743400574,0.006379821337759495,-0.03823551535606384,-0.008345368318259716
631.0,0.0,0.0,0.0,0.0,0.0,0.0,-0.016898537054657936,0.011177868582308292,-0.01065818127244711,0.999258816242218,0.004671882372349501,-0.03725327551364899,-0.008590017445385456
632.0,0.0,0.0,0.0,0.0,0.0,0.0,-0.011235786601901054,0.00880049355328083,-0.015416998416185379,0.999301552772522,0.003382200375199318,-0.03617403283715248,-0.008769823238253593
633.0,0.0,0.0,0.0,0.0,0.0,0.0,-0.014437339268624783,0.010634101927280426,-0.0034818833228200674,0.9993565678596497,0.002442678902298212,-0.034620501101017,-0.009120475500822067
634.0,0.0,0.0,0.0,0.0,0.0,0.0,-0.021071871742606163,0.009848837740719318,-0.008668063208460808,0.9994211792945862,0.002023532288148999,-0.032868798822164536,-0.008564448915421963
635.0,0.0,0.0,0.0,0.0,0.0,0.0,-0.01452791877090931,0.015089401043951511,0.001757221296429634,0.9994952082633972,0.0008498614188283682,-0.030853504315018654,-0.007560539059340954
636.0,0.0,0.0,0.0,0.0,0.0,0.0,-0.015425228513777256,0.01734716072678566,0.008986842818558216,0.9995772242546082,-0.0002052938361885026,-0.028232866898179054,-0.0069953687489032745
637.0,0.0,0.0,0.0,0.0,0.0,0.0,-0.016596198081970215,0.005226218607276678,-0.003167309332638979,0.9996583461761475,-0.001329094753600657,-0.025300433859229088,-0.006472057197242975
638.0,0.0,0.0,0.0,0.0,0.0,0.0,-0.005011714994907379,0.005719559732824564,-0.007505198009312153,0.9997261166572571,-0.002667010994628072,-0.022715507075190544,-0.005024197977036238
639.0,0.0,0.0,0.0,0.0,0.0,0.0,-0.0026471284218132496,0.007689987309277058,-0.008296119049191475,0.9997773170471191,-0.003571312641724944,-0.020521201193332672,-0.003455210942775011
640.0,0.0,0.0,0.0,0.0,0.0,0.0,-0.007220153231173754,0.0037123749498277903,-0.014961500652134418,0.9998214244842529,-0.004611199256032705,-0.018234793096780777,-0.0019520219648256898
641.0,0.0,0.0,0.0,0.0,0.0,0.0,-0.006874954793602228,0.003575229784473777,-0.016249893233180046,0.9998472332954407,-0.00643160892650485,-0.01627092808485031,-0.00040215387707576156
642.0,0.0,0.0,0.0,0.0,0.0,0.0,-0.007957316935062408,0.003331905696541071,-0.020577145740389824,0.9998633861541748,-0.007780430372804403,-0.014424772933125496,0.0022036635782569647
643.0,0.0,0.0,0.0,0.0,0.0,0.0,-0.010683638975024223,0.0025061708875000477,-0.025592340156435966,0.9998811483383179,-0.007854132913053036,-0.012535426765680313,0.004409830551594496
644.0,0.0,0.0,0.0,0.0,0.0,0.0,-0.012607194483280182,0.009555892087519169,-0.014838865958154202,0.9998989701271057,-0.0067164115607738495,-0.010836207307875156,0.006310730706900358
645.0,0.0,0.0,0.0,0.0,0.0,0.0,-0.01466318592429161,0.011805718764662743,-0.005704494193196297,0.99990314245224,-0.005776025354862213,-0.00946720689535141,0.008423629216849804
646.0,0.0,0.0,0.0,0.0,0.0,0.0,-0.02048339694738388,0.01107446663081646,-7.52460618969053e-05,0.9999150037765503,-0.004001725930720568,-0.008118974044919014,0.009423688054084778
647.0,0.0,0.0,0.0,0.0,0.0,0.0,-0.014141148887574673,0.009655286557972431,0.007657145150005817,0.9999254941940308,-0.0019281036220490932,-0.007001498248428106,0.009852215647697449
648.0,0.0,0.0,0.0,0.0,0.0,0.0,-0.00296790711581707,0.011986169032752514,0.019464824348688126,0.9999305009841919,-0.0011639655567705631,-0.005952044855803251,0.010191819630563259
649.0,0.0,0.0,0.0,0.0,0.0,0.0,0.0021076060365885496,0.015225859358906746,0.029948966577649117,0.9999271035194397,-0.0002558353007771075,-0.005384731572121382,0.010841546580195427
650.0,0.0,0.0,0.0,0.0,0.0,0.0,0.005129665601998568,0.008099435828626156,0.029133958742022514,0.9999210238456726,0.0011214578989893198,-0.005415109917521477,0.011325623840093613
651.0,0.0,0.0,0.0,0.0,0.0,0.0,0.025217942893505096,0.007617097347974777,0.024987952783703804,0.9999145269393921,0.0029381555505096912,-0.005146572832018137,0.0117580471560359
652.0,0.0,0.0,0.0,0.0,0.0,0.0,0.034071892499923706,0.0013688314938917756,0.016669921576976776,0.999906063079834,0.004412498325109482,-0.0055166566744446754,0.011843561194837093
653.0,0.0,0.0,0.0,0.0,0.0,0.0,0.03325507789850235,-0.006240407470613718,0.009905864484608173,0.999900221824646,0.00521959038451314,-0.006004763767123222,0.011716018430888653
654.0,0.0,0.0,0.0,0.0,0.0,0.0,0.029350679367780685,-0.01263453345745802,0.007444857619702816,0.9998976588249207,0.005767314229160547,-0.006277233827859163,0.011538593098521233
655.0,0.0,0.0,0.0,0.0,0.0,0.0,0.017458785325288773,-0.01421276479959488,0.005863969214260578,0.9999002814292908,0.005723775364458561,-0.006965139415115118,0.010907902382314205
656.0,0.0,0.0,0.0,0.0,0.0,0.0,0.01645430363714695,-0.011303836479783058,0.01170919556170702,0.9998993873596191,0.006505559664219618,-0.007793761324137449,0.00994558073580265
657.0,0.0,0.0,0.0,0.0,0.0,0.0,0.011534778401255608,-0.015423675999045372,0.005134638398885727,0.9998975992202759,0.006686429493129253,-0.008275775238871574,0.009591786190867424
658.0,0.0,0.0,0.0,0.0,0.0,0.0,0.011844625696539879,-0.012953435070812702,0.0035422039218246937,0.9999046921730042,0.006081005092710257,-0.008661309257149696,0.009002609178423882
659.0,0.0,0.0,0.0,0.0,0.0,0.0,0.01629246585071087,-0.01570039801299572,0.003339007031172514,0.9999030828475952,0.006985245272517204,-0.009260590188205242,0.007766695227473974
660.0,0.0,0.0,0.0,0.0,0.0,0.0,0.017169443890452385,-0.022371288388967514,-0.010169879533350468,0.9998887777328491,0.008638973347842693,-0.010589877143502235,0.00607626186683774
661.0,0.0,0.0,0.0,0.0,0.0,0.0,0.011054672300815582,-0.02180415205657482,-0.0075959376990795135,0.9998729825019836,0.009892642498016357,-0.011597049422562122,0.004835290368646383
662.0,0.0,0.0,0.0,0.0,0.0,0.0,0.009878341108560562,-0.020609458908438683,-0.0017127979081124067,0.999860942363739,0.010252128355205059,-0.012628703378140926,0.0038276519626379013
663.0,0.0,0.0,0.0,0.0,0.0,0.0,0.000505126197822392,-0.020214784890413284,-0.00495305098593235,0.9998626708984375,0.009360192343592644,-0.013227167539298534,0.0036354907788336277
664.0,0.0,0.0,0.0,0.0,0.0,0.0,0.0006448240019381046,-0.011916356161236763,-0.0020328934770077467,0.9998717904090881,0.007500894367694855,-0.01325163897126913,0.00502526480704546
665.0,0.0,0.0,0.0,0.0,0.0,0.0,-0.005143640097230673,-0.0065163904801011086,0.008667358197271824,0.9998753070831299,0.007382470648735762,-0.012684122659265995,0.0059248958714306355
666.0,0.0,0.0,0.0,0.0,0.0,0.0,-0.012635723687708378,-0.001685894327238202,0.023084139451384544,0.9998714923858643,0.008513754233717918,-0.012172677554190159,0.006132431793957949
667.0,0.0,0.0,0.0,0.0,0.0,0.0,0.010591818019747734,-0.01216981839388609,-0.006257832515984774,0.9998745918273926,0.008473110385239124,-0.011561239138245583,0.006832598242908716
668.0,0.0,0.0,0.0,0.0,0.0,0.0,0.0003152230056002736,0.0010744711617007852,0.010854414664208889,0.9999054074287415,0.007636941969394684,-0.009236356243491173,0.006893852725625038
669.0,0.0,0.0,0.0,0.0,0.0,0.0,-0.028983335942029953,0.027303559705615044,0.062012746930122375,0.9999548196792603,0.0063364384695887566,-0.0037168145645409822,0.0061287409625947475
670.0,0.0,0.0,0.0,0.0,0.0,0.0,-0.017590980976819992,0.023603644222021103,0.0632355734705925,0.9999656677246094,0.00477178581058979,0.0034206993877887726,0.005961583461612463
671.0,0.0,0.0,0.0,0.0,0.0,0.0,0.0070357429794967175,0.008572625927627087,0.03525886684656143,0.9999318718910217,0.0037144918460398912,0.009534897282719612,0.005682009272277355
672.0,0.0,0.0,0.0,0.0,0.0,0.0,0.0357481874525547,0.006140918005257845,0.04167207330465317,0.9998778700828552,0.0029919142834842205,0.013991816900670528,0.006360555067658424
673.0,0.0,0.0,0.0,0.0,0.0,0.0,0.04551348090171814,0.0013855677098035812,0.04923742637038231,0.9998249411582947,0.0022321606520563364,0.016967779025435448,0.007586758118122816
674.0,0.0,0.0,0.0,0.0,0.0,0.0,0.030437029898166656,-0.0001942212402354926,0.0245246272534132,0.9997826814651489,0.0016282334690913558,0.019078329205513,0.008301123045384884
675.0,0.0,0.0,0.0,0.0,0.0,0.0,0.02263030968606472,0.009824576787650585,0.00658849161118269,0.9997453689575195,0.0018124193884432316,0.020655250176787376,0.008927557617425919
676.0,0.0,0.0,0.0,0.0,0.0,0.0,0.0365399569272995,-0.001517159049399197,-0.012845152989029884,0.9997199773788452,0.003285145154222846,0.021672556176781654,0.008944932371377945
677.0,0.0,0.0,0.0,0.0,0.0,0.0,0.034227531403303146,-0.006259149871766567,-0.039523106068372726,0.9997117519378662,0.0048918332904577255,0.021700169891119003,0.009062009863555431
678.0,0.0,0.0,0.0,0.0,0.0,0.0,0.027065934613347054,0.0016089301789179444,-0.028161726891994476,0.9997231364250183,0.006223167292773724,0.020279593765735626,0.010186080820858479
679.0,0.0,0.0,0.0,0.0,0.0,0.0,0.005508807487785816,0.009575756266713142,0.0007266178145073354,0.9997394680976868,0.007913844659924507,0.01891138218343258,0.010065612383186817
680.0,0.0,0.0,0.0,0.0,0.0,0.0,0.007127788849174976,0.004036847036331892,-0.008640184998512268,0.999729573726654,0.010367246344685555,0.0186467282474041,0.009271633811295033
681.0,0.0,0.0,0.0,0.0,0.0,0.0,0.015689445659518242,-0.0003017068956978619,-0.025715790688991547,0.9997369647026062,0.011195407249033451,0.017921801656484604,0.008932533673942089
682.0,0.0,0.0,0.0,0.0,0.0,0.0,0.014018246904015541,0.0011579144047573209,-0.01899869367480278,0.999748706817627,0.011950481683015823,0.016909845173358917,0.008620033971965313
683.0,0.0,0.0,0.0,0.0,0.0,0.0,0.017794055864214897,0.006045391783118248,-0.009798661805689335,0.9997590780258179,0.013175842352211475,0.01542030181735754,0.008400344289839268
684.0,0.0,0.0,0.0,0.0,0.0,0.0,0.025142241269350052,1.18963953354978e-05,-0.018609724938869476,0.9997704029083252,0.014658036641776562,0.01377167645841837,0.007420096080750227
685.0,0.0,0.0,0.0,0.0,0.0,0.0,0.027446912601590157,-0.001125203794799745,-0.019262775778770447,0.9997751712799072,0.015930626541376114,0.012155476957559586,0.006942249368876219
686.0,0.0,0.0,0.0,0.0,0.0,0.0,0.031525060534477234,-5.240972313913517e-05,-0.02106386609375477,0.9997877478599548,0.01683391071856022,0.010306579060852528,0.005925665143877268
687.0,0.0,0.0,0.0,0.0,0.0,0.0,0.03278026357293129,-0.0029531316831707954,-0.01721424236893654,0.9997816681861877,0.01889258809387684,0.008245383389294147,0.0034187822602689266
688.0,0.0,0.0,0.0,0.0,0.0,0.0,0.02685290202498436,-0.0045677232556045055,-0.016876457259058952,0.9997653961181641,0.02082120254635811,0.0056519536301493645,0.002026553265750408
689.0,0.0,0.0,0.0,0.0,0.0,0.0,0.03905453905463219,-0.0036824613343924284,-0.01753900945186615,0.9997292160987854,0.023122815415263176,0.002226129174232483,0.0014591901563107967
690.0,0.0,0.0,0.0,0.0,0.0,0.0,0.0377768836915493,-0.009476625360548496,-0.017847098410129547,0.9996822476387024,0.02514907903969288,-0.0015278564533218741,0.0007745808688923717
691.0,0.0,0.0,0.0,0.0,0.0,0.0,0.037218913435935974,-0.011998187750577927,-0.013318074867129326,0.9996312260627747,0.02667485922574997,-0.005087890662252903,0.0006119859754107893
692.0,0.0,0.0,0.0,0.0,0.0,0.0,0.02783762477338314,-0.005355434492230415,-0.010698710568249226,0.9996037483215332,0.026943925768136978,-0.008125107735395432,0.0008801444200798869
693.0,0.0,0.0,0.0,0.0,0.0,0.0,0.02114136517047882,-0.00016995967598631978,-0.002352098934352398,0.9996328353881836,0.025277864187955856,-0.009646397083997726,0.001490549766458571
694.0,0.0,0.0,0.0,0.0,0.0,0.0,-0.007770313881337643,-0.0031243381090462208,0.018452465534210205,0.9996784329414368,0.023660490289330482,-0.00913917738944292,9.66434454312548e-05
695.0,0.0,0.0,0.0,0.0,0.0,0.0,-0.021915709599852562,0.003033463144674897,0.05275096744298935,0.999721884727478,0.02231517620384693,-0.00741189019754529,-0.001898585120216012
696.0,0.0,0.0,0.0,0.0,0.0,0.0,0.03176674619317055,-0.008967308327555656,-0.030496789142489433,0.9997457265853882,0.021162841469049454,-0.007331430446356535,-0.0026688906364142895
697.0,0.0,0.0,0.0,0.0,0.0,0.0,0.024851234629750252,-0.013746784068644047,-0.003391292644664645,0.9997377991676331,0.02057826519012451,-0.008762398734688759,-0.004907779861241579
698.0,0.0,0.0,0.0,0.0,0.0,0.0,0.002564379945397377,-0.0012924548937007785,0.010361011140048504,0.9997634291648865,0.018657799810171127,-0.00878364872187376,-0.00692475913092494
699.0,0.0,0.0,0.0,0.0,0.0,0.0,0.01222041342407465,-0.0011998760746791959,-0.025005483999848366,0.9998124241828918,0.015144611708819866,-0.008728991262614727,-0.00835082121193409
700.0,0.0,0.0,0.0,0.0,0.0,0.0,0.012146436609327793,-0.0023565960582345724,0.0025321263819932938,0.9998341798782349,0.012022830545902252,-0.009610411711037159,-0.009736616164445877
701.0,0.0,0.0,0.0,0.0,0.0,0.0,0.01077086292207241,0.0014224336482584476,-0.00042521581053733826,0.9998545050621033,0.00815651100128889,-0.01054505817592144,-0.01064511388540268
702.0,0.0,0.0,0.0,0.0,0.0,0.0,0.008686532266438007,0.0010765575570985675,0.004463558085262775,0.9998670816421509,0.004215753171592951,-0.011182086542248726,-0.011095843277871609
703.0,0.0,0.0,0.0,0.0,0.0,0.0,0.004254600033164024,-0.0005350557621568441,0.019324399530887604,0.9998440742492676,0.0007176519720815122,-0.01199555117636919,-0.012941647320985794
704.0,0.0,0.0,0.0,0.0,0.0,0.0,-0.005604837089776993,-0.001276543946005404,0.03453042730689049,0.9997972249984741,-0.0012826824095100164,-0.012149007990956306,-0.01601446606218815
705.0,0.0,0.0,0.0,0.0,0.0,0.0,-0.0013825424248352647,-0.007723663933575153,0.014210444875061512,0.9997235536575317,-0.0031135196331888437,-0.012807013466954231,-0.019474314525723457
706.0,0.0,0.0,0.0,0.0,0.0,0.0,0.0020499136298894882,-0.007706732489168644,-0.0008735217852517962,0.999626100063324,-0.004997279029339552,-0.014098907820880413,-0.022891394793987274
707.0,0.0,0.0,0.0,0.0,0.0,0.0,-0.0039206319488584995,-0.00482304347679019,0.0061030262149870396,0.9994974136352539,-0.005547582637518644,-0.015969285741448402,-0.026819560676813126
708.0,0.0,0.0,0.0,0.0,0.0,0.0,-0.01020759716629982,0.0005664881900884211,-0.014787053689360619,0.9993361830711365,-0.0059249973855912685,-0.01810048148036003,-0.0310574509203434
709.0,0.0,0.0,0.0,0.0,0.0,0.0,-0.00795577559620142,-0.0008987251203507185,-0.03557025268673897,0.9991781711578369,-0.006101430859416723,-0.020927105098962784,-0.034175239503383636
710.0,0.0,0.0,0.0,0.0,0.0,0.0,-0.00857110321521759,0.004656792618334293,-0.0327070876955986,0.999021589756012,-0.005895920563489199,-0.02400873601436615,-0.036672305315732956
711.0,0.0,0.0,0.0,0.0,0.0,0.0,-0.027189798653125763,0.012727904133498669,0.0004372060648165643,0.9988648891448975,-0.005295780021697283,-0.02717038430273533,-0.038768328726291656
712.0,0.0,0.0,0.0,0.0,0.0,0.0,-0.019101181998848915,0.011574690230190754,-0.023206405341625214,0.9987419843673706,-0.003066759556531906,-0.03071974217891693,-0.039516203105449677
713.0,0.0,0.0,0.0,0.0,0.0,0.0,-0.016188209876418114,0.005420156754553318,-0.005344466771930456,0.9986038208007812,-0.0006639172206632793,-0.033629484474658966,-0.04073485732078552
714.0,0.0,0.0,0.0,0.0,0.0,0.0,-0.033050231635570526,0.018789170309901237,0.013496272265911102,0.9985269904136658,-0.000359612051397562,-0.03492192178964615,-0.04152460768818855
715.0,0.0,0.0,0.0,0.0,0.0,0.0,-0.0391344390809536,0.019190261140465736,0.008262536488473415,0.9985038638114929,-0.0007231768686324358,-0.03530759736895561,-0.041750553995370865
716.0,0.0,0.0,0.0,0.0,0.0,0.0,-0.025468777865171432,0.008853074163198471,-0.0059111290611326694,0.9984691143035889,-0.000570202711969614,-0.03559127822518349,-0.042337752878665924
717.0,0.0,0.0,0.0,0.0,0.0,0.0,-0.023205239325761795,0.007459504529833794,-0.0022621145471930504,0.9984105825424194,0.0003743051493074745,-0.03626188263297081,-0.04314243793487549
718.0,0.0,0.0,0.0,0.0,0.0,0.0,-0.019149789586663246,0.005552082322537899,-0.02971751056611538,0.99837726354599,6.871077493997291e-05,-0.03652733936905861,-0.043689578771591187
719.0,0.0,0.0,0.0,0.0,0.0,0.0,-0.016584409400820732,0.0028248662129044533,-0.014084148220717907,0.9983536601066589,-0.001142748398706317,-0.03676024451851845,-0.044017594307661057
720.0,0.0,0.0,0.0,0.0,0.0,0.0,-0.022822678089141846,0.0037128236144781113,-0.017442841082811356,0.9983192682266235,-0.0020959703251719475,-0.0363687127828598,-0.04507508873939514
721.0,0.0,0.0,0.0,0.0,0.0,0.0,-0.006684732157737017,-0.0016326748300343752,-0.04688233509659767,0.9982463717460632,-0.0036771001759916544,-0.036921873688697815,-0.0461246557533741
722.0,0.0,0.0,0.0,0.0,0.0,0.0,-0.003326667007058859,-0.00938451662659645,-0.0549776591360569,0.9981070160865784,-0.005144021473824978,-0.03860284015536308,-0.047602277249097824
723.0,0.0,0.0,0.0,0.0,0.0,0.0,-0.0072510698810219765,-0.0032752715051174164,-0.0525018647313118,0.9980013370513916,-0.0066712386906147,-0.040884196758270264,-0.047722991555929184
724.0,0.0,0.0,0.0,0.0,0.0,0.0,-0.006487548816949129,0.003875595983117819,-0.03504067286849022,0.9979596734046936,-0.008676579222083092,-0.04346153885126114,-0.045959729701280594
725.0,0.0,0.0,0.0,0.0,0.0,0.0,-0.025832632556557655,0.015103441663086414,0.015428150072693825,0.9979642033576965,-0.010113764554262161,-0.04533868655562401,-0.04370025172829628
726.0,0.0,0.0,0.0,0.0,0.0,0.0,-0.02313860133290291,0.016078460961580276,0.005272679030895233,0.9980278611183167,-0.011594874784350395,-0.0459570437669754,-0.04115952551364899
727.0,0.0,0.0,0.0,0.0,0.0,0.0,-0.016683876514434814,0.013141987845301628,0.003141371998935938,0.9980807900428772,-0.013696449808776379,-0.04581914097070694,-0.03934174031019211
728.0,0.0,0.0,0.0,0.0,0.0,0.0,-0.019961347803473473,0.015596614219248295,0.021681809797883034,0.9981567859649658,-0.015806812793016434,-0.04491661861538887,-0.03763074055314064
729.0,0.0,0.0,0.0,0.0,0.0,0.0,-0.021276170387864113,0.003757783677428961,-0.010017815046012402,0.9982135891914368,-0.018039673566818237,-0.0445503294467926,-0.03549555689096451
730.0,0.0,0.0,0.0,0.0,0.0,0.0,-0.0005879567470401525,0.005256160628050566,-0.010029729455709457,0.9982295632362366,-0.017745766788721085,-0.04675375670194626,-0.03220400959253311
731.0,0.0,0.0,0.0,0.0,0.0,0.0,-0.0024123829789459705,0.004004390444606543,0.002077208599075675,0.9982084035873413,-0.017882991582155228,-0.04804977402091026,-0.030848151072859764
732.0,0.0,0.0,0.0,0.0,0.0,0.0,-0.00034280656836926937,-0.003496495308354497,-0.005786104127764702,0.9982072710990906,-0.019324958324432373,-0.04939279332756996,-0.027743227779865265
733.0,0.0,0.0,0.0,0.0,0.0,0.0,0.01052793674170971,-0.002834485610947013,0.0010778272990137339,0.9981321096420288,-0.020909655839204788,-0.051559463143348694,-0.025238925591111183
734.0,0.0,0.0,0.0,0.0,0.0,0.0,-0.009372099302709103,0.0062592970207333565,0.03556837514042854,0.9981103539466858,-0.021618928760290146,-0.052242256700992584,-0.02407209947705269
735.0,0.0,0.0,0.0,0.0,0.0,0.0,-0.002410390181466937,0.0034731971099972725,0.02055659517645836,0.9981083869934082,-0.02235695719718933,-0.05258910730481148,-0.022685807198286057
736.0,0.0,0.0,0.0,0.0,0.0,0.0,0.003972531761974096,0.0018461225554347038,0.029218820855021477,0.9980849027633667,-0.023664122447371483,-0.05293087288737297,-0.02157023176550865
737.0,0.0,0.0,0.0,0.0,0.0,0.0,0.00041655555833131075,0.0025360756553709507,0.03241218253970146,0.9980854988098145,-0.02490566298365593,-0.05318580940365791,-0.019411267712712288
738.0,0.0,0.0,0.0,0.0,0.0,0.0,0.003209191607311368,0.000524380651768297,0.028524460271000862,0.9980590343475342,-0.026113523170351982,-0.053874071687459946,-0.017165018245577812
739.0,0.0,0.0,0.0,0.0,0.0,0.0,0.005692582111805677,0.0002563216257840395,0.02425726316869259,0.9980628490447998,-0.026739122346043587,-0.053914472460746765,-0.01578904129564762
740.0,0.0,0.0,0.0,0.0,0.0,0.0,0.008824731223285198,0.0004513844905886799,0.022293077781796455,0.9981069564819336,-0.026751600205898285,-0.053203798830509186,-0.015380044467747211
741.0,0.0,0.0,0.0,0.0,0.0,0.0,0.0075631700456142426,0.0017597511177882552,0.018350115045905113,0.998145580291748,-0.02739018201828003,-0.05224010720849037,-0.01505476888269186
742.0,0.0,0.0,0.0,0.0,0.0,0.0,0.014500821009278297,0.00024950000806711614,0.011476163752377033,0.9981809854507446,-0.027521289885044098,-0.05151873081922531,-0.014957387000322342
743.0,0.0,0.0,0.0,0.0,0.0,0.0,0.012576009146869183,-0.009404166601598263,-0.005101887043565512,0.9982187747955322,-0.027041221037507057,-0.050896648317575455,-0.01543961651623249
744.0,0.0,0.0,0.0,0.0,0.0,0.0,0.011463257484138012,-0.007394170854240656,-0.007878372445702553,0.9982373118400574,-0.027182171121239662,-0.050470948219299316,-0.015393150970339775
745.0,0.0,0.0,0.0,0.0,0.0,0.0,0.01184692420065403,-0.008087262511253357,-0.007175392005592585,0.9982426166534424,-0.0265617985278368,-0.050563979893922806,-0.01581844501197338
746.0,0.0,0.0,0.0,0.0,0.0,0.0,0.00997712928801775,-0.01090751402080059,-0.0066840313374996185,0.9982349276542664,-0.025788966566324234,-0.05093780532479286,-0.016365863382816315
747.0,0.0,0.0,0.0,0.0,0.0,0.0,0.010927054099738598,-0.01478470116853714,-0.0038143754936754704,0.9982158541679382,-0.02453974075615406,-0.05176571384072304,-0.01684240996837616
748.0,0.0,0.0,0.0,0.0,0.0,0.0,0.004563945811241865,-0.013846124522387981,0.002822490409016609,0.9981756210327148,-0.023886777460575104,-0.05263931676745415,-0.017447464168071747
749.0,0.0,0.0,0.0,0.0,0.0,0.0,0.005098314490169287,-0.012913060374557972,0.004675927106291056,0.9981141686439514,-0.02436123415827751,-0.0536813884973526,-0.01714293099939823
750.0,0.0,0.0,0.0,0.0,0.0,0.0,0.0005826171836815774,-0.013141844421625137,0.003353304695338011,0.9980587363243103,-0.02528068795800209,-0.05446990579366684,-0.016537221148610115
751.0,0.0,0.0,0.0,0.0,0.0,0.0,-0.00969935767352581,-0.011465637944638729,0.004267854616045952,0.9980701208114624,-0.025268403813242912,-0.05438035726547241,-0.016144054010510445
752.0,0.0,0.0,0.0,0.0,0.0,0.0,-0.019859489053487778,-0.00795283354818821,0.013497668318450451,0.9981118440628052,-0.02425558865070343,-0.05396661534905434,-0.01650691218674183
753.0,0.0,0.0,0.0,0.0,0.0,0.0,-0.02708931639790535,-0.0017548628384247422,0.01298056822270155,0.9981024861335754,-0.025023143738508224,-0.053651172667741776,-0.016939638182520866
754.0,0.0,0.0,0.0,0.0,0.0,0.0,-0.0180070698261261,0.0007429606630466878,-0.0008154335664585233,0.9981662631034851,-0.023646801710128784,-0.053534165024757385,-0.0154790710657835
755.0,0.0,0.0,0.0,0.0,0.0,0.0,-0.022273972630500793,-0.005637662019580603,-0.001106645562686026,0.9982404708862305,-0.022278495132923126,-0.052698440849781036,-0.015573563054203987
756.0,0.0,0.0,0.0,0.0,0.0,0.0,-0.022122861817479134,0.0013787420466542244,0.003770038951188326,0.9983192086219788,-0.02100207656621933,-0.051376547664403915,-0.016682811081409454
757.0,0.0,0.0,0.0,0.0,0.0,0.0,-0.025753872469067574,0.0017227359348908067,0.006575156468898058,0.9983882308006287,-0.019396105781197548,-0.05012703686952591,-0.018233194947242737
758.0,0.0,0.0,0.0,0.0,0.0,0.0,0.010931374505162239,-0.017753966152668,-0.03219514712691307,0.998434841632843,-0.017262350767850876,-0.04977942630648613,-0.018772084265947342
759.0,0.0,0.0,0.0,0.0,0.0,0.0,0.033586543053388596,-0.027128467336297035,-0.04161054268479347,0.998427152633667,-0.016138272359967232,-0.050634343177080154,-0.017879769206047058
760.0,0.0,0.0,0.0,0.0,0.0,0.0,0.0015346078434959054,-0.011988879181444645,-0.004766242578625679,0.9983961582183838,-0.015872113406658173,-0.051767248660326004,-0.016547054052352905
761.0,0.0,0.0,0.0,0.0,0.0,0.0,0.002920508850365877,-0.011072264984250069,0.008894830010831356,0.9983562231063843,-0.015663569793105125,-0.0530744269490242,-0.014942321926355362
762.0,0.0,0.0,0.0,0.0,0.0,0.0,0.007731111720204353,-0.013274398632347584,0.011563746258616447,0.9983245134353638,-0.015082444995641708,-0.05413453280925751,-0.013811036013066769
763.0,0.0,0.0,0.0,0.0,0.0,0.0,0.0038751093670725822,-0.011858616955578327,0.015660079196095467,0.9982993006706238,-0.015036405064165592,-0.05501672253012657,-0.012087286449968815
764.0,0.0,0.0,0.0,0.0,0.0,0.0,-0.0016805431805551052,-0.009154974482953548,0.013063590042293072,0.998258113861084,-0.015629200264811516,-0.056013189256191254,-0.009964420460164547
765.0,0.0,0.0,0.0,0.0,0.0,0.0,-0.004562442656606436,-0.008656524121761322,0.016461264342069626,0.9982073903083801,-0.015571032650768757,-0.057155366986989975,-0.008572963997721672
766.0,0.0,0.0,0.0,0.0,0.0,0.0,-0.004326951690018177,-0.009216832928359509,0.004146223422139883,0.9981385469436646,-0.015801161527633667,-0.05851024389266968,-0.0068043977953493595
767.0,0.0,0.0,0.0,0.0,0.0,0.0,-0.008454167284071445,-0.006361070089042187,0.0069389683194458485,0.998089611530304,-0.01670171320438385,-0.05927319452166557,-0.0050201755948364735
768.0,0.0,0.0,0.0,0.0,0.0,0.0,-0.0071773650124669075,-0.010746779851615429,-0.0007727963384240866,0.9980872273445129,-0.017289793118834496,-0.05924587696790695,-0.0036791767925024033
769.0,0.0,0.0,0.0,0.0,0.0,0.0,-0.006141828838735819,-0.0130348801612854,-0.01705472357571125,0.998094379901886,-0.016750266775488853,-0.05932439863681793,-0.002836760366335511
770.0,0.0,0.0,0.0,0.0,0.0,0.0,-0.0037513182032853365,-0.008530664257705212,-0.01661837100982666,0.9980959296226501,-0.01597490720450878,-0.059538163244724274,-0.002299392595887184
771.0,0.0,0.0,0.0,0.0,0.0,0.0,-0.005328974686563015,-0.014332124963402748,-0.013007818721234798,0.9981081485748291,-0.015371013432741165,-0.05947747081518173,-0.0025323329027742147
772.0,0.0,0.0,0.0,0.0,0.0,0.0,0.00017819050117395818,-0.013463607057929039,-0.01919499598443508,0.998089611530304,-0.015390468761324883,-0.05979611352086067,-0.0021705790422856808
773.0,0.0,0.0,0.0,0.0,0.0,0.0,0.0024748812429606915,-0.007490199524909258,-0.012160474434494972,0.9980795383453369,-0.01421309169381857,-0.060223858803510666,-0.0029376675374805927
774.0,0.0,0.0,0.0,0.0,0.0,0.0,0.007799616549164057,-0.013487865217030048,-0.004393191542476416,0.9980608820915222,-0.013394823297858238,-0.060675833374261856,-0.0037176080513745546
775.0,0.0,0.0,0.0,0.0,0.0,0.0,0.005586990155279636,-0.011538760736584663,-0.010886899195611477,0.9979870915412903,-0.011892109178006649,-0.06213238462805748,-0.004527021199464798
776.0,0.0,0.0,0.0,0.0,0.0,0.0,0.005872372537851334,-0.014521066099405289,-0.008316493593156338,0.997891366481781,-0.008983081206679344,-0.0640479177236557,-0.005519077647477388
777.0,0.0,0.0,0.0,0.0,0.0,0.0,0.010423557832837105,-0.015336637385189533,-0.016842035576701164,0.9978036284446716,-0.0073091196827590466,-0.06557336449623108,-0.005930969025939703
778.0,0.0,0.0,0.0,0.0,0.0,0.0,0.010882741771638393,-0.012427544221282005,-0.010923238471150398,0.9977254271507263,-0.0053317733108997345,-0.06685256212949753,-0.0068327453918755054
779.0,0.0,0.0,0.0,0.0,0.0,0.0,0.00419200025498867,-0.010507085360586643,0.003180342260748148,0.9976241588592529,-0.0035907388664782047,-0.06838253885507584,-0.007580181583762169
780.0,0.0,0.0,0.0,0.0,0.0,0.0,0.001277533476240933,-0.004860364831984043,0.004953853320330381,0.997545599937439,-0.0031211075838655233,-0.06960337609052658,-0.006994647905230522
781.0,0.0,0.0,0.0,0.0,0.0,0.0,0.0025663399137556553,2.4080825824057683e-05,0.006375065539032221,0.9974790811538696,-0.003025863552466035,-0.07056278735399246,-0.0069069694727659225
782.0,0.0,0.0,0.0,0.0,0.0,0.0,0.0019726406317204237,-0.005064713768661022,0.0021366418804973364,0.9974060654640198,-0.0017181138973683119,-0.07164210826158524,-0.00677846372127533
783.0,0.0,0.0,0.0,0.0,0.0,0.0,-0.0009375602821819484,-0.005676899570971727,-0.002367636188864708,0.9972963333129883,-0.001351868617348373,-0.07327461987733841,-0.0054434905759990215
784.0,0.0,0.0,0.0,0.0,0.0,0.0,-2.1024319721618667e-05,-0.0030165526550263166,0.001514224335551262,0.9971941709518433,-0.0011770320124924183,-0.07472386211156845,-0.004381902515888214
785.0,0.0,0.0,0.0,0.0,0.0,0.0,-0.0007808753871358931,0.0011110010091215372,0.002356733661144972,0.9970950484275818,-0.0005695080617442727,-0.0760686844587326,-0.003952858503907919
786.0,0.0,0.0,0.0,0.0,0.0,0.0,-0.005110074300318956,0.004145792219787836,-0.0007533192983828485,0.9969526529312134,-0.0005144429160282016,-0.07792820036411285,-0.0036137080751359463
787.0,0.0,0.0,0.0,0.0,0.0,0.0,-0.009197555482387543,0.005434895399957895,0.008533582091331482,0.9968573451042175,0.0003312043263576925,-0.07911171019077301,-0.004172356333583593
788.0,0.0,0.0,0.0,0.0,0.0,0.0,-0.011404130607843399,0.008083523251116276,0.020302820950746536,0.9967838525772095,0.0013808660442009568,-0.07998021692037582,-0.004906036425381899
789.0,0.0,0.0,0.0,0.0,0.0,0.0,-0.00996788777410984,0.004014617297798395,0.01173973549157381,0.9967092275619507,0.0017403863603249192,-0.0808727964758873,-0.005275281611829996
790.0,0.0,0.0,0.0,0.0,0.0,0.0,-0.017414025962352753,0.010345525108277798,0.016204750165343285,0.9966989159584045,0.0016139992512762547,-0.08098692446947098,-0.005522676277905703
791.0,0.0,0.0,0.0,0.0,0.0,0.0,-0.01420726627111435,0.007424879819154739,0.020937401801347733,0.9966759085655212,0.002389047294855118,-0.08122780174016953,-0.005832510069012642
792.0,0.0,0.0,0.0,0.0,0.0,0.0,-0.008561618626117706,0.0019288875628262758,0.014889554120600224,0.9966925382614136,0.003067404730245471,-0.08092667907476425,-0.006774187553673983
793.0,0.0,0.0,0.0,0.0,0.0,0.0,-0.012564246542751789,0.008381789550185204,0.007455179933458567,0.9967410564422607,0.003299674717709422,-0.08026015013456345,-0.007391160354018211
794.0,0.0,0.0,0.0,0.0,0.0,0.0,-0.008433433249592781,0.010752848349511623,0.005310375709086657,0.9967759251594543,0.003207768313586712,-0.07984611392021179,-0.007244078442454338
795.0,0.0,0.0,0.0,0.0,0.0,0.0,-0.006381851155310869,0.011340211145579815,0.006025764625519514,0.9968081712722778,0.004276295192539692,-0.07929820567369461,-0.008203795179724693
796.0,0.0,0.0,0.0,0.0,0.0,0.0,-0.0004630252660717815,0.006362829357385635,-0.005523501895368099,0.9967958927154541,0.004715844057500362,-0.079434834420681,-0.008150205947458744
797.0,0.0,0.0,0.0,0.0,0.0,0.0,-0.007109966594725847,0.002510407939553261,-0.0185605026781559,0.9968008995056152,0.004484706092625856,-0.07945345342159271,-0.007461050990968943
798.0,0.0,0.0,0.0,0.0,0.0,0.0,-0.02437974326312542,0.017686383798718452,-0.0048239389434456825,0.9968767762184143,0.0048662093468010426,-0.0784171000123024,-0.008014269173145294
799.0,0.0,0.0,0.0,0.0,0.0,0.0,-0.020635586231946945,0.02097339928150177,0.014053629711270332,0.9969286322593689,0.005110324360430241,-0.07774870842695236,-0.007897214032709599
800.0,0.0,0.0,0.0,0.0,0.0,0.0,-0.012547273188829422,0.013608689419925213,0.011884918436408043,0.9969993233680725,0.005460558924823999,-0.07681450247764587,-0.007918793708086014
801.0,0.0,0.0,0.0,0.0,0.0,0.0,-0.011752241291105747,0.012917423620820045,0.010760440491139889,0.9970864057540894,0.0053406343795359135,-0.07567716389894485,-0.007971860468387604
802.0,0.0,0.0,0.0,0.0,0.0,0.0,-0.015479612164199352,0.011596659198403358,0.001924987300299108,0.9971907138824463,0.00511960219591856,-0.07425917685031891,-0.008396466262638569
803.0,0.0,0.0,0.0,0.0,0.0,0.0,-0.008140436373651028,0.008921145461499691,-0.0050328937359154224,0.9972879886627197,0.005295927636325359,-0.0727444738149643,-0.009868655353784561
804.0,0.0,0.0,0.0,0.0,0.0,0.0,0.0014694478595629334,0.0009052762761712074,-0.008106935769319534,0.9973770380020142,0.00505985040217638,-0.07127362489700317,-0.011554853059351444
805.0,0.0,0.0,0.0,0.0,0.0,0.0,0.005123884417116642,-0.0031599050853401423,-0.014033137820661068,0.9974477291107178,0.003979873843491077,-0.07005417346954346,-0.013224593363702297
806.0,0.0,0.0,0.0,0.0,0.0,0.0,0.010566961020231247,-0.0014966202434152365,-0.007965422235429287,0.9975059032440186,0.003546846332028508,-0.06881815195083618,-0.01529216580092907
807.0,0.0,0.0,0.0,0.0,0.0,0.0,0.01492972020059824,-0.008495458401739597,0.0010995769407600164,0.9975526928901672,0.0025734519585967064,-0.067927286028862,-0.016373876482248306
808.0,0.0,0.0,0.0,0.0,0.0,0.0,0.01419785711914301,-0.016631336882710457,-0.02460302971303463,0.9976003170013428,0.0003124189970549196,-0.06689652800559998,-0.017852963879704475
809.0,0.0,0.0,0.0,0.0,0.0,0.0,0.010162575170397758,-0.0150830103084445,-0.007084613665938377,0.9975951313972473,-0.0013688263716176152,-0.06624976545572281,-0.020330488681793213
810.0,0.0,0.0,0.0,0.0,0.0,0.0,0.006839240901172161,-0.007595762610435486,0.004431180655956268,0.9975610971450806,-0.0036123269237577915,-0.0663546696305275,-0.02135404758155346
811.0,0.0,0.0,0.0,0.0,0.0,0.0,0.007448579650372267,-0.005224668886512518,0.0072328075766563416,0.9975504279136658,-0.005926487967371941,-0.06613962352275848,-0.02199636772274971
812.0,0.0,0.0,0.0,0.0,0.0,0.0,0.0012927092611789703,-0.006604657042771578,0.00818321481347084,0.9975465536117554,-0.006521756760776043,-0.06571086496114731,-0.023255279287695885
813.0,0.0,0.0,0.0,0.0,0.0,0.0,-0.006570798810571432,-0.0035324289929121733,0.003946515265852213,0.9975355267524719,-0.006003270857036114,-0.06513576954603195,-0.025381097570061684
814.0,0.0,0.0,0.0,0.0,0.0,0.0,-0.0010289876954630017,-0.005727468524128199,-0.010590557008981705,0.9975521564483643,-0.006456444971263409,-0.06416629254817963,-0.027034994214773178
815.0,0.0,0.0,0.0,0.0,0.0,0.0,0.003177276812493801,-0.007759726606309414,-0.015056153759360313,0.9976310133934021,-0.006876459810882807,-0.06250107288360596,-0.027911951765418053
816.0,0.0,0.0,0.0,0.0,0.0,0.0,0.004021268803626299,-0.011136061511933804,-0.016641249880194664,0.9977036714553833,-0.0065422868356108665,-0.06086009740829468,-0.028998300433158875
817.0,0.0,0.0,0.0,0.0,0.0,0.0,0.0028344544116407633,-0.00953090749680996,-0.018496714532375336,0.9978033304214478,-0.006689443718641996,-0.05907690152525902,-0.029218846932053566
818.0,0.0,0.0,0.0,0.0,0.0,0.0,0.0020037367939949036,-0.004960388410836458,-0.008012144826352596,0.997887134552002,-0.005563224200159311,-0.05758802592754364,-0.029565894976258278
819.0,0.0,0.0,0.0,0.0,0.0,0.0,0.0008995023090392351,-0.006570111960172653,-0.00357000227086246,0.9979844689369202,-0.0037533955182880163,-0.05623409152030945,-0.029170433059334755
820.0,0.0,0.0,0.0,0.0,0.0,0.0,0.0005218947771936655,-0.004823538474738598,-0.006797853857278824,0.9981005191802979,-0.0030345823615789413,-0.054579149931669235,-0.028417449444532394
821.0,0.0,0.0,0.0,0.0,0.0,0.0,-0.0008610344957560301,-0.00551692396402359,-0.0038344247732311487,0.998215913772583,-0.0016893534921109676,-0.05248922482132912,-0.028411120176315308
822.0,0.0,0.0,0.0,0.0,0.0,0.0,0.0011591302463784814,-0.004654950927942991,-0.001625153818167746,0.9983224868774414,-0.0005816204356960952,-0.05025156959891319,-0.02875462919473648
823.0,0.0,0.0,0.0,0.0,0.0,0.0,0.004798512440174818,-0.005597504787147045,-0.0013561116065829992,0.9984212517738342,0.0002575279795564711,-0.04875510558485985,-0.027901336550712585
824.0,0.0,0.0,0.0,0.0,0.0,0.0,-0.0007097357884049416,-0.006018384359776974,-0.006358322687447071,0.9985480904579163,0.0009312345064245164,-0.04696198180317879,-0.02637512981891632
825.0,0.0,0.0,0.0,0.0,0.0,0.0,-0.009195801801979542,0.0003834631061181426,0.004711320623755455,0.9986636638641357,0.0014749354450032115,-0.04517681524157524,-0.025065025314688683
826.0,0.0,0.0,0.0,0.0,0.0,0.0,-0.010788239538669586,0.005219079088419676,0.007923712022602558,0.9987907409667969,0.002617199206724763,-0.043115515261888504,-0.023488571867346764
827.0,0.0,0.0,0.0,0.0,0.0,0.0,-0.013097824528813362,0.007676375098526478,0.00946834683418274,0.9989216923713684,0.004586868919432163,-0.04086229205131531,-0.021558698266744614
828.0,0.0,0.0,0.0,0.0,0.0,0.0,-0.022392071783542633,0.009639295749366283,0.012232744134962559,0.9990448951721191,0.006466846447438002,-0.038307346403598785,-0.020008031278848648
829.0,0.0,0.0,0.0,0.0,0.0,0.0,-0.02597126178443432,0.00732195982709527,0.009913659654557705,0.9991418123245239,0.008564778603613377,-0.03568831458687782,-0.019212540239095688
830.0,0.0,0.0,0.0,0.0,0.0,0.0,-0.01511862687766552,-0.00026416496257297695,-0.004830392077565193,0.9992379546165466,0.010102025233209133,-0.03326697647571564,-0.017761968076229095
831.0,0.0,0.0,0.0,0.0,0.0,0.0,-0.020315751433372498,-0.006945780478417873,-0.019864406436681747,0.9993032813072205,0.011208610609173775,-0.03133230656385422,-0.016903119161725044
832.0,0.0,0.0,0.0,0.0,0.0,0.0,-0.015814675018191338,-0.0019793284591287374,-0.016172165051102638,0.9993336200714111,0.012590480037033558,-0.030340658500790596,-0.01591813936829567
833.0,0.0,0.0,0.0,0.0,0.0,0.0,-0.010137207806110382,-0.002586242975667119,-0.013830355368554592,0.9993399977684021,0.01412296574562788,-0.030100420117378235,-0.014640557579696178
834.0,0.0,0.0,0.0,0.0,0.0,0.0,-0.007572775240987539,-0.0020610529463738203,-0.014152775518596172,0.999319851398468,0.015045917592942715,-0.030638061463832855,-0.013974297791719437
835.0,0.0,0.0,0.0,0.0,0.0,0.0,-0.003349277190864086,-0.005583962891250849,-0.0115050682798028,0.9992865920066833,0.015762053430080414,-0.032005563378334045,-0.012406866997480392
836.0,0.0,0.0,0.0,0.0,0.0,0.0,-0.006397323217242956,-0.006258808076381683,-0.004442521836608648,0.9992561340332031,0.015876658260822296,-0.03350174427032471,-0.010642621666193008
837.0,0.0,0.0,0.0,0.0,0.0,0.0,-0.006401340942829847,-0.003515765303745866,0.0002590893709566444,0.999232292175293,0.015752842649817467,-0.034667566418647766,-0.009237387217581272
838.0,0.0,0.0,0.0,0.0,0.0,0.0,-0.0025139590725302696,-0.003120093373581767,0.0034522945061326027,0.9992220997810364,0.015387379564344883,-0.035325754433870316,-0.00842965766787529
839.0,0.0,0.0,0.0,0.0,0.0,0.0,0.004472414031624794,-0.006979548372328281,0.006311910226941109,0.9991881251335144,0.015653179958462715,-0.03626209869980812,-0.00799519568681717
840.0,0.0,0.0,0.0,0.0,0.0,0.0,0.016342245042324066,-0.012640642002224922,-0.009551068767905235,0.999119222164154,0.016019880771636963,-0.03801244869828224,-0.007734791841357946
841.0,0.0,0.0,0.0,0.0,0.0,0.0,0.01631651446223259,-0.016925927251577377,-0.01701400615274906,0.9990528225898743,0.016518855467438698,-0.03937174379825592,-0.008398658595979214
842.0,0.0,0.0,0.0,0.0,0.0,0.0,0.008078984916210175,-0.01806589588522911,-0.0027235406450927258,0.9990003108978271,0.016039516776800156,-0.04072229564189911,-0.009121321141719818
843.0,0.0,0.0,0.0,0.0,0.0,0.0,-0.005075010936707258,-0.013410212472081184,0.011750041507184505,0.9989470839500427,0.01489646639674902,-0.04195065423846245,-0.011106622405350208
844.0,0.0,0.0,0.0,0.0,0.0,0.0,-0.00714831380173564,-0.013587954454123974,0.022213969379663467,0.9988476037979126,0.01600605435669422,-0.04301263764500618,-0.014051225036382675
845.0,0.0,0.0,0.0,0.0,0.0,0.0,-0.010292338207364082,-0.021463515236973763,0.007680653128772974,0.9987301230430603,0.01668691821396351,-0.044493626803159714,-0.016743652522563934
846.0,0.0,0.0,0.0,0.0,0.0,0.0,-0.014409055933356285,-0.019434815272688866,0.010243779048323631,0.9986200928688049,0.016050567850470543,-0.04625735431909561,-0.01900404691696167
847.0,0.0,0.0,0.0,0.0,0.0,0.0,-0.019422641023993492,-0.0141057213768363,0.007739712484180927,0.9985318779945374,0.015155360102653503,-0.04751773551106453,-0.021153200417757034
848.0,0.0,0.0,0.0,0.0,0.0,0.0,-0.016896454617381096,-0.013001133687794209,-0.0035161215346306562,0.9984443187713623,0.014033842831850052,-0.04871696978807449,-0.023224011063575745
849.0,0.0,0.0,0.0,0.0,0.0,0.0,-0.015175591222941875,-0.010632962919771671,-0.005929428618401289,0.9983020424842834,0.01402860414236784,-0.050182100385427475,-0.02604905515909195
850.0,0.0,0.0,0.0,0.0,0.0,0.0,-0.01889594830572605,-0.0083790747448802,-0.010030772536993027,0.9981432557106018,0.01370964664965868,-0.052169691771268845,-0.028300348669290543
851.0,0.0,0.0,0.0,0.0,0.0,0.0,-0.010869143530726433,-0.003004038706421852,-0.013389959931373596,0.9979885220527649,0.012943703681230545,-0.05426372215151787,-0.030123379081487656
852.0,0.0,0.0,0.0,0.0,0.0,0.0,-0.005975194741040468,-0.0042172581888735294,-0.015694191679358482,0.9978249073028564,0.012111268006265163,-0.05654451623558998,-0.03165208175778389
853.0,0.0,0.0,0.0,0.0,0.0,0.0,-0.00010585580457700416,-0.00032955544884316623,-0.013814634643495083,0.9976302981376648,0.0121538657695055,-0.058853596448898315,-0.033504318445920944
854.0,0.0,0.0,0.0,0.0,0.0,0.0,-0.0010225694859400392,0.005987717770040035,0.0020897944923490286,0.9974260926246643,0.011333875358104706,-0.06162523478269577,-0.03486952185630798
855.0,0.0,0.0,0.0,0.0,0.0,0.0,-0.0037839736323803663,0.006719191558659077,0.003009047359228134,0.9972468614578247,0.009767197072505951,-0.06496462225914001,-0.03439927101135254
856.0,0.0,0.0,0.0,0.0,0.0,0.0,-0.0005451603792607784,0.00965032633394003,0.004635211080312729,0.9970771074295044,0.008522192016243935,-0.06813323497772217,-0.03351197391748428
857.0,0.0,0.0,0.0,0.0,0.0,0.0,-0.003867090679705143,0.01557982712984085,0.019955461844801903,0.9969480633735657,0.006978464312851429,-0.07066958397626877,-0.032438866794109344
858.0,0.0,0.0,0.0,0.0,0.0,0.0,-0.015955423936247826,0.022806713357567787,0.0235439445823431,0.9968579411506653,0.005775264464318752,-0.0719863623380661,-0.03254462778568268
859.0,0.0,0.0,0.0,0.0,0.0,0.0,-0.015395687893033028,0.018038906157016754,0.03738834708929062,0.9968608617782593,0.005386253818869591,-0.07196225225925446,-0.03257829323410988
860.0,0.0,0.0,0.0,0.0,0.0,0.0,-0.02127690054476261,0.008059770800173283,0.025144007056951523,0.9969261884689331,0.0038637458346784115,-0.07153663039207458,-0.031723637133836746
861.0,0.0,0.0,0.0,0.0,0.0,0.0,-0.027374157682061195,0.009700577706098557,0.020396286621689796,0.9970266222953796,0.0018398517277091742,-0.07054289430379868,-0.030963143333792686
862.0,0.0,0.0,0.0,0.0,0.0,0.0,-0.03004593774676323,0.013491789810359478,0.02793046273291111,0.9971383810043335,0.0010815822752192616,-0.06876000761985779,-0.03141341730952263
863.0,0.0,0.0,0.0,0.0,0.0,0.0,-0.03752974420785904,0.007600645534694195,0.006183011922985315,0.9972937703132629,0.0012914013350382447,-0.06603759527206421,-0.032297633588314056
864.0,0.0,0.0,0.0,0.0,0.0,0.0,-0.0337468646466732,0.010044957511126995,-0.0029459998477250338,0.9975160956382751,0.0016400524182245135,-0.06243467703461647,-0.03258306160569191
865.0,0.0,0.0,0.0,0.0,0.0,0.0,-0.031001929193735123,0.009139454923570156,0.0006328958552330732,0.9977543950080872,0.0018879270646721125,-0.05824389308691025,-0.0330231599509716
866.0,0.0,0.0,0.0,0.0,0.0,0.0,-0.020941756665706635,0.011398074217140675,-0.01645655743777752,0.9980374574661255,0.0016563093522563577,-0.053569305688142776,-0.032392170280218124
867.0,0.0,0.0,0.0,0.0,0.0,0.0,-0.0020069098100066185,0.007049113977700472,-0.025907134637236595,0.9982731342315674,0.0010883203940466046,-0.049635957926511765,-0.03139953687787056
868.0,0.0,0.0,0.0,0.0,0.0,0.0,-0.0014326979871839285,0.01071541104465723,-0.02523888647556305,0.998424768447876,0.0007636305526830256,-0.04685821756720543,-0.030858000740408897
869.0,0.0,0.0,0.0,0.0,0.0,0.0,0.005921060219407082,0.011014162562787533,-0.03545789793133736,0.9985777735710144,-0.00045409423182718456,-0.04455709084868431,-0.0292781051248312
870.0,0.0,0.0,0.0,0.0,0.0,0.0,0.017877234145998955,0.0182773657143116,-0.022734593600034714,0.9986371994018555,-0.00035943681723438203,-0.043741289526224136,-0.028473075479269028
871.0,0.0,0.0,0.0,0.0,0.0,0.0,0.01959620974957943,0.012064317241311073,-0.018282189965248108,0.9986424446105957,0.0004584178968798369,-0.04431519657373428,-0.027377266436815262
872.0,0.0,0.0,0.0,0.0,0.0,0.0,0.017224140465259552,0.015222093090415001,-0.00047139436355791986,0.9986292123794556,0.0010866113007068634,-0.045706938952207565,-0.025495676323771477
873.0,0.0,0.0,0.0,0.0,0.0,0.0,0.0010897330939769745,0.031678568571805954,0.03135780990123749,0.9986046552658081,0.002898321719840169,-0.046215299516916275,-0.025397274643182755
874.0,0.0,0.0,0.0,0.0,0.0,0.0,-0.008186861872673035,0.019647181034088135,0.027023334056138992,0.9986507296562195,0.004472153726965189,-0.04484790191054344,-0.0258074589073658
875.0,0.0,0.0,0.0,0.0,0.0,0.0,0.009018678218126297,0.002629350172355771,-0.020167134702205658,0.9987239837646484,0.004309799522161484,-0.043768808245658875,-0.024823037907481194
876.0,0.0,0.0,0.0,0.0,0.0,0.0,0.016653476282954216,0.017084822058677673,-0.004475037567317486,0.9987466931343079,0.004967486951500177,-0.04307648912072182,-0.02501397207379341
877.0,0.0,0.0,0.0,0.0,0.0,0.0,0.013635908253490925,0.017426185309886932,0.0130868349224329,0.9987679123878479,0.006764564197510481,-0.04248341917991638,-0.02475813403725624
