,Position_X,Position_Y,Position_Z,Velocity_X,Velocity_Y,Velocity_Z,Acceleration_X,Acceleration_Y,Acceleration_Z,Quaterion_0,Quaterion_1,Quaterion_2,Quaterion_3
207.0,0.0,0.0,0.0,0.0,0.0,0.0,0.002100154757499695,-0.01585463434457779,0.002835705876350403,1.0,3.469446951953614e-18,-3.469446951953614e-18,4.163336342344337e-17
208.0,0.0,0.0,0.0,0.0,0.0,0.0,0.0020794908050447702,-0.020311154425144196,-0.012968984432518482,0.9999980926513672,-8.825681288726628e-05,0.00023336941376328468,0.0019510876154527068
209.0,0.0,0.0,0.0,0.0,0.0,0.0,0.04662960395216942,-0.06927285343408585,-0.01916276291012764,0.9999768137931824,-0.0030533906538039446,-0.0010068630799651146,0.006001667585223913
210.0,0.0,0.0,0.0,0.0,0.0,0.0,0.009749695658683777,-0.007696078158915043,-0.008054913021624088,0.9999902844429016,-0.0008426637505181134,-0.0006950731039978564,0.004271353594958782
211.0,0.0,0.0,0.0,0.0,0.0,0.0,0.019178349524736404,-0.037582240998744965,0.003458436345681548,0.9999579191207886,-0.004453228786587715,-0.003257717937231064,0.007326450664550066
212.0,0.0,0.0,0.0,0.0,0.0,0.0,0.006733691319823265,-0.008811433799564838,0.013315122574567795,0.9999709129333496,-0.002564168069511652,-0.002706940518692136,0.006650832947343588
213.0,0.0,0.0,0.0,0.0,0.0,0.0,-0.01037407387048006,-0.005491673946380615,0.017262974753975868,0.9999679327011108,-0.003254435257986188,-0.004023612942546606,0.006111009046435356
214.0,0.0,0.0,0.0,0.0,0.0,0.0,0.0010832385160028934,-0.00867417547851801,0.016315866261720657,0.999955952167511,-0.0032909312285482883,-0.004515289794653654,0.007538244593888521
215.0,0.0,0.0,0.0,0.0,0.0,0.0,-0.0035197436809539795,0.014515301212668419,0.02644636295735836,0.9999709129333496,-0.002007345901802182,-0.003232184797525406,0.006607011426240206
216.0,0.0,0.0,0.0,0.0,0.0,0.0,0.009048724547028542,0.006272876635193825,0.01513014454394579,0.9999895691871643,-0.00018554799316916615,-0.0011009712470695376,0.004434758797287941
217.0,0.0,0.0,0.0,0.0,0.0,0.0,0.020696744322776794,-0.0079885208979249,-0.0031138884369283915,0.9999946355819702,0.0024661733768880367,0.0014236668357625604,0.0016286950558423996
218.0,0.0,0.0,0.0,0.0,0.0,0.0,0.02450278028845787,-0.023733798414468765,-0.021784763783216476,0.9999937415122986,0.0023877539206296206,0.0015441273571923375,0.0020933891646564007
219.0,0.0,0.0,0.0,0.0,0.0,0.0,0.03631465509533882,-0.027751315385103226,-0.01809278130531311,0.9999929070472717,0.0024891113862395287,0.001692379591986537,0.002277214080095291
220.0,0.0,0.0,0.0,0.0,0.0,0.0,0.022886401042342186,-0.004562570713460445,-0.0063951509073376656,0.9999942779541016,0.0031260191462934017,0.0012987097725272179,-3.6287125112721696e-05
221.0,0.0,0.0,0.0,0.0,0.0,0.0,0.014618762768805027,0.0016924090450629592,0.006204138044267893,0.999995768070221,0.0026661220472306013,-0.0008062561973929405,0.0008282342460006475
222.0,0.0,0.0,0.0,0.0,0.0,0.0,0.006766637321561575,0.011751403100788593,0.018044309690594673,0.999992311000824,0.002986597130075097,-0.0024019309785217047,0.000842326320707798
223.0,0.0,0.0,0.0,0.0,0.0,0.0,0.0034805217292159796,0.006103222258388996,0.01862853392958641,0.9999881386756897,0.002777558285742998,-0.003956806845963001,0.0005411430611275136
224.0,0.0,0.0,0.0,0.0,0.0,0.0,0.0010191097389906645,0.0007212221389636397,0.017863942310214043,0.9999842643737793,0.0023637963458895683,-0.004998678807169199,0.0009529429371468723
225.0,0.0,0.0,0.0,0.0,0.0,0.0,-0.003220280632376671,0.0018150254618376493,0.0197939220815897,0.9999796152114868,0.0023690934758633375,-0.005819152574986219,0.0011470982572063804
226.0,0.0,0.0,0.0,0.0,0.0,0.0,-0.0035050478763878345,7.620192627655342e-05,0.016437925398349762,0.999971866607666,0.002587733091786504,-0.006749584339559078,0.0020115713123232126
227.0,0.0,0.0,0.0,0.0,0.0,0.0,-0.0013919364428147674,-0.006164814345538616,0.009741546586155891,0.999972403049469,0.0028250226750969887,-0.0064825634472072124,0.002289176918566227
228.0,0.0,0.0,0.0,0.0,0.0,0.0,0.0046999771147966385,-0.013398724608123302,-0.0018564076162874699,0.9999712109565735,0.00305530009791255,-0.006498423870652914,0.002442873315885663
229.0,0.0,0.0,0.0,0.0,0.0,0.0,0.007289027329534292,-0.012405597604811192,-0.006675946991890669,0.9999690055847168,0.0031707887537777424,-0.00676284683868289,0.002498902380466461
230.0,0.0,0.0,0.0,0.0,0.0,0.0,0.008922290056943893,-0.00673952279612422,-0.009710617363452911,0.9999678730964661,0.0037233943585306406,-0.006578199099749327,0.002661279868334532
231.0,0.0,0.0,0.0,0.0,0.0,0.0,0.015356393530964851,0.0025315836537629366,-0.010225419886410236,0.9999640583992004,0.0039037084206938744,-0.006669257301837206,0.003490123199298978
232.0,0.0,0.0,0.0,0.0,0.0,0.0,0.019466226920485497,0.008319473825395107,-0.014165308326482773,0.999957263469696,0.004223435651510954,-0.006950360257178545,0.0044020842760801315
233.0,0.0,0.0,0.0,0.0,0.0,0.0,0.024200137704610825,0.00015177529712673277,-0.017849711701273918,0.9999468326568604,0.004587860777974129,-0.007309205364435911,0.005642321426421404
234.0,0.0,0.0,0.0,0.0,0.0,0.0,0.025968195870518684,-0.003464098321273923,-0.02127608098089695,0.9999274611473083,0.005055029410868883,-0.008320131339132786,0.007094964850693941
235.0,0.0,0.0,0.0,0.0,0.0,0.0,0.021950991824269295,-0.004079190548509359,-0.010905075818300247,0.9999083280563354,0.005174689926207066,-0.009356329217553139,0.008307427167892456
236.0,0.0,0.0,0.0,0.0,0.0,0.0,0.0178438238799572,-0.011145194061100483,-0.006596006918698549,0.9998829960823059,0.0050521972589194775,-0.010859347879886627,0.009511664509773254
237.0,0.0,0.0,0.0,0.0,0.0,0.0,0.014071470126509666,-0.01718786172568798,-0.0018924849573522806,0.9998486042022705,0.004682643339037895,-0.012355392798781395,0.011319544166326523
238.0,0.0,0.0,0.0,0.0,0.0,0.0,0.009733685292303562,-0.013357741758227348,0.005960415117442608,0.9998133778572083,0.0038942659739404917,-0.013808206655085087,0.01293876301497221
239.0,0.0,0.0,0.0,0.0,0.0,0.0,0.0037411332596093416,-0.005786602385342121,0.019077101722359657,0.999781608581543,0.0027670131530612707,-0.014967757277190685,0.014321576803922653
240.0,0.0,0.0,0.0,0.0,0.0,0.0,0.0021935924887657166,-0.01301230862736702,0.024457896128296852,0.9997715353965759,0.001980626955628395,-0.015569700859487057,0.014511548914015293
241.0,0.0,0.0,0.0,0.0,0.0,0.0,-2.6945251647703117e-06,-0.02521965093910694,0.022590136155486107,0.9997600317001343,0.0016019234899431467,-0.015903273597359657,0.014981523156166077
242.0,0.0,0.0,0.0,0.0,0.0,0.0,-0.003579395357519388,-0.02943410910665989,0.01899316906929016,0.9997270107269287,9.646677790442482e-05,-0.01837981678545475,0.014426562935113907
243.0,0.0,0.0,0.0,0.0,0.0,0.0,-0.004248735960572958,-0.025572072714567184,0.016823239624500275,0.9997260570526123,-0.0007995978812687099,-0.018644854426383972,0.014125069603323936
244.0,0.0,0.0,0.0,0.0,0.0,0.0,-0.0025552811566740274,-0.023553572595119476,0.01705182157456875,0.9997197985649109,-0.001118958811275661,-0.018545087426900864,0.014665251597762108
245.0,0.0,0.0,0.0,0.0,0.0,0.0,-0.0007391804247163236,-0.02326607145369053,0.017057321965694427,0.999737560749054,-0.0015758862718939781,-0.017532015219330788,0.014662119559943676
246.0,0.0,0.0,0.0,0.0,0.0,0.0,0.009209697134792805,-0.02786661498248577,0.005083681084215641,0.9997699856758118,-0.0019018547609448433,-0.016244830563664436,0.01387092936784029
247.0,0.0,0.0,0.0,0.0,0.0,0.0,0.019594503566622734,-0.05720861256122589,-0.03411262109875679,0.9996896982192993,-0.006466250400990248,-0.017406528815627098,0.016605203971266747
248.0,0.0,0.0,0.0,0.0,0.0,0.0,0.04161592572927475,-0.053525619208812714,-0.0076538934372365475,0.9997658133506775,-0.0038667928893119097,-0.015123896300792694,0.014989234507083893
249.0,0.0,0.0,0.0,0.0,0.0,0.0,0.010842729359865189,0.00043533556163311005,-0.019536655396223068,0.999760091304779,-0.004825426731258631,-0.016171423718333244,0.013961725868284702
250.0,0.0,0.0,0.0,0.0,0.0,0.0,0.031164351850748062,-0.02699705958366394,0.007647206541150808,0.9997022151947021,-0.005312316119670868,-0.017721453681588173,0.015910714864730835
251.0,0.0,0.0,0.0,0.0,0.0,0.0,-0.010479491204023361,0.04307595267891884,0.032508451491594315,0.9997221231460571,-0.006665069609880447,-0.0176021009683609,0.014188218861818314
252.0,0.0,0.0,0.0,0.0,0.0,0.0,0.006741791032254696,0.013975530862808228,0.018118197098374367,0.9996808767318726,-0.007479398511350155,-0.018365055322647095,0.015647731721401215
253.0,0.0,0.0,0.0,0.0,0.0,0.0,0.011186291463673115,0.013167881406843662,0.006142881698906422,0.9996832609176636,-0.0070527843199670315,-0.017857752740383148,0.016268504783511162
254.0,0.0,0.0,0.0,0.0,0.0,0.0,0.017112266272306442,0.016719292849302292,-0.0033436284866183996,0.9997024536132812,-0.006357112899422646,-0.017517149448394775,0.015739481896162033
255.0,0.0,0.0,0.0,0.0,0.0,0.0,0.01766887679696083,0.006057970691472292,-0.005823130253702402,0.9997177720069885,-0.005580082070082426,-0.017028922215104103,0.015599731355905533
256.0,0.0,0.0,0.0,0.0,0.0,0.0,0.018163174390792847,0.00796108040958643,-0.00606440519914031,0.9997333884239197,-0.005068747326731682,-0.017193423584103584,0.014554698951542377
257.0,0.0,0.0,0.0,0.0,0.0,0.0,0.01650695502758026,0.002888647373765707,-0.0061743478290736675,0.9997535347938538,-0.004340089857578278,-0.016847386956214905,0.013792098499834538
258.0,0.0,0.0,0.0,0.0,0.0,0.0,0.014116103760898113,-0.005620382260531187,-0.005930621642619371,0.99974524974823,-0.004208405502140522,-0.01706714741885662,0.014158816076815128
259.0,0.0,0.0,0.0,0.0,0.0,0.0,0.01233524177223444,-0.011060632765293121,-0.004756096284836531,0.9997264742851257,-0.004801101982593536,-0.017732199281454086,0.014477142132818699
260.0,0.0,0.0,0.0,0.0,0.0,0.0,0.018614644184708595,0.0026382594369351864,-0.00022991250443737954,0.9998000860214233,-0.002569776028394699,-0.01705128885805607,0.0101213613525033
261.0,0.0,0.0,0.0,0.0,0.0,0.0,0.001227690721862018,-0.0001455044257454574,0.012911055237054825,0.9997537732124329,-0.004561393987387419,-0.018430814146995544,0.011480523273348808
262.0,0.0,0.0,0.0,0.0,0.0,0.0,0.004413096699863672,0.002234694315120578,0.019340280443429947,0.9997040629386902,-0.005835559219121933,-0.01980394311249256,0.012865872122347355
263.0,0.0,0.0,0.0,0.0,0.0,0.0,-0.006970164831727743,0.020180586725473404,0.0338592454791069,0.999724805355072,-0.004949340131133795,-0.019761230796575546,0.011635265313088894
264.0,0.0,0.0,0.0,0.0,0.0,0.0,-0.0007046614773571491,-0.0001180829931399785,0.021324768662452698,0.9996833205223083,-0.005234507843852043,-0.02056419849395752,0.01352354884147644
265.0,0.0,0.0,0.0,0.0,0.0,0.0,0.005716908257454634,-0.007662728428840637,0.0024881677236407995,0.9997062683105469,-0.005198429338634014,-0.020188475027680397,0.012361658737063408
266.0,0.0,0.0,0.0,0.0,0.0,0.0,0.0013113542227074504,-0.003351053688675165,0.004183173179626465,0.9996509552001953,-0.005554051138460636,-0.021250123158097267,0.014680473133921623
267.0,0.0,0.0,0.0,0.0,0.0,0.0,0.005345809739083052,-0.000446798192569986,0.0034956338349729776,0.999657392501831,-0.005049139726907015,-0.0209586750715971,0.01484554074704647
268.0,0.0,0.0,0.0,0.0,0.0,0.0,0.0064001488499343395,-0.005219925660640001,-0.0010625225258991122,0.999686598777771,-0.004404991399496794,-0.020069800317287445,0.014303963631391525
269.0,0.0,0.0,0.0,0.0,0.0,0.0,0.01031789742410183,-0.009661517105996609,-0.005753318779170513,0.9997095465660095,-0.004030097741633654,-0.019113898277282715,0.014114517718553543
270.0,0.0,0.0,0.0,0.0,0.0,0.0,0.012713095173239708,-0.011407257989048958,-0.009753375314176083,0.9997405409812927,-0.003416961757466197,-0.017993949353694916,0.013544549234211445
271.0,0.0,0.0,0.0,0.0,0.0,0.0,0.015198440290987492,-0.014848917722702026,-0.008589212782680988,0.999748170375824,-0.0030059993732720613,-0.017539765685796738,0.013674055226147175
272.0,0.0,0.0,0.0,0.0,0.0,0.0,0.013110348023474216,-0.009985738433897495,-0.004060541745275259,0.9997507333755493,-0.002622829284518957,-0.017152931541204453,0.014046459458768368
273.0,0.0,0.0,0.0,0.0,0.0,0.0,0.012894893065094948,-0.008132538758218288,0.000612682371865958,0.9997509717941284,-0.001904372707940638,-0.01645558327436447,0.014951003715395927
274.0,0.0,0.0,0.0,0.0,0.0,0.0,0.014027310535311699,-0.007116465363651514,0.0024416418746113777,0.9997531771659851,-0.001093421597033739,-0.015771333128213882,0.015610677190124989
275.0,0.0,0.0,0.0,0.0,0.0,0.0,0.013853328302502632,-0.010103932581841946,0.004702042788267136,0.9997550249099731,-0.00048716264427639544,-0.015502921305596828,0.015789248049259186
276.0,0.0,0.0,0.0,0.0,0.0,0.0,0.015203390270471573,-0.012865869328379631,-0.0003268510627094656,0.9997686147689819,-0.00012372601486276835,-0.014596757479012012,0.01580169051885605
277.0,0.0,0.0,0.0,0.0,0.0,0.0,0.016999658197164536,-0.012861845083534718,-0.003256224561482668,0.9997711777687073,8.42459121486172e-06,-0.014027288183569908,0.016150614246726036
278.0,0.0,0.0,0.0,0.0,0.0,0.0,0.01656183786690235,-0.010467163287103176,-0.0002546586038079113,0.9997680187225342,8.751913992455229e-05,-0.01370556652545929,0.01661580428481102
279.0,0.0,0.0,0.0,0.0,0.0,0.0,0.01225884910672903,-0.006554293911904097,0.00517946807667613,0.999747097492218,-1.6763960957177915e-05,-0.014046975411474705,0.017562568187713623
280.0,0.0,0.0,0.0,0.0,0.0,0.0,0.008401153609156609,-0.004116079770028591,0.012555910274386406,0.9997376203536987,-0.00031371181830763817,-0.013781391084194183,0.01829444244503975
281.0,0.0,0.0,0.0,0.0,0.0,0.0,0.007525630760937929,-0.005689788144081831,0.014832578599452972,0.9997568130493164,-0.0011158218840137124,-0.012269888073205948,0.018291989341378212
282.0,0.0,0.0,0.0,0.0,0.0,0.0,0.023200351744890213,-0.023082181811332703,-0.019047562032938004,0.9997504949569702,-0.0028326099272817373,-0.012127292342483997,0.01854480244219303
283.0,0.0,0.0,0.0,0.0,0.0,0.0,0.07017292082309723,-0.060431282967329025,-0.04016808420419693,0.9997836947441101,-0.003448898671194911,-0.011424083262681961,0.017034806311130524
284.0,0.0,0.0,0.0,0.0,0.0,0.0,0.029406318441033363,0.02375456877052784,-0.015122984535992146,0.9998349547386169,-0.004682663828134537,-0.0122119951993227,0.012606068514287472
285.0,0.0,0.0,0.0,0.0,0.0,0.0,0.02383454516530037,-0.009932883083820343,0.007742474786937237,0.999788224697113,-0.006002784240990877,-0.014533503912389278,0.0132707878947258
286.0,0.0,0.0,0.0,0.0,0.0,0.0,-0.0031155766919255257,0.015660088509321213,0.03630075603723526,0.9997614622116089,-0.0073003084398806095,-0.016042327508330345,0.012900145724415779
287.0,0.0,0.0,0.0,0.0,0.0,0.0,0.0038992257323116064,0.0034183491952717304,0.019778113812208176,0.9997038245201111,-0.00872639287263155,-0.017294911667704582,0.014732740819454193
288.0,0.0,0.0,0.0,0.0,0.0,0.0,0.00571070471778512,-0.00978335365653038,0.011330163106322289,0.9996140003204346,-0.010592039674520493,-0.018600374460220337,0.017712343484163284
289.0,0.0,0.0,0.0,0.0,0.0,0.0,0.010237935930490494,-0.0015891909133642912,0.0014499255921691656,0.999629020690918,-0.011130524799227715,-0.01880468986928463,0.016259750351309776
290.0,0.0,0.0,0.0,0.0,0.0,0.0,0.009887365624308586,-0.010215078480541706,-0.0024423592258244753,0.9996405243873596,-0.010838603600859642,-0.018751110881567,0.01580416038632393
291.0,0.0,0.0,0.0,0.0,0.0,0.0,0.010256552137434483,-0.01174730621278286,0.0016709400806576014,0.9996340870857239,-0.010609853081405163,-0.018764043226838112,0.016343826428055763
292.0,0.0,0.0,0.0,0.0,0.0,0.0,0.006032869685441256,-0.0035709363874047995,0.0068373545072972775,0.9996602535247803,-0.010276388376951218,-0.017988601699471474,0.015820827335119247
293.0,0.0,0.0,0.0,0.0,0.0,0.0,0.006707429885864258,0.0004873581638094038,0.00821985024958849,0.9996917843818665,-0.010010745376348495,-0.017005600035190582,0.015066315419971943
294.0,0.0,0.0,0.0,0.0,0.0,0.0,0.008508165366947651,-0.007294729817658663,0.00010760359873529524,0.9997283816337585,-0.008752563036978245,-0.015927651897072792,0.014592815190553665
295.0,0.0,0.0,0.0,0.0,0.0,0.0,0.017773045226931572,-0.021785661578178406,-0.01290037576109171,0.9997910261154175,-0.0076295421458780766,-0.01476905308663845,0.011898933909833431
296.0,0.0,0.0,0.0,0.0,0.0,0.0,0.027642397210001945,-0.022922439500689507,-0.03015254996716976,0.9998414516448975,-0.007580393925309181,-0.014549534767866135,0.00692347064614296
297.0,0.0,0.0,0.0,0.0,0.0,0.0,0.02096119523048401,-0.03190816938877106,-0.029552415013313293,0.9998185038566589,-0.01012114156037569,-0.015564137138426304,0.004281486384570599
298.0,0.0,0.0,0.0,0.0,0.0,0.0,0.027919601649045944,-0.03142634406685829,-0.02967243269085884,0.9997437000274658,-0.01418797392398119,-0.017305169254541397,0.0034240384120494127
299.0,0.0,0.0,0.0,0.0,0.0,0.0,0.023775624111294746,-0.005191969685256481,-0.014191240072250366,0.9997143745422363,-0.015756821259856224,-0.017811842262744904,-0.002388914581388235
300.0,0.0,0.0,0.0,0.0,0.0,0.0,0.013769634068012238,-0.01448309887200594,0.0014217827701941133,0.9996137022972107,-0.018867282196879387,-0.019725332036614418,-0.005234427750110626
301.0,0.0,0.0,0.0,0.0,0.0,0.0,0.012487055733799934,-0.004770942032337189,0.0051267268136143684,0.999502420425415,-0.022009892389178276,-0.02100335620343685,-0.008325044065713882
302.0,0.0,0.0,0.0,0.0,0.0,0.0,0.006726339925080538,-0.0037521834019571543,0.012350605800747871,0.9993506073951721,-0.024568576365709305,-0.022565418854355812,-0.013618550263345242
303.0,0.0,0.0,0.0,0.0,0.0,0.0,0.005887923762202263,-0.003758979495614767,0.009487566538155079,0.9991651773452759,-0.027838271111249924,-0.02463027462363243,-0.016952374950051308
304.0,0.0,0.0,0.0,0.0,0.0,0.0,0.004943421576172113,0.005316421389579773,0.010123474523425102,0.9990096688270569,-0.030832719057798386,-0.025730755180120468,-0.01915263943374157
305.0,0.0,0.0,0.0,0.0,0.0,0.0,0.0061057209968566895,0.009722281247377396,0.014752132818102837,0.9988622069358826,-0.03354763984680176,-0.026157958433032036,-0.021553602069616318
306.0,0.0,0.0,0.0,0.0,0.0,0.0,0.008939727209508419,0.012683733366429806,0.013127069920301437,0.9987432956695557,-0.03527381271123886,-0.026274848729372025,-0.024022290483117104
307.0,0.0,0.0,0.0,0.0,0.0,0.0,0.013406762853264809,0.011048177257180214,0.00852237455546856,0.9986590147018433,-0.03714778274297714,-0.02618986926972866,-0.02478116936981678
308.0,0.0,0.0,0.0,0.0,0.0,0.0,0.018699906766414642,0.00567539781332016,0.00018861974240280688,0.9985726475715637,-0.03853462263941765,-0.025877846404910088,-0.026418250054121017
309.0,0.0,0.0,0.0,0.0,0.0,0.0,0.02001994661986828,0.004303275141865015,-0.003369815181940794,0.9983999133110046,-0.040779922157526016,-0.025826353579759598,-0.029452212154865265
310.0,0.0,0.0,0.0,0.0,0.0,0.0,0.02180228754878044,0.003998686093837023,-0.0051561095751821995,0.9981897473335266,-0.0432770736515522,-0.02565084397792816,-0.03295797109603882
311.0,0.0,0.0,0.0,0.0,0.0,0.0,0.022484557703137398,0.007730505429208279,-0.0060083079151809216,0.9980401396751404,-0.045290786772966385,-0.025635022670030594,-0.03474888205528259
312.0,0.0,0.0,0.0,0.0,0.0,0.0,0.019525662064552307,0.013406962156295776,0.004272112622857094,0.9979246258735657,-0.04694540798664093,-0.025443769991397858,-0.0359860435128212
313.0,0.0,0.0,0.0,0.0,0.0,0.0,0.014971869997680187,0.016788344830274582,0.014332938008010387,0.99778151512146,-0.04832419008016586,-0.025724727660417557,-0.03788084536790848
314.0,0.0,0.0,0.0,0.0,0.0,0.0,0.012902974151074886,0.017336517572402954,0.019526129588484764,0.9976533651351929,-0.04961421713232994,-0.026196274906396866,-0.039240751415491104
315.0,0.0,0.0,0.0,0.0,0.0,0.0,0.014381668530404568,0.01512608677148819,0.020364010706543922,0.9975809454917908,-0.05004872381687164,-0.02673853002488613,-0.04015438258647919
316.0,0.0,0.0,0.0,0.0,0.0,0.0,0.011732766404747963,0.02033323608338833,0.021701129153370857,0.9975101351737976,-0.05089249461889267,-0.02756848745048046,-0.040289562195539474
317.0,0.0,0.0,0.0,0.0,0.0,0.0,0.0128013389185071,0.025767911225557327,0.02037697657942772,0.9974401593208313,-0.0515458881855011,-0.028576502576470375,-0.04048854857683182
318.0,0.0,0.0,0.0,0.0,0.0,0.0,0.015684518963098526,0.023163117468357086,0.01557814422994852,0.9974111914634705,-0.0517454594373703,-0.02927449159324169,-0.04045000672340393
319.0,0.0,0.0,0.0,0.0,0.0,0.0,0.016474716365337372,0.018101969733834267,0.010804276913404465,0.9973216652870178,-0.05239739269018173,-0.029624294489622116,-0.041548967361450195
320.0,0.0,0.0,0.0,0.0,0.0,0.0,0.015574749559164047,0.017682325094938278,0.008261998184025288,0.9972206950187683,-0.0538666658103466,-0.030148301273584366,-0.04171689227223396
321.0,0.0,0.0,0.0,0.0,0.0,0.0,0.01796126738190651,0.019404705613851547,0.007326153106987476,0.9971683621406555,-0.054964322596788406,-0.030345384031534195,-0.041390273720026016
322.0,0.0,0.0,0.0,0.0,0.0,0.0,0.020391978323459625,0.018029196187853813,0.004061371088027954,0.9971566796302795,-0.05545942485332489,-0.02995505928993225,-0.041295647621154785
323.0,0.0,0.0,0.0,0.0,0.0,0.0,0.02422419562935829,0.010043533518910408,-0.0018830139888450503,0.9971343874931335,-0.055714692920446396,-0.02920500747859478,-0.04202248156070709
324.0,0.0,0.0,0.0,0.0,0.0,0.0,0.028003530576825142,0.0042411694303154945,-0.007878373377025127,0.9971755146980286,-0.05556878447532654,-0.02822186052799225,-0.041909489780664444
325.0,0.0,0.0,0.0,0.0,0.0,0.0,0.028406942263245583,-0.002031350042670965,-0.015721511095762253,0.9971964955329895,-0.0557631179690361,-0.02787403017282486,-0.04138535261154175
326.0,0.0,0.0,0.0,0.0,0.0,0.0,0.02603454329073429,-0.004354567267000675,-0.014606950804591179,0.9971433877944946,-0.05643755942583084,-0.027582382783293724,-0.04193882271647453
327.0,0.0,0.0,0.0,0.0,0.0,0.0,0.03093516081571579,-0.007002617232501507,-0.020074622705578804,0.9970934987068176,-0.05698760598897934,-0.026617230847477913,-0.042992979288101196
328.0,0.0,0.0,0.0,0.0,0.0,0.0,0.02832677960395813,-0.009687405079603195,-0.021473413333296776,0.997057318687439,-0.057567913085222244,-0.025617266073822975,-0.043658994138240814
329.0,0.0,0.0,0.0,0.0,0.0,0.0,0.025966985151171684,-0.011255516670644283,-0.019052894786000252,0.9969662427902222,-0.05863817781209946,-0.025116754695773125,-0.04459654167294502
330.0,0.0,0.0,0.0,0.0,0.0,0.0,0.023058783262968063,-0.01117325946688652,-0.021087100729346275,0.9968246817588806,-0.06027098745107651,-0.025047020986676216,-0.04561224952340126
331.0,0.0,0.0,0.0,0.0,0.0,0.0,0.016958948224782944,-0.005569556262344122,-0.01055884175002575,0.9966975450515747,-0.06217975914478302,-0.025292852893471718,-0.04568956419825554
332.0,0.0,0.0,0.0,0.0,0.0,0.0,0.01000769529491663,0.005131281912326813,0.0006247672718018293,0.9965724945068359,-0.06371670216321945,-0.02624434046447277,-0.04576897621154785
333.0,0.0,0.0,0.0,0.0,0.0,0.0,0.007331637665629387,0.006234474014490843,0.006477637682110071,0.9964678883552551,-0.06498880684375763,-0.02725575864315033,-0.045663945376873016
334.0,0.0,0.0,0.0,0.0,0.0,0.0,0.0057825795374810696,0.006947577930986881,0.010267133824527264,0.9963546395301819,-0.0663943737745285,-0.027958236634731293,-0.04568995535373688
335.0,0.0,0.0,0.0,0.0,0.0,0.0,0.0013186790747568011,0.010351084172725677,0.016174595803022385,0.9962131381034851,-0.06777562201023102,-0.028943492099642754,-0.046126838773489
336.0,0.0,0.0,0.0,0.0,0.0,0.0,-0.005408857017755508,0.009922425262629986,0.02512420527637005,0.9961143732070923,-0.0687432587146759,-0.029577871784567833,-0.04642557352781296
337.0,0.0,0.0,0.0,0.0,0.0,0.0,-0.0017620471771806479,0.007547181565314531,0.021743055433034897,0.996059000492096,-0.06958235055208206,-0.029985157772898674,-0.046100810170173645
338.0,0.0,0.0,0.0,0.0,0.0,0.0,0.0009046104969456792,0.005816077347844839,0.01711285673081875,0.9960260391235352,-0.07036373764276505,-0.029882920905947685,-0.04569406434893608
339.0,0.0,0.0,0.0,0.0,0.0,0.0,0.0044451127760112286,0.007894792594015598,0.011044044978916645,0.9960453510284424,-0.07084845006465912,-0.02948872558772564,-0.0447705015540123
340.0,0.0,0.0,0.0,0.0,0.0,0.0,0.008948256261646748,0.020787350833415985,-0.0025097050238400698,0.996096670627594,-0.07089117169380188,-0.0289726834744215,-0.04388822987675667
341.0,0.0,0.0,0.0,0.0,0.0,0.0,0.00691284891217947,0.017079953104257584,0.01463316474109888,0.996258020401001,-0.06983903795480728,-0.027407554909586906,-0.04290632903575897
342.0,0.0,0.0,0.0,0.0,0.0,0.0,0.010484975762665272,0.005278146825730801,0.008638150058686733,0.9963819980621338,-0.06889066845178604,-0.0260991919785738,-0.04237445816397667
343.0,0.0,0.0,0.0,0.0,0.0,0.0,0.02069743163883686,-0.006835710722953081,-0.007369136903434992,0.9964098930358887,-0.06856650114059448,-0.025961069390177727,-0.04232512041926384
344.0,0.0,0.0,0.0,0.0,0.0,0.0,0.01715680956840515,-0.007509391754865646,-0.004506999161094427,0.9964141249656677,-0.06882544606924057,-0.026090633124113083,-0.041721001267433167
345.0,0.0,0.0,0.0,0.0,0.0,0.0,0.015808280557394028,0.008856049738824368,-0.0074384380131959915,0.9963942170143127,-0.06929948925971985,-0.027094757184386253,-0.04076245427131653
346.0,0.0,0.0,0.0,0.0,0.0,0.0,0.005243913736194372,0.023945340886712074,0.00946816336363554,0.9964519143104553,-0.06900064647197723,-0.027898579835891724,-0.03928977996110916
347.0,0.0,0.0,0.0,0.0,0.0,0.0,-0.007695221807807684,0.032259516417980194,0.0297000203281641,0.9965528249740601,-0.06828273832798004,-0.02820771560072899,-0.037730369716882706
348.0,0.0,0.0,0.0,0.0,0.0,0.0,-0.009516820311546326,0.027022702619433403,0.033177223056554794,0.9966898560523987,-0.06709414720535278,-0.028081655502319336,-0.03631769120693207
349.0,0.0,0.0,0.0,0.0,0.0,0.0,-0.002046557143330574,0.014804002828896046,0.02078564092516899,0.9968860745429993,-0.06540992856025696,-0.027048243209719658,-0.03475075960159302
350.0,0.0,0.0,0.0,0.0,0.0,0.0,0.009415887296199799,0.0015352028422057629,0.009061980061233044,0.997133195400238,-0.06324286758899689,-0.025731563568115234,-0.032609425485134125
351.0,0.0,0.0,0.0,0.0,0.0,0.0,0.015197626315057278,-0.001447533373720944,-0.004493493586778641,0.9973167181015015,-0.06141950562596321,-0.025241876021027565,-0.030815763399004936
352.0,0.0,0.0,0.0,0.0,0.0,0.0,0.013028579764068127,-0.0020742181222885847,-0.0035197087563574314,0.9974942207336426,-0.05949554219841957,-0.024925827980041504,-0.029051830992102623
353.0,0.0,0.0,0.0,0.0,0.0,0.0,0.012253371067345142,0.0034687910228967667,-0.005680513568222523,0.9977253675460815,-0.05747702345252037,-0.02440403588116169,-0.025388598442077637
354.0,0.0,0.0,0.0,0.0,0.0,0.0,0.014300752431154251,0.007591575849801302,-0.00935171078890562,0.9979033470153809,-0.055676866322755814,-0.024545805528759956,-0.022046182304620743
355.0,0.0,0.0,0.0,0.0,0.0,0.0,0.011007780209183693,0.0012569420505315065,-0.014639830216765404,0.9980812072753906,-0.05365051329135895,-0.02500171773135662,-0.018171846866607666
356.0,0.0,0.0,0.0,0.0,0.0,0.0,0.020284142345190048,0.0007017762400209904,-0.013318121433258057,0.9982578754425049,-0.051594652235507965,-0.025089167058467865,-0.01377449557185173
357.0,0.0,0.0,0.0,0.0,0.0,0.0,0.007751020137220621,0.011927383951842785,0.00168242072686553,0.9983758926391602,-0.05003915727138519,-0.024923240765929222,-0.010965363122522831
358.0,0.0,0.0,0.0,0.0,0.0,0.0,0.005746869836002588,0.011159969493746758,0.0030660233460366726,0.9985106587409973,-0.04794371873140335,-0.024594854563474655,-0.008514233864843845
359.0,0.0,0.0,0.0,0.0,0.0,0.0,0.01381750963628292,0.007607354782521725,-0.001364192459732294,0.9986466765403748,-0.04582088813185692,-0.024145815521478653,-0.004690826870501041
360.0,0.0,0.0,0.0,0.0,0.0,0.0,0.021421149373054504,0.011022862046957016,-0.006380792241543531,0.9987282752990723,-0.044236183166503906,-0.024084560573101044,-0.00212305411696434
361.0,0.0,0.0,0.0,0.0,0.0,0.0,0.011706942692399025,0.010739159770309925,0.0013604515697807074,0.9987767338752747,-0.043020378798246384,-0.024375243112444878,0.0003095695865340531
362.0,0.0,0.0,0.0,0.0,0.0,0.0,0.021222956478595734,0.011258486658334732,0.0005299036856740713,0.9988333582878113,-0.04168922081589699,-0.024306314066052437,0.001722265500575304
363.0,0.0,0.0,0.0,0.0,0.0,0.0,0.009364966303110123,0.022096073254942894,0.01374506950378418,0.9988903403282166,-0.04064098745584488,-0.023667315021157265,0.002479569287970662
364.0,0.0,0.0,0.0,0.0,0.0,0.0,0.013776261359453201,0.018678970634937286,0.006847499869763851,0.9989302158355713,-0.039743803441524506,-0.02338470332324505,0.0034270507749170065
365.0,0.0,0.0,0.0,0.0,0.0,0.0,0.005063192453235388,0.01637619361281395,0.004882294684648514,0.9989633560180664,-0.038772474974393845,-0.023367779329419136,0.00473771570250392
366.0,0.0,0.0,0.0,0.0,0.0,0.0,0.01917055808007717,0.002717789961025119,-0.010201065801084042,0.9990146160125732,-0.03763515129685402,-0.02303662709891796,0.00475397240370512
367.0,0.0,0.0,0.0,0.0,0.0,0.0,0.014869322068989277,-0.0014299312606453896,-0.015260335989296436,0.9990313053131104,-0.03741438314318657,-0.02256404235959053,0.005214361939579248
368.0,0.0,0.0,0.0,0.0,0.0,0.0,0.01399984024465084,0.008083059452474117,-0.012671573087573051,0.9990710020065308,-0.03670244663953781,-0.021659433841705322,0.006385450717061758
369.0,0.0,0.0,0.0,0.0,0.0,0.0,0.01569993793964386,0.003351193154230714,-0.02048584073781967,0.9990851879119873,-0.03619304671883583,-0.02123296819627285,0.008240687660872936
370.0,0.0,0.0,0.0,0.0,0.0,0.0,0.012569727376103401,0.012383821420371532,-0.016292035579681396,0.9990847706794739,-0.03583564609289169,-0.02094469964504242,0.010313467122614384
371.0,0.0,0.0,0.0,0.0,0.0,0.0,0.0026393525768071413,0.014693083241581917,-0.005344622768461704,0.9991201758384705,-0.03527747467160225,-0.01929381862282753,0.011904467828571796
372.0,0.0,0.0,0.0,0.0,0.0,0.0,0.010221333242952824,0.00326812407001853,-0.012229436077177525,0.9991788864135742,-0.03472575545310974,-0.016611916944384575,0.012627148069441319
373.0,0.0,0.0,0.0,0.0,0.0,0.0,0.0164064709097147,-0.01979362778365612,-0.02776995673775673,0.9992631673812866,-0.03350069373846054,-0.012769282795488834,0.013691996224224567
374.0,0.0,0.0,0.0,0.0,0.0,0.0,0.027112284675240517,-0.02368280291557312,-0.039548441767692566,0.9991999864578247,-0.03415244072675705,-0.011981704272329807,0.017002811655402184
375.0,0.0,0.0,0.0,0.0,0.0,0.0,0.01834123022854328,-0.01925068162381649,-0.02629314921796322,0.9991992712020874,-0.03349500894546509,-0.00997029710561037,0.019475672394037247
376.0,0.0,0.0,0.0,0.0,0.0,0.0,0.004664529114961624,-0.01648515649139881,0.00844420026987791,0.999157190322876,-0.033292293548583984,-0.007768151815980673,0.02271428145468235
377.0,0.0,0.0,0.0,0.0,0.0,0.0,0.012770932167768478,-0.006369491573423147,0.02556789293885231,0.9991129040718079,-0.03342076763510704,-0.00685548409819603,0.024680284783244133
378.0,0.0,0.0,0.0,0.0,0.0,0.0,-0.007433226332068443,0.021339498460292816,0.049196671694517136,0.9990014433860779,-0.0342208668589592,-0.006686971988528967,0.027929263189435005
379.0,0.0,0.0,0.0,0.0,0.0,0.0,-0.01825694367289543,0.04384958744049072,0.05236028879880905,0.9989075660705566,-0.034316565841436386,-0.006991119123995304,0.030934305861592293
380.0,0.0,0.0,0.0,0.0,0.0,0.0,-0.005264888517558575,0.033659934997558594,0.042088478803634644,0.9988973140716553,-0.03400086984038353,-0.006968849338591099,0.031609248369932175
381.0,0.0,0.0,0.0,0.0,0.0,0.0,0.0009713615290820599,0.014937837608158588,0.02824212610721588,0.9988972544670105,-0.03313988447189331,-0.007005529478192329,0.03251077979803085
382.0,0.0,0.0,0.0,0.0,0.0,0.0,-0.007192953024059534,0.015499127097427845,0.02348114177584648,0.9989185333251953,-0.03240950405597687,-0.005890105850994587,0.0328080952167511
383.0,0.0,0.0,0.0,0.0,0.0,0.0,0.003587956540286541,0.010055127553641796,0.013422727584838867,0.9989630579948425,-0.03203793987631798,-0.004222528543323278,0.032059717923402786
384.0,0.0,0.0,0.0,0.0,0.0,0.0,0.024317454546689987,-0.011104285717010498,-0.0160107109695673,0.9989830255508423,-0.031605709344148636,-0.0034374536480754614,0.031967826187610626
385.0,0.0,0.0,0.0,0.0,0.0,0.0,0.0160992294549942,-0.0030772234313189983,-0.020593205466866493,0.9989694356918335,-0.031123073771595955,-0.0032818817999213934,0.0328727588057518
386.0,0.0,0.0,0.0,0.0,0.0,0.0,0.006262538488954306,0.01158044021576643,-0.005305661354213953,0.9989612102508545,-0.030385682359337807,-0.003704347647726536,0.0337531752884388
387.0,0.0,0.0,0.0,0.0,0.0,0.0,0.01160402037203312,0.007165250368416309,-0.012631149962544441,0.9989770650863647,-0.029782336205244064,-0.0030269066337496042,0.03388632461428642
388.0,0.0,0.0,0.0,0.0,0.0,0.0,0.019270271062850952,0.011231787502765656,-0.01288592629134655,0.9989747405052185,-0.02972565032541752,-0.0019033270655199885,0.03408705070614815
389.0,0.0,0.0,0.0,0.0,0.0,0.0,0.017185334116220474,0.05151839926838875,0.004144628532230854,0.999430239200592,-0.02970529906451702,0.002330583520233631,0.01584678143262863
390.0,0.0,0.0,0.0,0.0,0.0,0.0,0.02706425078213215,-0.030183127149939537,-0.016356386244297028,0.9994221329689026,-0.03324179723858833,0.00463302293792367,-0.0053734080865979195
391.0,0.0,0.0,0.0,0.0,0.0,0.0,0.02809624932706356,-0.04034340754151344,-0.01676691323518753,0.9994217157363892,-0.033463139086961746,0.006007637362927198,-0.00048598600551486015
392.0,0.0,0.0,0.0,0.0,0.0,0.0,0.027354560792446136,-0.021800890564918518,-0.007841413840651512,0.9993381500244141,-0.0316929966211319,0.004975333344191313,0.017143739387392998
393.0,0.0,0.0,0.0,0.0,0.0,0.0,0.008896073326468468,0.01362283993512392,0.011936826631426811,0.9992167949676514,-0.02972571738064289,0.00259424583055079,0.025989610701799393
394.0,0.0,0.0,0.0,0.0,0.0,0.0,-0.014513058587908745,0.019321737810969353,0.04960792884230614,0.9993627071380615,-0.028867626562714577,0.002066085347905755,0.020887400954961777
395.0,0.0,0.0,0.0,0.0,0.0,0.0,-0.02742576040327549,-0.008360794745385647,0.03897371143102646,0.9995514750480652,-0.029199132695794106,0.0023227299097925425,0.006203870289027691
396.0,0.0,0.0,0.0,0.0,0.0,0.0,-0.026399316266179085,-0.027689306065440178,0.046425268054008484,0.9995568990707397,-0.02955499105155468,0.0029863580130040646,0.0018398663960397243
397.0,0.0,0.0,0.0,0.0,0.0,0.0,-0.018638646230101585,-0.03125613182783127,0.04810372740030289,0.9995091557502747,-0.028577378019690514,0.005748764146119356,0.011476858519017696
398.0,0.0,0.0,0.0,0.0,0.0,0.0,-3.240253863623366e-05,-0.015089261345565319,0.028460422530770302,0.9993544816970825,-0.025697197765111923,0.00950141716748476,0.023227138444781303
399.0,0.0,0.0,0.0,0.0,0.0,0.0,0.02651270665228367,-0.0043094647116959095,0.020738601684570312,0.9993821382522583,-0.022667650133371353,0.014530623331665993,0.022588126361370087
400.0,0.0,0.0,0.0,0.0,0.0,0.0,0.02701353095471859,-0.006462101824581623,0.009055715054273605,0.9995023012161255,-0.02063283883035183,0.0212175901979208,0.010905306786298752
401.0,0.0,0.0,0.0,0.0,0.0,0.0,0.04572417214512825,-0.023410964757204056,-0.017758889123797417,0.9994025826454163,-0.019143516197800636,0.028566211462020874,0.0034133202861994505
402.0,0.0,0.0,0.0,0.0,0.0,0.0,0.057687386870384216,-0.007196439430117607,-0.04499910771846771,0.9991939663887024,-0.01651903986930847,0.03542458266019821,0.009138169698417187
403.0,0.0,0.0,0.0,0.0,0.0,0.0,0.047882575541734695,0.03187548741698265,-0.035009872168302536,0.9987524747848511,-0.012676015496253967,0.04341632500290871,0.02113978937268257
404.0,0.0,0.0,0.0,0.0,0.0,0.0,0.04407866299152374,0.052667759358882904,-0.034515827894210815,0.9983394145965576,-0.008939249441027641,0.05053219944238663,0.026158766821026802
405.0,0.0,0.0,0.0,0.0,0.0,0.0,0.05895456671714783,0.03222327306866646,-0.05278594419360161,0.9981493353843689,-0.006657111924141645,0.0567304752767086,0.0208600927144289
406.0,0.0,0.0,0.0,0.0,0.0,0.0,0.057797640562057495,0.006828600075095892,-0.056948378682136536,0.9979631304740906,-0.0044337669387459755,0.06231054663658142,0.012929387390613556
407.0,0.0,0.0,0.0,0.0,0.0,0.0,0.04635389521718025,0.0018903275486081839,-0.041287895292043686,0.9977495074272156,-0.003036780282855034,0.06612816452980042,0.010658284649252892
408.0,0.0,0.0,0.0,0.0,0.0,0.0,0.03789932280778885,0.003955763299018145,-0.02834709919989109,0.9975560307502747,-0.002410655142739415,0.06804109364748001,0.015708019956946373
409.0,0.0,0.0,0.0,0.0,0.0,0.0,0.01172275934368372,0.014949113130569458,-0.00902975257486105,0.9973629713058472,-0.0020580757409334183,0.06857767701148987,0.023651055991649628
410.0,0.0,0.0,0.0,0.0,0.0,0.0,-0.007590781431645155,0.029546545818448067,0.014236072078347206,0.9974465370178223,-0.0034943954087793827,0.06696179509162903,0.02457626350224018
411.0,0.0,0.0,0.0,0.0,0.0,0.0,-0.03453460708260536,0.04334140568971634,0.03934585675597191,0.9978128671646118,-0.005107021890580654,0.06316429376602173,0.018790146335959435
412.0,0.0,0.0,0.0,0.0,0.0,0.0,-0.09161170572042465,0.04599989950656891,0.08703619241714478,0.9981192350387573,-0.008061585016548634,0.06006854400038719,0.009190581738948822
413.0,0.0,0.0,0.0,0.0,0.0,0.0,-0.07881055027246475,0.013697048649191856,0.09618024528026581,0.9982461929321289,-0.011311091482639313,0.0579666942358017,0.003999404609203339
414.0,0.0,0.0,0.0,0.0,0.0,0.0,-0.05498306080698967,0.012085889466106892,0.08196350932121277,0.998238205909729,-0.013790709897875786,0.057522002607584,0.004602051340043545
415.0,0.0,0.0,0.0,0.0,0.0,0.0,-0.027955561876296997,-0.005131791811436415,0.06059802696108818,0.9982763528823853,-0.016337333247065544,0.05625874921679497,0.0033665518276393414
416.0,0.0,0.0,0.0,0.0,0.0,0.0,0.021630004048347473,-0.009539893828332424,0.005998903885483742,0.9984261393547058,-0.01704147458076477,0.053300030529499054,-0.0035391368437558413
417.0,0.0,0.0,0.0,0.0,0.0,0.0,0.01535572949796915,-0.014868352562189102,0.004419431556016207,0.9986124038696289,-0.015725959092378616,0.04882506653666496,-0.011882122606039047
418.0,0.0,0.0,0.0,0.0,0.0,0.0,0.004977548029273748,-0.006529625039547682,0.0023967730812728405,0.9987675547599792,-0.014013261534273624,0.042110543698072433,-0.02222544141113758
419.0,0.0,0.0,0.0,0.0,0.0,0.0,0.048731278628110886,-0.0519489161670208,-0.03422660380601883,0.9989328980445862,-0.012875019572675228,0.030378960072994232,-0.03230541944503784
420.0,0.0,0.0,0.0,0.0,0.0,0.0,0.04346416890621185,-0.07328180968761444,-0.06732530146837234,0.9992682933807373,-0.009433170780539513,0.017180854454636574,-0.032823238521814346
421.0,0.0,0.0,0.0,0.0,0.0,0.0,0.013353617861866951,-0.032081156969070435,-0.04436354711651802,0.999549925327301,-0.00615194346755743,0.0052194795571267605,-0.028879467397928238
422.0,0.0,0.0,0.0,0.0,0.0,0.0,-0.0038901001680642366,-0.015452231280505657,-0.026770345866680145,0.9996325373649597,-0.003396060783416033,-0.005843870807439089,-0.026234056800603867
423.0,0.0,0.0,0.0,0.0,0.0,0.0,-0.012028228491544724,0.01864675059914589,-0.032965224236249924,0.9995128512382507,0.0008331292192451656,-0.01392439752817154,-0.02792416140437126
424.0,0.0,0.0,0.0,0.0,0.0,0.0,-0.02317323163151741,-0.011599753983318806,-0.012409242801368237,0.9993066191673279,0.0008202430326491594,-0.019395923241972923,-0.031724415719509125
425.0,0.0,0.0,0.0,0.0,0.0,0.0,-0.039134394377470016,0.012000850401818752,0.010498822666704655,0.9992042779922485,-0.0008154565584845841,-0.02610941044986248,-0.030148953199386597
426.0,0.0,0.0,0.0,0.0,0.0,0.0,-0.006817873101681471,-0.03418057784438133,-0.016455333679914474,0.9993086457252502,-0.0023440495133399963,-0.030226504430174828,-0.02153307944536209
427.0,0.0,0.0,0.0,0.0,0.0,0.0,-0.0268587414175272,-0.007978266105055809,0.07314689457416534,0.999549150466919,-0.001538553275167942,-0.028541279956698418,-0.009119311347603798
428.0,0.0,0.0,0.0,0.0,0.0,0.0,-0.018700363114476204,0.0002224269264843315,0.04562995582818985,0.9996482729911804,-0.0018907691119238734,-0.026404086500406265,0.0005664580385200679
429.0,0.0,0.0,0.0,0.0,0.0,0.0,0.023983312770724297,-0.05217791721224785,-0.1125619113445282,0.9995552897453308,-0.005778097547590733,-0.02914229780435562,0.0025805276818573475
430.0,0.0,0.0,0.0,0.0,0.0,0.0,0.04805266112089157,-0.027665970847010612,0.13374319672584534,0.9994807243347168,-0.011090174317359924,-0.030125051736831665,0.0023167477920651436
431.0,0.0,0.0,0.0,0.0,0.0,0.0,0.014702590182423592,0.024063358083367348,0.02247583493590355,0.9994186758995056,-0.014570415951311588,-0.03028063103556633,0.0057921153493225574
432.0,0.0,0.0,0.0,0.0,0.0,0.0,0.023720301687717438,0.004674889147281647,-0.023681843653321266,0.9993652701377869,-0.016671311110258102,-0.029295634478330612,0.011469659395515919
433.0,0.0,0.0,0.0,0.0,0.0,0.0,0.020541155710816383,0.015818016603589058,-0.007424633949995041,0.9993082284927368,-0.018732480704784393,-0.02882286347448826,0.014182002283632755
434.0,0.0,0.0,0.0,0.0,0.0,0.0,0.009184458293020725,0.04347546026110649,-0.012117360718548298,0.9992961883544922,-0.021995533257722855,-0.028737736865878105,0.009873316623270512
435.0,0.0,0.0,0.0,0.0,0.0,0.0,0.0019234749488532543,0.03720105439424515,-0.011403090320527554,0.9992724657058716,-0.026050209999084473,-0.027684180065989494,0.0028481180779635906
436.0,0.0,0.0,0.0,0.0,0.0,0.0,0.009601620957255363,0.0178209375590086,-0.02158910036087036,0.9992363452911377,-0.028920654207468033,-0.02630547061562538,0.0005520812701433897
437.0,0.0,0.0,0.0,0.0,0.0,0.0,0.004760051611810923,0.022440660744905472,-0.027903981506824493,0.9992669820785522,-0.029104413464665413,-0.024153975769877434,0.0058313533663749695
438.0,0.0,0.0,0.0,0.0,0.0,0.0,0.004567291121929884,0.028303204104304314,-0.033822283148765564,0.9992700219154358,-0.03008721023797989,-0.02189178764820099,0.008590436540544033
439.0,0.0,0.0,0.0,0.0,0.0,0.0,0.012957938946783543,0.01384767796844244,-0.06336108595132828,0.9992600083351135,-0.031195294111967087,-0.020251937210559845,0.00982526782900095
440.0,0.0,0.0,0.0,0.0,0.0,0.0,0.0001586525177117437,0.03109755925834179,-0.01745295710861683,0.99923175573349,-0.03341253101825714,-0.018427638337016106,0.00895809754729271
441.0,0.0,0.0,0.0,0.0,0.0,0.0,0.005601031705737114,0.015681367367506027,-0.027813836932182312,0.9991815090179443,-0.035795338451862335,-0.016989199444651604,0.008150504902005196
442.0,0.0,0.0,0.0,0.0,0.0,0.0,0.0021092775277793407,0.014687863178551197,-0.01885560154914856,0.9991517663002014,-0.03663601353764534,-0.015179195441305637,0.0110858716070652
443.0,0.0,0.0,0.0,0.0,0.0,0.0,0.018256235867738724,0.001646684599108994,-0.02037018910050392,0.9991114735603333,-0.036661937832832336,-0.014889883808791637,0.014529370702803135
444.0,0.0,0.0,0.0,0.0,0.0,0.0,0.0043150209821760654,0.012279621325433254,0.001018449431285262,0.9990838170051575,-0.03656414523720741,-0.01638144627213478,0.014999227598309517
445.0,0.0,0.0,0.0,0.0,0.0,0.0,-0.025066690519452095,0.031621240079402924,0.05353443697094917,0.9990857243537903,-0.036792393773794174,-0.01738111674785614,0.013125859200954437
446.0,0.0,0.0,0.0,0.0,0.0,0.0,-0.024163436144590378,0.04710225388407707,0.07272745668888092,0.9991109371185303,-0.037517935037612915,-0.01647794246673584,0.009864799678325653
447.0,0.0,0.0,0.0,0.0,0.0,0.0,-0.013134264387190342,0.0397939495742321,0.05021795257925987,0.9991337656974792,-0.037752654403448105,-0.015963023528456688,0.007123502902686596
448.0,0.0,0.0,0.0,0.0,0.0,0.0,0.017766105011105537,0.013282041065394878,0.017584186047315598,0.9991820454597473,-0.03640776872634888,-0.016083018854260445,0.007111043203622103
449.0,0.0,0.0,0.0,0.0,0.0,0.0,0.023465322330594063,0.005176008213311434,0.011956976726651192,0.9992177486419678,-0.0344710648059845,-0.01742200367152691,0.008405022323131561
450.0,0.0,0.0,0.0,0.0,0.0,0.0,0.019208529964089394,0.017039267346262932,0.011310056783258915,0.9991962909698486,-0.03365441411733627,-0.020030567422509193,0.008544261567294598
451.0,0.0,0.0,0.0,0.0,0.0,0.0,0.014149200171232224,0.028826765716075897,0.009775233455002308,0.9991674423217773,-0.032486140727996826,-0.02320735901594162,0.008308055810630322
452.0,0.0,0.0,0.0,0.0,0.0,0.0,0.0009565327782183886,0.041964516043663025,0.04862678423523903,0.9992370009422302,-0.031039034947752953,-0.022335020825266838,0.007969172671437263
453.0,0.0,0.0,0.0,0.0,0.0,0.0,0.015525584109127522,0.012112626805901527,-0.0032080255914479494,0.9992720484733582,-0.031228162348270416,-0.019936230033636093,0.00905997958034277
454.0,0.0,0.0,0.0,0.0,0.0,0.0,0.030233601108193398,-0.014847539365291595,-0.04023376479744911,0.999299943447113,-0.031988732516765594,-0.017173755913972855,0.009017443284392357
455.0,0.0,0.0,0.0,0.0,0.0,0.0,0.021241549402475357,-0.011011089198291302,-0.03608717769384384,0.999308168888092,-0.03262301906943321,-0.016332799568772316,0.007181465160101652
456.0,0.0,0.0,0.0,0.0,0.0,0.0,0.00018467217159923166,-0.028975417837500572,-0.04683497175574303,0.9992786049842834,-0.03340993821620941,-0.017193054780364037,0.005467696115374565
457.0,0.0,0.0,0.0,0.0,0.0,0.0,0.006677378434687853,-0.0887894257903099,-0.039998847991228104,0.9991471171379089,-0.03673005849123001,-0.018534841015934944,0.0035556501243263483
458.0,0.0,0.0,0.0,0.0,0.0,0.0,-0.014702489599585533,-0.0669993907213211,-0.02405080385506153,0.9990619421005249,-0.038856375962495804,-0.018634606152772903,0.004205301869660616
459.0,0.0,0.0,0.0,0.0,0.0,0.0,-0.05122284218668938,0.008729279041290283,0.0419362410902977,0.999005913734436,-0.04141902178525925,-0.016109297052025795,0.0034243823029100895
460.0,0.0,0.0,0.0,0.0,0.0,0.0,-0.008925734087824821,-0.042928546667099,0.0071523794904351234,0.9989289045333862,-0.043967731297016144,-0.014350270852446556,0.001186884823255241
461.0,0.0,0.0,0.0,0.0,0.0,0.0,-0.008979182690382004,-0.04885520786046982,0.0029285207856446505,0.9989739060401917,-0.04388100281357765,-0.011185506358742714,-0.0008909924072213471
462.0,0.0,0.0,0.0,0.0,0.0,0.0,-0.03371799737215042,-0.007566023152321577,0.05184173211455345,0.999042809009552,-0.04312865063548088,-0.006359233055263758,-0.003464649198576808
463.0,0.0,0.0,0.0,0.0,0.0,0.0,-0.030656713992357254,-0.012614092789590359,0.03935129567980766,0.9990736842155457,-0.0425473153591156,-0.0011454852065071464,-0.006351148243993521
464.0,0.0,0.0,0.0,0.0,0.0,0.0,-0.011541851796209812,-0.03440539166331291,0.0032551053445786238,0.9991255402565002,-0.040487680584192276,0.005642561707645655,-0.008742031641304493
465.0,0.0,0.0,0.0,0.0,0.0,0.0,-0.006559047847986221,-0.039273325353860855,0.01274295523762703,0.999062716960907,-0.03840429708361626,0.014797893352806568,-0.013394763693213463
466.0,0.0,0.0,0.0,0.0,0.0,0.0,0.019473815336823463,-0.03884798660874367,-0.01478704996407032,0.9988993406295776,-0.03625326231122017,0.02289211004972458,-0.018983639776706696
467.0,0.0,0.0,0.0,0.0,0.0,0.0,0.036907896399497986,-0.05035589262843132,-0.04301236569881439,0.9987385272979736,-0.03347148001194,0.02959718182682991,-0.02289566583931446
468.0,0.0,0.0,0.0,0.0,0.0,0.0,0.018679019063711166,-0.027736423537135124,-0.025029370561242104,0.9984393119812012,-0.03286318853497505,0.03626558184623718,-0.026901664212346077
469.0,0.0,0.0,0.0,0.0,0.0,0.0,0.011026483960449696,-0.014702803455293179,-0.022218700498342514,0.9980844855308533,-0.035122886300086975,0.04176272451877594,-0.029139818623661995
470.0,0.0,0.0,0.0,0.0,0.0,0.0,-0.025777678936719894,0.007933324202895164,0.017378881573677063,0.9977902173995972,-0.03777233138680458,0.04599839076399803,-0.02951684407889843
471.0,0.0,0.0,0.0,0.0,0.0,0.0,0.003705791663378477,-0.0005941629642620683,-0.010267711244523525,0.9975957870483398,-0.04044376686215401,0.047238320112228394,-0.03058311715722084
472.0,0.0,0.0,0.0,0.0,0.0,0.0,-0.01389277633279562,5.8009947679238394e-05,0.008073435164988041,0.9973738789558411,-0.04269002377986908,0.04917440563440323,-0.031703073531389236
473.0,0.0,0.0,0.0,0.0,0.0,0.0,-0.024213513359427452,0.015397552400827408,0.046163998544216156,0.9971046447753906,-0.04608820751309395,0.0503743551671505,-0.03344729542732239
474.0,0.0,0.0,0.0,0.0,0.0,0.0,-0.002434399211779237,-0.0011583282612264156,0.0148397171869874,0.9969617128372192,-0.04752717167139053,0.05172133073210716,-0.03365202993154526
475.0,0.0,0.0,0.0,0.0,0.0,0.0,-0.001942695933394134,-0.006534857675433159,0.016929497942328453,0.9969110488891602,-0.04827352985739708,0.05227813869714737,-0.033234719187021255
476.0,0.0,0.0,0.0,0.0,0.0,0.0,-0.0012882169103249907,-0.005171801429241896,0.0025835575070232153,0.9969884753227234,-0.04897165670990944,0.050869252532720566,-0.03205248713493347
477.0,0.0,0.0,0.0,0.0,0.0,0.0,0.008146422915160656,-0.009534988552331924,0.008526484481990337,0.9971449375152588,-0.04940871149301529,0.048361677676439285,-0.0303253885358572
478.0,0.0,0.0,0.0,0.0,0.0,0.0,-0.00898415595293045,0.013013570569455624,0.016131741926074028,0.9971780180931091,-0.050019681453704834,0.04753430560231209,-0.029568416997790337
479.0,0.0,0.0,0.0,0.0,0.0,0.0,-0.025685301050543785,0.02497507818043232,0.015063794329762459,0.9971300363540649,-0.051534272730350494,0.046854086220264435,-0.029660580679774284
480.0,0.0,0.0,0.0,0.0,0.0,0.0,-0.02393191121518612,0.015041611157357693,0.014935923740267754,0.9970430731773376,-0.052932605147361755,0.045859143137931824,-0.03161812573671341
481.0,0.0,0.0,0.0,0.0,0.0,0.0,-0.020252376794815063,0.001896009547635913,0.00854275468736887,0.996871829032898,-0.054459262639284134,0.04544896259903908,-0.034852225333452225
482.0,0.0,0.0,0.0,0.0,0.0,0.0,0.0022996587213128805,-0.01733338087797165,-0.00987545307725668,0.9967344403266907,-0.056445445865392685,0.04428705945611,-0.037024758756160736
483.0,0.0,0.0,0.0,0.0,0.0,0.0,-0.00394059345126152,-0.011388800106942654,-0.011436487548053265,0.9967105388641357,-0.057507358491420746,0.042715929448604584,-0.03788790479302406
484.0,0.0,0.0,0.0,0.0,0.0,0.0,0.00029524826095439494,-0.025617558509111404,-0.008503914810717106,0.9967531561851501,-0.05853031575679779,0.04137018695473671,-0.036670293658971786
485.0,0.0,0.0,0.0,0.0,0.0,0.0,-0.004358749836683273,-0.01970609277486801,-0.020763950422406197,0.9968252182006836,-0.059743624180555344,0.03953593596816063,-0.034743618220090866
486.0,0.0,0.0,0.0,0.0,0.0,0.0,-0.015119729563593864,-0.007852514274418354,0.0008026333525776863,0.9968575239181519,-0.061484444886446,0.03696633130311966,-0.03358830511569977
487.0,0.0,0.0,0.0,0.0,0.0,0.0,-0.010341026820242405,0.006451972294598818,-0.004624608438462019,0.9969173669815063,-0.06299912929534912,0.03343620151281357,-0.03267209604382515
488.0,0.0,0.0,0.0,0.0,0.0,0.0,-0.02816985361278057,0.009435074403882027,0.010429536923766136,0.9969894289970398,-0.06397433578968048,0.029572464525699615,-0.03231944516301155
489.0,0.0,0.0,0.0,0.0,0.0,0.0,-0.0379176065325737,0.014268358238041401,0.014827962964773178,0.9971335530281067,-0.06415379047393799,0.02387198433279991,-0.03221046179533005
490.0,0.0,0.0,0.0,0.0,0.0,0.0,-0.020426807925105095,0.007775207050144672,-0.00505915516987443,0.9972849488258362,-0.06446436047554016,0.016333023086190224,-0.031628794968128204
491.0,0.0,0.0,0.0,0.0,0.0,0.0,-0.029592351987957954,-0.0014873151667416096,0.0030186704825609922,0.9973662495613098,-0.06545161455869675,0.00851499754935503,-0.030067527666687965
492.0,0.0,0.0,0.0,0.0,0.0,0.0,-0.04768915846943855,0.00425079045817256,0.027676869183778763,0.997425377368927,-0.06628101319074631,0.0030400848481804132,-0.027210397645831108
493.0,0.0,0.0,0.0,0.0,0.0,0.0,-0.029083268716931343,0.021178381517529488,-0.007209464907646179,0.9974749088287354,-0.06650897115468979,-0.0005971857463009655,-0.024874335154891014
494.0,0.0,0.0,0.0,0.0,0.0,0.0,-0.024223731830716133,0.013892479240894318,0.002339151920750737,0.997570812702179,-0.0660535916686058,-0.0023282209876924753,-0.02197430655360222
495.0,0.0,0.0,0.0,0.0,0.0,0.0,-0.00582969980314374,0.00941959023475647,-0.0011447429424151778,0.9976510405540466,-0.06536402553319931,-0.002819904824718833,-0.020272858440876007
496.0,0.0,0.0,0.0,0.0,0.0,0.0,0.00782485119998455,0.012508539482951164,-0.025171102955937386,0.9977242946624756,-0.06441605091094971,-0.003352940548211336,-0.019604027271270752
497.0,0.0,0.0,0.0,0.0,0.0,0.0,-0.023715464398264885,0.003205233486369252,0.0012333921622484922,0.9977944493293762,-0.0634552538394928,-0.002962820464745164,-0.019240979105234146
498.0,0.0,0.0,0.0,0.0,0.0,0.0,-0.020469821989536285,0.008228671737015247,0.009607255458831787,0.9978156089782715,-0.06309892237186432,-0.002086992608383298,-0.019415270537137985
499.0,0.0,0.0,0.0,0.0,0.0,0.0,-0.005677006207406521,0.01426367461681366,-0.006155309267342091,0.9978417158126831,-0.06249105930328369,-0.0008924847934395075,-0.02010960876941681
500.0,0.0,0.0,0.0,0.0,0.0,0.0,-0.01264495775103569,0.012456330470740795,0.005753465928137302,0.9978381991386414,-0.062185194343328476,0.0020496028009802103,-0.021135129034519196
501.0,0.0,0.0,0.0,0.0,0.0,0.0,-0.022319523617625237,0.02123936079442501,0.014391306787729263,0.9978365898132324,-0.061825647950172424,0.0051102773286402225,-0.021721379831433296
502.0,0.0,0.0,0.0,0.0,0.0,0.0,0.004912815056741238,0.005077693145722151,0.0011888380395248532,0.9978757500648499,-0.06105717644095421,0.008279670029878616,-0.021132471039891243
503.0,0.0,0.0,0.0,0.0,0.0,0.0,0.010403603315353394,-0.005673407576978207,-0.010779968462884426,0.9979426860809326,-0.05968966335058212,0.01124704722315073,-0.020503615960478783
504.0,0.0,0.0,0.0,0.0,0.0,0.0,-0.005600451957434416,0.008897676132619381,0.008375771343708038,0.9979467988014221,-0.05869054049253464,0.01434240397065878,-0.02124234102666378
505.0,0.0,0.0,0.0,0.0,0.0,0.0,0.001480265986174345,-0.0012672767043113708,0.011769474484026432,0.9978578090667725,-0.059008099138736725,0.016802577301859856,-0.022669121623039246
506.0,0.0,0.0,0.0,0.0,0.0,0.0,0.010461070574820042,-0.007560925558209419,-0.005837956443428993,0.9978290796279907,-0.05937234312295914,0.01949724182486534,-0.020746229216456413
507.0,0.0,0.0,0.0,0.0,0.0,0.0,-0.0012581050395965576,0.007956781424582005,0.012272764928638935,0.9978553056716919,-0.058607690036296844,0.021661359816789627,-0.019496049731969833
508.0,0.0,0.0,0.0,0.0,0.0,0.0,0.007338940165936947,0.003920116927474737,-0.007475807331502438,0.9979606866836548,-0.05674939602613449,0.023325715214014053,-0.017581354826688766
509.0,0.0,0.0,0.0,0.0,0.0,0.0,-0.00427806144580245,0.007365662604570389,0.013826855458319187,0.9980440139770508,-0.05508385971188545,0.024748099967837334,-0.016124462708830833
510.0,0.0,0.0,0.0,0.0,0.0,0.0,0.005607531405985355,0.0005600819131359458,-0.0039011212065815926,0.9981092214584351,-0.05412041023373604,0.024264847859740257,-0.016121046617627144
511.0,0.0,0.0,0.0,0.0,0.0,0.0,0.010082544758915901,-0.001090139034204185,-0.022641558200120926,0.9982306957244873,-0.05263550579547882,0.023028003051877022,-0.015270795673131943
512.0,0.0,0.0,0.0,0.0,0.0,0.0,-0.020086225122213364,0.0020819022320210934,0.008937712758779526,0.9983206987380981,-0.052124831825494766,0.02057245746254921,-0.014666233211755753
513.0,0.0,0.0,0.0,0.0,0.0,0.0,-0.016969380900263786,0.0027022105641663074,0.0029328633099794388,0.9984179139137268,-0.052338384091854095,0.016262086108326912,-0.01250266470015049
514.0,0.0,0.0,0.0,0.0,0.0,0.0,-0.0036473239306360483,-0.007284699473530054,-0.018371960148215294,0.9986025094985962,-0.050471559166908264,0.01325839851051569,-0.00833203550428152
515.0,0.0,0.0,0.0,0.0,0.0,0.0,-0.021190796047449112,-0.0021174524445086718,0.03764864057302475,0.9987262487411499,-0.04884795844554901,0.011645697057247162,-0.004806911572813988
516.0,0.0,0.0,0.0,0.0,0.0,0.0,0.021870587021112442,-0.028034599497914314,-0.005355263594537973,0.9988550543785095,-0.04679687321186066,0.009533416479825974,-0.0027971118688583374
517.0,0.0,0.0,0.0,0.0,0.0,0.0,0.034654948860406876,-0.04577779024839401,-0.013443371281027794,0.9989974498748779,-0.043982911854982376,0.008024947717785835,-0.0018890368519350886
518.0,0.0,0.0,0.0,0.0,0.0,0.0,0.0015014543896541,-0.02103346586227417,0.014052516780793667,0.999082088470459,-0.0422561876475811,0.006735510192811489,-0.001995028927922249
519.0,0.0,0.0,0.0,0.0,0.0,0.0,-0.005060827359557152,-0.017847759649157524,0.02444620244204998,0.9991484880447388,-0.040674373507499695,0.006417454220354557,-0.0024048539344221354
520.0,0.0,0.0,0.0,0.0,0.0,0.0,-0.01751535013318062,-0.006709919311106205,0.043430179357528687,0.9992335438728333,-0.03826151788234711,0.008184431120753288,-0.000846106733661145
521.0,0.0,0.0,0.0,0.0,0.0,0.0,0.015048805624246597,-0.005231515038758516,0.01418568566441536,0.9993485808372498,-0.03421054407954216,0.011120563372969627,0.0027751917950809
522.0,0.0,0.0,0.0,0.0,0.0,0.0,0.046930670738220215,-0.0314459353685379,-0.02071194164454937,0.9994524717330933,-0.030497852712869644,0.012231914326548576,0.0036799616646021605
523.0,0.0,0.0,0.0,0.0,0.0,0.0,0.0006303925183601677,-0.023121129721403122,0.006576415151357651,0.9995059370994568,-0.027792949229478836,0.01464100368320942,0.0007453170255757868
524.0,0.0,0.0,0.0,0.0,0.0,0.0,-0.03400614112615585,-0.011641494929790497,0.05204422026872635,0.999488115310669,-0.02596639283001423,0.018568627536296844,-0.0018851442728191614
525.0,0.0,0.0,0.0,0.0,0.0,0.0,0.012646965682506561,-0.042864058166742325,-0.000653500494081527,0.9994379281997681,-0.025477087125182152,0.021701719611883163,-0.001965760486200452
526.0,0.0,0.0,0.0,0.0,0.0,0.0,-0.007913251407444477,-0.031821202486753464,0.025171082466840744,0.9994094967842102,-0.022949667647480965,0.025542547926306725,0.0011136493412777781
527.0,0.0,0.0,0.0,0.0,0.0,0.0,0.005103861913084984,-0.019880864769220352,-0.005805912893265486,0.9994074702262878,-0.0214924905449152,0.0266711562871933,0.0033272355794906616
528.0,0.0,0.0,0.0,0.0,0.0,0.0,0.024566378444433212,-0.06777375936508179,-0.01593109592795372,0.999387264251709,-0.01978357881307602,0.0286155603826046,0.003790520364418626
529.0,0.0,0.0,0.0,0.0,0.0,0.0,0.0050022113136947155,-0.04274129867553711,0.005730669014155865,0.9993452429771423,-0.019301362335681915,0.030470699071884155,0.002805036958307028
530.0,0.0,0.0,0.0,0.0,0.0,0.0,0.02054235152900219,-0.03331345319747925,-0.034036971628665924,0.9992137551307678,-0.022893670946359634,0.03234416991472244,0.0005514746881090105
531.0,0.0,0.0,0.0,0.0,0.0,0.0,0.0331186018884182,-0.03861990198493004,-0.02749818004667759,0.9991390109062195,-0.026401448994874954,0.03198285028338432,0.0009316508076153696
532.0,0.0,0.0,0.0,0.0,0.0,0.0,0.003611992811784148,-0.011501548811793327,-0.003263128222897649,0.9990540742874146,-0.029493147507309914,0.03181181102991104,0.0029148899484425783
533.0,0.0,0.0,0.0,0.0,0.0,0.0,0.0027758784126490355,-0.006932511460036039,-0.024420011788606644,0.9989279508590698,-0.033962275832891464,0.03124542348086834,0.003457410493865609
534.0,0.0,0.0,0.0,0.0,0.0,0.0,-0.03594398498535156,0.02420615218579769,-0.00464945612475276,0.9987361431121826,-0.03899896517395973,0.03165126219391823,-0.0016348253702744842
535.0,0.0,0.0,0.0,0.0,0.0,0.0,-0.05330822989344597,0.03971173241734505,0.05198267102241516,0.9983556270599365,-0.044446658343076706,0.034499794244766235,-0.010937844403088093
536.0,0.0,0.0,0.0,0.0,0.0,0.0,-0.007056724280118942,0.004132876638323069,0.026068923994898796,0.997796893119812,-0.050094667822122574,0.03888991102576256,-0.019469955936074257
537.0,0.0,0.0,0.0,0.0,0.0,0.0,0.04922661930322647,-0.042885757982730865,-0.06474694609642029,0.9973844885826111,-0.05500257387757301,0.04007132351398468,-0.024343600496649742
538.0,0.0,0.0,0.0,0.0,0.0,0.0,0.005313209258019924,-0.016460474580526352,-0.020413629710674286,0.9971702098846436,-0.05753030627965927,0.0407169908285141,-0.02613840065896511
539.0,0.0,0.0,0.0,0.0,0.0,0.0,0.02600128948688507,-0.028733674436807632,-0.045294389128685,0.9971646666526794,-0.05933493748307228,0.03611641377210617,-0.028934895992279053
540.0,0.0,0.0,0.0,0.0,0.0,0.0,-0.014122831635177135,-0.01895233802497387,-0.043975651264190674,0.9972472190856934,-0.0602150596678257,0.029250381514430046,-0.031865596771240234
541.0,0.0,0.0,0.0,0.0,0.0,0.0,-0.068635955452919,0.010230714455246925,0.043839264661073685,0.9970678091049194,-0.06409173458814621,0.022089779376983643,-0.03548187017440796
542.0,0.0,0.0,0.0,0.0,0.0,0.0,-0.04560154303908348,-0.016668202355504036,0.0194315817207098,0.9969637989997864,-0.06661639362573624,0.017330635339021683,-0.03639158234000206
543.0,0.0,0.0,0.0,0.0,0.0,0.0,-0.024758243933320045,0.0015174108557403088,0.009312429465353489,0.9967767596244812,-0.06951509416103363,0.013298568315804005,-0.037776198238134384
544.0,0.0,0.0,0.0,0.0,0.0,0.0,-0.048004478216171265,0.05273165926337242,0.024421747773885727,0.9968348145484924,-0.06876659393310547,0.011594323441386223,-0.03817560896277428
545.0,0.0,0.0,0.0,0.0,0.0,0.0,-0.039284173399209976,0.014100895263254642,0.04860883951187134,0.9971221685409546,-0.06566347926855087,0.011464934796094894,-0.03611059859395027
546.0,0.0,0.0,0.0,0.0,0.0,0.0,-0.019725749269127846,0.00991897750645876,0.03587216138839722,0.997551679611206,-0.06049001216888428,0.01245973352342844,-0.03280472010374069
547.0,0.0,0.0,0.0,0.0,0.0,0.0,-0.029769547283649445,0.024023566395044327,0.02896687388420105,0.9980458617210388,-0.05329832807183266,0.015361228957772255,-0.028759118169546127
548.0,0.0,0.0,0.0,0.0,0.0,0.0,-0.051037225872278214,0.039410367608070374,0.04814593866467476,0.9983887672424316,-0.04655404016375542,0.019409382715821266,-0.025988034904003143
549.0,0.0,0.0,0.0,0.0,0.0,0.0,-0.023582473397254944,0.017519144341349602,0.04066857323050499,0.9985243082046509,-0.04139889031648636,0.023337382823228836,-0.0262761227786541
550.0,0.0,0.0,0.0,0.0,0.0,0.0,0.04037756472826004,-0.016928493976593018,-0.04483536258339882,0.998570442199707,-0.03714972361922264,0.02386799454689026,-0.030121266841888428
551.0,0.0,0.0,0.0,0.0,0.0,0.0,0.013219896703958511,-0.04290914535522461,-0.020420052111148834,0.9986055493354797,-0.03285874426364899,0.025536421686410904,-0.03248773515224457
552.0,0.0,0.0,0.0,0.0,0.0,0.0,0.004361002240329981,-0.03776395320892334,-0.019802194088697433,0.9987431764602661,-0.028060276061296463,0.02697065845131874,-0.03156416863203049
553.0,0.0,0.0,0.0,0.0,0.0,0.0,0.04318278282880783,-0.07108505815267563,-0.0797390565276146,0.9987781643867493,-0.027716519311070442,0.024291876703500748,-0.03291534632444382
554.0,0.0,0.0,0.0,0.0,0.0,0.0,0.009566615335643291,-0.07885012030601501,-0.03320629522204399,0.9986824989318848,-0.029702622443437576,0.021495776250958443,-0.03588990867137909
555.0,0.0,0.0,0.0,0.0,0.0,0.0,-0.010144045576453209,-0.035441890358924866,-0.031954217702150345,0.9985392093658447,-0.03501971438527107,0.015222825109958649,-0.03821779042482376
556.0,0.0,0.0,0.0,0.0,0.0,0.0,-0.027004331350326538,-0.04555197432637215,-0.031014278531074524,0.9981220364570618,-0.0463448241353035,0.007043658755719662,-0.03942755237221718
557.0,0.0,0.0,0.0,0.0,0.0,0.0,-0.07878641039133072,0.012541976757347584,0.08123920112848282,0.9977757334709167,-0.05598069354891777,0.007602740079164505,-0.03536567464470863
558.0,0.0,0.0,0.0,0.0,0.0,0.0,0.04016588628292084,0.009430382400751114,-0.06491279602050781,0.9979115128517151,-0.0573582649230957,0.007854421623051167,-0.028640078380703926
559.0,0.0,0.0,0.0,0.0,0.0,0.0,0.0618973933160305,-0.06316804140806198,-0.054101549088954926,0.997829794883728,-0.058988306671381,0.009217256680130959,-0.027749380096793175
560.0,0.0,0.0,0.0,0.0,0.0,0.0,-0.02248433418571949,0.011358251795172691,0.05801953002810478,0.9973824620246887,-0.06264803558588028,0.010472998023033142,-0.034525200724601746
561.0,0.0,0.0,0.0,0.0,0.0,0.0,0.008509775623679161,-0.002725832862779498,0.015189677476882935,0.9968803524971008,-0.06689365208148956,0.012747202068567276,-0.03989697992801666
562.0,0.0,0.0,0.0,0.0,0.0,0.0,0.02627231925725937,-0.036636192351579666,-0.009128703735768795,0.9967976212501526,-0.0678548514842987,0.018345165997743607,-0.03811110928654671
563.0,0.0,0.0,0.0,0.0,0.0,0.0,0.04096316173672676,0.006452260073274374,-0.014589752070605755,0.9968668818473816,-0.06717094033956528,0.023984478786587715,-0.03416243568062782
564.0,0.0,0.0,0.0,0.0,0.0,0.0,-0.01599932834506035,0.03558388352394104,0.005030425731092691,0.9968124628067017,-0.06726115196943283,0.027016479521989822,-0.033299267292022705
565.0,0.0,0.0,0.0,0.0,0.0,0.0,-0.03838826343417168,0.0286012664437294,0.03177085146307945,0.9965394735336304,-0.06879255920648575,0.02845541574060917,-0.0369676910340786
566.0,0.0,0.0,0.0,0.0,0.0,0.0,0.01714565046131611,0.002562435809522867,0.008441800251603127,0.9962124228477478,-0.07108341157436371,0.029768604785203934,-0.0402628630399704
567.0,0.0,0.0,0.0,0.0,0.0,0.0,0.022779317572712898,-0.009020133875310421,-0.0235872995108366,0.9960637092590332,-0.0730573907494545,0.029568085446953773,-0.040554046630859375
568.0,0.0,0.0,0.0,0.0,0.0,0.0,-0.000898647413123399,0.008985990658402443,-0.0010042124195024371,0.9961907267570496,-0.07284323126077652,0.02843349240720272,-0.038577642291784286
569.0,0.0,0.0,0.0,0.0,0.0,0.0,0.003994429484009743,0.00494540436193347,-0.0075995889492332935,0.9961638450622559,-0.07361214607954025,0.02618146874010563,-0.03939523175358772
570.0,0.0,0.0,0.0,0.0,0.0,0.0,0.010667115449905396,-0.008672243915498257,-0.030790051445364952,0.9959032535552979,-0.0766262337565422,0.02239958755671978,-0.04244578257203102
571.0,0.0,0.0,0.0,0.0,0.0,0.0,0.004378927871584892,-0.01685485616326332,-0.006626402027904987,0.9957303404808044,-0.07933861017227173,0.017605498433113098,-0.043776508420705795
572.0,0.0,0.0,0.0,0.0,0.0,0.0,-0.037360090762376785,0.031207537278532982,0.03360338509082794,0.9956170916557312,-0.08119289577007294,0.014613524079322815,-0.04404526948928833
573.0,0.0,0.0,0.0,0.0,0.0,0.0,-0.02759494073688984,0.027122730389237404,0.001421729801222682,0.9957296252250671,-0.0817241445183754,0.012908156961202621,-0.04092295840382576
574.0,0.0,0.0,0.0,0.0,0.0,0.0,-0.02485080249607563,0.011525128036737442,0.019727321341633797,0.9958791136741638,-0.081416554749012,0.011760392226278782,-0.03814436122775078
575.0,0.0,0.0,0.0,0.0,0.0,0.0,-0.023570694029331207,0.02327669970691204,0.023590082302689552,0.9958294034004211,-0.08140072971582413,0.01229765359312296,-0.039323341101408005
576.0,0.0,0.0,0.0,0.0,0.0,0.0,-0.02771078608930111,0.025327978655695915,0.022325389087200165,0.9956594705581665,-0.08209309726953506,0.014566482044756413,-0.04135250672698021
577.0,0.0,0.0,0.0,0.0,0.0,0.0,-0.007677377667278051,0.0019083358347415924,0.012651321478188038,0.9954869747161865,-0.08290513604879379,0.017236074432730675,-0.04282156005501747
578.0,0.0,0.0,0.0,0.0,0.0,0.0,-0.01027261558920145,0.00850941613316536,0.011681861244142056,0.9954627752304077,-0.08322449028491974,0.02031608670949936,-0.04140819236636162
579.0,0.0,0.0,0.0,0.0,0.0,0.0,-0.016738906502723694,0.010432550683617592,0.007978642359375954,0.9955984354019165,-0.08300457149744034,0.022107744589447975,-0.037466756999492645
580.0,0.0,0.0,0.0,0.0,0.0,0.0,0.0038229976780712605,-0.004036317113786936,0.002848065225407481,0.9956547021865845,-0.0829542726278305,0.024019967764616013,-0.03481205925345421
581.0,0.0,0.0,0.0,0.0,0.0,0.0,0.0012974863639101386,-0.0019458441529422998,-0.009189226664602757,0.9955846667289734,-0.08340010792016983,0.025302033871412277,-0.034841787070035934
582.0,0.0,0.0,0.0,0.0,0.0,0.0,-0.001533741015009582,-0.005336604081094265,-0.004887134302407503,0.9955617189407349,-0.08316697180271149,0.024898964911699295,-0.03632810711860657
583.0,0.0,0.0,0.0,0.0,0.0,0.0,0.012890619225800037,-0.02294796146452427,-0.010973561555147171,0.9956813454627991,-0.08211261034011841,0.02463688887655735,-0.035616859793663025
584.0,0.0,0.0,0.0,0.0,0.0,0.0,0.010348632000386715,-0.026568124070763588,-0.011274497956037521,0.9958024024963379,-0.0817287415266037,0.02491680718958378,-0.03280864283442497
585.0,0.0,0.0,0.0,0.0,0.0,0.0,0.0003818967379629612,-0.015063056722283363,-0.000776531349401921,0.9958759546279907,-0.0818464383482933,0.025005804374814034,-0.03010164201259613
586.0,0.0,0.0,0.0,0.0,0.0,0.0,-0.02076140232384205,0.02128446102142334,0.020755132660269737,0.9959225058555603,-0.08156164735555649,0.025534765794873238,-0.028861314058303833
587.0,0.0,0.0,0.0,0.0,0.0,0.0,0.0038097971118986607,-0.013819806277751923,-0.0013788556680083275,0.9958892464637756,-0.08158188313245773,0.026150910183787346,-0.029408633708953857
588.0,0.0,0.0,0.0,0.0,0.0,0.0,0.00834691058844328,-0.014599365182220936,-0.004036967176944017,0.9959458708763123,-0.08082006126642227,0.02592797577381134,-0.02977181412279606
589.0,0.0,0.0,0.0,0.0,0.0,0.0,0.004248823970556259,-0.0020176961552351713,0.0004962786333635449,0.9961760640144348,-0.07886804640293121,0.02479264698922634,-0.028227362781763077
590.0,0.0,0.0,0.0,0.0,0.0,0.0,0.003187315072864294,-0.005793580785393715,-0.0004007855604868382,0.9964606165885925,-0.07662689685821533,0.02312275394797325,-0.025654053315520287
591.0,0.0,0.0,0.0,0.0,0.0,0.0,-0.017297709360718727,0.014090822078287601,0.012116994708776474,0.9967511892318726,-0.07412080466747284,0.021719027310609818,-0.02280789613723755
592.0,0.0,0.0,0.0,0.0,0.0,0.0,-0.017841732129454613,0.00036684615770354867,0.007993604056537151,0.9968862533569336,-0.07349015772342682,0.019219933077692986,-0.021116828545928
593.0,0.0,0.0,0.0,0.0,0.0,0.0,-0.01760598085820675,-0.0012078358558937907,-0.002774538705125451,0.996959388256073,-0.0734587237238884,0.016669534146785736,-0.0199015773832798
594.0,0.0,0.0,0.0,0.0,0.0,0.0,0.010456723161041737,-0.004111320711672306,-0.01790553703904152,0.9969969987869263,-0.07379269599914551,0.01305901724845171,-0.019467534497380257
595.0,0.0,0.0,0.0,0.0,0.0,0.0,-0.004432611633092165,-0.012570146471261978,-0.0001840670738602057,0.9971807599067688,-0.07244182378053665,0.00879147369414568,-0.017458051443099976
596.0,0.0,0.0,0.0,0.0,0.0,0.0,-0.013562717474997044,0.00520393718034029,0.016159046441316605,0.9975290894508362,-0.06886765360832214,0.005893296096473932,-0.012556471861898899
597.0,0.0,0.0,0.0,0.0,0.0,0.0,-0.02707820199429989,0.007476292550563812,0.026939483359456062,0.9979320764541626,-0.0635637417435646,0.006130587309598923,-0.00728122191503644
598.0,0.0,0.0,0.0,0.0,0.0,0.0,-0.049007073044776917,0.027613986283540726,0.07131343334913254,0.9982351660728455,-0.05832195654511452,0.009893757291138172,-0.00523576233536005
599.0,0.0,0.0,0.0,0.0,0.0,0.0,-0.01659158617258072,-0.0004526832199189812,0.04736510291695595,0.9984424710273743,-0.053404975682497025,0.014661870896816254,-0.006723381578922272
600.0,0.0,0.0,0.0,0.0,0.0,0.0,0.04637696221470833,-0.025446206331253052,-0.04355785250663757,0.9986070394515991,-0.048507850617170334,0.018482631072402,-0.009396543726325035
601.0,0.0,0.0,0.0,0.0,0.0,0.0,0.02775576524436474,-0.024434981867671013,-0.023415828123688698,0.9987472295761108,-0.04421528801321983,0.020701725035905838,-0.010984992608428001
602.0,0.0,0.0,0.0,0.0,0.0,0.0,-0.015215975232422352,-0.014538749121129513,0.002340619219467044,0.9988800287246704,-0.0394652895629406,0.024834033101797104,-0.008007431402802467
603.0,0.0,0.0,0.0,0.0,0.0,0.0,-0.06066478043794632,-0.014930575154721737,0.06085362657904625,0.9987722039222717,-0.03714465722441673,0.03268815949559212,-0.0022823570761829615
604.0,0.0,0.0,0.0,0.0,0.0,0.0,0.002846214221790433,-0.009309875778853893,0.01578647457063198,0.9986409544944763,-0.03614799678325653,0.03753024339675903,0.0008580228313803673
605.0,0.0,0.0,0.0,0.0,0.0,0.0,0.02498764544725418,-0.019009970128536224,-0.035280920565128326,0.9985736608505249,-0.0335259884595871,0.041539762169122696,0.0006420984282158315
606.0,0.0,0.0,0.0,0.0,0.0,0.0,0.02185888960957527,-0.075219064950943,-0.03263409063220024,0.9983862638473511,-0.03320331498980522,0.0460011251270771,-0.0023040692321956158
607.0,0.0,0.0,0.0,0.0,0.0,0.0,0.039351411163806915,-0.061917614191770554,-0.03188152611255646,0.9982815980911255,-0.03386432304978371,0.04765244573354721,-0.003933442756533623
608.0,0.0,0.0,0.0,0.0,0.0,0.0,0.010502252727746964,-0.036211829632520676,-0.022315705195069313,0.9982424974441528,-0.033072058111429214,0.04914771392941475,-0.0014372851001098752
609.0,0.0,0.0,0.0,0.0,0.0,0.0,0.02343674749135971,-0.05132397636771202,-0.025545978918671608,0.9982677102088928,-0.034016065299510956,0.047947678714990616,0.0021112554240971804
610.0,0.0,0.0,0.0,0.0,0.0,0.0,0.024199344217777252,-0.04860316216945648,-0.008794227614998817,0.9982950091362,-0.0361986868083477,0.04569912329316139,0.002712656743824482
611.0,0.0,0.0,0.0,0.0,0.0,0.0,-0.013540900312364101,-0.00255503598600626,0.02167768031358719,0.9982299208641052,-0.03753430023789406,0.046125173568725586,0.00013234790822025388
612.0,0.0,0.0,0.0,0.0,0.0,0.0,-0.00917126890271902,-0.011871153488755226,0.024544384330511093,0.9981493949890137,-0.03914584219455719,0.046387653797864914,-0.0036321855150163174
613.0,0.0,0.0,0.0,0.0,0.0,0.0,0.0007579763769172132,-0.016804521903395653,0.008772243745625019,0.9981433153152466,-0.04012152925133705,0.04551141709089279,-0.005362294148653746
614.0,0.0,0.0,0.0,0.0,0.0,0.0,-0.0038302340544760227,-0.02671627141535282,0.016390925273299217,0.998141884803772,-0.040943343192338943,0.04493908956646919,-0.0039628054946660995
615.0,0.0,0.0,0.0,0.0,0.0,0.0,0.006572721991688013,-0.030671998858451843,0.007380574941635132,0.9982150197029114,-0.04170098900794983,0.042673904448747635,-0.0025313186924904585
616.0,0.0,0.0,0.0,0.0,0.0,0.0,0.0068665919825434685,-0.015915587544441223,-0.010397844947874546,0.9982971549034119,-0.04342993348836899,0.038691919296979904,-0.004347376525402069
617.0,0.0,0.0,0.0,0.0,0.0,0.0,0.023710787296295166,-0.032823193818330765,-0.037881072610616684,0.9983194470405579,-0.04751216992735863,0.030685346573591232,-0.012584062293171883
618.0,0.0,0.0,0.0,0.0,0.0,0.0,0.003243281040340662,-0.041838593780994415,-0.02726556360721588,0.9982896447181702,-0.05070049315690994,0.019725453108549118,-0.021373238414525986
619.0,0.0,0.0,0.0,0.0,0.0,0.0,-0.04060915857553482,-0.04603930935263634,0.003807445988059044,0.9981768131256104,-0.05389207974076271,0.00834443885833025,-0.02585471235215664
620.0,0.0,0.0,0.0,0.0,0.0,0.0,-0.04317793995141983,-0.0317215733230114,0.03952830657362938,0.9980230331420898,-0.0565207302570343,0.0023210602812469006,-0.027362920343875885
621.0,0.0,0.0,0.0,0.0,0.0,0.0,-0.07189978659152985,0.006909551098942757,0.06117929145693779,0.9979992508888245,-0.056931860744953156,-0.0005107928300276399,-0.027473926544189453
622.0,0.0,0.0,0.0,0.0,0.0,0.0,-0.0005789923598058522,0.0076558878645300865,0.01290976908057928,0.9980111718177795,-0.05449853092432022,-0.0004466269165277481,-0.03166119381785393
623.0,0.0,0.0,0.0,0.0,0.0,0.0,0.02523867040872574,-0.009226356633007526,-0.024528270587325096,0.9979537725448608,-0.05207199603319168,-0.0029783351346850395,-0.036974962800741196
624.0,0.0,0.0,0.0,0.0,0.0,0.0,-0.009866215288639069,0.020715707913041115,-0.015941154211759567,0.997927725315094,-0.048894353210926056,-0.0071204910054802895,-0.04121484234929085
625.0,0.0,0.0,0.0,0.0,0.0,0.0,-0.04304937273263931,-0.0070543005131185055,0.03589840978384018,0.9979952573776245,-0.04769832268357277,-0.009956859983503819,-0.04038123041391373
626.0,0.0,0.0,0.0,0.0,0.0,0.0,-0.050033386796712875,0.022379478439688683,0.04550622031092644,0.9981746077537537,-0.04681364819407463,-0.011072521097958088,-0.03650111332535744
627.0,0.0,0.0,0.0,0.0,0.0,0.0,-0.031661443412303925,0.04427959769964218,-0.003099636407569051,0.9982181191444397,-0.045648571103811264,-0.012279079295694828,-0.036417823284864426
628.0,0.0,0.0,0.0,0.0,0.0,0.0,-0.026804419234395027,0.003132918616756797,0.0022468033712357283,0.9979665875434875,-0.04785371199250221,-0.013167226687073708,-0.039982013404369354
629.0,0.0,0.0,0.0,0.0,0.0,0.0,0.0014863269170746207,-0.014255841262638569,-0.03907328099012375,0.997748613357544,-0.05050622299313545,-0.01393161155283451,-0.04184265807271004
630.0,0.0,0.0,0.0,0.0,0.0,0.0,-0.010251817293465137,-0.029999282211065292,-0.0387859046459198,0.9975149631500244,-0.05493772402405739,-0.015182159841060638,-0.041395775973796844
631.0,0.0,0.0,0.0,0.0,0.0,0.0,-0.012624038383364677,0.0007192055927589536,-0.024538571015000343,0.9973927140235901,-0.058729879558086395,-0.01715872995555401,-0.03825864568352699
632.0,0.0,0.0,0.0,0.0,0.0,0.0,-0.019417360424995422,0.00985381193459034,-0.019748052582144737,0.9974111318588257,-0.06098137050867081,-0.016763649880886078,-0.03420913591980934
633.0,0.0,0.0,0.0,0.0,0.0,0.0,0.0032490678131580353,0.001573618152178824,-0.05176357924938202,0.9974347949028015,-0.06235151365399361,-0.017820168286561966,-0.030316198244690895
634.0,0.0,0.0,0.0,0.0,0.0,0.0,0.03196108713746071,-0.016615411266684532,-0.05640270933508873,0.9972631931304932,-0.06447961181402206,-0.019583143293857574,-0.030427010729908943
635.0,0.0,0.0,0.0,0.0,0.0,0.0,-0.013468396849930286,0.030933091416954994,-0.001969598000869155,0.9971610903739929,-0.06638635694980621,-0.018584636971354485,-0.030277766287326813
636.0,0.0,0.0,0.0,0.0,0.0,0.0,-0.03847986459732056,0.03231837972998619,0.009966048412024975,0.9972256422042847,-0.06694142520427704,-0.012954622507095337,-0.02985541708767414
637.0,0.0,0.0,0.0,0.0,0.0,0.0,-0.04197560250759125,0.0004926038673147559,0.023770788684487343,0.9971756339073181,-0.06859184801578522,-0.007419187109917402,-0.029675936326384544
638.0,0.0,0.0,0.0,0.0,0.0,0.0,0.001001867582090199,0.0009232552256435156,-0.016390714794397354,0.9969959259033203,-0.07096701115369797,-0.004109940491616726,-0.030733151361346245
639.0,0.0,0.0,0.0,0.0,0.0,0.0,-0.0019647283479571342,0.0045007760636508465,-0.010433021932840347,0.9968956708908081,-0.07203993946313858,-0.0006123685743659735,-0.03173315152525902
640.0,0.0,0.0,0.0,0.0,0.0,0.0,-0.03150666132569313,0.00621049664914608,0.019131308421492577,0.9969182014465332,-0.07228988409042358,0.005520489066839218,-0.029945870861411095
641.0,0.0,0.0,0.0,0.0,0.0,0.0,0.015849169343709946,-0.009410632774233818,-0.02856960892677307,0.9968982934951782,-0.0730237290263176,0.010138938203454018,-0.027511343359947205
642.0,0.0,0.0,0.0,0.0,0.0,0.0,0.006602565757930279,-0.012567566707730293,-0.030951330438256264,0.9968750476837158,-0.07363318651914597,0.013515387661755085,-0.02518184296786785
643.0,0.0,0.0,0.0,0.0,0.0,0.0,-0.01963694579899311,0.001555813942104578,-0.006887904368340969,0.9967948198318481,-0.07383038103580475,0.01805615983903408,-0.024909915402531624
644.0,0.0,0.0,0.0,0.0,0.0,0.0,-0.01112431287765503,0.012699324637651443,-0.015510473400354385,0.9967359900474548,-0.07321163266897202,0.021334471181035042,-0.026476707309484482
645.0,0.0,0.0,0.0,0.0,0.0,0.0,-0.016625940799713135,0.016731036826968193,-0.013176140375435352,0.9967361688613892,-0.07181427627801895,0.024679971858859062,-0.027358179911971092
646.0,0.0,0.0,0.0,0.0,0.0,0.0,-0.029028747230768204,0.01679922081530094,0.00686313072219491,0.9968082308769226,-0.0695999413728714,0.029052680358290672,-0.02613837644457817
647.0,0.0,0.0,0.0,0.0,0.0,0.0,-0.019579393789172173,0.023219654336571693,-0.0030422131530940533,0.9969572424888611,-0.06652253866195679,0.03339400142431259,-0.023118484765291214
648.0,0.0,0.0,0.0,0.0,0.0,0.0,-0.03161121904850006,0.04482671990990639,0.009669802151620388,0.9969943761825562,-0.06448271125555038,0.03754863888025284,-0.020827746018767357
649.0,0.0,0.0,0.0,0.0,0.0,0.0,-0.02668619528412819,0.05284559354186058,0.009025169536471367,0.9970203638076782,-0.06263785064220428,0.03958996385335922,-0.0213927049189806
650.0,0.0,0.0,0.0,0.0,0.0,0.0,-0.028092529624700546,0.046984441578388214,0.014906387776136398,0.9970700740814209,-0.059714414179325104,0.0414169616997242,-0.023835767060518265
651.0,0.0,0.0,0.0,0.0,0.0,0.0,-0.00804681796580553,0.03751366585493088,0.008491762913763523,0.9971266388893127,-0.056642334908246994,0.042674720287323,-0.026616595685482025
652.0,0.0,0.0,0.0,0.0,0.0,0.0,0.002836903091520071,0.023762837052345276,-0.0063376277685165405,0.9972086548805237,-0.054058488458395004,0.04338541254401207,-0.027743574231863022
653.0,0.0,0.0,0.0,0.0,0.0,0.0,0.010532914660871029,0.003057105466723442,-0.005916135851293802,0.9973269104957581,-0.053020380437374115,0.04250131547451019,-0.026820693165063858
654.0,0.0,0.0,0.0,0.0,0.0,0.0,-0.0010446569649502635,-0.0034781775902956724,-0.0036190287210047245,0.9974404573440552,-0.05264608934521675,0.04160754382610321,-0.024671686813235283
655.0,0.0,0.0,0.0,0.0,0.0,0.0,-0.0024376767687499523,-0.00021063545136712492,0.0011863987892866135,0.9975103139877319,-0.05198591575026512,0.04066147655248642,-0.024803640320897102
656.0,0.0,0.0,0.0,0.0,0.0,0.0,-0.007328134961426258,-0.0035113408230245113,-0.001902031130157411,0.9975537657737732,-0.05070989951491356,0.03998256102204323,-0.02675935998558998
657.0,0.0,0.0,0.0,0.0,0.0,0.0,0.00013407916412688792,-0.016558971256017685,-0.005316725932061672,0.9975985288619995,-0.049614518880844116,0.039109136909246445,-0.02838398888707161
658.0,0.0,0.0,0.0,0.0,0.0,0.0,-0.00015948661894071847,-0.017949968576431274,-0.00491808308288455,0.9976555109024048,-0.048618853092193604,0.03861115500330925,-0.028777888044714928
659.0,0.0,0.0,0.0,0.0,0.0,0.0,-0.01080362033098936,-0.01784558594226837,0.0039142281748354435,0.9977551102638245,-0.04763457551598549,0.03743305429816246,-0.028492219746112823
660.0,0.0,0.0,0.0,0.0,0.0,0.0,-0.00378207815811038,-0.026221849024295807,-0.003438350511714816,0.9978871941566467,-0.046701304614543915,0.03566242754459381,-0.02771788276731968
661.0,0.0,0.0,0.0,0.0,0.0,0.0,2.984760794788599e-05,-0.023923395201563835,-0.011648041196167469,0.9979876279830933,-0.04557187482714653,0.03456968814134598,-0.02735513634979725
662.0,0.0,0.0,0.0,0.0,0.0,0.0,-0.006858061533421278,-0.02628648653626442,-0.001404755050316453,0.9980540871620178,-0.04438379779458046,0.03402691334486008,-0.027558516710996628
663.0,0.0,0.0,0.0,0.0,0.0,0.0,-0.005951890721917152,-0.03436198830604553,-0.001248643035069108,0.9980691075325012,-0.04395115002989769,0.03404930606484413,-0.027671052142977715
664.0,0.0,0.0,0.0,0.0,0.0,0.0,-0.022576304152607918,-0.02036668173968792,0.007113717496395111,0.9980668425559998,-0.04396892338991165,0.03565817326307297,-0.025629190728068352
665.0,0.0,0.0,0.0,0.0,0.0,0.0,-0.028387321159243584,-0.006889849901199341,0.013778595253825188,0.9980948567390442,-0.04383184015750885,0.03713621944189072,-0.022459086030721664
666.0,0.0,0.0,0.0,0.0,0.0,0.0,-0.03212516009807587,0.007046414539217949,0.017084753140807152,0.9982355237007141,-0.04266400635242462,0.03675200045108795,-0.01881118305027485
667.0,0.0,0.0,0.0,0.0,0.0,0.0,0.03241562470793724,-0.03225459158420563,-0.02760555036365986,0.998356819152832,-0.04180096834897995,0.03546620160341263,-0.016665682196617126
668.0,0.0,0.0,0.0,0.0,0.0,0.0,-0.01707341894507408,-0.012769662775099277,-0.006432528141885996,0.9983503818511963,-0.0433383472263813,0.03469708561897278,-0.014687036164104939
669.0,0.0,0.0,0.0,0.0,0.0,0.0,-0.08674679696559906,0.05383209511637688,0.019605811685323715,0.9982373714447021,-0.04792192578315735,0.03267388790845871,-0.012499125674366951
670.0,0.0,0.0,0.0,0.0,0.0,0.0,-0.013614803552627563,0.01630919612944126,-0.007445172872394323,0.9982401728630066,-0.05172403156757355,0.027874935418367386,-0.00794179830700159
671.0,0.0,0.0,0.0,0.0,0.0,0.0,0.002697453834116459,0.031050287187099457,-0.02655639313161373,0.998330295085907,-0.05240004137158394,0.023992419242858887,-0.0036736177280545235
672.0,0.0,0.0,0.0,0.0,0.0,0.0,-0.04874745011329651,0.03453868627548218,0.03959218040108681,0.9983786940574646,-0.05315930396318436,0.020261775702238083,-0.0014624942559748888
673.0,0.0,0.0,0.0,0.0,0.0,0.0,-0.05878090113401413,0.022285163402557373,0.06053244322538376,0.998426079750061,-0.053200457245111465,0.017424611374735832,0.0032281773164868355
674.0,0.0,0.0,0.0,0.0,0.0,0.0,-0.039653096348047256,0.0262242890894413,0.019206099212169647,0.9984999895095825,-0.052244000136852264,0.014248549938201904,0.007891852408647537
675.0,0.0,0.0,0.0,0.0,0.0,0.0,-0.04823603853583336,0.011920051649212837,0.018785446882247925,0.998599648475647,-0.05049258843064308,0.011010316200554371,0.011288509704172611
676.0,0.0,0.0,0.0,0.0,0.0,0.0,-0.022849172353744507,-0.017315559089183807,0.00024338292132597417,0.9987102150917053,-0.04875277727842331,0.008127545937895775,0.0115948636084795
677.0,0.0,0.0,0.0,0.0,0.0,0.0,-0.020708022639155388,-0.029401492327451706,-0.013375147245824337,0.9987731575965881,-0.04748772457242012,0.006636750418692827,0.012360992841422558
678.0,0.0,0.0,0.0,0.0,0.0,0.0,-0.01665189117193222,-0.019689306616783142,0.0019760476425290108,0.9987872838973999,-0.04621308669447899,0.005230604205280542,0.01614205539226532
679.0,0.0,0.0,0.0,0.0,0.0,0.0,-0.012214812450110912,-0.02146157994866371,0.0005197551217861474,0.9987501502037048,-0.04498360678553581,0.004149503540247679,0.021360384300351143
680.0,0.0,0.0,0.0,0.0,0.0,0.0,-0.009363952092826366,-0.028621124103665352,-0.01724066212773323,0.9987187385559082,-0.04349887743592262,0.002925743581727147,0.02569393627345562
681.0,0.0,0.0,0.0,0.0,0.0,0.0,-0.017803244292736053,-0.02224220708012581,-0.004806554410606623,0.9987469911575317,-0.04258004203438759,0.0015148842940106988,0.026241883635520935
682.0,0.0,0.0,0.0,0.0,0.0,0.0,-0.002258959226310253,-0.02592688426375389,-0.019676916301250458,0.9988207817077637,-0.041486188769340515,0.0003726671857293695,0.02520984597504139
683.0,0.0,0.0,0.0,0.0,0.0,0.0,8.25596071081236e-05,-0.028679871931672096,-0.02413191832602024,0.9988785982131958,-0.03966410458087921,-0.000902108964510262,0.02580532617866993
684.0,0.0,0.0,0.0,0.0,0.0,0.0,-0.006453016307204962,-0.024178439751267433,-0.012993725948035717,0.9988994002342224,-0.03736346960067749,-0.0019001634791493416,0.028293412178754807
685.0,0.0,0.0,0.0,0.0,0.0,0.0,-0.007454447913914919,-0.01878494769334793,-0.004935778211802244,0.9989197850227356,-0.034453459084033966,-0.00212660850957036,0.031089559197425842
686.0,0.0,0.0,0.0,0.0,0.0,0.0,0.014479179866611958,-0.027230774983763695,-0.022450488060712814,0.9990236759185791,-0.031875129789114,-0.0028180587105453014,0.03044174611568451
687.0,0.0,0.0,0.0,0.0,0.0,0.0,-0.002199397888034582,-0.0217310581356287,-0.0013273149961605668,0.9991974234580994,-0.02871420420706272,-0.0025939701590687037,0.027791079133749008
688.0,0.0,0.0,0.0,0.0,0.0,0.0,-0.006241905502974987,-0.028514904901385307,0.005344089586287737,0.9993305802345276,-0.024580128490924835,-0.0017002951353788376,0.027021830901503563
689.0,0.0,0.0,0.0,0.0,0.0,0.0,0.00580215360969305,-0.029660893604159355,0.0018568753730505705,0.9994100332260132,-0.018345480784773827,0.0014747596578672528,0.028982670977711678
690.0,0.0,0.0,0.0,0.0,0.0,0.0,0.020826799795031548,-0.019454678520560265,0.004192606080323458,0.9994944334030151,-0.011946575716137886,0.005289403256028891,0.028976310044527054
691.0,0.0,0.0,0.0,0.0,0.0,0.0,0.03503812849521637,-0.04002464935183525,0.008375351317226887,0.9996145963668823,-0.007649498991668224,0.00860485527664423,0.025245368480682373
692.0,0.0,0.0,0.0,0.0,0.0,0.0,0.038490764796733856,-0.039384350180625916,-0.017050057649612427,0.9997466206550598,-0.004070050083100796,0.010445153340697289,0.019517973065376282
693.0,0.0,0.0,0.0,0.0,0.0,0.0,-0.00421066815033555,-0.04104885831475258,0.01941918022930622,0.9997780323028564,-0.0032807199750095606,0.013605406507849693,0.0157356858253479
694.0,0.0,0.0,0.0,0.0,0.0,0.0,-0.046470846980810165,-0.034381117671728134,0.08870882540941238,0.9997138977050781,-0.003562571480870247,0.019363412633538246,0.01357626635581255
695.0,0.0,0.0,0.0,0.0,0.0,0.0,0.017067838460206985,-0.02373005636036396,0.004705940838903189,0.9997321367263794,-0.003511355957016349,0.02053411677479744,0.010078893043100834
696.0,0.0,0.0,0.0,0.0,0.0,0.0,0.0489172600209713,-0.10508563369512558,-0.07005488872528076,0.9996967315673828,-0.003541832324117422,0.02320973016321659,0.007450339384377003
697.0,0.0,0.0,0.0,0.0,0.0,0.0,0.006261078640818596,-0.08729710429906845,-0.0008369833813048899,0.9996568560600281,-0.0035929810255765915,0.02498774044215679,0.0069563062861561775
698.0,0.0,0.0,0.0,0.0,0.0,0.0,-0.002073122188448906,-0.0038257448468357325,-0.026331091299653053,0.9996687173843384,-0.005346617195755243,0.02422522008419037,0.006848531309515238
699.0,0.0,0.0,0.0,0.0,0.0,0.0,0.009499631822109222,-0.011030348017811775,-0.03034501150250435,0.9996633529663086,-0.00820905901491642,0.02375117875635624,0.006445859558880329
700.0,0.0,0.0,0.0,0.0,0.0,0.0,-0.009147580713033676,-0.017237134277820587,0.0013164960546419024,0.9996505379676819,-0.012547817081212997,0.022871611639857292,0.0042724269442260265
701.0,0.0,0.0,0.0,0.0,0.0,0.0,-0.024028515443205833,0.017268067225813866,-0.007951932959258556,0.9995713233947754,-0.017914405092597008,0.023150231689214706,0.0004731330554932356
702.0,0.0,0.0,0.0,0.0,0.0,0.0,-0.005531229078769684,-0.0025709106121212244,0.002335268771275878,0.9993866682052612,-0.025706272572278976,0.02348286844789982,-0.003729826770722866
703.0,0.0,0.0,0.0,0.0,0.0,0.0,0.0004392910050228238,0.0003846271429210901,-0.012383393943309784,0.9991382360458374,-0.0330057293176651,0.023594846948981285,-0.008728696033358574
704.0,0.0,0.0,0.0,0.0,0.0,0.0,-0.0037684764247387648,-0.007037804462015629,-0.026752935722470284,0.9988768696784973,-0.03928613290190697,0.021694442257285118,-0.015195048414170742
705.0,0.0,0.0,0.0,0.0,0.0,0.0,-0.004853497259318829,-0.021770913153886795,-0.016727320849895477,0.998669445514679,-0.04349576681852341,0.018353357911109924,-0.02074779011309147
706.0,0.0,0.0,0.0,0.0,0.0,0.0,-0.00986121129244566,-0.010952528566122055,-0.015470032580196857,0.9985049962997437,-0.047582224011421204,0.013549093157052994,-0.023232324048876762
707.0,0.0,0.0,0.0,0.0,0.0,0.0,-0.023219529539346695,-0.002605532528832555,-0.01626705192029476,0.9983687996864319,-0.05084915831685066,0.006633112672716379,-0.025095421820878983
708.0,0.0,0.0,0.0,0.0,0.0,0.0,-0.02917497791349888,0.0018313353648409247,-0.031822752207517624,0.998002290725708,-0.05472055822610855,-0.0029555857181549072,-0.031438928097486496
709.0,0.0,0.0,0.0,0.0,0.0,0.0,-0.053894177079200745,-0.014073817059397697,-0.007995937950909138,0.9972859025001526,-0.060565557330846786,-0.012150813825428486,-0.040053654462099075
710.0,0.0,0.0,0.0,0.0,0.0,0.0,-0.06190899759531021,0.0008635596022941172,0.01573142595589161,0.9967079758644104,-0.0644603818655014,-0.01832601986825466,-0.04562201723456383
711.0,0.0,0.0,0.0,0.0,0.0,0.0,-0.05075385794043541,0.03837238997220993,0.02310723252594471,0.9963378310203552,-0.06604968011379242,-0.023991579189896584,-0.04869450256228447
712.0,0.0,0.0,0.0,0.0,0.0,0.0,-0.006019254215061665,0.013734117150306702,-0.02148357406258583,0.9962681531906128,-0.06421565264463425,-0.029513360932469368,-0.04954547807574272
713.0,0.0,0.0,0.0,0.0,0.0,0.0,-0.034491851925849915,-0.004808707628399134,-0.014373007230460644,0.9959844946861267,-0.06277413666248322,-0.03460976853966713,-0.05363082140684128
714.0,0.0,0.0,0.0,0.0,0.0,0.0,-0.06617402285337448,0.05824236944317818,0.03483708202838898,0.9955532550811768,-0.06279579550027847,-0.0387459471821785,-0.058553971350193024
715.0,0.0,0.0,0.0,0.0,0.0,0.0,-0.04888670891523361,0.015736250206828117,0.011080082505941391,0.9953186511993408,-0.06168552488088608,-0.04073314741253853,-0.062262218445539474
716.0,0.0,0.0,0.0,0.0,0.0,0.0,-0.11020781844854355,-0.009945117868483067,0.041027043014764786,0.9953263998031616,-0.0601310059428215,-0.03872547298669815,-0.06487739831209183
717.0,0.0,0.0,0.0,0.0,0.0,0.0,-0.0649866983294487,0.043945107609033585,0.030927641317248344,0.9950383305549622,-0.0593191459774971,-0.04070696607232094,-0.06871988624334335
718.0,0.0,0.0,0.0,0.0,0.0,0.0,-0.04285497963428497,-0.036648787558078766,-0.00593293784186244,0.9947659373283386,-0.06079937517642975,-0.041061077266931534,-0.07110937684774399
719.0,0.0,0.0,0.0,0.0,0.0,0.0,-0.020442498847842216,-0.030137572437524796,-0.03698403760790825,0.9945023059844971,-0.06296411156654358,-0.04266626760363579,-0.07196026295423508
720.0,0.0,0.0,0.0,0.0,0.0,0.0,-0.0369856096804142,0.002102349419146776,-0.027092551812529564,0.9940157532691956,-0.06701014935970306,-0.04593300446867943,-0.07301691919565201
721.0,0.0,0.0,0.0,0.0,0.0,0.0,-0.026798110455274582,-0.0177439134567976,-0.014802210032939911,0.9936019778251648,-0.07049686461687088,-0.0492105558514595,-0.07323512434959412
722.0,0.0,0.0,0.0,0.0,0.0,0.0,0.03993190824985504,0.10439252108335495,-0.01611940562725067,0.9940172433853149,-0.06764747947454453,-0.05076957494020462,-0.0690992921590805
723.0,0.0,0.0,0.0,0.0,0.0,0.0,0.024169888347387314,-0.011328354477882385,-0.056077130138874054,0.994028627872467,-0.06800634413957596,-0.05211994796991348,-0.06756329536437988
724.0,0.0,0.0,0.0,0.0,0.0,0.0,-0.015654267743229866,-0.0012148888781666756,-0.0077402833849191666,0.9940288066864014,-0.0680900365114212,-0.05045146867632866,-0.06872672587633133
725.0,0.0,0.0,0.0,0.0,0.0,0.0,-0.04581015184521675,0.06404096633195877,0.023755650967359543,0.9940664768218994,-0.06774698942899704,-0.04740322381258011,-0.07066706568002701
726.0,0.0,0.0,0.0,0.0,0.0,0.0,-0.04853616654872894,0.024685431271791458,0.026743249967694283,0.9940900802612305,-0.06845292448997498,-0.042170390486717224,-0.07293178141117096
727.0,0.0,0.0,0.0,0.0,0.0,0.0,-0.05306987464427948,0.012143232859671116,0.042527444660663605,0.9945681095123291,-0.06832050532102585,-0.03392450883984566,-0.07081355899572372
728.0,0.0,0.0,0.0,0.0,0.0,0.0,-0.011951569467782974,0.035720378160476685,-0.003929174039512873,0.9948854446411133,-0.06923511624336243,-0.02863255701959133,-0.06773393601179123
729.0,0.0,0.0,0.0,0.0,0.0,0.0,-0.002895087469369173,-0.004301140084862709,-0.0030612461268901825,0.9951854348182678,-0.07047263532876968,-0.025112725794315338,-0.06331006437540054
730.0,0.0,0.0,0.0,0.0,0.0,0.0,0.005950005259364843,0.01824239082634449,0.0022606062702834606,0.9956227540969849,-0.06906517595052719,-0.024330120533704758,-0.058069273829460144
731.0,0.0,0.0,0.0,0.0,0.0,0.0,0.008114807307720184,0.016621334478259087,-0.00031779028358869255,0.995680034160614,-0.07085292786359787,-0.022866766899824142,-0.05546491593122482
732.0,0.0,0.0,0.0,0.0,0.0,0.0,0.03921885043382645,-0.001124537899158895,-0.04120566323399544,0.9954381585121155,-0.07429808378219604,-0.02317018061876297,-0.0551791675388813
733.0,0.0,0.0,0.0,0.0,0.0,0.0,0.006061154883354902,0.020733783021569252,-0.010029073804616928,0.995171308517456,-0.07697843015193939,-0.02353806234896183,-0.05614866316318512
734.0,0.0,0.0,0.0,0.0,0.0,0.0,0.0044876825995743275,0.05471883341670036,-0.0016916319727897644,0.994881272315979,-0.07960397005081177,-0.025148116052150726,-0.056929267942905426
735.0,0.0,0.0,0.0,0.0,0.0,0.0,0.01330877747386694,0.03319130465388298,-0.008221879601478577,0.9948156476020813,-0.08111055195331573,-0.025042597204446793,-0.05597730353474617
736.0,0.0,0.0,0.0,0.0,0.0,0.0,-0.014891909435391426,0.05401540547609329,0.010406221263110638,0.994780957698822,-0.08290759474039078,-0.024018224328756332,-0.05438169464468956
737.0,0.0,0.0,0.0,0.0,0.0,0.0,-0.0015421250136569142,0.058562807738780975,0.009610312059521675,0.9947439432144165,-0.08430691063404083,-0.022878926247358322,-0.05339859798550606
738.0,0.0,0.0,0.0,0.0,0.0,0.0,-0.00539509579539299,0.04506117105484009,0.015671735629439354,0.9949294924736023,-0.08377107977867126,-0.020571311935782433,-0.051708515733480453
739.0,0.0,0.0,0.0,0.0,0.0,0.0,-0.0004254933155607432,0.044414762407541275,0.021181337535381317,0.9951030611991882,-0.08290837705135345,-0.016631022095680237,-0.05116189643740654
740.0,0.0,0.0,0.0,0.0,0.0,0.0,0.007826588116586208,0.03805529698729515,0.001510809175670147,0.9953107833862305,-0.08162829279899597,-0.01230151578783989,-0.050411760807037354
741.0,0.0,0.0,0.0,0.0,0.0,0.0,0.008966304361820221,0.02822643704712391,-0.0025894532445818186,0.9955061078071594,-0.08051428198814392,-0.00834425538778305,-0.04913078248500824
742.0,0.0,0.0,0.0,0.0,0.0,0.0,0.029750896617770195,0.018766093999147415,-0.01338534988462925,0.9955223798751831,-0.08005941659212112,-0.00619266415014863,-0.04985657334327698
743.0,0.0,0.0,0.0,0.0,0.0,0.0,0.03266137093305588,0.007525722496211529,-0.022756198421120644,0.9955716133117676,-0.07949481159448624,-0.004890476819127798,-0.04993674159049988
744.0,0.0,0.0,0.0,0.0,0.0,0.0,0.014202730730175972,0.00392489368095994,-0.014023165218532085,0.9956311583518982,-0.07950123399496078,-0.004627450369298458,-0.04875296726822853
745.0,0.0,0.0,0.0,0.0,0.0,0.0,-0.001987433061003685,0.013098152354359627,-0.0005005510756745934,0.9956801533699036,-0.07963714748620987,-0.005304897669702768,-0.047431640326976776
746.0,0.0,0.0,0.0,0.0,0.0,0.0,-0.0030513773672282696,0.018068285658955574,0.001648593577556312,0.9957543611526489,-0.07918728142976761,-0.005344510544091463,-0.04660821333527565
747.0,0.0,0.0,0.0,0.0,0.0,0.0,0.015172517858445644,0.004198005888611078,-0.0009616384049877524,0.9957935214042664,-0.07875792682170868,-0.006095420103520155,-0.04642084613442421
748.0,0.0,0.0,0.0,0.0,0.0,0.0,0.010570058599114418,0.006598734762519598,7.707056647632271e-05,0.9958666563034058,-0.07740771025419235,-0.0062361243180930614,-0.04709600284695625
749.0,0.0,0.0,0.0,0.0,0.0,0.0,-0.008539639413356781,0.013747683726251125,0.009039418771862984,0.9960281848907471,-0.07564995437860489,-0.005615049507468939,-0.046614501625299454
750.0,0.0,0.0,0.0,0.0,0.0,0.0,-0.0010440157493576407,9.99113472062163e-05,0.0143058430403471,0.9961230754852295,-0.07506956905126572,-0.004071295261383057,-0.045680563896894455
751.0,0.0,0.0,0.0,0.0,0.0,0.0,0.005978875327855349,-0.0024428609758615494,0.0007913250010460615,0.9962775111198425,-0.07423558831214905,-0.0025390780065208673,-0.04373777285218239
752.0,0.0,0.0,0.0,0.0,0.0,0.0,-0.024573929607868195,0.015064428560435772,0.017235327512025833,0.9963811635971069,-0.07347656041383743,-0.000676535302773118,-0.04270605742931366
753.0,0.0,0.0,0.0,0.0,0.0,0.0,-0.02331840805709362,0.021280130371451378,0.0146715072914958,0.9964115619659424,-0.07300104200839996,0.0006690250593237579,-0.04281464219093323
754.0,0.0,0.0,0.0,0.0,0.0,0.0,0.023664020001888275,-0.007715361658483744,-0.02254236303269863,0.9965818524360657,-0.07123562693595886,-0.0006864597671665251,-0.04182681813836098
755.0,0.0,0.0,0.0,0.0,0.0,0.0,0.007073651533573866,-0.004338492173701525,-0.018377788364887238,0.9966760277748108,-0.07049133628606796,-0.00343808950856328,-0.040689073503017426
756.0,0.0,0.0,0.0,0.0,0.0,0.0,-0.03717091307044029,0.03768544644117355,0.009122602641582489,0.9966850280761719,-0.07079943269491196,-0.006293857470154762,-0.03957276791334152
757.0,0.0,0.0,0.0,0.0,0.0,0.0,-0.013936308212578297,0.011119751259684563,-0.0076626986265182495,0.9965803027153015,-0.07144051045179367,-0.011788398958742619,-0.03980593383312225
758.0,0.0,0.0,0.0,0.0,0.0,0.0,0.0248569305986166,-0.029946185648441315,-0.03137433901429176,0.9963897466659546,-0.07220079004764557,-0.017308223992586136,-0.041162680834531784
759.0,0.0,0.0,0.0,0.0,0.0,0.0,0.0017659050645306706,-0.03583762049674988,-0.012862431816756725,0.996268630027771,-0.0726698637008667,-0.019502097740769386,-0.04226459935307503
760.0,0.0,0.0,0.0,0.0,0.0,0.0,-0.03126131370663643,0.033055901527404785,0.022279221564531326,0.9962580800056458,-0.07331642508506775,-0.02018062211573124,-0.041061319410800934
761.0,0.0,0.0,0.0,0.0,0.0,0.0,-0.009337272495031357,0.002578078769147396,0.015871770679950714,0.9962663650512695,-0.07416217774152756,-0.021283026784658432,-0.038727059960365295
762.0,0.0,0.0,0.0,0.0,0.0,0.0,-0.011049619875848293,0.0050583574920892715,0.0073061599396169186,0.9964137077331543,-0.07370104640722275,-0.020803796127438545,-0.035952646285295486
763.0,0.0,0.0,0.0,0.0,0.0,0.0,-0.024977101013064384,0.05860959738492966,0.034580159932374954,0.9966284036636353,-0.07245764136314392,-0.019360382109880447,-0.033245086669921875
764.0,0.0,0.0,0.0,0.0,0.0,0.0,-0.022749779745936394,0.034413114190101624,0.03196011111140251,0.9967522621154785,-0.07198145985603333,-0.016762837767601013,-0.03194769471883774
765.0,0.0,0.0,0.0,0.0,0.0,0.0,0.008174086920917034,0.0019178080838173628,0.0035483890678733587,0.9967740774154663,-0.07200632244348526,-0.01543072983622551,-0.03190011903643608
766.0,0.0,0.0,0.0,0.0,0.0,0.0,0.0062995231710374355,0.012330601923167706,-0.00252871704287827,0.9968556761741638,-0.07138162851333618,-0.014118397608399391,-0.031339071691036224
767.0,0.0,0.0,0.0,0.0,0.0,0.0,-0.0029173691291362047,0.005001916084438562,0.014113360084593296,0.9967804551124573,-0.07194601744413376,-0.011960998177528381,-0.03328021615743637
768.0,0.0,0.0,0.0,0.0,0.0,0.0,0.02139448933303356,-0.029086098074913025,-0.01978250965476036,0.9966132640838623,-0.07309572398662567,-0.010741831734776497,-0.03608138859272003
769.0,0.0,0.0,0.0,0.0,0.0,0.0,0.022602567449212074,-0.0477319210767746,-0.0376063734292984,0.9966250061988831,-0.07291749864816666,-0.009978918358683586,-0.03633245825767517
770.0,0.0,0.0,0.0,0.0,0.0,0.0,0.007559603545814753,-0.01722279191017151,-0.01374170184135437,0.9967129230499268,-0.07217934727668762,-0.009301653131842613,-0.035568106919527054
771.0,0.0,0.0,0.0,0.0,0.0,0.0,-0.00013842678163200617,-0.012098673731088638,-0.007640798110514879,0.9967625737190247,-0.07222367078065872,-0.008132058195769787,-0.034366674721241
772.0,0.0,0.0,0.0,0.0,0.0,0.0,0.015413232147693634,-0.009618574753403664,-0.008391276001930237,0.9968408942222595,-0.07176323235034943,-0.0070979236625134945,-0.03326142579317093
773.0,0.0,0.0,0.0,0.0,0.0,0.0,0.008661895990371704,-0.007829967886209488,-0.010803449898958206,0.9968151450157166,-0.07147564738988876,-0.006382210645824671,-0.03478487208485603
774.0,0.0,0.0,0.0,0.0,0.0,0.0,0.011257979087531567,-0.011012496426701546,-0.0034464974887669086,0.9966787099838257,-0.0715680718421936,-0.005221487022936344,-0.038471393287181854
775.0,0.0,0.0,0.0,0.0,0.0,0.0,0.012097783386707306,-0.016467154026031494,-0.006429186090826988,0.9965972304344177,-0.07082054018974304,-0.005276123993098736,-0.04182662069797516
776.0,0.0,0.0,0.0,0.0,0.0,0.0,0.021146075800061226,-0.035512689501047134,-0.014256438240408897,0.9967821836471558,-0.06804636120796204,-0.0059950524009764194,-0.041921745985746384
777.0,0.0,0.0,0.0,0.0,0.0,0.0,0.025731943547725677,-0.014853332191705704,-0.013540941290557384,0.997018039226532,-0.06567981094121933,-0.007255728356540203,-0.03983423486351967
778.0,0.0,0.0,0.0,0.0,0.0,0.0,0.022962603718042374,-0.011498693376779556,-0.011756493709981441,0.9970612525939941,-0.06536398828029633,-0.009396271780133247,-0.03883378207683563
779.0,0.0,0.0,0.0,0.0,0.0,0.0,0.013405846431851387,0.01324512343853712,0.0019015490543097258,0.9971446990966797,-0.06446825712919235,-0.010773839429020882,-0.03779635950922966
780.0,0.0,0.0,0.0,0.0,0.0,0.0,-0.0052797989919781685,0.034795891493558884,0.017265157774090767,0.9972269535064697,-0.06362516433000565,-0.01120054256170988,-0.03692004457116127
781.0,0.0,0.0,0.0,0.0,0.0,0.0,0.010716522112488747,0.006667065434157848,-0.004666487220674753,0.9973117113113403,-0.06278576701879501,-0.011345678940415382,-0.036012809723615646
782.0,0.0,0.0,0.0,0.0,0.0,0.0,0.01230353768914938,0.01608225889503956,-0.008894193917512894,0.9974707365036011,-0.06124013662338257,-0.01216946728527546,-0.03396477922797203
783.0,0.0,0.0,0.0,0.0,0.0,0.0,-0.100709930062294,0.06028075888752937,-0.006594412494450808,0.9975647330284119,-0.06066622957587242,-0.011897643096745014,-0.032243818044662476
784.0,0.0,0.0,0.0,0.0,0.0,0.0,0.0017230748198926449,0.011266486719250679,-0.0005714786238968372,0.9976632595062256,-0.059627387672662735,-0.012676787562668324,-0.03082871437072754
785.0,0.0,0.0,0.0,0.0,0.0,0.0,0.021160811185836792,0.005529171787202358,-0.008672804571688175,0.9976940751075745,-0.058833301067352295,-0.014151121489703655,-0.030711723491549492
786.0,0.0,0.0,0.0,0.0,0.0,0.0,0.013324693776667118,0.01521292794495821,-0.007554554380476475,0.9977591633796692,-0.057516034692525864,-0.016166027635335922,-0.030113376677036285
787.0,0.0,0.0,0.0,0.0,0.0,0.0,-0.007369809318333864,0.030913088470697403,0.013129365630447865,0.9978652000427246,-0.0563230961561203,-0.016273800283670425,-0.028769031167030334
788.0,0.0,0.0,0.0,0.0,0.0,0.0,-0.0006835062522441149,0.027033159509301186,0.007492628414183855,0.997941255569458,-0.05562538281083107,-0.01697022095322609,-0.02701670303940773
789.0,0.0,0.0,0.0,0.0,0.0,0.0,0.007413181941956282,0.021969497203826904,-0.0077545833773911,0.9979948401451111,-0.05437785014510155,-0.01822127401828766,-0.026755236089229584
790.0,0.0,0.0,0.0,0.0,0.0,0.0,-0.013228553347289562,0.03237401694059372,0.00596706522628665,0.9980217814445496,-0.053766388446092606,-0.0183344017714262,-0.026913495734333992
791.0,0.0,0.0,0.0,0.0,0.0,0.0,-0.0068993945606052876,0.02252224087715149,0.02148667350411415,0.9980606436729431,-0.053359124809503555,-0.01791462115943432,-0.02657373622059822
792.0,0.0,0.0,0.0,0.0,0.0,0.0,0.016137901693582535,0.01197885163128376,-0.018309354782104492,0.9981369972229004,-0.05252798646688461,-0.017791561782360077,-0.025405321270227432
793.0,0.0,0.0,0.0,0.0,0.0,0.0,0.005064067896455526,0.012538916431367397,-0.01618203893303871,0.9982048273086548,-0.05174253508448601,-0.017970915883779526,-0.024168377742171288
794.0,0.0,0.0,0.0,0.0,0.0,0.0,-0.004125033970922232,0.026475420221686363,-0.002543153241276741,0.9982571601867676,-0.051212020218372345,-0.018171390518546104,-0.023005777969956398
795.0,0.0,0.0,0.0,0.0,0.0,0.0,-0.0007600670214742422,0.04000012204051018,-0.005357641261070967,0.9983289837837219,-0.05053162947297096,-0.0179143063724041,-0.021532157436013222
796.0,0.0,0.0,0.0,0.0,0.0,0.0,0.005894196219742298,0.0077468655072152615,-0.016733430325984955,0.9984688758850098,-0.04892291501164436,-0.01620694249868393,-0.020091434940695763
797.0,0.0,0.0,0.0,0.0,0.0,0.0,-0.004114792216569185,0.01702217012643814,-0.019903242588043213,0.9985507726669312,-0.0482870489358902,-0.014430910348892212,-0.01883799023926258
798.0,0.0,0.0,0.0,0.0,0.0,0.0,-0.008420716039836407,0.02848782017827034,-0.011782116256654263,0.9985895156860352,-0.04806059971451759,-0.014404268004000187,-0.017319893464446068
799.0,0.0,0.0,0.0,0.0,0.0,0.0,-0.01127288956195116,0.028692420572042465,0.007911624386906624,0.9986975193023682,-0.04711876064538956,-0.012676067650318146,-0.014867297373712063
800.0,0.0,0.0,0.0,0.0,0.0,0.0,0.0007022502250038087,0.022295037284493446,-0.009232607670128345,0.9987843632698059,-0.046351801604032516,-0.010974991135299206,-0.01261664368212223
801.0,0.0,0.0,0.0,0.0,0.0,0.0,3.2397962058894336e-05,0.010496042668819427,-0.009422000497579575,0.9988179802894592,-0.04612905532121658,-0.010279733687639236,-0.01132584922015667
802.0,0.0,0.0,0.0,0.0,0.0,0.0,-0.005486898124217987,0.01968841627240181,-0.002087376778945327,0.9988378882408142,-0.04558686167001724,-0.010678251273930073,-0.011382672935724258
803.0,0.0,0.0,0.0,0.0,0.0,0.0,0.009239302016794682,0.017755677923560143,-0.017998775467276573,0.9988886713981628,-0.04425111040472984,-0.010584043338894844,-0.012298095040023327
804.0,0.0,0.0,0.0,0.0,0.0,0.0,0.0023088068701326847,-0.004478771705180407,0.000181136914761737,0.9989086985588074,-0.044015344232320786,-0.008634484373033047,-0.013017943128943443
805.0,0.0,0.0,0.0,0.0,0.0,0.0,0.008465434424579144,0.006638252642005682,0.0023799214977771044,0.9988837838172913,-0.04407771676778793,-0.006233836058527231,-0.015762344002723694
806.0,0.0,0.0,0.0,0.0,0.0,0.0,0.019577693194150925,0.003393001388758421,-0.006346389185637236,0.9988787174224854,-0.04405555874109268,-0.0039270552806556225,-0.016860738396644592
807.0,0.0,0.0,0.0,0.0,0.0,0.0,0.023321179673075676,-0.018953563645482063,-0.011356012895703316,0.9988198280334473,-0.04448976740241051,-0.001691225217655301,-0.01938992366194725
808.0,0.0,0.0,0.0,0.0,0.0,0.0,0.04788721725344658,-0.05348161980509758,-0.042037274688482285,0.9986909627914429,-0.04596886783838272,-0.001093875733204186,-0.02239619940519333
809.0,0.0,0.0,0.0,0.0,0.0,0.0,0.024631349369883537,-0.03877294436097145,-0.012061827816069126,0.9985476136207581,-0.048361364752054214,-0.0023475894704461098,-0.02363099530339241
810.0,0.0,0.0,0.0,0.0,0.0,0.0,0.0030433298088610172,-0.008234214037656784,0.017810096964240074,0.9984890818595886,-0.049810636788606644,-0.004029930103570223,-0.022858083248138428
811.0,0.0,0.0,0.0,0.0,0.0,0.0,0.001973136095330119,-0.00420714495703578,0.01165538839995861,0.9984601140022278,-0.050626907497644424,-0.004654021933674812,-0.022185558453202248
812.0,0.0,0.0,0.0,0.0,0.0,0.0,-0.010106992907822132,0.015018414705991745,0.018924785777926445,0.9983778595924377,-0.05159042030572891,-0.005170963238924742,-0.02350463904440403
813.0,0.0,0.0,0.0,0.0,0.0,0.0,-0.010444284416735172,0.003665790194645524,0.01665704883635044,0.9982224702835083,-0.052271757274866104,-0.005700710695236921,-0.028039323166012764
814.0,0.0,0.0,0.0,0.0,0.0,0.0,0.005355714354664087,-0.015580112114548683,0.006472382694482803,0.9980635046958923,-0.05291203409433365,-0.005396254826337099,-0.03224486485123634
815.0,0.0,0.0,0.0,0.0,0.0,0.0,0.010733533650636673,-0.025784118101000786,-0.0014916100772097707,0.998020350933075,-0.05301830545067787,-0.004943937063217163,-0.03345278650522232
816.0,0.0,0.0,0.0,0.0,0.0,0.0,0.009618574753403664,-0.02798474207520485,0.006106685847043991,0.9980431199073792,-0.052877962589263916,-0.004273395985364914,-0.03308599442243576
817.0,0.0,0.0,0.0,0.0,0.0,0.0,0.013939251191914082,-0.017482198774814606,0.0037755784578621387,0.9980844259262085,-0.05249400436878204,-0.0035464405082166195,-0.03254389762878418
818.0,0.0,0.0,0.0,0.0,0.0,0.0,0.006565297953784466,-0.011504021473228931,0.0025310905184596777,0.9981379508972168,-0.051541246473789215,-0.0022355562541633844,-0.03252703323960304
819.0,0.0,0.0,0.0,0.0,0.0,0.0,-0.000810863624792546,-0.0184104535728693,0.00995501410216093,0.9981736540794373,-0.0508074052631855,-0.0006349181057885289,-0.03266698494553566
820.0,0.0,0.0,0.0,0.0,0.0,0.0,0.0013825712958350778,-0.003332190215587616,0.007176319137215614,0.998213529586792,-0.05002080276608467,0.0011475648498162627,-0.032649315893650055
821.0,0.0,0.0,0.0,0.0,0.0,0.0,0.003586767241358757,-0.003569352673366666,0.00794074684381485,0.998248815536499,-0.049242425709962845,0.0036185046192258596,-0.03258450701832771
822.0,0.0,0.0,0.0,0.0,0.0,0.0,0.012155269272625446,-0.01161877065896988,-0.002519099973142147,0.9982636570930481,-0.048746027052402496,0.005736485589295626,-0.03255714848637581
823.0,0.0,0.0,0.0,0.0,0.0,0.0,0.017845802009105682,-0.016512665897607803,-0.013667700812220573,0.9983422160148621,-0.04764312878251076,0.006472080945968628,-0.03163452446460724
824.0,0.0,0.0,0.0,0.0,0.0,0.0,0.005183530505746603,-0.014170906506478786,-0.0035196628887206316,0.9983883500099182,-0.04703833535313606,0.007988936267793179,-0.030715908855199814
825.0,0.0,0.0,0.0,0.0,0.0,0.0,-0.011338739655911922,0.005357753951102495,0.014427505433559418,0.9984120726585388,-0.04681447148323059,0.009662384167313576,-0.02979232557117939
826.0,0.0,0.0,0.0,0.0,0.0,0.0,-0.007598377764225006,0.007604073733091354,0.010372697375714779,0.9984840154647827,-0.04614436253905296,0.011713790707290173,-0.02759164199233055
827.0,0.0,0.0,0.0,0.0,0.0,0.0,-0.011983521282672882,0.005117252003401518,0.005921741481870413,0.9985947608947754,-0.044724758714437485,0.014032872393727303,-0.024721354246139526
828.0,0.0,0.0,0.0,0.0,0.0,0.0,-0.023867931216955185,0.01663052849471569,0.009610702283680439,0.99864262342453,-0.04360470920801163,0.01695968769490719,-0.022889072075486183
829.0,0.0,0.0,0.0,0.0,0.0,0.0,-0.016553809866309166,0.009600401856005192,0.0017786084208637476,0.9986635446548462,-0.0423845611512661,0.020176181569695473,-0.021593483164906502
830.0,0.0,0.0,0.0,0.0,0.0,0.0,0.0015008676564320922,-0.013235960155725479,-0.028004107996821404,0.9987092018127441,-0.04084379971027374,0.02267349138855934,-0.019934190437197685
831.0,0.0,0.0,0.0,0.0,0.0,0.0,-0.005811269395053387,-0.012444764375686646,-0.023270800709724426,0.9987381100654602,-0.04001854360103607,0.024016419425606728,-0.018535306677222252
832.0,0.0,0.0,0.0,0.0,0.0,0.0,-0.008147433400154114,-0.003701923182234168,-0.004989968612790108,0.9987955689430237,-0.03958325833082199,0.023454178124666214,-0.017022589221596718
833.0,0.0,0.0,0.0,0.0,0.0,0.0,-0.006469345651566982,-0.000496602151542902,-0.003746075090020895,0.9988988637924194,-0.03831801936030388,0.022832561284303665,-0.014513165690004826
834.0,0.0,0.0,0.0,0.0,0.0,0.0,-0.02683592587709427,0.011021559126675129,0.009603429585695267,0.9989854693412781,-0.037452634423971176,0.021963082253932953,-0.011941216886043549
835.0,0.0,0.0,0.0,0.0,0.0,0.0,-0.02539609558880329,0.01295333169400692,0.020134812220931053,0.9990297555923462,-0.0374881885945797,0.020754391327500343,-0.010164993815124035
836.0,0.0,0.0,0.0,0.0,0.0,0.0,-0.021978775039315224,0.004316343460232019,0.03363993391394615,0.9990352392196655,-0.03811313584446907,0.019497696310281754,-0.009755297563970089
837.0,0.0,0.0,0.0,0.0,0.0,0.0,-0.010079888626933098,-0.00016606510325800627,0.02230815961956978,0.9990227818489075,-0.03994474932551384,0.016023052856326103,-0.010057741776108742
838.0,0.0,0.0,0.0,0.0,0.0,0.0,0.016036735847592354,-0.005477722268551588,0.007398282177746296,0.9990090131759644,-0.04168514162302017,0.011720034293830395,-0.010206282138824463
839.0,0.0,0.0,0.0,0.0,0.0,0.0,-0.018202131614089012,0.008847121149301529,0.010308629833161831,0.9990379214286804,-0.04240451008081436,0.006929307710379362,-0.008702395483851433
840.0,0.0,0.0,0.0,0.0,0.0,0.0,-0.019258802756667137,-0.002533956430852413,0.020551200956106186,0.9990061521530151,-0.0439450740814209,0.0016457467572763562,-0.00723207788541913
841.0,0.0,0.0,0.0,0.0,0.0,0.0,0.010391964577138424,-0.014950784854590893,-0.003136945655569434,0.9989199042320251,-0.04561648890376091,-0.0025247472804039717,-0.008409375324845314
842.0,0.0,0.0,0.0,0.0,0.0,0.0,0.01489832904189825,-0.017422456294298172,-0.004540314432233572,0.9987723231315613,-0.047629646956920624,-0.007151260506361723,-0.011563561856746674
843.0,0.0,0.0,0.0,0.0,0.0,0.0,0.0015882729785516858,-0.011444101110100746,0.0071837385185062885,0.9986119866371155,-0.049085307866334915,-0.01104438491165638,-0.015543950721621513
844.0,0.0,0.0,0.0,0.0,0.0,0.0,-0.017496850341558456,4.638592145056464e-05,0.006438440643250942,0.99852454662323,-0.04951733723282814,-0.014205644838511944,-0.01714329607784748
845.0,0.0,0.0,0.0,0.0,0.0,0.0,-0.004427686799317598,-0.026086941361427307,0.010764965787529945,0.9984482526779175,-0.050057318061590195,-0.016517043113708496,-0.01795138791203499
846.0,0.0,0.0,0.0,0.0,0.0,0.0,-0.01800508424639702,-0.01617319881916046,0.010715982876718044,0.9983455538749695,-0.05053405091166496,-0.018234185874462128,-0.02043510228395462
847.0,0.0,0.0,0.0,0.0,0.0,0.0,0.005652811843901873,-0.021855270490050316,-0.001052320934832096,0.998153567314148,-0.051507968455553055,-0.020125525072216988,-0.025120927020907402
848.0,0.0,0.0,0.0,0.0,0.0,0.0,0.008691195398569107,-0.031630855053663254,-0.011096984148025513,0.997984766960144,-0.05192365124821663,-0.02096550725400448,-0.029813529923558235
849.0,0.0,0.0,0.0,0.0,0.0,0.0,0.013774778693914413,-0.037175264209508896,-0.007967916317284107,0.9979279041290283,-0.05156131088733673,-0.021355215460062027,-0.0319853201508522
850.0,0.0,0.0,0.0,0.0,0.0,0.0,-0.024889783933758736,-0.0077072312124073505,0.0004921560757793486,0.9979934692382812,-0.050549961626529694,-0.02159878797829151,-0.03138735890388489
851.0,0.0,0.0,0.0,0.0,0.0,0.0,-0.0003725226270034909,-0.006983498111367226,-0.0013925592647865415,0.998025119304657,-0.04976130276918411,-0.021711338311433792,-0.031573690474033356
852.0,0.0,0.0,0.0,0.0,0.0,0.0,0.02894056774675846,-0.012917080894112587,-0.020050717517733574,0.9978916645050049,-0.04925975576043129,-0.022111881524324417,-0.03599978983402252
853.0,0.0,0.0,0.0,0.0,0.0,0.0,0.024584822356700897,-0.014047603122889996,-0.016668623313307762,0.9976307153701782,-0.04946441203355789,-0.02360011823475361,-0.04156791791319847
854.0,0.0,0.0,0.0,0.0,0.0,0.0,-0.004840578883886337,0.006325520109385252,-0.0014836648479104042,0.9974721670150757,-0.04958123341202736,-0.025316493585705757,-0.04414777457714081
855.0,0.0,0.0,0.0,0.0,0.0,0.0,-0.005163600668311119,0.012187437154352665,0.012325088493525982,0.9975377917289734,-0.048707399517297745,-0.026247309520840645,-0.04308709502220154
856.0,0.0,0.0,0.0,0.0,0.0,0.0,0.007095564156770706,0.01572190783917904,0.0023579311091452837,0.9977110624313354,-0.0472998172044754,-0.026012524962425232,-0.040724076330661774
857.0,0.0,0.0,0.0,0.0,0.0,0.0,-0.01849954202771187,0.03781267628073692,0.027976449579000473,0.997779369354248,-0.04701923951506615,-0.02468622848391533,-0.040194686502218246
858.0,0.0,0.0,0.0,0.0,0.0,0.0,0.002589405281469226,0.025478612631559372,0.01237424649298191,0.9976769089698792,-0.04775642603635788,-0.023014087229967117,-0.042761772871017456
859.0,0.0,0.0,0.0,0.0,0.0,0.0,0.007585945073515177,0.00933879241347313,0.013087437488138676,0.9976147413253784,-0.0482337661087513,-0.02016906999051571,-0.0450587123632431
860.0,0.0,0.0,0.0,0.0,0.0,0.0,0.00634473143145442,-0.023014813661575317,0.0021092244423925877,0.9976513385772705,-0.04877946898341179,-0.01639694720506668,-0.04519262909889221
861.0,0.0,0.0,0.0,0.0,0.0,0.0,-0.0022350947838276625,-0.021041885018348694,0.010507551021873951,0.9977790117263794,-0.04899534210562706,-0.010839905589818954,-0.04379742220044136
862.0,0.0,0.0,0.0,0.0,0.0,0.0,0.01852271892130375,-0.018834188580513,-0.004521111026406288,0.9978882670402527,-0.048883870244026184,-0.005730822216719389,-0.04236873611807823
863.0,0.0,0.0,0.0,0.0,0.0,0.0,-0.010220208205282688,-0.009966177865862846,0.0063633606769144535,0.9978673458099365,-0.048673029989004135,0.0009785386500880122,-0.043475132435560226
864.0,0.0,0.0,0.0,0.0,0.0,0.0,0.008984601125121117,-0.029240988194942474,0.015061530284583569,0.9976403117179871,-0.050096265971660614,0.006730007939040661,-0.046461984515190125
865.0,0.0,0.0,0.0,0.0,0.0,0.0,0.04114899784326553,-0.052789703011512756,-0.05012000724673271,0.9974328279495239,-0.0510946549475193,0.011897078715264797,-0.04872306063771248
866.0,0.0,0.0,0.0,0.0,0.0,0.0,0.03540715575218201,-0.04179772734642029,-0.02818210795521736,0.9972175359725952,-0.05258721113204956,0.01718238927423954,-0.04994639381766319
867.0,0.0,0.0,0.0,0.0,0.0,0.0,0.02572009712457657,-0.02842630259692669,-0.02455824613571167,0.9971099495887756,-0.05443699285387993,0.021112579852342606,-0.048592183738946915
868.0,0.0,0.0,0.0,0.0,0.0,0.0,0.01163625530898571,-0.007189603988081217,-0.0025402235332876444,0.9970908164978027,-0.05538187921047211,0.024125628173351288,-0.0464751236140728
869.0,0.0,0.0,0.0,0.0,0.0,0.0,0.01589045487344265,0.013624873012304306,-0.006071470677852631,0.9969695806503296,-0.056352607905864716,0.027110187336802483,-0.0462561771273613
870.0,0.0,0.0,0.0,0.0,0.0,0.0,0.03173359856009483,0.018118582665920258,-0.025180721655488014,0.9967898726463318,-0.057604189962148666,0.027997490018606186,-0.04802694916725159
871.0,0.0,0.0,0.0,0.0,0.0,0.0,0.03038094751536846,0.014049554243683815,0.002382415346801281,0.9966229200363159,-0.05873202532529831,0.026883764192461967,-0.050691742449998856
872.0,0.0,0.0,0.0,0.0,0.0,0.0,0.03140157833695412,0.020550686866044998,0.0026970093604177237,0.9966326355934143,-0.05806460976600647,0.02509416453540325,-0.05216468498110771
873.0,0.0,0.0,0.0,0.0,0.0,0.0,-0.00369520322419703,0.0452909842133522,-0.010526602156460285,0.9967761039733887,-0.05676716938614845,0.023483002558350563,-0.05160932242870331
874.0,0.0,0.0,0.0,0.0,0.0,0.0,-0.001360614551231265,0.024243483319878578,-0.014178942888975143,0.9968920946121216,-0.05682135745882988,0.01954549364745617,-0.050942495465278625
875.0,0.0,0.0,0.0,0.0,0.0,0.0,0.01714235357940197,0.006977659184485674,-0.020963996648788452,0.9968568682670593,-0.05792485922574997,0.014075759798288345,-0.05217169597744942
876.0,0.0,0.0,0.0,0.0,0.0,0.0,-0.021339628845453262,0.043604761362075806,-0.00897211767733097,0.9967620372772217,-0.0589694119989872,0.007782482076436281,-0.05409831181168556
877.0,0.0,0.0,0.0,0.0,0.0,0.0,-0.03968439996242523,0.06148408725857735,0.017523465678095818,0.9968938231468201,-0.05797889828681946,0.003800163511186838,-0.053164225071668625
878.0,0.0,0.0,0.0,0.0,0.0,0.0,-0.04380732774734497,0.06051810085773468,0.059522103518247604,0.9972293376922607,-0.05514915660023689,0.006296954583376646,-0.049508992582559586
879.0,0.0,0.0,0.0,0.0,0.0,0.0,-0.006049550604075193,0.025216978043317795,0.043333593755960464,0.9974101185798645,-0.05343896150588989,0.011531430296599865,-0.0467316173017025
880.0,0.0,0.0,0.0,0.0,0.0,0.0,-0.01606532372534275,0.03788120299577713,0.02182135172188282,0.9976513385772705,-0.05104730278253555,0.018541865050792694,-0.04173777624964714
