,Position_X,Position_Y,Position_Z,Velocity_X,Velocity_Y,Velocity_Z,Acceleration_X,Acceleration_Y,Acceleration_Z,Quaterion_0,Quaterion_1,Quaterion_2,Quaterion_3
207.0,0.0,0.0,0.0,0.0,0.0,0.0,-0.0056547969579696655,-0.006875649094581604,0.003355050925165415,1.0,9.540979117872439e-18,1.3769367590565906e-17,2.7755575615628914e-17
208.0,0.0,0.0,0.0,0.0,0.0,0.0,-0.003944881726056337,-0.008967315778136253,-0.005371682345867157,0.9999991655349731,-8.76534977578558e-05,0.001288105733692646,-2.97030019282829e-05
209.0,0.0,0.0,0.0,0.0,0.0,0.0,0.009047547355294228,-0.01684018224477768,-0.03758677467703819,0.9999979734420776,-0.0009356561931781471,0.0017717988230288029,0.0001163124616141431
210.0,0.0,0.0,0.0,0.0,0.0,0.0,0.03885293006896973,-0.04988151043653488,-0.009855110198259354,0.999996542930603,-0.0022801775485277176,0.0012531849788501859,0.0003812229842878878
211.0,0.0,0.0,0.0,0.0,0.0,0.0,-0.020640896633267403,0.01183079369366169,-0.0010014483705163002,0.9999950528144836,-0.0025945205707103014,0.001755286706611514,-0.00032576677040196955
212.0,0.0,0.0,0.0,0.0,0.0,0.0,0.009987208992242813,-0.01941385120153427,-0.0041582309640944,0.9999954104423523,-0.002882624277845025,0.0008900696411728859,0.0003281250537838787
213.0,0.0,0.0,0.0,0.0,0.0,0.0,-0.004949712194502354,-0.001161133055575192,-0.0005288326647132635,0.9999924898147583,-0.003683478105813265,0.0005114898667670786,0.0011121679563075304
214.0,0.0,0.0,0.0,0.0,0.0,0.0,-0.023343436419963837,0.01477846223860979,0.007862177677452564,0.9999968409538269,-0.0022217468358576298,0.0006633719312958419,0.000988866901025176
215.0,0.0,0.0,0.0,0.0,0.0,0.0,0.0015785926952958107,0.005140759516507387,0.014821202494204044,0.999998927116394,-0.0007647584425285459,0.000803605595137924,0.0009364060824736953
216.0,0.0,0.0,0.0,0.0,0.0,0.0,0.001725519890896976,0.015175082720816135,0.017140602692961693,0.999998152256012,0.0007188547169789672,0.0016702611465007067,0.0006637515034526587
217.0,0.0,0.0,0.0,0.0,0.0,0.0,0.01154365949332714,0.005370181519538164,0.003098257351666689,0.9999936819076538,0.002152162604033947,0.002402386162430048,0.0014829416759312153
218.0,0.0,0.0,0.0,0.0,0.0,0.0,0.013661959208548069,-0.009804578498005867,-0.03255052864551544,0.9999862313270569,0.003116138745099306,0.0030981164891272783,0.0028637496288865805
219.0,0.0,0.0,0.0,0.0,0.0,0.0,0.01957874186336994,-0.01284822542220354,-0.04713078588247299,0.9999810457229614,0.0037225193809717894,0.0034198726061731577,0.003510847454890609
220.0,0.0,0.0,0.0,0.0,0.0,0.0,0.02944871224462986,-0.018217360600829124,-0.03288312256336212,0.9999803304672241,0.0038896258920431137,0.0025339103303849697,0.004223361611366272
221.0,0.0,0.0,0.0,0.0,0.0,0.0,0.016476403921842575,0.0026009874418377876,-0.01310767326503992,0.9999745488166809,0.00426742248237133,0.0012023671297356486,0.0055892192758619785
222.0,0.0,0.0,0.0,0.0,0.0,0.0,0.014362375251948833,0.0037153700832277536,0.0037559038028120995,0.9999648332595825,0.004085519351065159,-0.0005203569889999926,0.007306057959794998
223.0,0.0,0.0,0.0,0.0,0.0,0.0,0.009986612014472485,-0.0002754811430349946,0.004466721788048744,0.9999561309814453,0.0030840509571135044,-0.002292806515470147,0.008541222661733627
224.0,0.0,0.0,0.0,0.0,0.0,0.0,0.005327771883457899,8.467811130685732e-05,0.00925315823405981,0.9999432563781738,0.002336459467187524,-0.003722873982042074,0.009705349802970886
225.0,0.0,0.0,0.0,0.0,0.0,0.0,-0.00044481674558483064,0.005368866492062807,0.019945206120610237,0.99992835521698,0.0018574477871879935,-0.004867213778197765,0.010774492286145687
226.0,0.0,0.0,0.0,0.0,0.0,0.0,-0.008189547806978226,0.00985000841319561,0.024980690330266953,0.9999138116836548,0.002029516501352191,-0.005929358769208193,0.011534687131643295
227.0,0.0,0.0,0.0,0.0,0.0,0.0,-0.011044944636523724,0.00910962000489235,0.0146447429433465,0.9999099373817444,0.0019745954778045416,-0.006100048311054707,0.01179126463830471
228.0,0.0,0.0,0.0,0.0,0.0,0.0,-0.00800155196338892,0.0033194525167346,0.0024242789950221777,0.9999086260795593,0.002273211721330881,-0.006178691517561674,0.011805481277406216
229.0,0.0,0.0,0.0,0.0,0.0,0.0,-0.002712130779400468,-0.000177755078766495,-0.008852790109813213,0.9999057054519653,0.0025674188509583473,-0.006076950579881668,0.012046155519783497
230.0,0.0,0.0,0.0,0.0,0.0,0.0,0.0010719308629631996,0.0005624613841064274,-0.011377048678696156,0.9999022483825684,0.0030466655734926462,-0.006053968798369169,0.01222949381917715
231.0,0.0,0.0,0.0,0.0,0.0,0.0,0.007945564575493336,0.003218843834474683,-0.008730962872505188,0.9998898506164551,0.0036995147820562124,-0.005844231229275465,0.013133022002875805
232.0,0.0,0.0,0.0,0.0,0.0,0.0,0.01929531991481781,0.0023620708379894495,-0.01213735993951559,0.9998677968978882,0.003258286276832223,-0.005923564545810223,0.014787129126489162
233.0,0.0,0.0,0.0,0.0,0.0,0.0,0.02510877139866352,-0.0024794908240437508,-0.020305730402469635,0.9998394250869751,0.0024587458465248346,-0.00593482656404376,0.016730787232518196
234.0,0.0,0.0,0.0,0.0,0.0,0.0,0.027592753991484642,-0.0030026757158339024,-0.024869559332728386,0.9998114109039307,0.002590017393231392,-0.006555435247719288,0.01809621974825859
235.0,0.0,0.0,0.0,0.0,0.0,0.0,0.023160627111792564,-0.0027506891638040543,-0.022000515833497047,0.9997811317443848,0.002476578112691641,-0.007686825003474951,0.01929997280240059
236.0,0.0,0.0,0.0,0.0,0.0,0.0,0.015388834290206432,-0.0035052464809268713,-0.021668817847967148,0.9997444152832031,0.0018464433960616589,-0.008967953734099865,0.020671559497714043
237.0,0.0,0.0,0.0,0.0,0.0,0.0,0.00811946950852871,-0.008237834088504314,-0.02118932455778122,0.9997097253799438,0.0012263829121366143,-0.01049264520406723,0.0216539166867733
238.0,0.0,0.0,0.0,0.0,0.0,0.0,0.0030046708416193724,-0.004480515141040087,-0.011971130035817623,0.9996782541275024,0.00022348585480358452,-0.011833829805254936,0.022435709834098816
239.0,0.0,0.0,0.0,0.0,0.0,0.0,-0.0016185875283554196,0.001280235475860536,0.009927038103342056,0.9996494650840759,-0.0012331758625805378,-0.012660818174481392,0.023219691589474678
240.0,0.0,0.0,0.0,0.0,0.0,0.0,-0.0077197859063744545,0.0009782189736142755,0.021928397938609123,0.9996283650398254,-0.0025750533677637577,-0.013290558941662312,0.023663267493247986
241.0,0.0,0.0,0.0,0.0,0.0,0.0,-0.01692156307399273,-0.005784840788692236,0.011230498552322388,0.9996172189712524,-0.002973558846861124,-0.013914445415139198,0.023728957399725914
242.0,0.0,0.0,0.0,0.0,0.0,0.0,-0.01712174341082573,-0.010961237363517284,0.0024761143140494823,0.9996187090873718,-0.002969008404761553,-0.014084369875490665,0.023566458374261856
243.0,0.0,0.0,0.0,0.0,0.0,0.0,-0.02069178782403469,-0.010076506063342094,0.0037281890399754047,0.9996371269226074,-0.0030674373265355825,-0.014038309454917908,0.02278527244925499
244.0,0.0,0.0,0.0,0.0,0.0,0.0,-0.019213609397411346,-0.0080167381092906,0.009747546166181564,0.999649703502655,-0.003022183198481798,-0.01388859935104847,0.02232707105576992
245.0,0.0,0.0,0.0,0.0,0.0,0.0,-0.01900457590818405,-0.008043057285249233,0.008997665718197823,0.9996609091758728,-0.003093338804319501,-0.012962386012077332,0.02237379364669323
246.0,0.0,0.0,0.0,0.0,0.0,0.0,-0.014603402465581894,-0.009923956356942654,-0.0029598113615065813,0.9996982216835022,-0.0034256938379257917,-0.011421594768762589,0.02147819660604
247.0,0.0,0.0,0.0,0.0,0.0,0.0,-0.0026149521581828594,-0.029134366661310196,-0.03708492964506149,0.9996980428695679,-0.005276351701468229,-0.01055505033582449,0.02155470661818981
248.0,0.0,0.0,0.0,0.0,0.0,0.0,0.03450421616435051,-0.0359756276011467,-0.021317044273018837,0.9997056722640991,-0.005852279253304005,-0.010213378816843033,0.02121434547007084
249.0,0.0,0.0,0.0,0.0,0.0,0.0,0.0009683151729404926,-0.00912067387253046,-0.023560769855976105,0.9996933937072754,-0.006871100515127182,-0.010221442207694054,0.021482478827238083
250.0,0.0,0.0,0.0,0.0,0.0,0.0,0.020608743652701378,-0.005893574561923742,-0.017779897898435593,0.9996539950370789,-0.006436280440539122,-0.01177240815013647,0.022624462842941284
251.0,0.0,0.0,0.0,0.0,0.0,0.0,0.008755257353186607,-0.0045717861503362656,0.010620761662721634,0.9996231198310852,-0.00682352390140295,-0.01302003487944603,0.02318483777344227
252.0,0.0,0.0,0.0,0.0,0.0,0.0,-0.023245448246598244,0.030625304207205772,0.016690434888005257,0.9996358156204224,-0.0063763270154595375,-0.012758325785398483,0.022909587249159813
253.0,0.0,0.0,0.0,0.0,0.0,0.0,0.009962926618754864,0.004334234166890383,0.011799167841672897,0.9996138215065002,-0.006164208985865116,-0.012709353119134903,0.023931212723255157
254.0,0.0,0.0,0.0,0.0,0.0,0.0,0.012503665871918201,0.0066236876882612705,0.003323981538414955,0.9995996952056885,-0.005126322153955698,-0.01306056696921587,0.024569567292928696
255.0,0.0,0.0,0.0,0.0,0.0,0.0,0.006072315387427807,0.008426419459283352,-0.002131907967850566,0.9995949268341064,-0.003952076658606529,-0.013275080360472202,0.02486330270767212
256.0,0.0,0.0,0.0,0.0,0.0,0.0,0.0140747781842947,-0.00013675792433787137,-0.011365861631929874,0.9995669722557068,-0.0032770244870334864,-0.013676098547875881,0.02584797516465187
257.0,0.0,0.0,0.0,0.0,0.0,0.0,0.009994018822908401,-0.0014253186527639627,-0.012181097641587257,0.9995613098144531,-0.002903108252212405,-0.013928215950727463,0.025976594537496567
258.0,0.0,0.0,0.0,0.0,0.0,0.0,0.0029378554318100214,-0.004694642033427954,-0.010382710956037045,0.999555766582489,-0.0027713754680007696,-0.01434252504259348,0.025980127975344658
259.0,0.0,0.0,0.0,0.0,0.0,0.0,0.00021089703659527004,-0.007738813757896423,-0.01701704040169716,0.9995191097259521,-0.002862341934815049,-0.014839645475149155,0.02707851491868496
260.0,0.0,0.0,0.0,0.0,0.0,0.0,0.0016206620493903756,-0.005839709658175707,-0.006157489959150553,0.9994869828224182,-0.0033691220451146364,-0.01577974297106266,0.027666501700878143
261.0,0.0,0.0,0.0,0.0,0.0,0.0,0.017003854736685753,-0.01176761370152235,-0.01779485121369362,0.9994207620620728,-0.00469488138332963,-0.01781824231147766,0.028612155467271805
262.0,0.0,0.0,0.0,0.0,0.0,0.0,-0.024900320917367935,0.02326519601047039,0.03203056380152702,0.9994404911994934,-0.004319249652326107,-0.018074002116918564,0.027810988947749138
263.0,0.0,0.0,0.0,0.0,0.0,0.0,-0.013874138705432415,0.00490852165967226,0.02428397536277771,0.9994186162948608,-0.004364999011158943,-0.018720155581831932,0.028160318732261658
264.0,0.0,0.0,0.0,0.0,0.0,0.0,-0.0018581176409497857,-0.00510290265083313,0.01130328606814146,0.9993988275527954,-0.004456410184502602,-0.019436070695519447,0.028361856937408447
265.0,0.0,0.0,0.0,0.0,0.0,0.0,-0.020034313201904297,0.006103910505771637,0.011984972283244133,0.9994046688079834,-0.004838429391384125,-0.019190696999430656,0.028260983526706696
266.0,0.0,0.0,0.0,0.0,0.0,0.0,-0.0065612755715847015,-0.004174855537712574,0.002750433050096035,0.9993889331817627,-0.004889233037829399,-0.019309313967823982,0.02872290462255478
267.0,0.0,0.0,0.0,0.0,0.0,0.0,-0.0065450905822217464,-0.0009194957674480975,-0.0005853580078110099,0.9993950724601746,-0.004642054904252291,-0.018957318738102913,0.028786102309823036
268.0,0.0,0.0,0.0,0.0,0.0,0.0,-0.007049388252198696,0.0008740024641156197,0.001459857914596796,0.9994295835494995,-0.004250245168805122,-0.01805252395570278,0.02822534367442131
269.0,0.0,0.0,0.0,0.0,0.0,0.0,-0.003115462139248848,-0.0023067176807671785,-0.006686862092465162,0.99946129322052,-0.003823426552116871,-0.017037389799952507,0.027789251878857613
270.0,0.0,0.0,0.0,0.0,0.0,0.0,0.0004439288459252566,-0.0076561314053833485,-0.013783164322376251,0.9994847774505615,-0.0035543020348995924,-0.016311850398778915,0.027413921430706978
271.0,0.0,0.0,0.0,0.0,0.0,0.0,0.0013704559532925487,-0.009735273197293282,-0.017750922590494156,0.9995056986808777,-0.002905367175117135,-0.01557039562612772,0.02715938910841942
272.0,0.0,0.0,0.0,0.0,0.0,0.0,-0.0005175810074433684,-0.005999675486236811,-0.013622180558741093,0.9995157122612,-0.0021210017148405313,-0.015054230578243732,0.02715204283595085
273.0,0.0,0.0,0.0,0.0,0.0,0.0,-0.0006290729506872594,-0.005532845389097929,-0.008965786546468735,0.9995021224021912,-0.0015287846326828003,-0.014581742696464062,0.0279379989951849
274.0,0.0,0.0,0.0,0.0,0.0,0.0,0.0005934004439041018,-0.007591419853270054,-0.009103458374738693,0.9995123744010925,-0.0010563847608864307,-0.013803095556795597,0.027989642694592476
275.0,0.0,0.0,0.0,0.0,0.0,0.0,0.0016668443568050861,-0.006521702744066715,-0.005932358093559742,0.9995241165161133,-0.0006946732755750418,-0.013086076825857162,0.02792568877339363
276.0,0.0,0.0,0.0,0.0,0.0,0.0,0.0027793198823928833,-0.008800551295280457,-0.00949926394969225,0.9995335340499878,-0.0005973209626972675,-0.012386692687869072,0.027910379692912102
277.0,0.0,0.0,0.0,0.0,0.0,0.0,0.007363415788859129,-0.011224586516618729,-0.012817395851016045,0.9995343089103699,-0.0006169805419631302,-0.012058687396347523,0.028026191517710686
278.0,0.0,0.0,0.0,0.0,0.0,0.0,0.0064440225251019,-0.008496875874698162,-0.008660257793962955,0.9995176792144775,-0.000830217613838613,-0.011965315788984299,0.028646444901823997
279.0,0.0,0.0,0.0,0.0,0.0,0.0,0.002865635324269533,-0.006313565652817488,-0.003528360975906253,0.9994831085205078,-0.0008240803726948798,-0.012135300785303116,0.029759272933006287
280.0,0.0,0.0,0.0,0.0,0.0,0.0,0.0015820645494386554,-0.004311984404921532,0.0019062513019889593,0.9994496703147888,-0.0011546717723831534,-0.012005934491753578,0.030900362879037857
281.0,0.0,0.0,0.0,0.0,0.0,0.0,-0.005594300571829081,-0.0019609001465141773,0.004399426281452179,0.9994670748710632,-0.002021219814196229,-0.010701397433876991,0.03077419474720955
282.0,0.0,0.0,0.0,0.0,0.0,0.0,-0.003217667108401656,-0.011525100097060204,-0.008898085914552212,0.9994711875915527,-0.003524470143020153,-0.009580687619745731,0.030874237418174744
283.0,0.0,0.0,0.0,0.0,0.0,0.0,0.050057534128427505,-0.032974179834127426,-0.06085584685206413,0.9994078278541565,-0.005827183835208416,-0.010928773321211338,0.03210333734750748
284.0,0.0,0.0,0.0,0.0,0.0,0.0,0.048746977001428604,-0.03336559608578682,-0.0179735217243433,0.9993336796760559,-0.008719449862837791,-0.013236921280622482,0.03287766873836517
285.0,0.0,0.0,0.0,0.0,0.0,0.0,-0.0021115748677402735,0.02526060678064823,0.0057712122797966,0.9992967247962952,-0.009790858253836632,-0.015330877155065536,0.03278953954577446
286.0,0.0,0.0,0.0,0.0,0.0,0.0,0.004758747760206461,-0.005109651945531368,0.009578905068337917,0.99925297498703,-0.011168045923113823,-0.01722033880650997,0.03274650126695633
287.0,0.0,0.0,0.0,0.0,0.0,0.0,-0.017058545723557472,0.013715853914618492,-0.0020718094892799854,0.9992271065711975,-0.012563002295792103,-0.017834441736340523,0.03270057588815689
288.0,0.0,0.0,0.0,0.0,0.0,0.0,-0.016237754374742508,0.010337354615330696,0.0111546004191041,0.9992000460624695,-0.01357965636998415,-0.018225178122520447,0.03290523216128349
289.0,0.0,0.0,0.0,0.0,0.0,0.0,-0.010483546182513237,0.01073541771620512,0.004478426184505224,0.9992007613182068,-0.01431731041520834,-0.01800011284649372,0.032694507390260696
290.0,0.0,0.0,0.0,0.0,0.0,0.0,-0.006968685891479254,0.006273007486015558,-0.004826793912798166,0.9992085099220276,-0.01403335202485323,-0.01815514825284481,0.032493870705366135
291.0,0.0,0.0,0.0,0.0,0.0,0.0,-0.008363393135368824,0.004707267042249441,-0.006055185571312904,0.999220073223114,-0.013459053821861744,-0.018345152959227562,0.032274819910526276
292.0,0.0,0.0,0.0,0.0,0.0,0.0,-0.013426401652395725,0.007241152226924896,-0.0015732095343992114,0.9992673397064209,-0.012935777194797993,-0.017680034041404724,0.031385328620672226
293.0,0.0,0.0,0.0,0.0,0.0,0.0,-0.008014797233045101,0.007753878831863403,0.006555314641445875,0.9993354082107544,-0.011748511344194412,-0.01646369881927967,0.030326062813401222
294.0,0.0,0.0,0.0,0.0,0.0,0.0,-0.010651974007487297,0.001713323756121099,0.0029022328089922667,0.9993734955787659,-0.010211322456598282,-0.01549949124455452,0.030135400593280792
295.0,0.0,0.0,0.0,0.0,0.0,0.0,-0.007690900936722755,-0.008551100268959999,-0.020443635061383247,0.9993881583213806,-0.009492256678640842,-0.015232902020215988,0.030021682381629944
296.0,0.0,0.0,0.0,0.0,0.0,0.0,0.012408324517309666,-0.024374648928642273,-0.0478484146296978,0.9993647336959839,-0.010396622121334076,-0.016547027975320816,0.029805362224578857
297.0,0.0,0.0,0.0,0.0,0.0,0.0,0.009969274513423443,-0.018937934190034866,-0.05037505552172661,0.9993088841438293,-0.012270903214812279,-0.018464356660842896,0.029838643968105316
298.0,0.0,0.0,0.0,0.0,0.0,0.0,-0.008267601020634174,-0.004954905714839697,-0.028627606108784676,0.9992551207542419,-0.015425030142068863,-0.019807586446404457,0.029309464618563652
299.0,0.0,0.0,0.0,0.0,0.0,0.0,0.008923167362809181,-0.006990405730903149,-0.028294172137975693,0.9991680979728699,-0.017985187470912933,-0.022093066945672035,0.02918294258415699
300.0,0.0,0.0,0.0,0.0,0.0,0.0,0.003854739712551236,-0.00204972131177783,-0.010048438794910908,0.9990530014038086,-0.02042825147509575,-0.024819977581501007,0.02932373806834221
301.0,0.0,0.0,0.0,0.0,0.0,0.0,-0.011694357730448246,0.0071391877718269825,0.0005330734420567751,0.9989612698554993,-0.022656399756669998,-0.027185838669538498,0.028707897290587425
302.0,0.0,0.0,0.0,0.0,0.0,0.0,-0.005294933449476957,-0.0028546710964292288,-0.010675960220396519,0.9988117218017578,-0.02475755847990513,-0.030318500474095345,0.029035860672593117
303.0,0.0,0.0,0.0,0.0,0.0,0.0,-0.010239112190902233,0.0003319034003652632,-0.01790962927043438,0.9985973834991455,-0.02743653766810894,-0.03380420804023743,0.03012995794415474
304.0,0.0,0.0,0.0,0.0,0.0,0.0,-0.012014559470117092,0.006868481636047363,-0.008003415539860725,0.9983873963356018,-0.02983405813574791,-0.036499302834272385,0.03162691742181778
305.0,0.0,0.0,0.0,0.0,0.0,0.0,-0.013651767745614052,0.013447188772261143,0.006068716756999493,0.9982345700263977,-0.031515318900346756,-0.03818333148956299,0.03281281888484955
306.0,0.0,0.0,0.0,0.0,0.0,0.0,-0.008572901599109173,0.015790235251188278,0.016829635947942734,0.9980560541152954,-0.03188878297805786,-0.039629317820072174,0.03601168468594551
307.0,0.0,0.0,0.0,0.0,0.0,0.0,5.20524408784695e-05,0.01270973775535822,0.016357887536287308,0.9978824257850647,-0.03264065831899643,-0.04104194790124893,0.03848183900117874
308.0,0.0,0.0,0.0,0.0,0.0,0.0,0.0030985483899712563,0.010316197760403156,0.010645839385688305,0.9976930022239685,-0.034181706607341766,-0.04243404418230057,0.04049432650208473
309.0,0.0,0.0,0.0,0.0,0.0,0.0,0.006058637984097004,0.006361404433846474,0.0022108382545411587,0.9975406527519226,-0.035549893975257874,-0.04354886710643768,0.04186255484819412
310.0,0.0,0.0,0.0,0.0,0.0,0.0,0.008490690030157566,0.006299198139458895,-0.0013834175188094378,0.9974052309989929,-0.03736530616879463,-0.044725824147462845,0.042264070361852646
311.0,0.0,0.0,0.0,0.0,0.0,0.0,0.007065124344080687,0.00970354676246643,-0.0011383884120732546,0.9972352981567383,-0.03931662067770958,-0.04596175253391266,0.043168939650058746
312.0,0.0,0.0,0.0,0.0,0.0,0.0,0.00529584800824523,0.013230643235147,0.005483999382704496,0.9970999956130981,-0.04032434523105621,-0.047277290374040604,0.04393822327256203
313.0,0.0,0.0,0.0,0.0,0.0,0.0,0.0003837771655526012,0.017912888899445534,0.011079478077590466,0.9970006346702576,-0.04088246449828148,-0.048548828810453415,0.04428933933377266
314.0,0.0,0.0,0.0,0.0,0.0,0.0,-0.0016533227171748877,0.015214170329272747,0.011341612786054611,0.9968597888946533,-0.04154728353023529,-0.04994271695613861,0.04528101906180382
315.0,0.0,0.0,0.0,0.0,0.0,0.0,0.0017065426800400019,0.010743791237473488,0.0035266538616269827,0.9967406988143921,-0.04105657711625099,-0.051671065390110016,0.04639654606580734
316.0,0.0,0.0,0.0,0.0,0.0,0.0,0.0013186641735956073,0.011403629556298256,0.0045737624168396,0.9966162443161011,-0.04057210683822632,-0.05329284816980362,0.04764268174767494
317.0,0.0,0.0,0.0,0.0,0.0,0.0,-0.0012456115800887346,0.01985447108745575,0.01480210293084383,0.9964545965194702,-0.04060671478509903,-0.054665617644786835,0.04940807819366455
318.0,0.0,0.0,0.0,0.0,0.0,0.0,0.0022514178417623043,0.019334297627210617,0.012066609226167202,0.9963316917419434,-0.04027712345123291,-0.05617653951048851,0.0504508912563324
319.0,0.0,0.0,0.0,0.0,0.0,0.0,0.007573850452899933,0.010438280180096626,0.0029207253828644753,0.9962090253829956,-0.040596261620521545,-0.05742056295275688,0.051210153847932816
320.0,0.0,0.0,0.0,0.0,0.0,0.0,0.007692916784435511,0.011819825507700443,0.004694309551268816,0.9960240721702576,-0.04188111051917076,-0.058501701802015305,0.052535030990839005
321.0,0.0,0.0,0.0,0.0,0.0,0.0,0.007079452741891146,0.01517439167946577,0.008292393758893013,0.9959091544151306,-0.04238460212945938,-0.059307221323251724,0.053397513926029205
322.0,0.0,0.0,0.0,0.0,0.0,0.0,0.007698513567447662,0.013778089545667171,0.007221514824777842,0.9958709478378296,-0.042373571544885635,-0.05939821898937225,0.054014649242162704
323.0,0.0,0.0,0.0,0.0,0.0,0.0,0.010059603489935398,0.011642642319202423,0.004508525133132935,0.9958716630935669,-0.042378462851047516,-0.0591556578874588,0.05426705628633499
324.0,0.0,0.0,0.0,0.0,0.0,0.0,0.01462728250771761,0.006282508373260498,-0.0009751145262271166,0.9958564043045044,-0.042247481644153595,-0.0591709241271019,0.054626062512397766
325.0,0.0,0.0,0.0,0.0,0.0,0.0,0.01560231577605009,0.00013898582255933434,-0.011073283851146698,0.9958518147468567,-0.04195321723818779,-0.05914103612303734,0.054969798773527145
326.0,0.0,0.0,0.0,0.0,0.0,0.0,0.014109719544649124,-0.0036215556319803,-0.020180845633149147,0.9958429932594299,-0.042548540979623795,-0.058705493807792664,0.055139124393463135
327.0,0.0,0.0,0.0,0.0,0.0,0.0,0.014839937910437584,-0.002148278523236513,-0.021190382540225983,0.995856761932373,-0.04311612248420715,-0.05775599554181099,0.05545196682214737
328.0,0.0,0.0,0.0,0.0,0.0,0.0,0.017384983599185944,-0.004613654688000679,-0.025529984384775162,0.9958592653274536,-0.04373279586434364,-0.057244714349508286,0.05545099824666977
329.0,0.0,0.0,0.0,0.0,0.0,0.0,0.012306423857808113,-0.01012756023555994,-0.03346748650074005,0.9958029985427856,-0.04504816234111786,-0.057114191353321075,0.05554410070180893
330.0,0.0,0.0,0.0,0.0,0.0,0.0,0.009017099626362324,-0.009489374235272408,-0.03922441229224205,0.9957040548324585,-0.046455979347229004,-0.05726824700832367,0.055997032672166824
331.0,0.0,0.0,0.0,0.0,0.0,0.0,0.007158062886446714,-0.006683259271085262,-0.025175753980875015,0.9956116676330566,-0.04767446219921112,-0.05780448019504547,0.05606239289045334
332.0,0.0,0.0,0.0,0.0,0.0,0.0,-0.0009535389253869653,0.004897809121757746,-0.001357023837044835,0.9954289793968201,-0.04940778762102127,-0.05876651033759117,0.05680213123559952
333.0,0.0,0.0,0.0,0.0,0.0,0.0,-0.009676058776676655,0.00862178672105074,0.006667091511189938,0.9952850937843323,-0.050641193985939026,-0.0597226619720459,0.05723865330219269
334.0,0.0,0.0,0.0,0.0,0.0,0.0,-0.011122406460344791,0.007475202903151512,0.00747156934812665,0.9951195120811462,-0.051871199160814285,-0.06089738383889198,0.05777798593044281
335.0,0.0,0.0,0.0,0.0,0.0,0.0,-0.013139664195477962,0.010689218528568745,0.011941657401621342,0.9949579834938049,-0.05310697481036186,-0.06214987114071846,0.05810309946537018
336.0,0.0,0.0,0.0,0.0,0.0,0.0,-0.024424314498901367,0.00870665255934,0.017877060920000076,0.994836688041687,-0.053989291191101074,-0.06318506598472595,0.058249615132808685
337.0,0.0,0.0,0.0,0.0,0.0,0.0,-0.02630140446126461,0.00982785876840353,0.015979506075382233,0.9946728944778442,-0.05480991303920746,-0.06405586749315262,0.05931972339749336
338.0,0.0,0.0,0.0,0.0,0.0,0.0,-0.016374172642827034,0.00629107840359211,0.011861542239785194,0.9945732355117798,-0.05533897504210472,-0.0644926130771637,0.060017697513103485
339.0,0.0,0.0,0.0,0.0,0.0,0.0,-0.01441977359354496,0.010909445583820343,0.010865440592169762,0.9945317506790161,-0.055468205362558365,-0.06444410979747772,0.06064430996775627
340.0,0.0,0.0,0.0,0.0,0.0,0.0,-0.010281977243721485,0.01426223386079073,0.011710652150213718,0.9945911169052124,-0.05484086275100708,-0.06402619183063507,0.06068125739693642
341.0,0.0,0.0,0.0,0.0,0.0,0.0,-0.0069718859158456326,0.012022334150969982,0.015418125316500664,0.9946786165237427,-0.054413095116615295,-0.06326407939195633,0.06042524799704552
342.0,0.0,0.0,0.0,0.0,0.0,0.0,-0.0035533206537365913,0.0026520302053540945,0.009473093785345554,0.9948333501815796,-0.05385014787316322,-0.06219153478741646,0.05949154868721962
343.0,0.0,0.0,0.0,0.0,0.0,0.0,0.0056439549662172794,-0.010934333316981792,-0.0061307004652917385,0.9949434399604797,-0.05342576652765274,-0.06171618402004242,0.05852055922150612
344.0,0.0,0.0,0.0,0.0,0.0,0.0,0.009377521462738514,-0.01554081216454506,-0.010721372440457344,0.9948399066925049,-0.054345421493053436,-0.06218747794628143,0.058933231979608536
345.0,0.0,0.0,0.0,0.0,0.0,0.0,0.003120856359601021,-0.003550521098077297,-0.002757994458079338,0.9947336912155151,-0.05485372617840767,-0.06308962404727936,0.05929325893521309
346.0,0.0,0.0,0.0,0.0,0.0,0.0,-0.004708170425146818,0.010739077813923359,0.011388234794139862,0.9946849942207336,-0.054173700511455536,-0.06381525099277496,0.059956613928079605
347.0,0.0,0.0,0.0,0.0,0.0,0.0,-0.01907968521118164,0.021327486261725426,0.02971656620502472,0.9946438074111938,-0.053673215210437775,-0.06413201242685318,0.06074875220656395
348.0,0.0,0.0,0.0,0.0,0.0,0.0,-0.030345821753144264,0.023622408509254456,0.02950037643313408,0.9947846531867981,-0.052509043365716934,-0.0636131763458252,0.059997085481882095
349.0,0.0,0.0,0.0,0.0,0.0,0.0,-0.027302827686071396,0.015906257554888725,0.01863173209130764,0.9950382113456726,-0.050727445632219315,-0.06233292818069458,0.058654796332120895
350.0,0.0,0.0,0.0,0.0,0.0,0.0,-0.016276543959975243,0.003015727736055851,-0.00286235474050045,0.9952275156974792,-0.04902059584856033,-0.06095609813928604,0.05833695828914642
351.0,0.0,0.0,0.0,0.0,0.0,0.0,-0.005672737490385771,-0.005701832007616758,-0.017098749056458473,0.995369017124176,-0.04748287424445152,-0.05945165827870369,0.05874981731176376
352.0,0.0,0.0,0.0,0.0,0.0,0.0,-0.007474901620298624,-0.005557720549404621,-0.022664731368422508,0.99544757604599,-0.04643811285495758,-0.05836860090494156,0.059338852763175964
353.0,0.0,0.0,0.0,0.0,0.0,0.0,-0.010503790341317654,0.004250310827046633,-0.019559653475880623,0.9955006837844849,-0.045259684324264526,-0.05725577473640442,0.06043092533946037
354.0,0.0,0.0,0.0,0.0,0.0,0.0,-0.007524413987994194,0.005165634676814079,-0.014862872660160065,0.9955751299858093,-0.04384928569197655,-0.05615535378456116,0.06126871705055237
355.0,0.0,0.0,0.0,0.0,0.0,0.0,-0.005376928485929966,0.0017473173793405294,-0.02471868507564068,0.9955779314041138,-0.04241286218166351,-0.055663421750068665,0.0626688078045845
356.0,0.0,0.0,0.0,0.0,0.0,0.0,-0.004224614705890417,-0.0019522728398442268,-0.021519610658288002,0.9955496191978455,-0.041312381625175476,-0.0549132339656353,0.06448924541473389
357.0,0.0,0.0,0.0,0.0,0.0,0.0,-0.011045638471841812,0.0048942966386675835,-0.004810717888176441,0.9955314993858337,-0.041156746447086334,-0.05371066555380821,0.06586919724941254
358.0,0.0,0.0,0.0,0.0,0.0,0.0,-0.015521029010415077,0.01776239462196827,0.00894497986882925,0.9956484436988831,-0.04044207185506821,-0.05209451913833618,0.06584193557500839
359.0,0.0,0.0,0.0,0.0,0.0,0.0,-0.0041709053330123425,0.00852848868817091,0.005759301129728556,0.9957495331764221,-0.04025321081280708,-0.05015774071216583,0.06593353301286697
360.0,0.0,0.0,0.0,0.0,0.0,0.0,-0.0005625716876238585,0.016951730474829674,0.011114050634205341,0.9957539439201355,-0.041126467287540436,-0.04839375242590904,0.06663976609706879
361.0,0.0,0.0,0.0,0.0,0.0,0.0,0.002824211958795786,0.012386380694806576,0.011420561000704765,0.9958082437515259,-0.041146066039800644,-0.046861372888088226,0.06691121309995651
362.0,0.0,0.0,0.0,0.0,0.0,0.0,-0.0014714100398123264,0.009234591387212276,0.011366487480700016,0.9958945512771606,-0.04134174436330795,-0.04524296522140503,0.0666179358959198
363.0,0.0,0.0,0.0,0.0,0.0,0.0,-0.0028162114322185516,0.017801351845264435,0.01863405480980873,0.9959507584571838,-0.04183834418654442,-0.04382385313510895,0.06641744077205658
364.0,0.0,0.0,0.0,0.0,0.0,0.0,-0.0035756260622292757,0.02208457887172699,0.023875150829553604,0.9960207343101501,-0.04163365438580513,-0.04276625066995621,0.06618703901767731
365.0,0.0,0.0,0.0,0.0,0.0,0.0,-0.011791384778916836,0.020764289423823357,0.01586763747036457,0.9962002635002136,-0.04110434651374817,-0.041285835206508636,0.06474129855632782
366.0,0.0,0.0,0.0,0.0,0.0,0.0,0.004109218250960112,0.005246616434305906,-0.0036751762963831425,0.9962741732597351,-0.04110679775476456,-0.04053698107600212,0.06407003104686737
367.0,0.0,0.0,0.0,0.0,0.0,0.0,-0.0017515806248411536,0.006280168890953064,-0.014908920042216778,0.996269702911377,-0.04130784794688225,-0.03968817740678787,0.06453987210988998
368.0,0.0,0.0,0.0,0.0,0.0,0.0,-0.008851336315274239,0.0104408860206604,-0.014356368221342564,0.9962839484214783,-0.0412137508392334,-0.03885481134057045,0.06488696485757828
369.0,0.0,0.0,0.0,0.0,0.0,0.0,-0.000814887578599155,0.0074770087376236916,-0.020911116153001785,0.9962635636329651,-0.04082630202174187,-0.03846225515007973,0.0656733438372612
370.0,0.0,0.0,0.0,0.0,0.0,0.0,-0.00708875572308898,0.014786548912525177,-0.013959788717329502,0.9962992668151855,-0.03994733840227127,-0.037992168217897415,0.06594496220350266
371.0,0.0,0.0,0.0,0.0,0.0,0.0,-0.011444303207099438,0.020124835893511772,-0.007363299373537302,0.9963881373405457,-0.03865770995616913,-0.037082940340042114,0.0658893883228302
372.0,0.0,0.0,0.0,0.0,0.0,0.0,-0.017519880086183548,0.008249563165009022,-0.016312839463353157,0.9965114593505859,-0.03707258403301239,-0.035285577178001404,0.06592143326997757
373.0,0.0,0.0,0.0,0.0,0.0,0.0,-0.014012085273861885,-0.00231765303760767,-0.027357002720236778,0.9966009855270386,-0.036729298532009125,-0.03278286010026932,0.0660511702299118
374.0,0.0,0.0,0.0,0.0,0.0,0.0,0.0036334823817014694,-0.012937677092850208,-0.03857524320483208,0.9967033267021179,-0.03632306680083275,-0.030676549300551414,0.06574433296918869
375.0,0.0,0.0,0.0,0.0,0.0,0.0,0.008238811045885086,-0.019447296857833862,-0.030823545530438423,0.9966909289360046,-0.03632812947034836,-0.02980933152139187,0.06632532924413681
376.0,0.0,0.0,0.0,0.0,0.0,0.0,-0.009988808073103428,-0.014817955903708935,-0.02287626452744007,0.996699333190918,-0.03652121126651764,-0.028742404654622078,0.06656142324209213
377.0,0.0,0.0,0.0,0.0,0.0,0.0,-0.009070118889212608,-0.014602376148104668,-0.006160959135740995,0.9966726303100586,-0.03627030551433563,-0.028324605897068977,0.0672769621014595
378.0,0.0,0.0,0.0,0.0,0.0,0.0,-0.0035650187637656927,-0.011748895980417728,0.03779107332229614,0.9965913891792297,-0.03669053316116333,-0.028960686177015305,0.06797691434621811
379.0,0.0,0.0,0.0,0.0,0.0,0.0,-0.020993327721953392,0.023471642285585403,0.05963553488254547,0.9964425563812256,-0.037279557436704636,-0.03060663864016533,0.06910745054483414
380.0,0.0,0.0,0.0,0.0,0.0,0.0,-0.02829812839627266,0.024049947038292885,0.04453432559967041,0.9964214563369751,-0.03656046837568283,-0.031961407512426376,0.06918401271104813
381.0,0.0,0.0,0.0,0.0,0.0,0.0,-0.018825706094503403,0.015006381087005138,0.035939522087574005,0.9964002966880798,-0.0356018953025341,-0.032872412353754044,0.06956077367067337
382.0,0.0,0.0,0.0,0.0,0.0,0.0,-0.016208795830607414,0.014801625162363052,0.031197600066661835,0.9963900446891785,-0.03485577180981636,-0.03301816061139107,0.07001574337482452
383.0,0.0,0.0,0.0,0.0,0.0,0.0,-0.013193894177675247,0.009735244326293468,0.014599017798900604,0.9964668154716492,-0.03374349698424339,-0.03283953294157982,0.0695459395647049
384.0,0.0,0.0,0.0,0.0,0.0,0.0,-0.005604419857263565,-0.001046256860718131,-0.000527706928551197,0.9965046644210815,-0.03272528201341629,-0.03291504830121994,0.06945879757404327
385.0,0.0,0.0,0.0,0.0,0.0,0.0,-0.005355409812182188,0.0017951468471437693,-0.0003902002063114196,0.9965165257453918,-0.032130166888237,-0.032744258642196655,0.06964584439992905
386.0,0.0,0.0,0.0,0.0,0.0,0.0,-0.01383299008011818,0.016270600259304047,0.0047457534819841385,0.9965748190879822,-0.03162722289562225,-0.03229738771915436,0.0692477822303772
387.0,0.0,0.0,0.0,0.0,0.0,0.0,-0.007646679878234863,0.01482305396348238,0.0006115947617217898,0.9966556429862976,-0.031641002744436264,-0.03094136156141758,0.0686979740858078
388.0,0.0,0.0,0.0,0.0,0.0,0.0,0.0002945240412373096,0.007682417519390583,-0.004168609157204628,0.996771514415741,-0.032132189720869064,-0.028833754360675812,0.06769466400146484
389.0,0.0,0.0,0.0,0.0,0.0,0.0,0.003622430609539151,0.007870959118008614,0.0005727882962673903,0.9969228506088257,-0.033371567726135254,-0.02599477209150791,0.06599430739879608
390.0,0.0,0.0,0.0,0.0,0.0,0.0,0.008533425629138947,0.011758237145841122,0.007107340730726719,0.9971388578414917,-0.03415892273187637,-0.023311609402298927,0.06327822059392929
391.0,0.0,0.0,0.0,0.0,0.0,0.0,0.012164602987468243,0.005975238513201475,0.009439791552722454,0.9973785877227783,-0.03464619070291519,-0.021292954683303833,0.05985194072127342
392.0,0.0,0.0,0.0,0.0,0.0,0.0,0.010717631317675114,0.001218060264363885,0.01033792644739151,0.9975904822349548,-0.03439376875758171,-0.02034938335418701,0.056713782250881195
393.0,0.0,0.0,0.0,0.0,0.0,0.0,0.0022133546881377697,-0.007174541242420673,0.007418552879244089,0.9977211952209473,-0.03391788527369499,-0.020171837881207466,0.05472753196954727
394.0,0.0,0.0,0.0,0.0,0.0,0.0,-0.015730438753962517,-0.011929130181670189,0.0018106899224221706,0.997801661491394,-0.03411335498094559,-0.02020413801074028,0.05310364067554474
395.0,0.0,0.0,0.0,0.0,0.0,0.0,-0.040071871131658554,-0.014157947152853012,-0.006730755791068077,0.9978621602058411,-0.03439450263977051,-0.020147187635302544,0.05179192125797272
396.0,0.0,0.0,0.0,0.0,0.0,0.0,-0.054986901581287384,-0.0049975099973380566,0.0009207224939018488,0.9979411959648132,-0.03457694873213768,-0.0183844156563282,0.05079001933336258
397.0,0.0,0.0,0.0,0.0,0.0,0.0,-0.0554671548306942,0.003791981842368841,0.004653741605579853,0.9981215000152588,-0.03423076495528221,-0.01498224213719368,0.04855095222592354
398.0,0.0,0.0,0.0,0.0,0.0,0.0,-0.043099693953990936,0.006369183771312237,0.0036065231543034315,0.9983705878257751,-0.03221166878938675,-0.010706753470003605,0.045868437737226486
399.0,0.0,0.0,0.0,0.0,0.0,0.0,-0.014892957173287868,-0.0017297584563493729,-0.004084328655153513,0.9985541105270386,-0.02986675687134266,-0.005948887672275305,0.0443023182451725
400.0,0.0,0.0,0.0,0.0,0.0,0.0,0.008430794812738895,-0.008903969079256058,-0.021200435236096382,0.9986662268638611,-0.02718942239880562,-0.0009741057292558253,0.04388224706053734
401.0,0.0,0.0,0.0,0.0,0.0,0.0,0.02636934630572796,8.145776519086212e-06,-0.028270887210965157,0.9987030029296875,-0.024533547461032867,0.004460816737264395,0.0443975031375885
402.0,0.0,0.0,0.0,0.0,0.0,0.0,0.038072045892477036,0.003434017300605774,-0.031488921493291855,0.9986592531204224,-0.022094465792179108,0.010196328163146973,0.045690443366765976
403.0,0.0,0.0,0.0,0.0,0.0,0.0,0.04953370243310928,0.01668538525700569,-0.024029599502682686,0.9985679388046265,-0.01972370781004429,0.016737522557377815,0.04682724177837372
404.0,0.0,0.0,0.0,0.0,0.0,0.0,0.06726361811161041,0.020312486216425896,-0.018191898241639137,0.9984383583068848,-0.016961364075541496,0.02263195626437664,0.0481780506670475
405.0,0.0,0.0,0.0,0.0,0.0,0.0,0.08000639826059341,0.0020026792772114277,-0.03120994195342064,0.9982666969299316,-0.015281264670193195,0.027626166120171547,0.04967804253101349
406.0,0.0,0.0,0.0,0.0,0.0,0.0,0.07954041659832001,-0.0029428740963339806,-0.028869355097413063,0.9980451464653015,-0.014132244512438774,0.031750403344631195,0.051946766674518585
407.0,0.0,0.0,0.0,0.0,0.0,0.0,0.072085902094841,0.00028240421670489013,-0.01764220930635929,0.9978830814361572,-0.014090527780354023,0.034385643899440765,0.053373776376247406
408.0,0.0,0.0,0.0,0.0,0.0,0.0,0.056894104927778244,0.0038747875951230526,-0.004853479564189911,0.9977747201919556,-0.015005113556981087,0.03604888543486595,0.054052889347076416
409.0,0.0,0.0,0.0,0.0,0.0,0.0,0.047201063483953476,-0.0025132561568170786,0.005910546984523535,0.9977303147315979,-0.016088422387838364,0.03620181977748871,0.054454512894153595
410.0,0.0,0.0,0.0,0.0,0.0,0.0,0.031131679192185402,-0.005879440810531378,0.013645627535879612,0.9977434277534485,-0.018300168216228485,0.03466922789812088,0.05451948195695877
411.0,0.0,0.0,0.0,0.0,0.0,0.0,-0.002304879715666175,0.012752169743180275,0.04319043457508087,0.9978218078613281,-0.02025458961725235,0.03151755779981613,0.054306209087371826
412.0,0.0,0.0,0.0,0.0,0.0,0.0,-0.0395045205950737,0.02318049594759941,0.0610811673104763,0.9979543685913086,-0.021756811067461967,0.02841390296816826,0.05299043282866478
413.0,0.0,0.0,0.0,0.0,0.0,0.0,-0.08558932691812515,0.005459166131913662,0.038833968341350555,0.9980776309967041,-0.023854803293943405,0.02706984244287014,0.05039973184466362
414.0,0.0,0.0,0.0,0.0,0.0,0.0,-0.08092011511325836,-0.007589943241328001,0.016859950497746468,0.9981334805488586,-0.02582014724612236,0.026920529082417488,0.048368196934461594
415.0,0.0,0.0,0.0,0.0,0.0,0.0,-0.03875022754073143,0.0010342184687033296,0.025792229920625687,0.9982249140739441,-0.026744768023490906,0.02594078704714775,0.04647992178797722
416.0,0.0,0.0,0.0,0.0,0.0,0.0,-0.010542557574808598,-0.008766896091401577,-0.009453182108700275,0.99839186668396,-0.026766197755932808,0.02248418889939785,0.04462781175971031
417.0,0.0,0.0,0.0,0.0,0.0,0.0,0.002772544277831912,-0.021118223667144775,-0.038799602538347244,0.9986840486526489,-0.024658039212226868,0.016130635514855385,0.04198047146201134
418.0,0.0,0.0,0.0,0.0,0.0,0.0,-0.007871809415519238,-0.003766072215512395,-0.022382007911801338,0.9989091157913208,-0.020915158092975616,0.007865991443395615,0.041020724922418594
419.0,0.0,0.0,0.0,0.0,0.0,0.0,-0.009957081638276577,-0.022019755095243454,-0.042537663131952286,0.9989382028579712,-0.015685733407735825,-0.002598480088636279,0.04326190799474716
420.0,0.0,0.0,0.0,0.0,0.0,0.0,0.0035314003471285105,-0.0316084623336792,-0.06751614063978195,0.9986064434051514,-0.00982904713600874,-0.014984268695116043,0.049649860709905624
421.0,0.0,0.0,0.0,0.0,0.0,0.0,0.019504010677337646,-0.015753207728266716,-0.05044015124440193,0.9979267120361328,-0.004429737105965614,-0.027456184849143028,0.05805271118879318
422.0,0.0,0.0,0.0,0.0,0.0,0.0,-0.003883230034261942,-0.027103718370199203,-0.0450841560959816,0.9967791438102722,0.003956938162446022,-0.038131214678287506,0.07045336067676544
423.0,0.0,0.0,0.0,0.0,0.0,0.0,-0.04690614342689514,0.011526348069310188,-0.018852075561881065,0.9956129193305969,0.011623482219874859,-0.04575587064027786,0.08079177141189575
424.0,0.0,0.0,0.0,0.0,0.0,0.0,0.008978254161775112,0.016901031136512756,-0.005773174576461315,0.9944275617599487,0.015643242746591568,-0.051537949591875076,0.0906267911195755
425.0,0.0,0.0,0.0,0.0,0.0,0.0,0.05034298822283745,0.0373687706887722,0.04710717871785164,0.9932146668434143,0.018375210464000702,-0.05787450075149536,0.09920305758714676
426.0,0.0,0.0,0.0,0.0,0.0,0.0,-0.013224318623542786,0.055906031280756,0.05243938788771629,0.9923964142799377,0.017805730924010277,-0.06326828896999359,0.10406694561243057
427.0,0.0,0.0,0.0,0.0,0.0,0.0,-0.0009249647846445441,0.008499768562614918,0.026206182315945625,0.991633415222168,0.016456363722682,-0.0674612745642662,0.10882323980331421
428.0,0.0,0.0,0.0,0.0,0.0,0.0,0.0039183879271149635,-0.0001441789063392207,0.03762119263410568,0.9910438060760498,0.012740693986415863,-0.07143595069646835,0.11210095882415771
429.0,0.0,0.0,0.0,0.0,0.0,0.0,-0.044608183205127716,-0.01900404691696167,0.040247637778520584,0.9906609058380127,0.00666511757299304,-0.07384243607521057,0.11443941295146942
430.0,0.0,0.0,0.0,0.0,0.0,0.0,-0.016314296051859856,0.0011537006357684731,0.014639726839959621,0.9900006651878357,0.0012347165029495955,-0.07819154113531113,0.11741167306900024
431.0,0.0,0.0,0.0,0.0,0.0,0.0,0.014727062545716763,0.0466274656355381,0.05732936039566994,0.989475429058075,-0.0012622266076505184,-0.0827457383275032,0.11871596425771713
432.0,0.0,0.0,0.0,0.0,0.0,0.0,-0.026545893400907516,0.05816604942083359,0.05245477706193924,0.9891972541809082,-0.0035930306185036898,-0.08678825944662094,0.118080735206604
433.0,0.0,0.0,0.0,0.0,0.0,0.0,-0.00410577654838562,0.01920921541750431,0.013618988916277885,0.9889885187149048,-0.005173057317733765,-0.09041174501180649,0.11705990135669708
434.0,0.0,0.0,0.0,0.0,0.0,0.0,0.003559612203389406,0.025640049949288368,0.014734817668795586,0.9889584183692932,-0.005973283667117357,-0.09326933324337006,0.11502058804035187
435.0,0.0,0.0,0.0,0.0,0.0,0.0,-0.0016350161749869585,0.034350261092185974,0.005135268438607454,0.9890614151954651,-0.006497517693787813,-0.09512405842542648,0.11255574971437454
436.0,0.0,0.0,0.0,0.0,0.0,0.0,0.005618856754153967,0.025905590504407883,-0.003385642310604453,0.9891428351402283,-0.006788455881178379,-0.09595881402492523,0.11110607534646988
437.0,0.0,0.0,0.0,0.0,0.0,0.0,0.0026132322382181883,0.010636645369231701,-0.013830779120326042,0.9892221093177795,-0.0076972139067947865,-0.0960182175040245,0.11028137058019638
438.0,0.0,0.0,0.0,0.0,0.0,0.0,-0.011993463151156902,0.016867097467184067,-0.014894511550664902,0.9895520806312561,-0.009079543873667717,-0.09528011083602905,0.10782753676176071
439.0,0.0,0.0,0.0,0.0,0.0,0.0,-0.005318894982337952,0.014677603729069233,-0.03042338788509369,0.9898481369018555,-0.010557577013969421,-0.09334558993577957,0.10666339099407196
440.0,0.0,0.0,0.0,0.0,0.0,0.0,0.019942879676818848,0.0312991589307785,-0.00953384768217802,0.9902101159095764,-0.01126868650317192,-0.0908927172422409,0.1053442507982254
441.0,0.0,0.0,0.0,0.0,0.0,0.0,0.019909724593162537,0.03198239952325821,-0.00013331881200429052,0.9905422329902649,-0.013640209101140499,-0.08785469084978104,0.10451063513755798
442.0,0.0,0.0,0.0,0.0,0.0,0.0,0.010691761039197445,0.023772532120347023,-0.005443983245640993,0.9909595251083374,-0.015277955681085587,-0.08527408540248871,0.10244503617286682
443.0,0.0,0.0,0.0,0.0,0.0,0.0,0.005615714471787214,0.013846561312675476,-0.0019310405477881432,0.9914749264717102,-0.016015322878956795,-0.08301711827516556,0.09915588051080704
444.0,0.0,0.0,0.0,0.0,0.0,0.0,-0.0020880207885056734,-0.006637438666075468,-0.00951411109417677,0.9920427203178406,-0.01622076705098152,-0.08121597021818161,0.0948297530412674
445.0,0.0,0.0,0.0,0.0,0.0,0.0,-0.01920124888420105,0.0024332490283995867,0.001844310900196433,0.9926245212554932,-0.01710834912955761,-0.0796864926815033,0.089743971824646
446.0,0.0,0.0,0.0,0.0,0.0,0.0,-0.022539691999554634,0.02947395108640194,0.02523414045572281,0.9932597279548645,-0.017650704830884933,-0.07800378650426865,0.08391007781028748
447.0,0.0,0.0,0.0,0.0,0.0,0.0,-0.016472339630126953,0.02784288302063942,0.027763837948441505,0.9938430190086365,-0.01731037348508835,-0.07617752999067307,0.07857375591993332
448.0,0.0,0.0,0.0,0.0,0.0,0.0,-0.006679347716271877,0.01989828236401081,0.011303585954010487,0.9943934679031372,-0.016304628923535347,-0.0738111361861229,0.07395069301128387
449.0,0.0,0.0,0.0,0.0,0.0,0.0,0.015579462982714176,0.003970663994550705,-0.004372047260403633,0.9946892261505127,-0.014874841086566448,-0.07232068479061127,0.07171359658241272
450.0,0.0,0.0,0.0,0.0,0.0,0.0,0.02668827399611473,-0.006987683475017548,-0.021523986011743546,0.9948205947875977,-0.013978495262563229,-0.07126058638095856,0.07112675905227661
451.0,0.0,0.0,0.0,0.0,0.0,0.0,0.03694392740726471,0.026303302496671677,-0.007144015748053789,0.9949516654014587,-0.012508714571595192,-0.07102097570896149,0.06979282200336456
452.0,0.0,0.0,0.0,0.0,0.0,0.0,0.03580687195062637,0.01360559742897749,0.010570894926786423,0.9951308369636536,-0.011860642582178116,-0.06965963542461395,0.0687214657664299
453.0,0.0,0.0,0.0,0.0,0.0,0.0,0.03598688170313835,0.006313758436590433,-0.004446090664714575,0.995249330997467,-0.011164086870849133,-0.06785710155963898,0.06892581284046173
454.0,0.0,0.0,0.0,0.0,0.0,0.0,0.042310673743486404,-0.00565434992313385,-0.002875783247873187,0.995526909828186,-0.01133531890809536,-0.06501302123069763,0.06761008501052856
455.0,0.0,0.0,0.0,0.0,0.0,0.0,0.018649576231837273,-0.018665343523025513,0.003915444016456604,0.996025025844574,-0.011811677366495132,-0.060469482094049454,0.06433151662349701
456.0,0.0,0.0,0.0,0.0,0.0,0.0,-0.005063771270215511,-0.028334470465779305,-0.017894139513373375,0.9965001344680786,-0.013847787864506245,-0.055902376770973206,0.06059404835104942
457.0,0.0,0.0,0.0,0.0,0.0,0.0,0.024010274559259415,-0.04622001573443413,-0.041204940527677536,0.996690571308136,-0.01629547029733658,-0.05211974307894707,0.060216642916202545
458.0,0.0,0.0,0.0,0.0,0.0,0.0,0.011346644721925259,-0.04039977490901947,-0.0355982780456543,0.9968466758728027,-0.019192267209291458,-0.04772492125630379,0.0604269914329052
459.0,0.0,0.0,0.0,0.0,0.0,0.0,-0.020719453692436218,-0.027693500742316246,-0.013703946955502033,0.9971120953559875,-0.023160843178629875,-0.04366948455572128,0.057654645293951035
460.0,0.0,0.0,0.0,0.0,0.0,0.0,-0.04036710038781166,0.019446879625320435,0.030330922454595566,0.9974539875984192,-0.026902807876467705,-0.03891713172197342,0.05335860326886177
461.0,0.0,0.0,0.0,0.0,0.0,0.0,-0.008478195406496525,0.019454581663012505,0.04521625488996506,0.9978510737419128,-0.027402913197875023,-0.034859612584114075,0.04825054481625557
462.0,0.0,0.0,0.0,0.0,0.0,0.0,-0.01518186368048191,0.006434111390262842,0.03506888449192047,0.9982737898826599,-0.025217793881893158,-0.03154785558581352,0.04264753311872482
463.0,0.0,0.0,0.0,0.0,0.0,0.0,-0.03343473747372627,-0.00716639356687665,0.029910389333963394,0.9986843466758728,-0.021440060809254646,-0.028153885155916214,0.03711982071399689
464.0,0.0,0.0,0.0,0.0,0.0,0.0,-0.04267241060733795,-0.014488901011645794,0.002942110178992152,0.9990341663360596,-0.01653938926756382,-0.02414705976843834,0.03277112916111946
465.0,0.0,0.0,0.0,0.0,0.0,0.0,-0.017526572570204735,-0.04059368371963501,-0.03580216318368912,0.9993492960929871,-0.011579591780900955,-0.019763058051466942,0.02787424623966217
466.0,0.0,0.0,0.0,0.0,0.0,0.0,-0.012128148227930069,-0.02187987044453621,-0.006362723186612129,0.9995855093002319,-0.007233947515487671,-0.015719762071967125,0.023006387054920197
467.0,0.0,0.0,0.0,0.0,0.0,0.0,-0.003880455857142806,-0.03362985700368881,-0.0020419531501829624,0.9997037649154663,-0.003241316182538867,-0.011162971146404743,0.021403692662715912
468.0,0.0,0.0,0.0,0.0,0.0,0.0,0.03760421648621559,-0.07158434391021729,-0.05089038982987404,0.9997344613075256,-0.0023851243313401937,-0.00744729395955801,0.02168256975710392
469.0,0.0,0.0,0.0,0.0,0.0,0.0,0.015666404739022255,-0.044717684388160706,-0.02694811299443245,0.9997401833534241,-0.004407634027302265,-0.0029309033416211605,0.022172270342707634
470.0,0.0,0.0,0.0,0.0,0.0,0.0,0.034323032945394516,-0.03897610306739807,-0.036229927092790604,0.9997035264968872,-0.0059047904796898365,0.0006751774344593287,0.02362559735774994
471.0,0.0,0.0,0.0,0.0,0.0,0.0,0.039010681211948395,-0.0009557479061186314,-0.0024683205410838127,0.9996625781059265,-0.007146431598812342,0.0020139310508966446,0.0249102171510458
472.0,0.0,0.0,0.0,0.0,0.0,0.0,0.057289380580186844,0.0030538407154381275,5.427498763310723e-05,0.999604344367981,-0.008191250264644623,0.0009596814052201807,0.026905661448836327
473.0,0.0,0.0,0.0,0.0,0.0,0.0,0.03434820473194122,-0.019492100924253464,-0.003630163613706827,0.9995561838150024,-0.010510975494980812,0.00029756143339909613,0.027879206463694572
474.0,0.0,0.0,0.0,0.0,0.0,0.0,0.011567378416657448,-0.021925201639533043,0.011038747616112232,0.9995035529136658,-0.012526377104222775,0.0002513219660613686,0.028915541246533394
475.0,0.0,0.0,0.0,0.0,0.0,0.0,0.031719356775283813,-0.02641383744776249,0.0022508609108626842,0.9993835687637329,-0.015536374412477016,-0.00015523131878580898,0.03151080012321472
476.0,0.0,0.0,0.0,0.0,0.0,0.0,0.03697524964809418,-0.021125169470906258,-0.03401343151926994,0.9992309212684631,-0.019310377538204193,-0.002255290513858199,0.03407537192106247
477.0,0.0,0.0,0.0,0.0,0.0,0.0,0.06515336781740189,-0.016094040125608444,-0.020914351567626,0.9990614652633667,-0.021781809628009796,-0.006310367025434971,0.03691472113132477
478.0,0.0,0.0,0.0,0.0,0.0,0.0,0.04160656780004501,0.0052308570593595505,0.012730726040899754,0.9989297986030579,-0.023272549733519554,-0.00959006231278181,0.03883155807852745
479.0,0.0,0.0,0.0,0.0,0.0,0.0,0.019904423505067825,0.031213508918881416,0.02911154367029667,0.9988306760787964,-0.023483727127313614,-0.012405932880938053,0.040394823998212814
480.0,0.0,0.0,0.0,0.0,0.0,0.0,0.013426008634269238,0.014049557968974113,0.011062892153859138,0.9987746477127075,-0.023196395486593246,-0.014938604086637497,0.041094597429037094
481.0,0.0,0.0,0.0,0.0,0.0,0.0,0.021735647693276405,0.005881553050130606,0.006310491356998682,0.9987970590591431,-0.022228224202990532,-0.017374955117702484,0.04011593014001846
482.0,0.0,0.0,0.0,0.0,0.0,0.0,0.01915639080107212,-0.01260208897292614,-0.012870793230831623,0.9988095164299011,-0.021802455186843872,-0.01972888596355915,0.038934286683797836
483.0,0.0,0.0,0.0,0.0,0.0,0.0,-0.007097155321389437,0.00021578419546131045,0.001046020188368857,0.9987861514091492,-0.022806720808148384,-0.021900687366724014,0.03778121620416641
484.0,0.0,0.0,0.0,0.0,0.0,0.0,0.009451599791646004,0.0032864802051335573,0.0014295331202447414,0.9987098574638367,-0.023405639454722404,-0.02428763173520565,0.03796909749507904
485.0,0.0,0.0,0.0,0.0,0.0,0.0,0.012705433182418346,-0.012088194489479065,-0.016368431970477104,0.998611330986023,-0.023991774767637253,-0.027155742049217224,0.038257431238889694
486.0,0.0,0.0,0.0,0.0,0.0,0.0,0.008828060701489449,-0.005690585821866989,-0.009904605336487293,0.9984858632087708,-0.02492537349462509,-0.030584312975406647,0.038350094109773636
487.0,0.0,0.0,0.0,0.0,0.0,0.0,-0.004962805658578873,0.010922001674771309,0.014697007834911346,0.9983348846435547,-0.025390785187482834,-0.03392132371664047,0.039146263152360916
488.0,0.0,0.0,0.0,0.0,0.0,0.0,-0.023656899109482765,0.02043362334370613,0.022123051807284355,0.9982203841209412,-0.025548553094267845,-0.03682366758584976,0.039361536502838135
489.0,0.0,0.0,0.0,0.0,0.0,0.0,-0.015142093412578106,0.012457672506570816,0.01579868793487549,0.998102068901062,-0.025117240846157074,-0.040112532675266266,0.03940535709261894
490.0,0.0,0.0,0.0,0.0,0.0,0.0,-0.010584033094346523,0.023922991007566452,0.023316271603107452,0.9980053305625916,-0.024465590715408325,-0.04293125495314598,0.0392889678478241
491.0,0.0,0.0,0.0,0.0,0.0,0.0,-0.004596704617142677,0.011799072846770287,-0.0017808694392442703,0.9977918267250061,-0.025117140263319016,-0.04611097648739815,0.04068918526172638
492.0,0.0,0.0,0.0,0.0,0.0,0.0,-0.004744700621813536,0.027950074523687363,-0.005412748549133539,0.9975050687789917,-0.02696124091744423,-0.04939771443605423,0.04262448474764824
493.0,0.0,0.0,0.0,0.0,0.0,0.0,-0.012399353086948395,0.04065137729048729,0.02560468018054962,0.9973071217536926,-0.028731172904372215,-0.05172010511159897,0.043339479714632034
494.0,0.0,0.0,0.0,0.0,0.0,0.0,-0.03634600341320038,0.026310551911592484,0.02180544100701809,0.9972015619277954,-0.030054520815610886,-0.05280099809169769,0.043564729392528534
495.0,0.0,0.0,0.0,0.0,0.0,0.0,-0.024546697735786438,0.024469368159770966,-0.0065405722707509995,0.9971444010734558,-0.03017721325159073,-0.053381454199552536,0.044088296592235565
496.0,0.0,0.0,0.0,0.0,0.0,0.0,0.00509430468082428,0.03417325019836426,0.024095965549349785,0.9971147179603577,-0.029694383963942528,-0.05415648967027664,0.04413973167538643
497.0,0.0,0.0,0.0,0.0,0.0,0.0,-0.019501492381095886,0.012151946313679218,-0.004165201913565397,0.9971110224723816,-0.029594959691166878,-0.0548047311604023,0.04347251355648041
498.0,0.0,0.0,0.0,0.0,0.0,0.0,-0.000595857622101903,0.01188655011355877,-0.0014350643614307046,0.9971024990081787,-0.03009810298681259,-0.05470995604991913,0.043470434844493866
499.0,0.0,0.0,0.0,0.0,0.0,0.0,0.010239868424832821,0.018779853358864784,0.0007411560509353876,0.9970728754997253,-0.029722660779953003,-0.05445868894457817,0.04467504844069481
500.0,0.0,0.0,0.0,0.0,0.0,0.0,-0.010302800685167313,0.0220793429762125,0.0070695593021810055,0.9971500039100647,-0.029033774510025978,-0.053147781640291214,0.044998541474342346
501.0,0.0,0.0,0.0,0.0,0.0,0.0,0.0027161361649632454,0.015520443208515644,0.011785291135311127,0.9972796440124512,-0.027304543182253838,-0.05207598954439163,0.044454026967287064
502.0,0.0,0.0,0.0,0.0,0.0,0.0,-0.0433901846408844,-0.010654831305146217,-0.0861784890294075,0.9974738955497742,-0.026572562754154205,-0.0498410202562809,0.043077416718006134
503.0,0.0,0.0,0.0,0.0,0.0,0.0,0.01172241847962141,-0.0006693215109407902,-0.00788336992263794,0.9975597262382507,-0.025863679125905037,-0.04880419373512268,0.042712293565273285
504.0,0.0,0.0,0.0,0.0,0.0,0.0,0.02051876299083233,-0.0016050958074629307,-0.013747746124863625,0.9976137280464172,-0.024336347356438637,-0.04840203374624252,0.042811159044504166
505.0,0.0,0.0,0.0,0.0,0.0,0.0,0.01955094002187252,-0.004926031921058893,-0.0003382399445399642,0.9976096749305725,-0.023340808227658272,-0.048633527010679245,0.04318934306502342
506.0,0.0,0.0,0.0,0.0,0.0,0.0,0.008900521323084831,0.0024202095810323954,0.0002012184268096462,0.9975048899650574,-0.023569094017148018,-0.04847763478755951,0.04559920355677605
507.0,0.0,0.0,0.0,0.0,0.0,0.0,0.008219504728913307,0.002901895670220256,0.0035657635889947414,0.9975539445877075,-0.022712664678692818,-0.04816064611077309,0.04529447481036186
508.0,0.0,0.0,0.0,0.0,0.0,0.0,0.002088805427774787,0.023584334179759026,0.02194247953593731,0.997672438621521,-0.020651020109653473,-0.04764420911669731,0.04419475421309471
509.0,0.0,0.0,0.0,0.0,0.0,0.0,0.021260177716612816,0.001266482868231833,0.0049403272569179535,0.9977811574935913,-0.018307482823729515,-0.04749409481883049,0.04292301833629608
510.0,0.0,0.0,0.0,0.0,0.0,0.0,0.0157167986035347,-0.02174442633986473,-0.02132692188024521,0.9979304671287537,-0.016651904210448265,-0.04652412608265877,0.041153181344270706
511.0,0.0,0.0,0.0,0.0,0.0,0.0,0.001339542679488659,-0.012775636278092861,-0.014329886063933372,0.9981139302253723,-0.017496656626462936,-0.04387009143829346,0.039229895919561386
512.0,0.0,0.0,0.0,0.0,0.0,0.0,0.0075188204646110535,-0.013357867486774921,-0.021699462085962296,0.9983155131340027,-0.019762445241212845,-0.04064030945301056,0.0363873727619648
513.0,0.0,0.0,0.0,0.0,0.0,0.0,0.010496736504137516,-0.01047085877507925,0.005253393203020096,0.9984421133995056,-0.024683194234967232,-0.03738287091255188,0.033284224569797516
514.0,0.0,0.0,0.0,0.0,0.0,0.0,-0.009019918739795685,0.0527106411755085,-0.001694706967100501,0.9985353350639343,-0.027277961373329163,-0.035011496394872665,0.0309605710208416
515.0,0.0,0.0,0.0,0.0,0.0,0.0,0.032892413437366486,0.0033990780357271433,0.0115076694637537,0.9986450672149658,-0.027133625000715256,-0.033615853637456894,0.02900814451277256
516.0,0.0,0.0,0.0,0.0,0.0,0.0,0.007162905763834715,-0.000962013378739357,0.0027841387782245874,0.9987164735794067,-0.027302660048007965,-0.033172912895679474,0.026846474036574364
517.0,0.0,0.0,0.0,0.0,0.0,0.0,0.02795255184173584,-0.020084891468286514,-0.01789765991270542,0.9986782073974609,-0.026841575279831886,-0.03382829949259758,0.027884840965270996
518.0,0.0,0.0,0.0,0.0,0.0,0.0,0.027338337153196335,-0.01979227177798748,-0.002268183743581176,0.9985607266426086,-0.026088546961545944,-0.035414207726716995,0.03069748729467392
519.0,0.0,0.0,0.0,0.0,0.0,0.0,0.004050998017191887,0.001921741641126573,0.017627261579036713,0.9985125660896301,-0.024472450837492943,-0.0367610864341259,0.0319766141474247
520.0,0.0,0.0,0.0,0.0,0.0,0.0,-0.011685731820762157,0.0034461934119462967,0.02469738945364952,0.9985288977622986,-0.022474084049463272,-0.037270136177539825,0.03235426917672157
521.0,0.0,0.0,0.0,0.0,0.0,0.0,-0.018819592893123627,0.008866310119628906,0.02837330847978592,0.9986089468002319,-0.020276086404919624,-0.037385694682598114,0.03117227554321289
522.0,0.0,0.0,0.0,0.0,0.0,0.0,-0.00989855919033289,-0.009114183485507965,0.02807490900158882,0.9986975789070129,-0.01829550601541996,-0.03674044460058212,0.03031669184565544
523.0,0.0,0.0,0.0,0.0,0.0,0.0,0.02316499687731266,-0.011337210424244404,0.0022641844116151333,0.9987468719482422,-0.01569410227239132,-0.03567354381084442,0.03141891956329346
524.0,0.0,0.0,0.0,0.0,0.0,0.0,0.0073654246516525745,-0.003514145966619253,0.01652703434228897,0.9987956285476685,-0.014725835993885994,-0.03342827782034874,0.03276658430695534
525.0,0.0,0.0,0.0,0.0,0.0,0.0,0.0018631278071552515,-0.0454130657017231,-0.01288481242954731,0.9988002777099609,-0.01714147999882698,-0.03003568761050701,0.03468038886785507
526.0,0.0,0.0,0.0,0.0,0.0,0.0,0.018326101824641228,-0.031239455565810204,-0.013256221078336239,0.9988053441047668,-0.018325291574001312,-0.02638836018741131,0.03682710975408554
527.0,0.0,0.0,0.0,0.0,0.0,0.0,-0.0013669236795976758,0.020860210061073303,0.016322892159223557,0.9988658428192139,-0.019787585362792015,-0.02315320260822773,0.03659646585583687
528.0,0.0,0.0,0.0,0.0,0.0,0.0,0.027972890064120293,-0.0007200133404694498,-0.009794321842491627,0.9989132285118103,-0.020251339301466942,-0.021984310820698738,0.0357678197324276
529.0,0.0,0.0,0.0,0.0,0.0,0.0,0.08324763923883438,-0.04631200060248375,-0.04614746570587158,0.9989597201347351,-0.020291898399591446,-0.0219865832477808,0.034421492367982864
530.0,0.0,0.0,0.0,0.0,0.0,0.0,0.036531515419483185,-0.015301723964512348,-0.04325977340340614,0.9990316033363342,-0.021595006808638573,-0.02188883163034916,0.031468674540519714
531.0,0.0,0.0,0.0,0.0,0.0,0.0,0.037855349481105804,-0.014189856126904488,-0.017906202003359795,0.9990580677986145,-0.023001091554760933,-0.022210879251360893,0.0293419249355793
532.0,0.0,0.0,0.0,0.0,0.0,0.0,0.013115447014570236,0.006405542604625225,0.011242276057600975,0.9990497827529907,-0.02567221410572529,-0.02250790409743786,0.027091920375823975
533.0,0.0,0.0,0.0,0.0,0.0,0.0,0.00675413990393281,0.011768743395805359,-0.0018334296764805913,0.999058723449707,-0.026393041014671326,-0.022523336112499237,0.02604312263429165
534.0,0.0,0.0,0.0,0.0,0.0,0.0,0.008054178208112717,-0.009068656712770462,-0.01607634127140045,0.9990573525428772,-0.026746302843093872,-0.022642727941274643,0.02563151717185974
535.0,0.0,0.0,0.0,0.0,0.0,0.0,-0.016592197120189667,0.027268605306744576,0.01007132325321436,0.9991074800491333,-0.02624651789665222,-0.022482506930828094,0.02429060824215412
536.0,0.0,0.0,0.0,0.0,0.0,0.0,-0.011206923052668571,0.023830994963645935,0.021959001198410988,0.9991536140441895,-0.025298181921243668,-0.02196195162832737,0.02388240396976471
537.0,0.0,0.0,0.0,0.0,0.0,0.0,0.002592537086457014,-0.006355924531817436,-0.006101053673774004,0.9991934895515442,-0.024988392367959023,-0.02173040248453617,0.022724151611328125
538.0,0.0,0.0,0.0,0.0,0.0,0.0,-0.002129608066752553,-0.003938361536711454,-0.006813806015998125,0.9992272853851318,-0.024885041639208794,-0.021859964355826378,0.021166721358895302
539.0,0.0,0.0,0.0,0.0,0.0,0.0,-0.024816930294036865,0.0034127843100577593,-0.0025382323656231165,0.9992706179618835,-0.024830518290400505,-0.021903255954384804,0.019028684124350548
540.0,0.0,0.0,0.0,0.0,0.0,0.0,-0.0069740102626383305,0.0028852696996182203,-0.011093201115727425,0.9993008971214294,-0.024445846676826477,-0.023029999807476997,0.016440499573946
541.0,0.0,0.0,0.0,0.0,0.0,0.0,-0.0071509648114442825,-0.0010124694090336561,-0.028569838032126427,0.9992371797561646,-0.025843175128102303,-0.02511301450431347,0.015067202039062977
542.0,0.0,0.0,0.0,0.0,0.0,0.0,-0.003049632767215371,0.03461327776312828,-0.006938686594367027,0.9991582036018372,-0.027143068611621857,-0.02721256949007511,0.014342210255563259
543.0,0.0,0.0,0.0,0.0,0.0,0.0,-0.02096555568277836,0.013413135893642902,0.03170944005250931,0.9991136789321899,-0.027720443904399872,-0.028264814987778664,0.01431541983038187
544.0,0.0,0.0,0.0,0.0,0.0,0.0,-0.06080344319343567,0.05460001900792122,0.040622033178806305,0.9991347789764404,-0.027135752141475677,-0.028577562421560287,0.013295400887727737
545.0,0.0,0.0,0.0,0.0,0.0,0.0,-0.03613445162773132,0.025918062776327133,0.02236803248524666,0.9992068409919739,-0.024437768384814262,-0.028601737692952156,0.013061455450952053
546.0,0.0,0.0,0.0,0.0,0.0,0.0,-0.023019615560770035,0.03917509689927101,0.06154049187898636,0.9993196725845337,-0.018681667745113373,-0.028914976865053177,0.01325036771595478
547.0,0.0,0.0,0.0,0.0,0.0,0.0,-0.03324195742607117,0.011360414326190948,0.04096337407827377,0.999447226524353,-0.011323358863592148,-0.027839040383696556,0.014208092354238033
548.0,0.0,0.0,0.0,0.0,0.0,0.0,-0.026593998074531555,-0.021558791399002075,-0.005705247167497873,0.9995463490486145,-0.004565582610666752,-0.025624269619584084,0.015174434520304203
549.0,0.0,0.0,0.0,0.0,0.0,0.0,-0.016096897423267365,-0.023808442056179047,-0.011946585960686207,0.9996128082275391,0.0005629572551697493,-0.02281673066318035,0.015933645889163017
550.0,0.0,0.0,0.0,0.0,0.0,0.0,-0.010051211342215538,0.0027483904268592596,0.0054292622953653336,0.9996368885040283,0.005237617529928684,-0.02018233947455883,0.017085235565900803
551.0,0.0,0.0,0.0,0.0,0.0,0.0,0.034014321863651276,-0.00145884754601866,-0.012249304912984371,0.9995762705802917,0.011573493480682373,-0.018937258049845695,0.018841322511434555
552.0,0.0,0.0,0.0,0.0,0.0,0.0,0.06168206408619881,-0.05092497915029526,-0.02138720639050007,0.99951171875,0.015812044963240623,-0.01718677394092083,0.020765382796525955
553.0,0.0,0.0,0.0,0.0,0.0,0.0,0.028326235711574554,-0.048372700810432434,-0.09845492243766785,0.9994753003120422,0.015624056570231915,-0.015473652631044388,0.023786932229995728
554.0,0.0,0.0,0.0,0.0,0.0,0.0,0.08425945788621902,-0.05583830550312996,-0.09087004512548447,0.9994334578514099,0.013791571371257305,-0.01587357372045517,0.026283377781510353
555.0,0.0,0.0,0.0,0.0,0.0,0.0,0.06309401243925095,-0.02675020322203636,-0.05901290848851204,0.9994715452194214,0.01028965599834919,-0.01613808237016201,0.026277760043740273
556.0,0.0,0.0,0.0,0.0,0.0,0.0,0.0726453885436058,0.024227285757660866,-0.04714454337954521,0.9995008111000061,0.005901388358324766,-0.018065236508846283,0.025255486369132996
557.0,0.0,0.0,0.0,0.0,0.0,0.0,0.06735973805189133,0.012640956789255142,0.017720023170113564,0.999492347240448,0.0009624621598049998,-0.02163669280707836,0.023360678926110268
558.0,0.0,0.0,0.0,0.0,0.0,0.0,-0.05250935256481171,-0.034322191029787064,-0.03524541109800339,0.9994946718215942,-0.00592853082343936,-0.022937269881367683,0.021218281239271164
559.0,0.0,0.0,0.0,0.0,0.0,0.0,0.02626742795109749,0.00018230591376777738,-0.040217578411102295,0.9993628263473511,-0.00877602118998766,-0.02710184082388878,0.021517666056752205
560.0,0.0,0.0,0.0,0.0,0.0,0.0,0.004336977377533913,-0.01220343355089426,0.03013843111693859,0.9992295503616333,-0.010222958400845528,-0.030916361138224602,0.021920807659626007
561.0,0.0,0.0,0.0,0.0,0.0,0.0,-0.021191056817770004,-0.01607345975935459,-0.0006910057854838669,0.9991070032119751,-0.011484776623547077,-0.03369230031967163,0.022781385108828545
562.0,0.0,0.0,0.0,0.0,0.0,0.0,0.007954297587275505,-0.020921798422932625,-0.017929628491401672,0.9989734888076782,-0.01202407106757164,-0.0360521525144577,0.024664780125021935
563.0,0.0,0.0,0.0,0.0,0.0,0.0,-0.0019642263650894165,0.015212851576507092,0.018856804817914963,0.9988690614700317,-0.011123044416308403,-0.03787117078900337,0.02651950903236866
564.0,0.0,0.0,0.0,0.0,0.0,0.0,-0.001907508121803403,0.02464810013771057,0.05121983215212822,0.9987592697143555,-0.009906789287924767,-0.03965268284082413,0.02845812402665615
565.0,0.0,0.0,0.0,0.0,0.0,0.0,-0.0017029967857524753,-0.0041207061149179935,-0.013724207878112793,0.998694658279419,-0.011101639829576015,-0.04057592153549194,0.02897394262254238
566.0,0.0,0.0,0.0,0.0,0.0,0.0,0.030480533838272095,-0.008098174817860126,-0.013582817278802395,0.9985650777816772,-0.013246897608041763,-0.041568029671907425,0.031082473695278168
567.0,0.0,0.0,0.0,0.0,0.0,0.0,0.031233184039592743,-0.0028689696919173002,-0.0064527858048677444,0.9983521699905396,-0.016220582649111748,-0.04315866529941559,0.034172337502241135
568.0,0.0,0.0,0.0,0.0,0.0,0.0,0.02351614460349083,0.004422418773174286,-0.008666113950312138,0.9981526732444763,-0.018507441505789757,-0.04559256508946419,0.0356510728597641
569.0,0.0,0.0,0.0,0.0,0.0,0.0,0.019984617829322815,0.006196803878992796,0.0033558590803295374,0.9980336427688599,-0.020749511197209358,-0.04744713753461838,0.03531532734632492
570.0,0.0,0.0,0.0,0.0,0.0,0.0,0.026922373101115227,0.002919083693996072,-0.009498147293925285,0.9977099299430847,-0.026194017380475998,-0.05030820518732071,0.03684746474027634
571.0,0.0,0.0,0.0,0.0,0.0,0.0,0.03687789663672447,0.008348886854946613,-0.01827106811106205,0.9971133470535278,-0.030840395018458366,-0.05484602227807045,0.042515575885772705
572.0,0.0,0.0,0.0,0.0,0.0,0.0,-0.0018365978030487895,0.04221942648291588,0.03801945224404335,0.9966488480567932,-0.03331191837787628,-0.05921999737620354,0.045562464743852615
573.0,0.0,0.0,0.0,0.0,0.0,0.0,-0.04703570529818535,0.06046611815690994,0.05498237907886505,0.9963282942771912,-0.0344076007604599,-0.06230407953262329,0.0475810170173645
574.0,0.0,0.0,0.0,0.0,0.0,0.0,-0.009359835647046566,0.03199006989598274,0.02505769021809101,0.9960431456565857,-0.033800624310970306,-0.06476445496082306,0.05062073469161987
575.0,0.0,0.0,0.0,0.0,0.0,0.0,-0.015137259848415852,0.04326966032385826,0.041953034698963165,0.9959282279014587,-0.03306930139660835,-0.0664888471364975,0.05111701786518097
576.0,0.0,0.0,0.0,0.0,0.0,0.0,-0.025415459647774696,0.04236876219511032,0.04428096115589142,0.995947539806366,-0.03205768018960953,-0.06703346222639084,0.050673071295022964
577.0,0.0,0.0,0.0,0.0,0.0,0.0,-0.008268975652754307,0.018417682498693466,0.030061298981308937,0.9959717392921448,-0.03167751431465149,-0.06695421785116196,0.05053738132119179
578.0,0.0,0.0,0.0,0.0,0.0,0.0,-0.008765007369220257,0.015514143742620945,0.016653485596179962,0.9960315227508545,-0.0316774845123291,-0.06676758825778961,0.049593959003686905
579.0,0.0,0.0,0.0,0.0,0.0,0.0,-0.01600893959403038,0.01947246491909027,0.029356151819229126,0.9961530566215515,-0.03145480528473854,-0.06633306294679642,0.047852370887994766
580.0,0.0,0.0,0.0,0.0,0.0,0.0,-0.014010198414325714,0.014914175495505333,0.013484380207955837,0.9963467121124268,-0.03066781722009182,-0.06536534428596497,0.045621518045663834
581.0,0.0,0.0,0.0,0.0,0.0,0.0,0.007706927601248026,-0.01225103996694088,-0.01474736724048853,0.9964557886123657,-0.03081073798239231,-0.06473904103040695,0.044001515954732895
582.0,0.0,0.0,0.0,0.0,0.0,0.0,-0.01108596846461296,-0.0025542243383824825,-0.01421590056270361,0.9965982437133789,-0.03113415278494358,-0.0639769583940506,0.041597649455070496
583.0,0.0,0.0,0.0,0.0,0.0,0.0,-0.004891287535429001,0.004314543213695288,-0.009464425034821033,0.9967443943023682,-0.03083649091422558,-0.0628022849559784,0.04008397459983826
584.0,0.0,0.0,0.0,0.0,0.0,0.0,0.005894360598176718,-0.01041493657976389,-0.020489748567342758,0.9967542886734009,-0.03139684349298477,-0.06224639713764191,0.04025663807988167
585.0,0.0,0.0,0.0,0.0,0.0,0.0,0.002836995990946889,-0.014075685292482376,-0.024769198149442673,0.9967641234397888,-0.03250598534941673,-0.06160698086023331,0.040120113641023636
586.0,0.0,0.0,0.0,0.0,0.0,0.0,-0.01423365343362093,0.016479816287755966,0.01805213652551174,0.99689781665802,-0.03220358118414879,-0.060747142881155014,0.03831859678030014
587.0,0.0,0.0,0.0,0.0,0.0,0.0,-0.01116255298256874,0.003429877106100321,0.00992949865758419,0.9970360398292542,-0.031266890466213226,-0.05973401665687561,0.03707050159573555
588.0,0.0,0.0,0.0,0.0,0.0,0.0,0.009757773019373417,-0.00811199564486742,-0.01015480700880289,0.9970864057540894,-0.03047974966466427,-0.05949102342128754,0.036751631647348404
589.0,0.0,0.0,0.0,0.0,0.0,0.0,-0.0040374984964728355,0.008484096266329288,0.01150122657418251,0.9971727728843689,-0.029199732467532158,-0.05895168334245682,0.036326415836811066
590.0,0.0,0.0,0.0,0.0,0.0,0.0,-0.002626618603244424,0.0022096869070082903,0.0007543011452071369,0.9972975254058838,-0.028390733525156975,-0.05783994868397713,0.03530976548790932
591.0,0.0,0.0,0.0,0.0,0.0,0.0,0.005066787824034691,-0.006686388980597258,0.002282752888277173,0.9974868297576904,-0.028544362634420395,-0.055792421102523804,0.03307265415787697
592.0,0.0,0.0,0.0,0.0,0.0,0.0,-0.003220026846975088,-0.010718340054154396,-0.00050019146874547,0.9976629614830017,-0.030971474945545197,-0.052552729845047,0.030791131779551506
593.0,0.0,0.0,0.0,0.0,0.0,0.0,-0.005040832329541445,-0.016161765903234482,-0.01953163743019104,0.9977169036865234,-0.035973697900772095,-0.048933789134025574,0.029551435261964798
594.0,0.0,0.0,0.0,0.0,0.0,0.0,0.005703768692910671,0.003038752591237426,-0.012022691778838634,0.9976783990859985,-0.040767110884189606,-0.046355195343494415,0.02877243049442768
595.0,0.0,0.0,0.0,0.0,0.0,0.0,0.0006883528549224138,0.020945873111486435,0.023831121623516083,0.9976621270179749,-0.0431474931538105,-0.04478537291288376,0.028336072340607643
596.0,0.0,0.0,0.0,0.0,0.0,0.0,-0.019692538306117058,0.029237758368253708,0.03243754431605339,0.9977828860282898,-0.043167054653167725,-0.04255956411361694,0.02748684771358967
597.0,0.0,0.0,0.0,0.0,0.0,0.0,-0.00678635761141777,0.024629605934023857,0.03530092537403107,0.9979987740516663,-0.041448064148426056,-0.04016132652759552,0.025853902101516724
598.0,0.0,0.0,0.0,0.0,0.0,0.0,-0.026220422238111496,0.0260717011988163,0.039285335689783096,0.9983144402503967,-0.03834529593586922,-0.03732854127883911,0.022471221163868904
599.0,0.0,0.0,0.0,0.0,0.0,0.0,-0.023992665112018585,0.013676720671355724,0.02334866113960743,0.998619794845581,-0.03465499356389046,-0.03488610312342644,0.018479520455002785
600.0,0.0,0.0,0.0,0.0,0.0,0.0,0.00048600081936456263,0.002327968366444111,0.0047690607607364655,0.9989023804664612,-0.030257396399974823,-0.032511208206415176,0.014914417639374733
601.0,0.0,0.0,0.0,0.0,0.0,0.0,-0.003619562368839979,-0.022823408246040344,-0.011408969759941101,0.9991535544395447,-0.025327300652861595,-0.029618840664625168,0.013188694603741169
602.0,0.0,0.0,0.0,0.0,0.0,0.0,-0.014835505746304989,0.007017266936600208,0.005473367404192686,0.9993884563446045,-0.020181771367788315,-0.025904154404997826,0.012027104385197163
603.0,0.0,0.0,0.0,0.0,0.0,0.0,0.02393057383596897,-0.008252350613474846,0.02207922749221325,0.9994969367980957,-0.01731019839644432,-0.02218792587518692,0.014641170389950275
604.0,0.0,0.0,0.0,0.0,0.0,0.0,0.008737679570913315,-0.027068762108683586,-0.0012018491979688406,0.9995723962783813,-0.015554141253232956,-0.018218616023659706,0.016772830858826637
605.0,0.0,0.0,0.0,0.0,0.0,0.0,0.013021455146372318,-0.030678603798151016,-0.029516106471419334,0.9996431469917297,-0.015203159302473068,-0.014616146683692932,0.016402581706643105
606.0,0.0,0.0,0.0,0.0,0.0,0.0,0.07353387773036957,-0.02578410878777504,-0.060986150056123734,0.9996516704559326,-0.015004267916083336,-0.013405201956629753,0.01709901914000511
607.0,0.0,0.0,0.0,0.0,0.0,0.0,0.06445807963609695,-0.0691038966178894,-0.05190691351890564,0.9996629357337952,-0.015277140773832798,-0.012980599887669086,0.016494983807206154
608.0,0.0,0.0,0.0,0.0,0.0,0.0,-0.012449287809431553,-0.03587718680500984,-0.03389479219913483,0.9996958374977112,-0.016553355380892754,-0.011235060170292854,0.014440185390412807
609.0,0.0,0.0,0.0,0.0,0.0,0.0,0.025870194658637047,-0.033726003021001816,-0.04158531129360199,0.9996588826179504,-0.018390288576483727,-0.011717971414327621,0.014386090449988842
610.0,0.0,0.0,0.0,0.0,0.0,0.0,0.05686859041452408,-0.03622942790389061,-0.029563048854470253,0.9995864629745483,-0.019936861470341682,-0.014391311444342136,0.014916718937456608
611.0,0.0,0.0,0.0,0.0,0.0,0.0,-0.003750675590708852,-0.0008253924897871912,0.02396252378821373,0.9995828866958618,-0.019482916221022606,-0.015309150330722332,0.014846310950815678
612.0,0.0,0.0,0.0,0.0,0.0,0.0,-0.02577601931989193,-0.006175295449793339,0.018638694658875465,0.9995828866958618,-0.018637141212821007,-0.01541956327855587,0.01578059419989586
613.0,0.0,0.0,0.0,0.0,0.0,0.0,0.014375883154571056,-0.024451233446598053,-0.010564744472503662,0.9995637536048889,-0.018196962773799896,-0.016214415431022644,0.016695315018296242
614.0,0.0,0.0,0.0,0.0,0.0,0.0,0.0006397442193701863,-0.020667362958192825,-0.004846850410103798,0.999563992023468,-0.01745384931564331,-0.016679774969816208,0.017013495787978172
615.0,0.0,0.0,0.0,0.0,0.0,0.0,0.0017525303410366178,-0.033958688378334045,-0.014236344024538994,0.9995450377464294,-0.01747198775410652,-0.01729639247059822,0.0174791868776083
616.0,0.0,0.0,0.0,0.0,0.0,0.0,0.017864016816020012,-0.04071340337395668,-0.03613163158297539,0.9994709491729736,-0.0188274085521698,-0.019013285636901855,0.018494972959160805
617.0,0.0,0.0,0.0,0.0,0.0,0.0,0.013736046850681305,-0.049439769238233566,-0.045894987881183624,0.9993661046028137,-0.021038435399532318,-0.02177208475768566,0.018740415573120117
618.0,0.0,0.0,0.0,0.0,0.0,0.0,0.011809131130576134,-0.04241274297237396,-0.05006391927599907,0.9991971254348755,-0.024111466482281685,-0.025543013587594032,0.019285298883914948
619.0,0.0,0.0,0.0,0.0,0.0,0.0,0.011716299690306187,-0.010031490586698055,-0.03405604884028435,0.9989258646965027,-0.02772183157503605,-0.030227193608880043,0.02157861553132534
620.0,0.0,0.0,0.0,0.0,0.0,0.0,-0.008305629715323448,0.007191283628344536,0.0010996439959853888,0.9986039996147156,-0.030762730166316032,-0.034873489290475845,0.025065824389457703
621.0,0.0,0.0,0.0,0.0,0.0,0.0,-0.03820561617612839,-0.0017631456721574068,0.01607644371688366,0.9982693195343018,-0.03272369131445885,-0.03937716409564018,0.02892060950398445
622.0,0.0,0.0,0.0,0.0,0.0,0.0,-0.07403168082237244,0.049217432737350464,0.03201404958963394,0.9980978965759277,-0.0322813019156456,-0.04256140813231468,0.030775422230362892
623.0,0.0,0.0,0.0,0.0,0.0,0.0,-0.014798075892031193,0.002638682723045349,0.017689011991024017,0.9979169964790344,-0.029509417712688446,-0.04548557475209236,0.03496955335140228
624.0,0.0,0.0,0.0,0.0,0.0,0.0,-0.03581584244966507,0.011472572572529316,0.004717051051557064,0.9977471828460693,-0.025919035077095032,-0.04725690558552742,0.03994980826973915
625.0,0.0,0.0,0.0,0.0,0.0,0.0,-0.03138532489538193,0.045089900493621826,0.03853447735309601,0.9975744485855103,-0.02267596125602722,-0.04827360808849335,0.0447402149438858
626.0,0.0,0.0,0.0,0.0,0.0,0.0,-0.009253128431737423,0.043152544647455215,0.039934780448675156,0.9973995089530945,-0.019288673996925354,-0.0487339161336422,0.0494704507291317
627.0,0.0,0.0,0.0,0.0,0.0,0.0,0.001095310435630381,0.02536294423043728,0.03221670910716057,0.9974319934844971,-0.01724471151828766,-0.04773340001702309,0.050551485270261765
628.0,0.0,0.0,0.0,0.0,0.0,0.0,0.0157354474067688,0.03916629031300545,0.01338107232004404,0.9975032806396484,-0.015300275757908821,-0.04629361629486084,0.05109739676117897
629.0,0.0,0.0,0.0,0.0,0.0,0.0,0.0655020996928215,0.011161674745380878,-0.008448608219623566,0.9973894357681274,-0.01512490026652813,-0.04589318111538887,0.05365476757287979
630.0,0.0,0.0,0.0,0.0,0.0,0.0,0.0560210756957531,-0.022453375160694122,-0.05101528763771057,0.9972533583641052,-0.01816585846245289,-0.046033214777708054,0.055103130638599396
631.0,0.0,0.0,0.0,0.0,0.0,0.0,0.0022373695392161608,-0.002924464177340269,-0.028619155287742615,0.997113049030304,-0.0234274473041296,-0.046241771429777145,0.055508848279714584
632.0,0.0,0.0,0.0,0.0,0.0,0.0,-0.00012675249308813363,0.015761040151119232,-0.012682496570050716,0.9969457387924194,-0.02860243432223797,-0.04629996418952942,0.05601928010582924
633.0,0.0,0.0,0.0,0.0,0.0,0.0,-0.015612401068210602,-0.00044889652053825557,-0.006477493327111006,0.996796190738678,-0.0344611331820488,-0.04458039999008179,0.05676962435245514
634.0,0.0,0.0,0.0,0.0,0.0,0.0,-0.014566414058208466,0.041535478085279465,-0.013719023205339909,0.996482789516449,-0.03946547955274582,-0.043337367475032806,0.059894610196352005
635.0,0.0,0.0,0.0,0.0,0.0,0.0,0.027202459052205086,0.04126352444291115,0.0212604608386755,0.9962356686592102,-0.04169216379523277,-0.04272199422121048,0.06287579238414764
636.0,0.0,0.0,0.0,0.0,0.0,0.0,-0.03250017389655113,0.0458979606628418,0.0242324061691761,0.9962369799613953,-0.04356558620929718,-0.04046006500720978,0.06307941675186157
637.0,0.0,0.0,0.0,0.0,0.0,0.0,-0.003241622354835272,0.02817956730723381,0.0016528696287423372,0.9962168335914612,-0.04489131644368172,-0.03846271336078644,0.06370667368173599
638.0,0.0,0.0,0.0,0.0,0.0,0.0,0.01593834161758423,0.014475131407380104,-0.0008579942514188588,0.9961715340614319,-0.046364426612854004,-0.037041064351797104,0.06420829147100449
639.0,0.0,0.0,0.0,0.0,0.0,0.0,-0.00859146099537611,0.018567290157079697,0.000835252576507628,0.9962320923805237,-0.046573393046855927,-0.035091497004032135,0.06419301778078079
640.0,0.0,0.0,0.0,0.0,0.0,0.0,-0.0012547459919005632,0.014654973521828651,-0.0070584737695753574,0.9963544011116028,-0.04621699079871178,-0.03260033205151558,0.0638713538646698
641.0,0.0,0.0,0.0,0.0,0.0,0.0,0.004332985263317823,0.004485884681344032,-0.011582954786717892,0.9964307546615601,-0.04666130989789963,-0.0300035048276186,0.06362428516149521
642.0,0.0,0.0,0.0,0.0,0.0,0.0,0.0016475707525387406,0.008352740667760372,-0.012424462474882603,0.9964926838874817,-0.04618006944656372,-0.027258750051259995,0.06423516571521759
643.0,0.0,0.0,0.0,0.0,0.0,0.0,-0.0016603164840489626,0.007404005620628595,-0.01650838926434517,0.99655681848526,-0.04493669047951698,-0.02459564059972763,0.06521058082580566
644.0,0.0,0.0,0.0,0.0,0.0,0.0,-0.0050635444931685925,0.012171431444585323,-0.011608729138970375,0.9967065453529358,-0.04234210401773453,-0.02216782048344612,0.06552081555128098
645.0,0.0,0.0,0.0,0.0,0.0,0.0,-0.003811589675024152,0.014327955432236195,-0.004890071228146553,0.99689781665802,-0.03909774497151375,-0.01983923465013504,0.06537424027919769
646.0,0.0,0.0,0.0,0.0,0.0,0.0,-0.015063762664794922,0.011653248220682144,0.0029763197526335716,0.9970921874046326,-0.03638756647706032,-0.017148392274975777,0.06472939252853394
647.0,0.0,0.0,0.0,0.0,0.0,0.0,-0.010717163793742657,0.023718347772955894,0.012751925736665726,0.997297465801239,-0.03377848491072655,-0.014598937705159187,0.0635942667722702
648.0,0.0,0.0,0.0,0.0,0.0,0.0,0.015301023609936237,0.025051608681678772,0.023732462897896767,0.9974992871284485,-0.031082380563020706,-0.01216124277561903,0.062301233410835266
649.0,0.0,0.0,0.0,0.0,0.0,0.0,0.0012743381084874272,0.036484695971012115,0.03792298957705498,0.9976585507392883,-0.02827938087284565,-0.010265699587762356,0.06141435727477074
650.0,0.0,0.0,0.0,0.0,0.0,0.0,0.006786775309592485,0.03349544107913971,0.03601305931806564,0.9978363513946533,-0.02467264048755169,-0.009036109782755375,0.06026336923241615
651.0,0.0,0.0,0.0,0.0,0.0,0.0,0.030472420156002045,0.01574917882680893,0.030370328575372696,0.9979945421218872,-0.021217387169599533,-0.007959344424307346,0.059118591248989105
652.0,0.0,0.0,0.0,0.0,0.0,0.0,0.04554099217057228,0.00763331213966012,0.013564261607825756,0.9980833530426025,-0.018975455313920975,-0.007763145491480827,0.05840376764535904
653.0,0.0,0.0,0.0,0.0,0.0,0.0,0.05119616910815239,-0.011889148503541946,0.003416849533095956,0.9981345534324646,-0.018789833411574364,-0.007836940698325634,0.057554200291633606
654.0,0.0,0.0,0.0,0.0,0.0,0.0,0.04545261338353157,-0.015008670277893543,0.004094601143151522,0.9981600046157837,-0.019710827618837357,-0.008157591335475445,0.05676086246967316
655.0,0.0,0.0,0.0,0.0,0.0,0.0,0.023220805451273918,0.005563108716160059,0.01345877069979906,0.998238742351532,-0.020152539014816284,-0.00886601209640503,0.055088937282562256
656.0,0.0,0.0,0.0,0.0,0.0,0.0,0.018307426944375038,0.002044122666120529,0.023007268086075783,0.998308539390564,-0.01996771991252899,-0.00977996364235878,0.05371089279651642
657.0,0.0,0.0,0.0,0.0,0.0,0.0,0.008909943513572216,-0.009445798583328724,0.0033363685943186283,0.998369574546814,-0.019696244969964027,-0.010129565373063087,0.05259913206100464
658.0,0.0,0.0,0.0,0.0,0.0,0.0,0.011321082711219788,-0.003917729947715998,0.008286269381642342,0.998468816280365,-0.019295040518045425,-0.010198334231972694,0.05082881450653076
659.0,0.0,0.0,0.0,0.0,0.0,0.0,0.019534911960363388,-0.01638803444802761,0.008157444186508656,0.9985558986663818,-0.018860572949051857,-0.01078889798372984,0.04913053289055824
660.0,0.0,0.0,0.0,0.0,0.0,0.0,0.011552568525075912,-0.022518405690789223,-0.009742111898958683,0.998634397983551,-0.01780986785888672,-0.01169157400727272,0.04769610986113548
661.0,0.0,0.0,0.0,0.0,0.0,0.0,0.013021663762629032,-0.01784173585474491,-0.0005554198869504035,0.9986845850944519,-0.016856666654348373,-0.012340971268713474,0.046853791922330856
662.0,0.0,0.0,0.0,0.0,0.0,0.0,0.0012856475077569485,-0.013140851631760597,0.005491829011589289,0.9987224340438843,-0.01600516587495804,-0.012836686335504055,0.04617662355303764
663.0,0.0,0.0,0.0,0.0,0.0,0.0,0.006014993414282799,-0.012718928046524525,0.0011095076333731413,0.9987238645553589,-0.015553902834653854,-0.012953896075487137,0.046284571290016174
664.0,0.0,0.0,0.0,0.0,0.0,0.0,0.006959955673664808,-0.005413331091403961,0.012849639169871807,0.9986685514450073,-0.015944920480251312,-0.012739474885165691,0.04738416522741318
665.0,0.0,0.0,0.0,0.0,0.0,0.0,-0.004883210174739361,-0.007204059045761824,0.012933497317135334,0.9986415505409241,-0.015854626893997192,-0.012228675186634064,0.04811379685997963
666.0,0.0,0.0,0.0,0.0,0.0,0.0,-0.016566701233386993,-0.0046365647576749325,0.020183926448225975,0.9987161159515381,-0.014365866780281067,-0.012414176017045975,0.04695975035429001
667.0,0.0,0.0,0.0,0.0,0.0,0.0,0.005181512329727411,-0.013515608385205269,-0.009797520935535431,0.9987480640411377,-0.014823606237769127,-0.012130376882851124,0.04624200984835625
668.0,0.0,0.0,0.0,0.0,0.0,0.0,0.022677799686789513,-0.028821509331464767,-0.0119479326531291,0.9987945556640625,-0.017169013619422913,-0.010742733255028725,0.044733233749866486
669.0,0.0,0.0,0.0,0.0,0.0,0.0,-0.020746691152453423,0.01835944689810276,0.038066476583480835,0.9988321661949158,-0.02314760908484459,-0.008435755036771297,0.041582707315683365
670.0,0.0,0.0,0.0,0.0,0.0,0.0,-0.03038179501891136,0.0355682410299778,0.0452156700193882,0.9987710118293762,-0.03122681751847267,-0.006237976718693972,0.037986114621162415
671.0,0.0,0.0,0.0,0.0,0.0,0.0,0.0010430923430249095,0.0421549491584301,0.0270952470600605,0.9986698627471924,-0.037518057972192764,-0.00481173163279891,0.03506238013505936
672.0,0.0,0.0,0.0,0.0,0.0,0.0,0.003055671928450465,0.04951990395784378,0.05808299407362938,0.9986621737480164,-0.03975178301334381,-0.004578026011586189,0.03278619050979614
673.0,0.0,0.0,0.0,0.0,0.0,0.0,-0.004308464005589485,0.009385867975652218,0.06848165392875671,0.9986637830734253,-0.04066891595721245,-0.005247955210506916,0.031468912959098816
674.0,0.0,0.0,0.0,0.0,0.0,0.0,-0.022224048152565956,-0.0010322313755750656,0.029260605573654175,0.9987024664878845,-0.04094278812408447,-0.005284079350531101,0.029856333509087563
675.0,0.0,0.0,0.0,0.0,0.0,0.0,-0.02265438251197338,0.02036379650235176,0.035545047372579575,0.9988093972206116,-0.03968139365315437,-0.005450254771858454,0.027861425653100014
676.0,0.0,0.0,0.0,0.0,0.0,0.0,-0.0036548362113535404,-0.0049332864582538605,0.012419587932527065,0.9988795518875122,-0.039258453994989395,-0.0054822443053126335,0.025876836851239204
677.0,0.0,0.0,0.0,0.0,0.0,0.0,0.002731379820033908,-0.034288983792066574,-0.03624507412314415,0.9989171028137207,-0.03924469277262688,-0.005782716907560825,0.02432933822274208
678.0,0.0,0.0,0.0,0.0,0.0,0.0,-0.006825781427323818,-0.009005674161016941,-0.007401150185614824,0.9989518523216248,-0.03880896046757698,-0.006030153017491102,0.023512016981840134
679.0,0.0,0.0,0.0,0.0,0.0,0.0,-0.015390308573842049,-0.0059069497510790825,0.002123410115018487,0.9989866614341736,-0.03861045464873314,-0.006404423154890537,0.022254180163145065
680.0,0.0,0.0,0.0,0.0,0.0,0.0,-0.01131564099341631,-0.016852283850312233,-0.013610153459012508,0.9990228414535522,-0.03835684061050415,-0.006304220762103796,0.021045565605163574
681.0,0.0,0.0,0.0,0.0,0.0,0.0,-0.002313836244866252,-0.025654319673776627,-0.03615155071020126,0.9990448951721191,-0.038268156349658966,-0.006297847721725702,0.020144278183579445
682.0,0.0,0.0,0.0,0.0,0.0,0.0,0.0010825160425156355,-0.013954085297882557,-0.021855242550373077,0.9990823864936829,-0.03768356889486313,-0.006483016069978476,0.019321680068969727
683.0,0.0,0.0,0.0,0.0,0.0,0.0,-0.0012943203328177333,-0.01660364679992199,-0.01654128171503544,0.9990968704223633,-0.037320252507925034,-0.007728267461061478,0.01880023442208767
684.0,0.0,0.0,0.0,0.0,0.0,0.0,0.0020985775627195835,-0.015993189066648483,-0.02103542722761631,0.9991261959075928,-0.03641388192772865,-0.009155030362308025,0.018361836671829224
685.0,0.0,0.0,0.0,0.0,0.0,0.0,0.006254374049603939,-0.01931181363761425,-0.018547819927334785,0.9991650581359863,-0.035124219954013824,-0.009940584190189838,0.0183469969779253
686.0,0.0,0.0,0.0,0.0,0.0,0.0,0.007031015120446682,-0.017386384308338165,-0.01993432454764843,0.9992061853408813,-0.03361039608716965,-0.01110157836228609,0.018287857994437218
687.0,0.0,0.0,0.0,0.0,0.0,0.0,0.010002901777625084,-0.022347742691636086,-0.01457290817052126,0.9992740154266357,-0.03164137527346611,-0.01229375135153532,0.017290988937020302
688.0,0.0,0.0,0.0,0.0,0.0,0.0,0.006739556789398193,-0.003213383723050356,-0.005423479713499546,0.9993711113929749,-0.028674202039837837,-0.013865399174392223,0.01560125220566988
689.0,0.0,0.0,0.0,0.0,0.0,0.0,0.016521401703357697,-0.006008948665112257,-0.0041853622533380985,0.9994660019874573,-0.024443458765745163,-0.016324933618307114,0.0142921581864357
690.0,0.0,0.0,0.0,0.0,0.0,0.0,0.005236518103629351,-0.0016133827157318592,0.006193013396114111,0.9995849132537842,-0.01824946515262127,-0.018675433471798897,0.012163084000349045
691.0,0.0,0.0,0.0,0.0,0.0,0.0,-0.013294576667249203,-0.007183147128671408,0.030410965904593468,0.9997047185897827,-0.012010481208562851,-0.019055910408496857,0.009145047515630722
692.0,0.0,0.0,0.0,0.0,0.0,0.0,-0.0057235644198954105,-0.056617189198732376,-0.018710389733314514,0.9997602105140686,-0.007292147260159254,-0.01888752542436123,0.008375736884772778
693.0,0.0,0.0,0.0,0.0,0.0,0.0,-0.001720561645925045,-0.04194842278957367,-0.01638428121805191,0.9997991919517517,-0.003288313513621688,-0.017312033101916313,0.009543372318148613
694.0,0.0,0.0,0.0,0.0,0.0,0.0,-0.03719943389296532,-0.03896182402968407,0.030704908072948456,0.9998494386672974,-0.0035034052561968565,-0.013230529613792896,0.010683429427444935
695.0,0.0,0.0,0.0,0.0,0.0,0.0,-0.0015977747971192002,-0.06903646886348724,0.0011842780513688922,0.9998807311058044,-0.005253630690276623,-0.010059247724711895,0.010491800494492054
696.0,0.0,0.0,0.0,0.0,0.0,0.0,0.03244423866271973,-0.018507905304431915,-0.06464092433452606,0.9998720288276672,-0.0060155754908919334,-0.0097631411626935,0.01116135437041521
697.0,0.0,0.0,0.0,0.0,0.0,0.0,0.06261229515075684,-0.05163949355483055,-0.015515672974288464,0.9998470544815063,-0.007910609245300293,-0.010805132798850536,0.011256917379796505
698.0,0.0,0.0,0.0,0.0,0.0,0.0,0.01921580731868744,-0.03251836076378822,-0.020684361457824707,0.9998371601104736,-0.010619967244565487,-0.010951200500130653,0.009657839313149452
699.0,0.0,0.0,0.0,0.0,0.0,0.0,-0.003844442544505,-0.0010405356297269464,-0.04566777125000954,0.9998194575309753,-0.013650143519043922,-0.010883898474276066,0.0075070359744131565
700.0,0.0,0.0,0.0,0.0,0.0,0.0,0.051509082317352295,-0.03323604539036751,-0.003318010363727808,0.9997274875640869,-0.01845390908420086,-0.012784240767359734,0.006414583418518305
701.0,0.0,0.0,0.0,0.0,0.0,0.0,-0.004233727231621742,0.02041766792535782,0.015684304758906364,0.9996448159217834,-0.021730750799179077,-0.0145675428211689,0.005080217495560646
702.0,0.0,0.0,0.0,0.0,0.0,0.0,-0.0007414595456793904,0.01023669820278883,0.012837447226047516,0.999575138092041,-0.023558398708701134,-0.016415994614362717,0.005022397730499506
703.0,0.0,0.0,0.0,0.0,0.0,0.0,0.016141269356012344,-0.012085895985364914,0.012123693712055683,0.9994810819625854,-0.02630840241909027,-0.01806080900132656,0.0044229100458323956
704.0,0.0,0.0,0.0,0.0,0.0,0.0,0.008583162911236286,0.0017458060756325722,0.027187839150428772,0.999420702457428,-0.027437373995780945,-0.01997799426317215,0.00256663397885859
705.0,0.0,0.0,0.0,0.0,0.0,0.0,-0.0059018866159021854,-0.025979578495025635,-0.012814903631806374,0.9993088245391846,-0.02925676293671131,-0.022937657311558723,-0.00010672608914319426
706.0,0.0,0.0,0.0,0.0,0.0,0.0,-0.013203615322709084,-0.01595202647149563,-0.009364016354084015,0.9991632103919983,-0.03152270242571831,-0.02585720270872116,-0.0032579819671809673
707.0,0.0,0.0,0.0,0.0,0.0,0.0,-0.00017579112318344414,-0.02936520054936409,-0.021291108801960945,0.9989624619483948,-0.033918313682079315,-0.029971210286021233,-0.005059957038611174
708.0,0.0,0.0,0.0,0.0,0.0,0.0,-0.00824667327105999,-0.032873157411813736,-0.054539237171411514,0.9986953139305115,-0.03684370219707489,-0.034693747758865356,-0.006848395336419344
709.0,0.0,0.0,0.0,0.0,0.0,0.0,-0.007791017182171345,-0.009070942178368568,-0.049796126782894135,0.9982784986495972,-0.04191393777728081,-0.04037304222583771,-0.007298677694052458
710.0,0.0,0.0,0.0,0.0,0.0,0.0,-0.016834616661071777,0.031902480870485306,0.004925617482513189,0.9978437423706055,-0.04618266969919205,-0.04609837755560875,-0.007108340039849281
711.0,0.0,0.0,0.0,0.0,0.0,0.0,-0.06210353225469589,0.03950198367238045,0.04196643829345703,0.9974588751792908,-0.048961155116558075,-0.051494088023900986,-0.0052037909626960754
712.0,0.0,0.0,0.0,0.0,0.0,0.0,-0.0942603200674057,0.04126518592238426,0.017520148307085037,0.997301459312439,-0.048861537128686905,-0.054718583822250366,-0.0030140706803649664
713.0,0.0,0.0,0.0,0.0,0.0,0.0,-0.03795032203197479,-0.009271631017327309,-0.007930438034236431,0.9972603917121887,-0.04682941362261772,-0.057263001799583435,-0.00013414591376204044
714.0,0.0,0.0,0.0,0.0,0.0,0.0,-0.041820257902145386,0.03299010545015335,0.010638529434800148,0.9972794651985168,-0.04382752999663353,-0.059261783957481384,0.000879386265296489
715.0,0.0,0.0,0.0,0.0,0.0,0.0,-0.057995278388261795,0.03547307103872299,0.03350520506501198,0.9972965121269226,-0.04115842282772064,-0.06081937626004219,0.0026531328912824392
716.0,0.0,0.0,0.0,0.0,0.0,0.0,-0.05142650380730629,0.022915061563253403,0.027250537648797035,0.9973978400230408,-0.038013752549886703,-0.06118565797805786,0.00307161221280694
717.0,0.0,0.0,0.0,0.0,0.0,0.0,-0.03577076271176338,-0.029923954978585243,-0.021404176950454712,0.9974954128265381,-0.036870066076517105,-0.060275010764598846,0.0032387985847890377
718.0,0.0,0.0,0.0,0.0,0.0,0.0,-0.013289042748510838,-0.007349526043981314,-0.052766960114240646,0.9974923729896545,-0.037335969507694244,-0.059994492679834366,0.004021632019430399
719.0,0.0,0.0,0.0,0.0,0.0,0.0,0.017980169504880905,-0.021890508010983467,-0.01619558222591877,0.9973856210708618,-0.03934550657868385,-0.06031622737646103,0.006000959780067205
720.0,0.0,0.0,0.0,0.0,0.0,0.0,0.010165910236537457,-0.023893414065241814,-0.05437074974179268,0.9971835017204285,-0.043260905891656876,-0.0608968585729599,0.006726928520947695
721.0,0.0,0.0,0.0,0.0,0.0,0.0,-0.01936151646077633,-0.01223340630531311,-0.058853358030319214,0.9968974590301514,-0.0489325225353241,-0.06115659326314926,0.007832358591258526
722.0,0.0,0.0,0.0,0.0,0.0,0.0,-0.032673340290784836,-0.00015580184117425233,-0.040249165147542953,0.9965797662734985,-0.05492788553237915,-0.061088405549526215,0.008937066420912743
723.0,0.0,0.0,0.0,0.0,0.0,0.0,-0.03186127170920372,-0.001907100435346365,-0.061938799917697906,0.9962122440338135,-0.06067482382059097,-0.06128687784075737,0.011144016869366169
724.0,0.0,0.0,0.0,0.0,0.0,0.0,0.020999545231461525,0.03163263201713562,0.002788970246911049,0.9960691928863525,-0.060379207134246826,-0.06320168077945709,0.014367207884788513
725.0,0.0,0.0,0.0,0.0,0.0,0.0,-0.017661452293395996,0.042634762823581696,0.04537006467580795,0.996013879776001,-0.059234317392110825,-0.0639367327094078,0.01896311528980732
726.0,0.0,0.0,0.0,0.0,0.0,0.0,-0.02961566671729088,0.059139594435691833,0.03996865078806877,0.9960511326789856,-0.05792587995529175,-0.06352609395980835,0.022168602794408798
727.0,0.0,0.0,0.0,0.0,0.0,0.0,-0.013569420203566551,0.0362406000494957,0.04072955623269081,0.996326744556427,-0.0546531155705452,-0.061252254992723465,0.02438347041606903
728.0,0.0,0.0,0.0,0.0,0.0,0.0,-0.02468891069293022,-0.01096759457141161,0.008552459999918938,0.9965013265609741,-0.05405738577246666,-0.05729946866631508,0.027933429926633835
729.0,0.0,0.0,0.0,0.0,0.0,0.0,0.023989694193005562,-0.01777762547135353,-0.03780771419405937,0.996475100517273,-0.05451427400112152,-0.055284518748521805,0.03176553174853325
730.0,0.0,0.0,0.0,0.0,0.0,0.0,0.04222464561462402,-0.005902914796024561,-0.013441259041428566,0.996466875076294,-0.05222785472869873,-0.05543473735451698,0.035411395132541656
731.0,0.0,0.0,0.0,0.0,0.0,0.0,0.04386351630091667,0.013002091087400913,0.008816082961857319,0.9964395761489868,-0.05088266357779503,-0.05590926855802536,0.037326615303754807
732.0,0.0,0.0,0.0,0.0,0.0,0.0,0.03344307839870453,-0.01778167486190796,-0.03294520452618599,0.9962058067321777,-0.05132569745182991,-0.05695872753858566,0.04117599129676819
733.0,0.0,0.0,0.0,0.0,0.0,0.0,0.0472455732524395,0.014597850851714611,0.018370768055319786,0.9960249662399292,-0.04983833059668541,-0.05871767923235893,0.04476265609264374
734.0,0.0,0.0,0.0,0.0,0.0,0.0,-0.007439645007252693,-0.0008725278894416988,0.027161238715052605,0.9959324598312378,-0.05013558641076088,-0.05860879272222519,0.046582989394664764
735.0,0.0,0.0,0.0,0.0,0.0,0.0,0.013824095018208027,0.02036203257739544,0.002285837661474943,0.995833158493042,-0.050580382347106934,-0.058977317065000534,0.047753795981407166
736.0,0.0,0.0,0.0,0.0,0.0,0.0,0.054623186588287354,0.003959886729717255,0.03200110048055649,0.9956024289131165,-0.051918238401412964,-0.059386540204286575,0.05053450167179108
737.0,0.0,0.0,0.0,0.0,0.0,0.0,0.005784610286355019,0.03890908509492874,0.04611007124185562,0.9955219626426697,-0.052179113030433655,-0.05885541811585426,0.05245214328169823
738.0,0.0,0.0,0.0,0.0,0.0,0.0,0.009162317030131817,0.03167279064655304,0.04952199012041092,0.9955728054046631,-0.0507458858191967,-0.05850633978843689,0.05326242372393608
739.0,0.0,0.0,0.0,0.0,0.0,0.0,0.02222486585378647,0.013701949268579483,0.04506407305598259,0.9956989288330078,-0.04858262464404106,-0.057954203337430954,0.05351526290178299
740.0,0.0,0.0,0.0,0.0,0.0,0.0,0.021923571825027466,-0.006053365301340818,0.011008484289050102,0.9958692789077759,-0.0473611019551754,-0.05666700378060341,0.05283619835972786
741.0,0.0,0.0,0.0,0.0,0.0,0.0,0.02829957753419876,-0.002848784439265728,0.01033786591142416,0.9960231781005859,-0.047030940651893616,-0.05536038056015968,0.051587335765361786
742.0,0.0,0.0,0.0,0.0,0.0,0.0,0.029687579721212387,-0.003679018933326006,0.004242990631610155,0.9960646033287048,-0.04792571812868118,-0.0543091744184494,0.051090702414512634
743.0,0.0,0.0,0.0,0.0,0.0,0.0,0.03810833767056465,-0.017538119107484818,-0.017203686758875847,0.9961062669754028,-0.048851169645786285,-0.05367235094308853,0.050053298473358154
744.0,0.0,0.0,0.0,0.0,0.0,0.0,0.032255638390779495,-0.016830939799547195,-0.014692205935716629,0.9960764646530151,-0.0504777766764164,-0.05346953868865967,0.04924612492322922
745.0,0.0,0.0,0.0,0.0,0.0,0.0,0.021372299641370773,-0.010241015814244747,-0.005706048104912043,0.9960170984268188,-0.052387431263923645,-0.0534018874168396,0.04851793870329857
746.0,0.0,0.0,0.0,0.0,0.0,0.0,0.015948597341775894,-0.003220973303541541,-0.005383619572967291,0.9959759712219238,-0.0535733737051487,-0.05378209426999092,0.047628577798604965
747.0,0.0,0.0,0.0,0.0,0.0,0.0,0.014120207168161869,0.006719581782817841,0.015043232589960098,0.995908796787262,-0.054041117429733276,-0.054738953709602356,0.0474226176738739
748.0,0.0,0.0,0.0,0.0,0.0,0.0,0.004282980691641569,0.0014876129571348429,0.007241402752697468,0.9959433674812317,-0.05327673256397247,-0.05545584857463837,0.0467304065823555
749.0,0.0,0.0,0.0,0.0,0.0,0.0,0.00714696804061532,0.0041753556579351425,0.017612623050808907,0.9960358142852783,-0.05120815336704254,-0.05616170912981033,0.04623476788401604
750.0,0.0,0.0,0.0,0.0,0.0,0.0,0.008268008008599281,-0.00951464008539915,0.01226531807333231,0.9960690140724182,-0.04949313402175903,-0.0567830353975296,0.04662777855992317
751.0,0.0,0.0,0.0,0.0,0.0,0.0,-0.006955629680305719,-0.014696619473397732,0.0024311081506311893,0.9961457848548889,-0.04731990396976471,-0.05692794919013977,0.047061383724212646
752.0,0.0,0.0,0.0,0.0,0.0,0.0,-0.015143545344471931,-0.018914174288511276,0.015358656644821167,0.9961674809455872,-0.046003032475709915,-0.05708281323313713,0.0477137565612793
753.0,0.0,0.0,0.0,0.0,0.0,0.0,-0.016534119844436646,0.004469643346965313,0.008608995005488396,0.9962114691734314,-0.04493505880236626,-0.057393886148929596,0.04743363708257675
754.0,0.0,0.0,0.0,0.0,0.0,0.0,-0.007648990955203772,0.0016968883574008942,0.01091144047677517,0.9962305426597595,-0.04357646778225899,-0.05792651325464249,0.047648485749959946
755.0,0.0,0.0,0.0,0.0,0.0,0.0,-0.00860674399882555,-0.0378878116607666,-0.01759416237473488,0.9961997270584106,-0.04433272406458855,-0.0576305091381073,0.04794927313923836
756.0,0.0,0.0,0.0,0.0,0.0,0.0,-0.018763108178973198,-0.028603604063391685,-0.025047525763511658,0.9962685108184814,-0.04595688730478287,-0.05650099366903305,0.046323902904987335
757.0,0.0,0.0,0.0,0.0,0.0,0.0,-0.017486458644270897,-0.009650527499616146,-0.004205137956887484,0.9962587356567383,-0.048684507608413696,-0.05530017241835594,0.04517058655619621
758.0,0.0,0.0,0.0,0.0,0.0,0.0,0.006921110674738884,0.007822749204933643,-0.015540514141321182,0.9961239099502563,-0.05183284729719162,-0.055152591317892075,0.044821612536907196
759.0,0.0,0.0,0.0,0.0,0.0,0.0,0.023666733875870705,0.006456864066421986,-0.012405995279550552,0.9959430694580078,-0.05306677147746086,-0.05578170716762543,0.04657255858182907
760.0,0.0,0.0,0.0,0.0,0.0,0.0,0.0021022986620664597,-0.01408709492534399,-0.020076032727956772,0.9957366585731506,-0.053869977593421936,-0.05630342289805412,0.049373332411050797
761.0,0.0,0.0,0.0,0.0,0.0,0.0,-0.003660667221993208,0.014134131371974945,0.024402976036071777,0.9955936670303345,-0.05411688983440399,-0.0574304461479187,0.05066952854394913
762.0,0.0,0.0,0.0,0.0,0.0,0.0,-0.00893443077802658,0.018421374261379242,0.031272388994693756,0.9955352544784546,-0.05366069823503494,-0.05827965959906578,0.051324620842933655
763.0,0.0,0.0,0.0,0.0,0.0,0.0,-0.007723379880189896,0.010114919394254684,0.0188786331564188,0.995490550994873,-0.052588362246751785,-0.05912332609295845,0.052327558398246765
764.0,0.0,0.0,0.0,0.0,0.0,0.0,-0.017329443246126175,0.01920422352850437,0.0391550287604332,0.9955042600631714,-0.051012590527534485,-0.05979360267519951,0.052868977189064026
765.0,0.0,0.0,0.0,0.0,0.0,0.0,-0.01692843809723854,0.0096306586638093,0.026849692687392235,0.9955692291259766,-0.04857903718948364,-0.06090399622917175,0.05266067758202553
766.0,0.0,0.0,0.0,0.0,0.0,0.0,-0.009816380217671394,0.00706962775439024,0.014716831967234612,0.9956375956535339,-0.045662976801395416,-0.06217668950557709,0.0524870827794075
767.0,0.0,0.0,0.0,0.0,0.0,0.0,-0.02017318084836006,-0.012475376017391682,0.01556589175015688,0.9957536458969116,-0.042589519172906876,-0.06221389025449753,0.0528191402554512
768.0,0.0,0.0,0.0,0.0,0.0,0.0,-0.011106734164059162,-0.03158463537693024,-0.014011920429766178,0.9959073662757874,-0.04033208265900612,-0.0619722455739975,0.051977187395095825
769.0,0.0,0.0,0.0,0.0,0.0,0.0,0.0013434889260679483,-0.033102940768003464,-0.03351866453886032,0.9960356950759888,-0.03861362487077713,-0.06127973273396492,0.051647357642650604
770.0,0.0,0.0,0.0,0.0,0.0,0.0,0.0044469633139669895,-0.022016268223524094,-0.02201269194483757,0.9960924983024597,-0.037128325551748276,-0.06121273711323738,0.05171385779976845
771.0,0.0,0.0,0.0,0.0,0.0,0.0,-0.00047042040387168527,-0.02963424287736416,-0.020345570519566536,0.996161937713623,-0.036325886845588684,-0.06106781214475632,0.05111115798354149
772.0,0.0,0.0,0.0,0.0,0.0,0.0,-4.311535303713754e-05,-0.013936154544353485,-0.030373236164450645,0.996283233165741,-0.034821994602680206,-0.06110513210296631,0.04973297938704491
773.0,0.0,0.0,0.0,0.0,0.0,0.0,0.004698611795902252,-0.00395348621532321,0.008429867215454578,0.9964028596878052,-0.03287465125322342,-0.06136434152722359,0.04833294078707695
774.0,0.0,0.0,0.0,0.0,0.0,0.0,2.1577923689619638e-05,-0.019777361303567886,-0.021643245592713356,0.9964300394058228,-0.031381458044052124,-0.06195157393813133,0.04800788685679436
775.0,0.0,0.0,0.0,0.0,0.0,0.0,0.014041140675544739,-0.03747867792844772,-0.025148989632725716,0.9964585304260254,-0.029143378138542175,-0.06300437450408936,0.04746117815375328
776.0,0.0,0.0,0.0,0.0,0.0,0.0,0.0061689033173024654,-0.026550330221652985,-0.00930391438305378,0.9964760541915894,-0.02683737315237522,-0.06433603167533875,0.0466466061770916
777.0,0.0,0.0,0.0,0.0,0.0,0.0,0.00825878232717514,-0.018193013966083527,-0.0185923483222723,0.9963705539703369,-0.026244264096021652,-0.06522055715322495,0.047996681183576584
778.0,0.0,0.0,0.0,0.0,0.0,0.0,0.021972889080643654,-0.033150553703308105,-0.02358454093337059,0.9960678815841675,-0.02755134552717209,-0.06687793880701065,0.05116391181945801
779.0,0.0,0.0,0.0,0.0,0.0,0.0,0.01752161607146263,-0.0029077050276100636,-0.0032321009784936905,0.9957420229911804,-0.028695981949567795,-0.06921420246362686,0.053703103214502335
780.0,0.0,0.0,0.0,0.0,0.0,0.0,-0.010394821874797344,0.03545580059289932,0.031229905784130096,0.9955180287361145,-0.02913297526538372,-0.0706428587436676,0.05573485046625137
781.0,0.0,0.0,0.0,0.0,0.0,0.0,-0.009031658992171288,0.01999267190694809,0.018616847693920135,0.9953848123550415,-0.02901611290872097,-0.0714862197637558,0.05707002058625221
782.0,0.0,0.0,0.0,0.0,0.0,0.0,0.012060768902301788,0.0019864642526954412,-0.00549108674749732,0.995199978351593,-0.02861150912940502,-0.0728190690279007,0.05878787487745285
783.0,0.0,0.0,0.0,0.0,0.0,0.0,0.002344723790884018,0.020601212978363037,0.009688334539532661,0.9949942827224731,-0.027683155611157417,-0.07451069355010986,0.060564059764146805
784.0,0.0,0.0,0.0,0.0,0.0,0.0,-0.0017865438712760806,0.00865484494715929,0.01032948587089777,0.9947687387466431,-0.02693498693406582,-0.07615838944911957,0.06252347677946091
785.0,0.0,0.0,0.0,0.0,0.0,0.0,-0.0002218495646957308,-0.005795542616397142,-0.011285609565675259,0.9945725202560425,-0.026663148775696754,-0.07761522382497787,0.0639556497335434
786.0,0.0,0.0,0.0,0.0,0.0,0.0,0.0007529380964115262,0.00820823572576046,0.00037398419226519763,0.9944332838058472,-0.025589585304260254,-0.07934357225894928,0.06444313377141953
787.0,0.0,0.0,0.0,0.0,0.0,0.0,-0.006335428450256586,0.029263751581311226,0.01719004660844803,0.9943509101867676,-0.024023955687880516,-0.08072159439325333,0.06460727006196976
788.0,0.0,0.0,0.0,0.0,0.0,0.0,-0.009872243739664555,0.02232954278588295,0.020694026723504066,0.9942545294761658,-0.022543521597981453,-0.08204011619091034,0.06496923416852951
789.0,0.0,0.0,0.0,0.0,0.0,0.0,-0.0024607477243989706,0.00846270564943552,0.01107066497206688,0.9942119717597961,-0.02133691869676113,-0.08302973955869675,0.06475716829299927
790.0,0.0,0.0,0.0,0.0,0.0,0.0,-0.008027581498026848,0.01893933117389679,0.01219893153756857,0.994149923324585,-0.020361369475722313,-0.0839269608259201,0.06486927717924118
791.0,0.0,0.0,0.0,0.0,0.0,0.0,-0.01519904937595129,0.026887599378824234,0.032175213098526,0.9941175580024719,-0.0192111749202013,-0.08474645018577576,0.0646560862660408
792.0,0.0,0.0,0.0,0.0,0.0,0.0,-0.011248260736465454,0.02275783009827137,0.013615318574011326,0.99419105052948,-0.01809636875987053,-0.08477673679590225,0.06380585581064224
793.0,0.0,0.0,0.0,0.0,0.0,0.0,0.0007967216079123318,0.010799265466630459,0.004362394567579031,0.9942917823791504,-0.016876915469765663,-0.08459389954805374,0.06278861314058304
794.0,0.0,0.0,0.0,0.0,0.0,0.0,-0.00021189330436754972,0.015454404056072235,0.0018573431298136711,0.9943602681159973,-0.01589958369731903,-0.08456175029277802,0.06200098991394043
795.0,0.0,0.0,0.0,0.0,0.0,0.0,-0.0007309794891625643,0.0179152749478817,0.005732154008001089,0.9944486618041992,-0.014753519557416439,-0.0846475139260292,0.060736559331417084
796.0,0.0,0.0,0.0,0.0,0.0,0.0,-0.005576929543167353,0.013493793085217476,0.0003289319574832916,0.9944761991500854,-0.013453558087348938,-0.08504455536603928,0.060030777007341385
797.0,0.0,0.0,0.0,0.0,0.0,0.0,-0.005715889856219292,0.005864756181836128,-0.026371488347649574,0.9945319890975952,-0.012290310114622116,-0.0849701315164566,0.05946262925863266
798.0,0.0,0.0,0.0,0.0,0.0,0.0,-0.010107493959367275,0.015336371026933193,-0.005713422782719135,0.9946516156196594,-0.011607484892010689,-0.08439263701438904,0.058412108570337296
799.0,0.0,0.0,0.0,0.0,0.0,0.0,-0.01997186616063118,0.02303766831755638,0.01793999969959259,0.9947085976600647,-0.01137723308056593,-0.08407562226057053,0.05794026702642441
800.0,0.0,0.0,0.0,0.0,0.0,0.0,-0.013276485726237297,0.027349308133125305,0.016001397743821144,0.9948533773422241,-0.010458252392709255,-0.08352044224739075,0.056414056569337845
801.0,0.0,0.0,0.0,0.0,0.0,0.0,-0.014650077559053898,0.004392637871205807,0.0033233389258384705,0.9949954152107239,-0.010620776563882828,-0.08278699219226837,0.054936692118644714
802.0,0.0,0.0,0.0,0.0,0.0,0.0,-0.01970604993402958,-0.0006709406152367592,-0.011294747702777386,0.9952070116996765,-0.010956257581710815,-0.08180360496044159,0.05245666578412056
803.0,0.0,0.0,0.0,0.0,0.0,0.0,-0.014420507475733757,0.015654804185032845,0.00977417454123497,0.9955026507377625,-0.010942411608994007,-0.08037754893302917,0.048934850841760635
804.0,0.0,0.0,0.0,0.0,0.0,0.0,-0.0031817336566746235,0.0035207148175686598,0.000952910864725709,0.9957836270332336,-0.010377936996519566,-0.0790213942527771,0.045421358197927475
805.0,0.0,0.0,0.0,0.0,0.0,0.0,0.002272150246426463,-0.01695019192993641,-0.0242468174546957,0.995984673500061,-0.01026856154203415,-0.07840295135974884,0.04197777807712555
806.0,0.0,0.0,0.0,0.0,0.0,0.0,0.004168237559497356,-0.0026611608918756247,0.007114846725016832,0.9962812066078186,-0.010240558534860611,-0.07708363234996796,0.037110425531864166
807.0,0.0,0.0,0.0,0.0,0.0,0.0,-0.005986768286675215,-0.023448780179023743,-0.006813827436417341,0.9965223073959351,-0.011265916749835014,-0.07552526891231537,0.033360082656145096
808.0,0.0,0.0,0.0,0.0,0.0,0.0,0.0191059373319149,-0.05535190552473068,-0.053245753049850464,0.996666431427002,-0.01363314688205719,-0.07424607127904892,0.03096221573650837
809.0,0.0,0.0,0.0,0.0,0.0,0.0,0.030965028330683708,-0.046311162412166595,-0.02174164541065693,0.996687114238739,-0.017734307795763016,-0.07369275391101837,0.029493331909179688
810.0,0.0,0.0,0.0,0.0,0.0,0.0,0.0032634343951940536,-0.004820752888917923,0.005926394369453192,0.9966327548027039,-0.021869271993637085,-0.07366463541984558,0.028608419001102448
811.0,0.0,0.0,0.0,0.0,0.0,0.0,0.006155948154628277,-0.00784737803041935,0.008272857405245304,0.9965680837631226,-0.02448117546737194,-0.07370150089263916,0.02866342104971409
812.0,0.0,0.0,0.0,0.0,0.0,0.0,-0.006154025439172983,-0.002310940995812416,0.009901789017021656,0.9965563416481018,-0.02646557241678238,-0.07346050441265106,0.027905071154236794
813.0,0.0,0.0,0.0,0.0,0.0,0.0,-0.025168664753437042,0.003687476273626089,0.008576570078730583,0.996556282043457,-0.02796204760670662,-0.07328489422798157,0.026904776692390442
814.0,0.0,0.0,0.0,0.0,0.0,0.0,-0.026536615565419197,0.011842017993330956,0.004957437515258789,0.996685266494751,-0.027600524947047234,-0.07231409102678299,0.025050997734069824
815.0,0.0,0.0,0.0,0.0,0.0,0.0,-0.006981167942285538,-0.018538832664489746,-0.007163787726312876,0.996866762638092,-0.026949668303132057,-0.07073649019002914,0.022950563579797745
816.0,0.0,0.0,0.0,0.0,0.0,0.0,0.007989486679434776,-0.03224559128284454,-0.02290743589401245,0.9969671368598938,-0.026751628145575523,-0.0696033388376236,0.022275539115071297
817.0,0.0,0.0,0.0,0.0,0.0,0.0,0.0002105869207298383,-0.018534770235419273,-0.02095124125480652,0.9970687031745911,-0.027198119089007378,-0.06810954958200455,0.02181791514158249
818.0,0.0,0.0,0.0,0.0,0.0,0.0,-0.008952867239713669,-0.006346001289784908,-0.0041081407107412815,0.9972206354141235,-0.026238994672894478,-0.06636296957731247,0.021421270444989204
819.0,0.0,0.0,0.0,0.0,0.0,0.0,-0.005084574688225985,-0.010943043977022171,0.001729711308144033,0.997348964214325,-0.024860424920916557,-0.06498734652996063,0.021312227472662926
820.0,0.0,0.0,0.0,0.0,0.0,0.0,-0.003961996175348759,-0.015456444583833218,-0.011776242405176163,0.997523307800293,-0.0234166719019413,-0.06300227344036102,0.020725155249238014
821.0,0.0,0.0,0.0,0.0,0.0,0.0,-0.004369718953967094,-0.007723129354417324,-0.0026148869656026363,0.9977046251296997,-0.02266753651201725,-0.060549478977918625,0.020154517143964767
822.0,0.0,0.0,0.0,0.0,0.0,0.0,0.00023505909484811127,-0.0032018152996897697,-0.001144641195423901,0.9978640675544739,-0.022216089069843292,-0.05830679088830948,0.019353291019797325
823.0,0.0,0.0,0.0,0.0,0.0,0.0,0.007653286214917898,-0.020657213404774666,-0.012160775251686573,0.9979580044746399,-0.021634545177221298,-0.056800127029418945,0.0196272823959589
824.0,0.0,0.0,0.0,0.0,0.0,0.0,0.002746741520240903,-0.010082299821078777,-0.00809516105800867,0.998058557510376,-0.021501414477825165,-0.05485669896006584,0.020188985392451286
825.0,0.0,0.0,0.0,0.0,0.0,0.0,-0.011562786996364594,0.002463841810822487,0.0037704023998230696,0.9981836080551147,-0.020753372460603714,-0.05292884632945061,0.019946254789829254
826.0,0.0,0.0,0.0,0.0,0.0,0.0,-0.013155362568795681,0.01878884993493557,0.01952541433274746,0.9983219504356384,-0.019623661413788795,-0.05075357109308243,0.019804799929261208
827.0,0.0,0.0,0.0,0.0,0.0,0.0,-0.015017027966678143,0.013894150033593178,0.009450492449104786,0.9984423518180847,-0.01835857704281807,-0.048354316502809525,0.020935559645295143
828.0,0.0,0.0,0.0,0.0,0.0,0.0,-0.016881844028830528,0.009699754416942596,0.003052110318094492,0.9985901713371277,-0.016344008967280388,-0.04618389531970024,0.020442523062229156
829.0,0.0,0.0,0.0,0.0,0.0,0.0,-0.024845683947205544,0.01942753605544567,0.01668788492679596,0.9987340569496155,-0.014314359985291958,-0.04432255029678345,0.018998607993125916
830.0,0.0,0.0,0.0,0.0,0.0,0.0,-0.03112618997693062,0.006220982410013676,-0.005301235243678093,0.9988847970962524,-0.012031127698719501,-0.04186810180544853,0.018223725259304047
831.0,0.0,0.0,0.0,0.0,0.0,0.0,-0.010531320236623287,-0.011699912138283253,-0.020977642387151718,0.9990024566650391,-0.009569492191076279,-0.03979745879769325,0.017854785546660423
832.0,0.0,0.0,0.0,0.0,0.0,0.0,-0.011327873915433884,-0.015136947855353355,-0.02575044333934784,0.9990571141242981,-0.008770743384957314,-0.03857759013772011,0.017888961359858513
833.0,0.0,0.0,0.0,0.0,0.0,0.0,-0.021534524857997894,0.0061532557010650635,0.002439959207549691,0.999096155166626,-0.007360237184911966,-0.03801119327545166,0.01755344867706299
834.0,0.0,0.0,0.0,0.0,0.0,0.0,-0.01933877542614937,-0.01681717298924923,-0.024956194683909416,0.9990774989128113,-0.006404947955161333,-0.03827308863401413,0.018393464386463165
835.0,0.0,0.0,0.0,0.0,0.0,0.0,-0.0031659610103815794,-0.012248273938894272,-0.015155887231230736,0.9990042448043823,-0.006368773058056831,-0.03954559937119484,0.01966799423098564
836.0,0.0,0.0,0.0,0.0,0.0,0.0,-0.020011218264698982,-0.004975151736289263,0.004180045798420906,0.9989262819290161,-0.0073032802902162075,-0.04063694551587105,0.021021101623773575
837.0,0.0,0.0,0.0,0.0,0.0,0.0,-0.03018779493868351,-0.010975634679198265,0.0016666093142703176,0.9988651275634766,-0.009680869989097118,-0.04118708148598671,0.021876061335206032
838.0,0.0,0.0,0.0,0.0,0.0,0.0,-0.007647337391972542,-0.012645328417420387,-0.0040307664312422276,0.9987592101097107,-0.01368732750415802,-0.04204730689525604,0.02292439714074135
839.0,0.0,0.0,0.0,0.0,0.0,0.0,0.002754777669906616,-0.018289074301719666,-0.004892842378467321,0.9986373782157898,-0.01700415275990963,-0.04331023991107941,0.023641398176550865
840.0,0.0,0.0,0.0,0.0,0.0,0.0,0.002942006103694439,-0.012284228578209877,-0.009132678620517254,0.9984346032142639,-0.02159791626036167,-0.04509928822517395,0.025068286806344986
841.0,0.0,0.0,0.0,0.0,0.0,0.0,0.006559267640113831,0.0025600558146834373,-0.011912969872355461,0.9982439279556274,-0.02533820830285549,-0.04645383358001709,0.026632238179445267
842.0,0.0,0.0,0.0,0.0,0.0,0.0,0.007506039459258318,0.002875732723623514,0.007322814781218767,0.9980607032775879,-0.028803132474422455,-0.04789353162050247,0.027425212785601616
843.0,0.0,0.0,0.0,0.0,0.0,0.0,0.0035058429930359125,0.016479572281241417,0.02577328309416771,0.9978792667388916,-0.03213542699813843,-0.0494658425450325,0.027535058557987213
844.0,0.0,0.0,0.0,0.0,0.0,0.0,-0.01825793832540512,0.009680183604359627,0.025889649987220764,0.9977412223815918,-0.03386728838086128,-0.05093354731798172,0.027773406356573105
845.0,0.0,0.0,0.0,0.0,0.0,0.0,-0.011428569443523884,0.003985580988228321,0.010575538501143456,0.9976174235343933,-0.03503997251391411,-0.052821557968854904,0.027248525992035866
846.0,0.0,0.0,0.0,0.0,0.0,0.0,-0.007399480324238539,0.002616717480123043,0.02228429913520813,0.9975143074989319,-0.035304028540849686,-0.05518617480993271,0.025980638340115547
847.0,0.0,0.0,0.0,0.0,0.0,0.0,-0.02471100725233555,-0.003612708067521453,0.010301238857209682,0.9974117875099182,-0.036034081131219864,-0.05668863654136658,0.02565266750752926
848.0,0.0,0.0,0.0,0.0,0.0,0.0,-0.02339813858270645,-0.008128469809889793,-0.004383532330393791,0.9973125457763672,-0.03736250475049019,-0.05785595253109932,0.02500757947564125
849.0,0.0,0.0,0.0,0.0,0.0,0.0,-0.00793824065476656,-0.00960149522870779,-0.002120334655046463,0.997242271900177,-0.03710241615772247,-0.05966053158044815,0.023932063952088356
850.0,0.0,0.0,0.0,0.0,0.0,0.0,-0.01742495968937874,-0.00791918858885765,-0.014545194804668427,0.9971619248390198,-0.0368136502802372,-0.06167543679475784,0.022560758516192436
851.0,0.0,0.0,0.0,0.0,0.0,0.0,-0.0134292496368289,-0.00012041241279803216,-0.008155107498168945,0.9970799684524536,-0.03616498410701752,-0.06380586326122284,0.021304655820131302
852.0,0.0,0.0,0.0,0.0,0.0,0.0,-0.005438548978418112,-0.004304378293454647,-0.006668859627097845,0.9969579577445984,-0.03535778820514679,-0.06603286415338516,0.021553756669163704
853.0,0.0,0.0,0.0,0.0,0.0,0.0,0.002799557289108634,-0.00030464326846413314,-0.014193279668688774,0.9968055486679077,-0.034812081605196,-0.06828749924898148,0.022444676607847214
854.0,0.0,0.0,0.0,0.0,0.0,0.0,0.01250561885535717,0.010382437147200108,0.010741648264229298,0.9965962171554565,-0.034078605473041534,-0.07140427082777023,0.023157406598329544
855.0,0.0,0.0,0.0,0.0,0.0,0.0,-0.008939852006733418,0.01661166176199913,0.005384817253798246,0.9963704943656921,-0.03310002014040947,-0.07443692535161972,0.024687090888619423
856.0,0.0,0.0,0.0,0.0,0.0,0.0,0.003716601524502039,0.032088518142700195,0.021392734721302986,0.9961395263671875,-0.03130307048559189,-0.07751315087080002,0.026813790202140808
857.0,0.0,0.0,0.0,0.0,0.0,0.0,0.003354324260726571,0.026775753125548363,0.033194754272699356,0.9959417581558228,-0.029298193752765656,-0.0800151377916336,0.028972452506422997
858.0,0.0,0.0,0.0,0.0,0.0,0.0,-0.01750657893717289,0.035538822412490845,0.0355561226606369,0.9958900213241577,-0.026707546785473824,-0.08126049488782883,0.02978598140180111
859.0,0.0,0.0,0.0,0.0,0.0,0.0,-0.008651082403957844,0.01954590529203415,0.04649108275771141,0.9959076046943665,-0.023380501195788383,-0.08186829090118408,0.030325256288051605
860.0,0.0,0.0,0.0,0.0,0.0,0.0,-0.011920655146241188,0.0006730321329087019,0.01587795652449131,0.9960055947303772,-0.02034447342157364,-0.08143044263124466,0.030468381941318512
861.0,0.0,0.0,0.0,0.0,0.0,0.0,-0.010187223553657532,0.00122670060954988,0.02618359588086605,0.9961236715316772,-0.017996428534388542,-0.08059560507535934,0.030300147831439972
862.0,0.0,0.0,0.0,0.0,0.0,0.0,-0.015371019020676613,-0.0016487198881804943,0.03454037010669708,0.9963150024414062,-0.01518995314836502,-0.07925214618444443,0.029081307351589203
863.0,0.0,0.0,0.0,0.0,0.0,0.0,-0.03436598554253578,-0.023554248735308647,-0.0071951160207390785,0.9966195821762085,-0.01283873338252306,-0.0767270028591156,0.02642376720905304
864.0,0.0,0.0,0.0,0.0,0.0,0.0,-0.031002484261989594,-0.012968640774488449,-0.010753034614026546,0.9969354867935181,-0.010283757001161575,-0.07371170818805695,0.02410179376602173
865.0,0.0,0.0,0.0,0.0,0.0,0.0,-0.015422748401761055,-0.023972034454345703,-0.006347416900098324,0.9972445964813232,-0.00927182286977768,-0.06994938850402832,0.02291487343609333
866.0,0.0,0.0,0.0,0.0,0.0,0.0,-0.02055111527442932,-0.021495157852768898,-0.035267069935798645,0.9975740909576416,-0.009252536110579967,-0.06570742279291153,0.021053386852145195
867.0,0.0,0.0,0.0,0.0,0.0,0.0,0.012256994843482971,-0.02259519323706627,-0.03280355781316757,0.997821569442749,-0.010204117745161057,-0.0621638149023056,0.01958242431282997
868.0,0.0,0.0,0.0,0.0,0.0,0.0,0.006737501826137304,-0.019900821149349213,-0.04043465852737427,0.9980369210243225,-0.010699047707021236,-0.059031106531620026,0.018001839518547058
869.0,0.0,0.0,0.0,0.0,0.0,0.0,0.0005694857682101429,0.008110474795103073,-0.020948735997080803,0.99821937084198,-0.010863080620765686,-0.05662990361452103,0.015275471843779087
870.0,0.0,0.0,0.0,0.0,0.0,0.0,0.034335579723119736,-0.00803894829005003,-0.03546937182545662,0.9982865452766418,-0.010872732847929,-0.05563876032829285,0.014503022655844688
871.0,0.0,0.0,0.0,0.0,0.0,0.0,0.04058559611439705,-0.005980635993182659,-0.027601411566138268,0.9982308149337769,-0.010753936134278774,-0.05650891363620758,0.015070339664816856
872.0,0.0,0.0,0.0,0.0,0.0,0.0,0.01950155384838581,0.011297539807856083,0.0037178255151957273,0.9982097744941711,-0.009046782739460468,-0.057310741394758224,0.01452622003853321
873.0,0.0,0.0,0.0,0.0,0.0,0.0,0.0005964144947938621,0.03032582439482212,0.03886890038847923,0.998253345489502,-0.0050869532860815525,-0.05724000930786133,0.013735287822782993
874.0,0.0,0.0,0.0,0.0,0.0,0.0,0.007984953932464123,-0.029812932014465332,-0.012967083603143692,0.9983183741569519,-0.005417767912149429,-0.056121718138456345,0.013511448167264462
875.0,0.0,0.0,0.0,0.0,0.0,0.0,0.0184236541390419,-0.06384890526533127,-0.0904109999537468,0.9983131289482117,-0.011096837930381298,-0.05531400442123413,0.013734807260334492
876.0,0.0,0.0,0.0,0.0,0.0,0.0,0.02586681768298149,0.00016335234977304935,-0.022175971418619156,0.9982473254203796,-0.016514092683792114,-0.05518022179603577,0.013633275404572487
877.0,0.0,0.0,0.0,0.0,0.0,0.0,-0.004492959473282099,0.10165297240018845,0.09122658520936966,0.9981884956359863,-0.01870894990861416,-0.055573560297489166,0.013516686856746674
878.0,0.0,0.0,0.0,0.0,0.0,0.0,0.0008046332513913512,0.06852350383996964,0.041177280247211456,0.9981866478919983,-0.017582906410098076,-0.0559699572622776,0.013474862091243267
879.0,0.0,0.0,0.0,0.0,0.0,0.0,0.0025826888158917427,0.05411088094115257,0.06809302419424057,0.9982965588569641,-0.013755039311945438,-0.05552178993821144,0.011562271043658257
880.0,0.0,0.0,0.0,0.0,0.0,0.0,-0.01024478580802679,0.026412976905703545,0.07508190721273422,0.9983970522880554,-0.00947580672800541,-0.05458227917551994,0.011629508808255196
881.0,0.0,0.0,0.0,0.0,0.0,0.0,0.00799242127686739,-0.00163686228916049,0.016750851646065712,0.99849534034729,-0.005522338207811117,-0.05343624949455261,0.01105767022818327
882.0,0.0,0.0,0.0,0.0,0.0,0.0,0.017148876562714577,-0.04106279835104942,-0.0023374396841973066,0.9985647201538086,-0.002624367829412222,-0.052768003195524216,0.008809388615190983
