,Position_X,Position_Y,Position_Z,Velocity_X,Velocity_Y,Velocity_Z,Acceleration_X,Acceleration_Y,Acceleration_Z,Quaterion_0,Quaterion_1,Quaterion_2,Quaterion_3
207.0,0.0,0.0,0.0,0.0,0.0,0.0,-0.07106383889913559,0.012650460004806519,-0.008196815848350525,1.0,1.3877787807814457e-17,-1.734723475976807e-17,4.163336342344337e-17
208.0,0.0,0.0,0.0,0.0,0.0,0.0,-0.04628556966781616,-0.013984108343720436,-0.01495729573071003,0.9999987483024597,-0.0007100821821950376,-0.0013724989257752895,0.00026623072335496545
209.0,0.0,0.0,0.0,0.0,0.0,0.0,-0.04827664792537689,-0.03937537223100662,-0.013929810374975204,0.9999940395355225,-0.0025909901596605778,-0.002230921061709523,-0.0004551227611955255
210.0,0.0,0.0,0.0,0.0,0.0,0.0,-0.0401996448636055,0.0015136889414861798,-0.014178447425365448,0.999990701675415,-0.0029472599271684885,-0.0030503517482429743,-0.0007620370597578585
211.0,0.0,0.0,0.0,0.0,0.0,0.0,-0.04273226112127304,0.005925253964960575,-0.018977923318743706,0.9999788999557495,-0.00456412835046649,-0.0013818562729284167,-0.004410573281347752
212.0,0.0,0.0,0.0,0.0,0.0,0.0,-0.06649567931890488,0.018143413588404655,0.001019229064695537,0.999975860118866,-0.003685206640511751,-0.002361395861953497,-0.005401519127190113
213.0,0.0,0.0,0.0,0.0,0.0,0.0,-0.07101250439882278,0.007719605695456266,0.006146386731415987,0.9999645948410034,-0.003994332626461983,-0.001630312530323863,-0.007227509282529354
214.0,0.0,0.0,0.0,0.0,0.0,0.0,-0.07387016713619232,0.01857045479118824,0.003911001142114401,0.9999616742134094,-0.0034709989558905363,-0.001423952984623611,-0.007911622524261475
215.0,0.0,0.0,0.0,0.0,0.0,0.0,-0.0781671404838562,0.04419046267867088,0.010295183397829533,0.9999675154685974,-0.0010210801847279072,-0.0018777409568428993,-0.007772192358970642
216.0,0.0,0.0,0.0,0.0,0.0,0.0,-0.06987662613391876,0.03582874312996864,0.004592702724039555,0.9999660849571228,0.0021666160319000483,-0.0021464519668370485,-0.007647390477359295
217.0,0.0,0.0,0.0,0.0,0.0,0.0,-0.04646714776754379,0.009963810443878174,-0.00937013328075409,0.9999591112136841,0.005104779731482267,-0.0024203495122492313,-0.0070592002011835575
218.0,0.0,0.0,0.0,0.0,0.0,0.0,-0.0314113050699234,-0.024933630600571632,-0.018672414124011993,0.999952495098114,0.005958363879472017,-0.0010932195000350475,-0.007638976909220219
219.0,0.0,0.0,0.0,0.0,0.0,0.0,-0.02847376838326454,-0.0159892775118351,-0.02297760173678398,0.9999396204948425,0.006881029345095158,-0.00010488789848750457,-0.00856633111834526
220.0,0.0,0.0,0.0,0.0,0.0,0.0,-0.033214271068573,-0.0033784762490540743,-0.014277186244726181,0.9999220371246338,0.00787384808063507,-0.00021103149629198015,-0.009691035374999046
221.0,0.0,0.0,0.0,0.0,0.0,0.0,-0.0455881766974926,0.013568615540862083,-0.001381519017741084,0.9999176859855652,0.008515463210642338,-0.000845767033752054,-0.009562755934894085
222.0,0.0,0.0,0.0,0.0,0.0,0.0,-0.056176263839006424,0.03130276873707771,0.0054552191868424416,0.9999123215675354,0.009124396368861198,-0.0015645333332940936,-0.009468894451856613
223.0,0.0,0.0,0.0,0.0,0.0,0.0,-0.058185286819934845,0.027114972472190857,0.0076736262999475,0.999901533126831,0.009265302680432796,-0.0024902871809899807,-0.010242330841720104
224.0,0.0,0.0,0.0,0.0,0.0,0.0,-0.05826006829738617,0.01915743388235569,0.010450162924826145,0.9998876452445984,0.009321717545390129,-0.0036203910131007433,-0.011164058931171894
225.0,0.0,0.0,0.0,0.0,0.0,0.0,-0.06110420823097229,0.023634158074855804,0.010635540820658207,0.999876081943512,0.009733126498758793,-0.004509538412094116,-0.01152137853205204
226.0,0.0,0.0,0.0,0.0,0.0,0.0,-0.0639372318983078,0.02489662729203701,0.00890131015330553,0.9998652935028076,0.010485507547855377,-0.005317199509590864,-0.011454875580966473
227.0,0.0,0.0,0.0,0.0,0.0,0.0,-0.0593678280711174,0.013643239624798298,0.0025361625012010336,0.9998531341552734,0.010994009673595428,-0.005554656032472849,-0.01191768515855074
228.0,0.0,0.0,0.0,0.0,0.0,0.0,-0.05342751368880272,0.004593913443386555,-0.004723122343420982,0.9998382925987244,0.011564718559384346,-0.005803305190056562,-0.012488552369177341
229.0,0.0,0.0,0.0,0.0,0.0,0.0,-0.04554416239261627,-0.0006323374109342694,-0.009905111975967884,0.9998270869255066,0.012213259935379028,-0.005567585583776236,-0.012872794643044472
230.0,0.0,0.0,0.0,0.0,0.0,0.0,-0.04292869195342064,0.0019213766790926456,-0.011494029313325882,0.9998204708099365,0.0126798702403903,-0.00523433368653059,-0.013068340718746185
231.0,0.0,0.0,0.0,0.0,0.0,0.0,-0.03852514550089836,0.011796572245657444,-0.01293553039431572,0.9998275637626648,0.012856901623308659,-0.0047890800051391125,-0.012516174465417862
232.0,0.0,0.0,0.0,0.0,0.0,0.0,-0.02918676845729351,0.01889355108141899,-0.017537584528326988,0.9998378753662109,0.012996859848499298,-0.004350608214735985,-0.011679853312671185
233.0,0.0,0.0,0.0,0.0,0.0,0.0,-0.02419760450720787,0.010972106829285622,-0.020833682268857956,0.9998387098312378,0.013521634973585606,-0.0045976294204592705,-0.010892101563513279
234.0,0.0,0.0,0.0,0.0,0.0,0.0,-0.021549949422478676,0.004129738546907902,-0.02135027013719082,0.9998348355293274,0.014238670468330383,-0.0055308290757238865,-0.009849708527326584
235.0,0.0,0.0,0.0,0.0,0.0,0.0,-0.025777479633688927,0.0021895314566791058,-0.016044607385993004,0.9998287558555603,0.014709063805639744,-0.007108855526894331,-0.008700706996023655
236.0,0.0,0.0,0.0,0.0,0.0,0.0,-0.032323651015758514,-0.003586271544918418,-0.010879069566726685,0.999822199344635,0.014718083664774895,-0.008895023725926876,-0.007743045687675476
237.0,0.0,0.0,0.0,0.0,0.0,0.0,-0.036693114787340164,-0.01039739791303873,-0.006757031194865704,0.9998122453689575,0.014616073109209538,-0.01098543405532837,-0.0064214845187962055
238.0,0.0,0.0,0.0,0.0,0.0,0.0,-0.04021422564983368,-0.0006674317992292345,0.0020746509544551373,0.9998044371604919,0.014177832752466202,-0.012794421054422855,-0.005132654216140509
239.0,0.0,0.0,0.0,0.0,0.0,0.0,-0.046816978603601456,0.013225398026406765,0.01097533106803894,0.9998032450675964,0.01347724162042141,-0.013890749774873257,-0.004355233628302813
240.0,0.0,0.0,0.0,0.0,0.0,0.0,-0.04963834211230278,0.009002463892102242,0.015995221212506294,0.9997894167900085,0.013172809965908527,-0.01518937386572361,-0.004105722066015005
241.0,0.0,0.0,0.0,0.0,0.0,0.0,-0.053615402430295944,-0.006976386532187462,0.017406785860657692,0.9997736811637878,0.01262147631496191,-0.01664505898952484,-0.004042695742100477
242.0,0.0,0.0,0.0,0.0,0.0,0.0,-0.05364404618740082,-0.016878321766853333,0.014924323186278343,0.9997696280479431,0.012384136207401752,-0.017187247052788734,-0.0034681211691349745
243.0,0.0,0.0,0.0,0.0,0.0,0.0,-0.04830164089798927,-0.01688903383910656,0.013478432781994343,0.9997733235359192,0.011707227677106857,-0.017357634380459785,-0.0038744895718991756
244.0,0.0,0.0,0.0,0.0,0.0,0.0,-0.047954265028238297,-0.010863834992051125,0.013344502076506615,0.999782919883728,0.011326376348733902,-0.01703661121428013,-0.00394381582736969
245.0,0.0,0.0,0.0,0.0,0.0,0.0,-0.04732656478881836,-0.00966052059084177,0.011535602621734142,0.9997978210449219,0.01149494294077158,-0.01608976721763611,-0.0036703632213175297
246.0,0.0,0.0,0.0,0.0,0.0,0.0,-0.034022752195596695,-0.029369305819272995,0.015360593795776367,0.9998288750648499,0.011318814940750599,-0.013645096682012081,-0.005301698576658964
247.0,0.0,0.0,0.0,0.0,0.0,0.0,0.0010714245727285743,-0.08472905308008194,-0.019182633608579636,0.9998770952224731,0.00678997253999114,-0.010843202471733093,-0.009066833183169365
248.0,0.0,0.0,0.0,0.0,0.0,0.0,-0.021148299798369408,0.02923697978258133,-0.002737315371632576,0.9998639822006226,0.0079391710460186,-0.01181880384683609,-0.008330458775162697
249.0,0.0,0.0,0.0,0.0,0.0,0.0,0.014575466513633728,-0.058821119368076324,-0.034139484167099,0.9998747706413269,0.0061103953048586845,-0.01010604202747345,-0.010546082630753517
250.0,0.0,0.0,0.0,0.0,0.0,0.0,-0.02077735960483551,-0.016379009932279587,0.0034397365525364876,0.9998611211776733,0.005756571423262358,-0.009327596984803677,-0.012556549161672592
251.0,0.0,0.0,0.0,0.0,0.0,0.0,-0.043683942407369614,0.033112891018390656,0.027574120089411736,0.9998453855514526,0.006055518053472042,-0.008464441634714603,-0.014169763773679733
252.0,0.0,0.0,0.0,0.0,0.0,0.0,-0.03446754068136215,0.028931891545653343,0.012406031601130962,0.9998217225074768,0.004671978764235973,-0.00589803047478199,-0.017321264371275902
253.0,0.0,0.0,0.0,0.0,0.0,0.0,-0.02865494042634964,0.024108346551656723,0.008179726079106331,0.9997919797897339,0.004907974973320961,-0.00537020293995738,-0.019059203565120697
254.0,0.0,0.0,0.0,0.0,0.0,0.0,-0.01799076236784458,0.010694019496440887,-0.0039017624221742153,0.9997720718383789,0.006239625159651041,-0.00557074835523963,-0.01964743249118328
255.0,0.0,0.0,0.0,0.0,0.0,0.0,-0.022713039070367813,0.006472100969403982,-0.004602507222443819,0.9997531771659851,0.007439734879881144,-0.006115911528468132,-0.020028522238135338
256.0,0.0,0.0,0.0,0.0,0.0,0.0,-0.01962355710566044,-0.0009245164110325277,-0.005065153352916241,0.9997295141220093,0.008893587626516819,-0.006912640295922756,-0.020349284633994102
257.0,0.0,0.0,0.0,0.0,0.0,0.0,-0.021195463836193085,-0.0031305160373449326,-0.004485538229346275,0.999703586101532,0.009757346473634243,-0.007615789771080017,-0.020970948040485382
258.0,0.0,0.0,0.0,0.0,0.0,0.0,-0.021149544045329094,-0.016304723918437958,-0.005825275555253029,0.9996849298477173,0.00981835275888443,-0.007529876660555601,-0.021847974509000778
259.0,0.0,0.0,0.0,0.0,0.0,0.0,-0.01869097538292408,-0.013921568170189857,-0.010785956867039204,0.9996848106384277,0.01043866015970707,-0.007946174591779709,-0.02140226401388645
260.0,0.0,0.0,0.0,0.0,0.0,0.0,-0.015201504342257977,0.010507282800972462,-0.007484458386898041,0.9996209740638733,0.013137897476553917,-0.01294218935072422,-0.020445089787244797
261.0,0.0,0.0,0.0,0.0,0.0,0.0,-0.06422184407711029,-0.11534687876701355,-0.044281620532274246,0.9996294379234314,0.009718804620206356,-0.012119511142373085,-0.02235434390604496
262.0,0.0,0.0,0.0,0.0,0.0,0.0,-0.02944100834429264,0.00545967323705554,0.013589412905275822,0.9996487498283386,0.009267945773899555,-0.011840430088341236,-0.021824775263667107
263.0,0.0,0.0,0.0,0.0,0.0,0.0,-0.112657830119133,-0.0013010052498430014,0.11215736716985703,0.9996455907821655,0.008472837507724762,-0.011834869161248207,-0.022288504987955093
264.0,0.0,0.0,0.0,0.0,0.0,0.0,-0.03769128769636154,0.013540233485400677,0.019686715677380562,0.9996192455291748,0.008784178644418716,-0.012845910154283047,-0.02278967946767807
265.0,0.0,0.0,0.0,0.0,0.0,0.0,-0.02619228884577751,-0.005268373992294073,0.006171251647174358,0.9995996356010437,0.008947129361331463,-0.013219586573541164,-0.023358160629868507
266.0,0.0,0.0,0.0,0.0,0.0,0.0,-0.025219280272722244,0.0012364109279587865,0.0033036195673048496,0.999589741230011,0.00941471941769123,-0.013363356702029705,-0.023522350937128067
267.0,0.0,0.0,0.0,0.0,0.0,0.0,-0.02417602576315403,0.005149201489984989,0.002175765112042427,0.9995850324630737,0.010123053565621376,-0.013111631385982037,-0.023572837933897972
268.0,0.0,0.0,0.0,0.0,0.0,0.0,-0.021681657060980797,-0.0006097537698224187,-0.0019939022604376078,0.9995819330215454,0.010653526522219181,-0.012560450471937656,-0.023770488798618317
269.0,0.0,0.0,0.0,0.0,0.0,0.0,-0.019245093688368797,-0.006250035483390093,-0.003335104323923588,0.9995787143707275,0.01157903391867876,-0.012022104114294052,-0.023754557594656944
270.0,0.0,0.0,0.0,0.0,0.0,0.0,-0.014261375181376934,-0.01103542372584343,-0.007337698247283697,0.999568521976471,0.012387976050376892,-0.011440603993833065,-0.024055395275354385
271.0,0.0,0.0,0.0,0.0,0.0,0.0,-0.013555129989981651,-0.016124596819281578,-0.008419333957135677,0.9995679259300232,0.013277953490614891,-0.0109736118465662,-0.023823333904147148
272.0,0.0,0.0,0.0,0.0,0.0,0.0,-0.0162495244294405,-0.01010888908058405,-0.0026842697989195585,0.9995799660682678,0.01402273029088974,-0.010404663160443306,-0.023129133507609367
273.0,0.0,0.0,0.0,0.0,0.0,0.0,-0.014939475804567337,-0.006916536949574947,-0.0012972360709682107,0.9995855093002319,0.015194013714790344,-0.010011233389377594,-0.02230982482433319
274.0,0.0,0.0,0.0,0.0,0.0,0.0,-0.014855591580271721,-0.0068620676174759865,0.0025256227236241102,0.9995877742767334,0.0162150040268898,-0.009411298669874668,-0.021743886172771454
275.0,0.0,0.0,0.0,0.0,0.0,0.0,-0.014525067992508411,-0.008160611614584923,0.003510157112032175,0.9995858669281006,0.017120327800512314,-0.008795260451734066,-0.02139693684875965
276.0,0.0,0.0,0.0,0.0,0.0,0.0,-0.010922394692897797,-0.015091754496097565,9.139361645793542e-05,0.9995845556259155,0.017521770671010017,-0.007940717972815037,-0.021470660343766212
277.0,0.0,0.0,0.0,0.0,0.0,0.0,-0.00663504796102643,-0.015253927558660507,-0.0013359251897782087,0.9995795488357544,0.018025897443294525,-0.007481515407562256,-0.021451180800795555
278.0,0.0,0.0,0.0,0.0,0.0,0.0,-0.008440240286290646,-0.011587128974497318,-0.00010234866931568831,0.9995879530906677,0.018270626664161682,-0.007166041526943445,-0.02094658464193344
279.0,0.0,0.0,0.0,0.0,0.0,0.0,-0.010814937762916088,-0.005786579102277756,0.005380317568778992,0.9996119141578674,0.01841861754655838,-0.006871985737234354,-0.019738368690013885
280.0,0.0,0.0,0.0,0.0,0.0,0.0,-0.015927018597722054,-0.0013964001554995775,0.01164721604436636,0.9996290802955627,0.018386919051408768,-0.006670771632343531,-0.018954720348119736
281.0,0.0,0.0,0.0,0.0,0.0,0.0,-0.013961016200482845,-0.004396867007017136,0.012261747382581234,0.9996387362480164,0.017888521775603294,-0.005484474822878838,-0.019297722727060318
282.0,0.0,0.0,0.0,0.0,0.0,0.0,0.019421838223934174,-0.04482225328683853,-0.020140405744314194,0.9996408820152283,0.015370629727840424,-0.007273798808455467,-0.02071763575077057
283.0,0.0,0.0,0.0,0.0,0.0,0.0,0.028849713504314423,-0.022512298077344894,-0.025101132690906525,0.9996281862258911,0.014308664947748184,-0.0098605677485466,-0.021010924130678177
284.0,0.0,0.0,0.0,0.0,0.0,0.0,0.03710293024778366,-0.0325850248336792,-0.0241861492395401,0.9995745420455933,0.013237256556749344,-0.013321001082658768,-0.022315150126814842
285.0,0.0,0.0,0.0,0.0,0.0,0.0,-0.007417227607220411,-0.0028505725786089897,0.010865846648812294,0.9995229244232178,0.011725222691893578,-0.015593323856592178,-0.02394913323223591
286.0,0.0,0.0,0.0,0.0,0.0,0.0,-0.031155597418546677,0.020591599866747856,0.03391361981630325,0.9994736909866333,0.0101932343095541,-0.01668667048215866,-0.025884367525577545
287.0,0.0,0.0,0.0,0.0,0.0,0.0,-0.02337554097175598,-0.0019285170128569007,0.01943180337548256,0.9994514584541321,0.007298140786588192,-0.015855612233281136,-0.02814948931336403
288.0,0.0,0.0,0.0,0.0,0.0,0.0,-0.020673347637057304,0.0017097056843340397,0.016076792031526566,0.9994086623191833,0.004992784466594458,-0.014788161963224411,-0.03063959628343582
289.0,0.0,0.0,0.0,0.0,0.0,0.0,-0.011060142889618874,-0.0002965190797112882,0.001213651616126299,0.9993630051612854,0.003957320470362902,-0.013986022211611271,-0.03259696811437607
290.0,0.0,0.0,0.0,0.0,0.0,0.0,-0.012389072217047215,-0.006853858474642038,0.0006821694551035762,0.9993144869804382,0.003633202752098441,-0.013375448063015938,-0.03432566672563553
291.0,0.0,0.0,0.0,0.0,0.0,0.0,-0.016953764483332634,-0.019134853035211563,0.005325217731297016,0.9992715120315552,0.00316599546931684,-0.012028980068862438,-0.036083053797483444
292.0,0.0,0.0,0.0,0.0,0.0,0.0,-0.01832292415201664,-0.00833702553063631,0.00863620825111866,0.9992207884788513,0.0030988033395260572,-0.009135106578469276,-0.03827687352895737
293.0,0.0,0.0,0.0,0.0,0.0,0.0,-0.015320494771003723,0.0016115924809128046,0.009069489315152168,0.9991461634635925,0.0037417924031615257,-0.005467012524604797,-0.04078206792473793
294.0,0.0,0.0,0.0,0.0,0.0,0.0,-0.009132001549005508,-0.012347381561994553,-0.0037160420324653387,0.9991196990013123,0.005984138231724501,-0.0030242823995649815,-0.041414789855480194
295.0,0.0,0.0,0.0,0.0,0.0,0.0,0.001974159851670265,-0.02922464720904827,-0.015116563998162746,0.9990929961204529,0.008630838245153427,-0.003477843478322029,-0.041552845388650894
296.0,0.0,0.0,0.0,0.0,0.0,0.0,0.011271829716861248,-0.04446202144026756,-0.029156029224395752,0.9990236759185791,0.010405981913208961,-0.005480800289660692,-0.042582400143146515
297.0,0.0,0.0,0.0,0.0,0.0,0.0,0.06607966870069504,-0.01761552132666111,-0.09470265358686447,0.9989281892776489,0.008956270292401314,-0.004663877189159393,-0.04517641291022301
298.0,0.0,0.0,0.0,0.0,0.0,0.0,0.024653412401676178,-0.037959855049848557,-0.03645303100347519,0.9987214207649231,0.004747883416712284,-0.001511405105702579,-0.05030500516295433
299.0,0.0,0.0,0.0,0.0,0.0,0.0,0.008690685965120792,-0.019299129024147987,-0.009564213454723358,0.9983886480331421,0.0009011106449179351,0.002050888491794467,-0.056703850626945496
300.0,0.0,0.0,0.0,0.0,0.0,0.0,0.009656716138124466,-0.027357695624232292,0.0035849122796207666,0.9979109168052673,-0.004655796103179455,0.006967016961425543,-0.06405945867300034
301.0,0.0,0.0,0.0,0.0,0.0,0.0,0.0015997819136828184,-0.02452009916305542,0.007676464505493641,0.9972653388977051,-0.010801744647324085,0.012594548985362053,-0.07201861590147018
302.0,0.0,0.0,0.0,0.0,0.0,0.0,-0.004498601891100407,-0.021190447732806206,0.011685499921441078,0.9964874982833862,-0.017316071316599846,0.018660401925444603,-0.07978186011314392
303.0,0.0,0.0,0.0,0.0,0.0,0.0,-0.0036322458181530237,-0.02164069004356861,0.011715508997440338,0.9956650137901306,-0.02403184212744236,0.02451077662408352,-0.08644967526197433
304.0,0.0,0.0,0.0,0.0,0.0,0.0,-0.0010136542841792107,-0.01946386694908142,0.012937246821820736,0.9948123097419739,-0.030588902533054352,0.030707040801644325,-0.09203387051820755
305.0,0.0,0.0,0.0,0.0,0.0,0.0,0.004711697809398174,-0.013091749511659145,0.014021643437445164,0.993989109992981,-0.03618564456701279,0.03735104575753212,-0.09634789079427719
306.0,0.0,0.0,0.0,0.0,0.0,0.0,0.012255157344043255,-0.008230321109294891,0.01596616394817829,0.993281364440918,-0.04070638492703438,0.042523641139268875,-0.09963849186897278
307.0,0.0,0.0,0.0,0.0,0.0,0.0,0.016815178096294403,-0.00859515368938446,0.012315001338720322,0.9926077127456665,-0.04419653117656708,0.04667652025818825,-0.10293843597173691
308.0,0.0,0.0,0.0,0.0,0.0,0.0,0.021429581567645073,-0.019070325419306755,0.0036007603630423546,0.9919283986091614,-0.047386493533849716,0.05013047903776169,-0.10639306902885437
309.0,0.0,0.0,0.0,0.0,0.0,0.0,0.02413686364889145,-0.02377498894929886,0.0019243364222347736,0.9911473393440247,-0.05118896812200546,0.05371279641985893,-0.11008787900209427
310.0,0.0,0.0,0.0,0.0,0.0,0.0,0.027268879115581512,-0.02543547749519348,-0.0006346626323647797,0.9902647137641907,-0.055565353482961655,0.05775298550724983,-0.11380340903997421
311.0,0.0,0.0,0.0,0.0,0.0,0.0,0.02962556667625904,-0.021293675526976585,-0.0003073366533499211,0.9894455075263977,-0.05940748378634453,0.06132487207651138,-0.11708197742700577
312.0,0.0,0.0,0.0,0.0,0.0,0.0,0.026481619104743004,-0.015426116064190865,0.007556403987109661,0.9886581301689148,-0.06334830820560455,0.06490840762853622,-0.11969877034425735
313.0,0.0,0.0,0.0,0.0,0.0,0.0,0.021682828664779663,-0.011456971056759357,0.015368850901722908,0.9878857731819153,-0.06697540730237961,0.06842131912708282,-0.12213075160980225
314.0,0.0,0.0,0.0,0.0,0.0,0.0,0.017453651875257492,-0.010891375131905079,0.02113969996571541,0.98719322681427,-0.07017756253480911,0.07156204432249069,-0.12410786747932434
315.0,0.0,0.0,0.0,0.0,0.0,0.0,0.017142342403531075,-0.015605796128511429,0.023705830797553062,0.9866920709609985,-0.07292477041482925,0.07390137761831284,-0.12513810396194458
316.0,0.0,0.0,0.0,0.0,0.0,0.0,0.018632669001817703,-0.012450827285647392,0.02529742941260338,0.9862344264984131,-0.07565250247716904,0.07640577852725983,-0.12561684846878052
317.0,0.0,0.0,0.0,0.0,0.0,0.0,0.01838984340429306,-0.0012770654866471887,0.021833011880517006,0.9858742356300354,-0.07777898758649826,0.07829342037439346,-0.12599219381809235
318.0,0.0,0.0,0.0,0.0,0.0,0.0,0.022818053141236305,-0.0033770506270229816,0.01754048839211464,0.985650360584259,-0.07916279882192612,0.0792313665151596,-0.12629835307598114
319.0,0.0,0.0,0.0,0.0,0.0,0.0,0.02616610750555992,-0.011054227128624916,0.015568369999527931,0.9853144884109497,-0.08121456950902939,0.08077539503574371,-0.12663428485393524
320.0,0.0,0.0,0.0,0.0,0.0,0.0,0.027944762259721756,-0.0115192336961627,0.011976744048297405,0.9850346446037292,-0.08365269005298615,0.08218269795179367,-0.12630321085453033
321.0,0.0,0.0,0.0,0.0,0.0,0.0,0.029858270660042763,-0.007732456550002098,0.011494364589452744,0.9847688674926758,-0.08579882234334946,0.08360487967729568,-0.12600846588611603
322.0,0.0,0.0,0.0,0.0,0.0,0.0,0.0337563194334507,-0.00900930818170309,0.006521750707179308,0.9845185875892639,-0.0874263271689415,0.0854969173669815,-0.12558311223983765
323.0,0.0,0.0,0.0,0.0,0.0,0.0,0.0368635393679142,-0.018411260098218918,0.0017623218009248376,0.9842341542243958,-0.08875180035829544,0.08701237291097641,-0.12583595514297485
324.0,0.0,0.0,0.0,0.0,0.0,0.0,0.04032221436500549,-0.02580571174621582,-0.0037289399188011885,0.9840312600135803,-0.08994294703006744,0.08828922361135483,-0.12570276856422424
325.0,0.0,0.0,0.0,0.0,0.0,0.0,0.04156053066253662,-0.033364880830049515,-0.011412338353693485,0.9839008450508118,-0.09095706790685654,0.08923676609992981,-0.12530702352523804
326.0,0.0,0.0,0.0,0.0,0.0,0.0,0.03760489076375961,-0.03747391700744629,-0.011274483986198902,0.9836350679397583,-0.09244665503501892,0.090752512216568,-0.12522228062152863
327.0,0.0,0.0,0.0,0.0,0.0,0.0,0.04371382296085358,-0.04102291911840439,-0.017234070226550102,0.9833311438560486,-0.09342123568058014,0.09263617545366287,-0.1255168616771698
328.0,0.0,0.0,0.0,0.0,0.0,0.0,0.042896416038274765,-0.04275406897068024,-0.017487376928329468,0.9829897880554199,-0.0945904403924942,0.09409753978252411,-0.12621314823627472
329.0,0.0,0.0,0.0,0.0,0.0,0.0,0.03609121963381767,-0.046958260238170624,-0.014800784178078175,0.982530415058136,-0.09654361754655838,0.09566754102706909,-0.127125084400177
330.0,0.0,0.0,0.0,0.0,0.0,0.0,0.03460947424173355,-0.04700098931789398,-0.016432927921414375,0.982021152973175,-0.09902949631214142,0.09709116816520691,-0.1280740350484848
331.0,0.0,0.0,0.0,0.0,0.0,0.0,0.030397629365324974,-0.03721722587943077,-0.006651691626757383,0.9815552234649658,-0.10165952891111374,0.09858746826648712,-0.1284330040216446
332.0,0.0,0.0,0.0,0.0,0.0,0.0,0.024594295769929886,-0.021075835451483727,0.003591780783608556,0.9811784029006958,-0.10401400178670883,0.09988335520029068,-0.12843690812587738
333.0,0.0,0.0,0.0,0.0,0.0,0.0,0.01893622614443302,-0.016780640929937363,0.007445847149938345,0.9808905124664307,-0.10608147084712982,0.10054875165224075,-0.12843163311481476
334.0,0.0,0.0,0.0,0.0,0.0,0.0,0.01673891581594944,-0.020079487934708595,0.013157905079424381,0.9806976318359375,-0.10806150734424591,0.10050758719444275,-0.12826378643512726
335.0,0.0,0.0,0.0,0.0,0.0,0.0,0.011722262017428875,-0.010879060253500938,0.019969485700130463,0.9805096983909607,-0.10994269698858261,0.10022871941328049,-0.12832430005073547
336.0,0.0,0.0,0.0,0.0,0.0,0.0,0.002201518276706338,-0.011237439699470997,0.025218889117240906,0.9803667068481445,-0.11138743907213211,0.09986439347267151,-0.12844553589820862
337.0,0.0,0.0,0.0,0.0,0.0,0.0,0.0025272732600569725,-0.017575273290276527,0.023975566029548645,0.9803287982940674,-0.11242347210645676,0.09920066595077515,-0.12836462259292603
338.0,0.0,0.0,0.0,0.0,0.0,0.0,0.0041072191670536995,-0.017697760835289955,0.0179910846054554,0.9802993535995483,-0.11356036365032196,0.09833598881959915,-0.12824957072734833
339.0,0.0,0.0,0.0,0.0,0.0,0.0,0.007304047700017691,-0.017007937654852867,0.013545260764658451,0.9804662466049194,-0.11442796140909195,0.09591720253229141,-0.12803618609905243
340.0,0.0,0.0,0.0,0.0,0.0,0.0,0.019877851009368896,-0.002606315305456519,0.006718374323099852,0.9807702302932739,-0.11453498154878616,0.09267566353082657,-0.12799257040023804
341.0,0.0,0.0,0.0,0.0,0.0,0.0,0.010538112372159958,0.0005894647329114377,0.01085594855248928,0.9810926914215088,-0.11405804008245468,0.08994755893945694,-0.12789909541606903
342.0,0.0,0.0,0.0,0.0,0.0,0.0,0.011560823768377304,-0.01841655932366848,0.00896529946476221,0.9814558029174805,-0.11267737299203873,0.0868382453918457,-0.12849551439285278
343.0,0.0,0.0,0.0,0.0,0.0,0.0,0.020667530596256256,-0.0366114117205143,-0.0016078257467597723,0.981783926486969,-0.11156398057937622,0.08335782587528229,-0.1292591392993927
344.0,0.0,0.0,0.0,0.0,0.0,0.0,0.022631511092185974,-0.0445629321038723,0.001333828317001462,0.982005774974823,-0.11172845959663391,0.07956663519144058,-0.12981951236724854
345.0,0.0,0.0,0.0,0.0,0.0,0.0,0.022880077362060547,-0.01895161159336567,-0.00026831674040295184,0.9821853637695312,-0.11207641661167145,0.07704463601112366,-0.12968245148658752
346.0,0.0,0.0,0.0,0.0,0.0,0.0,0.009306498803198338,0.005393615458160639,0.01054784469306469,0.9824427962303162,-0.11196355521678925,0.07626713067293167,-0.12827900052070618
347.0,0.0,0.0,0.0,0.0,0.0,0.0,-0.005799880251288414,0.017342114821076393,0.025147631764411926,0.9827707409858704,-0.11110977083444595,0.07615429908037186,-0.12656132876873016
348.0,0.0,0.0,0.0,0.0,0.0,0.0,-0.01392463780939579,0.0144154392182827,0.030093178153038025,0.9831852912902832,-0.10963727533817291,0.07579541206359863,-0.12483102083206177
349.0,0.0,0.0,0.0,0.0,0.0,0.0,-0.01322779431939125,-0.0020475375931710005,0.02331649325788021,0.9836364388465881,-0.10744912922382355,0.07530028373003006,-0.12347210198640823
350.0,0.0,0.0,0.0,0.0,0.0,0.0,0.0013723793672397733,-0.02251427434384823,0.011776401661336422,0.9842385053634644,-0.10443303734064102,0.07470095902681351,-0.12161777168512344
351.0,0.0,0.0,0.0,0.0,0.0,0.0,0.010431154631078243,-0.034834884107112885,0.0018722735112532973,0.9848954081535339,-0.10135923326015472,0.07396125048398972,-0.11932986229658127
352.0,0.0,0.0,0.0,0.0,0.0,0.0,0.007999923080205917,-0.03234797716140747,-0.0005617357091978192,0.985551655292511,-0.09881850332021713,0.073064886033535,-0.11655274033546448
353.0,0.0,0.0,0.0,0.0,0.0,0.0,0.00663339626044035,-0.022151419892907143,-0.0010953808669000864,0.9863097071647644,-0.09556377679109573,0.072071373462677,-0.11343755573034286
354.0,0.0,0.0,0.0,0.0,0.0,0.0,0.007675898261368275,-0.018775207921862602,-0.006259101442992687,0.9870818853378296,-0.09227943420410156,0.07034874707460403,-0.11047276109457016
355.0,0.0,0.0,0.0,0.0,0.0,0.0,0.00993411149829626,-0.023467717692255974,-0.008778673596680164,0.9878272414207458,-0.08888904005289078,0.06837856769561768,-0.10779020935297012
356.0,0.0,0.0,0.0,0.0,0.0,0.0,0.013182046823203564,-0.025915363803505898,-0.008843500167131424,0.9885817170143127,-0.08474607020616531,0.06709833443164825,-0.10499361157417297
357.0,0.0,0.0,0.0,0.0,0.0,0.0,0.014914054423570633,-0.011344016529619694,-0.0002715377777349204,0.9892856478691101,-0.08117879182100296,0.0652531087398529,-0.10230690240859985
358.0,0.0,0.0,0.0,0.0,0.0,0.0,0.008830776438117027,9.312975453212857e-05,3.1031366233946756e-05,0.9898757934570312,-0.07781235128641129,0.06324532628059387,-0.10045918077230453
359.0,0.0,0.0,0.0,0.0,0.0,0.0,0.012380530126392841,-0.003948625177145004,0.0008424465777352452,0.9903833270072937,-0.07425526529550552,0.062218789011240005,-0.09876605868339539
360.0,0.0,0.0,0.0,0.0,0.0,0.0,0.013621837832033634,0.00199754536151886,-1.6875743312994018e-05,0.9907463192939758,-0.07170011103153229,0.06179376319050789,-0.0972755178809166
361.0,0.0,0.0,0.0,0.0,0.0,0.0,0.016298241913318634,-0.007733672391623259,0.0010450101690366864,0.9910122156143188,-0.06960693001747131,0.06221709027886391,-0.09581391513347626
362.0,0.0,0.0,0.0,0.0,0.0,0.0,0.0060136583633720875,-0.002363084349781275,0.0049325949512422085,0.991292417049408,-0.06777360290288925,0.06230251118540764,-0.09415630251169205
363.0,0.0,0.0,0.0,0.0,0.0,0.0,-0.016134295612573624,0.008673270232975483,0.011629397980868816,0.9914516806602478,-0.06687241792678833,0.06333429366350174,-0.09242461621761322
364.0,0.0,0.0,0.0,0.0,0.0,0.0,0.034940335899591446,0.017449218779802322,-0.005135250277817249,0.9917163848876953,-0.06376932561397552,0.06466741114854813,-0.09083082526922226
365.0,0.0,0.0,0.0,0.0,0.0,0.0,-0.009266756474971771,0.00522929010912776,0.009165582247078419,0.9920341372489929,-0.06295428425073624,0.06211370229721069,-0.08969808369874954
366.0,0.0,0.0,0.0,0.0,0.0,0.0,-0.028392618522047997,-0.023643281310796738,0.012560603208839893,0.9922400712966919,-0.06189774349331856,0.06275535374879837,-0.08770587295293808
367.0,0.0,0.0,0.0,0.0,0.0,0.0,0.010157949291169643,-0.010477401316165924,-0.012263556942343712,0.9925832748413086,-0.06007285416126251,0.06244323402643204,-0.08527160435914993
368.0,0.0,0.0,0.0,0.0,0.0,0.0,-0.00103814247995615,-0.0182732492685318,-0.006936030462384224,0.9928693175315857,-0.058845870196819305,0.06180896610021591,-0.08323439955711365
369.0,0.0,0.0,0.0,0.0,0.0,0.0,-0.0012765600113198161,-0.011918013915419579,-0.010023584589362144,0.993216335773468,-0.0572425052523613,0.06133762747049332,-0.08051709830760956
370.0,0.0,0.0,0.0,0.0,0.0,0.0,-0.006058422848582268,-0.0015126891667023301,-0.006279923487454653,0.9936074614524841,-0.05550210550427437,0.06008279696106911,-0.07780276238918304
371.0,0.0,0.0,0.0,0.0,0.0,0.0,-0.0233539380133152,-0.0032628073822706938,0.005653925705701113,0.9939219355583191,-0.05383903905749321,0.05832730978727341,-0.07627607136964798
372.0,0.0,0.0,0.0,0.0,0.0,0.0,-0.006499588023871183,-0.01182036753743887,-0.01334660965949297,0.9943038821220398,-0.05169721320271492,0.056213222444057465,-0.07435635477304459
373.0,0.0,0.0,0.0,0.0,0.0,0.0,0.010030299425125122,-0.027930855751037598,-0.02271941490471363,0.9947593212127686,-0.04962474852800369,0.05235122889280319,-0.07246612757444382
374.0,0.0,0.0,0.0,0.0,0.0,0.0,0.022998742759227753,-0.04122087359428406,-0.026963328942656517,0.9952482581138611,-0.04781777411699295,0.04671933501958847,-0.07079341262578964
375.0,0.0,0.0,0.0,0.0,0.0,0.0,0.018705099821090698,-0.04002608731389046,-0.023876765742897987,0.9956681132316589,-0.04631010815501213,0.0411987230181694,-0.0693076103925705
376.0,0.0,0.0,0.0,0.0,0.0,0.0,-0.01614997908473015,-0.040192801505327225,0.01644435152411461,0.9959489703178406,-0.04465257003903389,0.03535149618983269,-0.069588303565979
377.0,0.0,0.0,0.0,0.0,0.0,0.0,-0.014377320185303688,-0.016926659271121025,0.02328140288591385,0.9962862133979797,-0.04275848716497421,0.028614241629838943,-0.06903456151485443
378.0,0.0,0.0,0.0,0.0,0.0,0.0,-0.03080708719789982,0.013213013298809528,0.04903430491685867,0.996454656124115,-0.042608968913555145,0.023090723901987076,-0.06876827776432037
379.0,0.0,0.0,0.0,0.0,0.0,0.0,-0.039550598710775375,0.0357438400387764,0.061531055718660355,0.9965817928314209,-0.04238225519657135,0.016889968886971474,-0.06887470930814743
380.0,0.0,0.0,0.0,0.0,0.0,0.0,-0.03400711715221405,0.05230998247861862,0.02539074793457985,0.996663510799408,-0.0410958006978035,0.009878048673272133,-0.06982916593551636
381.0,0.0,0.0,0.0,0.0,0.0,0.0,-0.030720040202140808,0.03365384042263031,0.018270522356033325,0.9967242479324341,-0.03927170857787132,0.0027062094304710627,-0.0706574097275734
382.0,0.0,0.0,0.0,0.0,0.0,0.0,-0.029058877378702164,0.008169390261173248,0.031169502064585686,0.9967151284217834,-0.03712630271911621,-0.003997037187218666,-0.07187065482139587
383.0,0.0,0.0,0.0,0.0,0.0,0.0,-0.023419415578246117,0.0021269081626087427,0.016190527006983757,0.9966112971305847,-0.03453810140490532,-0.011073799803853035,-0.07383274286985397
384.0,0.0,0.0,0.0,0.0,0.0,0.0,-0.019491713494062424,0.010833886452019215,-0.02753567509353161,0.9964966773986816,-0.03140075504779816,-0.01781727932393551,-0.07544121146202087
385.0,0.0,0.0,0.0,0.0,0.0,0.0,-0.01531698927283287,0.00910148210823536,-0.02811964601278305,0.9964452981948853,-0.02901005744934082,-0.022676222026348114,-0.07577429711818695
386.0,0.0,0.0,0.0,0.0,0.0,0.0,-0.019440380856394768,0.017324935644865036,-0.01798282377421856,0.9964314699172974,-0.02781282551586628,-0.025223786011338234,-0.07559230178594589
387.0,0.0,0.0,0.0,0.0,0.0,0.0,-0.014781535603106022,0.0158196073025465,-0.018656974658370018,0.9963930249214172,-0.027638809755444527,-0.026300333440303802,-0.07578947395086288
388.0,0.0,0.0,0.0,0.0,0.0,0.0,-0.0036713930312544107,0.009257936850190163,-0.018706876784563065,0.9963809847831726,-0.027884455397725105,-0.026463018730282784,-0.07581309974193573
389.0,0.0,0.0,0.0,0.0,0.0,0.0,0.008085873909294605,-0.0050324550829827785,0.00561739644035697,0.9963757395744324,-0.02955194003880024,-0.02502427250146866,-0.07573199272155762
390.0,0.0,0.0,0.0,0.0,0.0,0.0,0.0004951526061631739,0.0059114075265824795,-0.003687489777803421,0.9963065385818481,-0.0288731437176466,-0.02542888931930065,-0.07676613330841064
391.0,0.0,0.0,0.0,0.0,0.0,0.0,-0.0018277955241501331,0.002835549646988511,-0.006790272891521454,0.9961589574813843,-0.02824363112449646,-0.026171114295721054,-0.07864570617675781
392.0,0.0,0.0,0.0,0.0,0.0,0.0,0.006477231625467539,0.007125458214432001,-0.020224610343575478,0.99605393409729,-0.027545183897018433,-0.026518564671278,-0.08009041845798492
393.0,0.0,0.0,0.0,0.0,0.0,0.0,-0.0068991039879620075,-0.006600215565413237,-0.0030700259376317263,0.9959884285926819,-0.02881431207060814,-0.025282349437475204,-0.08086142688989639
394.0,0.0,0.0,0.0,0.0,0.0,0.0,-0.04042757302522659,-0.024269627407193184,0.040192097425460815,0.9958939552307129,-0.030702969059348106,-0.024895500391721725,-0.08144336193799973
395.0,0.0,0.0,0.0,0.0,0.0,0.0,-0.06784806400537491,-0.011022087186574936,0.03711053729057312,0.9959551692008972,-0.030955975875258446,-0.025051360949873924,-0.08054716140031815
396.0,0.0,0.0,0.0,0.0,0.0,0.0,-0.07686522603034973,-0.011546015739440918,0.05039893835783005,0.995999813079834,-0.03093254193663597,-0.024301599711179733,-0.08023283630609512
397.0,0.0,0.0,0.0,0.0,0.0,0.0,-0.0706409141421318,-0.016217468306422234,0.05478568375110626,0.9959089756011963,-0.030644353479146957,-0.02150450274348259,-0.08224371075630188
398.0,0.0,0.0,0.0,0.0,0.0,0.0,-0.03928203880786896,-0.010358545929193497,0.026205243542790413,0.9958844780921936,-0.02898859605193138,-0.017173202708363533,-0.0841364711523056
399.0,0.0,0.0,0.0,0.0,0.0,0.0,-0.008983430452644825,-0.020870041102170944,0.010123136453330517,0.9958948493003845,-0.027039801701903343,-0.01185681950300932,-0.0855700820684433
400.0,0.0,0.0,0.0,0.0,0.0,0.0,0.009285018779337406,-0.03948405012488365,0.026650410145521164,0.9959059357643127,-0.02402636408805847,-0.008394701406359673,-0.08673574030399323
401.0,0.0,0.0,0.0,0.0,0.0,0.0,0.021766003221273422,-0.02942839078605175,0.0027659949846565723,0.9958067536354065,-0.020046424120664597,-0.007022561505436897,-0.08898591250181198
402.0,0.0,0.0,0.0,0.0,0.0,0.0,0.036663517355918884,-0.0014983884757384658,-0.04071266949176788,0.995588481426239,-0.016003994271159172,-0.00469512352719903,-0.09233354032039642
403.0,0.0,0.0,0.0,0.0,0.0,0.0,0.0386124849319458,0.027640679851174355,-0.03652321547269821,0.9953300356864929,-0.012197718024253845,-0.0008259777096100152,-0.0957493707537651
404.0,0.0,0.0,0.0,0.0,0.0,0.0,0.03854640945792198,0.023776158690452576,-0.02549755573272705,0.994950532913208,-0.008533142507076263,0.001765463617630303,-0.09998367726802826
405.0,0.0,0.0,0.0,0.0,0.0,0.0,0.05228062719106674,0.01973317377269268,-0.05267017334699631,0.994538426399231,-0.0054638078436255455,0.004345532972365618,-0.10413984209299088
406.0,0.0,0.0,0.0,0.0,0.0,0.0,0.055932722985744476,0.007050361484289169,-0.04719598591327667,0.9942759275436401,-0.002720467746257782,0.006097001489251852,-0.10663945227861404
407.0,0.0,0.0,0.0,0.0,0.0,0.0,0.03427823260426521,0.004793424159288406,-0.023992227390408516,0.993998646736145,-0.0016707192407920957,0.006645227782428265,-0.1091761440038681
408.0,0.0,0.0,0.0,0.0,0.0,0.0,0.022235451266169548,0.020220046862959862,-0.032225895673036575,0.9937342405319214,-0.002709050662815571,0.007214199285954237,-0.11150885373353958
409.0,0.0,0.0,0.0,0.0,0.0,0.0,0.010919620282948017,-0.0038344499189406633,6.154000584501773e-05,0.9934595823287964,-0.0048824637196958065,0.006249203812330961,-0.11390826851129532
410.0,0.0,0.0,0.0,0.0,0.0,0.0,-0.015653342008590698,-0.0015450991922989488,0.008579334244132042,0.9932349920272827,-0.007809565402567387,0.005845974199473858,-0.115717314183712
411.0,0.0,0.0,0.0,0.0,0.0,0.0,-0.053240418434143066,0.015334599651396275,0.03935373201966286,0.9930431842803955,-0.00939901452511549,0.003412974067032337,-0.11731815338134766
412.0,0.0,0.0,0.0,0.0,0.0,0.0,-0.11980602145195007,0.04583282396197319,0.0694437325000763,0.9928669333457947,-0.009413622319698334,0.0008779821218922734,-0.11885645985603333
413.0,0.0,0.0,0.0,0.0,0.0,0.0,-0.14784689247608185,0.05363704636693001,0.055784739553928375,0.9927955269813538,-0.008918480016291142,4.243795046932064e-05,-0.11949377506971359
414.0,0.0,0.0,0.0,0.0,0.0,0.0,-0.10690408945083618,0.00547626381739974,0.06799142807722092,0.9929322004318237,-0.006587259471416473,0.0005107596516609192,-0.1185067817568779
415.0,0.0,0.0,0.0,0.0,0.0,0.0,-0.0627736896276474,-0.0041752224788069725,0.054116714745759964,0.9930137395858765,-0.0018292451277375221,5.676270302501507e-05,-0.11798429489135742
416.0,0.0,0.0,0.0,0.0,0.0,0.0,-0.020456748083233833,-0.012820303440093994,0.002938722027465701,0.9927721619606018,0.004739932715892792,-0.003316381247714162,-0.11987412720918655
417.0,0.0,0.0,0.0,0.0,0.0,0.0,-0.007242157589644194,-0.025834141299128532,0.02018611691892147,0.991773784160614,0.015642903745174408,-0.010666592046618462,-0.12659591436386108
418.0,0.0,0.0,0.0,0.0,0.0,0.0,0.006148886866867542,-0.03620953857898712,0.023883072659373283,0.9903837442398071,0.026478003710508347,-0.015496485866606236,-0.13490910828113556
419.0,0.0,0.0,0.0,0.0,0.0,0.0,0.00523259025067091,-0.0643918439745903,-0.03750425577163696,0.988488495349884,0.036044299602508545,-0.020048312842845917,-0.14556989073753357
420.0,0.0,0.0,0.0,0.0,0.0,0.0,-0.035452134907245636,-0.07353232055902481,-0.0458582378923893,0.9863026738166809,0.04771651327610016,-0.020229270681738853,-0.1565956175327301
421.0,0.0,0.0,0.0,0.0,0.0,0.0,-0.020469913259148598,-0.0908406674861908,-0.06379254907369614,0.9842514991760254,0.057565100491046906,-0.015081513673067093,-0.1664578765630722
422.0,0.0,0.0,0.0,0.0,0.0,0.0,0.021666638553142548,0.025938373059034348,-0.06497102975845337,0.9830586910247803,0.06746917217969894,-0.010213635861873627,-0.17011889815330505
423.0,0.0,0.0,0.0,0.0,0.0,0.0,-0.013078596442937851,0.024889782071113586,-0.030535824596881866,0.9814521074295044,0.07935290038585663,-0.016650421544909477,-0.17371711134910583
424.0,0.0,0.0,0.0,0.0,0.0,0.0,0.003732873359695077,-0.03363584354519844,0.00893210805952549,0.9809843897819519,0.07942936569452286,-0.01658729277551174,-0.1763080656528473
425.0,0.0,0.0,0.0,0.0,0.0,0.0,0.004483941476792097,0.022823404520750046,-0.013635741546750069,0.980566143989563,0.07707089930772781,-0.01907031238079071,-0.1794155091047287
426.0,0.0,0.0,0.0,0.0,0.0,0.0,-0.016881581395864487,0.004368695896118879,-0.006306970026344061,0.9788504838943481,0.07338251918554306,-0.03149179369211197,-0.18835896253585815
427.0,0.0,0.0,0.0,0.0,0.0,0.0,-0.007710414472967386,-0.005270424764603376,-0.0025418929290026426,0.9769893884658813,0.06709707528352737,-0.053682804107666016,-0.19522380828857422
428.0,0.0,0.0,0.0,0.0,0.0,0.0,-0.010067556984722614,-0.0290509220212698,-0.00045806614798493683,0.9748009443283081,0.05766880139708519,-0.08208052814006805,-0.1992597132921219
429.0,0.0,0.0,0.0,0.0,0.0,0.0,-0.05395126715302467,-0.06456466019153595,0.023920390754938126,0.9719120860099792,0.04343155026435852,-0.10462066531181335,-0.2062932550907135
430.0,0.0,0.0,0.0,0.0,0.0,0.0,-0.059447694569826126,0.026993636041879654,0.013697786256670952,0.9696121215820312,0.03201070427894592,-0.12215729802846909,-0.20954450964927673
431.0,0.0,0.0,0.0,0.0,0.0,0.0,-0.06158144026994705,0.04669155180454254,0.02785392478108406,0.9671383500099182,0.023744944483041763,-0.13794206082820892,-0.21226832270622253
432.0,0.0,0.0,0.0,0.0,0.0,0.0,-0.06184221804141998,0.04598282650113106,0.0036265647504478693,0.9649940133094788,0.015928925946354866,-0.14882707595825195,-0.2153734713792801
433.0,0.0,0.0,0.0,0.0,0.0,0.0,-0.04324754327535629,0.06354677677154541,-0.014854448847472668,0.963435709476471,0.011604645289480686,-0.15702301263809204,-0.2168007493019104
434.0,0.0,0.0,0.0,0.0,0.0,0.0,-0.04335398226976395,0.055682890117168427,-0.005738236475735903,0.9620334506034851,0.00793322641402483,-0.16311374306678772,-0.2187005877494812
435.0,0.0,0.0,0.0,0.0,0.0,0.0,-0.03388409689068794,0.04952337220311165,-0.007034141104668379,0.9607447385787964,0.005254646763205528,-0.16754639148712158,-0.22106848657131195
436.0,0.0,0.0,0.0,0.0,0.0,0.0,-0.04032658413052559,0.051179755479097366,-0.02813165821135044,0.960442066192627,0.0038627812173217535,-0.16848120093345642,-0.22169743478298187
437.0,0.0,0.0,0.0,0.0,0.0,0.0,-0.025704169645905495,0.04493926465511322,-0.03298893943428993,0.9610012769699097,0.0032655445393174887,-0.1667887419462204,-0.22056622803211212
438.0,0.0,0.0,0.0,0.0,0.0,0.0,-0.011467637494206429,0.03593694418668747,-0.06437117606401443,0.9617680311203003,0.0032373929861932993,-0.16360564529895782,-0.21958769857883453
439.0,0.0,0.0,0.0,0.0,0.0,0.0,-0.004791204817593098,0.026946913450956345,-0.06574621051549911,0.963141679763794,0.0026963979471474886,-0.15864495933055878,-0.21722397208213806
440.0,0.0,0.0,0.0,0.0,0.0,0.0,-0.0008420039084739983,0.013604557141661644,-0.027153465896844864,0.9642005562782288,0.00036231789272278547,-0.15491701662540436,-0.2152232527732849
441.0,0.0,0.0,0.0,0.0,0.0,0.0,-0.007778505329042673,0.04503612965345383,-0.03653610125184059,0.9649155735969543,-0.002172728069126606,-0.15117546916007996,-0.21467001736164093
442.0,0.0,0.0,0.0,0.0,0.0,0.0,-0.006514689885079861,0.03818950802087784,-0.027601972222328186,0.9654203653335571,-0.0049523040652275085,-0.14796483516693115,-0.2145727127790451
443.0,0.0,0.0,0.0,0.0,0.0,0.0,-0.010777651332318783,0.03648188337683678,-0.028774766251444817,0.9657890796661377,-0.007172771729528904,-0.14508827030658722,-0.21482990682125092
444.0,0.0,0.0,0.0,0.0,0.0,0.0,-0.02366306632757187,0.04448579251766205,-0.0170166976749897,0.9662238359451294,-0.009378303773701191,-0.14123478531837463,-0.2153540849685669
445.0,0.0,0.0,0.0,0.0,0.0,0.0,-0.035792410373687744,0.044196080416440964,0.054297011345624924,0.9667530655860901,-0.0119795436039567,-0.13613420724868774,-0.21612675487995148
446.0,0.0,0.0,0.0,0.0,0.0,0.0,-0.04651195928454399,0.05716089904308319,0.06796637922525406,0.9669737815856934,-0.013440875336527824,-0.13159134984016418,-0.21787069737911224
447.0,0.0,0.0,0.0,0.0,0.0,0.0,-0.0351780503988266,0.06855384260416031,0.04104793816804886,0.9670634269714355,-0.012662201188504696,-0.1280355453491211,-0.21963724493980408
448.0,0.0,0.0,0.0,0.0,0.0,0.0,-0.001076641259714961,0.04312366247177124,0.010876220650970936,0.9676705598831177,-0.010279380716383457,-0.12220863997936249,-0.2204030603170395
449.0,0.0,0.0,0.0,0.0,0.0,0.0,0.01267500501126051,0.004912727512419224,0.02357669733464718,0.9687787890434265,-0.007964841090142727,-0.1141001433134079,-0.21996815502643585
450.0,0.0,0.0,0.0,0.0,0.0,0.0,0.04506976157426834,0.004252719227224588,0.0396801121532917,0.9704490303993225,-0.005217286292463541,-0.10226665437221527,-0.2184947431087494
451.0,0.0,0.0,0.0,0.0,0.0,0.0,0.05596635490655899,0.053551118820905685,0.08384604007005692,0.9743653535842896,-0.003295781323686242,-0.08034344762563705,-0.21011939644813538
452.0,0.0,0.0,0.0,0.0,0.0,0.0,0.01404703687876463,0.06730303913354874,0.05853421613574028,0.9792994856834412,-0.0014672394609078765,-0.05159401148557663,-0.19572269916534424
453.0,0.0,0.0,0.0,0.0,0.0,0.0,0.03911934792995453,0.001045049401000142,-0.04883262887597084,0.9832100868225098,-0.001311608706600964,-0.02512236312031746,-0.1807383894920349
454.0,0.0,0.0,0.0,0.0,0.0,0.0,0.06075620651245117,0.009384546428918839,-0.09934039413928986,0.9858883619308472,0.00025923195062205195,-0.0030776376370340586,-0.16737934947013855
455.0,0.0,0.0,0.0,0.0,0.0,0.0,0.06388809531927109,0.019715754315257072,-0.15964385867118835,0.9865460395812988,0.004667600616812706,0.00489727221429348,-0.16334456205368042
456.0,0.0,0.0,0.0,0.0,0.0,0.0,0.056818511337041855,-0.050517819821834564,-0.08109799772500992,0.9855381846427917,0.009562456980347633,-0.002190887928009033,-0.16917648911476135
457.0,0.0,0.0,0.0,0.0,0.0,0.0,0.06050654128193855,-0.08476471155881882,-0.03168656677007675,0.983631432056427,0.011352259665727615,-0.016180194914340973,-0.17911365628242493
458.0,0.0,0.0,0.0,0.0,0.0,0.0,0.03095046989619732,-0.06665253639221191,-0.00989639200270176,0.9817119836807251,0.00859797652810812,-0.02925407700240612,-0.18791989982128143
459.0,0.0,0.0,0.0,0.0,0.0,0.0,-0.00889662466943264,-0.05524064972996712,0.07862881571054459,0.979677140712738,0.0028619931545108557,-0.03767314553260803,-0.1969916671514511
460.0,0.0,0.0,0.0,0.0,0.0,0.0,-0.03845832124352455,-0.005265834275633097,0.031205805018544197,0.9784811735153198,-0.0030863157007843256,-0.03757328540086746,-0.2028636336326599
461.0,0.0,0.0,0.0,0.0,0.0,0.0,-0.042552243918180466,-0.0008527745376341045,0.02011197619140148,0.9777870774269104,-0.007141608279198408,-0.03436904773116112,-0.2066323459148407
462.0,0.0,0.0,0.0,0.0,0.0,0.0,-0.03886479139328003,0.0011233078548684716,0.061404261738061905,0.9771794676780701,-0.008252928033471107,-0.030869564041495323,-0.20999373495578766
463.0,0.0,0.0,0.0,0.0,0.0,0.0,-0.03357691690325737,0.015484942123293877,0.05763932690024376,0.9765210747718811,-0.006422017235308886,-0.02678973786532879,-0.2136494517326355
464.0,0.0,0.0,0.0,0.0,0.0,0.0,-0.005987174343317747,-0.012106457725167274,0.09290336072444916,0.9763875603675842,-0.0036076901014894247,-0.019846400246024132,-0.21508535742759705
465.0,0.0,0.0,0.0,0.0,0.0,0.0,0.02514706738293171,-0.031528886407613754,0.12634395062923431,0.9779371619224548,-0.0011711306869983673,-0.002777664689347148,-0.20887763798236847
466.0,0.0,0.0,0.0,0.0,0.0,0.0,0.00468074157834053,-0.0015645930543541908,0.026769382879137993,0.9806138277053833,-0.0017487532459199429,0.023781226947903633,-0.19449201226234436
467.0,0.0,0.0,0.0,0.0,0.0,0.0,0.050354089587926865,-0.0417618528008461,-0.027860844507813454,0.9825949668884277,-0.002242641756311059,0.056952111423015594,-0.17680048942565918
468.0,0.0,0.0,0.0,0.0,0.0,0.0,0.1092284545302391,-0.07390051335096359,-0.03132082149386406,0.9831126928329468,-0.00667775422334671,0.09339815378189087,-0.1572408378124237
469.0,0.0,0.0,0.0,0.0,0.0,0.0,0.1263342648744583,-0.037247009575366974,-0.07746992260217667,0.9820130467414856,-0.014406293630599976,0.12626604735851288,-0.1396448016166687
470.0,0.0,0.0,0.0,0.0,0.0,0.0,0.10788594186306,-0.015510446391999722,-0.04812746122479439,0.9802898168563843,-0.02262013778090477,0.14987505972385406,-0.1267358809709549
471.0,0.0,0.0,0.0,0.0,0.0,0.0,0.07764538377523422,0.004226182121783495,-0.04972947761416435,0.9790778160095215,-0.03105134516954422,0.16304455697536469,-0.11773275583982468
472.0,0.0,0.0,0.0,0.0,0.0,0.0,0.06991443783044815,-0.022706544026732445,0.032959066331386566,0.9788097739219666,-0.03878163546323776,0.16789092123508453,-0.11063934117555618
473.0,0.0,0.0,0.0,0.0,0.0,0.0,0.0696110650897026,0.011286173947155476,0.032386913895606995,0.9789032340049744,-0.04533642157912254,0.16917608678340912,-0.1052362471818924
474.0,0.0,0.0,0.0,0.0,0.0,0.0,0.06959886103868484,0.035569217056035995,0.017518460750579834,0.9792340993881226,-0.05099600926041603,0.16797509789466858,-0.1014319658279419
475.0,0.0,0.0,0.0,0.0,0.0,0.0,0.08119276165962219,0.007854375056922436,-0.0001239706907654181,0.9797882437705994,-0.055153217166662216,0.16465410590171814,-0.09931197762489319
476.0,0.0,0.0,0.0,0.0,0.0,0.0,0.09050256758928299,-0.034482911229133606,0.010224878787994385,0.980023980140686,-0.05856090784072876,0.16059014201164246,-0.10165703296661377
477.0,0.0,0.0,0.0,0.0,0.0,0.0,0.06490649282932281,-0.015206619165837765,0.025963537395000458,0.9801093339920044,-0.06078295409679413,0.15755777060985565,-0.10423628240823746
478.0,0.0,0.0,0.0,0.0,0.0,0.0,0.048861801624298096,-0.000622310268227011,0.03550339862704277,0.9802498817443848,-0.06246142089366913,0.15414956212043762,-0.10699684172868729
479.0,0.0,0.0,0.0,0.0,0.0,0.0,0.0460071787238121,0.0014261803589761257,0.01901113986968994,0.9805814623832703,-0.06413991749286652,0.14969870448112488,-0.10924939811229706
480.0,0.0,0.0,0.0,0.0,0.0,0.0,0.05077795311808586,0.017956718802452087,0.02841361053287983,0.9812300205230713,-0.06407968699932098,0.14515790343284607,-0.10959570854902267
481.0,0.0,0.0,0.0,0.0,0.0,0.0,0.04797867313027382,-0.012690824456512928,0.008312908932566643,0.9818398356437683,-0.06290498375892639,0.14013275504112244,-0.11136172711849213
482.0,0.0,0.0,0.0,0.0,0.0,0.0,0.03932421654462814,-0.015893585979938507,-0.01703384704887867,0.9823622107505798,-0.061375126242637634,0.13514143228530884,-0.11372918635606766
483.0,0.0,0.0,0.0,0.0,0.0,0.0,0.04440728574991226,-0.016419436782598495,-0.009482763707637787,0.982964277267456,-0.06106868013739586,0.1293516308069229,-0.1154228150844574
484.0,0.0,0.0,0.0,0.0,0.0,0.0,0.04789497330784798,-0.025000037625432014,-0.008268254809081554,0.9834741353988647,-0.06099451333284378,0.12410490214824677,-0.1168568879365921
485.0,0.0,0.0,0.0,0.0,0.0,0.0,0.04655960574746132,-0.03570530191063881,-0.026757681742310524,0.9837937355041504,-0.06000402569770813,0.11934975534677505,-0.11960471421480179
486.0,0.0,0.0,0.0,0.0,0.0,0.0,0.03879595175385475,-0.039860524237155914,-0.021700777113437653,0.9839779734611511,-0.05926144868135452,0.1139102652668953,-0.12370696663856506
487.0,0.0,0.0,0.0,0.0,0.0,0.0,0.017062842845916748,-0.005221948958933353,-0.03016875497996807,0.9841560125350952,-0.057947635650634766,0.10722370445728302,-0.12877780199050903
488.0,0.0,0.0,0.0,0.0,0.0,0.0,0.0023459340445697308,0.004751705098897219,-0.047382913529872894,0.9839484095573425,-0.05696818232536316,0.09946377575397491,-0.13678239285945892
489.0,0.0,0.0,0.0,0.0,0.0,0.0,0.025986088439822197,0.0009115106659010053,-0.028713637962937355,0.9831000566482544,-0.05598575994372368,0.08714408427476883,-0.15095140039920807
490.0,0.0,0.0,0.0,0.0,0.0,0.0,0.04206843674182892,-0.017646154388785362,-0.011890961788594723,0.9808667302131653,-0.053584303706884384,0.0683009922504425,-0.17425218224525452
491.0,0.0,0.0,0.0,0.0,0.0,0.0,0.039116863161325455,-0.03754809498786926,0.07091552019119263,0.9772536158561707,-0.051565222442150116,0.04474586620926857,-0.20079155266284943
492.0,0.0,0.0,0.0,0.0,0.0,0.0,-0.02030310034751892,-0.01304502785205841,0.08405716717243195,0.9735174179077148,-0.05160802602767944,0.02637733705341816,-0.22114580869674683
493.0,0.0,0.0,0.0,0.0,0.0,0.0,-0.04782354459166527,0.003140408778563142,0.04765000939369202,0.9707900881767273,-0.052958063781261444,0.014275987632572651,-0.2335825264453888
494.0,0.0,0.0,0.0,0.0,0.0,0.0,-0.0644133910536766,0.009326476603746414,0.03664178401231766,0.9691469669342041,-0.054812345653772354,0.0064040482975542545,-0.24023185670375824
495.0,0.0,0.0,0.0,0.0,0.0,0.0,-0.04392032325267792,0.018173102289438248,0.02446749247610569,0.9683695435523987,-0.05682944506406784,-0.0002531005011405796,-0.24296505749225616
496.0,0.0,0.0,0.0,0.0,0.0,0.0,-0.02786743827164173,0.013328155502676964,-0.003645477816462517,0.9679794907569885,-0.05859051272273064,-0.006280131172388792,-0.2440260499715805
497.0,0.0,0.0,0.0,0.0,0.0,0.0,-0.02413509227335453,-0.004073309246450663,0.011364498175680637,0.9676926136016846,-0.060845065861940384,-0.01072182971984148,-0.24445320665836334
498.0,0.0,0.0,0.0,0.0,0.0,0.0,-0.030853774398565292,0.0031497091986238956,0.02408999763429165,0.9676005840301514,-0.06196052208542824,-0.01388668641448021,-0.24438197910785675
499.0,0.0,0.0,0.0,0.0,0.0,0.0,-0.036433424800634384,0.012066755443811417,0.003562700003385544,0.9675284028053284,-0.0608992837369442,-0.01602669060230255,-0.24479781091213226
500.0,0.0,0.0,0.0,0.0,0.0,0.0,-0.029948165640234947,0.015508431009948254,0.01418299600481987,0.9676640629768372,-0.059365659952163696,-0.016314372420310974,-0.2446257323026657
501.0,0.0,0.0,0.0,0.0,0.0,0.0,-0.01581694558262825,0.008944528177380562,0.023814432322978973,0.9679203033447266,-0.05623855069279671,-0.016575155779719353,-0.24432158470153809
502.0,0.0,0.0,0.0,0.0,0.0,0.0,-0.0057856435887515545,0.017163611948490143,-0.024388272315263748,0.9683515429496765,-0.05242009833455086,-0.017891578376293182,-0.24336275458335876
503.0,0.0,0.0,0.0,0.0,0.0,0.0,-0.007380420342087746,0.0015291656600311399,-0.012601475231349468,0.9687483310699463,-0.049707021564245224,-0.019725102931261063,-0.24221771955490112
504.0,0.0,0.0,0.0,0.0,0.0,0.0,-0.0030410396866500378,-0.031082138419151306,0.03645503520965576,0.9690560102462769,-0.046509914100170135,-0.021781671792268753,-0.24143953621387482
505.0,0.0,0.0,0.0,0.0,0.0,0.0,-0.0006544447387568653,-0.008737326599657536,-0.0023662056773900986,0.9693176746368408,-0.04250537231564522,-0.024057382717728615,-0.24091994762420654
506.0,0.0,0.0,0.0,0.0,0.0,0.0,-0.0007951477891765535,-0.0016919698100537062,-0.011480304412543774,0.9700208306312561,-0.039509017020463943,-0.025679389014840126,-0.23841367661952972
507.0,0.0,0.0,0.0,0.0,0.0,0.0,-0.008509712293744087,0.014186318963766098,-0.014647116884589195,0.9704629182815552,-0.036383066326379776,-0.026574324816465378,-0.23701772093772888
508.0,0.0,0.0,0.0,0.0,0.0,0.0,0.00850036833435297,0.0024590331595391035,-0.007671400438994169,0.9708639979362488,-0.03302927687764168,-0.02687428519129753,-0.23582488298416138
509.0,0.0,0.0,0.0,0.0,0.0,0.0,0.01575057953596115,-0.031234074383974075,0.018641138449311256,0.970989465713501,-0.02911524660885334,-0.029431257396936417,-0.2355172336101532
510.0,0.0,0.0,0.0,0.0,0.0,0.0,0.023961668834090233,0.002098367316648364,-0.02572958916425705,0.9710043668746948,-0.02543027512729168,-0.033932507038116455,-0.23527486622333527
511.0,0.0,0.0,0.0,0.0,0.0,0.0,0.04124177619814873,0.0030672913417220116,-0.04759393259882927,0.9710232019424438,-0.024927660822868347,-0.03881686553359032,-0.23449358344078064
512.0,0.0,0.0,0.0,0.0,0.0,0.0,0.018907617777585983,-0.044536225497722626,-0.00761433457955718,0.9706688523292542,-0.026057397946715355,-0.04306628555059433,-0.23509632050991058
513.0,0.0,0.0,0.0,0.0,0.0,0.0,0.0150033263489604,0.006041262298822403,-0.01160229742527008,0.9705640077590942,-0.02692253701388836,-0.047911111265420914,-0.23448427021503448
514.0,0.0,0.0,0.0,0.0,0.0,0.0,-0.06051314249634743,0.03811463341116905,0.0004493448359426111,0.9702236652374268,-0.0286749005317688,-0.05455845594406128,-0.23423779010772705
515.0,0.0,0.0,0.0,0.0,0.0,0.0,-0.0824287086725235,0.025567341595888138,0.03924791142344475,0.969897449016571,-0.027252238243818283,-0.059738654643297195,-0.2344948947429657
516.0,0.0,0.0,0.0,0.0,0.0,0.0,-0.03913439065217972,0.03628377616405487,-0.00506444089114666,0.969748854637146,-0.023460716009140015,-0.06532475352287292,-0.23403553664684296
517.0,0.0,0.0,0.0,0.0,0.0,0.0,-0.03116469830274582,-0.009655280970036983,-0.0010046501411125064,0.9699222445487976,-0.020612167194485664,-0.06950738281011581,-0.23237299919128418
518.0,0.0,0.0,0.0,0.0,0.0,0.0,-0.02439812757074833,-0.0035269255749881268,0.026154883205890656,0.9707510471343994,-0.017826354131102562,-0.07115146517753601,-0.22860246896743774
519.0,0.0,0.0,0.0,0.0,0.0,0.0,-0.030718589201569557,0.025014974176883698,0.05051696300506592,0.9719316363334656,-0.014229378663003445,-0.06957270205020905,-0.22430205345153809
520.0,0.0,0.0,0.0,0.0,0.0,0.0,-0.004943404346704483,0.060955487191677094,0.11297792941331863,0.9743228554725647,-0.012499363161623478,-0.06364639103412628,-0.21561484038829803
521.0,0.0,0.0,0.0,0.0,0.0,0.0,-0.0038444185629487038,0.06924771517515182,0.09698137640953064,0.9789021015167236,-0.013266302645206451,-0.04676045849919319,-0.1984715610742569
522.0,0.0,0.0,0.0,0.0,0.0,0.0,0.02661648951470852,-0.019984550774097443,0.020839866250753403,0.9844174385070801,-0.014974428340792656,-0.018692757934331894,-0.17420652508735657
523.0,0.0,0.0,0.0,0.0,0.0,0.0,0.04031867906451225,-0.01016627810895443,0.0051621319726109505,0.9888159036636353,-0.01607520319521427,0.01503004040569067,-0.14750850200653076
524.0,0.0,0.0,0.0,0.0,0.0,0.0,0.029435019940137863,-0.02538321726024151,-0.012356136925518513,0.99057537317276,-0.018190758302807808,0.05041240528225899,-0.12605561316013336
525.0,0.0,0.0,0.0,0.0,0.0,0.0,0.06794987618923187,-0.0141760827973485,-0.05387088656425476,0.9905497431755066,-0.020198578014969826,0.08062208443880081,-0.10910889506340027
526.0,0.0,0.0,0.0,0.0,0.0,0.0,0.08904770761728287,-0.012327673844993114,-0.049688685685396194,0.9900729060173035,-0.019486980512738228,0.10364589095115662,-0.09291929751634598
527.0,0.0,0.0,0.0,0.0,0.0,0.0,0.07867740839719772,-0.05604309216141701,-0.02883382886648178,0.9895362257957458,-0.01965782791376114,0.11648658663034439,-0.0828615054488182
528.0,0.0,0.0,0.0,0.0,0.0,0.0,0.07258257269859314,-0.09835900366306305,-0.029386932030320168,0.9892851114273071,-0.020296374335885048,0.12125476449728012,-0.07876265794038773
529.0,0.0,0.0,0.0,0.0,0.0,0.0,0.06677926331758499,-0.1172977089881897,-0.02768547087907791,0.9895960092544556,-0.020985474810004234,0.12037142366170883,-0.07597779482603073
530.0,0.0,0.0,0.0,0.0,0.0,0.0,0.08521056175231934,-0.09702838957309723,-0.02314552664756775,0.9900825619697571,-0.025352895259857178,0.1167396679520607,-0.07393839955329895
531.0,0.0,0.0,0.0,0.0,0.0,0.0,0.05354627966880798,-0.015587283298373222,-0.047020722180604935,0.990798830986023,-0.028292329981923103,0.11136028170585632,-0.07152905315160751
532.0,0.0,0.0,0.0,0.0,0.0,0.0,0.007649112027138472,-0.022154487669467926,-0.048746414482593536,0.9914988279342651,-0.03034333884716034,0.10395941883325577,-0.07213492691516876
533.0,0.0,0.0,0.0,0.0,0.0,0.0,0.005288505461066961,-0.04368782788515091,-0.05633196979761124,0.9926455616950989,-0.03072657249867916,0.08880670368671417,-0.0763200893998146
534.0,0.0,0.0,0.0,0.0,0.0,0.0,0.024272706359624863,-0.012171855196356773,0.05900629237294197,0.9935855865478516,-0.028813086450099945,0.06963813304901123,-0.08430913835763931
535.0,0.0,0.0,0.0,0.0,0.0,0.0,-0.008071535266935825,0.01705087348818779,0.12461863458156586,0.9936869740486145,-0.027199942618608475,0.051627643406391144,-0.09581947326660156
536.0,0.0,0.0,0.0,0.0,0.0,0.0,-0.004225956741720438,0.01337168924510479,0.05619518458843231,0.9932092428207397,-0.0241326242685318,0.037345193326473236,-0.10751023143529892
537.0,0.0,0.0,0.0,0.0,0.0,0.0,0.03873090818524361,0.0387449786067009,-0.07701579481363297,0.9926109313964844,-0.020535225048661232,0.027054065838456154,-0.11648847907781601
538.0,0.0,0.0,0.0,0.0,0.0,0.0,0.020412106066942215,0.03427853807806969,-0.07637225836515427,0.9920088648796082,-0.01938142068684101,0.019487885758280754,-0.12313452363014221
539.0,0.0,0.0,0.0,0.0,0.0,0.0,0.030698848888278008,0.017999183386564255,-0.11588964611291885,0.9907111525535583,-0.020160039886832237,0.012283879332244396,-0.13391952216625214
540.0,0.0,0.0,0.0,0.0,0.0,0.0,0.04887806624174118,-0.0783572793006897,-0.020259056240320206,0.9883044362068176,-0.022080283612012863,0.005224988330155611,-0.15079985558986664
541.0,0.0,0.0,0.0,0.0,0.0,0.0,0.04846247658133507,-0.05237576737999916,0.0658523440361023,0.9852293729782104,-0.0238017775118351,-0.007049167528748512,-0.16943462193012238
542.0,0.0,0.0,0.0,0.0,0.0,0.0,-0.12242463231086731,-0.020620297640562057,0.07391960918903351,0.9814605712890625,-0.02866372838616371,-0.01783576048910618,-0.18867003917694092
543.0,0.0,0.0,0.0,0.0,0.0,0.0,-0.12120798230171204,0.04087317734956741,0.015946634113788605,0.9785129427909851,-0.03238017112016678,-0.018921831622719765,-0.20275095105171204
544.0,0.0,0.0,0.0,0.0,0.0,0.0,-0.08971703797578812,0.12136295437812805,0.04917164519429207,0.9766107797622681,-0.034540340304374695,-0.023973729461431503,-0.21086464822292328
545.0,0.0,0.0,0.0,0.0,0.0,0.0,-0.13696618378162384,0.0931265577673912,0.051131971180438995,0.9755629301071167,-0.034415069967508316,-0.02795514464378357,-0.2152036726474762
546.0,0.0,0.0,0.0,0.0,0.0,0.0,-0.11518687754869461,0.08828863501548767,0.030804652720689774,0.9760685563087463,-0.03092004917562008,-0.025371666997671127,-0.21375201642513275
547.0,0.0,0.0,0.0,0.0,0.0,0.0,-0.050320908427238464,0.08969181030988693,0.029970869421958923,0.977691113948822,-0.025157516822218895,-0.016853930428624153,-0.2078527808189392
548.0,0.0,0.0,0.0,0.0,0.0,0.0,-0.01766218990087509,0.003520064055919647,0.07559052854776382,0.9795476794242859,-0.018565483391284943,-0.004445320926606655,-0.2003026157617569
549.0,0.0,0.0,0.0,0.0,0.0,0.0,-0.00787430815398693,-0.008116353303194046,0.03668329492211342,0.9811473488807678,-0.009894716553390026,0.012735586613416672,-0.192586749792099
550.0,0.0,0.0,0.0,0.0,0.0,0.0,0.02666923776268959,-0.011926784180104733,-0.023264246061444283,0.9827083945274353,-0.0022147390991449356,0.03558924421668053,-0.1816900670528412
551.0,0.0,0.0,0.0,0.0,0.0,0.0,0.04452505707740784,-0.028209850192070007,-0.06211550161242485,0.9838492274284363,0.007931050844490528,0.05675050988793373,-0.1695825308561325
552.0,0.0,0.0,0.0,0.0,0.0,0.0,0.060733456164598465,-0.060664102435112,-0.08589202910661697,0.9841077327728271,0.017122656106948853,0.07371367514133453,-0.16064143180847168
553.0,0.0,0.0,0.0,0.0,0.0,0.0,0.08861027657985687,-0.14106310904026031,-0.0709318071603775,0.9836952686309814,0.018872778862714767,0.08540131896734238,-0.15713976323604584
554.0,0.0,0.0,0.0,0.0,0.0,0.0,0.07230614125728607,-0.14405451714992523,-0.042052898555994034,0.9822925329208374,0.01855180598795414,0.09265697002410889,-0.1617799699306488
555.0,0.0,0.0,0.0,0.0,0.0,0.0,0.11966133117675781,-0.20211826264858246,-0.05396081879734993,0.9800745844841003,0.0143081434071064,0.09153140336275101,-0.17569856345653534
556.0,0.0,0.0,0.0,0.0,0.0,0.0,0.06361972540616989,-0.1315082460641861,0.03590334206819534,0.9764507412910461,0.00445527071133256,0.08346448093652725,-0.19888892769813538
557.0,0.0,0.0,0.0,0.0,0.0,0.0,-0.04539721831679344,0.09290316700935364,0.08489717543125153,0.9726997017860413,-0.0022263280116021633,0.05965659022331238,-0.22425496578216553
558.0,0.0,0.0,0.0,0.0,0.0,0.0,-0.04634615406394005,0.07423175126314163,0.020617859438061714,0.9673569202423096,-0.005572049412876368,0.027180666103959084,-0.2518928050994873
559.0,0.0,0.0,0.0,0.0,0.0,0.0,-0.11366377770900726,0.0028162519447505474,-0.013947637751698494,0.9624658226966858,-0.010374152101576328,0.0026764022186398506,-0.27118900418281555
560.0,0.0,0.0,0.0,0.0,0.0,0.0,-0.09787285327911377,0.010290048085153103,0.03899165987968445,0.9585948586463928,-0.014428201131522655,-0.01450602151453495,-0.28405052423477173
561.0,0.0,0.0,0.0,0.0,0.0,0.0,-0.09414731711149216,0.048506367951631546,0.014924305491149426,0.9558019638061523,-0.015872040763497353,-0.02722604013979435,-0.2923332154750824
562.0,0.0,0.0,0.0,0.0,0.0,0.0,-0.06821591407060623,0.05952835828065872,0.0026552570052444935,0.9546675682067871,-0.01454225555062294,-0.03625653684139252,-0.2950946092605591
563.0,0.0,0.0,0.0,0.0,0.0,0.0,-0.012105672620236874,0.013865993358194828,-0.020766809582710266,0.9543501138687134,-0.013140041381120682,-0.04208873584866524,-0.2954164743423462
564.0,0.0,0.0,0.0,0.0,0.0,0.0,-0.0011452015023678541,0.025420159101486206,-0.02826087176799774,0.9544252157211304,-0.014602920040488243,-0.04609936475753784,-0.2945098578929901
565.0,0.0,0.0,0.0,0.0,0.0,0.0,-0.01045273058116436,0.04462122917175293,0.0021147713996469975,0.9546892046928406,-0.01738966628909111,-0.046671390533447266,-0.2934112548828125
566.0,0.0,0.0,0.0,0.0,0.0,0.0,-0.0013099052011966705,-0.007811065763235092,0.010313634760677814,0.9549647569656372,-0.019833048805594444,-0.04780812934041023,-0.2921690344810486
567.0,0.0,0.0,0.0,0.0,0.0,0.0,0.028194813057780266,0.018458258360624313,-0.0358838327229023,0.9554006457328796,-0.021950725466012955,-0.05104003846645355,-0.29003214836120605
568.0,0.0,0.0,0.0,0.0,0.0,0.0,0.02370331436395645,0.014965318143367767,-0.026067981496453285,0.9548993706703186,-0.023693013936281204,-0.056014832109212875,-0.2906297743320465
569.0,0.0,0.0,0.0,0.0,0.0,0.0,0.016620740294456482,0.016327518969774246,-0.03437653183937073,0.9539556503295898,-0.02547314390540123,-0.05930096656084061,-0.2929234802722931
570.0,0.0,0.0,0.0,0.0,0.0,0.0,0.014622376300394535,-0.007052632048726082,-0.005812685936689377,0.9535322785377502,-0.03055284544825554,-0.060980115085840225,-0.29346615076065063
571.0,0.0,0.0,0.0,0.0,0.0,0.0,-0.025329969823360443,0.010799632407724857,0.012988939881324768,0.9536308646202087,-0.03636270761489868,-0.06378494948148727,-0.2918911278247833
572.0,0.0,0.0,0.0,0.0,0.0,0.0,-0.041052743792533875,0.0636288970708847,0.019444148987531662,0.9537721872329712,-0.03957977145910263,-0.06679017841815948,-0.2903304696083069
573.0,0.0,0.0,0.0,0.0,0.0,0.0,-0.03832007199525833,0.06871343404054642,-0.00977513287216425,0.9538314342498779,-0.04143586754798889,-0.0698099136352539,-0.28917068243026733
574.0,0.0,0.0,0.0,0.0,0.0,0.0,-0.050078339874744415,0.058928851038217545,0.00785408541560173,0.9543571472167969,-0.04165307804942131,-0.07172378897666931,-0.28692811727523804
575.0,0.0,0.0,0.0,0.0,0.0,0.0,-0.04757855087518692,0.05575501546263695,0.0191692765802145,0.9548119902610779,-0.04005923494696617,-0.07230813801288605,-0.28548967838287354
576.0,0.0,0.0,0.0,0.0,0.0,0.0,-0.020502137020230293,0.045046694576740265,0.022167958319187164,0.9554824829101562,-0.03773106634616852,-0.07167229801416397,-0.2837240695953369
577.0,0.0,0.0,0.0,0.0,0.0,0.0,-0.008073034696280956,0.030960218980908394,0.020651036873459816,0.956430196762085,-0.03535923361778259,-0.07072129100561142,-0.2810448706150055
578.0,0.0,0.0,0.0,0.0,0.0,0.0,-0.011484370566904545,0.02614402398467064,0.0009890379151329398,0.9570918679237366,-0.03279601037502289,-0.07148634642362595,-0.27890676259994507
579.0,0.0,0.0,0.0,0.0,0.0,0.0,0.002480356954038143,0.022289598360657692,-0.0006154394941404462,0.9575207233428955,-0.03057200275361538,-0.07242754101753235,-0.2774524390697479
580.0,0.0,0.0,0.0,0.0,0.0,0.0,-0.003504406427964568,0.01584656536579132,-0.0026997907552868128,0.9578567743301392,-0.02910296805202961,-0.07283492386341095,-0.27632632851600647
581.0,0.0,0.0,0.0,0.0,0.0,0.0,0.011584787629544735,0.013217042200267315,-0.009415230713784695,0.9582505822181702,-0.02788875438272953,-0.07364498823881149,-0.2748718559741974
582.0,0.0,0.0,0.0,0.0,0.0,0.0,0.004849262069910765,0.013705966994166374,-0.019288094714283943,0.9581714868545532,-0.026535071432590485,-0.074970543384552,-0.2749185264110565
583.0,0.0,0.0,0.0,0.0,0.0,0.0,0.004421451594680548,0.002365750027820468,-0.013606755994260311,0.9581301212310791,-0.025856630876660347,-0.07618039846420288,-0.2748012840747833
584.0,0.0,0.0,0.0,0.0,0.0,0.0,-0.0033229896798729897,-0.015353020280599594,-0.011000981554389,0.9582871794700623,-0.026693999767303467,-0.07747029513120651,-0.27381736040115356
585.0,0.0,0.0,0.0,0.0,0.0,0.0,-0.011520509608089924,0.014583389274775982,-0.005022911820560694,0.9588367938995361,-0.027283305302262306,-0.07695512473583221,-0.2719756066799164
586.0,0.0,0.0,0.0,0.0,0.0,0.0,-0.007098137401044369,0.03232218325138092,0.015745293349027634,0.9591460227966309,-0.02697472833096981,-0.07577922195196152,-0.2712377905845642
587.0,0.0,0.0,0.0,0.0,0.0,0.0,-0.006266473792493343,0.0012062240857630968,0.007913954555988312,0.9591652154922485,-0.02557992748916149,-0.07582256197929382,-0.2712913453578949
588.0,0.0,0.0,0.0,0.0,0.0,0.0,0.0033719204366207123,0.021759647876024246,-0.0181028563529253,0.9594619274139404,-0.02387212961912155,-0.07656217366456985,-0.270188570022583
589.0,0.0,0.0,0.0,0.0,0.0,0.0,0.011523495428264141,0.03833042457699776,-0.02345564030110836,0.9599324464797974,-0.022555865347385406,-0.07700945436954498,-0.2685047686100006
590.0,0.0,0.0,0.0,0.0,0.0,0.0,0.02473386377096176,0.013031436130404472,-0.00918827299028635,0.9603464603424072,-0.02219349890947342,-0.07664766907691956,-0.26714131236076355
591.0,0.0,0.0,0.0,0.0,0.0,0.0,0.028890669345855713,0.005727309267967939,0.005687846802175045,0.9606617093086243,-0.022551419213414192,-0.07538972795009613,-0.26633626222610474
592.0,0.0,0.0,0.0,0.0,0.0,0.0,0.039640676230192184,0.002268865704536438,-0.00876810122281313,0.9607287049293518,-0.02378000319004059,-0.07356036454439163,-0.26651057600975037
593.0,0.0,0.0,0.0,0.0,0.0,0.0,0.017015116289258003,0.006812199950218201,-0.007281007245182991,0.9605374932289124,-0.02558579482138157,-0.07225382328033447,-0.26738807559013367
594.0,0.0,0.0,0.0,0.0,0.0,0.0,0.0018067078199237585,0.033822350203990936,-0.04037029296159744,0.9605261087417603,-0.027040353044867516,-0.07010313868522644,-0.26785582304000854
595.0,0.0,0.0,0.0,0.0,0.0,0.0,-0.025650497525930405,0.07419091463088989,-0.03405998647212982,0.961442232131958,-0.029040569439530373,-0.065616175532341,-0.26549163460731506
596.0,0.0,0.0,0.0,0.0,0.0,0.0,-0.028951428830623627,0.10077803581953049,0.008073325268924236,0.9632391333580017,-0.03122590109705925,-0.05952119827270508,-0.26009657979011536
597.0,0.0,0.0,0.0,0.0,0.0,0.0,-0.026179585605859756,0.08106925338506699,0.09677130728960037,0.9660077095031738,-0.031237320974469185,-0.04953337088227272,-0.2517912685871124
598.0,0.0,0.0,0.0,0.0,0.0,0.0,-0.013170483522117138,0.05865013226866722,0.19598810374736786,0.9701569080352783,-0.028299005702137947,-0.034328315407037735,-0.2383669763803482
599.0,0.0,0.0,0.0,0.0,0.0,0.0,-0.031441766768693924,0.04341467097401619,0.13388460874557495,0.975760281085968,-0.025276973843574524,-0.015441621653735638,-0.21682988107204437
600.0,0.0,0.0,0.0,0.0,0.0,0.0,0.035851992666721344,-0.052477262914180756,0.041130974888801575,0.9812347888946533,-0.023859811946749687,0.009498911909759045,-0.19110451638698578
601.0,0.0,0.0,0.0,0.0,0.0,0.0,0.08136162161827087,-0.0003961544716730714,-0.03602229803800583,0.9852801561355591,-0.020868314430117607,0.04140910878777504,-0.16454766690731049
602.0,0.0,0.0,0.0,0.0,0.0,0.0,0.06673119217157364,-0.05029324069619179,-0.01385565847158432,0.9863239526748657,-0.020251909270882607,0.0775897428393364,-0.14399345219135284
603.0,0.0,0.0,0.0,0.0,0.0,0.0,0.07935605198144913,-0.08168669044971466,0.011258264072239399,0.9855815172195435,-0.02008661814033985,0.10993510484695435,-0.12704269587993622
604.0,0.0,0.0,0.0,0.0,0.0,0.0,0.12950235605239868,0.007362730335444212,-0.07694956660270691,0.9848959445953369,-0.016239171847701073,0.13056400418281555,-0.11255402863025665
605.0,0.0,0.0,0.0,0.0,0.0,0.0,0.10292641818523407,-0.021658333018422127,-0.10535194724798203,0.9846118688583374,-0.011631108820438385,0.14131581783294678,-0.102151058614254
606.0,0.0,0.0,0.0,0.0,0.0,0.0,0.08812417089939117,-0.13098964095115662,-0.03882180154323578,0.9848254919052124,-0.01057292427867651,0.14230535924434662,-0.09876972436904907
607.0,0.0,0.0,0.0,0.0,0.0,0.0,0.09238840639591217,-0.08202479779720306,-0.027209408581256866,0.9857041239738464,-0.008307176642119884,0.13706767559051514,-0.0976206436753273
608.0,0.0,0.0,0.0,0.0,0.0,0.0,0.10325204581022263,-0.057867079973220825,0.00521891750395298,0.9865313172340393,-0.008576844818890095,0.13064207136631012,-0.09805808216333389
609.0,0.0,0.0,0.0,0.0,0.0,0.0,0.08627097308635712,-0.08531299233436584,-0.01284595113247633,0.9871181845664978,-0.013092233799397945,0.1255284547805786,-0.09833873808383942
610.0,0.0,0.0,0.0,0.0,0.0,0.0,0.04112238436937332,-0.04825294390320778,-0.011591540649533272,0.9876686930656433,-0.016222959384322166,0.12154310196638107,-0.09733353555202484
611.0,0.0,0.0,0.0,0.0,0.0,0.0,0.03484734892845154,-0.012191583402454853,0.011363537982106209,0.9881774187088013,-0.01741006411612034,0.11658044904470444,-0.09804190695285797
612.0,0.0,0.0,0.0,0.0,0.0,0.0,0.05235469713807106,-0.013787217438220978,0.03816092014312744,0.9886935949325562,-0.01787305437028408,0.11167479306459427,-0.09846460819244385
613.0,0.0,0.0,0.0,0.0,0.0,0.0,0.05105799436569214,-0.008170551620423794,0.02066904306411743,0.9890221357345581,-0.01792233996093273,0.1093243882060051,-0.09778328239917755
614.0,0.0,0.0,0.0,0.0,0.0,0.0,0.044060323387384415,-0.023218650370836258,0.010647390969097614,0.9893202185630798,-0.01818937063217163,0.1069847121834755,-0.09730979055166245
615.0,0.0,0.0,0.0,0.0,0.0,0.0,0.040070950984954834,-0.021785007789731026,-0.03325369954109192,0.98970627784729,-0.017967263236641884,0.10186703503131866,-0.09890983998775482
616.0,0.0,0.0,0.0,0.0,0.0,0.0,0.04171820357441902,-0.053683802485466,-0.07575156539678574,0.9899367094039917,-0.01787526346743107,0.09138114005327225,-0.10656323283910751
617.0,0.0,0.0,0.0,0.0,0.0,0.0,0.06918086856603622,-0.06229120120406151,-0.08567321300506592,0.9895100593566895,-0.01646496169269085,0.07189253717660904,-0.1242205798625946
618.0,0.0,0.0,0.0,0.0,0.0,0.0,0.11452420055866241,-0.06487488746643066,-0.005266523454338312,0.9873814582824707,-0.015835313126444817,0.04656388983130455,-0.15052944421768188
619.0,0.0,0.0,0.0,0.0,0.0,0.0,0.047118134796619415,-0.062235213816165924,0.0900600329041481,0.9837534427642822,-0.018256332725286484,0.019759424030780792,-0.17749550938606262
620.0,0.0,0.0,0.0,0.0,0.0,0.0,-0.10462870448827744,-0.0612771101295948,0.15662629902362823,0.979272186756134,-0.021643897518515587,0.0005682289483956993,-0.20138710737228394
621.0,0.0,0.0,0.0,0.0,0.0,0.0,-0.10035150498151779,0.05927432328462601,0.1282680779695511,0.975897490978241,-0.02286580018699169,-0.013713409192860126,-0.2165922075510025
622.0,0.0,0.0,0.0,0.0,0.0,0.0,-0.1122259870171547,0.0801144391298294,0.024965502321720123,0.973887026309967,-0.023934099823236465,-0.022218389436602592,-0.22467172145843506
623.0,0.0,0.0,0.0,0.0,0.0,0.0,0.005733318626880646,0.0635683462023735,-0.06458353251218796,0.9745035767555237,-0.02169160731136799,-0.01695021614432335,-0.2226770967245102
624.0,0.0,0.0,0.0,0.0,0.0,0.0,0.03217393904924393,0.023459797725081444,-0.015520916320383549,0.9761539101600647,-0.018101824447512627,0.0019106310792267323,-0.21631589531898499
625.0,0.0,0.0,0.0,0.0,0.0,0.0,0.013631504960358143,-0.015967203304171562,0.05449409782886505,0.9779373407363892,-0.015062292106449604,0.0314611978828907,-0.20596925914287567
626.0,0.0,0.0,0.0,0.0,0.0,0.0,0.042111143469810486,0.03388724848628044,-0.012435661628842354,0.9793661236763,-0.01076824963092804,0.06494078785181046,-0.19108526408672333
627.0,0.0,0.0,0.0,0.0,0.0,0.0,0.05712888017296791,-0.016046075150370598,-0.05447445064783096,0.9794999361038208,-0.007837215438485146,0.08625582605600357,-0.18187831342220306
628.0,0.0,0.0,0.0,0.0,0.0,0.0,0.03782574459910393,-0.023709826171398163,-0.027553005144000053,0.9791080951690674,-0.0076390537433326244,0.0930674746632576,-0.18063288927078247
629.0,0.0,0.0,0.0,0.0,0.0,0.0,0.06115775555372238,-0.04568316787481308,-0.021480955183506012,0.9781763553619385,-0.007046265993267298,0.08720871061086655,-0.18846558034420013
630.0,0.0,0.0,0.0,0.0,0.0,0.0,0.08526197820901871,-0.07714956998825073,-0.01461171917617321,0.9765183925628662,-0.0071409218944609165,0.07605332881212234,-0.2014418989419937
631.0,0.0,0.0,0.0,0.0,0.0,0.0,0.056433286517858505,-0.01980005018413067,0.010859145782887936,0.9742762446403503,-0.011343088932335377,0.05981157720088959,-0.21697956323623657
632.0,0.0,0.0,0.0,0.0,0.0,0.0,0.046161603182554245,0.028694307431578636,-0.02763591706752777,0.9721684455871582,-0.0192426610738039,0.04265624284744263,-0.2295667976140976
633.0,0.0,0.0,0.0,0.0,0.0,0.0,0.01444007083773613,-0.04437318816781044,-0.016302332282066345,0.970255434513092,-0.028438296169042587,0.033583953976631165,-0.23805981874465942
634.0,0.0,0.0,0.0,0.0,0.0,0.0,-0.046192243695259094,0.007561075501143932,-0.015686258673667908,0.9696165323257446,-0.037488412111997604,0.0321643240749836,-0.23959624767303467
635.0,0.0,0.0,0.0,0.0,0.0,0.0,-0.027063416317105293,0.06954368203878403,-0.008896187879145145,0.9704811573028564,-0.045077964663505554,0.03315114974975586,-0.23459139466285706
636.0,0.0,0.0,0.0,0.0,0.0,0.0,-0.02063523605465889,0.04896931350231171,0.036168135702610016,0.9715967178344727,-0.050009556114673615,0.03517119586467743,-0.2286079078912735
637.0,0.0,0.0,0.0,0.0,0.0,0.0,-0.0014945795992389321,-0.006712131667882204,0.043996743857860565,0.9725208282470703,-0.05233987420797348,0.036429453641176224,-0.22391735017299652
638.0,0.0,0.0,0.0,0.0,0.0,0.0,0.02613416127860546,-0.013967429287731647,-0.004029180854558945,0.9731411933898926,-0.05483049154281616,0.038534268736839294,-0.22023577988147736
639.0,0.0,0.0,0.0,0.0,0.0,0.0,0.014186122454702854,0.011423654854297638,0.013457008637487888,0.9738898873329163,-0.05698733031749725,0.04088493436574936,-0.21591585874557495
640.0,0.0,0.0,0.0,0.0,0.0,0.0,0.006716740317642689,-0.005163727793842554,0.025711001828312874,0.9745584726333618,-0.05731558799743652,0.04387956112623215,-0.21218788623809814
641.0,0.0,0.0,0.0,0.0,0.0,0.0,0.0443587601184845,-0.04114087298512459,-0.020504523068666458,0.9746519327163696,-0.05856507271528244,0.04701951518654823,-0.21074964106082916
642.0,0.0,0.0,0.0,0.0,0.0,0.0,0.03210391849279404,-0.03787165880203247,-0.0038455987814813852,0.9745796918869019,-0.05992885306477547,0.05106893926858902,-0.20974408090114594
643.0,0.0,0.0,0.0,0.0,0.0,0.0,0.005368079524487257,0.002163488185033202,0.003684775438159704,0.9747573733329773,-0.05989033728837967,0.05536748468875885,-0.20784485340118408
644.0,0.0,0.0,0.0,0.0,0.0,0.0,0.01690755970776081,0.014035624451935291,-0.000669078144710511,0.975098729133606,-0.059846971184015274,0.05973934382200241,-0.20501430332660675
645.0,0.0,0.0,0.0,0.0,0.0,0.0,0.008895392529666424,0.018218940123915672,0.006204846780747175,0.9754952788352966,-0.05993327498435974,0.0660182312130928,-0.2011571079492569
646.0,0.0,0.0,0.0,0.0,0.0,0.0,0.021368395537137985,0.02059454284608364,0.010326030664145947,0.9760734438896179,-0.058487668633461,0.07174097746610641,-0.19676867127418518
647.0,0.0,0.0,0.0,0.0,0.0,0.0,0.03574250265955925,0.017795633524656296,0.011473486199975014,0.9765427112579346,-0.055938709527254105,0.07536568492650986,-0.19380347430706024
648.0,0.0,0.0,0.0,0.0,0.0,0.0,0.02890033833682537,0.015988275408744812,0.025464070960879326,0.9766461849212646,-0.053268808871507645,0.07904202491044998,-0.19256113469600677
649.0,0.0,0.0,0.0,0.0,0.0,0.0,0.02965989150106907,0.04500830918550491,0.00634447718039155,0.9768957495689392,-0.05014751851558685,0.08201747387647629,-0.19088207185268402
650.0,0.0,0.0,0.0,0.0,0.0,0.0,0.025181081146001816,0.043729331344366074,0.02477932535111904,0.9771843552589417,-0.04569047689437866,0.08310331404209137,-0.1900520622730255
651.0,0.0,0.0,0.0,0.0,0.0,0.0,0.043480757623910904,0.023943893611431122,0.021431852132081985,0.9773677587509155,-0.040843937546014786,0.08386089652776718,-0.18987251818180084
652.0,0.0,0.0,0.0,0.0,0.0,0.0,0.1330074518918991,0.00433887867256999,-0.08415859937667847,0.9779163002967834,-0.035200394690036774,0.08182412385940552,-0.18907134234905243
653.0,0.0,0.0,0.0,0.0,0.0,0.0,0.06478719413280487,-0.01684517040848732,0.010258154943585396,0.9781002402305603,-0.03298521041870117,0.080585777759552,-0.18904270231723785
654.0,0.0,0.0,0.0,0.0,0.0,0.0,0.04247843101620674,-0.0205405093729496,0.015055791474878788,0.978285551071167,-0.03222686052322388,0.0793263241648674,-0.18875014781951904
655.0,0.0,0.0,0.0,0.0,0.0,0.0,0.02408537082374096,-0.010909759439527988,0.020578481256961823,0.9785309433937073,-0.031611233949661255,0.07721702754497528,-0.1884607970714569
656.0,0.0,0.0,0.0,0.0,0.0,0.0,0.019992250949144363,-0.013660168275237083,0.018103525042533875,0.9786790609359741,-0.03044978715479374,0.07450239360332489,-0.18897652626037598
657.0,0.0,0.0,0.0,0.0,0.0,0.0,0.019205814227461815,-0.017138972878456116,-0.0018702656961977482,0.9789018630981445,-0.028577640652656555,0.07259122282266617,-0.1888531893491745
658.0,0.0,0.0,0.0,0.0,0.0,0.0,0.02497396059334278,-0.024556299671530724,0.015338700264692307,0.9791039228439331,-0.026768051087856293,0.0711873397231102,-0.1886112093925476
659.0,0.0,0.0,0.0,0.0,0.0,0.0,0.021727005019783974,-0.03461253643035889,0.01977204717695713,0.9792022109031677,-0.025259245187044144,0.06934591382741928,-0.18898479640483856
660.0,0.0,0.0,0.0,0.0,0.0,0.0,0.018329497426748276,-0.03908476233482361,0.012634919956326485,0.9792976379394531,-0.023051215335726738,0.06770572811365128,-0.18936793506145477
661.0,0.0,0.0,0.0,0.0,0.0,0.0,0.014779618009924889,-0.032113391906023026,0.005774079356342554,0.9793870449066162,-0.02069179341197014,0.06718514114618301,-0.18936878442764282
662.0,0.0,0.0,0.0,0.0,0.0,0.0,0.015432757325470448,-0.03227825090289116,0.01341981254518032,0.979516327381134,-0.018434183672070503,0.06695301085710526,-0.18900777399539948
663.0,0.0,0.0,0.0,0.0,0.0,0.0,0.014108868315815926,-0.03333541005849838,0.011949771083891392,0.9797359108924866,-0.016210725530982018,0.06686030328273773,-0.18810904026031494
664.0,0.0,0.0,0.0,0.0,0.0,0.0,0.012027746066451073,-0.03436698019504547,0.0253449659794569,0.9802045822143555,-0.014001276344060898,0.06637701392173767,-0.1859973669052124
665.0,0.0,0.0,0.0,0.0,0.0,0.0,0.012259623035788536,-0.019187038764357567,0.015781577676534653,0.9807411432266235,-0.011761785484850407,0.06548359245061874,-0.18363387882709503
666.0,0.0,0.0,0.0,0.0,0.0,0.0,0.031366828829050064,-0.01834067516028881,0.01057142298668623,0.9812430143356323,-0.009184594266116619,0.061578284949064255,-0.18245144188404083
667.0,0.0,0.0,0.0,0.0,0.0,0.0,0.03046996332705021,-0.04654230922460556,-0.006945968605577946,0.9815263748168945,-0.008332226425409317,0.05635092407464981,-0.1826489120721817
668.0,0.0,0.0,0.0,0.0,0.0,0.0,0.08300922811031342,-0.06080044060945511,0.0013355172704905272,0.9818039536476135,-0.009692688472568989,0.051077235490083694,-0.18264834582805634
669.0,0.0,0.0,0.0,0.0,0.0,0.0,0.0595817007124424,-0.029096197336912155,0.024414662271738052,0.981615424156189,-0.013151528313755989,0.043877944350242615,-0.18529275059700012
670.0,0.0,0.0,0.0,0.0,0.0,0.0,-0.022471744567155838,0.07982028275728226,-0.044736046344041824,0.9815804362297058,-0.016750046983361244,0.03731202706694603,-0.18662580847740173
671.0,0.0,0.0,0.0,0.0,0.0,0.0,-0.04875645041465759,0.07221852988004684,-0.03348974138498306,0.9819082617759705,-0.021782536059617996,0.03158530592918396,-0.1854267567396164
672.0,0.0,0.0,0.0,0.0,0.0,0.0,-0.06420069187879562,0.05195976048707962,0.040582768619060516,0.9824485182762146,-0.025912094861268997,0.02707059122622013,-0.18273326754570007
673.0,0.0,0.0,0.0,0.0,0.0,0.0,-0.07182887196540833,0.06629268825054169,0.043175797909498215,0.9831662178039551,-0.028339078649878502,0.023940568789839745,-0.17890411615371704
674.0,0.0,0.0,0.0,0.0,0.0,0.0,-0.03701021522283554,0.0464215986430645,0.022566597908735275,0.9839469790458679,-0.030348822474479675,0.021829741075634956,-0.17450019717216492
675.0,0.0,0.0,0.0,0.0,0.0,0.0,-0.02757718414068222,0.017820481210947037,0.03383535146713257,0.9846131801605225,-0.030930209904909134,0.018506960943341255,-0.17098958790302277
676.0,0.0,0.0,0.0,0.0,0.0,0.0,-0.025117741897702217,-0.0027928135823458433,0.030234334990382195,0.9851049184799194,-0.030417168512940407,0.01409513596445322,-0.16865456104278564
677.0,0.0,0.0,0.0,0.0,0.0,0.0,-0.022667301818728447,-0.028455907478928566,0.021334923803806305,0.9855186343193054,-0.030403563752770424,0.010061834007501602,-0.16652324795722961
678.0,0.0,0.0,0.0,0.0,0.0,0.0,-0.022856347262859344,-0.02675299160182476,0.024509664624929428,0.9859604835510254,-0.029751190915703773,0.006326132919639349,-0.16418062150478363
679.0,0.0,0.0,0.0,0.0,0.0,0.0,-0.0063440254889428616,-0.018315378576517105,0.005984663963317871,0.9862647652626038,-0.029454940930008888,0.0019699414260685444,-0.16251718997955322
680.0,0.0,0.0,0.0,0.0,0.0,0.0,-0.0031188237480819225,-0.020549794659018517,-0.013377134688198566,0.9865735173225403,-0.029769646003842354,-0.0010704727610573173,-0.16058537364006042
681.0,0.0,0.0,0.0,0.0,0.0,0.0,0.0008165036560967565,-0.03432581201195717,0.0024743976537138224,0.9868237376213074,-0.03042791411280632,-0.004006443545222282,-0.1588640958070755
682.0,0.0,0.0,0.0,0.0,0.0,0.0,-0.002116246148943901,-0.025256797671318054,0.0010034720180556178,0.98692786693573,-0.03070831298828125,-0.009039494208991528,-0.1579550802707672
683.0,0.0,0.0,0.0,0.0,0.0,0.0,-0.009117758832871914,-0.012548086233437061,-0.017591295763850212,0.9870811104774475,-0.0298021137714386,-0.014914133585989475,-0.15672153234481812
684.0,0.0,0.0,0.0,0.0,0.0,0.0,-0.011880362406373024,-0.013074509799480438,-0.004838036373257637,0.9872062802314758,-0.02811759151518345,-0.02037261426448822,-0.15562929213047028
685.0,0.0,0.0,0.0,0.0,0.0,0.0,-0.016202297061681747,-0.012672418728470802,-0.0006267328863032162,0.98731929063797,-0.025725116953253746,-0.026934638619422913,-0.15431571006774902
686.0,0.0,0.0,0.0,0.0,0.0,0.0,-0.013118543662130833,-0.009997552260756493,-0.018712105229496956,0.9874283671379089,-0.022601453587412834,-0.03317971155047417,-0.15288741886615753
687.0,0.0,0.0,0.0,0.0,0.0,0.0,-0.011777577921748161,-0.006664793007075787,0.013678664341568947,0.9877081513404846,-0.018310248851776123,-0.03808427229523659,-0.15049739181995392
688.0,0.0,0.0,0.0,0.0,0.0,0.0,-0.013819488696753979,0.018313908949494362,0.06618723273277283,0.9884811639785767,-0.012657469138503075,-0.04150914400815964,-0.14498820900917053
689.0,0.0,0.0,0.0,0.0,0.0,0.0,-0.005451970733702183,0.028644675388932228,0.18262076377868652,0.9904679656028748,-0.005678643472492695,-0.03672631457448006,-0.1326414942741394
690.0,0.0,0.0,0.0,0.0,0.0,0.0,-0.01565893180668354,-0.0021902790758758783,0.09414873272180557,0.9936631917953491,-0.000893535849172622,-0.019657067954540253,-0.11066563427448273
691.0,0.0,0.0,0.0,0.0,0.0,0.0,-0.020733671262860298,-0.02545187994837761,-0.08502752333879471,0.9958040714263916,0.008870702236890793,0.0030990259256213903,-0.09102623909711838
692.0,0.0,0.0,0.0,0.0,0.0,0.0,0.06140896677970886,-0.0941101685166359,-0.036803148686885834,0.9964049458503723,0.019891131669282913,0.026841478422284126,-0.07785598188638687
693.0,0.0,0.0,0.0,0.0,0.0,0.0,0.020173940807580948,-0.018394945189356804,0.009207887575030327,0.995797336101532,0.020639551803469658,0.059868551790714264,-0.06616225093603134
694.0,0.0,0.0,0.0,0.0,0.0,0.0,0.07781408727169037,-0.02990451455116272,-0.034129828214645386,0.9940565228462219,0.020228583365678787,0.09231290221214294,-0.054055940359830856
695.0,0.0,0.0,0.0,0.0,0.0,0.0,0.09863046556711197,-0.05386194586753845,-0.10017889738082886,0.9929935932159424,0.024107767269015312,0.10835593193769455,-0.04050721228122711
696.0,0.0,0.0,0.0,0.0,0.0,0.0,0.0623445063829422,-0.12308521568775177,-0.043690863996744156,0.9927733540534973,0.023325594142079353,0.11285997927188873,-0.033455606549978256
697.0,0.0,0.0,0.0,0.0,0.0,0.0,0.045010630041360855,-0.1264645755290985,-0.023957259953022003,0.9930155277252197,0.021105898544192314,0.11231694370508194,-0.029311444610357285
698.0,0.0,0.0,0.0,0.0,0.0,0.0,0.054505158215761185,-0.07149791717529297,-0.020930463448166847,0.9935268759727478,0.01843332126736641,0.10885438323020935,-0.026774777099490166
699.0,0.0,0.0,0.0,0.0,0.0,0.0,0.03302546218037605,-0.043253343552351,0.005520246922969818,0.993975818157196,0.010747553780674934,0.10533568263053894,-0.02831193432211876
700.0,0.0,0.0,0.0,0.0,0.0,0.0,-0.006580101326107979,-0.02205558679997921,-0.02645925059914589,0.9943404197692871,0.004682733211666346,0.10142510384321213,-0.031287867575883865
701.0,0.0,0.0,0.0,0.0,0.0,0.0,-0.02393377386033535,-0.019415227696299553,-0.04286175221204758,0.9949800968170166,0.00029898720094934106,0.0934712365269661,-0.03573716804385185
702.0,0.0,0.0,0.0,0.0,0.0,0.0,0.0011383664095774293,-0.03065851703286171,0.00022291488130576909,0.9961138367652893,-0.0026404252275824547,0.07853704690933228,-0.03978199139237404
703.0,0.0,0.0,0.0,0.0,0.0,0.0,0.015259478241205215,0.045720528811216354,0.0035010087303817272,0.996971070766449,-0.004864290356636047,0.06336680799722672,-0.04483389854431152
704.0,0.0,0.0,0.0,0.0,0.0,0.0,0.00974954292178154,0.04348358139395714,-0.031106509268283844,0.9973417520523071,-0.00907869078218937,0.0516371987760067,-0.05060451850295067
705.0,0.0,0.0,0.0,0.0,0.0,0.0,-0.014900998212397099,0.010267412289977074,-0.07802747935056686,0.997374951839447,-0.014778384007513523,0.038829755038022995,-0.0593067891895771
706.0,0.0,0.0,0.0,0.0,0.0,0.0,-0.003096928820014,0.020248787477612495,-0.05011560022830963,0.9968934059143066,-0.019429398700594902,0.02087240107357502,-0.07342024147510529
707.0,0.0,0.0,0.0,0.0,0.0,0.0,0.013561281375586987,0.003547158557921648,-0.02696344442665577,0.9952494502067566,-0.02154751867055893,0.0008127291803248227,-0.09494227916002274
708.0,0.0,0.0,0.0,0.0,0.0,0.0,0.06892175227403641,-0.06647475063800812,-0.006636620499193668,0.9916592836380005,-0.023381948471069336,-0.020066916942596436,-0.12515276670455933
709.0,0.0,0.0,0.0,0.0,0.0,0.0,-0.016192637383937836,-0.058250416070222855,0.05381864681839943,0.9864482283592224,-0.026736054569482803,-0.04175626486539841,-0.15640129148960114
710.0,0.0,0.0,0.0,0.0,0.0,0.0,-0.16895298659801483,-0.01244830247014761,0.08537522703409195,0.9815738797187805,-0.028925422579050064,-0.05173115432262421,-0.18166396021842957
711.0,0.0,0.0,0.0,0.0,0.0,0.0,-0.15382906794548035,0.09983735531568527,0.042833514511585236,0.978862464427948,-0.03117198683321476,-0.05368993803858757,-0.19487640261650085
712.0,0.0,0.0,0.0,0.0,0.0,0.0,-0.12343326956033707,0.11405104398727417,0.024754147976636887,0.978364109992981,-0.035309646278619766,-0.05024809390306473,-0.19756333529949188
713.0,0.0,0.0,0.0,0.0,0.0,0.0,-0.07545235753059387,0.03720353916287422,-0.0019587872084230185,0.9799821972846985,-0.035314176231622696,-0.03495866432785988,-0.19278712570667267
714.0,0.0,0.0,0.0,0.0,0.0,0.0,-0.06516528129577637,0.02999836951494217,0.039535485208034515,0.9825904369354248,-0.0277127455919981,-0.013368711806833744,-0.18321233987808228
715.0,0.0,0.0,0.0,0.0,0.0,0.0,-0.0868058055639267,0.015468698926270008,-0.01142831426113844,0.9852898716926575,-0.01878967136144638,0.009615020826458931,-0.169584259390831
716.0,0.0,0.0,0.0,0.0,0.0,0.0,-0.014239484444260597,0.011249278672039509,-0.010803340934216976,0.9880910515785217,-0.011137132532894611,0.03051823377609253,-0.15040354430675507
717.0,0.0,0.0,0.0,0.0,0.0,0.0,0.0034683195408433676,-0.020744018256664276,0.0023171703796833754,0.9893473982810974,-0.00770568335428834,0.04291732981801033,-0.1388893723487854
718.0,0.0,0.0,0.0,0.0,0.0,0.0,-0.042024388909339905,-0.04484763368964195,-0.005013509653508663,0.98932284116745,-0.005962471477687359,0.045959051698446274,-0.13817855715751648
719.0,0.0,0.0,0.0,0.0,0.0,0.0,0.013881370425224304,-0.053108099848032,-0.037371594458818436,0.9886899590492249,-0.004148874897509813,0.039289120584726334,-0.14467664062976837
720.0,0.0,0.0,0.0,0.0,0.0,0.0,0.027538258582353592,-0.06616920232772827,0.000996799673885107,0.9866455793380737,-0.008768614381551743,0.031644824892282486,-0.1595466285943985
721.0,0.0,0.0,0.0,0.0,0.0,0.0,-0.0008758535259403288,0.03559697046875954,0.02307906001806259,0.9837400913238525,-0.02194286324083805,0.023460421711206436,-0.17670059204101562
722.0,0.0,0.0,0.0,0.0,0.0,0.0,-0.01265492383390665,0.005808891728520393,-0.023595165461301804,0.9814645051956177,-0.03848537802696228,0.018845073878765106,-0.18679532408714294
723.0,0.0,0.0,0.0,0.0,0.0,0.0,-0.08654072880744934,-0.020611533895134926,0.011968594044446945,0.9808966517448425,-0.049807991832494736,0.02745385281741619,-0.18602947890758514
724.0,0.0,0.0,0.0,0.0,0.0,0.0,-0.03340699151158333,0.01946382224559784,0.0330624021589756,0.9814926385879517,-0.05549553036689758,0.04017748683691025,-0.17882713675498962
725.0,0.0,0.0,0.0,0.0,0.0,0.0,-0.01634845696389675,0.001421042368747294,0.07348942756652832,0.9824283719062805,-0.05669239163398743,0.0539778396487236,-0.16943667829036713
726.0,0.0,0.0,0.0,0.0,0.0,0.0,-0.04381466656923294,-0.015839656814932823,0.10864556580781937,0.9836406111717224,-0.056623440235853195,0.07452324032783508,-0.15392062067985535
727.0,0.0,0.0,0.0,0.0,0.0,0.0,0.006967071443796158,0.04373529553413391,-0.029266178607940674,0.9846339821815491,-0.05305198207497597,0.09498228132724762,-0.1366007924079895
728.0,0.0,0.0,0.0,0.0,0.0,0.0,0.057884808629751205,-0.020895207300782204,-0.04802772402763367,0.9849488735198975,-0.05157511681318283,0.10585018992424011,-0.12653858959674835
729.0,0.0,0.0,0.0,0.0,0.0,0.0,0.03751344606280327,0.003650131868198514,-0.0047378744930028915,0.9850098490715027,-0.052639417350292206,0.11212090402841568,-0.12006599456071854
730.0,0.0,0.0,0.0,0.0,0.0,0.0,0.03512677177786827,-0.016815204173326492,-0.03493395447731018,0.9851813912391663,-0.051489055156707764,0.11166587471961975,-0.1195778176188469
731.0,0.0,0.0,0.0,0.0,0.0,0.0,0.04246462136507034,-0.06940058618783951,-0.03865402564406395,0.9846943020820618,-0.0509682297706604,0.10800842940807343,-0.1269400417804718
732.0,0.0,0.0,0.0,0.0,0.0,0.0,0.03984299302101135,-0.045281894505023956,-0.01783182844519615,0.9841635823249817,-0.051083482801914215,0.09904860705137253,-0.13785576820373535
733.0,0.0,0.0,0.0,0.0,0.0,0.0,0.04039425775408745,0.010510541498661041,-0.013037526048719883,0.983137845993042,-0.051459141075611115,0.0866578221321106,-0.15259377658367157
734.0,0.0,0.0,0.0,0.0,0.0,0.0,0.04693927243351936,0.02638651803135872,-0.008584628812968731,0.9814314246177673,-0.0525968074798584,0.07376791536808014,-0.16906815767288208
735.0,0.0,0.0,0.0,0.0,0.0,0.0,0.022908363491296768,0.03560440242290497,0.023202694952487946,0.979682981967926,-0.0541105791926384,0.05870545282959938,-0.18397900462150574
736.0,0.0,0.0,0.0,0.0,0.0,0.0,-0.004284550901502371,0.02669275924563408,0.06112503260374069,0.9780448079109192,-0.055983953177928925,0.048020511865615845,-0.19491161406040192
737.0,0.0,0.0,0.0,0.0,0.0,0.0,-0.009862085804343224,0.06980286538600922,0.024394627660512924,0.9769424796104431,-0.057479314506053925,0.04097283259034157,-0.2015032321214676
738.0,0.0,0.0,0.0,0.0,0.0,0.0,-0.03885715827345848,0.06410336494445801,0.055136438459157944,0.9762926697731018,-0.058019351214170456,0.034645840525627136,-0.2056317776441574
739.0,0.0,0.0,0.0,0.0,0.0,0.0,-0.025392921641469002,0.0447690524160862,0.035198431462049484,0.9761286377906799,-0.05708855390548706,0.029438072815537453,-0.20748594403266907
740.0,0.0,0.0,0.0,0.0,0.0,0.0,0.024094006046652794,0.039854783564805984,-0.0022802704479545355,0.9763809442520142,-0.05514664575457573,0.024756548926234245,-0.20742957293987274
741.0,0.0,0.0,0.0,0.0,0.0,0.0,0.04069942981004715,0.007832411676645279,0.003981344401836395,0.9768148064613342,-0.05261700972914696,0.021215097978711128,-0.20643402636051178
742.0,0.0,0.0,0.0,0.0,0.0,0.0,0.029270773753523827,-0.0016579853836447,-0.013640393503010273,0.977087676525116,-0.051126495003700256,0.018466291949152946,-0.2057720124721527
743.0,0.0,0.0,0.0,0.0,0.0,0.0,0.030028969049453735,-0.005485421046614647,-0.021763194352388382,0.9771224856376648,-0.051619093865156174,0.015546263195574284,-0.20572911202907562
744.0,0.0,0.0,0.0,0.0,0.0,0.0,0.025590380653738976,-0.0203964002430439,-0.005616648122668266,0.9771749973297119,-0.053649354726076126,0.012601491063833237,-0.20516151189804077
745.0,0.0,0.0,0.0,0.0,0.0,0.0,0.006274618674069643,0.0008613116806373,0.00135998020414263,0.9772356152534485,-0.054389238357543945,0.009371471591293812,-0.2048492431640625
746.0,0.0,0.0,0.0,0.0,0.0,0.0,-0.010365857742726803,0.00039334496250376105,0.010235327295958996,0.9770410656929016,-0.05375910550355911,0.005422562826424837,-0.20608769357204437
747.0,0.0,0.0,0.0,0.0,0.0,0.0,-0.0263021569699049,0.013957280665636063,0.001717119012027979,0.976926326751709,-0.05203290283679962,0.0024645300582051277,-0.2071300894021988
748.0,0.0,0.0,0.0,0.0,0.0,0.0,-0.018950724974274635,0.027506215497851372,-0.012187383137643337,0.9769772291183472,-0.050192754715681076,0.0004879426269326359,-0.20736657083034515
749.0,0.0,0.0,0.0,0.0,0.0,0.0,-0.029084276407957077,0.007982496172189713,0.023947207257151604,0.977127194404602,-0.048078086227178574,-0.0005738313775509596,-0.20714347064495087
750.0,0.0,0.0,0.0,0.0,0.0,0.0,-0.027063429355621338,-0.0029110496398061514,0.02756481245160103,0.9775235652923584,-0.0449226088821888,-0.0012168427929282188,-0.20597031712532043
751.0,0.0,0.0,0.0,0.0,0.0,0.0,-0.003702042158693075,0.004537365864962339,-0.0064535667188465595,0.9781330823898315,-0.04167400300502777,-0.0018492703093215823,-0.2037564218044281
752.0,0.0,0.0,0.0,0.0,0.0,0.0,-0.00044231288484297693,-0.009311159141361713,0.015841595828533173,0.9785395860671997,-0.039362408220767975,-0.004413145128637552,-0.20222416520118713
753.0,0.0,0.0,0.0,0.0,0.0,0.0,-0.007674706168472767,0.0047170850448310375,0.006629068870097399,0.9788105487823486,-0.03619582578539848,-0.007959853857755661,-0.20138487219810486
754.0,0.0,0.0,0.0,0.0,0.0,0.0,0.009944790042936802,0.007540755905210972,-0.044266775250434875,0.9791561365127563,-0.03363978862762451,-0.011749377474188805,-0.1999567598104477
755.0,0.0,0.0,0.0,0.0,0.0,0.0,0.019383884966373444,-0.017965618520975113,-0.03474481776356697,0.9794293642044067,-0.03429445996880531,-0.013975310139358044,-0.19835585355758667
756.0,0.0,0.0,0.0,0.0,0.0,0.0,0.010144885629415512,-0.0159328430891037,0.00608508475124836,0.9794248938560486,-0.036654505878686905,-0.015700915828347206,-0.19783268868923187
757.0,0.0,0.0,0.0,0.0,0.0,0.0,-0.004518141504377127,-0.004312559030950069,-0.010226431302726269,0.9792956709861755,-0.04043404385447502,-0.017293164506554604,-0.19760878384113312
758.0,0.0,0.0,0.0,0.0,0.0,0.0,-0.014254827052354813,0.0008483738638460636,-0.014924263581633568,0.9794761538505554,-0.04456336796283722,-0.016783572733402252,-0.1958562433719635
759.0,0.0,0.0,0.0,0.0,0.0,0.0,-0.027978235855698586,0.021115534007549286,0.006204050034284592,0.9799914360046387,-0.048336487263441086,-0.014731749892234802,-0.19252967834472656
760.0,0.0,0.0,0.0,0.0,0.0,0.0,-0.010474272072315216,0.004859998822212219,0.04513651132583618,0.9806529879570007,-0.050919245928525925,-0.013981200754642487,-0.18851178884506226
761.0,0.0,0.0,0.0,0.0,0.0,0.0,-0.01732288859784603,0.02544294111430645,0.04341604933142662,0.9814248085021973,-0.05248769745230675,-0.013159274123609066,-0.18406160175800323
762.0,0.0,0.0,0.0,0.0,0.0,0.0,-0.023554308339953423,0.04207564517855644,0.048513028770685196,0.9823864698410034,-0.052872635424137115,-0.011431735008955002,-0.17885826528072357
763.0,0.0,0.0,0.0,0.0,0.0,0.0,-0.016726147383451462,0.05068843439221382,0.04594438895583153,0.9839380383491516,-0.05246572196483612,-0.006278896704316139,-0.1705060601234436
764.0,0.0,0.0,0.0,0.0,0.0,0.0,-0.007154439575970173,0.011444376781582832,0.06980089098215103,0.9858074188232422,-0.05112409219145775,0.0006573403370566666,-0.15991166234016418
765.0,0.0,0.0,0.0,0.0,0.0,0.0,0.016541441902518272,-0.002030999166890979,0.04569040983915329,0.9879891276359558,-0.048391953110694885,0.012665602378547192,-0.1461975872516632
766.0,0.0,0.0,0.0,0.0,0.0,0.0,0.005873274058103561,-0.007787572685629129,0.027677174657583237,0.990080714225769,-0.04548853263258934,0.02994200773537159,-0.12952344119548798
767.0,0.0,0.0,0.0,0.0,0.0,0.0,0.010585984215140343,-0.01113269105553627,-0.029234101995825768,0.9913878440856934,-0.04167511686682701,0.04621729627251625,-0.11522291600704193
768.0,0.0,0.0,0.0,0.0,0.0,0.0,0.06485549360513687,-0.011225538328289986,-0.0671672523021698,0.9921483397483826,-0.03820400685071945,0.05838141590356827,-0.1038043275475502
769.0,0.0,0.0,0.0,0.0,0.0,0.0,0.05391531437635422,-0.031010346487164497,-0.05660953000187874,0.9924837946891785,-0.03627951070666313,0.06853355467319489,-0.09468603879213333
770.0,0.0,0.0,0.0,0.0,0.0,0.0,0.046826839447021484,-0.053965769708156586,-0.02620811201632023,0.9925134181976318,-0.03447084128856659,0.0771629810333252,-0.08817773312330246
771.0,0.0,0.0,0.0,0.0,0.0,0.0,0.046713072806596756,-0.05330748111009598,-0.01058637909591198,0.992360532283783,-0.03279562667012215,0.08369321376085281,-0.08450604230165482
772.0,0.0,0.0,0.0,0.0,0.0,0.0,0.0370330885052681,-0.014452935196459293,-0.007155232131481171,0.9922891855239868,-0.030637647956609726,0.08790910989046097,-0.08181297034025192
773.0,0.0,0.0,0.0,0.0,0.0,0.0,0.04688097909092903,-0.0208743866533041,-0.004261282738298178,0.9923005700111389,-0.02814534120261669,0.08954119682312012,-0.08081678301095963
774.0,0.0,0.0,0.0,0.0,0.0,0.0,0.046254806220531464,-0.04037117958068848,0.009244938381016254,0.9923050403594971,-0.025529518723487854,0.09059344232082367,-0.0804615318775177
775.0,0.0,0.0,0.0,0.0,0.0,0.0,0.04486729949712753,-0.03342823684215546,-0.0031377337872982025,0.9923884272575378,-0.021656746044754982,0.08972471207380295,-0.0815192386507988
776.0,0.0,0.0,0.0,0.0,0.0,0.0,0.048019278794527054,-0.023684186860919,-0.01791495271027088,0.9926074147224426,-0.017003344371914864,0.08563888072967529,-0.08431237936019897
777.0,0.0,0.0,0.0,0.0,0.0,0.0,0.051659636199474335,-0.056273967027664185,-0.001552100758999586,0.9928677678108215,-0.01484770979732275,0.07975587993860245,-0.08735428005456924
778.0,0.0,0.0,0.0,0.0,0.0,0.0,0.03846248984336853,-0.0342608243227005,-0.011964033357799053,0.9932291507720947,-0.015693239867687225,0.07157677412033081,-0.09014999121427536
779.0,0.0,0.0,0.0,0.0,0.0,0.0,0.01941976323723793,0.019553031772375107,-0.011869506910443306,0.9935730695724487,-0.01527137029916048,0.062189433723688126,-0.09334227442741394
780.0,0.0,0.0,0.0,0.0,0.0,0.0,-0.0018517995486035943,0.017095379531383514,0.028524218127131462,0.9937056303024292,-0.014478101395070553,0.05443765968084335,-0.0968385562300682
781.0,0.0,0.0,0.0,0.0,0.0,0.0,0.013095959089696407,0.00839819386601448,0.012438984587788582,0.9937700033187866,-0.013587373308837414,0.04749585688114166,-0.099908746778965
782.0,0.0,0.0,0.0,0.0,0.0,0.0,0.020901767536997795,-0.0031187820713967085,-0.01413768157362938,0.993832528591156,-0.011827729642391205,0.03940258547663689,-0.10297949612140656
783.0,0.0,0.0,0.0,0.0,0.0,0.0,0.01956319808959961,0.004910600837320089,0.015601539984345436,0.993797779083252,-0.010350344702601433,0.03080211766064167,-0.10635567456483841
784.0,0.0,0.0,0.0,0.0,0.0,0.0,0.007370990701019764,-0.0028649200685322285,0.023549513891339302,0.9935888051986694,-0.009627429768443108,0.022475631907582283,-0.11038882285356522
785.0,0.0,0.0,0.0,0.0,0.0,0.0,0.009671127423644066,-0.011494232341647148,-0.006805253215134144,0.9932055473327637,-0.009148117154836655,0.01460120640695095,-0.11509450525045395
786.0,0.0,0.0,0.0,0.0,0.0,0.0,-0.0016327417688444257,0.003507089801132679,0.01378622092306614,0.9928528070449829,-0.009256788529455662,0.008534800261259079,-0.1186879500746727
787.0,0.0,0.0,0.0,0.0,0.0,0.0,-0.004621487110853195,0.010168701410293579,0.014691238291561604,0.9925447702407837,-0.0091136759147048,0.004891664255410433,-0.12144556641578674
788.0,0.0,0.0,0.0,0.0,0.0,0.0,0.0006871126824989915,0.01804654859006405,9.37177610467188e-05,0.9921336770057678,-0.008124656975269318,-0.00012438668636605144,-0.12492872774600983
789.0,0.0,0.0,0.0,0.0,0.0,0.0,-0.0070207081735134125,0.013179978355765343,-0.010270392522215843,0.9914622902870178,-0.007928741164505482,-0.007144211325794458,-0.1299593150615692
790.0,0.0,0.0,0.0,0.0,0.0,0.0,-0.004337775986641645,0.004515090957283974,0.02608116716146469,0.9906377792358398,-0.007727935444563627,-0.013849880546331406,-0.13559116423130035
791.0,0.0,0.0,0.0,0.0,0.0,0.0,-0.03249436989426613,0.018507424741983414,0.038860224187374115,0.9901190996170044,-0.0071328869089484215,-0.017915593460202217,-0.13890068233013153
792.0,0.0,0.0,0.0,0.0,0.0,0.0,-0.019857436418533325,0.039981815963983536,-0.018713532015681267,0.9898306727409363,-0.006510167848318815,-0.020090200006961823,-0.14067429304122925
793.0,0.0,0.0,0.0,0.0,0.0,0.0,-0.0016032981220632792,0.01132719311863184,-0.02303553931415081,0.9896009564399719,-0.006397447548806667,-0.021458923816680908,-0.14208529889583588
794.0,0.0,0.0,0.0,0.0,0.0,0.0,-0.007661549374461174,0.00898254569619894,-0.0064540221355855465,0.9894174337387085,-0.005711750593036413,-0.022348832339048386,-0.14325018227100372
795.0,0.0,0.0,0.0,0.0,0.0,0.0,-0.03884319216012955,0.02077718824148178,-0.018198546022176743,0.9887773990631104,-0.00485263904556632,-0.02421422302722931,-0.14734457433223724
796.0,0.0,0.0,0.0,0.0,0.0,0.0,-0.06156890094280243,-9.994913125410676e-05,-0.004279428627341986,0.9876803159713745,-0.007014505099505186,-0.029484504833817482,-0.15352074801921844
797.0,0.0,0.0,0.0,0.0,0.0,0.0,0.02396582067012787,-0.008074176497757435,0.004142019897699356,0.9870410561561584,-0.00956480298191309,-0.03566978871822357,-0.15617012977600098
798.0,0.0,0.0,0.0,0.0,0.0,0.0,0.001631186343729496,0.03191009908914566,-0.007243335712701082,0.9869285821914673,-0.009955819696187973,-0.036713264882564545,-0.15661045908927917
799.0,0.0,0.0,0.0,0.0,0.0,0.0,-0.021188655868172646,0.04460060968995094,-0.005506150424480438,0.9871338605880737,-0.010470859706401825,-0.0364491268992424,-0.15533146262168884
800.0,0.0,0.0,0.0,0.0,0.0,0.0,0.007456224877387285,0.02667546644806862,-0.0005179260624572635,0.9873438477516174,-0.010397479869425297,-0.03569001331925392,-0.1541815996170044
801.0,0.0,0.0,0.0,0.0,0.0,0.0,0.011918832547962666,0.020615290850400925,-0.008124595507979393,0.9879369139671326,-0.008646207861602306,-0.03265416994690895,-0.15112869441509247
802.0,0.0,0.0,0.0,0.0,0.0,0.0,-0.0010899980552494526,0.045772042125463486,-0.0019368469947949052,0.9894927144050598,-0.006400748621672392,-0.02334626577794552,-0.14255057275295258
803.0,0.0,0.0,0.0,0.0,0.0,0.0,-0.013095692731440067,0.03586865961551666,-0.0074407183565199375,0.9912196397781372,-0.0042024715803563595,-0.00954392645508051,-0.13181711733341217
804.0,0.0,0.0,0.0,0.0,0.0,0.0,0.01885652355849743,-0.023330731317400932,0.022381527349352837,0.9926531910896301,-0.004123072139918804,0.004054254852235317,-0.12085484713315964
805.0,0.0,0.0,0.0,0.0,0.0,0.0,0.03116481378674507,-0.010533920489251614,0.05062162131071091,0.9940910339355469,-0.005015581380575895,0.022035228088498116,-0.10617057979106903
806.0,0.0,0.0,0.0,0.0,0.0,0.0,0.036208443343639374,0.009824185632169247,-0.02945503033697605,0.9950160384178162,-0.0037464697379618883,0.04241126775741577,-0.09017705172300339
807.0,0.0,0.0,0.0,0.0,0.0,0.0,0.0565047524869442,-0.03601503744721413,-0.0391731858253479,0.9952541589736938,-0.004462033044546843,0.056648191064596176,-0.07899127155542374
808.0,0.0,0.0,0.0,0.0,0.0,0.0,0.05146560072898865,-0.056574489921331406,-0.064642533659935,0.9949865341186523,-0.007873880676925182,0.06907624751329422,-0.07189562916755676
809.0,0.0,0.0,0.0,0.0,0.0,0.0,0.05363732948899269,-0.04707524552941322,-0.04784834384918213,0.9945532083511353,-0.011693751439452171,0.07744824886322021,-0.06876008212566376
810.0,0.0,0.0,0.0,0.0,0.0,0.0,0.02595277689397335,-0.042807549238204956,0.024390092119574547,0.9941116571426392,-0.015302889049053192,0.08131160587072372,-0.06997085362672806
811.0,0.0,0.0,0.0,0.0,0.0,0.0,0.017796006053686142,-0.016474202275276184,0.023827293887734413,0.9938504099845886,-0.017920495942234993,0.08133501559495926,-0.0729740634560585
812.0,0.0,0.0,0.0,0.0,0.0,0.0,0.009165069088339806,-0.0015028163325041533,0.023083893582224846,0.9937111139297485,-0.019405577331781387,0.07715355604887009,-0.07879533618688583
813.0,0.0,0.0,0.0,0.0,0.0,0.0,-0.0072571467608213425,-0.016438208520412445,0.02795235626399517,0.9934195280075073,-0.020866870880126953,0.07338074594736099,-0.08543599396944046
814.0,0.0,0.0,0.0,0.0,0.0,0.0,0.0005270132096484303,-0.012069652788341045,0.003875385271385312,0.9931629300117493,-0.022134002298116684,0.07005530595779419,-0.09070990234613419
815.0,0.0,0.0,0.0,0.0,0.0,0.0,0.010112208314239979,-0.02114984765648842,0.00010589890734991059,0.9928566217422485,-0.023125436156988144,0.06465115398168564,-0.09758199751377106
816.0,0.0,0.0,0.0,0.0,0.0,0.0,0.0031607369892299175,-0.027411138638854027,0.015344219282269478,0.9922700524330139,-0.023551542311906815,0.05724569037556648,-0.10756094008684158
817.0,0.0,0.0,0.0,0.0,0.0,0.0,0.0012046450283378363,-0.025903232395648956,0.006329218856990337,0.9914926290512085,-0.024412622675299644,0.05199623107910156,-0.11680515110492706
818.0,0.0,0.0,0.0,0.0,0.0,0.0,0.0020411480218172073,-0.02689901366829872,0.007516294717788696,0.9908643364906311,-0.025603365153074265,0.04870458319783211,-0.12312819063663483
819.0,0.0,0.0,0.0,0.0,0.0,0.0,-0.004201055970042944,-0.01721964031457901,0.008234921842813492,0.990442156791687,-0.02568735182285309,0.04547989368438721,-0.12766040861606598
820.0,0.0,0.0,0.0,0.0,0.0,0.0,-0.00672454759478569,-0.00695446552708745,0.0046401903964579105,0.9900175333023071,-0.024952009320259094,0.04240807518362999,-0.13207843899726868
821.0,0.0,0.0,0.0,0.0,0.0,0.0,-0.0014561954885721207,-0.005224145948886871,0.002137979492545128,0.9894857406616211,-0.024089915677905083,0.03948946297168732,-0.13703474402427673
822.0,0.0,0.0,0.0,0.0,0.0,0.0,0.0116773946210742,-0.015607673674821854,-0.011344476602971554,0.9888187050819397,-0.0236453078687191,0.0357452929019928,-0.14283691346645355
823.0,0.0,0.0,0.0,0.0,0.0,0.0,0.0006220175419002771,-0.0181368850171566,-0.012471521273255348,0.9882449507713318,-0.0233901534229517,0.03139842301607132,-0.14778228104114532
824.0,0.0,0.0,0.0,0.0,0.0,0.0,-0.0229773111641407,-0.008939341641962528,0.0007932289154268801,0.9877076148986816,-0.023782599717378616,0.028770381584763527,-0.1517930030822754
825.0,0.0,0.0,0.0,0.0,0.0,0.0,-0.020857717841863632,-0.00011505468864925206,0.0019294311059638858,0.9872433543205261,-0.0244598425924778,0.02668377012014389,-0.1550528109073639
826.0,0.0,0.0,0.0,0.0,0.0,0.0,-0.02820306271314621,0.018078774213790894,0.002012385055422783,0.9869393706321716,-0.02447621338069439,0.023664651438593864,-0.1574556827545166
827.0,0.0,0.0,0.0,0.0,0.0,0.0,-0.037373702973127365,0.02223169058561325,0.004374909680336714,0.9867295026779175,-0.024337077513337135,0.018271682783961296,-0.15949665009975433
828.0,0.0,0.0,0.0,0.0,0.0,0.0,-0.031007466837763786,0.018391083925962448,-0.001076622400432825,0.9865016341209412,-0.024603085592389107,0.011665424332022667,-0.16147756576538086
829.0,0.0,0.0,0.0,0.0,0.0,0.0,-0.03393425792455673,0.030399110168218613,-0.01461828127503395,0.9863913059234619,-0.023396648466587067,0.005245129112154245,-0.16265615820884705
830.0,0.0,0.0,0.0,0.0,0.0,0.0,-0.025271182879805565,0.014747591689229012,-0.042044345289468765,0.9864389300346375,-0.02135329693555832,-0.00047254585660994053,-0.16274113953113556
831.0,0.0,0.0,0.0,0.0,0.0,0.0,-0.030712075531482697,-0.009961019270122051,-0.036555398255586624,0.9861682057380676,-0.019917378202080727,-0.005691923666745424,-0.16445302963256836
832.0,0.0,0.0,0.0,0.0,0.0,0.0,-0.036038681864738464,0.0017612301744520664,-0.008527439087629318,0.9858760237693787,-0.018408317118883133,-0.010230145417153835,-0.16614408791065216
833.0,0.0,0.0,0.0,0.0,0.0,0.0,-0.03453505411744118,0.014842263422906399,-0.006863523740321398,0.9854739308357239,-0.016203738749027252,-0.014706669375300407,-0.16841813921928406
834.0,0.0,0.0,0.0,0.0,0.0,0.0,-0.04199984669685364,0.005192178767174482,0.019809726625680923,0.9848269820213318,-0.014957431703805923,-0.020400619134306908,-0.17169548571109772
835.0,0.0,0.0,0.0,0.0,0.0,0.0,-0.04398230463266373,0.015952035784721375,0.03299405798316002,0.9844465255737305,-0.014321324415504932,-0.02517496980726719,-0.17327623069286346
836.0,0.0,0.0,0.0,0.0,0.0,0.0,-0.02202649973332882,0.004956698045134544,0.015151326544582844,0.984012246131897,-0.014870149083435535,-0.029325157403945923,-0.17504920065402985
837.0,0.0,0.0,0.0,0.0,0.0,0.0,-0.020697234198451042,0.00289997854270041,0.02320104092359543,0.9832932353019714,-0.01774722710251808,-0.03350047022104263,-0.17804844677448273
838.0,0.0,0.0,0.0,0.0,0.0,0.0,-0.014511988498270512,0.02902066335082054,-0.011058381758630276,0.982361912727356,-0.02056756243109703,-0.038111116737127304,-0.18190833926200867
839.0,0.0,0.0,0.0,0.0,0.0,0.0,-0.00869232788681984,0.002718825824558735,0.004194898065179586,0.9812461137771606,-0.024473506957292557,-0.04249674826860428,-0.1864214986562729
840.0,0.0,0.0,0.0,0.0,0.0,0.0,-0.034578822553157806,-0.021328451111912727,0.03906635567545891,0.9798014163970947,-0.02795024774968624,-0.045757416635751724,-0.1926501989364624
841.0,0.0,0.0,0.0,0.0,0.0,0.0,-0.02445824071764946,-0.010634669102728367,-0.002629442373290658,0.9776907563209534,-0.031356070190668106,-0.05136239528656006,-0.20124712586402893
842.0,0.0,0.0,0.0,0.0,0.0,0.0,-0.038712285459041595,0.010764569975435734,-0.010089430958032608,0.9749459028244019,-0.034518737345933914,-0.0571250356733799,-0.21220020949840546
843.0,0.0,0.0,0.0,0.0,0.0,0.0,-0.04871932789683342,0.061447419226169586,-0.020764920860528946,0.9721910357475281,-0.036610428243875504,-0.062148530036211014,-0.2228051722049713
844.0,0.0,0.0,0.0,0.0,0.0,0.0,-0.03401465713977814,0.04340810328722,-0.007073310669511557,0.9694437384605408,-0.038146935403347015,-0.0678538829088211,-0.23265016078948975
845.0,0.0,0.0,0.0,0.0,0.0,0.0,-0.04858794063329697,0.005626454949378967,0.02273954637348652,0.9666297435760498,-0.039057645946741104,-0.07425294816493988,-0.24206183850765228
846.0,0.0,0.0,0.0,0.0,0.0,0.0,-0.05468163639307022,0.003368908539414406,0.016253501176834106,0.9639208912849426,-0.0392100065946579,-0.07903999090194702,-0.25114914774894714
847.0,0.0,0.0,0.0,0.0,0.0,0.0,-0.03807477280497551,0.023256877437233925,-0.0024323745165020227,0.961201012134552,-0.03913790360093117,-0.08393408358097076,-0.2598457932472229
848.0,0.0,0.0,0.0,0.0,0.0,0.0,-0.03713584318757057,0.027013150975108147,-0.02221198007464409,0.9586609601974487,-0.03894476220011711,-0.08969816565513611,-0.2672165334224701
849.0,0.0,0.0,0.0,0.0,0.0,0.0,-0.03134746849536896,0.012032118625938892,-0.014522160403430462,0.9566991329193115,-0.037762872874736786,-0.09500247985124588,-0.2725507616996765
850.0,0.0,0.0,0.0,0.0,0.0,0.0,-0.036125361919403076,0.0032214440871030092,-0.004030892625451088,0.9547910690307617,-0.0367758572101593,-0.10056492686271667,-0.27733615040779114
851.0,0.0,0.0,0.0,0.0,0.0,0.0,-0.03352116793394089,-0.002800042973831296,0.013375530950725079,0.9526281356811523,-0.03576630353927612,-0.10510194301605225,-0.2831423878669739
852.0,0.0,0.0,0.0,0.0,0.0,0.0,-0.021853944286704063,0.0027141375467181206,-0.014114477671682835,0.9507739543914795,-0.03398111090064049,-0.10902176797389984,-0.2880817949771881
853.0,0.0,0.0,0.0,0.0,0.0,0.0,-0.010852407664060593,0.02466706745326519,-0.033788859844207764,0.9495375752449036,-0.03289239853620529,-0.11206568032503128,-0.29109564423561096
854.0,0.0,0.0,0.0,0.0,0.0,0.0,-0.020065700635313988,0.033941105008125305,-0.006402358878403902,0.9487399458885193,-0.033365752547979355,-0.11348991096019745,-0.29308444261550903
855.0,0.0,0.0,0.0,0.0,0.0,0.0,-0.028824791312217712,0.04216618090867996,0.00458079669624567,0.9484087228775024,-0.03323452174663544,-0.11402759701013565,-0.2939712405204773
856.0,0.0,0.0,0.0,0.0,0.0,0.0,-0.03708689659833908,0.0469355508685112,0.012746340595185757,0.9480078220367432,-0.032610174268484116,-0.11560481041669846,-0.2946951687335968
857.0,0.0,0.0,0.0,0.0,0.0,0.0,-0.002801433904096484,0.15758931636810303,0.0594758540391922,0.9476378560066223,-0.029654543846845627,-0.11799304187297821,-0.29527682065963745
858.0,0.0,0.0,0.0,0.0,0.0,0.0,-0.034426961094141006,0.06363872438669205,0.019003458321094513,0.9475321769714355,-0.027540460228919983,-0.11771891266107559,-0.2959040701389313
859.0,0.0,0.0,0.0,0.0,0.0,0.0,-0.024127747863531113,0.051530081778764725,0.008924456313252449,0.9479754567146301,-0.024744324386119843,-0.1168493703007698,-0.2950803339481354
860.0,0.0,0.0,0.0,0.0,0.0,0.0,-0.023815259337425232,0.026014454662799835,0.007933796383440495,0.9487324953079224,-0.02339637279510498,-0.11518304795026779,-0.2933998703956604
861.0,0.0,0.0,0.0,0.0,0.0,0.0,-0.023665018379688263,0.0009344382560811937,0.02919906936585903,0.9498919248580933,-0.02123667672276497,-0.11277342587709427,-0.2907583713531494
862.0,0.0,0.0,0.0,0.0,0.0,0.0,-0.004300556145608425,0.01608874276280403,-0.01366907823830843,0.9512115716934204,-0.01848212629556656,-0.11003533005714417,-0.2876609265804291
863.0,0.0,0.0,0.0,0.0,0.0,0.0,0.05281223729252815,-0.07854927331209183,0.10433109849691391,0.9520353674888611,-0.01601869985461235,-0.10895926505327225,-0.28548192977905273
864.0,0.0,0.0,0.0,0.0,0.0,0.0,-0.001974367769435048,-0.018878759816288948,-0.02606932632625103,0.9526206254959106,-0.012430952861905098,-0.10743199288845062,-0.2842998206615448
865.0,0.0,0.0,0.0,0.0,0.0,0.0,0.010503564029932022,0.0030861604027450085,-0.05862501636147499,0.9535784721374512,-0.009258043020963669,-0.10215776413679123,-0.2831592857837677
866.0,0.0,0.0,0.0,0.0,0.0,0.0,0.026485422626137733,-0.015053685754537582,-0.04107214882969856,0.9547945261001587,-0.007924134843051434,-0.09605777263641357,-0.2812187671661377
867.0,0.0,0.0,0.0,0.0,0.0,0.0,0.015087231062352657,-0.01922423392534256,-0.024135341867804527,0.9561100006103516,-0.009544653818011284,-0.08787219971418381,-0.27936965227127075
868.0,0.0,0.0,0.0,0.0,0.0,0.0,0.005859594326466322,0.024319399148225784,-0.021016018465161324,0.9571374654769897,-0.012016940861940384,-0.07948663830757141,-0.278247594833374
869.0,0.0,0.0,0.0,0.0,0.0,0.0,0.020193064585328102,0.007594537455588579,-0.0054475730285048485,0.9573245644569397,-0.01492188312113285,-0.07285235077142715,-0.2792789340019226
870.0,0.0,0.0,0.0,0.0,0.0,0.0,0.050374820828437805,0.0032278604339808226,-0.012881635688245296,0.9565311074256897,-0.01956452801823616,-0.06942649930715561,-0.28257516026496887
871.0,0.0,0.0,0.0,0.0,0.0,0.0,0.017487619072198868,0.0457800067961216,-0.016714930534362793,0.9550393223762512,-0.02644183114171028,-0.06412266939878464,-0.2882551848888397
872.0,0.0,0.0,0.0,0.0,0.0,0.0,0.017453743144869804,0.06563613563776016,-0.030249517410993576,0.9538617730140686,-0.03144453465938568,-0.05907205119729042,-0.292692631483078
873.0,0.0,0.0,0.0,0.0,0.0,0.0,0.06477849185466766,0.05947037413716316,-0.032361943274736404,0.953018069267273,-0.035551901906728745,-0.053579896688461304,-0.2960071265697479
874.0,0.0,0.0,0.0,0.0,0.0,0.0,0.09021144360303879,0.025826746597886086,-0.04714015871286392,0.9523000121116638,-0.04193538427352905,-0.046918801963329315,-0.29860246181488037
875.0,0.0,0.0,0.0,0.0,0.0,0.0,0.057990580797195435,0.010055865161120892,-0.030674109235405922,0.9522126317024231,-0.051060404628515244,-0.03805254027247429,-0.2987295687198639
876.0,0.0,0.0,0.0,0.0,0.0,0.0,-0.0030054431408643723,0.0778883770108223,0.003473494667559862,0.9528005123138428,-0.057337161153554916,-0.026108022779226303,-0.29698988795280457
877.0,0.0,0.0,0.0,0.0,0.0,0.0,-0.029225146397948265,0.1538972705602646,0.13162297010421753,0.9541993737220764,-0.06215128302574158,-0.013063877820968628,-0.29234638810157776
878.0,0.0,0.0,0.0,0.0,0.0,0.0,-0.126143679022789,0.10812237858772278,0.19400881230831146,0.9574810266494751,-0.06936150044202805,0.0066945236176252365,-0.27994677424430847
879.0,0.0,0.0,0.0,0.0,0.0,0.0,-0.024047579616308212,0.08555424958467484,0.042372457683086395,0.9626967310905457,-0.0718608871102333,0.028394250199198723,-0.2593165636062622
880.0,0.0,0.0,0.0,0.0,0.0,0.0,0.025750745087862015,0.024720333516597748,0.018708160147070885,0.9685181975364685,-0.06912925839424133,0.05215422809123993,-0.233401820063591
881.0,0.0,0.0,0.0,0.0,0.0,0.0,0.07574716955423355,-0.0788269191980362,-0.009915524162352085,0.9726842641830444,-0.06655777245759964,0.07514441013336182,-0.20931069552898407
882.0,0.0,0.0,0.0,0.0,0.0,0.0,0.13746634125709534,-0.004345186520367861,-0.04691914841532707,0.9752339720726013,-0.06109173595905304,0.08886636793613434,-0.19310757517814636
883.0,0.0,0.0,0.0,0.0,0.0,0.0,0.0959295779466629,-0.007802055682986975,-0.09470095485448837,0.9761433601379395,-0.05756796896457672,0.09630328416824341,-0.1858961135149002
884.0,0.0,0.0,0.0,0.0,0.0,0.0,0.08087901771068573,-0.0405665747821331,-0.1115213930606842,0.9763295650482178,-0.05317171663045883,0.0960599035024643,-0.18634949624538422
885.0,0.0,0.0,0.0,0.0,0.0,0.0,0.06907331198453903,-0.03814079985022545,-0.11013196408748627,0.9756473302841187,-0.04919222369790077,0.08405751734972,-0.19654104113578796
