,Position_X,Position_Y,Position_Z,Velocity_X,Velocity_Y,Velocity_Z,Acceleration_X,Acceleration_Y,Acceleration_Z,Quaterion_0,Quaterion_1,Quaterion_2,Quaterion_3
207.0,0.0,0.0,0.0,0.0,0.0,0.0,-0.024455800652503967,-0.04320066422224045,-0.014987725764513016,1.0,6.938893903907228e-18,1.2034644114589099e-17,2.862293735361732e-17
208.0,0.0,0.0,0.0,0.0,0.0,0.0,0.043527811765670776,-0.022079212591052055,-0.027347080409526825,0.9999849200248718,-0.004536804277449846,-0.000846522452775389,0.0029683606699109077
209.0,0.0,0.0,0.0,0.0,0.0,0.0,-0.010314930230379105,-0.01921580545604229,-0.003069394500926137,0.9999814033508301,-0.005543123465031385,-0.0008726113592274487,0.002396021969616413
210.0,0.0,0.0,0.0,0.0,0.0,0.0,-0.008414389565587044,-0.007470888551324606,-0.008116035722196102,0.9999687075614929,-0.007713415659964085,-0.00028053828282281756,0.0017449208535254002
211.0,0.0,0.0,0.0,0.0,0.0,0.0,0.004932061769068241,-0.004143157042562962,0.00581795908510685,0.9999712109565735,-0.0072874100878834724,-0.0011992345098406076,0.0017258821753785014
212.0,0.0,0.0,0.0,0.0,0.0,0.0,-0.029061632230877876,-0.008526467718183994,0.0016937355976551771,0.9999771118164062,-0.006660974118858576,-0.0009941409807652235,0.0006041053566150367
213.0,0.0,0.0,0.0,0.0,0.0,0.0,-0.030534278601408005,0.005780747625976801,0.0077903373166918755,0.999983012676239,-0.005792098585516214,-0.0006393335643224418,0.0002687199739739299
214.0,0.0,0.0,0.0,0.0,0.0,0.0,-0.016353990882635117,0.01632443256676197,0.023184023797512054,0.9999925494194031,-0.0036875971127301455,-0.0009555905708111823,0.0006650662980973721
215.0,0.0,0.0,0.0,0.0,0.0,0.0,-0.01586970128118992,0.01932659186422825,0.02378370799124241,0.9999995827674866,6.447982741519809e-05,-0.00045986264012753963,0.0008146603358909488
216.0,0.0,0.0,0.0,0.0,0.0,0.0,-0.008232041262090206,0.00619571004062891,0.006832098122686148,0.9999915957450867,0.004040876869112253,0.0005577110568992794,0.0003582615463528782
217.0,0.0,0.0,0.0,0.0,0.0,0.0,-0.00560413021594286,-0.03423921763896942,-0.03812039643526077,0.9999870657920837,0.004437128081917763,0.0024780319072306156,6.921016756678e-05
218.0,0.0,0.0,0.0,0.0,0.0,0.0,0.028892233967781067,-0.024344872683286667,-0.0360955074429512,0.999987006187439,0.004037504084408283,0.0028493653517216444,0.0012780468678101897
219.0,0.0,0.0,0.0,0.0,0.0,0.0,0.02043428272008896,-0.01927235908806324,-0.026171065866947174,0.9999864101409912,0.00431569991633296,0.002584303030744195,0.0013712691143155098
220.0,0.0,0.0,0.0,0.0,0.0,0.0,0.004898092709481716,-0.006432825233787298,-0.011643748730421066,0.9999876022338867,0.0042879884131252766,0.0021284662652760744,0.0013698111288249493
221.0,0.0,0.0,0.0,0.0,0.0,0.0,-0.0024513984099030495,0.005425147712230682,0.007012141402810812,0.9999871253967285,0.004384494386613369,0.0008586528711020947,0.0024084928445518017
222.0,0.0,0.0,0.0,0.0,0.0,0.0,-0.007154230959713459,0.0032428200356662273,0.009787486866116524,0.9999843835830688,0.004438960924744606,-0.0003899571602232754,0.0033739637583494186
223.0,0.0,0.0,0.0,0.0,0.0,0.0,-0.008972818031907082,-0.0015496204141527414,0.012759792618453503,0.999984085559845,0.00406747916713357,-0.0016544171376153827,0.003545532701537013
224.0,0.0,0.0,0.0,0.0,0.0,0.0,-0.015998702496290207,0.0034610049333423376,0.02065499685704708,0.9999813437461853,0.0037681206595152617,-0.002696756972000003,0.003980790730565786
225.0,0.0,0.0,0.0,0.0,0.0,0.0,-0.02282528392970562,0.010001322254538536,0.024103811010718346,0.9999750256538391,0.0041425167582929134,-0.003460017731413245,0.004557162988930941
226.0,0.0,0.0,0.0,0.0,0.0,0.0,-0.023098604753613472,0.005845988169312477,0.017469622194767,0.9999659061431885,0.004755647853016853,-0.0042442879639565945,0.005245110485702753
227.0,0.0,0.0,0.0,0.0,0.0,0.0,-0.01765005849301815,-0.0017496435903012753,0.005470625124871731,0.9999610781669617,0.0052073560655117035,-0.0042637186124920845,0.0057063321582973
228.0,0.0,0.0,0.0,0.0,0.0,0.0,-0.011310847476124763,-0.007343693170696497,-0.005534146912395954,0.9999566078186035,0.005501320585608482,-0.004382340703159571,0.006112829782068729
229.0,0.0,0.0,0.0,0.0,0.0,0.0,-0.00497231213375926,-0.006330239120870829,-0.009561417624354362,0.9999514818191528,0.005783142056316137,-0.004473872482776642,0.006605327595025301
230.0,0.0,0.0,0.0,0.0,0.0,0.0,-0.0022972419392317533,-0.0004935335018672049,-0.0071309227496385574,0.9999456405639648,0.0062198396772146225,-0.00447687366977334,0.0070730093866586685
231.0,0.0,0.0,0.0,0.0,0.0,0.0,0.009416361339390278,0.00025056852609850466,-0.009956532157957554,0.9999367594718933,0.006239328067749739,-0.004392941948026419,0.008259213529527187
232.0,0.0,0.0,0.0,0.0,0.0,0.0,0.019058402627706528,-0.002476304769515991,-0.015545723028481007,0.9999279379844666,0.005915873218327761,-0.004512489307671785,0.009423489682376385
233.0,0.0,0.0,0.0,0.0,0.0,0.0,0.02270745486021042,-0.0039628720842301846,-0.01852082647383213,0.9999191164970398,0.0058571696281433105,-0.0046342103742063046,0.010293054394423962
234.0,0.0,0.0,0.0,0.0,0.0,0.0,0.016735829412937164,-0.00736341904848814,-0.016258763149380684,0.9999001622200012,0.006457387935370207,-0.005198764614760876,0.01144433207809925
235.0,0.0,0.0,0.0,0.0,0.0,0.0,0.009785972535610199,-0.012213658541440964,-0.017918813973665237,0.9998785853385925,0.006581494119018316,-0.005922502372413874,0.012824352830648422
236.0,0.0,0.0,0.0,0.0,0.0,0.0,0.0028312725480645895,-0.014844068326056004,-0.01690802350640297,0.9998616576194763,0.0062567987479269505,-0.007013754453510046,0.013725167140364647
237.0,0.0,0.0,0.0,0.0,0.0,0.0,-0.005470941308885813,-0.011306239292025566,-0.007409741636365652,0.9998390078544617,0.0061106192879378796,-0.00837849173694849,0.014641246758401394
238.0,0.0,0.0,0.0,0.0,0.0,0.0,-0.011470693163573742,-0.000961651501711458,0.011690201237797737,0.9998173713684082,0.005671709310263395,-0.009427483193576336,0.01562650501728058
239.0,0.0,0.0,0.0,0.0,0.0,0.0,-0.018286777660250664,7.071205618558452e-05,0.01992763765156269,0.9998067021369934,0.005090031307190657,-0.009828048758208752,0.016251321882009506
240.0,0.0,0.0,0.0,0.0,0.0,0.0,-0.021471552550792694,-0.012504848651587963,0.014597021043300629,0.9998072981834412,0.004795709624886513,-0.010094303637742996,0.01614322140812874
241.0,0.0,0.0,0.0,0.0,0.0,0.0,-0.026168515905737877,-0.01921926811337471,0.007565903477370739,0.9997999668121338,0.004802980460226536,-0.010522594675421715,0.016320649534463882
242.0,0.0,0.0,0.0,0.0,0.0,0.0,-0.025674400851130486,-0.018420303240418434,0.005440238863229752,0.9997962117195129,0.00470259552821517,-0.010539700277149677,0.016567736864089966
243.0,0.0,0.0,0.0,0.0,0.0,0.0,-0.02617764286696911,-0.012754830531775951,0.011154045350849628,0.9998034834861755,0.004617699421942234,-0.01039466354995966,0.016239235177636147
244.0,0.0,0.0,0.0,0.0,0.0,0.0,-0.027327539399266243,-0.011908825486898422,0.009190680459141731,0.9997999668121338,0.004952208139002323,-0.010364649817347527,0.016372548416256905
245.0,0.0,0.0,0.0,0.0,0.0,0.0,-0.009783828631043434,-0.01185416616499424,0.0062780301086604595,0.999787449836731,0.005834465380758047,-0.009875030256807804,0.017135832458734512
246.0,0.0,0.0,0.0,0.0,0.0,0.0,0.008706090971827507,-0.08677253872156143,-0.0694655030965805,0.999751627445221,0.005056141875684261,-0.011529327370226383,0.018391970545053482
247.0,0.0,0.0,0.0,0.0,0.0,0.0,0.024277782067656517,0.01982102543115616,0.04440116882324219,0.9997705817222595,0.005212574731558561,-0.012003172188997269,0.016956724226474762
248.0,0.0,0.0,0.0,0.0,0.0,0.0,-0.018757382407784462,-0.05244766175746918,-0.060937363654375076,0.9998515248298645,0.001032855361700058,-0.010018172673881054,0.01398471463471651
249.0,0.0,0.0,0.0,0.0,0.0,0.0,0.03223501890897751,0.012777500785887241,0.0024231683928519487,0.9998420476913452,-0.0006855725659988821,-0.010671248659491539,0.014195757918059826
250.0,0.0,0.0,0.0,0.0,0.0,0.0,-0.012827844358980656,0.0018679903587326407,0.0055563547648489475,0.9998388886451721,-0.0009890899527817965,-0.011046632193028927,0.014115267433226109
251.0,0.0,0.0,0.0,0.0,0.0,0.0,-0.03585203364491463,0.017814047634601593,0.015362026169896126,0.9998416304588318,-0.0026405141688883305,-0.010363122448325157,0.014225044287741184
252.0,0.0,0.0,0.0,0.0,0.0,0.0,0.002075274707749486,0.022125398740172386,0.021798979490995407,0.9998268485069275,-0.0033337848726660013,-0.010277554392814636,0.015148722566664219
253.0,0.0,0.0,0.0,0.0,0.0,0.0,0.008216296322643757,0.015909265726804733,0.012897186912596226,0.9998148083686829,-0.0027507091872394085,-0.010582821443676949,0.015834925696253777
254.0,0.0,0.0,0.0,0.0,0.0,0.0,0.0010699707781895995,0.011485394090414047,0.002709797816351056,0.9998049736022949,-0.001247305772267282,-0.010905426926910877,0.01641690358519554
255.0,0.0,0.0,0.0,0.0,0.0,0.0,0.0057679940946400166,0.002828161232173443,-0.0056095062755048275,0.999790370464325,-0.0002843285328708589,-0.011074217967689037,0.0172211192548275
256.0,0.0,0.0,0.0,0.0,0.0,0.0,0.00019508709374349564,-0.0022902758792042732,-0.00932891946285963,0.9997859001159668,-3.341918272781186e-05,-0.01112819742411375,0.017447710037231445
257.0,0.0,0.0,0.0,0.0,0.0,0.0,-0.010727990418672562,-0.008280579932034016,-0.011054503731429577,0.9997971653938293,-0.001055356813594699,-0.010616208426654339,0.017085015773773193
258.0,0.0,0.0,0.0,0.0,0.0,0.0,-0.006090571638196707,-0.009773043915629387,-0.010897161439061165,0.9997902512550354,-0.0032962525729089975,-0.010341585613787174,0.017369559034705162
259.0,0.0,0.0,0.0,0.0,0.0,0.0,0.05888337269425392,0.016685787588357925,0.007832781411707401,0.9997236728668213,-0.0007978109642863274,-0.01336254645138979,0.019323676824569702
260.0,0.0,0.0,0.0,0.0,0.0,0.0,-0.14642442762851715,-0.023134034126996994,0.01710684783756733,0.999783456325531,0.0005826487322337925,-0.01260446384549141,0.016549445688724518
261.0,0.0,0.0,0.0,0.0,0.0,0.0,-0.036733295768499374,0.023235313594341278,0.03225712850689888,0.9997850656509399,-0.0004234399530105293,-0.01250848826020956,0.016528163105249405
262.0,0.0,0.0,0.0,0.0,0.0,0.0,-0.007311390247195959,0.00943227019160986,0.02220645546913147,0.9997526407241821,-0.0003194970777258277,-0.013595452532172203,0.017599916085600853
263.0,0.0,0.0,0.0,0.0,0.0,0.0,-0.02210036665201187,0.007190000265836716,0.023061461746692657,0.9997392296791077,-0.00012277925270609558,-0.013966178521513939,0.018067723140120506
264.0,0.0,0.0,0.0,0.0,0.0,0.0,-0.01669503003358841,-0.0009209424606524408,0.009897247888147831,0.9997321367263794,6.790454790461808e-05,-0.014181733131408691,0.018290676176548004
265.0,0.0,0.0,0.0,0.0,0.0,0.0,-0.010202625766396523,-0.005170038901269436,0.006183978170156479,0.9997351169586182,0.00015639257617294788,-0.014235374517738819,0.018084602430462837
266.0,0.0,0.0,0.0,0.0,0.0,0.0,-0.0073479050770401955,-0.004841548856347799,0.002897190162912011,0.9997267127037048,0.0004885122179985046,-0.014409998431801796,0.018400583416223526
267.0,0.0,0.0,0.0,0.0,0.0,0.0,-0.00808003917336464,-0.001603580778464675,0.003197754267603159,0.9997252821922302,0.0011182406451553106,-0.013891925103962421,0.01884751208126545
268.0,0.0,0.0,0.0,0.0,0.0,0.0,-0.00593126006424427,-0.0050056688487529755,-0.0029703418258577585,0.9997401237487793,0.0015120316529646516,-0.01315102819353342,0.0185602568089962
269.0,0.0,0.0,0.0,0.0,0.0,0.0,-0.0003024237521458417,-0.01062637660652399,-0.009700093418359756,0.9997527599334717,0.001764431712217629,-0.012211174704134464,0.018499178811907768
270.0,0.0,0.0,0.0,0.0,0.0,0.0,0.0018690916476771235,-0.015194769017398357,-0.013722207397222519,0.9997650980949402,0.0020343081559985876,-0.01143259834498167,0.01830006204545498
271.0,0.0,0.0,0.0,0.0,0.0,0.0,-0.0012624183436855674,-0.010888484306633472,-0.0112918671220541,0.9997764229774475,0.0025861826725304127,-0.010733593255281448,0.018034812062978745
272.0,0.0,0.0,0.0,0.0,0.0,0.0,-0.0023793336004018784,-0.008908137679100037,-0.006814373191446066,0.9997753500938416,0.0031908785458654165,-0.010036924853920937,0.018394121900200844
273.0,0.0,0.0,0.0,0.0,0.0,0.0,-0.0005693353014066815,-0.008939086459577084,-0.003847922896966338,0.9997686147689819,0.003825049614533782,-0.009541160427033901,0.018898339942097664
274.0,0.0,0.0,0.0,0.0,0.0,0.0,-0.0035543583799153566,-0.011199739761650562,-0.002262309193611145,0.9997719526290894,0.0043297139927744865,-0.00868318509310484,0.019025996327400208
275.0,0.0,0.0,0.0,0.0,0.0,0.0,-0.0005698298336938024,-0.013101553544402122,-0.007793239317834377,0.9997715353965759,0.004598517436534166,-0.007882285863161087,0.0193282850086689
276.0,0.0,0.0,0.0,0.0,0.0,0.0,0.0051809954456985,-0.013810250908136368,-0.008517414331436157,0.9997816681861877,0.004597487393766642,-0.007088824640959501,0.019114235416054726
277.0,0.0,0.0,0.0,0.0,0.0,0.0,0.0036102132871747017,-0.0094942357391119,-0.004740400705486536,0.9997925758361816,0.004702045116573572,-0.006757950410246849,0.018629614263772964
278.0,0.0,0.0,0.0,0.0,0.0,0.0,-0.0010403150226920843,-0.00790136307477951,-0.0011394305620342493,0.9997861385345459,0.004670558497309685,-0.006516837980598211,0.01906472072005272
279.0,0.0,0.0,0.0,0.0,0.0,0.0,-0.0042018950916826725,-0.00516789685934782,0.005266547203063965,0.9997678995132446,0.005026405677199364,-0.006462516263127327,0.01992795802652836
280.0,0.0,0.0,0.0,0.0,0.0,0.0,-0.010834898799657822,-0.007470736745744944,0.00483212573453784,0.9997622966766357,0.004927734844386578,-0.005976567976176739,0.020382024347782135
281.0,0.0,0.0,0.0,0.0,0.0,0.0,-0.005545191932469606,-0.047951944172382355,-0.02303827367722988,0.9997692108154297,0.0016763181192800403,-0.005143589805811644,0.020793473348021507
282.0,0.0,0.0,0.0,0.0,0.0,0.0,0.08900382369756699,-0.009230706840753555,-0.015816964209079742,0.9996548295021057,-0.00027230221894569695,-0.00875802244991064,0.024770360440015793
283.0,0.0,0.0,0.0,0.0,0.0,0.0,0.026920141652226448,-0.027508974075317383,-0.021809034049510956,0.9996069073677063,-0.0003246645210310817,-0.011475642211735249,0.0255784559994936
284.0,0.0,0.0,0.0,0.0,0.0,0.0,-0.0019715556409209967,0.0065856268629431725,0.0053152949549257755,0.9995595812797546,-0.0013877680758014321,-0.01409093290567398,0.02607903815805912
285.0,0.0,0.0,0.0,0.0,0.0,0.0,-0.02528882585465908,0.003825671738013625,0.010328625328838825,0.9995319843292236,-0.0025803525932133198,-0.01568508893251419,0.026136891916394234
286.0,0.0,0.0,0.0,0.0,0.0,0.0,-0.03301633894443512,-0.00023796444293111563,0.001248468179255724,0.9995362758636475,-0.005419697146862745,-0.015936128795146942,0.02537662908434868
287.0,0.0,0.0,0.0,0.0,0.0,0.0,-0.02049277164041996,0.008582508191466331,0.012457274831831455,0.999519407749176,-0.008001101203262806,-0.01600731536746025,0.025312839075922966
288.0,0.0,0.0,0.0,0.0,0.0,0.0,-0.0057131326757371426,0.012592900544404984,0.013385598547756672,0.9994907975196838,-0.00924744177609682,-0.01657515950500965,0.025651387870311737
289.0,0.0,0.0,0.0,0.0,0.0,0.0,-0.0065193865448236465,0.007273531053215265,0.0033736436162143946,0.9994826316833496,-0.009742232039570808,-0.016870420426130295,0.025594737380743027
290.0,0.0,0.0,0.0,0.0,0.0,0.0,-0.01674540527164936,0.002308121183887124,-0.0005007722065784037,0.9994857907295227,-0.0097139161080122,-0.01679515466094017,0.025530053302645683
291.0,0.0,0.0,0.0,0.0,0.0,0.0,-0.019532114267349243,0.0032755048014223576,0.0027618329040706158,0.99951171875,-0.009244706481695175,-0.016337033361196518,0.024980951100587845
292.0,0.0,0.0,0.0,0.0,0.0,0.0,-0.015594352968037128,0.006903736386448145,0.010106370784342289,0.9995713829994202,-0.008572968654334545,-0.014879087917506695,0.023713121190667152
293.0,0.0,0.0,0.0,0.0,0.0,0.0,-0.012747692875564098,0.0032343061175197363,0.00616846838966012,0.99964439868927,-0.007431721780449152,-0.01289214938879013,0.022128719836473465
294.0,0.0,0.0,0.0,0.0,0.0,0.0,0.005980520509183407,-0.01758819818496704,-0.016473345458507538,0.9996679425239563,-0.005770097952336073,-0.012089502066373825,0.02201564610004425
295.0,0.0,0.0,0.0,0.0,0.0,0.0,0.019673587754368782,-0.035609446465969086,-0.0420357845723629,0.9996609687805176,-0.004779879469424486,-0.013024495914578438,0.02203429862856865
296.0,0.0,0.0,0.0,0.0,0.0,0.0,-0.005716598127037287,-0.03472866490483284,-0.0480697862803936,0.9996652007102966,-0.006633338052779436,-0.014142148196697235,0.02063024789094925
297.0,0.0,0.0,0.0,0.0,0.0,0.0,0.007015724200755358,-0.020836200565099716,-0.03714459761977196,0.9996154308319092,-0.009903786703944206,-0.01612059585750103,0.02027602307498455
298.0,0.0,0.0,0.0,0.0,0.0,0.0,0.01584475301206112,-0.009599682874977589,-0.019606582820415497,0.999539315700531,-0.01264117006212473,-0.019401872530579567,0.019620638340711594
299.0,0.0,0.0,0.0,0.0,0.0,0.0,-0.0031358120031654835,-0.0026977388188242912,-0.0075661418959498405,0.9994692206382751,-0.015257633291184902,-0.02234995923936367,0.018139498308300972
300.0,0.0,0.0,0.0,0.0,0.0,0.0,-0.010970127768814564,-0.001587925013154745,-0.0013594292104244232,0.9993605017662048,-0.017320146784186363,-0.02613840438425541,0.01719146966934204
301.0,0.0,0.0,0.0,0.0,0.0,0.0,-0.014317593537271023,-0.006608278024941683,-0.0040004439651966095,0.9992337226867676,-0.019954921677708626,-0.02967837266623974,0.01590745523571968
302.0,0.0,0.0,0.0,0.0,0.0,0.0,-0.01591128669679165,-0.007428665179759264,-0.011149434372782707,0.9990658164024353,-0.022396616637706757,-0.033760830760002136,0.01503937691450119
303.0,0.0,0.0,0.0,0.0,0.0,0.0,-0.02105010114610195,-0.00032098343945108354,-0.004543723072856665,0.998863697052002,-0.02468539960682392,-0.03812451288104057,0.014440116472542286
304.0,0.0,0.0,0.0,0.0,0.0,0.0,-0.02205788530409336,0.007546673063188791,0.008485821075737476,0.9986653327941895,-0.02687224932014942,-0.041764695197343826,0.014185156673192978
305.0,0.0,0.0,0.0,0.0,0.0,0.0,-0.01475201454013586,0.014324620366096497,0.01760382018983364,0.9985062479972839,-0.02873891592025757,-0.044206198304891586,0.014326944015920162
306.0,0.0,0.0,0.0,0.0,0.0,0.0,-0.004506238270550966,0.01657569780945778,0.019961921498179436,0.998364269733429,-0.029906421899795532,-0.04629207029938698,0.015215030871331692
307.0,0.0,0.0,0.0,0.0,0.0,0.0,-0.0007115908665582538,0.013535170815885067,0.014631310477852821,0.9982159733772278,-0.030945895239710808,-0.0485399104654789,0.0158503670245409
308.0,0.0,0.0,0.0,0.0,0.0,0.0,0.0020015526097267866,0.0070955813862383366,0.006524078082293272,0.9980744123458862,-0.0320262536406517,-0.05058813840150833,0.01620713248848915
309.0,0.0,0.0,0.0,0.0,0.0,0.0,0.004359690472483635,0.007283366750925779,0.001494893804192543,0.9979365468025208,-0.03350571170449257,-0.05244733765721321,0.015789790078997612
310.0,0.0,0.0,0.0,0.0,0.0,0.0,0.003888958366587758,0.00904503557831049,0.0019215471111238003,0.9978038668632507,-0.0351070836186409,-0.054165069013834,0.014873186126351357
311.0,0.0,0.0,0.0,0.0,0.0,0.0,0.0014064559945836663,0.013700260780751705,0.005656321533024311,0.997671365737915,-0.03610614687204361,-0.056053999811410904,0.014362900517880917
312.0,0.0,0.0,0.0,0.0,0.0,0.0,-0.00434289313852787,0.015754334628582,0.013674783520400524,0.9975515007972717,-0.036944061517715454,-0.057689279317855835,0.014086089096963406
313.0,0.0,0.0,0.0,0.0,0.0,0.0,-0.007317909970879555,0.011630699038505554,0.015149017795920372,0.9974618554115295,-0.037270233035087585,-0.059140630066394806,0.013541052117943764
314.0,0.0,0.0,0.0,0.0,0.0,0.0,-0.007170867640525103,0.006033041980117559,0.008784089237451553,0.9973650574684143,-0.03768747299909592,-0.060533832758665085,0.013358136638998985
315.0,0.0,0.0,0.0,0.0,0.0,0.0,-0.007420629262924194,0.008138640783727169,0.010198772884905338,0.9972460269927979,-0.037779439240694046,-0.06224812567234039,0.014085391536355019
316.0,0.0,0.0,0.0,0.0,0.0,0.0,-0.007705138996243477,0.016730118542909622,0.018874896690249443,0.9971522092819214,-0.03755652904510498,-0.06367211043834686,0.0149429552257061
317.0,0.0,0.0,0.0,0.0,0.0,0.0,-0.0034841636661440134,0.015091744251549244,0.016255119815468788,0.9970578551292419,-0.03739794343709946,-0.06500288099050522,0.015872888267040253
318.0,0.0,0.0,0.0,0.0,0.0,0.0,0.0013012700947001576,0.011395223438739777,0.012314369902014732,0.9969664812088013,-0.037129756063222885,-0.06632685661315918,0.01673039421439171
319.0,0.0,0.0,0.0,0.0,0.0,0.0,0.001870324951596558,0.00916366558521986,0.00818453449755907,0.9968922734260559,-0.03739558905363083,-0.06717086583375931,0.017190314829349518
320.0,0.0,0.0,0.0,0.0,0.0,0.0,0.002877818886190653,0.011982742697000504,0.012367544695734978,0.9967846274375916,-0.03833799064159393,-0.06798617541790009,0.018127381801605225
321.0,0.0,0.0,0.0,0.0,0.0,0.0,0.00664772791787982,0.012840994633734226,0.0134693318977952,0.9966895580291748,-0.03890681266784668,-0.06886421144008636,0.018820060417056084
322.0,0.0,0.0,0.0,0.0,0.0,0.0,0.01076632458716631,0.00920883473008871,0.0088703827932477,0.9966489672660828,-0.03899574652314186,-0.06924622505903244,0.019371746107935905
323.0,0.0,0.0,0.0,0.0,0.0,0.0,0.014240190386772156,0.0034306549932807684,0.0010053131263703108,0.9966363906860352,-0.039294030517339706,-0.0692177414894104,0.019521299749612808
324.0,0.0,0.0,0.0,0.0,0.0,0.0,0.01821104809641838,-0.0015236536273732781,-0.00898725539445877,0.9965981841087341,-0.03970694541931152,-0.06937362998723984,0.020077982917428017
325.0,0.0,0.0,0.0,0.0,0.0,0.0,0.018221426755189896,-0.007228400092571974,-0.01733250543475151,0.996532142162323,-0.03995602950453758,-0.06993076950311661,0.020905958488583565
326.0,0.0,0.0,0.0,0.0,0.0,0.0,0.016349589452147484,-0.008947345428168774,-0.020603295415639877,0.9964867830276489,-0.040837083011865616,-0.06992221623659134,0.02138853818178177
327.0,0.0,0.0,0.0,0.0,0.0,0.0,0.023084836080670357,-0.011546019464731216,-0.022530708461999893,0.9964840412139893,-0.04166369140148163,-0.06941971927881241,0.021557966247200966
328.0,0.0,0.0,0.0,0.0,0.0,0.0,0.01958623342216015,-0.015780555084347725,-0.02920430898666382,0.9964555501937866,-0.042693138122558594,-0.06929810345172882,0.021251793950796127
329.0,0.0,0.0,0.0,0.0,0.0,0.0,0.01131716463714838,-0.019788753241300583,-0.03407260775566101,0.9963849186897278,-0.04395848140120506,-0.06957374513149261,0.021079842001199722
330.0,0.0,0.0,0.0,0.0,0.0,0.0,0.008282244205474854,-0.012370006181299686,-0.02178051881492138,0.9962635040283203,-0.045659035444259644,-0.07020346075296402,0.02112339623272419
331.0,0.0,0.0,0.0,0.0,0.0,0.0,0.00022711028577759862,-0.0006848901393823326,-0.0011434482876211405,0.9961521029472351,-0.046835560351610184,-0.07113147526979446,0.020680785179138184
332.0,0.0,0.0,0.0,0.0,0.0,0.0,-0.010486217215657234,0.003774193348363042,0.005879722535610199,0.9960516691207886,-0.047664910554885864,-0.07204509526491165,0.02047213353216648
333.0,0.0,0.0,0.0,0.0,0.0,0.0,-0.014417682774364948,0.0037187105044722557,0.009151925332844257,0.9959287047386169,-0.048428501933813095,-0.07321786880493164,0.020504632964730263
334.0,0.0,0.0,0.0,0.0,0.0,0.0,-0.01693841814994812,0.008580056950449944,0.01709381304681301,0.9957774877548218,-0.04919109493494034,-0.0747067779302597,0.020655082538723946
335.0,0.0,0.0,0.0,0.0,0.0,0.0,-0.025330744683742523,0.005033108405768871,0.01867722161114216,0.9956747889518738,-0.04962075501680374,-0.0759163349866867,0.020155493170022964
336.0,0.0,0.0,0.0,0.0,0.0,0.0,-0.030004415661096573,0.00014076499792281538,0.014801555313169956,0.995574414730072,-0.05021260678768158,-0.07691875100135803,0.019856460392475128
337.0,0.0,0.0,0.0,0.0,0.0,0.0,-0.02177100069820881,0.00023741215409245342,0.012764540500938892,0.9954652190208435,-0.05071254447102547,-0.07787918299436569,0.02029781974852085
338.0,0.0,0.0,0.0,0.0,0.0,0.0,-0.01633063703775406,0.0033168932422995567,0.011266198009252548,0.9953809976577759,-0.051436081528663635,-0.07839221507310867,0.020643284544348717
339.0,0.0,0.0,0.0,0.0,0.0,0.0,-0.011436511762440205,0.010198726318776608,0.01506795547902584,0.9953436255455017,-0.051781319081783295,-0.07846115529537201,0.021298864856362343
340.0,0.0,0.0,0.0,0.0,0.0,0.0,-0.007584668230265379,0.012735373340547085,0.01916516199707985,0.9953739643096924,-0.051866527646780014,-0.0779375433921814,0.021606802940368652
341.0,0.0,0.0,0.0,0.0,0.0,0.0,-0.0029369357507675886,0.0013179515954107046,0.010240606963634491,0.9954758882522583,-0.051510609686374664,-0.076819509267807,0.0217589084059
342.0,0.0,0.0,0.0,0.0,0.0,0.0,0.007009063847362995,-0.013719527050852776,-0.0036539905704557896,0.995550274848938,-0.0517164021730423,-0.07565611600875854,0.021951787173748016
343.0,0.0,0.0,0.0,0.0,0.0,0.0,0.014982372522354126,-0.020086221396923065,-0.008149838075041771,0.9955440759658813,-0.05237514153122902,-0.07521949708461761,0.022166112437844276
344.0,0.0,0.0,0.0,0.0,0.0,0.0,0.010256175883114338,-0.009906395338475704,-0.004700156860053539,0.9954583048820496,-0.05290636047720909,-0.07584516704082489,0.022617004811763763
345.0,0.0,0.0,0.0,0.0,0.0,0.0,-0.006547799799591303,0.0070671020075678825,0.01326199620962143,0.9954007863998413,-0.0526546984910965,-0.07667266577482224,0.022939635440707207
346.0,0.0,0.0,0.0,0.0,0.0,0.0,-0.02038811333477497,0.01754014566540718,0.02978413738310337,0.995439887046814,-0.0514918714761734,-0.07678719609975815,0.023491617292165756
347.0,0.0,0.0,0.0,0.0,0.0,0.0,-0.032417941838502884,0.019898133352398872,0.03021380677819252,0.9955569505691528,-0.05024198442697525,-0.07589215785264969,0.02414807118475437
348.0,0.0,0.0,0.0,0.0,0.0,0.0,-0.031423620879650116,0.01123140286654234,0.01910490356385708,0.9957553744316101,-0.04851582646369934,-0.07428210973739624,0.024485869333148003
349.0,0.0,0.0,0.0,0.0,0.0,0.0,-0.0161749254912138,-0.006508598569780588,-0.0009438963606953621,0.9959597587585449,-0.04714752733707428,-0.0721762552857399,0.02514457516372204
350.0,0.0,0.0,0.0,0.0,0.0,0.0,-0.0004381731851026416,-0.018656427040696144,-0.013881489634513855,0.9961209893226624,-0.04675518348813057,-0.07051146775484085,0.024193856865167618
351.0,0.0,0.0,0.0,0.0,0.0,0.0,-0.0011815245961770415,-0.016891730949282646,-0.020051172003149986,0.9962716102600098,-0.045563843101263046,-0.06877551972866058,0.02523604780435562
352.0,0.0,0.0,0.0,0.0,0.0,0.0,-0.0060135493986308575,-0.00997378583997488,-0.01890292577445507,0.9963945150375366,-0.04449135810136795,-0.06729564815759659,0.02626456506550312
353.0,0.0,0.0,0.0,0.0,0.0,0.0,-0.0020236745476722717,-0.004996614996343851,-0.017353685572743416,0.9965036511421204,-0.04362933710217476,-0.06553564220666885,0.027970705181360245
354.0,0.0,0.0,0.0,0.0,0.0,0.0,0.0009536172146908939,-0.006710511166602373,-0.02287677675485611,0.996574342250824,-0.04292323812842369,-0.06416497379541397,0.029665185138583183
355.0,0.0,0.0,0.0,0.0,0.0,0.0,0.006273385137319565,-0.009527779184281826,-0.02026255428791046,0.9966492056846619,-0.041282571852207184,-0.06315401196479797,0.0315871387720108
356.0,0.0,0.0,0.0,0.0,0.0,0.0,-0.003856997238472104,-0.010016994550824165,-0.005935759749263525,0.9967272877693176,-0.039160922169685364,-0.0625331848859787,0.03303041309118271
357.0,0.0,0.0,0.0,0.0,0.0,0.0,-0.004075770266354084,0.008108186535537243,0.005342082120478153,0.9968337416648865,-0.03699294477701187,-0.06133746728301048,0.034524619579315186
358.0,0.0,0.0,0.0,0.0,0.0,0.0,0.009149819612503052,0.010092107579112053,0.006853797473013401,0.9969764947891235,-0.033353231847286224,-0.06026136875152588,0.03597395494580269
359.0,0.0,0.0,0.0,0.0,0.0,0.0,0.007602158468216658,0.0055603343062102795,0.009258520789444447,0.9971921443939209,-0.028750073164701462,-0.0586019866168499,0.03670283779501915
360.0,0.0,0.0,0.0,0.0,0.0,0.0,0.0026974324136972427,-0.0004956966149620712,0.005962638650089502,0.9973998665809631,-0.0254660677164793,-0.056832730770111084,0.03626645356416702
361.0,0.0,0.0,0.0,0.0,0.0,0.0,0.0032618464902043343,-0.0017149127088487148,0.009978419169783592,0.9976059198379517,-0.02213239297270775,-0.05503319576382637,0.035553835332393646
362.0,0.0,0.0,0.0,0.0,0.0,0.0,-0.008475099690258503,-0.0013666506856679916,0.014219727367162704,0.9977803230285645,-0.01903783716261387,-0.0532090961933136,0.035226136445999146
363.0,0.0,0.0,0.0,0.0,0.0,0.0,-0.037380151450634,-0.020796578377485275,0.011190070770680904,0.9978989362716675,-0.018429772928357124,-0.05056043341755867,0.03608160465955734
364.0,0.0,0.0,0.0,0.0,0.0,0.0,0.010176271200180054,0.026113934814929962,0.014791995286941528,0.9979067444801331,-0.01820131205022335,-0.04906146228313446,0.03799881786108017
365.0,0.0,0.0,0.0,0.0,0.0,0.0,0.02638203836977482,0.030806999653577805,0.0091540003195405,0.9980278611183167,-0.014780579134821892,-0.04838035628199577,0.03716675937175751
366.0,0.0,0.0,0.0,0.0,0.0,0.0,-0.006168661639094353,-0.010872452519834042,-0.011368739418685436,0.9981870651245117,-0.012639947235584259,-0.04684508591890335,0.03561542555689812
367.0,0.0,0.0,0.0,0.0,0.0,0.0,0.0013056118041276932,-0.011741618625819683,-0.019620323553681374,0.9982925057411194,-0.012772909365594387,-0.045076094567775726,0.03488848730921745
368.0,0.0,0.0,0.0,0.0,0.0,0.0,0.009323420003056526,-0.0015538353472948074,-0.016511360183358192,0.9983482360839844,-0.013327693566679955,-0.04385651275515556,0.03464128077030182
369.0,0.0,0.0,0.0,0.0,0.0,0.0,0.0014675556449219584,0.007291978690773249,-0.013518128544092178,0.9983932971954346,-0.01367198582738638,-0.042647745460271835,0.034714225679636
370.0,0.0,0.0,0.0,0.0,0.0,0.0,-0.007903126068413258,0.00957387126982212,-0.009226917289197445,0.9984331727027893,-0.01489192247390747,-0.041295360773801804,0.0346999317407608
371.0,0.0,0.0,0.0,0.0,0.0,0.0,-0.010026645846664906,0.0013603589031845331,-0.015026867389678955,0.9984784722328186,-0.01748940721154213,-0.039141539484262466,0.03468422219157219
372.0,0.0,0.0,0.0,0.0,0.0,0.0,0.004484828095883131,-0.012853642925620079,-0.027669120579957962,0.9984893202781677,-0.02008563093841076,-0.03684380650520325,0.03547263517975807
373.0,0.0,0.0,0.0,0.0,0.0,0.0,0.024909276515245438,-0.01816365495324135,-0.03657995164394379,0.9984753727912903,-0.02268516644835472,-0.03477230295538902,0.03638049215078354
374.0,0.0,0.0,0.0,0.0,0.0,0.0,0.02852509915828705,-0.01927829161286354,-0.031149107962846756,0.9984541535377502,-0.024532634764909744,-0.033306241035461426,0.0371231846511364
375.0,0.0,0.0,0.0,0.0,0.0,0.0,0.006166547071188688,-0.023196548223495483,-0.020781259983778,0.998416543006897,-0.02587210386991501,-0.032509107142686844,0.037925511598587036
376.0,0.0,0.0,0.0,0.0,0.0,0.0,-0.007312440313398838,-0.026783334091305733,-0.0049657695926725864,0.9983630776405334,-0.027578890323638916,-0.031470801681280136,0.0389922633767128
377.0,0.0,0.0,0.0,0.0,0.0,0.0,-0.006024214904755354,-0.010643567889928818,0.03483634814620018,0.9983009696006775,-0.029160097241401672,-0.030965710058808327,0.0398276224732399
378.0,0.0,0.0,0.0,0.0,0.0,0.0,-0.021664613857865334,0.023984309285879135,0.055886391550302505,0.9982225298881531,-0.030884427949786186,-0.031204091385006905,0.04030532017350197
379.0,0.0,0.0,0.0,0.0,0.0,0.0,-0.03164605423808098,0.029293276369571686,0.044485244899988174,0.9981253147125244,-0.032165441662073135,-0.032129742205142975,0.04097701609134674
380.0,0.0,0.0,0.0,0.0,0.0,0.0,-0.022567501291632652,0.027397559955716133,0.03679719194769859,0.9980459809303284,-0.032974909991025925,-0.03282696008682251,0.04170918092131615
381.0,0.0,0.0,0.0,0.0,0.0,0.0,-0.014781281352043152,0.02221292071044445,0.02819688245654106,0.9979850053787231,-0.032811012119054794,-0.03367495536804199,0.042605433613061905
382.0,0.0,0.0,0.0,0.0,0.0,0.0,-0.01021681260317564,0.007110552862286568,0.013920296914875507,0.9979632496833801,-0.03282333165407181,-0.033482626080513,0.04325585439801216
383.0,0.0,0.0,0.0,0.0,0.0,0.0,0.00246086111292243,0.0010677888058125973,0.0002531485806684941,0.9979528784751892,-0.03320315107703209,-0.03332538902759552,0.043329715728759766
384.0,0.0,0.0,0.0,0.0,0.0,0.0,0.005553609225898981,0.0008255484863184392,-0.0007830660324543715,0.9979526400566101,-0.03295465186238289,-0.03325687348842621,0.04357326775789261
385.0,0.0,0.0,0.0,0.0,0.0,0.0,-0.006907810922712088,0.007453261874616146,0.0002017980150412768,0.9979842901229858,-0.032279957085847855,-0.03288329392671585,0.04363841190934181
386.0,0.0,0.0,0.0,0.0,0.0,0.0,-0.003198859514668584,0.008133678697049618,-0.00392351858317852,0.9980130791664124,-0.031644973903894424,-0.03236086294054985,0.04383441433310509
387.0,0.0,0.0,0.0,0.0,0.0,0.0,0.008641539141535759,0.009024427272379398,-0.007565770763903856,0.9980913996696472,-0.031187517568469048,-0.030845245346426964,0.04347042739391327
388.0,0.0,0.0,0.0,0.0,0.0,0.0,0.010413113981485367,-0.002235542517155409,-0.004790971986949444,0.9981898665428162,-0.030843179672956467,-0.0286283977329731,0.04296695068478584
389.0,0.0,0.0,0.0,0.0,0.0,0.0,0.013700325042009354,0.005556184332817793,0.0035222715232521296,0.9983000159263611,-0.031124310567975044,-0.026098748669028282,0.0418018139898777
390.0,0.0,0.0,0.0,0.0,0.0,0.0,0.01943766325712204,0.014832623302936554,0.011008944362401962,0.9984492063522339,-0.0301009900867939,-0.023676501587033272,0.04041038081049919
391.0,0.0,0.0,0.0,0.0,0.0,0.0,0.020171409472823143,0.002572250785306096,0.008720147423446178,0.9986212849617004,-0.028383707627654076,-0.021663621068000793,0.038482729345560074
392.0,0.0,0.0,0.0,0.0,0.0,0.0,0.014062715694308281,-0.013575231656432152,0.006792310159653425,0.9987825751304626,-0.02622155100107193,-0.020482366904616356,0.03642139956355095
393.0,0.0,0.0,0.0,0.0,0.0,0.0,-0.011792497709393501,-0.027231795713305473,-0.0014548770850524306,0.9988997578620911,-0.02402421645820141,-0.019802985712885857,0.03507260978221893
394.0,0.0,0.0,0.0,0.0,0.0,0.0,-0.04301365092396736,-0.030339187011122704,-0.006408690474927425,0.9990184307098389,-0.022233420982956886,-0.01925351656973362,0.03312663733959198
395.0,0.0,0.0,0.0,0.0,0.0,0.0,-0.06436476856470108,-0.02586926519870758,-0.0025439905002713203,0.9991231560707092,-0.020669545978307724,-0.01838010922074318,0.03143293410539627
396.0,0.0,0.0,0.0,0.0,0.0,0.0,-0.06854254752397537,-0.01808854565024376,0.002831028774380684,0.9992439150810242,-0.01964292675256729,-0.01592239737510681,0.029535632580518723
397.0,0.0,0.0,0.0,0.0,0.0,0.0,-0.04663711041212082,-0.009378684684634209,0.0060835545882582664,0.9993986487388611,-0.01877540908753872,-0.011917916126549244,0.026604585349559784
398.0,0.0,0.0,0.0,0.0,0.0,0.0,-0.014347040094435215,-0.010471337474882603,-0.003748494666069746,0.999518096446991,-0.018325883895158768,-0.007472673896700144,0.023919712752103806
399.0,0.0,0.0,0.0,0.0,0.0,0.0,0.014271159656345844,-0.011387662962079048,-0.013305436819791794,0.9995920062065125,-0.017388125881552696,-0.002924360102042556,0.022477280348539352
400.0,0.0,0.0,0.0,0.0,0.0,0.0,0.0344274640083313,-0.005990434903651476,-0.023712409660220146,0.9996166229248047,-0.016332363709807396,0.0013699264964088798,0.022327661514282227
401.0,0.0,0.0,0.0,0.0,0.0,0.0,0.044506870210170746,0.004374590702354908,-0.028759121894836426,0.9996075630187988,-0.015266203321516514,0.006090714130550623,0.022691382095217705
402.0,0.0,0.0,0.0,0.0,0.0,0.0,0.05262265354394913,0.0216580368578434,-0.020084181800484657,0.9995913505554199,-0.013262907974421978,0.011489281430840492,0.022569216787815094
403.0,0.0,0.0,0.0,0.0,0.0,0.0,0.06242876127362251,0.02599197067320347,-0.01847265660762787,0.9995346665382385,-0.011298938654363155,0.018112225458025932,0.021788742393255234
404.0,0.0,0.0,0.0,0.0,0.0,0.0,0.08127830922603607,0.012374396435916424,-0.02945973351597786,0.9994617104530334,-0.010315502993762493,0.02403198555111885,0.01981404423713684
405.0,0.0,0.0,0.0,0.0,0.0,0.0,0.08552232384681702,0.010930442251265049,-0.026043016463518143,0.9993833303451538,-0.009198647923767567,0.029198741540312767,0.017213931307196617
406.0,0.0,0.0,0.0,0.0,0.0,0.0,0.06350014358758926,0.01604880392551422,-0.010106846690177917,0.9993205666542053,-0.007633934263139963,0.03368225693702698,0.012884045951068401
407.0,0.0,0.0,0.0,0.0,0.0,0.0,0.04287257790565491,0.011566901579499245,-0.006370010785758495,0.9992841482162476,-0.0067015341483056545,0.03676868975162506,0.005856032483279705
408.0,0.0,0.0,0.0,0.0,0.0,0.0,0.05204274132847786,-0.003134068101644516,-0.007494713179767132,0.9992735385894775,-0.007327747065573931,0.03739064559340477,-0.0010574080515652895
409.0,0.0,0.0,0.0,0.0,0.0,0.0,0.03845653310418129,-0.0016148488502949476,0.006624430883675814,0.9992811679840088,-0.008405311033129692,0.03650848940014839,-0.005808474496006966
410.0,0.0,0.0,0.0,0.0,0.0,0.0,-0.01002663653343916,0.011353437788784504,0.04346823692321777,0.9992696642875671,-0.01018272154033184,0.035369403660297394,-0.010315587744116783
411.0,0.0,0.0,0.0,0.0,0.0,0.0,-0.055479276925325394,0.014174802228808403,0.05982489511370659,0.9992431402206421,-0.01286230143159628,0.03384643793106079,-0.01422885712236166
412.0,0.0,0.0,0.0,0.0,0.0,0.0,-0.12041319161653519,-0.0060210623778402805,0.03795197606086731,0.999090850353241,-0.018106071278452873,0.03350868448615074,-0.019179033115506172
413.0,0.0,0.0,0.0,0.0,0.0,0.0,-0.11097169667482376,-0.02348589524626732,0.016117338091135025,0.9987528920173645,-0.02665877155959606,0.03496607393026352,-0.023664256557822227
414.0,0.0,0.0,0.0,0.0,0.0,0.0,-0.04035334661602974,0.0005597371491603553,0.01943940855562687,0.9984030723571777,-0.03509646654129028,0.03623528406023979,-0.025450896471738815
415.0,0.0,0.0,0.0,0.0,0.0,0.0,0.003219920676201582,0.004883396439254284,-0.011100959032773972,0.9981878399848938,-0.0413300059735775,0.035493504256010056,-0.025575829669833183
416.0,0.0,0.0,0.0,0.0,0.0,0.0,0.007227169815450907,-0.012879504822194576,-0.030476050451397896,0.998192548751831,-0.04470648244023323,0.0315718837082386,-0.02484508790075779
417.0,0.0,0.0,0.0,0.0,0.0,0.0,0.0011889105662703514,-0.000766174285672605,-0.02157232165336609,0.9984235167503357,-0.0443597175180912,0.024528728798031807,-0.024117812514305115
418.0,0.0,0.0,0.0,0.0,0.0,0.0,0.04155658558011055,-0.019889310002326965,-0.03806765377521515,0.9989165663719177,-0.04000150039792061,0.014911534264683723,-0.01853961870074272
419.0,0.0,0.0,0.0,0.0,0.0,0.0,0.057652778923511505,-0.0207021813839674,-0.02026108093559742,0.9994984269142151,-0.029972610995173454,0.0025360481813549995,-0.009970038197934628
420.0,0.0,0.0,0.0,0.0,0.0,0.0,0.050432831048965454,0.0017909611342474818,-0.06952287256717682,0.9998417496681213,-0.014535808004438877,-0.010247324593365192,0.0009601344936527312
421.0,0.0,0.0,0.0,0.0,0.0,0.0,-0.005239228252321482,-0.008564137853682041,-0.08638685941696167,0.9997463822364807,0.003338886657729745,-0.02041640132665634,0.008993048220872879
422.0,0.0,0.0,0.0,0.0,0.0,0.0,-0.10933192074298859,-0.10147574543952942,0.003871326567605138,0.9993900060653687,0.007937390357255936,-0.029246030375361443,0.017417648807168007
423.0,0.0,0.0,0.0,0.0,0.0,0.0,0.025953328236937523,0.0808362290263176,-0.026048455387353897,0.9986488819122314,0.014482992701232433,-0.04140559583902359,0.027887078002095222
424.0,0.0,0.0,0.0,0.0,0.0,0.0,0.016486356034874916,0.03929751738905907,0.018872810527682304,0.9977964758872986,0.02009216509759426,-0.04973509535193443,0.039060719311237335
425.0,0.0,0.0,0.0,0.0,0.0,0.0,-0.0036425176076591015,0.02010306343436241,0.031338151544332504,0.9966697692871094,0.023472074419260025,-0.05693041533231735,0.05347749590873718
426.0,0.0,0.0,0.0,0.0,0.0,0.0,0.011276300065219402,-0.00392720103263855,0.018747979775071144,0.9951964020729065,0.023585304617881775,-0.06315413117408752,0.07100185006856918
427.0,0.0,0.0,0.0,0.0,0.0,0.0,-0.031263113021850586,-0.04568065330386162,0.027928277850151062,0.9934284090995789,0.017393000423908234,-0.06777627021074295,0.09057889133691788
428.0,0.0,0.0,0.0,0.0,0.0,0.0,0.04725971445441246,0.0321238748729229,-0.0006667461129836738,0.9909048080444336,0.0113145112991333,-0.07433317601680756,0.11160828173160553
429.0,0.0,0.0,0.0,0.0,0.0,0.0,0.04125281795859337,0.06477003544569016,0.0057330746203660965,0.9887399673461914,0.014686324633657932,-0.08359755575656891,0.12324900925159454
430.0,0.0,0.0,0.0,0.0,0.0,0.0,-0.04345808923244476,0.0493733249604702,0.06633854657411575,0.9869929552078247,0.01208405289798975,-0.08913470059633255,0.13325563073158264
431.0,0.0,0.0,0.0,0.0,0.0,0.0,-0.009646568447351456,0.07693811506032944,0.029862966388463974,0.9852896928787231,0.008135678246617317,-0.09491125494241714,0.14188753068447113
432.0,0.0,0.0,0.0,0.0,0.0,0.0,-0.029644090682268143,0.05900903046131134,0.015434914268553257,0.9841080904006958,0.0033705378882586956,-0.09911563992500305,0.14729702472686768
433.0,0.0,0.0,0.0,0.0,0.0,0.0,-0.016997039318084717,0.05304451659321785,0.007784252054989338,0.9832877516746521,-9.927708788382006e-07,-0.10115209221839905,0.15138623118400574
434.0,0.0,0.0,0.0,0.0,0.0,0.0,-0.00906840618699789,0.03176961466670036,0.0036766326520591974,0.9828178286552429,-0.003910630010068417,-0.10257566720247269,0.15341763198375702
435.0,0.0,0.0,0.0,0.0,0.0,0.0,0.0063956500962376595,0.029980646446347237,-0.014384401962161064,0.9823493957519531,-0.009455299004912376,-0.10287099331617355,0.15594878792762756
436.0,0.0,0.0,0.0,0.0,0.0,0.0,-0.019384078681468964,0.05157827213406563,-0.02027742937207222,0.9821739792823792,-0.013749675825238228,-0.10171739757061005,0.15748465061187744
437.0,0.0,0.0,0.0,0.0,0.0,0.0,-0.025377515703439713,0.019933748990297318,-0.035449039191007614,0.9822809100151062,-0.01699747145175934,-0.09999164193868637,0.1576058566570282
438.0,0.0,0.0,0.0,0.0,0.0,0.0,0.005248709581792355,0.02313525415956974,-0.046857040375471115,0.9824937582015991,-0.020067516714334488,-0.09853437542915344,0.15682749450206757
439.0,0.0,0.0,0.0,0.0,0.0,0.0,0.03376461938023567,0.027615981176495552,-0.017802627757191658,0.9823843836784363,-0.024468569085001945,-0.0969531312584877,0.15788424015045166
440.0,0.0,0.0,0.0,0.0,0.0,0.0,0.028675448149442673,0.026023756712675095,-0.006032027769833803,0.9822182655334473,-0.029630078002810478,-0.09448119252920151,0.15951786935329437
441.0,0.0,0.0,0.0,0.0,0.0,0.0,0.01950981467962265,0.029502233490347862,-0.006642582360655069,0.9821881651878357,-0.03502281755208969,-0.09176459908485413,0.1601879894733429
442.0,0.0,0.0,0.0,0.0,0.0,0.0,-0.009204081259667873,0.034647975116968155,-0.007802944630384445,0.982475221157074,-0.04041225090622902,-0.08850713074207306,0.1589892953634262
443.0,0.0,0.0,0.0,0.0,0.0,0.0,-0.024313505738973618,0.024013947695493698,-0.018543625250458717,0.9832253456115723,-0.044205665588378906,-0.08460461348295212,0.15543705224990845
444.0,0.0,0.0,0.0,0.0,0.0,0.0,-0.03320223465561867,0.023675434291362762,-0.0023099693935364485,0.9845072627067566,-0.045505452901124954,-0.08174698054790497,0.14829957485198975
445.0,0.0,0.0,0.0,0.0,0.0,0.0,-0.021135810762643814,0.019006038084626198,0.028427530080080032,0.9858223795890808,-0.04691671207547188,-0.07974215596914291,0.1399884670972824
446.0,0.0,0.0,0.0,0.0,0.0,0.0,-0.035950902849435806,0.028711486607789993,0.0302844550460577,0.9871966242790222,-0.04828010872006416,-0.07643015682697296,0.13142229616641998
447.0,0.0,0.0,0.0,0.0,0.0,0.0,-0.008831635117530823,0.011725477874279022,0.017093675211071968,0.9883392453193665,-0.04836219176650047,-0.07269357889890671,0.12475194036960602
448.0,0.0,0.0,0.0,0.0,0.0,0.0,0.03170308843255043,0.006540651898831129,0.004078679718077183,0.9890923500061035,-0.04723791405558586,-0.06941323727369308,0.12103262543678284
449.0,0.0,0.0,0.0,0.0,0.0,0.0,0.040364980697631836,0.0016808526124805212,-0.00271462625823915,0.9896846413612366,-0.04392983764410019,-0.06677041202783585,0.11890534311532974
450.0,0.0,0.0,0.0,0.0,0.0,0.0,0.06061450392007828,-0.003205179003998637,0.039585985243320465,0.9905245304107666,-0.03914608061313629,-0.06446316838264465,0.11478263139724731
451.0,0.0,0.0,0.0,0.0,0.0,0.0,-0.002553256694227457,0.0018462062580510974,-0.08224441111087799,0.9918957352638245,-0.03156623616814613,-0.061349689960479736,0.10669174045324326
452.0,0.0,0.0,0.0,0.0,0.0,0.0,0.06575460731983185,0.006836931686848402,-0.024822987616062164,0.99297696352005,-0.022525671869516373,-0.05918825790286064,0.09993799030780792
453.0,0.0,0.0,0.0,0.0,0.0,0.0,0.030513877049088478,-0.0023166832979768515,-0.015619928017258644,0.9940941333770752,-0.017399543896317482,-0.05597294121980667,0.09133055806159973
454.0,0.0,0.0,0.0,0.0,0.0,0.0,-0.017247488722205162,-0.02629169262945652,-0.05133926123380661,0.9950721263885498,-0.014977280050516129,-0.05139486864209175,0.0834706574678421
455.0,0.0,0.0,0.0,0.0,0.0,0.0,-0.0010607688454911113,-0.06083076819777489,-0.06976760923862457,0.9953387379646301,-0.015788061544299126,-0.047495316714048386,0.08244479447603226
456.0,0.0,0.0,0.0,0.0,0.0,0.0,0.03772904723882675,-0.06093071401119232,-0.06203550100326538,0.9950200319290161,-0.020500820130109787,-0.04413868486881256,0.08699026703834534
457.0,0.0,0.0,0.0,0.0,0.0,0.0,0.054633770138025284,-0.0671355351805687,-0.06826093792915344,0.9941263198852539,-0.029727160930633545,-0.04160388559103012,0.0953884869813919
458.0,0.0,0.0,0.0,0.0,0.0,0.0,0.04732675105333328,-0.04210445657372475,-0.024000583216547966,0.9931503534317017,-0.03780139610171318,-0.04091861844062805,0.10271373391151428
459.0,0.0,0.0,0.0,0.0,0.0,0.0,-0.01568460650742054,0.009144392795860767,0.04503735899925232,0.9929727911949158,-0.04129546508193016,-0.040034886449575424,0.10342766344547272
460.0,0.0,0.0,0.0,0.0,0.0,0.0,-0.007669042330235243,0.053094442933797836,0.04387268051505089,0.9931769967079163,-0.04113830253481865,-0.038221824914216995,0.10221005231142044
461.0,0.0,0.0,0.0,0.0,0.0,0.0,-0.0010470295092090964,0.031093040481209755,0.04236647114157677,0.9936794638633728,-0.0378529392182827,-0.034226782619953156,0.09999039769172668
462.0,0.0,0.0,0.0,0.0,0.0,0.0,-0.01752813346683979,0.004048777744174004,0.03516710177063942,0.9943197965621948,-0.03328341990709305,-0.028176723048090935,0.09709729254245758
463.0,0.0,0.0,0.0,0.0,0.0,0.0,-0.045944247394800186,-0.006709616631269455,0.022917788475751877,0.995101809501648,-0.02810186892747879,-0.020252928137779236,0.09259863197803497
464.0,0.0,0.0,0.0,0.0,0.0,0.0,-0.01393397618085146,-0.011089405044913292,0.022343270480632782,0.9960618615150452,-0.01950242556631565,-0.013733936473727226,0.08540079742670059
465.0,0.0,0.0,0.0,0.0,0.0,0.0,-0.013403600081801414,-0.01934812031686306,0.05590418353676796,0.9974202513694763,-0.006559478119015694,-0.006341963075101376,0.07120297849178314
466.0,0.0,0.0,0.0,0.0,0.0,0.0,0.015721354633569717,-0.023505132645368576,0.0045793987810611725,0.9985305666923523,0.00944190751761198,0.0009119184105657041,0.05336656793951988
467.0,0.0,0.0,0.0,0.0,0.0,0.0,0.018333084881305695,-0.07376637309789658,-0.008197187446057796,0.9989271759986877,0.030443912371993065,0.0077879964374005795,0.034022677689790726
468.0,0.0,0.0,0.0,0.0,0.0,0.0,0.009883384220302105,-0.09957034140825272,-0.059579115360975266,0.9984754323959351,0.051657311618328094,0.014853915199637413,0.012583700008690357
469.0,0.0,0.0,0.0,0.0,0.0,0.0,0.04951982572674751,-0.11409374326467514,-0.0807248055934906,0.9976044297218323,0.06681006401777267,0.0178288072347641,-0.002026686677709222
470.0,0.0,0.0,0.0,0.0,0.0,0.0,0.09438882023096085,-0.13126718997955322,-0.02253160998225212,0.9968279004096985,0.07668006420135498,0.018048690631985664,-0.011353684589266777
471.0,0.0,0.0,0.0,0.0,0.0,0.0,0.095047228038311,-0.07483261823654175,-0.026730751618742943,0.9964349865913391,0.08148116618394852,0.015496707521378994,-0.015440945513546467
472.0,0.0,0.0,0.0,0.0,0.0,0.0,0.052318911999464035,-0.06194651126861572,-0.009959238581359386,0.9963854551315308,0.08184725791215897,0.012061561457812786,-0.019290268421173096
473.0,0.0,0.0,0.0,0.0,0.0,0.0,0.023016061633825302,-0.060386862605810165,0.01937980391085148,0.9964832663536072,0.0799226388335228,0.008335169404745102,-0.023748502135276794
474.0,0.0,0.0,0.0,0.0,0.0,0.0,0.03197415545582771,-0.06117253005504608,-0.0005826035630889237,0.9966363310813904,0.07713881880044937,0.004242158494889736,-0.02735724113881588
475.0,0.0,0.0,0.0,0.0,0.0,0.0,0.06915866583585739,-0.07162156701087952,-0.0529024712741375,0.997115969657898,0.07090891152620316,-0.0021090861409902573,-0.026982516050338745
476.0,0.0,0.0,0.0,0.0,0.0,0.0,0.0772324725985527,-0.018724361434578896,-0.03796885162591934,0.9975531101226807,0.06433209031820297,-0.009707581251859665,-0.02559959515929222
477.0,0.0,0.0,0.0,0.0,0.0,0.0,0.05959992855787277,-0.0024058730341494083,0.012423545122146606,0.9976409673690796,0.0614829957485199,-0.017090700566768646,-0.025308094918727875
478.0,0.0,0.0,0.0,0.0,0.0,0.0,0.02720918320119381,-0.020780183374881744,0.05728043615818024,0.9975177645683289,0.06128881871700287,-0.022261368110775948,-0.026591317728161812
479.0,0.0,0.0,0.0,0.0,0.0,0.0,-0.005547427572309971,-0.011510553769767284,0.004054808523505926,0.9974755644798279,0.05997450649738312,-0.025608014315366745,-0.028110073879361153
480.0,0.0,0.0,0.0,0.0,0.0,0.0,0.008847778663039207,-0.008121978491544724,-0.025818491354584694,0.9975578784942627,0.056907832622528076,-0.028080273419618607,-0.02918955869972706
481.0,0.0,0.0,0.0,0.0,0.0,0.0,0.0027271213475614786,-0.018628884106874466,-0.032214369624853134,0.9978413581848145,0.05045180767774582,-0.029407018795609474,-0.030048703774809837
482.0,0.0,0.0,0.0,0.0,0.0,0.0,-0.015753133222460747,-0.014495430514216423,0.0051077078096568584,0.998161792755127,0.04319554194808006,-0.029580339789390564,-0.03053360991179943
483.0,0.0,0.0,0.0,0.0,0.0,0.0,0.016240807250142097,-0.017722779884934425,0.0028034993447363377,0.9984789490699768,0.03528342396020889,-0.03047875128686428,-0.02943420596420765
484.0,0.0,0.0,0.0,0.0,0.0,0.0,0.014317545108497143,-0.02026071585714817,-0.02814953587949276,0.9987550973892212,0.026746118441224098,-0.032201699912548065,-0.027137385681271553
485.0,0.0,0.0,0.0,0.0,0.0,0.0,0.008723827078938484,-0.0023143538273870945,-0.02747207134962082,0.9989743232727051,0.016301367431879044,-0.03478116914629936,-0.023995131254196167
486.0,0.0,0.0,0.0,0.0,0.0,0.0,-0.0034885117784142494,0.01650499552488327,0.0004199686227366328,0.9990471005439758,0.005634743254631758,-0.03769936040043831,-0.021268969401717186
487.0,0.0,0.0,0.0,0.0,0.0,0.0,-0.03592262044548988,0.026829218491911888,-0.00591418519616127,0.9989983439445496,-0.004714426584541798,-0.04098210483789444,-0.017348160967230797
488.0,0.0,0.0,0.0,0.0,0.0,0.0,-0.039782505482435226,0.02440738119184971,0.007100184913724661,0.9988335371017456,-0.0147583382204175,-0.04442652314901352,-0.011874659918248653
489.0,0.0,0.0,0.0,0.0,0.0,0.0,-0.028492417186498642,0.0028329622000455856,0.017746590077877045,0.9985120296478271,-0.02483932487666607,-0.048230431973934174,-0.00562644936144352
490.0,0.0,0.0,0.0,0.0,0.0,0.0,-0.010785363614559174,-0.016430065035820007,0.003930774517357349,0.9979919791221619,-0.03583279624581337,-0.0520227886736393,0.004646794870495796
491.0,0.0,0.0,0.0,0.0,0.0,0.0,0.005182975437492132,0.015070312656462193,0.025048576295375824,0.9972653985023499,-0.044306665658950806,-0.055923715233802795,0.0192972794175148
492.0,0.0,0.0,0.0,0.0,0.0,0.0,-0.021876586601138115,0.04058022052049637,0.042040709406137466,0.9965977072715759,-0.04818800091743469,-0.05803496390581131,0.0332300141453743
493.0,0.0,0.0,0.0,0.0,0.0,0.0,-0.039051078259944916,0.05501672253012657,0.020245058462023735,0.9958633780479431,-0.051863204687833786,-0.058916956186294556,0.045774053782224655
494.0,0.0,0.0,0.0,0.0,0.0,0.0,-0.03393039107322693,0.06280050426721573,0.013076634146273136,0.9951581954956055,-0.05359823256731033,-0.0604800321161747,0.05594697967171669
495.0,0.0,0.0,0.0,0.0,0.0,0.0,-0.01907537691295147,0.05357174575328827,0.028102673590183258,0.9946685433387756,-0.05404539406299591,-0.0603630505502224,0.06380174309015274
496.0,0.0,0.0,0.0,0.0,0.0,0.0,-0.019576553255319595,0.04214595630764961,-0.0010307513875886798,0.994297206401825,-0.054851215332746506,-0.060104597359895706,0.06894346326589584
497.0,0.0,0.0,0.0,0.0,0.0,0.0,-0.02143419161438942,0.04459851235151291,-0.0007729331846348941,0.9941321015357971,-0.054037515074014664,-0.059597197920084,0.0723140686750412
498.0,0.0,0.0,0.0,0.0,0.0,0.0,-0.011805902235209942,0.043633487075567245,0.009758665226399899,0.9940797686576843,-0.052615582942962646,-0.057518720626831055,0.07569226622581482
499.0,0.0,0.0,0.0,0.0,0.0,0.0,-0.011594452895224094,0.04189136624336243,0.01220640353858471,0.9940761923789978,-0.050905898213386536,-0.05539903789758682,0.0784400925040245
500.0,0.0,0.0,0.0,0.0,0.0,0.0,0.0007714491221122444,0.037608951330184937,0.010279352776706219,0.994123637676239,-0.04952294006943703,-0.052779801189899445,0.08050370216369629
501.0,0.0,0.0,0.0,0.0,0.0,0.0,0.007479230873286724,0.025405574589967728,0.010238850489258766,0.9942011833190918,-0.04820208624005318,-0.04977036267518997,0.08224999159574509
502.0,0.0,0.0,0.0,0.0,0.0,0.0,0.011151536367833614,0.02290625311434269,-0.006163239479064941,0.9943942427635193,-0.04545920342206955,-0.04655379801988602,0.08335231244564056
503.0,0.0,0.0,0.0,0.0,0.0,0.0,0.024761993438005447,0.007569597102701664,0.0012081004679203033,0.9946292638778687,-0.042119402438402176,-0.0439038947224617,0.08372633904218674
504.0,0.0,0.0,0.0,0.0,0.0,0.0,0.034017547965049744,-0.0063690077513456345,-0.002838314976543188,0.9948323965072632,-0.038895271718502045,-0.041700009256601334,0.084002785384655
505.0,0.0,0.0,0.0,0.0,0.0,0.0,0.024939103052020073,-0.0031406288035213947,-0.007626731414347887,0.9949609041213989,-0.03510189428925514,-0.039388734847307205,0.08525575697422028
506.0,0.0,0.0,0.0,0.0,0.0,0.0,0.003971561789512634,0.003900585463270545,0.00011856394849019125,0.9949071407318115,-0.030926521867513657,-0.03638242930173874,0.08877861499786377
507.0,0.0,0.0,0.0,0.0,0.0,0.0,0.023384887725114822,-0.015514612197875977,0.013963601551949978,0.9949142336845398,-0.02657194435596466,-0.033543672412633896,0.09118720889091492
508.0,0.0,0.0,0.0,0.0,0.0,0.0,0.03552115336060524,-0.02139643020927906,-0.004665699787437916,0.9947194457054138,-0.025123365223407745,-0.030657611787319183,0.09467646479606628
509.0,0.0,0.0,0.0,0.0,0.0,0.0,0.01552356407046318,-0.0321856290102005,-0.029317650943994522,0.9946920275688171,-0.025541877374053,-0.028512563556432724,0.0955171063542366
510.0,0.0,0.0,0.0,0.0,0.0,0.0,0.011041627265512943,-0.06879884749650955,-0.04686248302459717,0.9947617053985596,-0.030609017238020897,-0.027250180020928383,0.09365478157997131
511.0,0.0,0.0,0.0,0.0,0.0,0.0,0.02582215890288353,-0.018335895612835884,-0.05047653988003731,0.9946147203445435,-0.03819826617836952,-0.027227094396948814,0.09242622554302216
512.0,0.0,0.0,0.0,0.0,0.0,0.0,0.03276265785098076,-0.04829462617635727,-0.024102676659822464,0.9943863153457642,-0.04437185823917389,-0.027039743959903717,0.09217590093612671
513.0,0.0,0.0,0.0,0.0,0.0,0.0,0.014402787201106548,0.06116459518671036,0.002272719517350197,0.9942435622215271,-0.0467386320233345,-0.02652938850224018,0.09269335865974426
514.0,0.0,0.0,0.0,0.0,0.0,0.0,-0.0008935922523960471,0.07737435400485992,0.025963876396417618,0.9943944811820984,-0.044225987046957016,-0.024368686601519585,0.09290594607591629
515.0,0.0,0.0,0.0,0.0,0.0,0.0,-0.0035678616259247065,0.03051885776221752,0.021302808076143265,0.9945810437202454,-0.04184094816446304,-0.022688189521431923,0.09242487698793411
516.0,0.0,0.0,0.0,0.0,0.0,0.0,0.018863053992390633,0.020940549671649933,0.002706431318074465,0.9947136640548706,-0.039358820766210556,-0.02235289290547371,0.09217392653226852
517.0,0.0,0.0,0.0,0.0,0.0,0.0,0.029292045161128044,0.014545407146215439,0.005232089664787054,0.9948996305465698,-0.035294823348522186,-0.023055696859955788,0.09163660556077957
518.0,0.0,0.0,0.0,0.0,0.0,0.0,0.0034363095182925463,0.012348671443760395,0.02815767377614975,0.9951735734939575,-0.029163580387830734,-0.023720702156424522,0.09064290672540665
519.0,0.0,0.0,0.0,0.0,0.0,0.0,-0.018965691328048706,0.0063659800216555595,0.04802582785487175,0.9957302808761597,-0.02245890349149704,-0.02407589927315712,0.08624690026044846
520.0,0.0,0.0,0.0,0.0,0.0,0.0,-0.04971704259514809,0.033369068056344986,0.09954013675451279,0.9969289898872375,-0.014163589105010033,-0.02340143732726574,0.07338609546422958
521.0,0.0,0.0,0.0,0.0,0.0,0.0,-0.02257632091641426,0.039880432188510895,0.07241988182067871,0.9982167482376099,-0.004837592598050833,-0.023307515308260918,0.054745081812143326
522.0,0.0,0.0,0.0,0.0,0.0,0.0,0.04361647740006447,0.0012663369998335838,0.04388495162129402,0.9989543557167053,0.00967354141175747,-0.023828715085983276,0.037810102105140686
523.0,0.0,0.0,0.0,0.0,0.0,0.0,0.03668767213821411,-0.039777446538209915,0.015118654817342758,0.9990698099136353,0.030984338372945786,-0.022542394697666168,0.01979299820959568
524.0,0.0,0.0,0.0,0.0,0.0,0.0,0.02526879496872425,-0.0934806540608406,-0.0868975967168808,0.9986007213592529,0.047894611954689026,-0.022231465205550194,0.002933260751888156
525.0,0.0,0.0,0.0,0.0,0.0,0.0,-0.004952988587319851,-0.09059204906225204,-0.0649658665060997,0.9978261590003967,0.061207257211208344,-0.021406495943665504,-0.011777817271649837
526.0,0.0,0.0,0.0,0.0,0.0,0.0,0.022905340418219566,-0.12911681830883026,-0.021915728226304054,0.9970409274101257,0.07104679197072983,-0.019681477919220924,-0.021786348894238472
527.0,0.0,0.0,0.0,0.0,0.0,0.0,0.07904325425624847,-0.10029963403940201,-0.04695627838373184,0.9968093633651733,0.07261590659618378,-0.020110465586185455,-0.026336172595620155
528.0,0.0,0.0,0.0,0.0,0.0,0.0,0.0974419116973877,-0.06942330300807953,-0.08401726931333542,0.9970083236694336,0.06823264807462692,-0.02173701301217079,-0.029092276468873024
529.0,0.0,0.0,0.0,0.0,0.0,0.0,0.10225079953670502,-0.07560691237449646,-0.06637293100357056,0.9975965619087219,0.057637665420770645,-0.023645956069231033,-0.03033638186752796
530.0,0.0,0.0,0.0,0.0,0.0,0.0,0.06901692599058151,-0.028508394956588745,0.004597119987010956,0.998226523399353,0.044909559190273285,-0.024066833779215813,-0.030789248645305634
531.0,0.0,0.0,0.0,0.0,0.0,0.0,0.029534511268138885,0.01592317223548889,-0.008094381541013718,0.9985920190811157,0.035606566816568375,-0.024249328300356865,-0.030954748392105103
532.0,0.0,0.0,0.0,0.0,0.0,0.0,-0.009146353229880333,0.023765796795487404,-0.04307066276669502,0.9990326166152954,0.025274712592363358,-0.02214721590280533,-0.02836385928094387
533.0,0.0,0.0,0.0,0.0,0.0,0.0,0.0027214111760258675,0.015975704416632652,-0.03485950827598572,0.9994968771934509,0.012098356150090694,-0.019437648355960846,-0.02195463702082634
534.0,0.0,0.0,0.0,0.0,0.0,0.0,0.0044759223237633705,0.004216818604618311,0.04689701646566391,0.9996593594551086,0.0003342115960549563,-0.018683668226003647,-0.01822950504720211
535.0,0.0,0.0,0.0,0.0,0.0,0.0,-0.02569747157394886,-0.0009721993119455874,0.04609113559126854,0.9996782541275024,-0.007883650250732899,-0.01737077906727791,-0.016720132902264595
536.0,0.0,0.0,0.0,0.0,0.0,0.0,0.00206663622520864,-0.0019072099821642041,-0.014291820116341114,0.9996450543403625,-0.015992920845746994,-0.01656424254179001,-0.013410661369562149
537.0,0.0,0.0,0.0,0.0,0.0,0.0,-0.002164021832868457,0.006273425649851561,-0.004417723510414362,0.9995151162147522,-0.023714307695627213,-0.016113411635160446,-0.012150135822594166
538.0,0.0,0.0,0.0,0.0,0.0,0.0,-0.01236453652381897,0.0008762361248955131,-0.011875270865857601,0.9994227290153503,-0.028179597109556198,-0.015997737646102905,-0.01021482516080141
539.0,0.0,0.0,0.0,0.0,0.0,0.0,-0.010272114537656307,-0.03464017063379288,-0.029222995042800903,0.9992877840995789,-0.03308042883872986,-0.016854893416166306,-0.006771995685994625
540.0,0.0,0.0,0.0,0.0,0.0,0.0,-0.007281520403921604,-0.08923467248678207,-0.03237883374094963,0.9989054799079895,-0.043173473328351974,-0.01792643964290619,-0.001804266357794404
541.0,0.0,0.0,0.0,0.0,0.0,0.0,-0.006932199466973543,0.01648230291903019,0.012075844220817089,0.9982470870018005,-0.0554686114192009,-0.019782768562436104,0.005868222564458847
542.0,0.0,0.0,0.0,0.0,0.0,0.0,-0.030324416235089302,0.06519864499568939,0.03780113533139229,0.9977524280548096,-0.06089337170124054,-0.019965017214417458,0.019592538475990295
543.0,0.0,0.0,0.0,0.0,0.0,0.0,-0.07749043405056,0.0676397904753685,0.03667081892490387,0.9973041415214539,-0.06405451148748398,-0.018143095076084137,0.03087175451219082
544.0,0.0,0.0,0.0,0.0,0.0,0.0,-0.08214307576417923,0.11265352368354797,0.06258734315633774,0.9970836639404297,-0.06328471750020981,-0.015392984263598919,0.0397760309278965
545.0,0.0,0.0,0.0,0.0,0.0,0.0,-0.06158570945262909,0.11054684966802597,0.07418659329414368,0.9971696734428406,-0.05656315013766289,-0.011206756345927715,0.04826238378882408
546.0,0.0,0.0,0.0,0.0,0.0,0.0,-0.05365307256579399,0.06189090758562088,0.05490703880786896,0.9974380135536194,-0.04448730871081352,-0.005940522998571396,0.05571471527218819
547.0,0.0,0.0,0.0,0.0,0.0,0.0,-0.03878171369433403,-0.0003025413607247174,-0.009824970737099648,0.9976552724838257,-0.033015649765729904,8.623883331893012e-05,0.0599508173763752
548.0,0.0,0.0,0.0,0.0,0.0,0.0,-0.011577929370105267,-0.009240392595529556,-0.006126237567514181,0.9976730942726135,-0.020358314737677574,0.006729591637849808,0.06472383439540863
549.0,0.0,0.0,0.0,0.0,0.0,0.0,0.03603828325867653,-0.058742862194776535,0.01441990677267313,0.9977642893791199,-0.009737216867506504,0.012509516440331936,0.06492523103952408
550.0,0.0,0.0,0.0,0.0,0.0,0.0,0.08430643379688263,0.011959964409470558,0.01606588438153267,0.9979008436203003,9.475406841374934e-05,0.015425808727741241,0.06290635466575623
551.0,0.0,0.0,0.0,0.0,0.0,0.0,0.013856626115739346,-0.056753285229206085,-0.04812480881810188,0.9979909062385559,0.008673672564327717,0.01929803192615509,0.05972559005022049
552.0,0.0,0.0,0.0,0.0,0.0,0.0,0.03130021318793297,-0.06996144354343414,-0.12477920204401016,0.9981328248977661,0.012316885404288769,0.020892197266221046,0.056060776114463806
553.0,0.0,0.0,0.0,0.0,0.0,0.0,0.034988343715667725,-0.08567945659160614,-0.10981493443250656,0.9982919096946716,0.010469896718859673,0.02091878466308117,0.053541358560323715
554.0,0.0,0.0,0.0,0.0,0.0,0.0,0.08664596825838089,-0.104181207716465,-0.11703738570213318,0.9981592297554016,0.0026239496655762196,0.01917244866490364,0.05748683959245682
555.0,0.0,0.0,0.0,0.0,0.0,0.0,0.14979514479637146,-0.06225588917732239,-0.059276122599840164,0.9971545934677124,-0.0076037924736738205,0.01562555320560932,0.0733553022146225
556.0,0.0,0.0,0.0,0.0,0.0,0.0,0.008008773438632488,-0.028197450563311577,0.015681598335504532,0.995356559753418,-0.020271139219403267,0.015666326507925987,0.09278951585292816
557.0,0.0,0.0,0.0,0.0,0.0,0.0,0.006630077492445707,0.06512963771820068,0.02289215475320816,0.9933369755744934,-0.029489174485206604,0.011857348494231701,0.11078637838363647
558.0,0.0,0.0,0.0,0.0,0.0,0.0,-0.027169667184352875,0.09054674953222275,0.045431338250637054,0.9922266006469727,-0.031570278108119965,0.006778135430067778,0.12019364535808563
559.0,0.0,0.0,0.0,0.0,0.0,0.0,-0.06707319617271423,0.040210627019405365,0.016072219237685204,0.9915115833282471,-0.0346585288643837,0.005693488288670778,0.1251928210258484
560.0,0.0,0.0,0.0,0.0,0.0,0.0,-0.043246448040008545,0.017599506303668022,2.8901713449158706e-06,0.9910054206848145,-0.03659862279891968,0.005377784371376038,0.1286098212003708
561.0,0.0,0.0,0.0,0.0,0.0,0.0,-0.018235543742775917,0.015772530809044838,-0.004069322254508734,0.990818440914154,-0.03842933103442192,0.0042085787281394005,0.12956811487674713
562.0,0.0,0.0,0.0,0.0,0.0,0.0,8.9359084086027e-05,0.020308278501033783,0.02316926419734955,0.990664005279541,-0.0418173149228096,0.002861411077901721,0.12973874807357788
563.0,0.0,0.0,0.0,0.0,0.0,0.0,0.0030858058016747236,0.026610737666487694,0.022535454481840134,0.9902058243751526,-0.045298852026462555,0.003893653629347682,0.13200367987155914
564.0,0.0,0.0,0.0,0.0,0.0,0.0,-0.016261128708720207,0.016432680189609528,-0.025716515257954597,0.9899502992630005,-0.04737510904669762,0.004574778489768505,0.13316050171852112
565.0,0.0,0.0,0.0,0.0,0.0,0.0,0.009847409091889858,0.01386792492121458,-0.027557723224163055,0.9899108409881592,-0.05016482248902321,0.0030666328966617584,0.13247768580913544
566.0,0.0,0.0,0.0,0.0,0.0,0.0,0.01586766727268696,0.013483245857059956,-0.02048332430422306,0.9898858666419983,-0.053422730416059494,0.0003479659208096564,0.13141678273677826
567.0,0.0,0.0,0.0,0.0,0.0,0.0,0.007716598454862833,0.006405061110854149,-0.005306466482579708,0.9900726079940796,-0.05551870912313461,-0.0027205762453377247,0.12911570072174072
568.0,0.0,0.0,0.0,0.0,0.0,0.0,0.024432314559817314,-0.0061769308522343636,-0.013456499204039574,0.9904439449310303,-0.05627817660570145,-0.006900768727064133,0.12573356926441193
569.0,0.0,0.0,0.0,0.0,0.0,0.0,0.04639708995819092,-0.005121396388858557,-0.009407325647771358,0.9907693862915039,-0.05710778012871742,-0.011090575717389584,0.12243606895208359
570.0,0.0,0.0,0.0,0.0,0.0,0.0,0.03847479447722435,0.03332684189081192,-0.0012480196310207248,0.9906957745552063,-0.059956144541502,-0.0167728029191494,0.12102269381284714
571.0,0.0,0.0,0.0,0.0,0.0,0.0,-0.020494356751441956,0.06068538501858711,0.0378127358853817,0.9908475279808044,-0.05982004478573799,-0.02206626906991005,0.11900031566619873
572.0,0.0,0.0,0.0,0.0,0.0,0.0,-0.05137404799461365,0.06344335526227951,0.034362319856882095,0.9909748435020447,-0.05818290263414383,-0.025729993358254433,0.11800757050514221
573.0,0.0,0.0,0.0,0.0,0.0,0.0,-0.031102634966373444,0.07151942700147629,0.027703411877155304,0.9909762144088745,-0.05485331267118454,-0.027584223076701164,0.1191517561674118
574.0,0.0,0.0,0.0,0.0,0.0,0.0,-0.032160501927137375,0.06984429806470871,0.03755054622888565,0.9912829399108887,-0.0499843992292881,-0.028347808867692947,0.11856763809919357
575.0,0.0,0.0,0.0,0.0,0.0,0.0,-0.020309491083025932,0.04607232287526131,0.039797231554985046,0.9918104410171509,-0.04488630220293999,-0.027338724583387375,0.11640452593564987
576.0,0.0,0.0,0.0,0.0,0.0,0.0,0.001973553793504834,0.01873595081269741,0.018127253279089928,0.9922416806221008,-0.040054917335510254,-0.025212958455085754,0.11495999991893768
577.0,0.0,0.0,0.0,0.0,0.0,0.0,0.017571190372109413,0.010192547924816608,0.01751604676246643,0.9925569295883179,-0.037104494869709015,-0.023576362058520317,0.11357641965150833
578.0,0.0,0.0,0.0,0.0,0.0,0.0,-0.003279859432950616,0.004768283572047949,0.017208976671099663,0.9929624795913696,-0.0343782939016819,-0.021762315183877945,0.11122946441173553
579.0,0.0,0.0,0.0,0.0,0.0,0.0,0.006725741550326347,0.0028091403655707836,0.002593731740489602,0.9931732416152954,-0.031823210418224335,-0.0197293683886528,0.11048590391874313
580.0,0.0,0.0,0.0,0.0,0.0,0.0,0.02632511965930462,-0.00791944470256567,-0.016795875504612923,0.9932523965835571,-0.031090600416064262,-0.018495341762900352,0.11019530147314072
581.0,0.0,0.0,0.0,0.0,0.0,0.0,0.012427244335412979,-0.01281902939081192,-0.023899121209979057,0.993465006351471,-0.03147602081298828,-0.01852213218808174,0.10814324021339417
582.0,0.0,0.0,0.0,0.0,0.0,0.0,0.01629856415092945,-0.009768321178853512,-0.010358158499002457,0.9937142729759216,-0.030742472037672997,-0.018707359209656715,0.10600364953279495
583.0,0.0,0.0,0.0,0.0,0.0,0.0,0.03126222640275955,-0.026216130703687668,-0.020589446648955345,0.9937556385993958,-0.03203810006380081,-0.018884198740124702,0.10519471764564514
584.0,0.0,0.0,0.0,0.0,0.0,0.0,0.022150428965687752,0.0032973340712487698,-0.011661682277917862,0.9937928915023804,-0.03292267397046089,-0.01944253221154213,0.10447290539741516
585.0,0.0,0.0,0.0,0.0,0.0,0.0,0.0005142672453075647,0.0063920579850673676,0.00658031553030014,0.9939559698104858,-0.032223496586084366,-0.019107073545455933,0.1031905859708786
586.0,0.0,0.0,0.0,0.0,0.0,0.0,0.0007484517991542816,-0.0003812202485278249,-0.0011752964928746223,0.9940826296806335,-0.031881265342235565,-0.018373902887105942,0.10221073031425476
587.0,0.0,0.0,0.0,0.0,0.0,0.0,0.01742599718272686,0.0034548602998256683,-0.006067460402846336,0.9942050576210022,-0.0315413698554039,-0.017720036208629608,0.10123294591903687
588.0,0.0,0.0,0.0,0.0,0.0,0.0,0.017444999888539314,-0.005369448568671942,-0.000761358707677573,0.9943581223487854,-0.03102322295308113,-0.017276324331760406,0.09996384382247925
589.0,0.0,0.0,0.0,0.0,0.0,0.0,0.014553643763065338,-0.009991319850087166,-0.011136241257190704,0.9944186806678772,-0.03072308376431465,-0.016722263768315315,0.09953847527503967
590.0,0.0,0.0,0.0,0.0,0.0,0.0,0.014525211416184902,-0.02730424702167511,-0.01933067850768566,0.9945023059844971,-0.03234560787677765,-0.01636333018541336,0.09825122356414795
591.0,0.0,0.0,0.0,0.0,0.0,0.0,0.021992510184645653,-0.052072614431381226,-0.030326254665851593,0.9945616722106934,-0.03586336597800255,-0.016282467171549797,0.09641506522893906
592.0,0.0,0.0,0.0,0.0,0.0,0.0,0.04231046140193939,-0.026027439162135124,-0.04449055716395378,0.9944507479667664,-0.037568360567092896,-0.017239104956388474,0.09674752503633499
593.0,0.0,0.0,0.0,0.0,0.0,0.0,0.02448113076388836,0.0302216038107872,-0.019628329202532768,0.9944871068000793,-0.035816747695207596,-0.019230468198657036,0.09666717797517776
594.0,0.0,0.0,0.0,0.0,0.0,0.0,-0.02289697527885437,0.07582194358110428,0.02411605976521969,0.9949654340744019,-0.031953439116477966,-0.020949125289916992,0.09266340732574463
595.0,0.0,0.0,0.0,0.0,0.0,0.0,-0.040713027119636536,0.05438096076250076,0.04884671792387962,0.9955325126647949,-0.027120254933834076,-0.021872932091355324,0.087757907807827
596.0,0.0,0.0,0.0,0.0,0.0,0.0,-0.02760707214474678,0.06583759933710098,0.07591623067855835,0.9963370561599731,-0.020856304094195366,-0.022043833509087563,0.07995443791151047
597.0,0.0,0.0,0.0,0.0,0.0,0.0,-0.04136180505156517,0.046999868005514145,0.0880608856678009,0.9974411725997925,-0.013474647887051105,-0.021411994472146034,0.06687048822641373
598.0,0.0,0.0,0.0,0.0,0.0,0.0,-0.043916672468185425,0.03138682246208191,0.07315955311059952,0.9985222220420837,-0.0057921945117414,-0.019401846453547478,0.05044475570321083
599.0,0.0,0.0,0.0,0.0,0.0,0.0,0.006266034673899412,0.020653223618865013,0.08483142405748367,0.999304473400116,0.00486569432541728,-0.01603446528315544,0.03331887349486351
600.0,0.0,0.0,0.0,0.0,0.0,0.0,0.02369953691959381,0.0017447671853005886,0.05364246293902397,0.9996611475944519,0.017634689807891846,-0.012183083221316338,0.014779426157474518
601.0,0.0,0.0,0.0,0.0,0.0,0.0,0.056175097823143005,-0.028848513960838318,0.006636790931224823,0.999372124671936,0.034506939351558685,-0.007931966334581375,0.0013773005921393633
602.0,0.0,0.0,0.0,0.0,0.0,0.0,0.07511048018932343,-0.0650755986571312,-0.0010155098279938102,0.9983479976654053,0.055995598435401917,-0.0023153559304773808,-0.012667281553149223
603.0,0.0,0.0,0.0,0.0,0.0,0.0,0.020773420110344887,-0.10197267681360245,-0.08730873465538025,0.9969834685325623,0.07247518748044968,0.003309040330350399,-0.02757657691836357
604.0,0.0,0.0,0.0,0.0,0.0,0.0,0.031972188502550125,-0.1596926748752594,-0.1077054888010025,0.9960482716560364,0.08044776320457458,0.007155757397413254,-0.03694385662674904
605.0,0.0,0.0,0.0,0.0,0.0,0.0,0.13857433199882507,-0.11995209753513336,-0.06360114365816116,0.996195375919342,0.07887672632932663,0.0065261186100542545,-0.036480776965618134
606.0,0.0,0.0,0.0,0.0,0.0,0.0,0.09059812128543854,-0.08230762928724289,-0.0772688016295433,0.9967436194419861,0.07157456129789352,0.0068837860599160194,-0.03649851307272911
607.0,0.0,0.0,0.0,0.0,0.0,0.0,0.058010563254356384,-0.07705581933259964,-0.05263041704893112,0.9973523616790771,0.06215095520019531,0.006829581689089537,-0.03713306412100792
608.0,0.0,0.0,0.0,0.0,0.0,0.0,0.08279868215322495,-0.07086752355098724,-0.04185585677623749,0.9980484247207642,0.050318002700805664,0.0045486073940992355,-0.036699265241622925
609.0,0.0,0.0,0.0,0.0,0.0,0.0,0.06468181312084198,-0.0169793963432312,-0.008002126589417458,0.9985736608505249,0.040722332894802094,0.0009061323362402618,-0.03452235460281372
610.0,0.0,0.0,0.0,0.0,0.0,0.0,0.004054113756865263,0.0015417939284816384,0.04816751554608345,0.9988387823104858,0.03536923602223396,-0.0008408768335357308,-0.032704442739486694
611.0,0.0,0.0,0.0,0.0,0.0,0.0,-0.01239344198256731,-0.016948828473687172,0.004321379121392965,0.9990068674087524,0.0320395864546299,-0.0014259611489251256,-0.030932968482375145
612.0,0.0,0.0,0.0,0.0,0.0,0.0,-0.014469495974481106,-0.027102412655949593,-0.02406626008450985,0.999164879322052,0.027412332594394684,-0.0016051892889663577,-0.03025929257273674
613.0,0.0,0.0,0.0,0.0,0.0,0.0,-0.00511509133502841,-0.019979238510131836,-0.004619330167770386,0.9993870258331299,0.021194249391555786,-0.001874498906545341,-0.027802078053355217
614.0,0.0,0.0,0.0,0.0,0.0,0.0,0.0019082481740042567,-0.02498842403292656,-0.03252863511443138,0.9996220469474792,0.014397443272173405,-0.002470177598297596,-0.02329396829009056
615.0,0.0,0.0,0.0,0.0,0.0,0.0,0.0255691297352314,-0.03344414010643959,-0.06835334748029709,0.9998403787612915,0.004444450605660677,-0.003720843233168125,-0.01690896414220333
616.0,0.0,0.0,0.0,0.0,0.0,0.0,0.03583372011780739,-0.04169841110706329,-0.08707931637763977,0.9998860955238342,-0.008926833048462868,-0.007392567116767168,-0.009660889394581318
617.0,0.0,0.0,0.0,0.0,0.0,0.0,0.020489957183599472,-0.06719829142093658,-0.08440842479467392,0.9995909333229065,-0.025634832680225372,-0.012691233307123184,-0.0003568615356925875
618.0,0.0,0.0,0.0,0.0,0.0,0.0,0.005281866528093815,-0.0925610363483429,-0.017547303810715675,0.9987631440162659,-0.044225845485925674,-0.017797483131289482,0.014156153425574303
619.0,0.0,0.0,0.0,0.0,0.0,0.0,0.02159409411251545,0.07940369099378586,0.04164852574467659,0.9978023171424866,-0.05373268574476242,-0.024648191407322884,0.029943294823169708
620.0,0.0,0.0,0.0,0.0,0.0,0.0,-0.06610658019781113,0.047846823930740356,0.061156969517469406,0.9971808195114136,-0.05430911108851433,-0.029901152476668358,0.04228020831942558
621.0,0.0,0.0,0.0,0.0,0.0,0.0,-0.07498043775558472,0.09565366804599762,0.07356911152601242,0.9967817664146423,-0.04884777590632439,-0.03467833623290062,0.053270768374204636
622.0,0.0,0.0,0.0,0.0,0.0,0.0,-0.048020634800195694,0.09576202183961868,0.04724108427762985,0.996637761592865,-0.03955605626106262,-0.038132648915052414,0.06079324707388878
623.0,0.0,0.0,0.0,0.0,0.0,0.0,-0.02529742941260338,0.046405769884586334,0.028391815721988678,0.9967217445373535,-0.02510710619390011,-0.03932762145996094,0.0661049634218216
624.0,0.0,0.0,0.0,0.0,0.0,0.0,-0.010697011835873127,0.06089639663696289,0.0500958077609539,0.9970922470092773,-0.006443773861974478,-0.03853230178356171,0.06543806195259094
625.0,0.0,0.0,0.0,0.0,0.0,0.0,-0.025337835773825645,0.016001001000404358,0.029509497806429863,0.9975906610488892,0.010670836083590984,-0.03687969222664833,0.05779386684298515
626.0,0.0,0.0,0.0,0.0,0.0,0.0,-0.0797162652015686,-0.02700175531208515,-0.01699841395020485,0.9981035590171814,0.01871376857161522,-0.03474779427051544,0.04725084826350212
627.0,0.0,0.0,0.0,0.0,0.0,0.0,0.013769201934337616,0.024235211312770844,-0.010137951001524925,0.9982278943061829,0.022338807582855225,-0.03495846688747406,0.042672887444496155
628.0,0.0,0.0,0.0,0.0,0.0,0.0,0.050521645694971085,0.012567471712827682,-0.047476354986429214,0.9981375336647034,0.0177211444824934,-0.03533463552594185,0.046468593180179596
629.0,0.0,0.0,0.0,0.0,0.0,0.0,0.040356993675231934,-0.014866179786622524,-0.0879788026213646,0.9978927373886108,0.010018395259976387,-0.035873498767614365,0.05313796550035477
630.0,0.0,0.0,0.0,0.0,0.0,0.0,0.0007496911566704512,-0.017290404066443443,-0.06650098413228989,0.997463047504425,0.0008585611940361559,-0.036980532109737396,0.06083332747220993
631.0,0.0,0.0,0.0,0.0,0.0,0.0,-0.03297596424818039,-0.011909221298992634,-0.010233870707452297,0.9967595338821411,-0.0072825392708182335,-0.03903013467788696,0.06997373700141907
632.0,0.0,0.0,0.0,0.0,0.0,0.0,-0.041938576847314835,0.04738854616880417,-0.027064001187682152,0.9963206648826599,-0.009530052542686462,-0.04075079783797264,0.0747905969619751
633.0,0.0,0.0,0.0,0.0,0.0,0.0,0.08723355084657669,0.08982594311237335,0.041068583726882935,0.9962313175201416,-0.002618843922391534,-0.04509716108441353,0.07405849546194077
634.0,0.0,0.0,0.0,0.0,0.0,0.0,-0.0065630534663796425,0.04004521295428276,0.06410454213619232,0.9965428709983826,0.0028765539173036814,-0.04571295157074928,0.06931998580694199
635.0,0.0,0.0,0.0,0.0,0.0,0.0,-0.006114335265010595,0.03480397164821625,0.012430737726390362,0.9969155192375183,0.00593840004876256,-0.04493148252367973,0.06407171487808228
636.0,0.0,0.0,0.0,0.0,0.0,0.0,0.027430197224020958,0.025496093556284904,0.022394279018044472,0.9971745610237122,0.008288453333079815,-0.04430997371673584,0.06010430306196213
637.0,0.0,0.0,0.0,0.0,0.0,0.0,0.0019164661644026637,0.012336024083197117,0.022833287715911865,0.9974242448806763,0.009983821772038937,-0.04235618934035301,0.057023510336875916
638.0,0.0,0.0,0.0,0.0,0.0,0.0,-0.014659631997346878,0.007454246748238802,-0.0011766100069507957,0.997724711894989,0.011053984984755516,-0.03878719359636307,0.0540446862578392
639.0,0.0,0.0,0.0,0.0,0.0,0.0,0.0015842176508158445,0.01248796284198761,-0.0009540803730487823,0.9979745745658875,0.01281669083982706,-0.03510521352291107,0.05147666111588478
640.0,0.0,0.0,0.0,0.0,0.0,0.0,0.01301848515868187,-0.000607730180490762,-0.01231465395539999,0.9981507658958435,0.014869744889438152,-0.03167765587568283,0.04970556125044823
641.0,0.0,0.0,0.0,0.0,0.0,0.0,0.01209801621735096,-0.007056669797748327,-0.015543729066848755,0.9983007311820984,0.015558923594653606,-0.028028512373566628,0.048670463263988495
642.0,0.0,0.0,0.0,0.0,0.0,0.0,0.007835186086595058,0.0031660483218729496,-0.013090153224766254,0.9983586668968201,0.0164200272411108,-0.024455955252051353,0.04911784827709198
643.0,0.0,0.0,0.0,0.0,0.0,0.0,0.002643559593707323,-0.002019117120653391,-0.011494586244225502,0.9984079599380493,0.01647021807730198,-0.0208734143525362,0.04975613206624985
644.0,0.0,0.0,0.0,0.0,0.0,0.0,-0.011712782084941864,-0.00021269860735628754,-0.010859443806111813,0.9985426068305969,0.01518965233117342,-0.017135314643383026,0.04888574779033661
645.0,0.0,0.0,0.0,0.0,0.0,0.0,-0.02470446564257145,0.006539177615195513,-0.0070138792507350445,0.9987192153930664,0.013967304490506649,-0.012907744385302067,0.04689805954694748
646.0,0.0,0.0,0.0,0.0,0.0,0.0,-0.012059535831212997,0.023548100143671036,0.0007007279782555997,0.9988152980804443,0.015647782012820244,-0.00901699997484684,0.04520003870129585
647.0,0.0,0.0,0.0,0.0,0.0,0.0,-0.001502067199908197,0.02838125079870224,0.019581953063607216,0.9989013075828552,0.018130186945199966,-0.005144032649695873,0.042924411594867706
648.0,0.0,0.0,0.0,0.0,0.0,0.0,0.0006737835938110948,0.02460969053208828,0.03373054042458534,0.9990317821502686,0.01937243901193142,-0.0007022764766588807,0.03950704261660576
649.0,0.0,0.0,0.0,0.0,0.0,0.0,0.001463298685848713,0.0366746224462986,0.027994798496365547,0.9991140365600586,0.02046792395412922,0.002919471124187112,0.036682020872831345
650.0,0.0,0.0,0.0,0.0,0.0,0.0,0.01854926533997059,0.013215661980211735,0.026501335203647614,0.9991717338562012,0.021292995661497116,0.005748907569795847,0.03420368954539299
651.0,0.0,0.0,0.0,0.0,0.0,0.0,0.053330112248659134,-0.007264191284775734,0.012978564016520977,0.9992617964744568,0.019930308684706688,0.007968892343342304,0.031889259815216064
652.0,0.0,0.0,0.0,0.0,0.0,0.0,0.06261441856622696,-0.011007368564605713,-0.0017378933262079954,0.9993833899497986,0.016467446461319923,0.008498414419591427,0.029863350093364716
653.0,0.0,0.0,0.0,0.0,0.0,0.0,0.04410576820373535,0.002803063252940774,-0.0013726931065320969,0.9995067715644836,0.012717762030661106,0.00818603578954935,0.0275600366294384
654.0,0.0,0.0,0.0,0.0,0.0,0.0,0.03077205829322338,0.022396178916096687,0.019316941499710083,0.9995691180229187,0.010899064131081104,0.007733259815722704,0.026171794161200523
655.0,0.0,0.0,0.0,0.0,0.0,0.0,0.01563182659447193,0.01073168870061636,0.013264013454318047,0.9996278285980225,0.009446118958294392,0.0073294914327561855,0.02453167922794819
656.0,0.0,0.0,0.0,0.0,0.0,0.0,-0.0010153728071600199,-0.0015996453585103154,-0.002602631226181984,0.9996966123580933,0.007923695258796215,0.007162385620176792,0.022204995155334473
657.0,0.0,0.0,0.0,0.0,0.0,0.0,0.011828028596937656,-0.003160001477226615,0.006936881225556135,0.9997251629829407,0.006465720012784004,0.007475655525922775,0.021256044507026672
658.0,0.0,0.0,0.0,0.0,0.0,0.0,0.015368631109595299,-0.00755650969222188,-0.0036619226448237896,0.9997594356536865,0.0038802013732492924,0.007618135306984186,0.020268037915229797
659.0,0.0,0.0,0.0,0.0,0.0,0.0,0.010993190109729767,-0.010185427963733673,-0.00844239816069603,0.9997937083244324,0.001708741532638669,0.007192706223577261,0.018955809995532036
660.0,0.0,0.0,0.0,0.0,0.0,0.0,0.010015111416578293,-0.0063093313947319984,-0.0013890452682971954,0.9998177289962769,0.0007830968243069947,0.0064905257895588875,0.017971474677324295
661.0,0.0,0.0,0.0,0.0,0.0,0.0,0.009499327279627323,-0.003187992377206683,-0.000917379220481962,0.9998229742050171,0.0006748686428181827,0.006071728188544512,0.017818143591284752
662.0,0.0,0.0,0.0,0.0,0.0,0.0,0.012604160234332085,0.00559694878757,0.0023746571969240904,0.9997909665107727,0.002444984158501029,0.0061315991915762424,0.019364411011338234
663.0,0.0,0.0,0.0,0.0,0.0,0.0,0.01430458016693592,-0.0002483299467712641,0.009727586060762405,0.9997159242630005,0.004858006257563829,0.006941997446119785,0.022321203723549843
664.0,0.0,0.0,0.0,0.0,0.0,0.0,0.004762966651469469,-0.010154474526643753,0.012151678092777729,0.999592125415802,0.007187351584434509,0.00853162631392479,0.02628881111741066
665.0,0.0,0.0,0.0,0.0,0.0,0.0,0.0007364596240222454,-0.041072163730859756,0.003908664919435978,0.9994778037071228,0.007528502494096756,0.009601722471415997,0.029924284666776657
666.0,0.0,0.0,0.0,0.0,0.0,0.0,0.014408505521714687,-0.019028685986995697,-0.014321672730147839,0.9993544220924377,0.007321650628000498,0.009489242918789387,0.03388027846813202
667.0,0.0,0.0,0.0,0.0,0.0,0.0,0.05130763724446297,-0.05263129994273186,-0.008536536246538162,0.9992110133171082,0.005313714034855366,0.009040717035531998,0.03831396624445915
668.0,0.0,0.0,0.0,0.0,0.0,0.0,0.0518588051199913,-0.07287946343421936,0.0072235711850225925,0.9989789724349976,-0.0029857829213142395,0.008722513914108276,0.0442388691008091
669.0,0.0,0.0,0.0,0.0,0.0,0.0,0.011313783936202526,0.017508674412965775,0.002332837786525488,0.9985780715942383,-0.01200002059340477,0.008225099183619022,0.0512884184718132
670.0,0.0,0.0,0.0,0.0,0.0,0.0,-0.0398172102868557,0.10983749479055405,0.024904033169150352,0.9982565641403198,-0.01656886748969555,0.008631553500890732,0.05600537732243538
671.0,0.0,0.0,0.0,0.0,0.0,0.0,-0.03670831769704819,0.10053933411836624,0.053669273853302,0.9979430437088013,-0.019030068069696426,0.010135750286281109,0.06039437651634216
672.0,0.0,0.0,0.0,0.0,0.0,0.0,-0.03138631954789162,0.07029825448989868,0.05930229648947716,0.9976853728294373,-0.020054034888744354,0.010719699785113335,0.06409960240125656
673.0,0.0,0.0,0.0,0.0,0.0,0.0,-0.04206328094005585,0.054820138961076736,0.030808420851826668,0.9976145029067993,-0.020679421722888947,0.01186020951718092,0.06479457020759583
674.0,0.0,0.0,0.0,0.0,0.0,0.0,-0.03562995791435242,0.03266017511487007,0.028172103688120842,0.9975994825363159,-0.01984294131398201,0.011305103078484535,0.06539534032344818
675.0,0.0,0.0,0.0,0.0,0.0,0.0,0.0017634944524616003,0.016084544360637665,0.017786981537938118,0.9975512623786926,-0.017836512997746468,0.01030273362994194,0.06684670597314835
676.0,0.0,0.0,0.0,0.0,0.0,0.0,0.005399877205491066,-0.004966361448168755,-0.011529923416674137,0.997686505317688,-0.01638157293200493,0.008832084015011787,0.06539150327444077
677.0,0.0,0.0,0.0,0.0,0.0,0.0,0.006068622227758169,-0.01716117188334465,0.00360161648131907,0.9978698492050171,-0.015128234401345253,0.008769714273512363,0.06285382807254791
678.0,0.0,0.0,0.0,0.0,0.0,0.0,0.012325705029070377,-0.02009812369942665,-3.240375008317642e-05,0.9980089664459229,-0.014673030935227871,0.008438920602202415,0.06076580658555031
679.0,0.0,0.0,0.0,0.0,0.0,0.0,0.028796900063753128,-0.02626352570950985,-0.018558930605649948,0.9980667233467102,-0.015665201470255852,0.0066765411756932735,0.05978110060095787
680.0,0.0,0.0,0.0,0.0,0.0,0.0,0.02941768802702427,-0.03185434639453888,-0.025625521317124367,0.9980639815330505,-0.016909006983041763,0.0050284359604120255,0.05964336171746254
681.0,0.0,0.0,0.0,0.0,0.0,0.0,0.03491894528269768,-0.025098800659179688,-0.014213758520781994,0.9980271458625793,-0.018621651455760002,0.002585046226158738,0.05990906059741974
682.0,0.0,0.0,0.0,0.0,0.0,0.0,0.02876187488436699,-0.005738880485296249,-0.012964124791324139,0.998018205165863,-0.018901459872722626,-0.00014988645853009075,0.06002061441540718
683.0,0.0,0.0,0.0,0.0,0.0,0.0,0.009990990161895752,-0.0018360984977334738,-0.016262570396065712,0.9980481266975403,-0.01761537976562977,-0.0029132829513400793,0.059843357652425766
684.0,0.0,0.0,0.0,0.0,0.0,0.0,0.022838158532977104,-0.018475007265806198,-0.014436015859246254,0.9980420470237732,-0.016176896169781685,-0.00518042640760541,0.0601978525519371
685.0,0.0,0.0,0.0,0.0,0.0,0.0,0.026629125699400902,-0.016840476542711258,-0.010300673544406891,0.9979943037033081,-0.014353983104228973,-0.0069026583805680275,0.061271972954273224
686.0,0.0,0.0,0.0,0.0,0.0,0.0,0.024083752185106277,-0.013563906773924828,-0.0077280751429498196,0.9980031251907349,-0.0115068219602108,-0.008128954097628593,0.061584752053022385
687.0,0.0,0.0,0.0,0.0,0.0,0.0,0.02871493250131607,-0.008751189336180687,0.02219916507601738,0.9981149435043335,-0.008132298476994038,-0.009817991405725479,0.060043174773454666
688.0,0.0,0.0,0.0,0.0,0.0,0.0,-0.006767979357391596,0.04070282727479935,0.04301201179623604,0.9983921647071838,0.00030621117912232876,-0.009445461444556713,0.05589855834841728
689.0,0.0,0.0,0.0,0.0,0.0,0.0,-0.038400378078222275,0.0340789332985878,0.09087921679019928,0.9988044500350952,0.01289246417582035,-0.005420695524662733,0.046842314302921295
690.0,0.0,0.0,0.0,0.0,0.0,0.0,-0.03335671126842499,0.03149157017469406,0.06957335025072098,0.999128520488739,0.027627883478999138,-0.0004603046108968556,0.03128417581319809
691.0,0.0,0.0,0.0,0.0,0.0,0.0,0.02543698251247406,-0.04775690659880638,-0.03939158096909523,0.9989195466041565,0.042903147637844086,0.0025343666784465313,0.017691947519779205
692.0,0.0,0.0,0.0,0.0,0.0,0.0,0.036819200962781906,-0.07044797390699387,-0.028655942529439926,0.9983855485916138,0.056505490094423294,0.005196616519242525,0.002600237727165222
693.0,0.0,0.0,0.0,0.0,0.0,0.0,0.05634145811200142,-0.08651012927293777,-0.020305383950471878,0.9972407817840576,0.07221478223800659,0.005272495560348034,-0.016374090686440468
694.0,0.0,0.0,0.0,0.0,0.0,0.0,-0.0006308484589681029,-0.1916431337594986,-0.09205551445484161,0.9957352876663208,0.08577839285135269,0.005582229234278202,-0.033503372222185135
695.0,0.0,0.0,0.0,0.0,0.0,0.0,0.0652027577161789,-0.17261333763599396,-0.061821967363357544,0.9954544305801392,0.08739124238491058,0.004648265428841114,-0.03757693991065025
696.0,0.0,0.0,0.0,0.0,0.0,0.0,0.07244528830051422,-0.0806523859500885,-0.036736901849508286,0.9955716729164124,0.08461172133684158,0.0032599407713860273,-0.04083682596683502
697.0,0.0,0.0,0.0,0.0,0.0,0.0,0.0353594571352005,-0.07595788687467575,-0.07532567530870438,0.9961279630661011,0.07629987597465515,0.00130301748868078,-0.043656349182128906
698.0,0.0,0.0,0.0,0.0,0.0,0.0,0.053598906844854355,-0.046332214027643204,-0.047351591289043427,0.9968931674957275,0.06405249983072281,-0.0016928095137700438,-0.04581167548894882
699.0,0.0,0.0,0.0,0.0,0.0,0.0,0.06101446598768234,0.000970778230112046,-0.00453580915927887,0.997376024723053,0.055379148572683334,-0.0053243488073349,-0.04632629081606865
700.0,0.0,0.0,0.0,0.0,0.0,0.0,0.01184285432100296,0.011144036427140236,0.01324994582682848,0.9977258443832397,0.04866796359419823,-0.0085281478241086,-0.045848164707422256
701.0,0.0,0.0,0.0,0.0,0.0,0.0,0.011276338249444962,-0.004340227693319321,0.046385522931814194,0.9979813694953918,0.044573668390512466,-0.011257152073085308,-0.04381430149078369
702.0,0.0,0.0,0.0,0.0,0.0,0.0,0.00019725633319467306,-0.0072600357234478,0.01946713775396347,0.9982157945632935,0.04116884246468544,-0.013605588115751743,-0.04105397313833237
703.0,0.0,0.0,0.0,0.0,0.0,0.0,0.022326603531837463,-0.011392896994948387,-0.007670843042433262,0.9984978437423706,0.03405612334609032,-0.017575126141309738,-0.03915981948375702
704.0,0.0,0.0,0.0,0.0,0.0,0.0,-0.0374370701611042,-0.006626218557357788,-0.039816297590732574,0.9988034963607788,0.023371530696749687,-0.01992410235106945,-0.03805863484740257
705.0,0.0,0.0,0.0,0.0,0.0,0.0,-0.025437038391828537,-0.0024237369652837515,-0.03350207582116127,0.9990587830543518,0.011647811159491539,-0.023097051307559013,-0.034820180386304855
706.0,0.0,0.0,0.0,0.0,0.0,0.0,-0.008440885692834854,-0.025413837283849716,-0.05862504243850708,0.9992005825042725,-0.0008559133857488632,-0.027554864063858986,-0.028952177613973618
707.0,0.0,0.0,0.0,0.0,0.0,0.0,-0.0015204785158857703,-0.07595028728246689,-0.09363081306219101,0.9990924596786499,-0.017135029658675194,-0.0338471457362175,-0.019367758184671402
708.0,0.0,0.0,0.0,0.0,0.0,0.0,-0.012050269171595573,-0.1061650887131691,-0.04768748581409454,0.9983720779418945,-0.038813233375549316,-0.04119253158569336,-0.007096300832927227
709.0,0.0,0.0,0.0,0.0,0.0,0.0,0.006674420088529587,0.07844003289937973,0.048859644681215286,0.9975437521934509,-0.04840109124779701,-0.050023168325424194,0.007872159592807293
710.0,0.0,0.0,0.0,0.0,0.0,0.0,-0.08063769340515137,0.05349850654602051,0.0893731415271759,0.9969962239265442,-0.05035668984055519,-0.05564161390066147,0.01915850304067135
711.0,0.0,0.0,0.0,0.0,0.0,0.0,-0.13291679322719574,0.10533330589532852,0.08770918101072311,0.996816098690033,-0.046168435364961624,-0.059661440551280975,0.02581930160522461
712.0,0.0,0.0,0.0,0.0,0.0,0.0,-0.0695309191942215,0.08328603953123093,0.03539112210273743,0.9967983961105347,-0.03618893772363663,-0.06303077936172485,0.033340200781822205
713.0,0.0,0.0,0.0,0.0,0.0,0.0,-0.022728459909558296,0.010952022857964039,0.028986262157559395,0.996878981590271,-0.023080669343471527,-0.064820297062397,0.03871270641684532
714.0,0.0,0.0,0.0,0.0,0.0,0.0,-0.03526211157441139,0.009030002169311047,0.053948573768138885,0.997153639793396,-0.008500812575221062,-0.0645236074924469,0.03807268291711807
715.0,0.0,0.0,0.0,0.0,0.0,0.0,-0.10491655021905899,0.016931869089603424,0.029508743435144424,0.9976457953453064,0.008081123232841492,-0.06153838336467743,0.029173685237765312
716.0,0.0,0.0,0.0,0.0,0.0,0.0,-0.10037510097026825,-0.07239703088998795,-0.12082303315401077,0.9979618787765503,0.01378871500492096,-0.05841083079576492,0.02169707417488098
717.0,0.0,0.0,0.0,0.0,0.0,0.0,-0.021155746653676033,-0.0289363581687212,-0.04752293974161148,0.997983992099762,0.01594783365726471,-0.059199754148721695,0.016421811655163765
718.0,0.0,0.0,0.0,0.0,0.0,0.0,0.015323629602789879,-0.05345730856060982,-0.060014937072992325,0.9979375004768372,0.015181001275777817,-0.06079449504613876,0.013952303677797318
719.0,0.0,0.0,0.0,0.0,0.0,0.0,0.027174144983291626,-0.08138976991176605,-0.09448184818029404,0.9978015422821045,0.00900172907859087,-0.0637359544634819,0.015779506415128708
720.0,0.0,0.0,0.0,0.0,0.0,0.0,-0.02086329460144043,-0.04366914555430412,-0.04147933050990105,0.9975171685218811,0.0017983289435505867,-0.06712507456541061,0.021233798936009407
721.0,0.0,0.0,0.0,0.0,0.0,0.0,-0.07609422504901886,-0.03874656930565834,-0.04360726475715637,0.9971017241477966,-0.005196151323616505,-0.07160499691963196,0.025179486721754074
722.0,0.0,0.0,0.0,0.0,0.0,0.0,0.01758325658738613,0.06058990955352783,0.011769781820476055,0.9965173602104187,-0.0022471328265964985,-0.07957369834184647,0.024831918999552727
723.0,0.0,0.0,0.0,0.0,0.0,0.0,0.017980914562940598,0.028402522206306458,0.08177962154150009,0.9960789084434509,0.006994351744651794,-0.08511330187320709,0.023116355761885643
724.0,0.0,0.0,0.0,0.0,0.0,0.0,-0.011174279265105724,-0.007881129160523415,0.07019408792257309,0.9958196878433228,0.015119519084692001,-0.08675536513328552,0.02426820434629917
725.0,0.0,0.0,0.0,0.0,0.0,0.0,-0.01910977251827717,0.03901011869311333,0.08629660308361053,0.9956658482551575,0.027214424684643745,-0.08625670522451401,0.02165864408016205
726.0,0.0,0.0,0.0,0.0,0.0,0.0,-0.060753919184207916,0.011392260901629925,0.038890592753887177,0.9958171248435974,0.037169378250837326,-0.08194071054458618,0.01590048335492611
727.0,0.0,0.0,0.0,0.0,0.0,0.0,-0.024053750559687614,-0.0514354333281517,-0.054784130305051804,0.9961810111999512,0.039264533668756485,-0.07703676074743271,0.01214104425162077
728.0,0.0,0.0,0.0,0.0,0.0,0.0,0.040989287197589874,-0.00423439871519804,-0.05487445741891861,0.9962995052337646,0.04155256599187851,-0.07475205510854721,0.008561696857213974
729.0,0.0,0.0,0.0,0.0,0.0,0.0,0.01074841246008873,-0.01507627870887518,-0.058574046939611435,0.9965004920959473,0.04013467952609062,-0.07318159937858582,0.004585796035826206
730.0,0.0,0.0,0.0,0.0,0.0,0.0,0.0355134941637516,-0.02762603759765625,-0.04382668435573578,0.9966176152229309,0.0360017865896225,-0.07350722700357437,0.007365402765572071
731.0,0.0,0.0,0.0,0.0,0.0,0.0,0.05526525527238846,-0.014003672637045383,-0.02499384991824627,0.9968025088310242,0.023752573877573013,-0.07438014447689056,0.016991592943668365
732.0,0.0,0.0,0.0,0.0,0.0,0.0,0.005435720551759005,0.0037257131189107895,0.02882274053990841,0.9967898726463318,0.008081026375293732,-0.07509779930114746,0.026568254455924034
733.0,0.0,0.0,0.0,0.0,0.0,0.0,-0.012727555818855762,0.004711567424237728,-0.0023654259275645018,0.9964581727981567,-0.009180477820336819,-0.07537376135587692,0.036145761609077454
734.0,0.0,0.0,0.0,0.0,0.0,0.0,0.007493640296161175,0.04246366024017334,0.011302669532597065,0.9957349896430969,-0.0233207568526268,-0.07682879269123077,0.04545341059565544
735.0,0.0,0.0,0.0,0.0,0.0,0.0,-0.0022299059201031923,0.06863151490688324,0.03936437517404556,0.9949073791503906,-0.0351048968732357,-0.07769566029310226,0.05376417562365532
736.0,0.0,0.0,0.0,0.0,0.0,0.0,-0.01372633408755064,0.09504317492246628,0.05875374376773834,0.9942473769187927,-0.04375167936086655,-0.07723449170589447,0.05993932485580444
737.0,0.0,0.0,0.0,0.0,0.0,0.0,-0.028174137696623802,0.08845876157283783,0.060008641332387924,0.9938206076622009,-0.04901044815778732,-0.07630375027656555,0.06401459872722626
738.0,0.0,0.0,0.0,0.0,0.0,0.0,-6.445270264521241e-05,0.06557714939117432,0.057005394250154495,0.9935877323150635,-0.05134841427206993,-0.0744951069355011,0.0678124949336052
739.0,0.0,0.0,0.0,0.0,0.0,0.0,-0.0005533794756047428,0.03029157593846321,0.01690652407705784,0.9936742186546326,-0.052120961248874664,-0.0717688500881195,0.06888928264379501
740.0,0.0,0.0,0.0,0.0,0.0,0.0,0.009308433160185814,0.010394440032541752,0.008395458571612835,0.9938764572143555,-0.052713438868522644,-0.06872070580720901,0.06862322241067886
741.0,0.0,0.0,0.0,0.0,0.0,0.0,0.035114847123622894,0.00023679010337218642,-0.0025864981580525637,0.9939413070678711,-0.05377262458205223,-0.06637372821569443,0.0691736564040184
742.0,0.0,0.0,0.0,0.0,0.0,0.0,0.03045845590531826,4.473412991501391e-05,-0.010118106380105019,0.9939482808113098,-0.05562318116426468,-0.0648617297410965,0.06903032958507538
743.0,0.0,0.0,0.0,0.0,0.0,0.0,0.02143130451440811,-0.003490133909508586,-0.018615467473864555,0.9939455986022949,-0.058696847409009933,-0.06385435163974762,0.06745876371860504
744.0,0.0,0.0,0.0,0.0,0.0,0.0,0.021496105939149857,0.005724745336920023,-0.01360687892884016,0.9938938617706299,-0.06114145740866661,-0.06325867027044296,0.06660595536231995
745.0,0.0,0.0,0.0,0.0,0.0,0.0,0.007075544912368059,0.01960773579776287,0.0036428067833185196,0.9938898086547852,-0.06254792213439941,-0.06313802301883698,0.06547196954488754
746.0,0.0,0.0,0.0,0.0,0.0,0.0,0.003115255618467927,0.03845313563942909,0.018525555729866028,0.9940168261528015,-0.0619007870554924,-0.06296878308057785,0.06430751085281372
747.0,0.0,0.0,0.0,0.0,0.0,0.0,-0.013399970717728138,0.03506649285554886,0.008897305466234684,0.9942922592163086,-0.05949317663908005,-0.06202458217740059,0.06321561336517334
748.0,0.0,0.0,0.0,0.0,0.0,0.0,-0.0034815857652574778,0.025755321606993675,0.017728926613926888,0.9945597648620605,-0.05684192478656769,-0.060937196016311646,0.06251469254493713
749.0,0.0,0.0,0.0,0.0,0.0,0.0,-0.005224477034062147,0.020194195210933685,0.01692475751042366,0.9948835968971252,-0.053446538746356964,-0.05955193564295769,0.06167489290237427
750.0,0.0,0.0,0.0,0.0,0.0,0.0,-0.004598534200340509,0.015848467126488686,0.010765396058559418,0.9952144026756287,-0.05003871023654938,-0.05782949924468994,0.06083755940198898
751.0,0.0,0.0,0.0,0.0,0.0,0.0,-0.007849223911762238,0.0036419876851141453,0.007743018213659525,0.9956221580505371,-0.04417973384261131,-0.05615922436118126,0.060256924480199814
752.0,0.0,0.0,0.0,0.0,0.0,0.0,-0.01004575565457344,-0.03144301846623421,0.002059006132185459,0.9960140585899353,-0.038125842809677124,-0.05451253801584244,0.05942564830183983
753.0,0.0,0.0,0.0,0.0,0.0,0.0,0.012769537977874279,-0.04179370030760765,0.0028183443937450647,0.9960998296737671,-0.03603709116578102,-0.05328352749347687,0.06039072945713997
754.0,0.0,0.0,0.0,0.0,0.0,0.0,0.012844877317547798,-0.030722331255674362,-0.02907857671380043,0.9960312843322754,-0.035533614456653595,-0.05313888564705849,0.06193985417485237
755.0,0.0,0.0,0.0,0.0,0.0,0.0,-0.009588927030563354,-0.04400329291820526,-0.04500387981534004,0.9959692358970642,-0.037687093019485474,-0.05359696224331856,0.06126163899898529
756.0,0.0,0.0,0.0,0.0,0.0,0.0,-0.012393062002956867,-0.03921939432621002,-0.049390725791454315,0.9958963990211487,-0.04180848225951195,-0.05462194234132767,0.058823421597480774
757.0,0.0,0.0,0.0,0.0,0.0,0.0,0.009972959756851196,0.02700517140328884,0.0013411293039098382,0.995937705039978,-0.04182536154985428,-0.05593397840857506,0.05683377757668495
758.0,0.0,0.0,0.0,0.0,0.0,0.0,0.01317350473254919,0.056984033435583115,0.03129349648952484,0.9961203932762146,-0.039114248007535934,-0.057509809732437134,0.053923968225717545
759.0,0.0,0.0,0.0,0.0,0.0,0.0,-0.003365703858435154,0.004503982607275248,-0.01229043584316969,0.9962303042411804,-0.03823365643620491,-0.05911757051944733,0.05068353936076164
760.0,0.0,0.0,0.0,0.0,0.0,0.0,-0.01554334256798029,0.006138646975159645,0.025613002479076385,0.9963130354881287,-0.0373121052980423,-0.061072371900081635,0.04730912670493126
761.0,0.0,0.0,0.0,0.0,0.0,0.0,-0.010372444987297058,0.020022591575980186,0.04193877801299095,0.9963648915290833,-0.035894278436899185,-0.06302155554294586,0.04470106586813927
762.0,0.0,0.0,0.0,0.0,0.0,0.0,-0.024592531844973564,0.018713083118200302,0.036541782319545746,0.9965587258338928,-0.03420199453830719,-0.06355906277894974,0.040764544159173965
763.0,0.0,0.0,0.0,0.0,0.0,0.0,-0.009684674441814423,0.01373512577265501,0.05439196899533272,0.9967468976974487,-0.03263554722070694,-0.06351414322853088,0.037373173981904984
764.0,0.0,0.0,0.0,0.0,0.0,0.0,-0.010065422393381596,0.014043697156012058,0.042211078107357025,0.9969722628593445,-0.03050757199525833,-0.06371977180242538,0.0324971079826355
765.0,0.0,0.0,0.0,0.0,0.0,0.0,-0.026329951360821724,0.001289823092520237,0.025556810200214386,0.9973095059394836,-0.026503343135118484,-0.06239788234233856,0.027906274423003197
766.0,0.0,0.0,0.0,0.0,0.0,0.0,-0.015729069709777832,0.008186403661966324,-0.00012964093184564263,0.9976168274879456,-0.021967200562357903,-0.061041563749313354,0.02350216545164585
767.0,0.0,0.0,0.0,0.0,0.0,0.0,-0.031109724193811417,-0.02088017389178276,-0.045480888336896896,0.9979269504547119,-0.01998079940676689,-0.05862792953848839,0.017481664195656776
768.0,0.0,0.0,0.0,0.0,0.0,0.0,-0.008929452858865261,-0.040255963802337646,-0.04896724224090576,0.9981998801231384,-0.017496181651949883,-0.05614330247044563,0.01178924459964037
769.0,0.0,0.0,0.0,0.0,0.0,0.0,0.04919833317399025,-0.04539847373962402,-0.02646847628057003,0.9982959628105164,-0.014447873458266258,-0.055845700204372406,0.00880542304366827
770.0,0.0,0.0,0.0,0.0,0.0,0.0,0.029987862333655357,-0.040421925485134125,-0.03281310945749283,0.9982999563217163,-0.013338669203221798,-0.056377798318862915,0.006420597434043884
771.0,0.0,0.0,0.0,0.0,0.0,0.0,0.007564660627394915,-0.02870980091392994,-0.00945151038467884,0.9983067512512207,-0.013527743518352509,-0.05647895857691765,0.0033118650317192078
772.0,0.0,0.0,0.0,0.0,0.0,0.0,0.026701416820287704,-0.019811036065220833,0.009243710897862911,0.9983460903167725,-0.012227008119225502,-0.05613238364458084,0.0021836187224835157
773.0,0.0,0.0,0.0,0.0,0.0,0.0,0.020065806806087494,-0.021113688126206398,-0.02191663719713688,0.9983510971069336,-0.010596198961138725,-0.05637910217046738,0.0021971918176859617
774.0,0.0,0.0,0.0,0.0,0.0,0.0,-0.00010196959192398936,-0.02763742208480835,-0.02626190520823002,0.9983657002449036,-0.009282710030674934,-0.056346215307712555,0.0022597676143050194
775.0,0.0,0.0,0.0,0.0,0.0,0.0,-0.0015741665847599506,-0.045254118740558624,-0.025270694866776466,0.9983499050140381,-0.008803351782262325,-0.05668860301375389,0.0025265179574489594
776.0,0.0,0.0,0.0,0.0,0.0,0.0,0.028563981875777245,-0.044228482991456985,-0.02142547443509102,0.9982513785362244,-0.00914385449141264,-0.05816369876265526,0.005280693061649799
777.0,0.0,0.0,0.0,0.0,0.0,0.0,0.04633159562945366,-0.02695630118250847,-0.035208892077207565,0.9980194568634033,-0.01141261775046587,-0.061194684356451035,0.009106048382818699
778.0,0.0,0.0,0.0,0.0,0.0,0.0,0.011520285159349442,0.014928129501640797,-0.0011108702747151256,0.9977507591247559,-0.014256652444601059,-0.06454151123762131,0.01117238774895668
779.0,0.0,0.0,0.0,0.0,0.0,0.0,-0.005743612535297871,0.05050075426697731,0.03761172667145729,0.9975332617759705,-0.013741199858486652,-0.06779894232749939,0.011945602484047413
780.0,0.0,0.0,0.0,0.0,0.0,0.0,-0.009989949874579906,0.033574044704437256,0.025431018322706223,0.997432291507721,-0.009230141527950764,-0.0696912482380867,0.013675933703780174
781.0,0.0,0.0,0.0,0.0,0.0,0.0,-0.00831298716366291,0.00302315060980618,0.0036744477692991495,0.9973759651184082,-0.0057137105613946915,-0.07059436291456223,0.015006679110229015
782.0,0.0,0.0,0.0,0.0,0.0,0.0,-0.007055903319269419,-0.0037523505743592978,0.011494879610836506,0.9973263144493103,-0.0025534986052662134,-0.07122731953859329,0.016151631250977516
783.0,0.0,0.0,0.0,0.0,0.0,0.0,-0.0033755514305084944,0.0027715296018868685,0.005580533761531115,0.9972617626190186,0.000725018500816077,-0.07151725888252258,0.018825653940439224
784.0,0.0,0.0,0.0,0.0,0.0,0.0,-0.00439525255933404,-0.0005325273377820849,-0.012906254269182682,0.9971423745155334,0.004103030543774366,-0.07234998047351837,0.021368397399783134
785.0,0.0,0.0,0.0,0.0,0.0,0.0,-0.010867826640605927,0.0064046140760183334,-0.005334613844752312,0.9970198273658752,0.007323865313082933,-0.0735742598772049,0.02202661894261837
786.0,0.0,0.0,0.0,0.0,0.0,0.0,-0.0070046973414719105,0.010629125870764256,0.026947753503918648,0.9969308376312256,0.010487131774425507,-0.0746878907084465,0.021016482263803482
787.0,0.0,0.0,0.0,0.0,0.0,0.0,-0.0054902383126318455,0.014812983572483063,0.0186478104442358,0.9968567490577698,0.013805042020976543,-0.0752214640378952,0.0206911601126194
788.0,0.0,0.0,0.0,0.0,0.0,0.0,-0.003933512140065432,0.006849179044365883,0.006601620931178331,0.9967430233955383,0.016223318874835968,-0.07581931352615356,0.0221856776624918
789.0,0.0,0.0,0.0,0.0,0.0,0.0,0.0015290864976122975,0.002555693732574582,0.014693363569676876,0.996614933013916,0.018029596656560898,-0.07671849429607391,0.02341339737176895
790.0,0.0,0.0,0.0,0.0,0.0,0.0,-0.019357608631253242,0.017739782109856606,0.026643911376595497,0.9965982437133789,0.019877439364790916,-0.07642100751399994,0.023605752736330032
791.0,0.0,0.0,0.0,0.0,0.0,0.0,-0.02361115999519825,0.020870059728622437,0.012989809736609459,0.9965817332267761,0.02179110050201416,-0.0758998692035675,0.02428203634917736
792.0,0.0,0.0,0.0,0.0,0.0,0.0,0.002152743749320507,0.01580704376101494,0.003537053009495139,0.9965986609458923,0.02229657955467701,-0.07534807175397873,0.024836234748363495
793.0,0.0,0.0,0.0,0.0,0.0,0.0,-0.0006725083221681416,0.012305323965847492,0.0018592372070997953,0.9966670870780945,0.02234692871570587,-0.07458362728357315,0.024342814460396767
794.0,0.0,0.0,0.0,0.0,0.0,0.0,-0.009164023213088512,0.004716834519058466,-0.0007451566634699702,0.9967901110649109,0.021174250170588493,-0.07350477576255798,0.02363555133342743
795.0,0.0,0.0,0.0,0.0,0.0,0.0,-0.016469107940793037,0.0037626465782523155,-0.009959273971617222,0.9969410300254822,0.018687328323721886,-0.07231105864048004,0.02303711697459221
796.0,0.0,0.0,0.0,0.0,0.0,0.0,-0.012091763317584991,-0.006995950825512409,-0.02052164636552334,0.9970629811286926,0.01388052199035883,-0.07163034379482269,0.02328677661716938
797.0,0.0,0.0,0.0,0.0,0.0,0.0,-0.004076078068464994,0.012745295651257038,-0.007607072591781616,0.9971820116043091,0.008740190416574478,-0.070877306163311,0.02299373969435692
798.0,0.0,0.0,0.0,0.0,0.0,0.0,-0.014090009965002537,0.028253814205527306,0.0023177163675427437,0.9972658753395081,0.00472447881475091,-0.07018019258975983,0.022662553936243057
799.0,0.0,0.0,0.0,0.0,0.0,0.0,-0.016437191516160965,0.03623226657509804,0.02464400976896286,0.9973350763320923,0.0009111175895668566,-0.06936576962471008,0.022592823952436447
800.0,0.0,0.0,0.0,0.0,0.0,0.0,-0.01030335109680891,0.01965615525841713,-0.009057773277163506,0.9973929524421692,-0.0021918071433901787,-0.06858601421117783,0.02234036661684513
801.0,0.0,0.0,0.0,0.0,0.0,0.0,-0.02736983820796013,0.019820233806967735,-0.014260481111705303,0.9974792003631592,-0.003584381891414523,-0.06804408878087997,0.019822178408503532
802.0,0.0,0.0,0.0,0.0,0.0,0.0,-0.03763129934668541,0.029165217652916908,0.008240597322583199,0.9976184964179993,-0.002635255688801408,-0.06736132502555847,0.014597529545426369
803.0,0.0,0.0,0.0,0.0,0.0,0.0,-0.005958767142146826,0.007704834919422865,-0.0028723254799842834,0.9977477192878723,-0.001249199267476797,-0.0663020983338356,0.010122948326170444
804.0,0.0,0.0,0.0,0.0,0.0,0.0,-0.03623265027999878,0.0019894514698535204,-0.013809774070978165,0.9979400634765625,-0.001049121841788292,-0.06406503170728683,0.003182407235726714
805.0,0.0,0.0,0.0,0.0,0.0,0.0,-0.05006273090839386,0.017030078917741776,0.0030037034302949905,0.9981549978256226,-0.0006074823904782534,-0.06043413281440735,-0.00584087148308754
806.0,0.0,0.0,0.0,0.0,0.0,0.0,0.021816954016685486,-0.028696343302726746,-0.03992537409067154,0.9982367157936096,-2.2174184778123163e-05,-0.058353252708911896,-0.0108950175344944
807.0,0.0,0.0,0.0,0.0,0.0,0.0,0.045985035598278046,-0.049216002225875854,-0.034076862037181854,0.9981546998023987,0.00015467620687559247,-0.05886178836226463,-0.014915646985173225
808.0,0.0,0.0,0.0,0.0,0.0,0.0,0.08260557800531387,-0.05608545243740082,-0.0011419245274737477,0.9979565143585205,-0.0002027563314186409,-0.061111629009246826,-0.01866835169494152
809.0,0.0,0.0,0.0,0.0,0.0,0.0,0.05339670181274414,-0.04589507356286049,0.01441899687051773,0.9977075457572937,-0.0010088463313877583,-0.06403734534978867,-0.02186666987836361
810.0,0.0,0.0,0.0,0.0,0.0,0.0,0.020209938287734985,-0.02555634081363678,0.016704604029655457,0.9975376725196838,-0.0031371128279715776,-0.06621915847063065,-0.022886890918016434
811.0,0.0,0.0,0.0,0.0,0.0,0.0,0.018191825598478317,-0.007566466461867094,0.016826849430799484,0.9973922967910767,-0.004263483919203281,-0.06862130761146545,-0.021950257942080498
812.0,0.0,0.0,0.0,0.0,0.0,0.0,-0.036574140191078186,-0.015228220261633396,0.0023231322411447763,0.9973470568656921,-0.004999269265681505,-0.06947387009859085,-0.02114969491958618
813.0,0.0,0.0,0.0,0.0,0.0,0.0,-0.0502951554954052,-0.014688114635646343,0.007596840150654316,0.99733567237854,-0.007587828673422337,-0.06938014179468155,-0.021226588636636734
814.0,0.0,0.0,0.0,0.0,0.0,0.0,0.0028259127866476774,-0.017674745991826057,-0.003598057432100177,0.9973220229148865,-0.010010108351707458,-0.06982403993606567,-0.01933232508599758
815.0,0.0,0.0,0.0,0.0,0.0,0.0,0.023715659976005554,-0.01866127923130989,-0.007632731460034847,0.9973371624946594,-0.0107891745865345,-0.070472352206707,-0.015374789014458656
816.0,0.0,0.0,0.0,0.0,0.0,0.0,-0.01570908911526203,-0.02064771205186844,-0.020784389227628708,0.9973829388618469,-0.010587369091808796,-0.07037536799907684,-0.012761014513671398
817.0,0.0,0.0,0.0,0.0,0.0,0.0,-0.018399883061647415,-0.018773093819618225,-0.008592321537435055,0.9975100755691528,-0.010185792110860348,-0.06911513209342957,-0.00965526606887579
818.0,0.0,0.0,0.0,0.0,0.0,0.0,-0.015532794408500195,-0.0161352027207613,-0.0009846253087744117,0.9976431727409363,-0.010056870058178902,-0.06763342022895813,-0.00577315641567111
819.0,0.0,0.0,0.0,0.0,0.0,0.0,-0.009762718342244625,-0.007626672741025686,-0.010773483663797379,0.9977612495422363,-0.010116002522408962,-0.0660964697599411,-0.001249168999493122
820.0,0.0,0.0,0.0,0.0,0.0,0.0,-0.003338598646223545,-0.005197517108172178,0.0038875036407262087,0.9979042410850525,-0.009953901171684265,-0.06388305872678757,0.0027040825225412846
821.0,0.0,0.0,0.0,0.0,0.0,0.0,0.008928869850933552,-0.006590253207832575,0.0022683064453303814,0.9979953169822693,-0.010582595132291317,-0.062074773013591766,0.006374888122081757
822.0,0.0,0.0,0.0,0.0,0.0,0.0,-0.017887040972709656,-0.009894803166389465,-0.01693042553961277,0.9981264472007751,-0.011732946150004864,-0.05940962955355644,0.008742381818592548
823.0,0.0,0.0,0.0,0.0,0.0,0.0,-0.004556933883577585,-0.007394926156848669,-0.008986587636172771,0.9982359409332275,-0.012283576652407646,-0.05680018290877342,0.012170879170298576
824.0,0.0,0.0,0.0,0.0,0.0,0.0,-0.005290670786052942,0.009823056869208813,0.0019398151198402047,0.9983436465263367,-0.011870759539306164,-0.05422952398657799,0.015117662027478218
825.0,0.0,0.0,0.0,0.0,0.0,0.0,-0.017114894464612007,0.011726515367627144,0.017786739394068718,0.9984562397003174,-0.011967353522777557,-0.05134597793221474,0.017486590892076492
826.0,0.0,0.0,0.0,0.0,0.0,0.0,-0.00024101385497488081,0.014405200257897377,0.016400961205363274,0.9985310435295105,-0.012478447519242764,-0.04853292554616928,0.020611809566617012
827.0,0.0,0.0,0.0,0.0,0.0,0.0,-0.0084605123847723,0.014880604110658169,0.011920563876628876,0.9985989332199097,-0.012335817329585552,-0.045354533940553665,0.024306409060955048
828.0,0.0,0.0,0.0,0.0,0.0,0.0,-0.025031207129359245,0.025694172829389572,0.015371076762676239,0.9987006187438965,-0.011847528629004955,-0.04180281609296799,0.026639297604560852
829.0,0.0,0.0,0.0,0.0,0.0,0.0,-0.03792845085263252,0.005936905741691589,-0.00865857768803835,0.99880450963974,-0.011442692019045353,-0.037791602313518524,0.028829870745539665
830.0,0.0,0.0,0.0,0.0,0.0,0.0,-0.0069094253703951836,-0.023380743339657784,-0.01885560154914856,0.9987992644309998,-0.012375805526971817,-0.03424663841724396,0.032779235392808914
831.0,0.0,0.0,0.0,0.0,0.0,0.0,-0.027951771393418312,0.001494768774136901,-0.022020677104592323,0.998852550983429,-0.012784953229129314,-0.03068617358803749,0.03448355197906494
832.0,0.0,0.0,0.0,0.0,0.0,0.0,-0.01316105481237173,-0.0023695887066423893,-0.004273966420441866,0.9989157915115356,-0.011944948695600033,-0.02782466635107994,0.035365745425224304
833.0,0.0,0.0,0.0,0.0,0.0,0.0,-0.01701587624847889,-0.02262408286333084,-0.021265830844640732,0.998865008354187,-0.012701813131570816,-0.02587985433638096,0.037927065044641495
834.0,0.0,0.0,0.0,0.0,0.0,0.0,-0.02110403962433338,-0.018174350261688232,-0.006884426809847355,0.9988102912902832,-0.013615763746201992,-0.025107763707637787,0.03953034430742264
835.0,0.0,0.0,0.0,0.0,0.0,0.0,-0.01708807609975338,-0.03428873047232628,0.00473027303814888,0.9986749887466431,-0.016668006777763367,-0.024911977350711823,0.041832488030195236
836.0,0.0,0.0,0.0,0.0,0.0,0.0,-0.01108017098158598,-0.03046725131571293,0.009442931041121483,0.9984074234962463,-0.02096770890057087,-0.02561930939555168,0.045682989060878754
837.0,0.0,0.0,0.0,0.0,0.0,0.0,0.007744652219116688,-0.03526746854186058,-0.005621963180601597,0.9979825019836426,-0.024820858612656593,-0.027338949963450432,0.05164696276187897
838.0,0.0,0.0,0.0,0.0,0.0,0.0,0.013374310918152332,-0.029750505462288857,-0.019313322380185127,0.9974837899208069,-0.028687262907624245,-0.029822377488017082,0.05756493657827377
839.0,0.0,0.0,0.0,0.0,0.0,0.0,0.026540150865912437,-0.108599454164505,0.018816262483596802,0.9967995882034302,-0.0309935100376606,-0.03350622206926346,0.06564075499773026
840.0,0.0,0.0,0.0,0.0,0.0,0.0,-0.004764227662235498,-0.002734845969825983,-0.0053344601765275,0.9961462020874023,-0.030205385759472847,-0.037117861211299896,0.07351246476173401
841.0,0.0,0.0,0.0,0.0,0.0,0.0,0.01104838028550148,0.017918800935149193,0.010358007624745369,0.995525062084198,-0.0305018313229084,-0.040443092584609985,0.07979123294353485
842.0,0.0,0.0,0.0,0.0,0.0,0.0,-0.009066196158528328,0.04147633910179138,0.02874138578772545,0.994950532913208,-0.030713887885212898,-0.04319800063967705,0.08524560928344727
843.0,0.0,0.0,0.0,0.0,0.0,0.0,-0.02047373168170452,0.026475246995687485,0.015522736124694347,0.9945572018623352,-0.0313071645796299,-0.045444585382938385,0.08838898688554764
844.0,0.0,0.0,0.0,0.0,0.0,0.0,-0.010316649451851845,0.02110024355351925,0.017253343015909195,0.9940966963768005,-0.03243283927440643,-0.048319652676582336,0.09157440811395645
845.0,0.0,0.0,0.0,0.0,0.0,0.0,-0.014533410780131817,0.03602610528469086,0.017953742295503616,0.99369215965271,-0.03205065429210663,-0.05050027370452881,0.09487118571996689
846.0,0.0,0.0,0.0,0.0,0.0,0.0,-0.03148637339472771,0.010540579445660114,-0.0029456024058163166,0.9934834837913513,-0.030297037214040756,-0.05190952122211456,0.09683851897716522
847.0,0.0,0.0,0.0,0.0,0.0,0.0,-0.01422305591404438,-0.002882360713556409,-0.008388746529817581,0.9933276176452637,-0.0289296992123127,-0.05335933715105057,0.09807263314723969
848.0,0.0,0.0,0.0,0.0,0.0,0.0,-0.006009195931255817,0.007685241289436817,-0.008266462944447994,0.9932419061660767,-0.02768147736787796,-0.055381786078214645,0.09817912429571152
849.0,0.0,0.0,0.0,0.0,0.0,0.0,-0.011285646818578243,-0.00205263402312994,-0.009709815494716167,0.9932738542556763,-0.025870662182569504,-0.05775562673807144,0.09697797894477844
850.0,0.0,0.0,0.0,0.0,0.0,0.0,-0.015184969641268253,0.004691591486334801,-0.005360805429518223,0.9933789968490601,-0.02364295721054077,-0.05980846658349037,0.09520165622234344
851.0,0.0,0.0,0.0,0.0,0.0,0.0,-0.01507286075502634,0.008254987187683582,-0.018705183640122414,0.9936498999595642,-0.020550988614559174,-0.06094645336270332,0.092321015894413
852.0,0.0,0.0,0.0,0.0,0.0,0.0,0.011076160706579685,0.0006220525247044861,-0.013346090912818909,0.9938861131668091,-0.0162025336176157,-0.062230516225099564,0.0897565484046936
853.0,0.0,0.0,0.0,0.0,0.0,0.0,0.03012763150036335,-0.001354974927380681,0.012410412542521954,0.9940751194953918,-0.012368387542665005,-0.06369544565677643,0.08721186220645905
854.0,0.0,0.0,0.0,0.0,0.0,0.0,0.008365229703485966,0.01456246618181467,0.008831679821014404,0.9941161274909973,-0.010319791734218597,-0.06598027795553207,0.08529882878065109
855.0,0.0,0.0,0.0,0.0,0.0,0.0,0.004910443909466267,0.03462529182434082,0.031819865107536316,0.9939583539962769,-0.008177354000508785,-0.06832988560199738,0.08551465719938278
856.0,0.0,0.0,0.0,0.0,0.0,0.0,-0.016588158905506134,0.04723338037729263,0.02924743853509426,0.9938411712646484,-0.005670234560966492,-0.0692439079284668,0.08633171021938324
857.0,0.0,0.0,0.0,0.0,0.0,0.0,-0.021902212873101234,0.045813191682100296,0.03971797600388527,0.9939259886741638,-0.002338489517569542,-0.06784689426422119,0.08662007749080658
858.0,0.0,0.0,0.0,0.0,0.0,0.0,0.0045012617483735085,0.030559182167053223,0.027320750057697296,0.9941360354423523,-3.58087127096951e-05,-0.0658266469836235,0.08579602837562561
859.0,0.0,0.0,0.0,0.0,0.0,0.0,0.010946710593998432,0.010499274358153343,0.028501231223344803,0.9943379759788513,0.00028730573831126094,-0.06388548761606216,0.0849168449640274
860.0,0.0,0.0,0.0,0.0,0.0,0.0,0.008980192244052887,0.009870903566479683,0.03115275502204895,0.994642436504364,0.0005324625526554883,-0.061012111604213715,0.08345607668161392
861.0,0.0,0.0,0.0,0.0,0.0,0.0,-0.007122820243239403,0.0021067168563604355,0.01636071875691414,0.9951196312904358,0.0007524904794991016,-0.05662599205970764,0.08081216365098953
862.0,0.0,0.0,0.0,0.0,0.0,0.0,-0.014880170114338398,-0.002332119969651103,-0.015235953032970428,0.9955844283103943,0.003024251898750663,-0.05088812857866287,0.07883565127849579
863.0,0.0,0.0,0.0,0.0,0.0,0.0,0.016576645895838737,-0.07031025737524033,-0.002096856012940407,0.9959080219268799,0.004676639102399349,-0.044500552117824554,0.07852309942245483
864.0,0.0,0.0,0.0,0.0,0.0,0.0,0.02119162306189537,-0.03339598700404167,-0.017674900591373444,0.9960917830467224,0.005363249685615301,-0.038175079971551895,0.07947391271591187
865.0,0.0,0.0,0.0,0.0,0.0,0.0,0.013951713219285011,-0.03044435754418373,-0.041042689234018326,0.9961678385734558,0.0063448077999055386,-0.03294855356216431,0.08077549189329147
866.0,0.0,0.0,0.0,0.0,0.0,0.0,0.02026650682091713,-0.03291045129299164,-0.040899019688367844,0.9962043166160583,0.005551716312766075,-0.028470128774642944,0.0820697471499443
867.0,0.0,0.0,0.0,0.0,0.0,0.0,0.015981804579496384,-0.016866886988282204,-0.03467481583356857,0.9962025880813599,0.004196287132799625,-0.02537315897643566,0.0831829309463501
868.0,0.0,0.0,0.0,0.0,0.0,0.0,0.023910224437713623,-0.011381474323570728,-0.021274536848068237,0.9961517453193665,0.003815714968368411,-0.023897254839539528,0.08424947410821915
869.0,0.0,0.0,0.0,0.0,0.0,0.0,0.05583580210804939,-0.04549539461731911,-0.022478817030787468,0.995976984500885,-0.00035088075674138963,-0.023189827799797058,0.08655744791030884
870.0,0.0,0.0,0.0,0.0,0.0,0.0,0.044678643345832825,0.004878852982074022,-0.02710890583693981,0.9957044124603271,-0.003819788573309779,-0.025938361883163452,0.08879901468753815
871.0,0.0,0.0,0.0,0.0,0.0,0.0,-0.003620217787101865,0.04049406200647354,-0.0019355876138433814,0.9955646991729736,-0.006585138384252787,-0.02796935848891735,0.08959110826253891
872.0,0.0,0.0,0.0,0.0,0.0,0.0,0.0008103806176222861,0.007177549414336681,0.02319878153502941,0.9952959418296814,-0.011293668299913406,-0.029914792627096176,0.09145427495241165
873.0,0.0,0.0,0.0,0.0,0.0,0.0,0.007530798204243183,-0.05710257217288017,-0.031155148521065712,0.994957447052002,-0.019308315590023994,-0.032289501279592514,0.09298626333475113
874.0,0.0,0.0,0.0,0.0,0.0,0.0,0.007783576380461454,-0.0266644936054945,-0.10014723241329193,0.994864821434021,-0.025253931060433388,-0.035583291202783585,0.09133470058441162
875.0,0.0,0.0,0.0,0.0,0.0,0.0,-0.005901157855987549,0.046034008264541626,-0.009275561198592186,0.9952758550643921,-0.023940233513712883,-0.039750248193740845,0.08528373390436172
876.0,0.0,0.0,0.0,0.0,0.0,0.0,-0.03984006121754646,0.0947766974568367,0.08751113712787628,0.9960657954216003,-0.02020757645368576,-0.041746314615011215,0.0755097046494484
877.0,0.0,0.0,0.0,0.0,0.0,0.0,-0.0625683143734932,0.1314244568347931,0.10515249520540237,0.9968870282173157,-0.01594264805316925,-0.04252508282661438,0.06445887684822083
878.0,0.0,0.0,0.0,0.0,0.0,0.0,-0.01284636277705431,0.0991818830370903,0.14733587205410004,0.9977292418479919,-0.011903565376996994,-0.042161725461483,0.051168233156204224
879.0,0.0,0.0,0.0,0.0,0.0,0.0,0.00672595901414752,0.03766235336661339,0.0811210498213768,0.9984704852104187,-0.007595940958708525,-0.04080596938729286,0.036553412675857544
880.0,0.0,0.0,0.0,0.0,0.0,0.0,-0.018439574167132378,0.008983614854514599,0.012395363301038742,0.9989964365959167,-0.004951308015733957,-0.03767835348844528,0.02372521348297596
881.0,0.0,0.0,0.0,0.0,0.0,0.0,-0.038004688918590546,-0.06460025906562805,-0.06171898916363716,0.9993701577186584,-0.0039853728376328945,-0.03289489075541496,0.012719526886940002
882.0,0.0,0.0,0.0,0.0,0.0,0.0,-0.01349538005888462,-0.08562231063842773,-0.1192515566945076,0.99952232837677,-0.004472860135138035,-0.028238238766789436,0.011754939332604408
883.0,0.0,0.0,0.0,0.0,0.0,0.0,0.059279877692461014,-0.03971005231142044,-0.10870901495218277,0.9994564056396484,-0.006451979745179415,-0.027288226410746574,0.017370717599987984
