,Position_X,Position_Y,Position_Z,Velocity_X,Velocity_Y,Velocity_Z,Acceleration_X,Acceleration_Y,Acceleration_Z,Quaterion_0,Quaterion_1,Quaterion_2,Quaterion_3
207.0,0.0,0.0,0.0,0.0,0.0,0.0,-1.6496583223342896,-1.2355092763900757,-0.14504913985729218,1.0,2.0816681711721685e-17,-1.734723475976807e-17,2.0816681711721685e-17
208.0,0.0,0.0,0.0,0.0,0.0,0.0,-0.039933670312166214,-0.243305966258049,-0.14849452674388885,0.9998248219490051,-0.005922090727835894,-0.01100617554038763,0.013931510969996452
209.0,0.0,0.0,0.0,0.0,0.0,0.0,-0.11569744348526001,-0.1765308529138565,-0.12315685302019119,0.9998636245727539,0.003516505239531398,-0.01388706173747778,0.008214413188397884
210.0,0.0,0.0,0.0,0.0,0.0,0.0,-0.3250482380390167,-0.26756057143211365,-0.09873267263174057,0.9999101758003235,0.007343987002968788,-0.009997783228754997,-0.005076943431049585
211.0,0.0,0.0,0.0,0.0,0.0,0.0,-0.19810912013053894,-0.34265026450157166,-0.037959326058626175,0.9998278021812439,0.007329387590289116,-0.006135617848485708,-0.01590585522353649
212.0,0.0,0.0,0.0,0.0,0.0,0.0,-0.2959366738796234,-0.26561641693115234,0.005896696820855141,0.999579906463623,0.007787481416016817,-0.0036675799638032913,-0.027672775089740753
213.0,0.0,0.0,0.0,0.0,0.0,0.0,-0.38103845715522766,-0.21961866319179535,0.03278077021241188,0.9992348551750183,0.006846332456916571,-0.0034264656715095043,-0.038352932780981064
214.0,0.0,0.0,0.0,0.0,0.0,0.0,-0.5062445998191833,-0.26062721014022827,0.040236033499240875,0.9990988969802856,-0.0040024141781032085,-0.005171128083020449,-0.04193245619535446
215.0,0.0,0.0,0.0,0.0,0.0,0.0,-0.47275346517562866,-0.4427949786186218,0.026660028845071793,0.9990361332893372,-0.043365299701690674,-0.006633786950260401,-0.0013659880496561527
216.0,0.0,0.0,0.0,0.0,0.0,0.0,0.25462308526039124,-0.1511589139699936,0.08466261625289917,0.9968937635421753,-0.06182785704731941,0.0009941988391801715,0.0487704798579216
217.0,0.0,0.0,0.0,0.0,0.0,0.0,-0.19856451451778412,-0.16375362873077393,-0.03312163054943085,0.9971668124198914,-0.06179845705628395,0.002169504528865218,0.0428239069879055
218.0,0.0,0.0,0.0,0.0,0.0,0.0,-0.2757238447666168,-0.24992859363555908,-0.039797861129045486,0.9969761371612549,-0.06629069149494171,0.0028489036485552788,0.04043852910399437
219.0,0.0,0.0,0.0,0.0,0.0,0.0,-0.22741685807704926,-0.22177766263484955,-0.02529468759894371,0.9967601299285889,-0.07027824968099594,0.003937473054975271,0.03890210762619972
220.0,0.0,0.0,0.0,0.0,0.0,0.0,-0.29217466711997986,-0.2094583809375763,-0.023600775748491287,0.9966378211975098,-0.07370739430189133,0.0035946189891546965,0.0355890654027462
221.0,0.0,0.0,0.0,0.0,0.0,0.0,-0.2958219051361084,-0.20674531161785126,-0.018076904118061066,0.9964750409126282,-0.07677534967660904,0.003028237959370017,0.033665597438812256
222.0,0.0,0.0,0.0,0.0,0.0,0.0,-0.29323408007621765,-0.20391353964805603,-0.017376497387886047,0.9963321089744568,-0.07943497598171234,0.0020292596891522408,0.03174448013305664
223.0,0.0,0.0,0.0,0.0,0.0,0.0,-0.3047051727771759,-0.19785332679748535,-0.0163427647203207,0.9961546659469604,-0.08251664787530899,0.0006442453595809639,0.0294171255081892
224.0,0.0,0.0,0.0,0.0,0.0,0.0,-0.30709514021873474,-0.19084931910037994,-0.015532254241406918,0.9960092306137085,-0.08498408645391464,-0.0004136181378271431,0.027241041883826256
225.0,0.0,0.0,0.0,0.0,0.0,0.0,-0.29988616704940796,-0.18764184415340424,-0.021726053208112717,0.9959031939506531,-0.08671468496322632,-0.0008401131490245461,0.025606617331504822
226.0,0.0,0.0,0.0,0.0,0.0,0.0,-0.2860923707485199,-0.1887807697057724,-0.023701652884483337,0.9958269596099854,-0.08794686198234558,-0.0009501916938461363,0.024328097701072693
227.0,0.0,0.0,0.0,0.0,0.0,0.0,-0.27009060978889465,-0.18688710033893585,-0.02820187620818615,0.995746910572052,-0.08925867825746536,-0.0005575002869591117,0.02279258891940117
228.0,0.0,0.0,0.0,0.0,0.0,0.0,-0.26254573464393616,-0.18171024322509766,-0.03190581128001213,0.9957244992256165,-0.08991494029760361,-0.0003999991749878973,0.021145761013031006
229.0,0.0,0.0,0.0,0.0,0.0,0.0,-0.26644769310951233,-0.1717667132616043,-0.033005498349666595,0.9956918358802795,-0.09058192372322083,0.00014281559560913593,0.019804030656814575
230.0,0.0,0.0,0.0,0.0,0.0,0.0,-0.26098009943962097,-0.15775464475154877,-0.0419798418879509,0.9956917762756348,-0.09086677432060242,0.0005349451093934476,0.01845443993806839
231.0,0.0,0.0,0.0,0.0,0.0,0.0,-0.25292426347732544,-0.1516362875699997,-0.04609133303165436,0.9957029819488525,-0.09092656522989273,0.0010482434881851077,0.017499784007668495
232.0,0.0,0.0,0.0,0.0,0.0,0.0,-0.24855373799800873,-0.14766575396060944,-0.0470443032681942,0.9956989288330078,-0.09115011245012283,0.0012696887133643031,0.016495781019330025
233.0,0.0,0.0,0.0,0.0,0.0,0.0,-0.2491520792245865,-0.14668205380439758,-0.04371168464422226,0.9957494139671326,-0.09079282730817795,0.0014250653330236673,0.01538675744086504
234.0,0.0,0.0,0.0,0.0,0.0,0.0,-0.24411125481128693,-0.1560482382774353,-0.039154328405857086,0.9958202242851257,-0.09014023840427399,0.0012318538501858711,0.014656399376690388
235.0,0.0,0.0,0.0,0.0,0.0,0.0,-0.24770112335681915,-0.16031868755817413,-0.033282577991485596,0.9958451390266418,-0.08998004347085953,0.0006542379851453006,0.013940912671387196
236.0,0.0,0.0,0.0,0.0,0.0,0.0,-0.25703927874565125,-0.15756823122501373,-0.029009854421019554,0.9958431720733643,-0.09011521190404892,-0.0002726349048316479,0.013209066353738308
237.0,0.0,0.0,0.0,0.0,0.0,0.0,-0.27643340826034546,-0.1495627909898758,-0.02169676683843136,0.9958248734474182,-0.09038138389587402,-0.0013392663095146418,0.01268694642931223
238.0,0.0,0.0,0.0,0.0,0.0,0.0,-0.2833729088306427,-0.14031682908535004,-0.01590149477124214,0.9957931041717529,-0.09075263142585754,-0.002057838486507535,0.012456459924578667
239.0,0.0,0.0,0.0,0.0,0.0,0.0,-0.2775501608848572,-0.14798052608966827,-0.011216873303055763,0.9957340955734253,-0.09145835787057877,-0.0023206062614917755,0.01192915253341198
240.0,0.0,0.0,0.0,0.0,0.0,0.0,-0.26952752470970154,-0.1570103019475937,-0.007019136566668749,0.9956891536712646,-0.09209398180246353,-0.002402234822511673,0.01072699110955
241.0,0.0,0.0,0.0,0.0,0.0,0.0,-0.2638934850692749,-0.15679296851158142,-0.00898598600178957,0.9956358075141907,-0.0927591547369957,-0.0026593776419758797,0.00986247044056654
242.0,0.0,0.0,0.0,0.0,0.0,0.0,-0.26781409978866577,-0.14874477684497833,-0.008566146716475487,0.9955980181694031,-0.09324487298727036,-0.002633340423926711,0.009033679962158203
243.0,0.0,0.0,0.0,0.0,0.0,0.0,-0.2673247456550598,-0.14392586052417755,-0.008988737128674984,0.9955524802207947,-0.09385675191879272,-0.002733048517256975,0.007602131925523281
244.0,0.0,0.0,0.0,0.0,0.0,0.0,0.22826600074768066,-0.16371138393878937,0.15227632224559784,0.9976180791854858,-0.06794815510511398,-0.004877274855971336,-0.0108147282153368
245.0,0.0,0.0,0.0,0.0,0.0,0.0,-0.7878315448760986,-0.8653452396392822,0.18832415342330933,0.9897889494895935,0.0343165285885334,0.01185785885900259,-0.13782183825969696
246.0,0.0,0.0,0.0,0.0,0.0,0.0,-0.8776444792747498,0.07298353314399719,-0.37968558073043823,0.985796332359314,0.039576560258865356,0.010393134318292141,-0.162880077958107
247.0,0.0,0.0,0.0,0.0,0.0,0.0,0.13044299185276031,-0.3136904537677765,-0.15805155038833618,0.9856206774711609,0.038443539291620255,0.003793139476329088,-0.16448940336704254
248.0,0.0,0.0,0.0,0.0,0.0,0.0,-0.22618353366851807,-0.15332993865013123,-0.03742733970284462,0.9830061197280884,0.043144237250089645,0.008232709020376205,-0.17822615802288055
249.0,0.0,0.0,0.0,0.0,0.0,0.0,-0.24435484409332275,-0.2482111006975174,0.011984288692474365,0.9816839098930359,0.03689110651612282,0.013278814032673836,-0.18642309308052063
250.0,0.0,0.0,0.0,0.0,0.0,0.0,-0.20980174839496613,-0.1896613985300064,0.08041129261255264,0.9812342524528503,0.028748292475938797,0.01279841735959053,-0.19022125005722046
251.0,0.0,0.0,0.0,0.0,0.0,0.0,-0.22038023173809052,-0.09199900925159454,0.09673149883747101,0.9806361794471741,0.025258803740143776,0.012963777408003807,-0.19374635815620422
252.0,0.0,0.0,0.0,0.0,0.0,0.0,-0.1910281777381897,-0.1089688390493393,0.07876689732074738,0.9796803593635559,0.025491448119282722,0.011959602124989033,-0.19857855141162872
253.0,0.0,0.0,0.0,0.0,0.0,0.0,-0.2058851420879364,-0.13611933588981628,0.05177981033921242,0.9787286520004272,0.02574818953871727,0.009748292155563831,-0.20328563451766968
254.0,0.0,0.0,0.0,0.0,0.0,0.0,-0.2375754714012146,-0.1387350708246231,0.021009042859077454,0.9787792563438416,0.021122056990861893,0.0061248065903782845,-0.20370376110076904
255.0,0.0,0.0,0.0,0.0,0.0,0.0,-0.2558685541152954,-0.16720019280910492,-0.014501276426017284,0.9817194938659668,0.00308953202329576,0.0037073150742799044,-0.19025810062885284
256.0,0.0,0.0,0.0,0.0,0.0,0.0,-0.202351912856102,-0.16453805565834045,-0.03357958048582077,0.9866927862167358,-0.027570215985178947,0.0032547726295888424,-0.1601952612400055
257.0,0.0,0.0,0.0,0.0,0.0,0.0,0.013545441441237926,0.03923719376325607,-0.05235133320093155,0.9914491772651672,-0.052915725857019424,0.007616606540977955,-0.11902143806219101
258.0,0.0,0.0,0.0,0.0,0.0,0.0,0.00320726097561419,-0.06593243777751923,-0.029896050691604614,0.9918214082717896,-0.0485992506146431,0.004309306852519512,-0.11792788654565811
259.0,0.0,0.0,0.0,0.0,0.0,0.0,-0.28150278329849243,-0.2702208161354065,0.10037744045257568,0.9907444715499878,-0.055403899401426315,0.0028507669921964407,-0.12387419492006302
260.0,0.0,0.0,0.0,0.0,0.0,0.0,-0.20348772406578064,-0.04981774464249611,-0.003265489125624299,0.9906002879142761,-0.060549113899469376,0.002519929548725486,-0.12261763960123062
261.0,0.0,0.0,0.0,0.0,0.0,0.0,-0.20942357182502747,-0.048793524503707886,-0.011112219654023647,0.9902290105819702,-0.06230947747826576,0.0006973896524868906,-0.12474672496318817
262.0,0.0,0.0,0.0,0.0,0.0,0.0,-0.21974660456180573,-0.08329950273036957,0.012367934919893742,0.9898666143417358,-0.0652478039264679,0.00023247976787388325,-0.12610451877117157
263.0,0.0,0.0,0.0,0.0,0.0,0.0,-0.19500020146369934,-0.06461997330188751,-0.003773291828110814,0.9896416664123535,-0.06688141077756882,-6.19278625890729e-06,-0.12702174484729767
264.0,0.0,0.0,0.0,0.0,0.0,0.0,-0.1870584934949875,-0.06978209316730499,-0.00999663956463337,0.9893544912338257,-0.0682658702135086,-0.00034904517815448344,-0.12851059436798096
265.0,0.0,0.0,0.0,0.0,0.0,0.0,-0.1825881451368332,-0.0677240863442421,-0.009074746631085873,0.9890395998954773,-0.0696193054318428,-0.00015365862054750323,-0.13019558787345886
266.0,0.0,0.0,0.0,0.0,0.0,0.0,-0.17850205302238464,-0.058547135442495346,-0.01307165902107954,0.9888327121734619,-0.07038510590791702,-0.00026407293626107275,-0.13135023415088654
267.0,0.0,0.0,0.0,0.0,0.0,0.0,-0.1742524802684784,-0.06498395651578903,-0.014657518826425076,0.9886454343795776,-0.07074376195669174,0.00028658652445301414,-0.1325518637895584
268.0,0.0,0.0,0.0,0.0,0.0,0.0,-0.1624903380870819,-0.06637983024120331,-0.017276013270020485,0.9884259700775146,-0.07113141566514969,0.0010766003979369998,-0.1339719593524933
269.0,0.0,0.0,0.0,0.0,0.0,0.0,-0.15485574305057526,-0.06845592707395554,-0.02153543010354042,0.9882012605667114,-0.0712585598230362,0.001878947950899601,-0.13553974032402039
270.0,0.0,0.0,0.0,0.0,0.0,0.0,-0.16226331889629364,-0.06812293827533722,-0.018363071605563164,0.987940788269043,-0.07152879983186722,0.002571284072473645,-0.13727959990501404
271.0,0.0,0.0,0.0,0.0,0.0,0.0,-0.16390597820281982,-0.06278262287378311,-0.016509216278791428,0.9877793192863464,-0.07136227935552597,0.0033597659785300493,-0.13852226734161377
272.0,0.0,0.0,0.0,0.0,0.0,0.0,-0.16666573286056519,-0.05705967918038368,-0.014972864650189877,0.9876829981803894,-0.07111544162034988,0.003783587133511901,-0.13930928707122803
273.0,0.0,0.0,0.0,0.0,0.0,0.0,-0.16613221168518066,-0.057212650775909424,-0.01187154371291399,0.9876107573509216,-0.070765420794487,0.004313671961426735,-0.13997779786586761
274.0,0.0,0.0,0.0,0.0,0.0,0.0,-0.1591697633266449,-0.059591036289930344,-0.01273126807063818,0.9874995350837708,-0.07041848450899124,0.004931855481117964,-0.14091956615447998
275.0,0.0,0.0,0.0,0.0,0.0,0.0,-0.15640772879123688,-0.0570809468626976,-0.01519677322357893,0.9873589277267456,-0.07027597725391388,0.005409805104136467,-0.1419394612312317
276.0,0.0,0.0,0.0,0.0,0.0,0.0,-0.1568560004234314,-0.05114780738949776,-0.017051056027412415,0.9871891736984253,-0.07017041742801666,0.005969286896288395,-0.14316079020500183
277.0,0.0,0.0,0.0,0.0,0.0,0.0,-0.15918958187103271,-0.0498720221221447,-0.016102947294712067,0.9870114922523499,-0.070155069231987,0.00624389061704278,-0.14437389373779297
278.0,0.0,0.0,0.0,0.0,0.0,0.0,-0.17039375007152557,-0.04730130359530449,-0.010167808271944523,0.986890435218811,-0.07018598914146423,0.006388417445123196,-0.145180806517601
279.0,0.0,0.0,0.0,0.0,0.0,0.0,-0.12451131641864777,-0.05970297381281853,-0.031722042709589005,0.9868351221084595,-0.06911846250295639,0.004713747184723616,-0.14612391591072083
280.0,0.0,0.0,0.0,0.0,0.0,0.0,-0.8727614283561707,-0.23733261227607727,-0.3647003471851349,0.9738730788230896,-0.06879165023565292,-0.035465165972709656,-0.21349121630191803
281.0,0.0,0.0,0.0,0.0,0.0,0.0,-1.2267335653305054,0.4294171929359436,-0.42903652787208557,0.966776967048645,-0.07854558527469635,-0.04232019558548927,-0.23953773081302643
282.0,0.0,0.0,0.0,0.0,0.0,0.0,0.3054406940937042,-0.249415323138237,-0.05881791189312935,0.9678555130958557,-0.07855521887540817,-0.046687185764312744,-0.23429888486862183
283.0,0.0,0.0,0.0,0.0,0.0,0.0,-0.0663779079914093,-0.050231777131557465,-0.07895065099000931,0.9665437340736389,-0.07809208333492279,-0.05051577836275101,-0.23902806639671326
284.0,0.0,0.0,0.0,0.0,0.0,0.0,-0.1302059292793274,-0.07712721824645996,-0.006104457192122936,0.9654421210289001,-0.08231693506240845,-0.04985802248120308,-0.24218231439590454
285.0,0.0,0.0,0.0,0.0,0.0,0.0,-0.08571875095367432,-0.07575088739395142,0.05475025251507759,0.9644482135772705,-0.08712203800678253,-0.05165179446339607,-0.2440561056137085
286.0,0.0,0.0,0.0,0.0,0.0,0.0,-0.08286719024181366,0.05382306128740311,0.06341658532619476,0.9633511900901794,-0.08943041414022446,-0.05489673092961311,-0.24685651063919067
287.0,0.0,0.0,0.0,0.0,0.0,0.0,-0.05439316853880882,0.0880892351269722,0.04801786318421364,0.9623541831970215,-0.08916192501783371,-0.0580463632941246,-0.2500807046890259
288.0,0.0,0.0,0.0,0.0,0.0,0.0,-0.06682302057743073,0.012628479860723019,0.036286916583776474,0.961317777633667,-0.08771216124296188,-0.060332268476486206,-0.25401222705841064
289.0,0.0,0.0,0.0,0.0,0.0,0.0,-0.08300952613353729,-0.041585955768823624,0.02927524968981743,0.9603757262229919,-0.085309699177742,-0.06050119549036026,-0.25830361247062683
290.0,0.0,0.0,0.0,0.0,0.0,0.0,-0.0862932875752449,-0.03777378052473068,0.02968580089509487,0.9597513675689697,-0.07994171231985092,-0.0589645653963089,-0.26266536116600037
291.0,0.0,0.0,0.0,0.0,0.0,0.0,-0.0960385724902153,-0.023439645767211914,0.016381945461034775,0.9588353037834167,-0.07059107720851898,-0.05517126992344856,-0.26945576071739197
292.0,0.0,0.0,0.0,0.0,0.0,0.0,-0.11033258587121964,0.0169278085231781,-0.03017175756394863,0.956608235836029,-0.05619284510612488,-0.05023258179426193,-0.28144145011901855
293.0,0.0,0.0,0.0,0.0,0.0,0.0,-0.15341398119926453,0.10026851296424866,-0.12215632945299149,0.9541072249412537,-0.04771146923303604,-0.04808801785111427,-0.2916787564754486
294.0,0.0,0.0,0.0,0.0,0.0,0.0,-0.15297254920005798,-0.05946396663784981,0.17793633043766022,0.9622333645820618,-0.055222854018211365,-0.03048066422343254,-0.2647969126701355
295.0,0.0,0.0,0.0,0.0,0.0,0.0,0.31431055068969727,-0.3822984993457794,0.19701217114925385,0.9739025235176086,-0.03763709217309952,0.005693672224879265,-0.22373995184898376
296.0,0.0,0.0,0.0,0.0,0.0,0.0,0.1206178292632103,-0.05966457352042198,-0.20026566088199615,0.9739971160888672,-0.03389677032828331,0.005637471564114094,-0.22391542792320251
297.0,0.0,0.0,0.0,0.0,0.0,0.0,-0.12539738416671753,-0.07036182284355164,0.04784209653735161,0.9729757308959961,-0.03805231302976608,0.0038867462426424026,-0.22770379483699799
298.0,0.0,0.0,0.0,0.0,0.0,0.0,-0.06261986494064331,-0.10138201713562012,0.015606380067765713,0.9723016023635864,-0.04050823673605919,0.004699079319834709,-0.23013482987880707
299.0,0.0,0.0,0.0,0.0,0.0,0.0,-0.089957095682621,-0.06966759264469147,0.008709225803613663,0.970963180065155,-0.04391118884086609,0.0030949460342526436,-0.23512034118175507
300.0,0.0,0.0,0.0,0.0,0.0,0.0,-0.0975429117679596,-0.07629357278347015,0.023030133917927742,0.9697746634483337,-0.047160882502794266,0.0014952075434848666,-0.239387646317482
301.0,0.0,0.0,0.0,0.0,0.0,0.0,-0.09651900082826614,-0.07553199678659439,0.012588100507855415,0.9683060646057129,-0.050296343863010406,0.00018543103942647576,-0.2446279078722
302.0,0.0,0.0,0.0,0.0,0.0,0.0,-0.10393799841403961,-0.07143456488847733,0.012229581363499165,0.9668108224868774,-0.053951140493154526,-0.0017648020293563604,-0.24970698356628418
303.0,0.0,0.0,0.0,0.0,0.0,0.0,-0.10514592379331589,-0.05632799118757248,0.013091147877275944,0.9654948711395264,-0.05767897889018059,-0.004018241073936224,-0.253909707069397
304.0,0.0,0.0,0.0,0.0,0.0,0.0,-0.09901853650808334,-0.033032264560461044,0.013579241000115871,0.9642595052719116,-0.06057778000831604,-0.005855986848473549,-0.25785699486732483
305.0,0.0,0.0,0.0,0.0,0.0,0.0,-0.09279593080282211,-0.02459178864955902,0.014848025515675545,0.9631768465042114,-0.06291346251964569,-0.006879719905555248,-0.26129165291786194
306.0,0.0,0.0,0.0,0.0,0.0,0.0,-0.08235237747430801,-0.022689638659358025,0.008115972392261028,0.9623433947563171,-0.06445968151092529,-0.00784709770232439,-0.26395463943481445
307.0,0.0,0.0,0.0,0.0,0.0,0.0,-0.07258789986371994,-0.02680809609591961,0.00474177161231637,0.9615333676338196,-0.06582202017307281,-0.008953058160841465,-0.2665223777294159
308.0,0.0,0.0,0.0,0.0,0.0,0.0,-0.07094751298427582,-0.027067655697464943,0.0019151702290400863,0.9606306552886963,-0.06719394028186798,-0.009753166697919369,-0.2693935036659241
309.0,0.0,0.0,0.0,0.0,0.0,0.0,-0.06931082904338837,-0.026713773608207703,-0.002945724641904235,0.9595713019371033,-0.06879802793264389,-0.010307791642844677,-0.27271169424057007
310.0,0.0,0.0,0.0,0.0,0.0,0.0,-0.07151474058628082,-0.018857507035136223,-0.001714869518764317,0.9584518074989319,-0.07067210972309113,-0.010589202865958214,-0.27614089846611023
311.0,0.0,0.0,0.0,0.0,0.0,0.0,-0.07941707223653793,-0.011236265301704407,0.0038178255781531334,0.957488477230072,-0.07232304662466049,-0.011104259639978409,-0.2790168225765228
312.0,0.0,0.0,0.0,0.0,0.0,0.0,-0.08202087879180908,-0.008982145227491856,0.006498699076473713,0.9566266536712646,-0.07396538555622101,-0.011515522375702858,-0.28152015805244446
313.0,0.0,0.0,0.0,0.0,0.0,0.0,-0.08267585933208466,-0.0157662034034729,0.007336072623729706,0.955737292766571,-0.0752941444516182,-0.01206541620194912,-0.2841680347919464
314.0,0.0,0.0,0.0,0.0,0.0,0.0,-0.08535566926002502,-0.014938662759959698,0.008632359094917774,0.9548822641372681,-0.07675851881504059,-0.01257775817066431,-0.2866152822971344
315.0,0.0,0.0,0.0,0.0,0.0,0.0,-0.08747654408216476,-0.0012719478690996766,0.007157484069466591,0.9542949199676514,-0.07811541855335236,-0.013715678825974464,-0.2881365716457367
316.0,0.0,0.0,0.0,0.0,0.0,0.0,-0.07987029105424881,0.004577048122882843,0.003455518977716565,0.9538599252700806,-0.07910715043544769,-0.014776688069105148,-0.28924837708473206
317.0,0.0,0.0,0.0,0.0,0.0,0.0,-0.07607356458902359,0.0023242426104843616,0.002005284186452627,0.9533978700637817,-0.07997020334005356,-0.0156465582549572,-0.29048725962638855
318.0,0.0,0.0,0.0,0.0,0.0,0.0,-0.0710650160908699,-0.001953916158527136,0.0009336299262940884,0.9529205560684204,-0.08080641180276871,-0.016842691227793694,-0.29175233840942383
319.0,0.0,0.0,0.0,0.0,0.0,0.0,-0.06967521458864212,0.0019857462029904127,0.0010777934221550822,0.9523595571517944,-0.08197230845689774,-0.01753557100892067,-0.2931939959526062
320.0,0.0,0.0,0.0,0.0,0.0,0.0,-0.06446211040019989,0.00739650335162878,-0.0011639196891337633,0.951910674571991,-0.08337738364934921,-0.017773108556866646,-0.2942681312561035
321.0,0.0,0.0,0.0,0.0,0.0,0.0,-0.05526721850037575,0.0045668138191103935,-0.0016687118913978338,0.9515851140022278,-0.08422359079122543,-0.018211770802736282,-0.2950335144996643
322.0,0.0,0.0,0.0,0.0,0.0,0.0,-0.04673105850815773,-0.004474280402064323,-0.0031095382291823626,0.9512916803359985,-0.0844610333442688,-0.018250731751322746,-0.29591846466064453
323.0,0.0,0.0,0.0,0.0,0.0,0.0,-0.03699441999197006,-0.011722843162715435,-0.007502419408410788,0.9508394598960876,-0.08442973345518112,-0.018208397552371025,-0.2973979413509369
324.0,0.0,0.0,0.0,0.0,0.0,0.0,-0.03335642069578171,-0.018193067982792854,-0.00826586876064539,0.950475811958313,-0.08448516577482224,-0.01844148151576519,-0.29852157831192017
325.0,0.0,0.0,0.0,0.0,0.0,0.0,-0.031175602227449417,-0.02739701047539711,-0.008468362502753735,0.950186014175415,-0.08434692025184631,-0.01882176660001278,-0.2994501292705536
326.0,0.0,0.0,0.0,0.0,0.0,0.0,-0.021483393386006355,-0.025926537811756134,-0.010708329267799854,0.9498359560966492,-0.08426588028669357,-0.019021136686205864,-0.30056092143058777
327.0,0.0,0.0,0.0,0.0,0.0,0.0,-0.022654125466942787,-0.031642116606235504,-0.01202655304223299,0.9493898749351501,-0.08384517580270767,-0.018969479948282242,-0.30207377672195435
328.0,0.0,0.0,0.0,0.0,0.0,0.0,-0.026382973417639732,-0.04245343431830406,-0.012341858819127083,0.9487433433532715,-0.08387354016304016,-0.019188107922673225,-0.3040929436683655
329.0,0.0,0.0,0.0,0.0,0.0,0.0,-0.03500979021191597,-0.032024431973695755,-0.008597875013947487,0.9481304883956909,-0.08435728400945663,-0.019893808290362358,-0.30581843852996826
330.0,0.0,0.0,0.0,0.0,0.0,0.0,-0.047071896493434906,-0.01398499310016632,-0.005268676672130823,0.9475913047790527,-0.08520853519439697,-0.020740503445267677,-0.30718785524368286
331.0,0.0,0.0,0.0,0.0,0.0,0.0,-0.0559338703751564,-0.004916982259601355,-0.0007824526401236653,0.9470105171203613,-0.08608215302228928,-0.021728413179516792,-0.30866318941116333
332.0,0.0,0.0,0.0,0.0,0.0,0.0,-0.06431630253791809,-0.0021042313892394304,0.0018015379318967462,0.9464825391769409,-0.08686384558677673,-0.0228987168520689,-0.30998486280441284
333.0,0.0,0.0,0.0,0.0,0.0,0.0,-0.0703655481338501,0.007507586386054754,0.004369952250272036,0.946027398109436,-0.0877295657992363,-0.024055790156126022,-0.3110368847846985
334.0,0.0,0.0,0.0,0.0,0.0,0.0,-0.07524485886096954,0.008458751253783703,0.007298027165234089,0.945547342300415,-0.08879081904888153,-0.025188257917761803,-0.3121051490306854
335.0,0.0,0.0,0.0,0.0,0.0,0.0,-0.07833194732666016,0.0006078309961594641,0.010343984700739384,0.9449466466903687,-0.09020908921957016,-0.02618206851184368,-0.3134295642375946
336.0,0.0,0.0,0.0,0.0,0.0,0.0,-0.07170387357473373,0.0013947638217359781,0.009926688857376575,0.94441819190979,-0.0914667621254921,-0.027159690856933594,-0.3145802915096283
337.0,0.0,0.0,0.0,0.0,0.0,0.0,-0.06130216270685196,0.00420610886067152,0.0034791664220392704,0.9440292119979858,-0.09256567060947418,-0.028187112882733345,-0.31534266471862793
338.0,0.0,0.0,0.0,0.0,0.0,0.0,-0.05787003040313721,0.016385190188884735,-0.00042630790267139673,0.9437117576599121,-0.09350453317165375,-0.028785914182662964,-0.315938264131546
339.0,0.0,0.0,0.0,0.0,0.0,0.0,-0.05842464417219162,0.025547074154019356,0.00014372871373780072,0.943602979183197,-0.0935630276799202,-0.029149383306503296,-0.31621983647346497
340.0,0.0,0.0,0.0,0.0,0.0,0.0,-0.0479796826839447,0.013046889565885067,0.0020982965361326933,0.9434865713119507,-0.09308194369077682,-0.028927965089678764,-0.31671422719955444
341.0,0.0,0.0,0.0,0.0,0.0,0.0,-0.028759196400642395,-0.007659990340471268,0.00027276400942355394,0.9433715343475342,-0.09220433980226517,-0.028725966811180115,-0.31734180450439453
342.0,0.0,0.0,0.0,0.0,0.0,0.0,-0.01815362647175789,-0.016432341188192368,0.0019172757165506482,0.9431756138801575,-0.09139880537986755,-0.028667552396655083,-0.31816810369491577
343.0,0.0,0.0,0.0,0.0,0.0,0.0,-0.024710260331630707,-0.006566885858774185,-0.0027812900952994823,0.9428801536560059,-0.09110735356807709,-0.029281705617904663,-0.3190731704235077
344.0,0.0,0.0,0.0,0.0,0.0,0.0,-0.04636295139789581,0.012011544778943062,-0.0039045291487127542,0.9426090717315674,-0.09118086099624634,-0.030285360291600227,-0.3197614848613739
345.0,0.0,0.0,0.0,0.0,0.0,0.0,-0.07028725743293762,0.030777106061577797,0.0037980254273861647,0.9424870610237122,-0.09125054627656937,-0.03103269450366497,-0.32001572847366333
346.0,0.0,0.0,0.0,0.0,0.0,0.0,-0.0823936015367508,0.029392778873443604,0.008486628532409668,0.9426116943359375,-0.09077087789773941,-0.03128991648554802,-0.3197662830352783
347.0,0.0,0.0,0.0,0.0,0.0,0.0,-0.07804200798273087,0.016345767304301262,0.008490053005516529,0.9428424835205078,-0.09005977213382721,-0.03084338642656803,-0.3193206191062927
348.0,0.0,0.0,0.0,0.0,0.0,0.0,-0.0551212839782238,-0.00648060766980052,0.004597996361553669,0.9430456161499023,-0.08909332007169724,-0.030303018167614937,-0.3190573751926422
349.0,0.0,0.0,0.0,0.0,0.0,0.0,-0.03309151530265808,-0.01980363205075264,-0.0002714948495849967,0.9432275295257568,-0.0879717543721199,-0.029703347012400627,-0.3188719153404236
350.0,0.0,0.0,0.0,0.0,0.0,0.0,-0.02764161303639412,-0.022471405565738678,-0.003117283806204796,0.9434471130371094,-0.08657436072826385,-0.029611093923449516,-0.31861886382102966
351.0,0.0,0.0,0.0,0.0,0.0,0.0,-0.029765024781227112,-0.020364519208669662,-0.006359382066875696,0.9436613917350769,-0.08519992232322693,-0.029624424874782562,-0.3183736801147461
352.0,0.0,0.0,0.0,0.0,0.0,0.0,-0.026624158024787903,-0.01993275061249733,-0.013069303706288338,0.9438453912734985,-0.08407371491193771,-0.03002253547310829,-0.31807824969291687
353.0,0.0,0.0,0.0,0.0,0.0,0.0,-0.020143095403909683,-0.02328144572675228,-0.02076386660337448,0.9441059827804565,-0.08289161324501038,-0.030982879921793938,-0.3175123631954193
354.0,0.0,0.0,0.0,0.0,0.0,0.0,-0.012230240739881992,-0.021468386054039,-0.023523330688476562,0.9441587924957275,-0.08187037706375122,-0.032535094767808914,-0.31747862696647644
355.0,0.0,0.0,0.0,0.0,0.0,0.0,-0.01622926816344261,-0.020176349207758904,-0.02660107985138893,0.9441295862197876,-0.081105537712574,-0.03493444249033928,-0.3174985945224762
356.0,0.0,0.0,0.0,0.0,0.0,0.0,-0.01880349963903427,-0.0012557303998619318,-0.02232067659497261,0.944126546382904,-0.08008282631635666,-0.037498101592063904,-0.31748637557029724
357.0,0.0,0.0,0.0,0.0,0.0,0.0,-0.017280438914895058,0.011671913787722588,-0.035819996148347855,0.9440308213233948,-0.0790972113609314,-0.03924601897597313,-0.31780433654785156
358.0,0.0,0.0,0.0,0.0,0.0,0.0,-0.023179365321993828,0.006637737154960632,-0.019038725644350052,0.943729043006897,-0.07779332995414734,-0.040532343089580536,-0.3188374638557434
359.0,0.0,0.0,0.0,0.0,0.0,0.0,-0.019529320299625397,0.0044036926701664925,-0.014173952862620354,0.943437933921814,-0.07649783790111542,-0.04179416596889496,-0.3198593854904175
360.0,0.0,0.0,0.0,0.0,0.0,0.0,-0.02694590948522091,0.026660989969968796,0.020668381825089455,0.9429379105567932,-0.07609477639198303,-0.04242434352636337,-0.3213374614715576
361.0,0.0,0.0,0.0,0.0,0.0,0.0,-0.05227789655327797,0.010810776613652706,0.024847300723195076,0.9425250887870789,-0.07578463107347488,-0.042765431106090546,-0.3225848078727722
362.0,0.0,0.0,0.0,0.0,0.0,0.0,-0.04384862631559372,0.01042583491653204,-0.01591031439602375,0.9421195983886719,-0.07634392380714417,-0.045064687728881836,-0.32331544160842896
363.0,0.0,0.0,0.0,0.0,0.0,0.0,-0.025170478969812393,0.04101783409714699,0.0027165845967829227,0.9415148496627808,-0.07687010616064072,-0.05036821588873863,-0.324177086353302
364.0,0.0,0.0,0.0,0.0,0.0,0.0,-0.05223213881254196,0.07411538809537888,0.07535195350646973,0.9414967894554138,-0.07552029937505722,-0.05270489305257797,-0.32416605949401855
365.0,0.0,0.0,0.0,0.0,0.0,0.0,-0.03138243034482002,0.024470508098602295,0.0234520360827446,0.9416605830192566,-0.07378426194190979,-0.05240944027900696,-0.3241550624370575
366.0,0.0,0.0,0.0,0.0,0.0,0.0,-0.011711186729371548,0.001735864789225161,0.007570253685116768,0.941782534122467,-0.0721636712551117,-0.05224287509918213,-0.3241818845272064
367.0,0.0,0.0,0.0,0.0,0.0,0.0,-0.022249074652791023,0.007726404815912247,0.018702950328588486,0.9418966174125671,-0.07144544273614883,-0.05147269740700722,-0.32413169741630554
368.0,0.0,0.0,0.0,0.0,0.0,0.0,-0.021472202613949776,0.018599413335323334,0.008147607557475567,0.9422547817230225,-0.07066460698843002,-0.050177209079265594,-0.32346200942993164
369.0,0.0,0.0,0.0,0.0,0.0,0.0,-0.04177271947264671,0.01266914326697588,0.027701301500201225,0.9427085518836975,-0.07010649144649506,-0.04816146939992905,-0.3225654065608978
370.0,0.0,0.0,0.0,0.0,0.0,0.0,-0.026580167934298515,-0.010299419984221458,0.011150527745485306,0.94343101978302,-0.06948692351579666,-0.04512855410575867,-0.3210070729255676
371.0,0.0,0.0,0.0,0.0,0.0,0.0,0.018847405910491943,-0.015826519578695297,-0.032063957303762436,0.9443666338920593,-0.06796715408563614,-0.042210258543491364,-0.31898462772369385
372.0,0.0,0.0,0.0,0.0,0.0,0.0,0.04263359308242798,-0.028344588354229927,-0.04361068829894066,0.9452272653579712,-0.06598563492298126,-0.040139902383089066,-0.3171026408672333
373.0,0.0,0.0,0.0,0.0,0.0,0.0,0.03346051648259163,-0.04188770055770874,-0.03356526419520378,0.9457341432571411,-0.06431620568037033,-0.03809017315506935,-0.31621888279914856
374.0,0.0,0.0,0.0,0.0,0.0,0.0,0.009174065664410591,-0.030682316049933434,-0.008309011347591877,0.9460477828979492,-0.06326025724411011,-0.03671718016266823,-0.31562477350234985
375.0,0.0,0.0,0.0,0.0,0.0,0.0,-0.020174996927380562,-0.0272655226290226,0.009201076813042164,0.9461288452148438,-0.0628131702542305,-0.03576558455824852,-0.3155866861343384
376.0,0.0,0.0,0.0,0.0,0.0,0.0,-0.040832918137311935,-0.004300439264625311,0.031183181330561638,0.9461032748222351,-0.06308670341968536,-0.03510770946741104,-0.31567874550819397
377.0,0.0,0.0,0.0,0.0,0.0,0.0,-0.060325633734464645,0.038229234516620636,0.03551263362169266,0.946145236492157,-0.06370777636766434,-0.03492416813969612,-0.31546804308891296
378.0,0.0,0.0,0.0,0.0,0.0,0.0,-0.05764724686741829,0.05358624458312988,0.00460911076515913,0.9461908936500549,-0.06479388475418091,-0.03510453924536705,-0.315091609954834
379.0,0.0,0.0,0.0,0.0,0.0,0.0,-0.05479307472705841,0.048604633659124374,-0.0006171548156999052,0.9462661743164062,-0.06571412831544876,-0.035985276103019714,-0.3145706057548523
380.0,0.0,0.0,0.0,0.0,0.0,0.0,-0.03865800052881241,0.03743497654795647,0.003974371589720249,0.9461093544960022,-0.06625480204820633,-0.03667518496513367,-0.3148633539676666
381.0,0.0,0.0,0.0,0.0,0.0,0.0,-0.024438632652163506,0.018750324845314026,0.0011083147255703807,0.9459567070007324,-0.06698992103338242,-0.037168633192777634,-0.31509527564048767
382.0,0.0,0.0,0.0,0.0,0.0,0.0,-0.011721129529178143,0.011665734462440014,0.00011008998262695968,0.9457846879959106,-0.06757138669490814,-0.03730795159935951,-0.31546616554260254
383.0,0.0,0.0,0.0,0.0,0.0,0.0,-0.008259527385234833,0.003620448522269726,-0.00849417969584465,0.9455357193946838,-0.06799286603927612,-0.03742454946041107,-0.3161196708679199
384.0,0.0,0.0,0.0,0.0,0.0,0.0,-0.012494108639657497,0.0019231040496379137,-0.014743087813258171,0.9455031752586365,-0.06823871284723282,-0.037899937480688095,-0.3160873055458069
385.0,0.0,0.0,0.0,0.0,0.0,0.0,-0.008343380875885487,-0.0002263711648993194,-0.014974168501794338,0.9454758763313293,-0.06839270889759064,-0.03850823640823364,-0.3160865306854248
386.0,0.0,0.0,0.0,0.0,0.0,0.0,0.0017363510560244322,-0.0003564955259207636,-0.019241459667682648,0.9455110430717468,-0.06848528236150742,-0.03895527124404907,-0.31586697697639465
387.0,0.0,0.0,0.0,0.0,0.0,0.0,0.008842404000461102,-0.009219394996762276,-0.020462922751903534,0.9454662799835205,-0.06920924782752991,-0.03926974534988403,-0.31584101915359497
388.0,0.0,0.0,0.0,0.0,0.0,0.0,0.014656581915915012,0.02733372524380684,-0.014162560924887657,0.9453708529472351,-0.06996719539165497,-0.038759391754865646,-0.31601235270500183
389.0,0.0,0.0,0.0,0.0,0.0,0.0,-0.001139131374657154,0.03946386277675629,-0.0033015368971973658,0.945077121257782,-0.06974666565656662,-0.03753618523478508,-0.3170858323574066
390.0,0.0,0.0,0.0,0.0,0.0,0.0,0.001925861812196672,0.026486458256840706,-0.004492046311497688,0.9447245597839355,-0.06945701688528061,-0.03619580715894699,-0.3183565139770508
391.0,0.0,0.0,0.0,0.0,0.0,0.0,0.006330801639705896,0.013487759046256542,-0.007977563887834549,0.9441681504249573,-0.0689111053943634,-0.03528350964188576,-0.32019734382629395
392.0,0.0,0.0,0.0,0.0,0.0,0.0,-0.018473757430911064,-0.011919732205569744,0.0009302792022936046,0.9435356259346008,-0.06919648498296738,-0.03517437353730202,-0.3220096528530121
393.0,0.0,0.0,0.0,0.0,0.0,0.0,-0.0536523200571537,-0.01417843159288168,0.01717490516602993,0.9427785873413086,-0.07083361595869064,-0.03552338480949402,-0.3238503336906433
394.0,0.0,0.0,0.0,0.0,0.0,0.0,-0.08954709023237228,-0.019412271678447723,0.02798468805849552,0.9418638348579407,-0.07387958467006683,-0.03550171107053757,-0.325810968875885
395.0,0.0,0.0,0.0,0.0,0.0,0.0,-0.09649510681629181,-0.012539474293589592,0.03789138048887253,0.9412721395492554,-0.0780755802989006,-0.03496721386909485,-0.3266220688819885
396.0,0.0,0.0,0.0,0.0,0.0,0.0,-0.07478149980306625,0.004403993487358093,0.03729397803544998,0.9410340189933777,-0.08175624161958694,-0.03347313031554222,-0.3265557885169983
397.0,0.0,0.0,0.0,0.0,0.0,0.0,-0.03169836848974228,0.012055723927915096,0.023524215444922447,0.9407492280006409,-0.08368683606386185,-0.03113308548927307,-0.3271041810512543
398.0,0.0,0.0,0.0,0.0,0.0,0.0,0.00036515056854113936,0.015153486281633377,0.015378950163722038,0.9405731558799744,-0.08398540318012238,-0.029040290042757988,-0.3277466893196106
399.0,0.0,0.0,0.0,0.0,0.0,0.0,0.021176859736442566,0.011731792241334915,0.0018238164484500885,0.940570592880249,-0.08427207916975021,-0.026513665914535522,-0.3278731107711792
400.0,0.0,0.0,0.0,0.0,0.0,0.0,0.03786434605717659,0.02814919501543045,-0.019690997898578644,0.9407643675804138,-0.08418593555688858,-0.024465858936309814,-0.3275236189365387
401.0,0.0,0.0,0.0,0.0,0.0,0.0,0.03750090301036835,0.04716857150197029,-0.03464833274483681,0.9414443373680115,-0.0830007791519165,-0.0221842210739851,-0.3260129988193512
402.0,0.0,0.0,0.0,0.0,0.0,0.0,0.043316226452589035,0.056984346359968185,-0.038335926830768585,0.9422813057899475,-0.08020560443401337,-0.01950918510556221,-0.32446882128715515
403.0,0.0,0.0,0.0,0.0,0.0,0.0,0.05392485484480858,0.03647745028138161,-0.050968728959560394,0.9428849220275879,-0.0769435465335846,-0.016057470813393593,-0.3236924409866333
404.0,0.0,0.0,0.0,0.0,0.0,0.0,0.060155272483825684,0.055856186896562576,-0.043315500020980835,0.9433242082595825,-0.07323123514652252,-0.014385185204446316,-0.3233489990234375
405.0,0.0,0.0,0.0,0.0,0.0,0.0,0.039580292999744415,0.07672858238220215,-0.022790655493736267,0.9434489011764526,-0.06965848803520203,-0.013612545095384121,-0.3238234221935272
406.0,0.0,0.0,0.0,0.0,0.0,0.0,0.020869148895144463,0.06552746891975403,-0.018922310322523117,0.9430379867553711,-0.06604710966348648,-0.012424221262335777,-0.32579702138900757
407.0,0.0,0.0,0.0,0.0,0.0,0.0,-0.00282992678694427,0.041105568408966064,-0.027391565963625908,0.9415405988693237,-0.06342126429080963,-0.01178965624421835,-0.33064034581184387
408.0,0.0,0.0,0.0,0.0,0.0,0.0,-0.039136867970228195,0.013851331546902657,-0.010491815395653248,0.9394531846046448,-0.06350329518318176,-0.013127143494784832,-0.3364562690258026
409.0,0.0,0.0,0.0,0.0,0.0,0.0,-0.07837555557489395,0.01946067623794079,0.009097614325582981,0.9379493594169617,-0.06554204225540161,-0.017934832721948624,-0.3400144577026367
410.0,0.0,0.0,0.0,0.0,0.0,0.0,-0.10971157252788544,0.0526452362537384,-0.003827421460300684,0.9364604353904724,-0.06854405999183655,-0.025017889216542244,-0.3430804908275604
411.0,0.0,0.0,0.0,0.0,0.0,0.0,-0.13900871574878693,0.002479113871231675,0.0026942656841129065,0.9350812435150146,-0.07197637856006622,-0.03296053409576416,-0.3454402983188629
412.0,0.0,0.0,0.0,0.0,0.0,0.0,-0.15306134521961212,-0.0504520945250988,0.017675532028079033,0.9341616630554199,-0.07723473757505417,-0.037894804030656815,-0.34630608558654785
413.0,0.0,0.0,0.0,0.0,0.0,0.0,-0.11574825644493103,-0.01615288108587265,0.010018046014010906,0.9352837204933167,-0.08075704425573349,-0.043137092143297195,-0.3418334424495697
414.0,0.0,0.0,0.0,0.0,0.0,0.0,-0.018391096964478493,0.04437081888318062,-0.04829801619052887,0.9348959922790527,-0.06853239983320236,-0.05156267434358597,-0.3443956971168518
415.0,0.0,0.0,0.0,0.0,0.0,0.0,-0.0006779604009352624,0.0040558758191764355,-0.018866118043661118,0.9334084391593933,-0.0579388365149498,-0.05597847327589989,-0.3496468961238861
416.0,0.0,0.0,0.0,0.0,0.0,0.0,-0.023446107283234596,0.028693674132227898,-0.022358080372214317,0.9339802265167236,-0.05944892764091492,-0.0594496913254261,-0.34727123379707336
417.0,0.0,0.0,0.0,0.0,0.0,0.0,-0.036897383630275726,0.10428889095783234,-0.03884032741189003,0.9331714510917664,-0.05664798989892006,-0.06736248731613159,-0.3484678268432617
418.0,0.0,0.0,0.0,0.0,0.0,0.0,-0.1433211863040924,0.18874591588974,0.020053453743457794,0.930108368396759,-0.05534682050347328,-0.07938513904809952,-0.3542778491973877
419.0,0.0,0.0,0.0,0.0,0.0,0.0,-0.1061844751238823,0.1452786922454834,0.06048639863729477,0.9258198142051697,-0.05763014033436775,-0.09926566481590271,-0.36010006070137024
420.0,0.0,0.0,0.0,0.0,0.0,0.0,0.0795944482088089,-0.028567271307110786,-0.06474414467811584,0.9204118251800537,-0.0575648695230484,-0.12789498269557953,-0.36489778757095337
421.0,0.0,0.0,0.0,0.0,0.0,0.0,0.16252726316452026,-0.16784067451953888,-0.08916698396205902,0.9142501950263977,-0.05774787813425064,-0.15516918897628784,-0.369743674993515
422.0,0.0,0.0,0.0,0.0,0.0,0.0,0.12630386650562286,-0.11836843192577362,-0.042987141758203506,0.9118219017982483,-0.056398797780275345,-0.1710754632949829,-0.36894461512565613
423.0,0.0,0.0,0.0,0.0,0.0,0.0,0.13512709736824036,-0.18874090909957886,-0.05891846865415573,0.9149202704429626,-0.047877777367830276,-0.1728629469871521,-0.36156678199768066
424.0,0.0,0.0,0.0,0.0,0.0,0.0,0.1873539239168167,-0.2358579784631729,-0.09495015442371368,0.9229907989501953,-0.025727249681949615,-0.15821081399917603,-0.34981730580329895
425.0,0.0,0.0,0.0,0.0,0.0,0.0,0.15163365006446838,-0.16919660568237305,-0.1174522414803505,0.9310347437858582,-0.002822278765961528,-0.13550160825252533,-0.3388144075870514
426.0,0.0,0.0,0.0,0.0,0.0,0.0,0.023168379440903664,-0.15255878865718842,-0.14980541169643402,0.9357123970985413,0.004103592596948147,-0.11946012079715729,-0.3318779766559601
427.0,0.0,0.0,0.0,0.0,0.0,0.0,-0.0877305418252945,0.09073249250650406,0.08703107386827469,0.9369131326675415,-0.0016204393468797207,-0.12376955151557922,-0.3269074261188507
428.0,0.0,0.0,0.0,0.0,0.0,0.0,-0.1709296554327011,0.35290661454200745,0.37650859355926514,0.9369301199913025,-0.010836438275873661,-0.13143809139728546,-0.32365238666534424
429.0,0.0,0.0,0.0,0.0,0.0,0.0,-0.14347143471240997,0.08238978683948517,0.09112575650215149,0.9367511868476868,-0.016038483008742332,-0.1350126713514328,-0.3224771320819855
430.0,0.0,0.0,0.0,0.0,0.0,0.0,-0.12779106199741364,0.09817381203174591,0.09949155896902084,0.9355887770652771,-0.0195511132478714,-0.13920408487319946,-0.3238925039768219
431.0,0.0,0.0,0.0,0.0,0.0,0.0,-0.11414779722690582,0.09784763306379318,0.06704998016357422,0.9340086579322815,-0.022844498977065086,-0.14098192751407623,-0.32742437720298767
432.0,0.0,0.0,0.0,0.0,0.0,0.0,-0.09039092808961868,0.03756709396839142,0.03847971558570862,0.9325243234634399,-0.028527354821562767,-0.1410442292690277,-0.33116844296455383
433.0,0.0,0.0,0.0,0.0,0.0,0.0,-0.05338471755385399,-0.02184913121163845,0.029649285599589348,0.9317866563796997,-0.03377927467226982,-0.13935869932174683,-0.3334580063819885
434.0,0.0,0.0,0.0,0.0,0.0,0.0,-0.027339927852153778,-0.050488606095314026,-0.004458979237824678,0.931140124797821,-0.03779694810509682,-0.1376604586839676,-0.33554771542549133
435.0,0.0,0.0,0.0,0.0,0.0,0.0,-0.04544122517108917,0.005942231044173241,0.003322000615298748,0.9304477572441101,-0.04080805554986,-0.1358756721019745,-0.33782508969306946
436.0,0.0,0.0,0.0,0.0,0.0,0.0,0.00021287304116412997,-0.062604159116745,-0.05038553103804588,0.930179238319397,-0.041700586676597595,-0.13367998600006104,-0.3393474221229553
437.0,0.0,0.0,0.0,0.0,0.0,0.0,-0.0003139852196909487,-0.038923751562833786,-0.04710228741168976,0.9300121068954468,-0.042352527379989624,-0.13249456882476807,-0.34015005826950073
438.0,0.0,0.0,0.0,0.0,0.0,0.0,0.004917837213724852,-0.021347347646951675,-0.023299509659409523,0.929887592792511,-0.042293064296245575,-0.13082808256149292,-0.3411656618118286
439.0,0.0,0.0,0.0,0.0,0.0,0.0,0.005187374074012041,-0.022217849269509315,-0.03008154407143593,0.9305111169815063,-0.04194138944149017,-0.12811850011348724,-0.34051114320755005
440.0,0.0,0.0,0.0,0.0,0.0,0.0,-0.010677906684577465,-0.004078862257301807,-0.015395907685160637,0.9312829375267029,-0.04169390723109245,-0.12539508938789368,-0.3394661247730255
441.0,0.0,0.0,0.0,0.0,0.0,0.0,-0.031744249165058136,0.0004208719765301794,-0.007102700415998697,0.9315898418426514,-0.04161171242594719,-0.12223730236291885,-0.3397698700428009
442.0,0.0,0.0,0.0,0.0,0.0,0.0,-0.03670009598135948,-0.007345131598412991,0.006694115232676268,0.931599497795105,-0.041785016655921936,-0.1189962849020958,-0.34089037775993347
443.0,0.0,0.0,0.0,0.0,0.0,0.0,-0.07598605751991272,0.006927207112312317,0.019082440063357353,0.9311224818229675,-0.043270405381917953,-0.11659330129623413,-0.3428336977958679
444.0,0.0,0.0,0.0,0.0,0.0,0.0,-0.08823639154434204,0.01239712629467249,0.03317027911543846,0.9303690195083618,-0.04484674707055092,-0.11440908908843994,-0.3453961908817291
445.0,0.0,0.0,0.0,0.0,0.0,0.0,-0.0860200896859169,0.0318281389772892,0.03887512907385826,0.9298179149627686,-0.04625406488776207,-0.1118677407503128,-0.3475106358528137
446.0,0.0,0.0,0.0,0.0,0.0,0.0,-0.06822307407855988,0.040140438824892044,0.016570037230849266,0.9294220805168152,-0.0470627099275589,-0.10921566933393478,-0.3492867946624756
447.0,0.0,0.0,0.0,0.0,0.0,0.0,-0.04766856133937836,0.06679787486791611,0.027715658769011497,0.9290282726287842,-0.04708256945014,-0.10886363685131073,-0.3504709303379059
448.0,0.0,0.0,0.0,0.0,0.0,0.0,-0.013742173090577126,0.08250182121992111,0.06362446397542953,0.9289771318435669,-0.045697662979364395,-0.10802794247865677,-0.35104894638061523
449.0,0.0,0.0,0.0,0.0,0.0,0.0,-0.05195267125964165,0.08053566515445709,0.12549053132534027,0.9290679097175598,-0.04485084488987923,-0.10438135266304016,-0.35202816128730774
450.0,0.0,0.0,0.0,0.0,0.0,0.0,-0.004208013880997896,0.1228155791759491,0.10533598065376282,0.9303717017173767,-0.04138386249542236,-0.09577612578868866,-0.35142961144447327
451.0,0.0,0.0,0.0,0.0,0.0,0.0,0.05162280052900314,0.028025800362229347,-0.01558417547494173,0.9311284422874451,-0.03710925951600075,-0.08742377907037735,-0.35209327936172485
452.0,0.0,0.0,0.0,0.0,0.0,0.0,0.041844140738248825,-0.05214332044124603,-0.04508711025118828,0.9312641620635986,-0.03580351546406746,-0.0843157172203064,-0.35260334610939026
453.0,0.0,0.0,0.0,0.0,0.0,0.0,0.09854689985513687,-0.11370228230953217,-0.18371464312076569,0.9317089319229126,-0.03357178717851639,-0.0861297994852066,-0.3512398898601532
454.0,0.0,0.0,0.0,0.0,0.0,0.0,0.1168794184923172,-0.13015364110469818,-0.12476956099271774,0.9318726658821106,-0.030171938240528107,-0.0854688212275505,-0.35124531388282776
455.0,0.0,0.0,0.0,0.0,0.0,0.0,0.08627325296401978,-0.10137368738651276,-0.04083014279603958,0.9317200183868408,-0.02548970840871334,-0.08330493420362473,-0.3525618314743042
456.0,0.0,0.0,0.0,0.0,0.0,0.0,0.1016203984618187,-0.14267125725746155,-0.09883109480142593,0.9319140315055847,-0.020935988053679466,-0.08249848335981369,-0.35254472494125366
457.0,0.0,0.0,0.0,0.0,0.0,0.0,0.04736848175525665,-0.11203280836343765,-0.08462443947792053,0.9312958121299744,-0.020594634115695953,-0.0826273113489151,-0.35415220260620117
458.0,0.0,0.0,0.0,0.0,0.0,0.0,-0.09582199901342392,0.0067635392770171165,0.130951389670372,0.9296879172325134,-0.025282355025410652,-0.08229009062051773,-0.3581242561340332
459.0,0.0,0.0,0.0,0.0,0.0,0.0,-0.13193866610527039,0.04338551685214043,0.12607598304748535,0.9280936121940613,-0.02971765212714672,-0.07967199385166168,-0.3625030815601349
460.0,0.0,0.0,0.0,0.0,0.0,0.0,-0.12960956990718842,0.11154278367757797,0.10970164835453033,0.9278892278671265,-0.03116648644208908,-0.07593920826911926,-0.36367562413215637
461.0,0.0,0.0,0.0,0.0,0.0,0.0,-0.10337073355913162,0.08126681298017502,0.0874539241194725,0.9279708862304688,-0.03114279918372631,-0.07174154371023178,-0.36431005597114563
462.0,0.0,0.0,0.0,0.0,0.0,0.0,-0.07290520519018173,0.05331149324774742,0.07848585397005081,0.927682101726532,-0.029665226116776466,-0.06727513670921326,-0.3660304844379425
463.0,0.0,0.0,0.0,0.0,0.0,0.0,-0.05334986746311188,0.029921764507889748,0.08651739358901978,0.9268985390663147,-0.02665334939956665,-0.060966890305280685,-0.3693525791168213
464.0,0.0,0.0,0.0,0.0,0.0,0.0,-0.013334264978766441,0.02418595924973488,0.1030348613858223,0.9261589646339417,-0.02219913713634014,-0.05202685296535492,-0.3728392422199249
465.0,0.0,0.0,0.0,0.0,0.0,0.0,-0.006040966138243675,-0.001960932044312358,0.11598415672779083,0.925260603427887,-0.01788698323071003,-0.04082309827208519,-0.37668731808662415
466.0,0.0,0.0,0.0,0.0,0.0,0.0,0.0599747933447361,-0.13768978416919708,0.03767348825931549,0.9249711036682129,-0.0147972097620368,-0.029219746589660645,-0.378596693277359
467.0,0.0,0.0,0.0,0.0,0.0,0.0,0.1439243108034134,-0.20861677825450897,-0.032880716025829315,0.9257505536079407,-0.006953820586204529,-0.018148260191082954,-0.3776121735572815
468.0,0.0,0.0,0.0,0.0,0.0,0.0,0.0760965347290039,-0.12605011463165283,-0.08698661625385284,0.9254657030105591,0.002800642978399992,-0.007112199906259775,-0.3787255585193634
469.0,0.0,0.0,0.0,0.0,0.0,0.0,0.044350478798151016,-0.03653021156787872,-0.02098098397254944,0.9250564575195312,0.009013252332806587,0.0012223974335938692,-0.3796861171722412
470.0,0.0,0.0,0.0,0.0,0.0,0.0,-0.0027954683173447847,0.018131759017705917,0.05839456990361214,0.9243602156639099,0.013707755133509636,0.00820937380194664,-0.3811732828617096
471.0,0.0,0.0,0.0,0.0,0.0,0.0,-0.051438186317682266,0.006582071539014578,0.05682915076613426,0.9234523773193359,0.015950219705700874,0.013838864862918854,-0.3831280469894409
472.0,0.0,0.0,0.0,0.0,0.0,0.0,-0.053753919899463654,0.022114885970950127,0.061907242983579636,0.9220690131187439,0.015532763674855232,0.017338667064905167,-0.3863130807876587
473.0,0.0,0.0,0.0,0.0,0.0,0.0,-0.01356280967593193,-0.04364597424864769,0.008071055635809898,0.9203223586082458,0.012689771130681038,0.018506307154893875,-0.39048540592193604
474.0,0.0,0.0,0.0,0.0,0.0,0.0,0.05591287091374397,-0.10772326588630676,-0.03554459288716316,0.918755292892456,0.008910933509469032,0.01567407138645649,-0.39440616965293884
475.0,0.0,0.0,0.0,0.0,0.0,0.0,-0.008226722478866577,-0.016365233808755875,0.008624965324997902,0.9170743227005005,0.004174820147454739,0.011168010532855988,-0.39851242303848267
476.0,0.0,0.0,0.0,0.0,0.0,0.0,-0.04762924462556839,0.029140010476112366,0.02696678787469864,0.9149077534675598,-0.0012515874113887548,0.006482203025370836,-0.4035941958427429
477.0,0.0,0.0,0.0,0.0,0.0,0.0,-0.04542990401387215,-0.001084935269318521,0.026581143960356712,0.9126062393188477,-0.006020514760166407,0.0006655801553279161,-0.4087705910205841
478.0,0.0,0.0,0.0,0.0,0.0,0.0,-0.025416873395442963,-0.030147003009915352,0.02362673357129097,0.9103144407272339,-0.009930185973644257,-0.004518701694905758,-0.4137512147426605
479.0,0.0,0.0,0.0,0.0,0.0,0.0,-0.003843346843495965,-0.02863314375281334,0.010099155828356743,0.9088453650474548,-0.01241089217364788,-0.008912474848330021,-0.4168386161327362
480.0,0.0,0.0,0.0,0.0,0.0,0.0,0.0022410303354263306,-0.039970673620700836,0.02366662584245205,0.9077832698822021,-0.014859442599117756,-0.013164583593606949,-0.4189378321170807
481.0,0.0,0.0,0.0,0.0,0.0,0.0,0.00579443946480751,-0.020074790343642235,0.028643984347581863,0.9069141745567322,-0.01700476184487343,-0.017290448769927025,-0.4206041395664215
482.0,0.0,0.0,0.0,0.0,0.0,0.0,0.019202636554837227,-0.027585910633206367,0.024620261043310165,0.9063253402709961,-0.018928663805127144,-0.021675610914826393,-0.42159080505371094
483.0,0.0,0.0,0.0,0.0,0.0,0.0,0.035916466265916824,-0.03947807103395462,0.010417432524263859,0.9059186577796936,-0.02081870287656784,-0.026045164093375206,-0.4221157431602478
484.0,0.0,0.0,0.0,0.0,0.0,0.0,0.032835010439157486,-0.021129034459590912,0.008665120229125023,0.9058555960655212,-0.02247074618935585,-0.029376821592450142,-0.421952486038208
485.0,0.0,0.0,0.0,0.0,0.0,0.0,0.021747218444943428,0.011410427279770374,0.010781553573906422,0.9059390425682068,-0.024395238608121872,-0.032061271369457245,-0.42144766449928284
486.0,0.0,0.0,0.0,0.0,0.0,0.0,0.007023612968623638,-0.00013305085303727537,0.0015160293551161885,0.9058784246444702,-0.02616422437131405,-0.03391777351498604,-0.42135757207870483
487.0,0.0,0.0,0.0,0.0,0.0,0.0,0.0072423373349010944,-0.01171527523547411,-0.001166284317150712,0.906146764755249,-0.0269957073032856,-0.035023897886276245,-0.4206133186817169
488.0,0.0,0.0,0.0,0.0,0.0,0.0,0.02660362236201763,-0.04883458465337753,-0.013315534219145775,0.9065601825714111,-0.02581367827951908,-0.03523050248622894,-0.41978293657302856
489.0,0.0,0.0,0.0,0.0,0.0,0.0,0.05637374892830849,-0.10396727919578552,-0.04533102735877037,0.9073145985603333,-0.021207701414823532,-0.03480033576488495,-0.41845908761024475
490.0,0.0,0.0,0.0,0.0,0.0,0.0,0.03401312232017517,-0.10482576489448547,-0.0726192444562912,0.9079811573028564,-0.017847588285803795,-0.03484402596950531,-0.41715434193611145
491.0,0.0,0.0,0.0,0.0,0.0,0.0,-0.002882301341742277,-0.03991208225488663,-0.04397045820951462,0.9089317321777344,-0.021007416769862175,-0.04062795639038086,-0.41441911458969116
492.0,0.0,0.0,0.0,0.0,0.0,0.0,-0.03727640211582184,0.08521120250225067,0.07315676659345627,0.9102083444595337,-0.026064742356538773,-0.0482976958155632,-0.41046997904777527
493.0,0.0,0.0,0.0,0.0,0.0,0.0,-0.04966231808066368,0.12888170778751373,0.08950769901275635,0.9110509157180786,-0.030799848958849907,-0.05365850776433945,-0.40759727358818054
494.0,0.0,0.0,0.0,0.0,0.0,0.0,-0.018585262820124626,0.0736895427107811,0.048772115260362625,0.9113765954971313,-0.03324702009558678,-0.05761044844985008,-0.4061211049556732
495.0,0.0,0.0,0.0,0.0,0.0,0.0,-0.01454010047018528,0.06600624322891235,0.051616087555885315,0.9109178781509399,-0.03526806831359863,-0.060573264956474304,-0.4065721035003662
496.0,0.0,0.0,0.0,0.0,0.0,0.0,-0.02620391733944416,0.04100419953465462,0.035709913820028305,0.9101488590240479,-0.037864938378334045,-0.06244897097349167,-0.4077741503715515
497.0,0.0,0.0,0.0,0.0,0.0,0.0,-0.038484394550323486,0.04642857611179352,0.03965502604842186,0.9096457362174988,-0.04061441868543625,-0.06327235698699951,-0.40849170088768005
498.0,0.0,0.0,0.0,0.0,0.0,0.0,-0.022082867100834846,0.06670316308736801,0.037760958075523376,0.9099380373954773,-0.042811110615730286,-0.06230295076966286,-0.40778666734695435
499.0,0.0,0.0,0.0,0.0,0.0,0.0,0.016878319904208183,0.05909442529082298,0.02097933739423752,0.9108335375785828,-0.043506182730197906,-0.06064309924840927,-0.40595605969429016
500.0,0.0,0.0,0.0,0.0,0.0,0.0,0.04677777737379074,0.02720324695110321,-0.004852397833019495,0.9117883443832397,-0.04310218244791031,-0.058457665145397186,-0.404152512550354
501.0,0.0,0.0,0.0,0.0,0.0,0.0,0.03550585359334946,0.04344838485121727,0.00038847982068546116,0.912355363368988,-0.041943930089473724,-0.05657876655459404,-0.40327689051628113
502.0,0.0,0.0,0.0,0.0,0.0,0.0,0.03966667130589485,0.023485921323299408,0.02369609847664833,0.9130762815475464,-0.04038054123520851,-0.054100025445222855,-0.4021221995353699
503.0,0.0,0.0,0.0,0.0,0.0,0.0,0.06010764092206955,-0.010525631718337536,-0.004031848628073931,0.9137651920318604,-0.03865567222237587,-0.052077766507864,-0.40100497007369995
504.0,0.0,0.0,0.0,0.0,0.0,0.0,0.03706459701061249,-0.014067819342017174,-0.024411611258983612,0.9143299460411072,-0.03775149956345558,-0.050511397421360016,-0.4000072181224823
505.0,0.0,0.0,0.0,0.0,0.0,0.0,0.01916046254336834,0.0015990404644981027,-0.014010746031999588,0.9148728847503662,-0.037169165909290314,-0.048685524612665176,-0.39904671907424927
506.0,0.0,0.0,0.0,0.0,0.0,0.0,0.04709392040967941,-0.024406258016824722,0.001102569280192256,0.9162681698799133,-0.03642788529396057,-0.046824075281620026,-0.39613401889801025
507.0,0.0,0.0,0.0,0.0,0.0,0.0,0.06036637723445892,-0.04400395601987839,0.01112193614244461,0.9166502952575684,-0.03428754583001137,-0.0465121753513813,-0.3954515755176544
508.0,0.0,0.0,0.0,0.0,0.0,0.0,0.06280579417943954,-0.06369183957576752,0.005556509364396334,0.9169753789901733,-0.03189186006784439,-0.047050848603248596,-0.3948497772216797
509.0,0.0,0.0,0.0,0.0,0.0,0.0,0.14038555324077606,-0.13739220798015594,-0.030357377603650093,0.9174550771713257,-0.028527280315756798,-0.04962899163365364,-0.3936800956726074
510.0,0.0,0.0,0.0,0.0,0.0,0.0,0.1673177182674408,-0.19982391595840454,-0.1012587919831276,0.9178240895271301,-0.024972472339868546,-0.054467760026454926,-0.39241015911102295
511.0,0.0,0.0,0.0,0.0,0.0,0.0,0.14429977536201477,-0.14320440590381622,-0.13100962340831757,0.9182736277580261,-0.023538310080766678,-0.06121714785695076,-0.390463650226593
512.0,0.0,0.0,0.0,0.0,0.0,0.0,-0.015572206117212772,0.07428278028964996,0.012928934767842293,0.9177755117416382,-0.025973180308938026,-0.0679662674665451,-0.39035195112228394
513.0,0.0,0.0,0.0,0.0,0.0,0.0,-0.12462563812732697,0.17479947209358215,0.11721096187829971,0.9176424145698547,-0.027235182002186775,-0.06996264308691025,-0.3902406096458435
514.0,0.0,0.0,0.0,0.0,0.0,0.0,-0.07020287960767746,0.1225370317697525,0.07759644836187363,0.9179527163505554,-0.02506881207227707,-0.06992706656455994,-0.3896488547325134
515.0,0.0,0.0,0.0,0.0,0.0,0.0,-0.051521435379981995,0.11792133003473282,0.0711471289396286,0.9176276922225952,-0.021813977509737015,-0.07046139985322952,-0.39052292704582214
516.0,0.0,0.0,0.0,0.0,0.0,0.0,-0.034128587692976,0.08268560469150543,0.03762349858880043,0.9170677661895752,-0.01908142678439617,-0.07105691730976105,-0.39187556505203247
517.0,0.0,0.0,0.0,0.0,0.0,0.0,-0.02272156812250614,0.08105482906103134,0.05584297329187393,0.9170225262641907,-0.01605582982301712,-0.07151880860328674,-0.392027348279953
518.0,0.0,0.0,0.0,0.0,0.0,0.0,-0.005422151647508144,0.05516386032104492,0.055316075682640076,0.9175837635993958,-0.012874821200966835,-0.07129239290952682,-0.3908366858959198
519.0,0.0,0.0,0.0,0.0,0.0,0.0,-0.04616288095712662,0.10194820165634155,0.10567543655633926,0.9176581501960754,-0.00948895700275898,-0.06866674870252609,-0.3912579119205475
520.0,0.0,0.0,0.0,0.0,0.0,0.0,-0.02645089477300644,0.12187153846025467,0.16812190413475037,0.9176860451698303,-0.004221615381538868,-0.06176992505788803,-0.3924468457698822
521.0,0.0,0.0,0.0,0.0,0.0,0.0,0.024369755759835243,0.05152473226189613,0.14982344210147858,0.9175805449485779,0.0033072761725634336,-0.05019444227218628,-0.3943336606025696
522.0,0.0,0.0,0.0,0.0,0.0,0.0,0.03518858924508095,-0.032571908086538315,0.09592834115028381,0.9170756340026855,0.010208914056420326,-0.037197407335042953,-0.39681801199913025
523.0,0.0,0.0,0.0,0.0,0.0,0.0,0.06995825469493866,-0.1097455695271492,-0.016185393556952477,0.9162724614143372,0.014225284568965435,-0.025110140442848206,-0.39948543906211853
524.0,0.0,0.0,0.0,0.0,0.0,0.0,0.05149942263960838,-0.17309920489788055,-0.16322597861289978,0.9155089855194092,0.012450256384909153,-0.016253529116511345,-0.40175965428352356
525.0,0.0,0.0,0.0,0.0,0.0,0.0,0.048272255808115005,-0.16491574048995972,-0.06565774232149124,0.9163874983787537,0.007223526481539011,-0.011167176999151707,-0.4000462591648102
526.0,0.0,0.0,0.0,0.0,0.0,0.0,0.01951887644827366,-0.09783349931240082,0.03943696245551109,0.9171147346496582,0.003501024330034852,-0.009043431840837002,-0.3984743058681488
527.0,0.0,0.0,0.0,0.0,0.0,0.0,0.04332568123936653,-0.09656215459108353,-0.0034473449923098087,0.9175490140914917,0.0014398975763469934,-0.009847067296504974,-0.39747244119644165
528.0,0.0,0.0,0.0,0.0,0.0,0.0,0.1071808785200119,-0.12777899205684662,0.03512214496731758,0.9183213114738464,-0.001148075214587152,-0.013984120450913906,-0.39556512236595154
529.0,0.0,0.0,0.0,0.0,0.0,0.0,0.11027204245328903,-0.10096576064825058,-0.003122796071693301,0.9186485409736633,-0.0029108982998877764,-0.01915190927684307,-0.3945868909358978
530.0,0.0,0.0,0.0,0.0,0.0,0.0,0.01745370402932167,0.00258666486479342,0.02201365865767002,0.9183344841003418,-0.0058695063926279545,-0.020639443770051003,-0.39521533250808716
531.0,0.0,0.0,0.0,0.0,0.0,0.0,-0.030988456681370735,-0.022096507251262665,0.0287939365953207,0.9177190065383911,-0.010783642530441284,-0.021717717871069908,-0.3964572846889496
532.0,0.0,0.0,0.0,0.0,0.0,0.0,0.005686353426426649,-0.047546323388814926,0.011685201898217201,0.9173645377159119,-0.014037328772246838,-0.023330992087721825,-0.3970840871334076
533.0,0.0,0.0,0.0,0.0,0.0,0.0,0.0169404074549675,-0.008421596139669418,0.034851036965847015,0.9177001714706421,-0.01677442155778408,-0.02352762222290039,-0.39618590474128723
534.0,0.0,0.0,0.0,0.0,0.0,0.0,0.009821920655667782,0.006413599476218224,0.05240742489695549,0.9180366396903992,-0.018415609374642372,-0.02213236503303051,-0.3954212963581085
535.0,0.0,0.0,0.0,0.0,0.0,0.0,0.03481427952647209,-0.023623302578926086,-0.0013388952938839793,0.9180769920349121,-0.01880643330514431,-0.020566416904330254,-0.3953959047794342
536.0,0.0,0.0,0.0,0.0,0.0,0.0,0.05899675190448761,-0.02771168015897274,-0.02598421834409237,0.9180961847305298,-0.017881041392683983,-0.019874615594744682,-0.39543020725250244
537.0,0.0,0.0,0.0,0.0,0.0,0.0,0.054601866751909256,-0.05987482890486717,-0.037421755492687225,0.9175734519958496,-0.016747627407312393,-0.019043738022446632,-0.3967365622520447
538.0,0.0,0.0,0.0,0.0,0.0,0.0,0.0829298198223114,-0.14573509991168976,-0.08554311841726303,0.9175402522087097,-0.013818885199725628,-0.018360067158937454,-0.396965354681015
539.0,0.0,0.0,0.0,0.0,0.0,0.0,0.0884360671043396,-0.166457399725914,-0.11036229878664017,0.9175867438316345,-0.008489699102938175,-0.018748916685581207,-0.39697879552841187
540.0,0.0,0.0,0.0,0.0,0.0,0.0,-0.02298072911798954,-0.07594584673643112,-0.05738792195916176,0.9165248870849609,-0.006606294773519039,-0.023363301530480385,-0.39923882484436035
541.0,0.0,0.0,0.0,0.0,0.0,0.0,-0.09374505281448364,0.050732966512441635,0.03921506553888321,0.9158220291137695,-0.01005786657333374,-0.03130566328763962,-0.40021562576293945
542.0,0.0,0.0,0.0,0.0,0.0,0.0,-0.0792161151766777,0.12244205921888351,0.12359878420829773,0.9158868193626404,-0.015296554192900658,-0.036892227828502655,-0.39943018555641174
543.0,0.0,0.0,0.0,0.0,0.0,0.0,-0.15104597806930542,0.2183220535516739,0.14933067560195923,0.9158256649971008,-0.01947396621108055,-0.0398145392537117,-0.39910244941711426
544.0,0.0,0.0,0.0,0.0,0.0,0.0,-0.1892375349998474,0.25182655453681946,0.11255690455436707,0.9161271452903748,-0.02070985548198223,-0.039604220539331436,-0.3983612358570099
545.0,0.0,0.0,0.0,0.0,0.0,0.0,-0.12193472683429718,0.2036309540271759,0.08026082068681717,0.9171269536018372,-0.019969183951616287,-0.037975236773490906,-0.39626795053482056
546.0,0.0,0.0,0.0,0.0,0.0,0.0,-0.02273448370397091,0.04390154778957367,0.009254425764083862,0.9177820086479187,-0.018377242609858513,-0.03734951466321945,-0.39487171173095703
547.0,0.0,0.0,0.0,0.0,0.0,0.0,-0.03039461001753807,0.028420358896255493,0.03236711770296097,0.9180995225906372,-0.019430680200457573,-0.038662347942590714,-0.3939676880836487
548.0,0.0,0.0,0.0,0.0,0.0,0.0,-0.015394591726362705,0.039074819535017014,0.08209246397018433,0.9206143021583557,-0.02128199115395546,-0.03749918192625046,-0.38805752992630005
549.0,0.0,0.0,0.0,0.0,0.0,0.0,0.05499111860990524,0.030493730679154396,0.01345140766352415,0.9238168597221375,-0.018146514892578125,-0.036296673119068146,-0.380676805973053
550.0,0.0,0.0,0.0,0.0,0.0,0.0,0.13214640319347382,-0.06310199201107025,-0.13266120851039886,0.9240239858627319,-0.00866679660975933,-0.04469810798764229,-0.3796045482158661
551.0,0.0,0.0,0.0,0.0,0.0,0.0,0.19543993473052979,-0.20943914353847504,-0.03907162323594093,0.9231734871864319,-0.0017551395576447248,-0.055259231477975845,-0.380367636680603
552.0,0.0,0.0,0.0,0.0,0.0,0.0,0.1919764280319214,-0.21196748316287994,-0.06173023208975792,0.9237802028656006,0.0024925442412495613,-0.05961202085018158,-0.37821298837661743
553.0,0.0,0.0,0.0,0.0,0.0,0.0,0.3366861641407013,-0.3585045039653778,-0.19473309814929962,0.9247403144836426,0.010185664519667625,-0.06163293868303299,-0.3754027485847473
554.0,0.0,0.0,0.0,0.0,0.0,0.0,0.40474849939346313,-0.34917300939559937,-0.19357526302337646,0.92652827501297,0.019560707733035088,-0.05065848305821419,-0.3722671568393707
555.0,0.0,0.0,0.0,0.0,0.0,0.0,0.18424265086650848,-0.12219075858592987,-0.19678981602191925,0.9259222745895386,0.019235633313655853,-0.034856345504522324,-0.3755839765071869
556.0,0.0,0.0,0.0,0.0,0.0,0.0,-0.0889146625995636,0.10539491474628448,0.12193942070007324,0.9209890961647034,0.007006896194070578,-0.03976104408502579,-0.3874724805355072
557.0,0.0,0.0,0.0,0.0,0.0,0.0,-0.4017580449581146,0.35633012652397156,0.4067087471485138,0.9156193733215332,0.00544365867972374,-0.046346742659807205,-0.39930978417396545
558.0,0.0,0.0,0.0,0.0,0.0,0.0,-0.24321356415748596,0.14231622219085693,0.15449082851409912,0.9118039011955261,0.009117573499679565,-0.047125156968832016,-0.40778183937072754
559.0,0.0,0.0,0.0,0.0,0.0,0.0,-0.14192163944244385,0.056020207703113556,0.10805460065603256,0.9099893569946289,0.008625001646578312,-0.04712461307644844,-0.41181838512420654
560.0,0.0,0.0,0.0,0.0,0.0,0.0,-0.109849713742733,0.11632369458675385,0.08561111241579056,0.9094123840332031,0.009083989076316357,-0.04614800214767456,-0.41321107745170593
561.0,0.0,0.0,0.0,0.0,0.0,0.0,0.01652342639863491,0.023508748039603233,0.020314155146479607,0.9090865850448608,0.009779645130038261,-0.04653742536902428,-0.41385766863822937
562.0,0.0,0.0,0.0,0.0,0.0,0.0,0.08737605065107346,-0.06109706684947014,-0.05983575060963631,0.9097663164138794,0.006970018148422241,-0.04933435469865799,-0.4120965301990509
563.0,0.0,0.0,0.0,0.0,0.0,0.0,0.07035195082426071,0.0035977254156023264,-0.04464302584528923,0.9111433625221252,0.0016903374344110489,-0.05277707800269127,-0.4086816608905792
564.0,0.0,0.0,0.0,0.0,0.0,0.0,0.06023438274860382,-0.02005612850189209,-0.01239651720970869,0.9121111035346985,-0.0011929613538086414,-0.05464469641447067,-0.4062570631504059
565.0,0.0,0.0,0.0,0.0,0.0,0.0,0.06047618389129639,-0.020323432981967926,-0.017353074625134468,0.911898136138916,-0.001976011088117957,-0.05609671398997307,-0.40653926134109497
566.0,0.0,0.0,0.0,0.0,0.0,0.0,0.06518425047397614,-0.018439676612615585,-0.008831197395920753,0.9116846323013306,-0.0025804403703659773,-0.0576026514172554,-0.4068036377429962
567.0,0.0,0.0,0.0,0.0,0.0,0.0,0.09956672787666321,-0.052041541785001755,-0.025924408808350563,0.9116963744163513,-0.003206294495612383,-0.06073363125324249,-0.406333327293396
568.0,0.0,0.0,0.0,0.0,0.0,0.0,0.11841089278459549,-0.03036639280617237,0.015662912279367447,0.9116685390472412,-0.003641233080998063,-0.06588657945394516,-0.40558144450187683
569.0,0.0,0.0,0.0,0.0,0.0,0.0,-0.05346151813864708,0.1133500337600708,0.1068517342209816,0.9106491804122925,-0.007790409494191408,-0.07111222296953201,-0.40693363547325134
570.0,0.0,0.0,0.0,0.0,0.0,0.0,-0.06705649942159653,0.10159503668546677,0.019854098558425903,0.9102255702018738,-0.014048016630113125,-0.07388046383857727,-0.40719449520111084
571.0,0.0,0.0,0.0,0.0,0.0,0.0,-0.03637273237109184,0.06697958707809448,0.008647681213915348,0.9100205302238464,-0.017180372029542923,-0.07668142765760422,-0.40703171491622925
572.0,0.0,0.0,0.0,0.0,0.0,0.0,-0.07129756361246109,0.12182576209306717,0.024859989061951637,0.9093499183654785,-0.017450697720050812,-0.07899460196495056,-0.4080674946308136
573.0,0.0,0.0,0.0,0.0,0.0,0.0,-0.07982638478279114,0.13782981038093567,0.04705842211842537,0.9094537496566772,-0.01772300712764263,-0.0793241411447525,-0.40778088569641113
574.0,0.0,0.0,0.0,0.0,0.0,0.0,-0.024052245542407036,0.07640282809734344,0.01671752706170082,0.910373866558075,-0.018153265118598938,-0.07799927890300751,-0.40594133734703064
575.0,0.0,0.0,0.0,0.0,0.0,0.0,0.027432601898908615,0.01598137803375721,-0.015850430354475975,0.9111431241035461,-0.017707739025354385,-0.07610063999891281,-0.4045722186565399
576.0,0.0,0.0,0.0,0.0,0.0,0.0,0.03223559260368347,0.007786770351231098,-0.0034576382022351027,0.9116662740707397,-0.016677094623446465,-0.07397595793008804,-0.40385672450065613
577.0,0.0,0.0,0.0,0.0,0.0,0.0,0.0432480163872242,-0.015124681405723095,-0.006271849386394024,0.9120308756828308,-0.016240784898400307,-0.07146350294351578,-0.4034791886806488
578.0,0.0,0.0,0.0,0.0,0.0,0.0,0.043260399252176285,-0.01506779994815588,0.014317139983177185,0.9122997522354126,-0.016318148002028465,-0.06938140094280243,-0.4032495617866516
579.0,0.0,0.0,0.0,0.0,0.0,0.0,0.049980346113443375,-0.02156294882297516,0.002179953036829829,0.9129791855812073,-0.015614879317581654,-0.06743504106998444,-0.4020680785179138
580.0,0.0,0.0,0.0,0.0,0.0,0.0,0.05753094702959061,-0.0409424789249897,-0.008386441506445408,0.913805365562439,-0.015952246263623238,-0.06612828373908997,-0.4003768265247345
581.0,0.0,0.0,0.0,0.0,0.0,0.0,0.03994368389248848,-0.023912686854600906,0.027969863265752792,0.9142971038818359,-0.016654299572110176,-0.06528209894895554,-0.39937466382980347
582.0,0.0,0.0,0.0,0.0,0.0,0.0,0.05952857807278633,-0.03664594143629074,0.027957186102867126,0.9143272638320923,-0.015532802790403366,-0.06526356190443039,-0.39935049414634705
583.0,0.0,0.0,0.0,0.0,0.0,0.0,0.02662762440741062,0.013296366669237614,0.011295629665255547,0.9141346216201782,-0.014711681753396988,-0.06536781787872314,-0.3998078405857086
584.0,0.0,0.0,0.0,0.0,0.0,0.0,0.02129780873656273,-0.00652707926928997,0.002583900233730674,0.9144073128700256,-0.01501534879207611,-0.0653354600071907,-0.3991895318031311
585.0,0.0,0.0,0.0,0.0,0.0,0.0,0.015245535410940647,-0.016748780384659767,0.019456027075648308,0.9146538376808167,-0.01548109482973814,-0.06487535685300827,-0.39865973591804504
586.0,0.0,0.0,0.0,0.0,0.0,0.0,0.013890961185097694,0.0006920620799064636,0.02220078371465206,0.9147002100944519,-0.014944767579436302,-0.06394726037979126,-0.39875316619873047
587.0,0.0,0.0,0.0,0.0,0.0,0.0,0.042638540267944336,-0.006304552312940359,0.0014610225334763527,0.9148955345153809,-0.013660800643265247,-0.06338165700435638,-0.39840659499168396
588.0,0.0,0.0,0.0,0.0,0.0,0.0,0.05595523864030838,-0.03515412658452988,-0.007184982765465975,0.9149053692817688,-0.012125988490879536,-0.06419169902801514,-0.3983279764652252
589.0,0.0,0.0,0.0,0.0,0.0,0.0,0.0727284774184227,-0.09277960658073425,-0.033452946692705154,0.9150761961936951,-0.01045032124966383,-0.06538644433021545,-0.39776766300201416
590.0,0.0,0.0,0.0,0.0,0.0,0.0,0.11719314008951187,-0.14278484880924225,-0.09093131124973297,0.9151184558868408,-0.00974871776998043,-0.06815514713525772,-0.3972572982311249
591.0,0.0,0.0,0.0,0.0,0.0,0.0,0.15241877734661102,-0.06770090758800507,-0.07791706174612045,0.9150800704956055,-0.008567329496145248,-0.07308990508317947,-0.396481990814209
592.0,0.0,0.0,0.0,0.0,0.0,0.0,0.0445038303732872,0.029062850400805473,-0.00791277177631855,0.9141795635223389,-0.01015577744692564,-0.0776967778801918,-0.39764222502708435
593.0,0.0,0.0,0.0,0.0,0.0,0.0,-0.07636264711618423,0.1268768161535263,0.07407945394515991,0.913093090057373,-0.012800471857190132,-0.08034451305866241,-0.3995487093925476
594.0,0.0,0.0,0.0,0.0,0.0,0.0,-0.08480887115001678,0.1753849983215332,0.07741238176822662,0.9123674631118774,-0.013874199241399765,-0.08127740770578384,-0.4009596109390259
595.0,0.0,0.0,0.0,0.0,0.0,0.0,-0.10081055015325546,0.19929099082946777,0.0832020714879036,0.9118882417678833,-0.013086162507534027,-0.08163464069366455,-0.40198612213134766
596.0,0.0,0.0,0.0,0.0,0.0,0.0,-0.07185320556163788,0.17851847410202026,0.10119006037712097,0.9118180274963379,-0.009459298104047775,-0.07924852520227432,-0.4027211368083954
597.0,0.0,0.0,0.0,0.0,0.0,0.0,-0.03944321349263191,0.12666530907154083,0.10999521613121033,0.9114680290222168,-0.0048627182841300964,-0.07355368137359619,-0.4046887159347534
598.0,0.0,0.0,0.0,0.0,0.0,0.0,-0.07985986769199371,0.13366389274597168,0.17430998384952545,0.9108178019523621,-0.002043333137407899,-0.06318702548742294,-0.4079313576221466
599.0,0.0,0.0,0.0,0.0,0.0,0.0,-0.008738466538488865,0.08952930569648743,0.18946029245853424,0.9105849266052246,0.0028100258205085993,-0.04764470085501671,-0.410539835691452
600.0,0.0,0.0,0.0,0.0,0.0,0.0,0.04906260967254639,-0.036970674991607666,0.10191933810710907,0.91014564037323,0.008801735006272793,-0.03001238778233528,-0.4130931794643402
601.0,0.0,0.0,0.0,0.0,0.0,0.0,0.06854879856109619,-0.12625201046466827,0.06002279371023178,0.9099379181861877,0.013971510343253613,-0.013772290199995041,-0.4142664670944214
602.0,0.0,0.0,0.0,0.0,0.0,0.0,0.08320903033018112,-0.27771610021591187,-0.10593702644109726,0.9112130403518677,0.01680019311606884,-0.00035301028401590884,-0.4115859568119049
603.0,0.0,0.0,0.0,0.0,0.0,0.0,0.15457527339458466,-0.1552548110485077,-0.17340213060379028,0.913109302520752,0.02228206768631935,0.004750792868435383,-0.40705153346061707
604.0,0.0,0.0,0.0,0.0,0.0,0.0,0.07454915344715118,-0.09991275519132614,0.018223654478788376,0.913394570350647,0.024494830518960953,0.00651596812531352,-0.4062453806400299
605.0,0.0,0.0,0.0,0.0,0.0,0.0,0.02810513973236084,-0.13725730776786804,-0.009152870625257492,0.9144169092178345,0.02230747789144516,0.006213442888110876,-0.40409135818481445
606.0,0.0,0.0,0.0,0.0,0.0,0.0,0.09811324626207352,-0.12266922742128372,-0.012176243588328362,0.9159658551216125,0.019460130482912064,0.0025664628483355045,-0.4007580578327179
607.0,0.0,0.0,0.0,0.0,0.0,0.0,0.1240636482834816,-0.13363829255104065,0.035187769681215286,0.9167556762695312,0.01617538183927536,-0.003882476594299078,-0.3990638554096222
608.0,0.0,0.0,0.0,0.0,0.0,0.0,0.01283483486622572,-0.037602681666612625,0.037315864115953445,0.9169529676437378,0.011064467020332813,-0.009285888634622097,-0.3987079858779907
609.0,0.0,0.0,0.0,0.0,0.0,0.0,-0.027524201199412346,0.0052453516982495785,0.04800906777381897,0.917151689529419,0.007602496072649956,-0.012509608641266823,-0.3982451856136322
610.0,0.0,0.0,0.0,0.0,0.0,0.0,0.012371192686259747,-0.027888858690857887,0.02826586179435253,0.9170588254928589,0.006015795283019543,-0.015020107850432396,-0.39838850498199463
611.0,0.0,0.0,0.0,0.0,0.0,0.0,0.005088749807327986,-0.061615001410245895,0.02478257194161415,0.9166454076766968,0.0036076281685382128,-0.01639276184141636,-0.3993164002895355
612.0,0.0,0.0,0.0,0.0,0.0,0.0,-0.0013413471169769764,-0.04444136470556259,0.052611060440540314,0.9164910316467285,0.0017886738060042262,-0.016397424042224884,-0.39971381425857544
613.0,0.0,0.0,0.0,0.0,0.0,0.0,0.027281014248728752,-0.049436379224061966,0.017879728227853775,0.9166645407676697,0.001441063592210412,-0.01625184156000614,-0.3992767333984375
614.0,0.0,0.0,0.0,0.0,0.0,0.0,0.06382537633180618,-0.0848473459482193,-0.017932724207639694,0.9168291687965393,0.0009576768497936428,-0.01756041683256626,-0.39886540174484253
615.0,0.0,0.0,0.0,0.0,0.0,0.0,0.1036575436592102,-0.11186406016349792,-0.04704194888472557,0.9169594645500183,0.00036898982943966985,-0.020654918625950813,-0.39842164516448975
616.0,0.0,0.0,0.0,0.0,0.0,0.0,0.12638790905475616,-0.19618068635463715,-0.10731440782546997,0.9166542887687683,-0.00214992999099195,-0.02566220797598362,-0.3988422155380249
617.0,0.0,0.0,0.0,0.0,0.0,0.0,0.13039043545722961,-0.19324138760566711,-0.12308385223150253,0.9159534573554993,-0.004398401826620102,-0.031415216624736786,-0.4000103175640106
618.0,0.0,0.0,0.0,0.0,0.0,0.0,-0.011342755518853664,0.049299776554107666,0.007649773731827736,0.9122775197029114,-0.002856395673006773,-0.03930876776576042,-0.407650351524353
619.0,0.0,0.0,0.0,0.0,0.0,0.0,-0.08821743726730347,0.0913710966706276,0.11830489337444305,0.9089099764823914,-0.008065051399171352,-0.048182595521211624,-0.4141015112400055
620.0,0.0,0.0,0.0,0.0,0.0,0.0,-0.16271370649337769,0.20645670592784882,0.20908305048942566,0.9069164395332336,-0.017214752733707428,-0.055772896856069565,-0.4172256290912628
621.0,0.0,0.0,0.0,0.0,0.0,0.0,-0.15343724191188812,0.2472013533115387,0.1346988081932068,0.9067649841308594,-0.023254860192537308,-0.05982673913240433,-0.41670212149620056
622.0,0.0,0.0,0.0,0.0,0.0,0.0,-0.13277946412563324,0.19706565141677856,0.06313501298427582,0.9071412086486816,-0.026959536597132683,-0.06524550169706345,-0.41481703519821167
623.0,0.0,0.0,0.0,0.0,0.0,0.0,-0.13834638893604279,0.22359517216682434,0.15532051026821136,0.9063163995742798,-0.02617616020143032,-0.07255806028842926,-0.41547155380249023
624.0,0.0,0.0,0.0,0.0,0.0,0.0,0.05889199674129486,0.014373433776199818,0.012075833976268768,0.9053303599357605,-0.023262592032551765,-0.07722235471010208,-0.4169524013996124
625.0,0.0,0.0,0.0,0.0,0.0,0.0,0.1531522423028946,-0.20698322355747223,-0.19398373365402222,0.9044341444969177,-0.023531191051006317,-0.08728598058223724,-0.4168998897075653
626.0,0.0,0.0,0.0,0.0,0.0,0.0,0.16275851428508759,-0.0526050366461277,-0.017937544733285904,0.9051039218902588,-0.02535620704293251,-0.09807314723730087,-0.4129399359226227
627.0,0.0,0.0,0.0,0.0,0.0,0.0,0.19374696910381317,-0.10165314376354218,-0.05201201140880585,0.9070260524749756,-0.022078929468989372,-0.10286067426204681,-0.40770241618156433
628.0,0.0,0.0,0.0,0.0,0.0,0.0,0.26556089520454407,-0.2724241316318512,-0.12607242166996002,0.9093783497810364,-0.012501110322773457,-0.10062841325998306,-0.40339967608451843
629.0,0.0,0.0,0.0,0.0,0.0,0.0,0.24456585943698883,-0.19955764710903168,-0.08342864364385605,0.9124615788459778,-0.0003413477970752865,-0.08716259896755219,-0.39975112676620483
630.0,0.0,0.0,0.0,0.0,0.0,0.0,0.06458158046007156,-0.0495239794254303,-0.09290862083435059,0.9137331247329712,0.003363383235409856,-0.07175834476947784,-0.39990052580833435
631.0,0.0,0.0,0.0,0.0,0.0,0.0,-0.0019513658480718732,0.007506085559725761,-0.0943652018904686,0.9143785238265991,-0.0027461161371320486,-0.07052940875291824,-0.39864876866340637
632.0,0.0,0.0,0.0,0.0,0.0,0.0,-0.17501351237297058,0.3280549943447113,0.23793797194957733,0.9146924018859863,-0.012173986062407494,-0.07583379000425339,-0.39676281809806824
633.0,0.0,0.0,0.0,0.0,0.0,0.0,-0.13259747624397278,0.21625177562236786,0.11489256471395493,0.9145233631134033,-0.015637017786502838,-0.07573629915714264,-0.39703330397605896
634.0,0.0,0.0,0.0,0.0,0.0,0.0,0.006699473597109318,0.10932274907827377,0.02085287868976593,0.9137845635414124,-0.014435585588216782,-0.07485159486532211,-0.39897096157073975
635.0,0.0,0.0,0.0,0.0,0.0,0.0,-1.0019341061706655e-05,0.08413299173116684,0.027495790272951126,0.912475049495697,-0.016280045732855797,-0.07243579626083374,-0.4023420810699463
636.0,0.0,0.0,0.0,0.0,0.0,0.0,-0.012041958048939705,0.03950640559196472,0.028439350426197052,0.9120641946792603,-0.019864045083522797,-0.0698971226811409,-0.4035431742668152
637.0,0.0,0.0,0.0,0.0,0.0,0.0,0.005195498466491699,-0.0026633916422724724,0.0221275445073843,0.9127390384674072,-0.023364093154668808,-0.06753330677747726,-0.4022285044193268
638.0,0.0,0.0,0.0,0.0,0.0,0.0,0.0061723231337964535,0.010511480271816254,0.015968425199389458,0.9138143658638,-0.026370946317911148,-0.06341852992773056,-0.400237113237381
639.0,0.0,0.0,0.0,0.0,0.0,0.0,0.004550989717245102,0.014291631057858467,-0.0034348254557698965,0.914760947227478,-0.028471624478697777,-0.059314608573913574,-0.3985965847969055
640.0,0.0,0.0,0.0,0.0,0.0,0.0,0.014475987292826176,0.00416666641831398,0.00407329760491848,0.9152348041534424,-0.028795067220926285,-0.05688599497079849,-0.3978258967399597
641.0,0.0,0.0,0.0,0.0,0.0,0.0,0.015546496957540512,0.002065027132630348,0.022574426606297493,0.9154171943664551,-0.028493694961071014,-0.053631968796253204,-0.3978807330131531
642.0,0.0,0.0,0.0,0.0,0.0,0.0,0.020541587844491005,0.003782423911616206,0.027721120044589043,0.9163669943809509,-0.027994247153401375,-0.0487615205347538,-0.3963450491428375
643.0,0.0,0.0,0.0,0.0,0.0,0.0,0.001243268488906324,-0.014870435930788517,0.012770242989063263,0.917641282081604,-0.02839832566678524,-0.042889874428510666,-0.3940518796443939
644.0,0.0,0.0,0.0,0.0,0.0,0.0,0.02279745042324066,-0.011483116075396538,-0.025934772565960884,0.9189640283584595,-0.028033774346113205,-0.03783268481492996,-0.39148059487342834
645.0,0.0,0.0,0.0,0.0,0.0,0.0,0.04098459333181381,0.027047360315918922,-0.05099409073591232,0.9199932813644409,-0.026129508391022682,-0.03477296978235245,-0.389509916305542
646.0,0.0,0.0,0.0,0.0,0.0,0.0,0.006622462533414364,0.03931671380996704,-0.027730975300073624,0.9204716086387634,-0.024914033710956573,-0.032050736248493195,-0.3886665403842926
647.0,0.0,0.0,0.0,0.0,0.0,0.0,0.006883408408612013,0.042543161660432816,-0.004915068857371807,0.9207735061645508,-0.0234400425106287,-0.03018621914088726,-0.3881843388080597
648.0,0.0,0.0,0.0,0.0,0.0,0.0,0.009504559449851513,0.06578128039836884,-0.013991259969770908,0.9210114479064941,-0.0215175561606884,-0.028552379459142685,-0.3878794312477112
649.0,0.0,0.0,0.0,0.0,0.0,0.0,0.022213680669665337,0.04368695989251137,-0.0034906615037471056,0.9214622974395752,-0.020671000704169273,-0.026892520487308502,-0.38697466254234314
650.0,0.0,0.0,0.0,0.0,0.0,0.0,0.06442468613386154,0.01370288711041212,0.007448350079357624,0.9218716621398926,-0.019328175112605095,-0.026735976338386536,-0.38607531785964966
651.0,0.0,0.0,0.0,0.0,0.0,0.0,0.09302815049886703,-0.0003022245364263654,0.004247615579515696,0.9218415021896362,-0.0164958406239748,-0.02788279578089714,-0.38620150089263916
652.0,0.0,0.0,0.0,0.0,0.0,0.0,0.07891875505447388,0.022758858278393745,0.019027642905712128,0.9215995669364929,-0.014586257748305798,-0.030237870290875435,-0.38665932416915894
653.0,0.0,0.0,0.0,0.0,0.0,0.0,0.03985900059342384,0.05941636860370636,0.021123237907886505,0.921466588973999,-0.014155286364257336,-0.032376814633607864,-0.38682204484939575
654.0,0.0,0.0,0.0,0.0,0.0,0.0,0.015619965270161629,0.03387866169214249,0.016751490533351898,0.9216050505638123,-0.014526855200529099,-0.033068496733903885,-0.3864331543445587
655.0,0.0,0.0,0.0,0.0,0.0,0.0,0.00843761395663023,0.011612632311880589,0.010879800654947758,0.9215044975280762,-0.014563003554940224,-0.033672548830509186,-0.3866027891635895
656.0,0.0,0.0,0.0,0.0,0.0,0.0,0.020918821915984154,0.018230067566037178,0.010987486690282822,0.9211016297340393,-0.013316958211362362,-0.0348418764770031,-0.38750502467155457
657.0,0.0,0.0,0.0,0.0,0.0,0.0,0.02891555055975914,0.00028831607778556645,0.022247791290283203,0.9208493232727051,-0.012124127708375454,-0.03561868518590927,-0.3880757689476013
658.0,0.0,0.0,0.0,0.0,0.0,0.0,0.024850983172655106,-0.0026696338318288326,0.018501676619052887,0.9206787347793579,-0.011777454055845737,-0.03622227907180786,-0.3884286880493164
659.0,0.0,0.0,0.0,0.0,0.0,0.0,0.013720639981329441,-0.0038091326132416725,0.018974538892507553,0.9206129908561707,-0.011712892912328243,-0.03707102686166763,-0.388522207736969
660.0,0.0,0.0,0.0,0.0,0.0,0.0,0.041100386530160904,0.0012552468106150627,0.0019937113393098116,0.9208675622940063,-0.011142417788505554,-0.03862582519650459,-0.38777926564216614
661.0,0.0,0.0,0.0,0.0,0.0,0.0,0.03489461913704872,0.0218427125364542,0.007869436405599117,0.9208277463912964,-0.0097291748970747,-0.03952188789844513,-0.3878224194049835
662.0,0.0,0.0,0.0,0.0,0.0,0.0,0.03807419538497925,0.015169445425271988,0.00893796980381012,0.9203639030456543,-0.0075307320803403854,-0.04041363298892975,-0.38887083530426025
663.0,0.0,0.0,0.0,0.0,0.0,0.0,0.02824770100414753,0.0007634586654603481,0.030450237914919853,0.9199044704437256,-0.0057610198855400085,-0.040737733244895935,-0.38994812965393066
664.0,0.0,0.0,0.0,0.0,0.0,0.0,0.1093699038028717,-0.07928919047117233,0.0024233961012214422,0.9201533794403076,-0.003605848178267479,-0.0412379615008831,-0.3893401026725769
665.0,0.0,0.0,0.0,0.0,0.0,0.0,0.046687956899404526,-0.03614801540970802,0.02920219860970974,0.9206793308258057,-0.0026999376714229584,-0.04339587688446045,-0.38786768913269043
666.0,0.0,0.0,0.0,0.0,0.0,0.0,0.10900497436523438,-0.09116071462631226,0.02007851004600525,0.9215534329414368,-4.939985046803486e-06,-0.0464780330657959,-0.38542434573173523
667.0,0.0,0.0,0.0,0.0,0.0,0.0,0.22989226877689362,-0.18674694001674652,-0.0800020769238472,0.922574520111084,0.004484786186367273,-0.05248451232910156,-0.3821721076965332
668.0,0.0,0.0,0.0,0.0,0.0,0.0,0.14791947603225708,-0.05496327951550484,-0.06910163164138794,0.9226638674736023,0.005264964420348406,-0.0619221106171608,-0.3805510103702545
669.0,0.0,0.0,0.0,0.0,0.0,0.0,-0.06896641850471497,0.12501928210258484,0.016718661412596703,0.9220787882804871,0.0015589110553264618,-0.06846681237220764,-0.3808746337890625
670.0,0.0,0.0,0.0,0.0,0.0,0.0,-0.16830860078334808,0.18323403596878052,0.044000860303640366,0.922477662563324,-0.0015723132528364658,-0.07046045362949371,-0.37954044342041016
671.0,0.0,0.0,0.0,0.0,0.0,0.0,-0.13495689630508423,0.1925891488790512,0.04796363785862923,0.9233579635620117,-0.00197694543749094,-0.07050646096467972,-0.37737008929252625
672.0,0.0,0.0,0.0,0.0,0.0,0.0,-0.09121067076921463,0.13786271214485168,0.027891481295228004,0.9238268136978149,-0.0006419256678782403,-0.07068386673927307,-0.37620967626571655
673.0,0.0,0.0,0.0,0.0,0.0,0.0,-0.050917576998472214,0.0817592591047287,0.02880283072590828,0.9242472648620605,0.0008652080432511866,-0.07191282510757446,-0.3749205768108368
674.0,0.0,0.0,0.0,0.0,0.0,0.0,-0.04169324412941933,0.09470510482788086,0.030528390780091286,0.9248886108398438,0.002239990048110485,-0.07293649017810822,-0.37313732504844666
675.0,0.0,0.0,0.0,0.0,0.0,0.0,-0.03916876018047333,0.06483174115419388,0.04063992202281952,0.9260140657424927,0.003965283278375864,-0.07300474494695663,-0.3703245520591736
676.0,0.0,0.0,0.0,0.0,0.0,0.0,-0.018687939271330833,0.018687743693590164,0.0421530082821846,0.9271332621574402,0.004818294197320938,-0.07329440861940384,-0.36744409799575806
677.0,0.0,0.0,0.0,0.0,0.0,0.0,0.012463785707950592,-0.007040536962449551,0.03387971967458725,0.9284365177154541,0.005286955274641514,-0.07371331751346588,-0.36402255296707153
678.0,0.0,0.0,0.0,0.0,0.0,0.0,0.04964970797300339,-0.01582668162882328,-0.0007127422722987831,0.929351270198822,0.00639005284756422,-0.07527143508195877,-0.36135944724082947
679.0,0.0,0.0,0.0,0.0,0.0,0.0,0.03930499777197838,-0.0009095501736737788,0.007869979366660118,0.929796576499939,0.0071764555759727955,-0.07712464779615402,-0.3598116934299469
680.0,0.0,0.0,0.0,0.0,0.0,0.0,0.03953423351049423,0.0070450445637106895,0.005464119371026754,0.9302510023117065,0.00802770908921957,-0.07809995859861374,-0.35839125514030457
681.0,0.0,0.0,0.0,0.0,0.0,0.0,0.02498561330139637,0.020975442603230476,0.0032510170713067055,0.9305298924446106,0.007786464877426624,-0.07911522686481476,-0.3574417233467102
682.0,0.0,0.0,0.0,0.0,0.0,0.0,0.009084288030862808,0.02209782600402832,0.001463518594391644,0.9307774901390076,0.008311126381158829,-0.07996629923582077,-0.3566157817840576
683.0,0.0,0.0,0.0,0.0,0.0,0.0,0.007749330252408981,0.007698368281126022,0.007181581575423479,0.9308792352676392,0.009147677570581436,-0.08088485896587372,-0.35610610246658325
684.0,0.0,0.0,0.0,0.0,0.0,0.0,0.021533187478780746,0.006438673008233309,0.0073771169409155846,0.9308409690856934,0.010576998814940453,-0.08140476793050766,-0.3560689091682434
685.0,0.0,0.0,0.0,0.0,0.0,0.0,0.02402750961482525,0.00708814850077033,0.011218905448913574,0.9310190081596375,0.01168499793857336,-0.08134069293737411,-0.3555769622325897
686.0,0.0,0.0,0.0,0.0,0.0,0.0,-0.001494871685281396,0.03739369660615921,0.0237587857991457,0.9309194684028625,0.012014963664114475,-0.0809493362903595,-0.3559379577636719
687.0,0.0,0.0,0.0,0.0,0.0,0.0,-0.06421241164207458,0.10771609842777252,0.06731269508600235,0.9305053353309631,0.01352422684431076,-0.07810581475496292,-0.35755881667137146
688.0,0.0,0.0,0.0,0.0,0.0,0.0,-0.0953354462981224,0.1071406677365303,0.17268939316272736,0.9300174117088318,0.017523396760225296,-0.07082504034042358,-0.3601824641227722
689.0,0.0,0.0,0.0,0.0,0.0,0.0,-0.06040502339601517,0.06335769593715668,0.21427197754383087,0.9298863410949707,0.024552790448069572,-0.0571577362716198,-0.3625109791755676
690.0,0.0,0.0,0.0,0.0,0.0,0.0,-0.0053439754992723465,-0.131601482629776,0.10234289616346359,0.9307047724723816,0.03542979061603546,-0.04216257482767105,-0.3615903854370117
691.0,0.0,0.0,0.0,0.0,0.0,0.0,0.05406205356121063,-0.2024654746055603,0.0793699100613594,0.9316277503967285,0.04599230736494064,-0.030016859993338585,-0.35922208428382874
692.0,0.0,0.0,0.0,0.0,0.0,0.0,0.11915486305952072,-0.15312358736991882,-0.019150076434016228,0.933355987071991,0.054515764117240906,-0.020378373563289642,-0.3541932702064514
693.0,0.0,0.0,0.0,0.0,0.0,0.0,0.18628017604351044,-0.16348613798618317,-0.2137538343667984,0.9345038533210754,0.06364093720912933,-0.015551990829408169,-0.3498538136482239
694.0,0.0,0.0,0.0,0.0,0.0,0.0,0.04996728524565697,-0.1562650203704834,0.004911565221846104,0.9339632987976074,0.06328155845403671,-0.013443942181766033,-0.351438969373703
695.0,0.0,0.0,0.0,0.0,0.0,0.0,-0.04048381373286247,-0.0964864194393158,0.03891327232122421,0.9336801767349243,0.06067387014627457,-0.013073123060166836,-0.3526838421821594
696.0,0.0,0.0,0.0,0.0,0.0,0.0,0.03830413892865181,-0.13707472383975983,-0.05604507029056549,0.9339338541030884,0.05723244324326515,-0.017000265419483185,-0.35239264369010925
697.0,0.0,0.0,0.0,0.0,0.0,0.0,0.09619346261024475,-0.14881634712219238,-0.004210667684674263,0.9337612390518188,0.05355280265212059,-0.02410205267369747,-0.35302481055259705
698.0,0.0,0.0,0.0,0.0,0.0,0.0,-0.0068625230342149734,-0.04043711721897125,0.029858490452170372,0.9331478476524353,0.04864250868558884,-0.029386233538389206,-0.35495227575302124
699.0,0.0,0.0,0.0,0.0,0.0,0.0,-0.03721862658858299,0.00575939379632473,0.022999007254838943,0.9323896765708923,0.043893735855817795,-0.031741417944431305,-0.35734501481056213
700.0,0.0,0.0,0.0,0.0,0.0,0.0,-0.01676056534051895,-0.007498532067984343,0.02978048287332058,0.9317004084587097,0.040718331933021545,-0.03377043828368187,-0.3593199551105499
701.0,0.0,0.0,0.0,0.0,0.0,0.0,-0.022481663152575493,-0.031163940206170082,0.039638224989175797,0.9311219453811646,0.038408875465393066,-0.03453311696648598,-0.3609936237335205
702.0,0.0,0.0,0.0,0.0,0.0,0.0,0.006477088667452335,-0.009244143031537533,0.0107843317091465,0.9309762120246887,0.03719940409064293,-0.03530377522110939,-0.36143758893013
703.0,0.0,0.0,0.0,0.0,0.0,0.0,0.017396416515111923,-0.009021272882819176,-0.016145998612046242,0.9304077625274658,0.03569379448890686,-0.03638637065887451,-0.36294791102409363
704.0,0.0,0.0,0.0,0.0,0.0,0.0,0.020293207839131355,-0.02179734967648983,-0.039443619549274445,0.9294927716255188,0.03459324687719345,-0.03732314333319664,-0.36528366804122925
705.0,0.0,0.0,0.0,0.0,0.0,0.0,0.036904945969581604,-0.07882010191679001,-0.056945815682411194,0.9284955263137817,0.03268175199627876,-0.03888249769806862,-0.36783692240715027
706.0,0.0,0.0,0.0,0.0,0.0,0.0,0.10023172944784164,-0.1816449761390686,-0.1225559338927269,0.9280321002006531,0.03057069145143032,-0.04131821542978287,-0.3689117729663849
707.0,0.0,0.0,0.0,0.0,0.0,0.0,0.12395527958869934,-0.19869402050971985,-0.17386433482170105,0.9273782968521118,0.02873963676393032,-0.046609777957201004,-0.3700861930847168
708.0,0.0,0.0,0.0,0.0,0.0,0.0,-0.05624104291200638,0.019331978633999825,-0.045796677470207214,0.9249659180641174,0.022495800629258156,-0.05546894669532776,-0.37528592348098755
709.0,0.0,0.0,0.0,0.0,0.0,0.0,-0.1416829228401184,0.1487814337015152,0.09150112420320511,0.9220120906829834,0.01205600704997778,-0.06591310352087021,-0.3812927305698395
710.0,0.0,0.0,0.0,0.0,0.0,0.0,-0.24336157739162445,0.24873217940330505,0.21878577768802643,0.9192094802856445,0.0024510978255420923,-0.07372146844863892,-0.3867649435997009
711.0,0.0,0.0,0.0,0.0,0.0,0.0,-0.2268606275320053,0.31014561653137207,0.10633493214845657,0.9172608852386475,-0.0018762322142720222,-0.08069655299186707,-0.39001044631004333
712.0,0.0,0.0,0.0,0.0,0.0,0.0,-0.13798536360263824,0.29311761260032654,0.09182536602020264,0.9158745408058167,-0.0018165854271501303,-0.08689846843481064,-0.3919146955013275
713.0,0.0,0.0,0.0,0.0,0.0,0.0,-0.17412523925304413,0.17627167701721191,0.18155644834041595,0.9149009585380554,-0.0013404351193457842,-0.08949973434209824,-0.3936089873313904
714.0,0.0,0.0,0.0,0.0,0.0,0.0,0.007909868843853474,-0.057751964777708054,0.00406539486721158,0.9157431125640869,0.005138720385730267,-0.08937770128250122,-0.391641229391098
715.0,0.0,0.0,0.0,0.0,0.0,0.0,0.17666731774806976,-0.2599670886993408,-0.2652667164802551,0.9164137840270996,0.008756395429372787,-0.10147443413734436,-0.38702765107154846
716.0,0.0,0.0,0.0,0.0,0.0,0.0,0.1166335940361023,-0.09935349971055984,-0.028755946084856987,0.9159659743309021,0.009215952828526497,-0.11486359685659409,-0.3843190371990204
717.0,0.0,0.0,0.0,0.0,0.0,0.0,0.1524820327758789,-0.14805778861045837,-0.10745164752006531,0.9163341522216797,0.01243398617953062,-0.12262940406799316,-0.38094812631607056
718.0,0.0,0.0,0.0,0.0,0.0,0.0,0.22666774690151215,-0.28746864199638367,-0.170598566532135,0.918329119682312,0.01837761141359806,-0.12487594783306122,-0.3751426935195923
719.0,0.0,0.0,0.0,0.0,0.0,0.0,0.18165941536426544,-0.1505729705095291,-0.10251114517450333,0.921394944190979,0.024988064542412758,-0.11745894700288773,-0.3695901334285736
720.0,0.0,0.0,0.0,0.0,0.0,0.0,0.027692323550581932,0.06514278054237366,-0.08126957714557648,0.9218825697898865,0.02239077165722847,-0.10576507449150085,-0.372064471244812
721.0,0.0,0.0,0.0,0.0,0.0,0.0,-0.19151878356933594,0.26895615458488464,0.10958153009414673,0.9191820621490479,0.009658788330852985,-0.10523754358291626,-0.379362553358078
722.0,0.0,0.0,0.0,0.0,0.0,0.0,-0.2432502955198288,0.3277086317539215,0.19185149669647217,0.9171131253242493,0.002729574218392372,-0.10731101781129837,-0.38385728001594543
723.0,0.0,0.0,0.0,0.0,0.0,0.0,-0.08223871886730194,0.23658686876296997,0.02448628656566143,0.9156187772750854,0.0008509927429258823,-0.10917440801858902,-0.38689446449279785
724.0,0.0,0.0,0.0,0.0,0.0,0.0,-0.16261880099773407,0.21828532218933105,0.11401061713695526,0.9144279956817627,-0.003971376921981573,-0.11367557942867279,-0.3884291648864746
725.0,0.0,0.0,0.0,0.0,0.0,0.0,-0.024433176964521408,-0.013778884895145893,-0.03030632622539997,0.9134001731872559,-0.006774043198674917,-0.11466009169816971,-0.3904871940612793
726.0,0.0,0.0,0.0,0.0,0.0,0.0,0.15643426775932312,-0.1575922667980194,-0.17164574563503265,0.9130894541740417,-0.006728482432663441,-0.11727811396121979,-0.39046481251716614
727.0,0.0,0.0,0.0,0.0,0.0,0.0,0.11535471677780151,-0.009099307470023632,-0.014571144245564938,0.9135262370109558,-0.007067626807838678,-0.11601908504962921,-0.38977423310279846
728.0,0.0,0.0,0.0,0.0,0.0,0.0,0.11529283225536346,0.010440299287438393,-0.021454911679029465,0.9145485162734985,-0.007494182325899601,-0.10748126357793808,-0.3898440897464752
729.0,0.0,0.0,0.0,0.0,0.0,0.0,0.0883551836013794,-0.015161970630288124,-0.020856574177742004,0.9153897166252136,-0.005659204907715321,-0.09600890427827835,-0.3908982574939728
730.0,0.0,0.0,0.0,0.0,0.0,0.0,0.08232855051755905,-0.02257690206170082,0.05020507052540779,0.9152975082397461,0.0001693963713478297,-0.08355104178190231,-0.393964946269989
731.0,0.0,0.0,0.0,0.0,0.0,0.0,0.021026384085416794,-0.03232036158442497,-0.013311482034623623,0.9145504832267761,0.00264424504712224,-0.07064878940582275,-0.39820408821105957
732.0,0.0,0.0,0.0,0.0,0.0,0.0,0.07289685308933258,-0.029776213690638542,-0.0729546993970871,0.9143666625022888,0.001875775633379817,-0.06367900222539902,-0.39983445405960083
733.0,0.0,0.0,0.0,0.0,0.0,0.0,0.058276694267988205,0.04615747183561325,-0.03689439594745636,0.9133032560348511,0.0027057325933128595,-0.06179552152752876,-0.40252548456192017
734.0,0.0,0.0,0.0,0.0,0.0,0.0,-0.009595474228262901,0.07790485769510269,0.019181303679943085,0.911738395690918,-0.00043163003283552825,-0.06223810464143753,-0.4060089588165283
735.0,0.0,0.0,0.0,0.0,0.0,0.0,-0.043752629309892654,0.1404210776090622,0.052121687680482864,0.9112160801887512,-0.007004768121987581,-0.06347092241048813,-0.40693628787994385
736.0,0.0,0.0,0.0,0.0,0.0,0.0,-0.054733458906412125,0.17883636057376862,0.0483257994055748,0.9112550616264343,-0.013014511205255985,-0.064384326338768,-0.40652671456336975
737.0,0.0,0.0,0.0,0.0,0.0,0.0,-0.042759038507938385,0.16302429139614105,0.06544344127178192,0.9114283919334412,-0.015477487817406654,-0.06408432126045227,-0.40612274408340454
738.0,0.0,0.0,0.0,0.0,0.0,0.0,0.03777854144573212,0.06912811845541,0.0002655420685186982,0.9114108681678772,-0.015287481248378754,-0.06300916522741318,-0.4063413739204407
739.0,0.0,0.0,0.0,0.0,0.0,0.0,0.10554356127977371,-0.019486719742417336,-0.06352619081735611,0.9109709858894348,-0.014660895802080631,-0.062337152659893036,-0.4074292778968811
740.0,0.0,0.0,0.0,0.0,0.0,0.0,0.11463633179664612,-0.011193585582077503,-0.027678126469254494,0.9104384779930115,-0.014400817453861237,-0.0625908374786377,-0.40862202644348145
741.0,0.0,0.0,0.0,0.0,0.0,0.0,0.0759415253996849,-0.005893127527087927,0.017353203147649765,0.9101488590240479,-0.014941542409360409,-0.06278260797262192,-0.409197598695755
742.0,0.0,0.0,0.0,0.0,0.0,0.0,0.08306673169136047,-0.025688519701361656,-0.00040853643440641463,0.910090446472168,-0.016545087099075317,-0.06344006210565567,-0.40915945172309875
743.0,0.0,0.0,0.0,0.0,0.0,0.0,0.08435149490833282,-0.002238611923530698,-0.015332529321312904,0.9094340205192566,-0.018255269154906273,-0.06504163891077042,-0.41027358174324036
744.0,0.0,0.0,0.0,0.0,0.0,0.0,0.026852283626794815,0.02635616436600685,0.009127126075327396,0.9083898663520813,-0.01976846158504486,-0.06677266210317612,-0.4122757911682129
745.0,0.0,0.0,0.0,0.0,0.0,0.0,-0.0221147108823061,0.0630524605512619,0.019652720540761948,0.9073998332023621,-0.021612470969557762,-0.06795729696750641,-0.41413170099258423
746.0,0.0,0.0,0.0,0.0,0.0,0.0,-0.01805729977786541,0.08402518928050995,0.03501974418759346,0.9069601893424988,-0.022973354905843735,-0.06858804076910019,-0.41491320729255676
747.0,0.0,0.0,0.0,0.0,0.0,0.0,-0.015337344259023666,0.07173459976911545,0.028864463791251183,0.9065080881118774,-0.023541050031781197,-0.06872839480638504,-0.41587769985198975
748.0,0.0,0.0,0.0,0.0,0.0,0.0,-0.020341450348496437,0.06201812997460365,0.05259374901652336,0.9059064388275146,-0.0231874268501997,-0.06801735609769821,-0.4173120856285095
749.0,0.0,0.0,0.0,0.0,0.0,0.0,0.0133211063221097,0.052906181663274765,0.04303720220923424,0.905849814414978,-0.0215483196079731,-0.06672515720129013,-0.4177434742450714
750.0,0.0,0.0,0.0,0.0,0.0,0.0,0.08289148658514023,0.015110677108168602,-0.02994357980787754,0.9066713452339172,-0.019501034170389175,-0.0661214143037796,-0.4161251485347748
751.0,0.0,0.0,0.0,0.0,0.0,0.0,0.07758941501379013,-0.039174921810626984,-0.03024374134838581,0.9076426029205322,-0.01851493865251541,-0.0664282962679863,-0.41400060057640076
752.0,0.0,0.0,0.0,0.0,0.0,0.0,0.07714883238077164,-0.06673695147037506,-0.0037338980473577976,0.9084034562110901,-0.018116958439350128,-0.06759284436702728,-0.41215673089027405
753.0,0.0,0.0,0.0,0.0,0.0,0.0,0.07678137719631195,-0.051270052790641785,-0.019341593608260155,0.9090096950531006,-0.017951760441064835,-0.07050439715385437,-0.41034260392189026
754.0,0.0,0.0,0.0,0.0,0.0,0.0,0.11715332418680191,-0.12664160132408142,-0.04046325758099556,0.9100733399391174,-0.017602328211069107,-0.0754135325551033,-0.4071291983127594
755.0,0.0,0.0,0.0,0.0,0.0,0.0,0.11556857079267502,-0.1473231017589569,-0.07682553678750992,0.9106557965278625,-0.018489792943000793,-0.08135507255792618,-0.4046465754508972
756.0,0.0,0.0,0.0,0.0,0.0,0.0,-0.005259650759398937,0.04979945719242096,-0.0007854484138078988,0.9107584357261658,-0.021799499168992043,-0.08819002658128738,-0.4028027355670929
757.0,0.0,0.0,0.0,0.0,0.0,0.0,-0.051493965089321136,0.18909697234630585,0.07797357439994812,0.9114223718643188,-0.02330935373902321,-0.09298712015151978,-0.40011635422706604
758.0,0.0,0.0,0.0,0.0,0.0,0.0,-0.007161467801779509,0.047769367694854736,0.040147945284843445,0.9122427105903625,-0.020904192700982094,-0.09467332065105438,-0.39797601103782654
759.0,0.0,0.0,0.0,0.0,0.0,0.0,0.0013580857776105404,0.0416250079870224,0.012575826607644558,0.9128507971763611,-0.015507756732404232,-0.09706186503171921,-0.3962641954421997
760.0,0.0,0.0,0.0,0.0,0.0,0.0,-0.04602019861340523,0.1521221399307251,0.05374479666352272,0.9131342768669128,-0.01010227482765913,-0.09797479212284088,-0.39556649327278137
761.0,0.0,0.0,0.0,0.0,0.0,0.0,-0.0346708670258522,0.10270887613296509,0.04334898293018341,0.9138767123222351,-0.005645932629704475,-0.09656642377376556,-0.39426344633102417
762.0,0.0,0.0,0.0,0.0,0.0,0.0,-0.0077164131216704845,0.08231611549854279,0.043817486613988876,0.9153636693954468,-0.0013816541759297252,-0.09341215342283249,-0.3915940225124359
763.0,0.0,0.0,0.0,0.0,0.0,0.0,0.0006509685190394521,0.05111025273799896,0.031156662851572037,0.9168643951416016,0.0040973168797791,-0.08942422270774841,-0.3890136182308197
764.0,0.0,0.0,0.0,0.0,0.0,0.0,-0.03791344165802002,0.04079919680953026,0.028586354106664658,0.917777955532074,0.01001220103353262,-0.08476385474205017,-0.38777950406074524
765.0,0.0,0.0,0.0,0.0,0.0,0.0,-0.039822839200496674,0.07263072580099106,0.051734164357185364,0.9185255169868469,0.015980564057826996,-0.07844072580337524,-0.38713347911834717
766.0,0.0,0.0,0.0,0.0,0.0,0.0,0.024942856281995773,-0.042753469198942184,-0.024126393720507622,0.9197804927825928,0.02053241990506649,-0.07280024141073227,-0.38503071665763855
767.0,0.0,0.0,0.0,0.0,0.0,0.0,0.052196767181158066,-0.045118726789951324,-0.051316093653440475,0.9209146499633789,0.023529842495918274,-0.06970954686403275,-0.3827398121356964
768.0,0.0,0.0,0.0,0.0,0.0,0.0,0.04540316388010979,-0.01980024017393589,-0.014863967895507812,0.9216362833976746,0.025166284292936325,-0.06678216904401779,-0.381401389837265
769.0,0.0,0.0,0.0,0.0,0.0,0.0,0.046683888882398605,-0.0295395664870739,0.0028080518823117018,0.9222495555877686,0.02709924802184105,-0.06426771730184555,-0.3802219033241272
770.0,0.0,0.0,0.0,0.0,0.0,0.0,0.041891325265169144,-0.014506221748888493,0.002274459460750222,0.9220684170722961,0.028901372104883194,-0.061420440673828125,-0.3809855878353119
771.0,0.0,0.0,0.0,0.0,0.0,0.0,0.022059714421629906,-0.02940194122493267,0.002336786827072501,0.9212871789932251,0.030181288719177246,-0.05808171629905701,-0.3832961618900299
772.0,0.0,0.0,0.0,0.0,0.0,0.0,0.03407154977321625,-0.03374773636460304,0.009052320383489132,0.9206439852714539,0.03181283175945282,-0.055377840995788574,-0.38510197401046753
773.0,0.0,0.0,0.0,0.0,0.0,0.0,0.02892991341650486,-0.0402948372066021,0.009268891997635365,0.9199143052101135,0.03289766609668732,-0.05303163453936577,-0.3870844542980194
774.0,0.0,0.0,0.0,0.0,0.0,0.0,0.03880159929394722,-0.06063541769981384,-0.0004614723729901016,0.9190007448196411,0.033211372792720795,-0.05169227719306946,-0.3894139528274536
775.0,0.0,0.0,0.0,0.0,0.0,0.0,0.06365911662578583,-0.05429855361580849,0.03879997134208679,0.9177912473678589,0.03365396335721016,-0.05324780195951462,-0.3920334577560425
776.0,0.0,0.0,0.0,0.0,0.0,0.0,0.06129159778356552,-0.03065703995525837,0.053458377718925476,0.9163323044776917,0.03370130434632301,-0.05623010918498039,-0.3950052559375763
777.0,0.0,0.0,0.0,0.0,0.0,0.0,0.023179905489087105,0.04541464522480965,0.019215451553463936,0.9149762988090515,0.032352298498153687,-0.057915639132261276,-0.3979795575141907
778.0,0.0,0.0,0.0,0.0,0.0,0.0,0.010432644747197628,0.09218209981918335,0.024777166545391083,0.9135141968727112,0.028707953169941902,-0.05775174871087074,-0.4016362726688385
779.0,0.0,0.0,0.0,0.0,0.0,0.0,0.012991619296371937,0.0066720652393996716,0.04169411212205887,0.911766767501831,0.024838654324412346,-0.05561668425798416,-0.40612703561782837
780.0,0.0,0.0,0.0,0.0,0.0,0.0,0.016830861568450928,-0.07230651378631592,0.0036299291532486677,0.9099571704864502,0.02249092422425747,-0.05359045788645744,-0.41055741906166077
781.0,0.0,0.0,0.0,0.0,0.0,0.0,0.034788813441991806,-0.04045722261071205,-0.012812411412596703,0.908428430557251,0.02034592069685459,-0.05404122546315193,-0.41401544213294983
782.0,0.0,0.0,0.0,0.0,0.0,0.0,0.03122362121939659,-0.0641576424241066,-0.0013263178989291191,0.9075415730476379,0.01678314246237278,-0.05627456679940224,-0.4158205986022949
783.0,0.0,0.0,0.0,0.0,0.0,0.0,0.02305842936038971,-0.0614936463534832,0.004725511651486158,0.9079777598381042,0.012441657483577728,-0.060346536338329315,-0.41444262862205505
784.0,0.0,0.0,0.0,0.0,0.0,0.0,0.023690544068813324,-0.0006158520118333399,0.04951751232147217,0.9084782004356384,0.009238929487764835,-0.06474725902080536,-0.41276973485946655
785.0,0.0,0.0,0.0,0.0,0.0,0.0,0.02007891982793808,0.011763365007936954,0.051605015993118286,0.9081789255142212,0.007719417568296194,-0.06748361885547638,-0.41302981972694397
786.0,0.0,0.0,0.0,0.0,0.0,0.0,0.035011205822229385,-0.0013931281864643097,0.01289733313024044,0.9075917601585388,0.006767483428120613,-0.07060021907091141,-0.4137962758541107
787.0,0.0,0.0,0.0,0.0,0.0,0.0,0.03226099908351898,-0.0009442954324185848,0.011501213535666466,0.9071751832962036,0.005002796649932861,-0.0742173120379448,-0.41407522559165955
788.0,0.0,0.0,0.0,0.0,0.0,0.0,0.030827758833765984,0.01095921266824007,0.02622060291469097,0.9072591066360474,0.0023905481211841106,-0.07789788395166397,-0.41326799988746643
789.0,0.0,0.0,0.0,0.0,0.0,0.0,0.027850883081555367,0.027240483090281487,0.04800606891512871,0.9073390364646912,0.00035736599238589406,-0.08020356297492981,-0.4126500189304352
790.0,0.0,0.0,0.0,0.0,0.0,0.0,0.007397008128464222,0.02177952416241169,0.05736658722162247,0.907294511795044,-0.0018494130345061421,-0.08023864030838013,-0.41272643208503723
791.0,0.0,0.0,0.0,0.0,0.0,0.0,0.03585560619831085,0.027706649154424667,0.019081637263298035,0.9074217081069946,-0.0027572615072131157,-0.08065897226333618,-0.4123842418193817
792.0,0.0,0.0,0.0,0.0,0.0,0.0,0.05160791426897049,0.016760651022195816,0.020640525966882706,0.9074040055274963,-0.003273577429354191,-0.08064362406730652,-0.4124176502227783
793.0,0.0,0.0,0.0,0.0,0.0,0.0,0.038697488605976105,-0.01219392754137516,0.023584045469760895,0.9073736071586609,-0.0038858542684465647,-0.07959356904029846,-0.41268306970596313
794.0,0.0,0.0,0.0,0.0,0.0,0.0,0.013127440586686134,-0.024764642119407654,0.0640125647187233,0.9075517058372498,-0.0058179995976388454,-0.0771830752491951,-0.41272345185279846
795.0,0.0,0.0,0.0,0.0,0.0,0.0,0.03310741111636162,-0.046519894152879715,0.051454219967126846,0.9080120325088501,-0.008292491547763348,-0.07302600890398026,-0.41240254044532776
796.0,0.0,0.0,0.0,0.0,0.0,0.0,0.06872158497571945,-0.008484967984259129,-0.020745128393173218,0.9088616371154785,-0.008365582674741745,-0.07075393944978714,-0.41092851758003235
797.0,0.0,0.0,0.0,0.0,0.0,0.0,0.05032479763031006,0.0033993639517575502,-0.010986518114805222,0.9097276329994202,-0.008285120129585266,-0.06856491416692734,-0.4093678295612335
798.0,0.0,0.0,0.0,0.0,0.0,0.0,0.04164061322808266,0.029022786766290665,0.0022618253715336323,0.9103184938430786,-0.007459177635610104,-0.06606727093458176,-0.40851932764053345
799.0,0.0,0.0,0.0,0.0,0.0,0.0,0.06176478788256645,-0.0011629454093053937,-0.03155597671866417,0.9105100035667419,-0.005880629178136587,-0.06465712934732437,-0.40833404660224915
800.0,0.0,0.0,0.0,0.0,0.0,0.0,0.05679852142930031,-0.008510163985192776,-0.01678665727376938,0.9097266793251038,-0.004021673463284969,-0.06333599239587784,-0.41029593348503113
801.0,0.0,0.0,0.0,0.0,0.0,0.0,0.0345175676047802,-0.014075107872486115,0.011506563983857632,0.9083645343780518,-0.0018015342066064477,-0.061111778020858765,-0.41364118456840515
802.0,0.0,0.0,0.0,0.0,0.0,0.0,0.025246070697903633,-0.020391862839460373,0.02548142708837986,0.9067564010620117,0.0013500481145456433,-0.0580042339861393,-0.4176160395145416
803.0,0.0,0.0,0.0,0.0,0.0,0.0,0.004455704241991043,-0.06599556654691696,0.08412386476993561,0.9047572016716003,0.003856976982206106,-0.05309836193919182,-0.42254742980003357
804.0,0.0,0.0,0.0,0.0,0.0,0.0,-0.0006053810939192772,-0.047708600759506226,0.06431903690099716,0.9033690094947815,0.009062504395842552,-0.046547628939151764,-0.42619338631629944
805.0,0.0,0.0,0.0,0.0,0.0,0.0,0.06754766404628754,-0.06334953755140305,0.0005284482031129301,0.9028871059417725,0.015406456775963306,-0.04099655896425247,-0.4276319742202759
806.0,0.0,0.0,0.0,0.0,0.0,0.0,0.06476542353630066,-0.07848203927278519,0.030133573338389397,0.9024433493614197,0.019293062388896942,-0.0373106375336647,-0.42874211072921753
807.0,0.0,0.0,0.0,0.0,0.0,0.0,0.08155784010887146,-0.05944869667291641,-0.0027861918788403273,0.9019405841827393,0.022786708548665047,-0.0347861684858799,-0.42981967329978943
808.0,0.0,0.0,0.0,0.0,0.0,0.0,0.02869865857064724,-0.04636549577116966,0.019232673570513725,0.9013611674308777,0.022477872669696808,-0.03305267542600632,-0.43121546506881714
809.0,0.0,0.0,0.0,0.0,0.0,0.0,-0.0027328303549438715,-0.06476247310638428,0.02705870009958744,0.9010843634605408,0.019012071192264557,-0.03176695853471756,-0.43204715847969055
810.0,0.0,0.0,0.0,0.0,0.0,0.0,0.03322383016347885,-0.009553282521665096,-0.00973063986748457,0.9019734859466553,0.015116035006940365,-0.03257979452610016,-0.43027785420417786
811.0,0.0,0.0,0.0,0.0,0.0,0.0,0.01603357493877411,0.0005149125354364514,0.04432511329650879,0.9026761054992676,0.010262856259942055,-0.03368772193789482,-0.4288429915904999
812.0,0.0,0.0,0.0,0.0,0.0,0.0,0.01160050556063652,-0.017903165891766548,0.08460504561662674,0.902854323387146,0.00817831326276064,-0.03319092467427254,-0.4285544455051422
813.0,0.0,0.0,0.0,0.0,0.0,0.0,0.05235692486166954,-0.038398269563913345,0.005481775850057602,0.9026039838790894,0.007714936509728432,-0.034213434904813766,-0.4290255606174469
814.0,0.0,0.0,0.0,0.0,0.0,0.0,0.054054923355579376,-0.03107103891670704,-0.03533293306827545,0.9021267294883728,0.004943959880620241,-0.037769462913274765,-0.4297679662704468
815.0,0.0,0.0,0.0,0.0,0.0,0.0,0.04462327063083649,-0.020836977288126945,0.03281494230031967,0.9017645120620728,0.0005388889694586396,-0.04233431816101074,-0.430107057094574
816.0,0.0,0.0,0.0,0.0,0.0,0.0,0.04221896454691887,-0.03992529213428497,0.0745653286576271,0.9012715220451355,-0.002771890489384532,-0.04529460147023201,-0.430851548910141
817.0,0.0,0.0,0.0,0.0,0.0,0.0,0.05897834897041321,-0.02064715325832367,0.04211663454771042,0.9012432098388672,-0.0036336230114102364,-0.04658770561218262,-0.43076983094215393
818.0,0.0,0.0,0.0,0.0,0.0,0.0,0.05838107690215111,-0.008095813915133476,0.025525180622935295,0.901542067527771,-0.003329535946249962,-0.04778759926557541,-0.43001073598861694
819.0,0.0,0.0,0.0,0.0,0.0,0.0,0.054768018424510956,-0.003333711065351963,0.01736053265631199,0.9021052718162537,-0.0028374711982905865,-0.0493423268198967,-0.4286400079727173
820.0,0.0,0.0,0.0,0.0,0.0,0.0,0.06700176745653152,-0.004062137100845575,0.014337479136884212,0.9025722146034241,-0.001642923685722053,-0.05099974945187569,-0.427463173866272
821.0,0.0,0.0,0.0,0.0,0.0,0.0,0.06260141730308533,-0.020756732672452927,0.017358288168907166,0.9029518961906433,-0.0009207492112182081,-0.05289892479777336,-0.4264448583126068
822.0,0.0,0.0,0.0,0.0,0.0,0.0,0.055911142379045486,0.011745299212634563,0.03429492190480232,0.9034101366996765,-0.0011646326165646315,-0.0544525608420372,-0.42527130246162415
823.0,0.0,0.0,0.0,0.0,0.0,0.0,0.04922739788889885,0.03515084460377693,0.03942917287349701,0.9042963981628418,-0.0010096514597535133,-0.05609665811061859,-0.4231789708137512
824.0,0.0,0.0,0.0,0.0,0.0,0.0,0.0557616762816906,0.03554602712392807,0.02513294480741024,0.9053646326065063,1.3197433872846887e-05,-0.0569559670984745,-0.42079198360443115
825.0,0.0,0.0,0.0,0.0,0.0,0.0,0.05527603253722191,0.03776397928595543,0.030067987740039825,0.9062855243682861,0.0012439031852409244,-0.05701014772057533,-0.4187481999397278
826.0,0.0,0.0,0.0,0.0,0.0,0.0,0.047241292893886566,0.048363666981458664,0.027866901829838753,0.9072672128677368,0.00262510241009295,-0.05624683201313019,-0.41674941778182983
827.0,0.0,0.0,0.0,0.0,0.0,0.0,0.03541431948542595,0.046687886118888855,-0.001717433799058199,0.9084954261779785,0.0049416678957641125,-0.055232442915439606,-0.41420212388038635
828.0,0.0,0.0,0.0,0.0,0.0,0.0,0.04211917519569397,0.017991572618484497,-0.02866424433887005,0.9095541834831238,0.007902775891125202,-0.054206494241952896,-0.4119548797607422
829.0,0.0,0.0,0.0,0.0,0.0,0.0,0.05252989009022713,-0.014204767532646656,-0.017385628074407578,0.9102545976638794,0.010675963014364243,-0.05374890938401222,-0.410383939743042
830.0,0.0,0.0,0.0,0.0,0.0,0.0,0.030387867242097855,0.004759141243994236,-0.007505976129323244,0.9110516905784607,0.012228639796376228,-0.05310392379760742,-0.40864259004592896
831.0,0.0,0.0,0.0,0.0,0.0,0.0,0.03760158270597458,0.0005846889689564705,0.0045278375037014484,0.9117304682731628,0.013730643317103386,-0.05272394046187401,-0.40713220834732056
832.0,0.0,0.0,0.0,0.0,0.0,0.0,0.0461357980966568,0.0147544639185071,0.002755589783191681,0.9124107956886292,0.01551581360399723,-0.05361535772681236,-0.4054378867149353
833.0,0.0,0.0,0.0,0.0,0.0,0.0,0.032946739345788956,0.018494971096515656,0.01661902293562889,0.9129238724708557,0.016387134790420532,-0.05463897064328194,-0.40407612919807434
834.0,0.0,0.0,0.0,0.0,0.0,0.0,0.05394275113940239,-0.017236704006791115,0.019873488694429398,0.9131684303283691,0.01729286089539528,-0.05660004913806915,-0.4032573997974396
835.0,0.0,0.0,0.0,0.0,0.0,0.0,0.08280345797538757,-0.012269063852727413,0.008101259358227253,0.9138644337654114,0.018469585105776787,-0.0602496862411499,-0.401062935590744
836.0,0.0,0.0,0.0,0.0,0.0,0.0,0.10855031758546829,-0.023591360077261925,-0.01762610860168934,0.9142752289772034,0.01955779269337654,-0.06519564241170883,-0.39931586384773254
837.0,0.0,0.0,0.0,0.0,0.0,0.0,0.09866996109485626,-0.04676039516925812,-0.04217800870537758,0.913787305355072,0.018455786630511284,-0.07075905799865723,-0.3995188772678375
838.0,0.0,0.0,0.0,0.0,0.0,0.0,0.06216418370604515,-0.0246367659419775,-0.029857022687792778,0.9127240180969238,0.015887143090367317,-0.07657934725284576,-0.40100401639938354
839.0,0.0,0.0,0.0,0.0,0.0,0.0,0.04086059704422951,0.01675555855035782,-0.0037266744766384363,0.9114319086074829,0.013559268787503242,-0.08262835443019867,-0.4028184711933136
840.0,0.0,0.0,0.0,0.0,0.0,0.0,0.03459598496556282,0.04442533478140831,0.004819058813154697,0.9099804162979126,0.01164928451180458,-0.08927489072084427,-0.4047488272190094
841.0,0.0,0.0,0.0,0.0,0.0,0.0,0.018723314628005028,0.08772113919258118,0.03577667847275734,0.9084745645523071,0.010822044685482979,-0.09500610083341599,-0.40681755542755127
842.0,0.0,0.0,0.0,0.0,0.0,0.0,0.040938425809144974,0.06264294683933258,0.01498348731547594,0.9067531228065491,0.01307025644928217,-0.09971915930509567,-0.4094787836074829
843.0,0.0,0.0,0.0,0.0,0.0,0.0,0.03840211033821106,0.06338769942522049,0.025105314329266548,0.9043633341789246,0.01631486602127552,-0.10392207652330399,-0.4135739803314209
844.0,0.0,0.0,0.0,0.0,0.0,0.0,0.012959121726453304,0.08637765794992447,0.04314488545060158,0.9023568034172058,0.017786728218197823,-0.1077270358800888,-0.41692155599594116
845.0,0.0,0.0,0.0,0.0,0.0,0.0,0.041462596505880356,0.047566503286361694,0.030113084241747856,0.9014550447463989,0.018056241795420647,-0.11071520298719406,-0.4180440902709961
846.0,0.0,0.0,0.0,0.0,0.0,0.0,0.06321200728416443,0.046262770891189575,0.019415996968746185,0.9004855155944824,0.01756305806338787,-0.1140555888414383,-0.4192906618118286
847.0,0.0,0.0,0.0,0.0,0.0,0.0,0.061381809413433075,0.049056317657232285,0.020101234316825867,0.8990927934646606,0.017148947343230247,-0.11674468219280243,-0.4215588867664337
848.0,0.0,0.0,0.0,0.0,0.0,0.0,0.06214674934744835,0.029906047508120537,0.01857108809053898,0.8973902463912964,0.016416484490036964,-0.1190318912267685,-0.4245196580886841
849.0,0.0,0.0,0.0,0.0,0.0,0.0,0.054254598915576935,0.02363429218530655,0.018637342378497124,0.8956387042999268,0.01578838936984539,-0.12123512476682663,-0.42764145135879517
850.0,0.0,0.0,0.0,0.0,0.0,0.0,0.05381672456860542,0.02444511093199253,0.01914828270673752,0.8943776488304138,0.014800013042986393,-0.12329621613025665,-0.429715633392334
851.0,0.0,0.0,0.0,0.0,0.0,0.0,0.07535332441329956,0.037140924483537674,0.009854610078036785,0.8934426307678223,0.013338059186935425,-0.12512560188770294,-0.4311780035495758
852.0,0.0,0.0,0.0,0.0,0.0,0.0,0.07791834324598312,0.03486199676990509,0.002678877906873822,0.892571747303009,0.011768821626901627,-0.1276979297399521,-0.43226900696754456
853.0,0.0,0.0,0.0,0.0,0.0,0.0,0.059237074106931686,0.07176129519939423,0.008915930986404419,0.8914370536804199,0.011274592019617558,-0.13007967174053192,-0.43389376997947693
854.0,0.0,0.0,0.0,0.0,0.0,0.0,-0.042812857776880264,0.1747753918170929,0.10058268159627914,0.8899850845336914,0.010487217456102371,-0.1312394142150879,-0.4365229308605194
855.0,0.0,0.0,0.0,0.0,0.0,0.0,0.007021724712103605,0.09139420092105865,0.03571068495512009,0.8896163105964661,0.010097584687173367,-0.13233481347560883,-0.4369736909866333
856.0,0.0,0.0,0.0,0.0,0.0,0.0,0.013794170692563057,0.10465672612190247,0.019970735535025597,0.890358030796051,0.008752381429076195,-0.13263967633247375,-0.4353641867637634
857.0,0.0,0.0,0.0,0.0,0.0,0.0,0.04272659495472908,0.1055527850985527,0.03235767409205437,0.8914665579795837,0.007681462913751602,-0.13172772526741028,-0.43342483043670654
858.0,0.0,0.0,0.0,0.0,0.0,0.0,0.0551677942276001,0.09593082964420319,0.06099396571516991,0.8922512531280518,0.007348956540226936,-0.1288992315530777,-0.4326736032962799
859.0,0.0,0.0,0.0,0.0,0.0,0.0,0.06374852359294891,0.06787269562482834,0.0664343610405922,0.8932485580444336,0.007836389355361462,-0.12424397468566895,-0.43194475769996643
860.0,0.0,0.0,0.0,0.0,0.0,0.0,0.07440777868032455,0.010005545802414417,0.042025886476039886,0.8946868181228638,0.007718466222286224,-0.11911340057849884,-0.43044230341911316
861.0,0.0,0.0,0.0,0.0,0.0,0.0,0.06009676679968834,-0.03426896035671234,0.0279658492654562,0.896495521068573,0.005129384342581034,-0.11250168085098267,-0.4284658133983612
862.0,0.0,0.0,0.0,0.0,0.0,0.0,0.09293345361948013,-0.07331620901823044,-0.010108894668519497,0.8983541131019592,0.004150030203163624,-0.10626131296157837,-0.42618346214294434
863.0,0.0,0.0,0.0,0.0,0.0,0.0,0.11342528462409973,-0.07604985684156418,-0.044121433049440384,0.8997617959976196,0.005502575077116489,-0.10126401484012604,-0.4244280159473419
864.0,0.0,0.0,0.0,0.0,0.0,0.0,0.11560294777154922,-0.0492171011865139,-0.019739560782909393,0.9013159871101379,0.006706829648464918,-0.09683968871831894,-0.4221248924732208
865.0,0.0,0.0,0.0,0.0,0.0,0.0,0.09502594918012619,-0.06529076397418976,-0.0009808631148189306,0.9022764563560486,0.007550576701760292,-0.09234050661325455,-0.4210338890552521
866.0,0.0,0.0,0.0,0.0,0.0,0.0,0.0704139769077301,-0.035546641796827316,-0.002304712077602744,0.9031258225440979,0.006881417240947485,-0.08754579722881317,-0.42028459906578064
867.0,0.0,0.0,0.0,0.0,0.0,0.0,0.09376903623342514,-0.00759133929386735,0.024346331134438515,0.9040620923042297,0.006293350365012884,-0.08289085328578949,-0.4192050099372864
868.0,0.0,0.0,0.0,0.0,0.0,0.0,0.12496516853570938,-0.07794447243213654,-0.008704235777258873,0.9044265747070312,0.0069658756256103516,-0.0796026811003685,-0.419071227312088
869.0,0.0,0.0,0.0,0.0,0.0,0.0,0.05199436843395233,-0.003714420832693577,-0.02507198601961136,0.904252290725708,0.004736842587590218,-0.07799136638641357,-0.419747531414032
870.0,0.0,0.0,0.0,0.0,0.0,0.0,-0.010260174050927162,0.03931618854403496,-0.0029299347661435604,0.9036916494369507,0.002270107390359044,-0.07682502269744873,-0.42120450735092163
871.0,0.0,0.0,0.0,0.0,0.0,0.0,0.1263282597064972,0.10880771279335022,-0.07080474495887756,0.9039619565010071,0.005509434267878532,-0.0787021741271019,-0.42025265097618103
872.0,0.0,0.0,0.0,0.0,0.0,0.0,0.19162356853485107,-0.07529827952384949,-0.09289330244064331,0.9036955237388611,0.006575409788638353,-0.08459934592247009,-0.41966044902801514
873.0,0.0,0.0,0.0,0.0,0.0,0.0,0.1601864993572235,-0.062476955354213715,-0.10766345262527466,0.9023123979568481,0.003934838343411684,-0.09439422190189362,-0.4205585718154907
874.0,0.0,0.0,0.0,0.0,0.0,0.0,0.00612316420301795,0.04533012956380844,-0.028435271233320236,0.9002605676651001,0.0004215528315398842,-0.1034238189458847,-0.422873318195343
875.0,0.0,0.0,0.0,0.0,0.0,0.0,-0.17549431324005127,0.2470826506614685,0.13442732393741608,0.8992679119110107,-0.004829803016036749,-0.10865263640880585,-0.4236365556716919
876.0,0.0,0.0,0.0,0.0,0.0,0.0,-0.2365127056837082,0.31498560309410095,0.16283538937568665,0.9002783894538879,-0.009468238800764084,-0.10790801048278809,-0.42159050703048706
877.0,0.0,0.0,0.0,0.0,0.0,0.0,-0.1565675586462021,0.39896252751350403,0.16126567125320435,0.903093695640564,-0.009354591369628906,-0.09638645499944687,-0.41833996772766113
878.0,0.0,0.0,0.0,0.0,0.0,0.0,-0.026546744629740715,0.24839696288108826,0.11244235187768936,0.9046686291694641,-0.0047637647949159145,-0.08115967363119125,-0.4182598888874054
879.0,0.0,0.0,0.0,0.0,0.0,0.0,-0.04697287082672119,0.02138054557144642,0.08226288110017776,0.9034065008163452,-0.004319244995713234,-0.0726584643125534,-0.4225177764892578
880.0,0.0,0.0,0.0,0.0,0.0,0.0,0.13298194110393524,-0.19077487289905548,-0.1573006808757782,0.9032970070838928,-0.00680291373282671,-0.07297462224960327,-0.4226853549480438
881.0,0.0,0.0,0.0,0.0,0.0,0.0,0.18634304404258728,-0.22455912828445435,-0.1432582437992096,0.9049025774002075,-0.0076824151910841465,-0.07015185058116913,-0.41970837116241455
882.0,0.0,0.0,0.0,0.0,0.0,0.0,0.10366661846637726,-0.0437382273375988,-0.04376029968261719,0.9062300324440002,-0.004343620501458645,-0.06419938057661057,-0.41783538460731506
883.0,0.0,0.0,0.0,0.0,0.0,0.0,0.15994340181350708,-0.06786726415157318,-0.10293194651603699,0.9071207046508789,0.003677956061437726,-0.059074193239212036,-0.41667112708091736
884.0,0.0,0.0,0.0,0.0,0.0,0.0,0.134575754404068,-0.10752158612012863,-0.08077535778284073,0.9065002799034119,0.011240742169320583,-0.05325665697455406,-0.418648362159729
885.0,0.0,0.0,0.0,0.0,0.0,0.0,0.08595661073923111,-0.07354262471199036,-0.09131776541471481,0.9044933319091797,0.014787332154810429,-0.04987724870443344,-0.4232960641384125
886.0,0.0,0.0,0.0,0.0,0.0,0.0,-0.008829953148961067,-0.016915155574679375,-0.047724585980176926,0.9026480317115784,0.011070440523326397,-0.054185010492801666,-0.42677730321884155
887.0,0.0,0.0,0.0,0.0,0.0,0.0,-0.1198020651936531,0.1484021097421646,0.1524926871061325,0.9021413922309875,0.004002600442618132,-0.062017425894737244,-0.4269016683101654
888.0,0.0,0.0,0.0,0.0,0.0,0.0,-0.03318289667367935,0.09759402275085449,0.10004114359617233,0.9026362299919128,-0.0007898173644207418,-0.06751961261034012,-0.42504265904426575
889.0,0.0,0.0,0.0,0.0,0.0,0.0,0.04185386747121811,0.058588411659002304,0.02962372824549675,0.9023422002792358,-0.004324681591242552,-0.0714411810040474,-0.4249838888645172
