,Position_X,Position_Y,Position_Z,Velocity_X,Velocity_Y,Velocity_Z,Acceleration_X,Acceleration_Y,Acceleration_Z,Quaterion_0,Quaterion_1,Quaterion_2,Quaterion_3
90,0.0,0.0,0.0,0.0,0.0,0.0,-0.8289,-0.4588,-0.3609,0.5888,-0.3059,0.7473,0.0354
91,0.0,0.0,0.0,0.0,0.0,0.0,-0.8305,-0.4112,-0.3634,0.5892,-0.3065,0.7468,0.0348
92,0.0,0.0,0.0,0.0,0.0,0.0,-0.8205,-0.4134,-0.3666,0.5893,-0.3073,0.7464,0.0345
93,0.0,0.0,0.0,0.0,0.0,0.0,-0.8237,-0.4032,-0.3697,0.5891,-0.3077,0.7464,0.0340
94,0.0,0.0,0.0,0.0,0.0,0.0,-0.8268,-0.3936,-0.3651,0.5888,-0.3082,0.7465,0.0339
95,0.0,0.0,0.0,0.0,0.0,0.0,-0.8331,-0.3971,-0.3630,0.5884,-0.3088,0.7465,0.0342
96,0.0,0.0,0.0,0.0,0.0,0.0,-0.8313,-0.4000,-0.3641,0.5880,-0.3093,0.7466,0.0346
97,0.0,0.0,0.0,0.0,0.0,0.0,-0.8305,-0.4077,-0.3662,0.5877,-0.3100,0.7465,0.0351
98,0.0,0.0,0.0,0.0,0.0,0.0,-0.8314,-0.4033,-0.3685,0.5873,-0.3105,0.7466,0.0357
99,0.0,0.0,0.0,0.0,0.0,0.0,-0.8337,-0.3985,-0.3669,0.5868,-0.3105,0.7470,0.0360
100,0.0,0.0,0.0,0.0,0.0,0.0,-0.8366,-0.4005,-0.3649,0.5864,-0.3108,0.7471,0.0366
101,0.0,0.0,0.0,0.0,0.0,0.0,-0.8366,-0.4001,-0.3644,0.5862,-0.3112,0.7470,0.0374
102,0.0,0.0,0.0,0.0,0.0,0.0,-0.8366,-0.4001,-0.3640,0.5861,-0.3114,0.7471,0.0379
103,0.0,0.0,0.0,0.0,0.0,0.0,-0.8370,-0.3996,-0.3625,0.5860,-0.3116,0.7470,0.0383
104,0.0,0.0,0.0,0.0,0.0,0.0,-0.8379,-0.3982,-0.3610,0.5861,-0.3118,0.7469,0.0386
105,0.0,0.0,0.0,0.0,0.0,0.0,-0.8374,-0.3982,-0.3595,0.5863,-0.3119,0.7466,0.0389
106,0.0,0.0,0.0,0.0,0.0,0.0,-0.8354,-0.3948,-0.3600,0.5865,-0.3119,0.7465,0.0390
107,0.0,0.0,0.0,0.0,0.0,0.0,-0.8359,-0.3939,-0.3595,0.5866,-0.3119,0.7464,0.0389
108,0.0,0.0,0.0,0.0,0.0,0.0,-0.8363,-0.3929,-0.3590,0.5867,-0.3119,0.7463,0.0388
109,0.0,0.0,0.0,0.0,0.0,0.0,-0.8373,-0.3929,-0.3604,0.5868,-0.3121,0.7462,0.0389
110,0.0,0.0,0.0,0.0,0.0,0.0,-0.8378,-0.3939,-0.3604,0.5868,-0.3119,0.7463,0.0385
111,0.0,0.0,0.0,0.0,0.0,0.0,-0.8360,-0.3948,-0.3619,0.5867,-0.3114,0.7466,0.0380
112,0.0,0.0,0.0,0.0,0.0,0.0,-0.8355,-0.3952,-0.3634,0.5865,-0.3109,0.7469,0.0375
113,0.0,0.0,0.0,0.0,0.0,0.0,-0.8355,-0.3943,-0.3629,0.5865,-0.3106,0.7471,0.0372
114,0.0,0.0,0.0,0.0,0.0,0.0,-0.8374,-0.3943,-0.3638,0.5865,-0.3102,0.7473,0.0371
115,0.0,0.0,0.0,0.0,0.0,0.0,-0.8380,-0.3948,-0.3643,0.5865,-0.3098,0.7474,0.0371
116,0.0,0.0,0.0,0.0,0.0,0.0,-0.8380,-0.3987,-0.3634,0.5866,-0.3097,0.7474,0.0371
117,0.0,0.0,0.0,0.0,0.0,0.0,-0.8419,-0.4125,-0.3553,0.5869,-0.3097,0.7472,0.0369
118,0.0,0.0,0.0,0.0,0.0,0.0,-0.8344,-0.4576,-0.3525,0.5879,-0.3104,0.7462,0.0362
119,0.0,0.0,0.0,0.0,0.0,0.0,-0.8393,-0.3959,-0.3575,0.5886,-0.3102,0.7457,0.0353
120,0.0,0.0,0.0,0.0,0.0,0.0,-0.8336,-0.3996,-0.3592,0.5889,-0.3102,0.7455,0.0346
121,0.0,0.0,0.0,0.0,0.0,0.0,-0.8262,-0.3873,-0.3636,0.5888,-0.3100,0.7457,0.0337
122,0.0,0.0,0.0,0.0,0.0,0.0,-0.8310,-0.3884,-0.3610,0.5887,-0.3106,0.7455,0.0334
123,0.0,0.0,0.0,0.0,0.0,0.0,-0.8331,-0.4060,-0.3569,0.5888,-0.3116,0.7451,0.0333
124,0.0,0.0,0.0,0.0,0.0,0.0,-0.8328,-0.4137,-0.3580,0.5889,-0.3126,0.7445,0.0333
125,0.0,0.0,0.0,0.0,0.0,0.0,-0.8303,-0.4039,-0.3618,0.5889,-0.3134,0.7442,0.0334
126,0.0,0.0,0.0,0.0,0.0,0.0,-0.8307,-0.3981,-0.3602,0.5888,-0.3140,0.7441,0.0335
127,0.0,0.0,0.0,0.0,0.0,0.0,-0.8364,-0.3987,-0.3591,0.5885,-0.3142,0.7442,0.0336
128,0.0,0.0,0.0,0.0,0.0,0.0,-0.8374,-0.3978,-0.3595,0.5884,-0.3143,0.7442,0.0341
129,0.0,0.0,0.0,0.0,0.0,0.0,-0.8408,-0.3993,-0.3590,0.5883,-0.3147,0.7441,0.0350
130,0.0,0.0,0.0,0.0,0.0,0.0,-0.8423,-0.4022,-0.3585,0.5884,-0.3150,0.7438,0.0359
131,0.0,0.0,0.0,0.0,0.0,0.0,-0.8423,-0.4022,-0.3570,0.5885,-0.3154,0.7435,0.0367
132,0.0,0.0,0.0,0.0,0.0,0.0,-0.8412,-0.4013,-0.3556,0.5888,-0.3155,0.7432,0.0372
133,0.0,0.0,0.0,0.0,0.0,0.0,-0.8411,-0.3950,-0.3545,0.5890,-0.3154,0.7431,0.0376
134,0.0,0.0,0.0,0.0,0.0,0.0,-0.8357,-0.3906,-0.3536,0.5892,-0.3152,0.7430,0.0380
135,0.0,0.0,0.0,0.0,0.0,0.0,-0.8429,-0.3912,-0.3525,0.5893,-0.3144,0.7433,0.0376
136,0.0,0.0,0.0,0.0,0.0,0.0,-0.8414,-0.3887,-0.3529,0.5894,-0.3138,0.7434,0.0377
137,0.0,0.0,0.0,0.0,0.0,0.0,-0.8342,-0.3876,-0.3546,0.5896,-0.3140,0.7432,0.0382
138,0.0,0.0,0.0,0.0,0.0,0.0,-0.8362,-0.3891,-0.3555,0.5896,-0.3139,0.7432,0.0383
139,0.0,0.0,0.0,0.0,0.0,0.0,-0.8357,-0.3876,-0.3560,0.5894,-0.3138,0.7434,0.0384
140,0.0,0.0,0.0,0.0,0.0,0.0,-0.8367,-0.3881,-0.3570,0.5892,-0.3138,0.7436,0.0387
141,0.0,0.0,0.0,0.0,0.0,0.0,-0.8372,-0.3891,-0.3574,0.5889,-0.3139,0.7437,0.0391
142,0.0,0.0,0.0,0.0,0.0,0.0,-0.8372,-0.3910,-0.3570,0.5886,-0.3139,0.7439,0.0392
143,0.0,0.0,0.0,0.0,0.0,0.0,-0.8373,-0.3978,-0.3557,0.5884,-0.3137,0.7442,0.0392
144,0.0,0.0,0.0,0.0,0.0,0.0,-0.8399,-0.4071,-0.3538,0.5883,-0.3137,0.7443,0.0393
145,0.0,0.0,0.0,0.0,0.0,0.0,-0.8379,-0.4669,-0.3467,0.5890,-0.3148,0.7433,0.0389
146,0.0,0.0,0.0,0.0,0.0,0.0,-0.8533,-0.4366,-0.3481,0.5900,-0.3152,0.7423,0.0381
147,0.0,0.0,0.0,0.0,0.0,0.0,-0.8261,-0.4225,-0.3531,0.5908,-0.3161,0.7413,0.0381
148,0.0,0.0,0.0,0.0,0.0,0.0,-0.8236,-0.4097,-0.3587,0.5912,-0.3163,0.7410,0.0370
149,0.0,0.0,0.0,0.0,0.0,0.0,-0.8284,-0.3826,-0.3595,0.5911,-0.3161,0.7412,0.0360
150,0.0,0.0,0.0,0.0,0.0,0.0,-0.8317,-0.4020,-0.3612,0.5909,-0.3168,0.7411,0.0356
151,0.0,0.0,0.0,0.0,0.0,0.0,-0.8301,-0.4190,-0.3616,0.5909,-0.3177,0.7408,0.0352
152,0.0,0.0,0.0,0.0,0.0,0.0,-0.8219,-0.4120,-0.3656,0.5906,-0.3179,0.7410,0.0346
153,0.0,0.0,0.0,0.0,0.0,0.0,-0.8125,-0.3977,-0.3705,0.5899,-0.3181,0.7414,0.0342
154,0.0,0.0,0.0,0.0,0.0,0.0,-0.8143,-0.3909,-0.3693,0.5890,-0.3187,0.7419,0.0342
155,0.0,0.0,0.0,0.0,0.0,0.0,-0.8244,-0.3886,-0.3690,0.5879,-0.3191,0.7426,0.0343
156,0.0,0.0,0.0,0.0,0.0,0.0,-0.8356,-0.3912,-0.3696,0.5870,-0.3196,0.7430,0.0348
157,0.0,0.0,0.0,0.0,0.0,0.0,-0.8426,-0.4000,-0.3710,0.5863,-0.3205,0.7432,0.0356
158,0.0,0.0,0.0,0.0,0.0,0.0,-0.8432,-0.4078,-0.3707,0.5855,-0.3210,0.7435,0.0359
159,0.0,0.0,0.0,0.0,0.0,0.0,-0.8377,-0.4078,-0.3655,0.5851,-0.3219,0.7435,0.0365
160,0.0,0.0,0.0,0.0,0.0,0.0,-0.8371,-0.3996,-0.3644,0.5850,-0.3230,0.7430,0.0374
161,0.0,0.0,0.0,0.0,0.0,0.0,-0.8420,-0.3986,-0.3691,0.5848,-0.3238,0.7428,0.0380
162,0.0,0.0,0.0,0.0,0.0,0.0,-0.8398,-0.4073,-0.3712,0.5846,-0.3247,0.7425,0.0385
163,0.0,0.0,0.0,0.0,0.0,0.0,-0.8318,-0.4188,-0.3703,0.5844,-0.3258,0.7422,0.0388
164,0.0,0.0,0.0,0.0,0.0,0.0,-0.8250,-0.4241,-0.3681,0.5845,-0.3269,0.7416,0.0390
165,0.0,0.0,0.0,0.0,0.0,0.0,-0.8220,-0.4227,-0.3653,0.5849,-0.3278,0.7409,0.0390
166,0.0,0.0,0.0,0.0,0.0,0.0,-0.8244,-0.4198,-0.3666,0.5852,-0.3283,0.7405,0.0385
167,0.0,0.0,0.0,0.0,0.0,0.0,-0.8234,-0.4144,-0.3671,0.5854,-0.3284,0.7403,0.0377
168,0.0,0.0,0.0,0.0,0.0,0.0,-0.8248,-0.4125,-0.3660,0.5856,-0.3286,0.7400,0.0372
169,0.0,0.0,0.0,0.0,0.0,0.0,-0.8310,-0.4101,-0.3667,0.5859,-0.3286,0.7398,0.0369
170,0.0,0.0,0.0,0.0,0.0,0.0,-0.8327,-0.4169,-0.3692,0.5861,-0.3285,0.7398,0.0364
171,0.0,0.0,0.0,0.0,0.0,0.0,-0.8241,-0.4250,-0.3701,0.5863,-0.3286,0.7396,0.0360
172,0.0,0.0,0.0,0.0,0.0,0.0,-0.8174,-0.4249,-0.3718,0.5866,-0.3288,0.7393,0.0357
173,0.0,0.0,0.0,0.0,0.0,0.0,-0.8159,-0.4244,-0.3713,0.5868,-0.3288,0.7391,0.0354
174,0.0,0.0,0.0,0.0,0.0,0.0,-0.8192,-0.4182,-0.3697,0.5869,-0.3283,0.7393,0.0347
175,0.0,0.0,0.0,0.0,0.0,0.0,-0.8292,-0.4125,-0.3683,0.5869,-0.3275,0.7397,0.0336
176,0.0,0.0,0.0,0.0,0.0,0.0,-0.8360,-0.4146,-0.3667,0.5871,-0.3270,0.7398,0.0330
177,0.0,0.0,0.0,0.0,0.0,0.0,-0.8316,-0.4170,-0.3649,0.5874,-0.3271,0.7395,0.0329
178,0.0,0.0,0.0,0.0,0.0,0.0,-0.8237,-0.4106,-0.3626,0.5877,-0.3273,0.7392,0.0329
179,0.0,0.0,0.0,0.0,0.0,0.0,-0.8239,-0.3941,-0.3618,0.5878,-0.3273,0.7391,0.0327
180,0.0,0.0,0.0,0.0,0.0,0.0,-0.8292,-0.3903,-0.3640,0.5877,-0.3276,0.7390,0.0330
181,0.0,0.0,0.0,0.0,0.0,0.0,-0.8292,-0.3912,-0.3664,0.5874,-0.3282,0.7390,0.0337
182,0.0,0.0,0.0,0.0,0.0,0.0,-0.8275,-0.4013,-0.3681,0.5870,-0.3292,0.7388,0.0345
183,0.0,0.0,0.0,0.0,0.0,0.0,-0.8258,-0.4124,-0.3698,0.5865,-0.3303,0.7388,0.0350
184,0.0,0.0,0.0,0.0,0.0,0.0,-0.8197,-0.4132,-0.3744,0.5857,-0.3315,0.7387,0.0358
185,0.0,0.0,0.0,0.0,0.0,0.0,-0.8164,-0.4136,-0.3779,0.5850,-0.3328,0.7387,0.0367
186,0.0,0.0,0.0,0.0,0.0,0.0,-0.8051,-0.4245,-0.3814,0.5841,-0.3342,0.7388,0.0376
187,0.0,0.0,0.0,0.0,0.0,0.0,-0.8145,-0.4368,-0.3837,0.5834,-0.3356,0.7386,0.0382
188,0.0,0.0,0.0,0.0,0.0,0.0,-0.8202,-0.4340,-0.3815,0.5829,-0.3364,0.7386,0.0385
189,0.0,0.0,0.0,0.0,0.0,0.0,-0.8196,-0.4252,-0.3814,0.5825,-0.3365,0.7389,0.0382
190,0.0,0.0,0.0,0.0,0.0,0.0,-0.8257,-0.4156,-0.3830,0.5823,-0.3364,0.7391,0.0382
191,0.0,0.0,0.0,0.0,0.0,0.0,-0.8282,-0.4200,-0.3806,0.5823,-0.3367,0.7390,0.0386
192,0.0,0.0,0.0,0.0,0.0,0.0,-0.8265,-0.4361,-0.3785,0.5827,-0.3375,0.7383,0.0393
193,0.0,0.0,0.0,0.0,0.0,0.0,-0.8256,-0.4365,-0.3814,0.5831,-0.3381,0.7377,0.0395
194,0.0,0.0,0.0,0.0,0.0,0.0,-0.8122,-0.4203,-0.3801,0.5831,-0.3383,0.7375,0.0397
195,0.0,0.0,0.0,0.0,0.0,0.0,-0.8037,-0.4304,-0.3806,0.5832,-0.3390,0.7372,0.0397
196,0.0,0.0,0.0,0.0,0.0,0.0,-0.8056,-0.4299,-0.3805,0.5833,-0.3397,0.7368,0.0398
197,0.0,0.0,0.0,0.0,0.0,0.0,-0.8089,-0.4271,-0.3779,0.5834,-0.3398,0.7366,0.0395
198,0.0,0.0,0.0,0.0,0.0,0.0,-0.8093,-0.4266,-0.3769,0.5834,-0.3397,0.7367,0.0390
199,0.0,0.0,0.0,0.0,0.0,0.0,-0.8142,-0.4277,-0.3763,0.5833,-0.3399,0.7367,0.0390
200,0.0,0.0,0.0,0.0,0.0,0.0,-0.8166,-0.4267,-0.3762,0.5834,-0.3398,0.7367,0.0390
201,0.0,0.0,0.0,0.0,0.0,0.0,-0.8198,-0.4176,-0.3759,0.5833,-0.3393,0.7369,0.0388
202,0.0,0.0,0.0,0.0,0.0,0.0,-0.8216,-0.4123,-0.3743,0.5833,-0.3386,0.7373,0.0386
203,0.0,0.0,0.0,0.0,0.0,0.0,-0.8264,-0.4109,-0.3756,0.5831,-0.3380,0.7378,0.0388
204,0.0,0.0,0.0,0.0,0.0,0.0,-0.8350,-0.4076,-0.3738,0.5830,-0.3376,0.7379,0.0396
205,0.0,0.0,0.0,0.0,0.0,0.0,-0.8298,-0.4124,-0.3731,0.5829,-0.3370,0.7382,0.0403
206,0.0,0.0,0.0,0.0,0.0,0.0,-0.8231,-0.4196,-0.3725,0.5828,-0.3365,0.7386,0.0407
207,0.0,0.0,0.0,0.0,0.0,0.0,-0.8222,-0.4245,-0.3711,0.5828,-0.3364,0.7386,0.0414
208,0.0,0.0,0.0,0.0,0.0,0.0,-0.8193,-0.4255,-0.3693,0.5830,-0.3360,0.7386,0.0417
209,0.0,0.0,0.0,0.0,0.0,0.0,-0.8187,-0.4221,-0.3683,0.5831,-0.3354,0.7388,0.0417
210,0.0,0.0,0.0,0.0,0.0,0.0,-0.8154,-0.4235,-0.3689,0.5833,-0.3350,0.7388,0.0417
211,0.0,0.0,0.0,0.0,0.0,0.0,-0.8116,-0.4243,-0.3720,0.5834,-0.3346,0.7389,0.0412
212,0.0,0.0,0.0,0.0,0.0,0.0,-0.8218,-0.4264,-0.3731,0.5835,-0.3341,0.7391,0.0407
213,0.0,0.0,0.0,0.0,0.0,0.0,-0.8299,-0.4222,-0.3718,0.5837,-0.3335,0.7393,0.0401
214,0.0,0.0,0.0,0.0,0.0,0.0,-0.8236,-0.4211,-0.3706,0.5839,-0.3329,0.7393,0.0396
215,0.0,0.0,0.0,0.0,0.0,0.0,-0.8231,-0.4231,-0.3696,0.5843,-0.3323,0.7393,0.0390
216,0.0,0.0,0.0,0.0,0.0,0.0,-0.8226,-0.4250,-0.3682,0.5846,-0.3315,0.7395,0.0382
217,0.0,0.0,0.0,0.0,0.0,0.0,-0.8245,-0.4227,-0.3667,0.5851,-0.3309,0.7394,0.0378
218,0.0,0.0,0.0,0.0,0.0,0.0,-0.8263,-0.4164,-0.3646,0.5856,-0.3301,0.7395,0.0373
219,0.0,0.0,0.0,0.0,0.0,0.0,-0.8199,-0.4110,-0.3652,0.5857,-0.3292,0.7398,0.0367
220,0.0,0.0,0.0,0.0,0.0,0.0,-0.8239,-0.4149,-0.3666,0.5858,-0.3285,0.7400,0.0363
221,0.0,0.0,0.0,0.0,0.0,0.0,-0.8255,-0.4182,-0.3704,0.5858,-0.3278,0.7403,0.0360
222,0.0,0.0,0.0,0.0,0.0,0.0,-0.8213,-0.4249,-0.3736,0.5856,-0.3272,0.7408,0.0356
223,0.0,0.0,0.0,0.0,0.0,0.0,-0.8180,-0.4278,-0.3723,0.5854,-0.3266,0.7413,0.0348
224,0.0,0.0,0.0,0.0,0.0,0.0,-0.8208,-0.4279,-0.3717,0.5852,-0.3258,0.7418,0.0338
225,0.0,0.0,0.0,0.0,0.0,0.0,-0.8203,-0.4269,-0.3717,0.5850,-0.3250,0.7423,0.0329
226,0.0,0.0,0.0,0.0,0.0,0.0,-0.8198,-0.4215,-0.3717,0.5849,-0.3243,0.7428,0.0320
227,0.0,0.0,0.0,0.0,0.0,0.0,-0.8163,-0.4186,-0.3727,0.5847,-0.3236,0.7432,0.0311
228,0.0,0.0,0.0,0.0,0.0,0.0,-0.8163,-0.4147,-0.3736,0.5846,-0.3231,0.7436,0.0305
229,0.0,0.0,0.0,0.0,0.0,0.0,-0.8135,-0.4185,-0.3752,0.5845,-0.3233,0.7436,0.0304
230,0.0,0.0,0.0,0.0,0.0,0.0,-0.8189,-0.4185,-0.3765,0.5845,-0.3236,0.7434,0.0304
231,0.0,0.0,0.0,0.0,0.0,0.0,-0.8199,-0.4175,-0.3793,0.5842,-0.3236,0.7437,0.0301
232,0.0,0.0,0.0,0.0,0.0,0.0,-0.8189,-0.4155,-0.3813,0.5837,-0.3236,0.7441,0.0297
233,0.0,0.0,0.0,0.0,0.0,0.0,-0.8174,-0.4131,-0.3817,0.5834,-0.3239,0.7442,0.0298
234,0.0,0.0,0.0,0.0,0.0,0.0,-0.8145,-0.4115,-0.3823,0.5830,-0.3242,0.7444,0.0299
235,0.0,0.0,0.0,0.0,0.0,0.0,-0.8161,-0.4139,-0.3847,0.5826,-0.3246,0.7445,0.0302
236,0.0,0.0,0.0,0.0,0.0,0.0,-0.8230,-0.4213,-0.3846,0.5824,-0.3252,0.7444,0.0307
237,0.0,0.0,0.0,0.0,0.0,0.0,-0.8201,-0.4237,-0.3852,0.5822,-0.3255,0.7444,0.0310
238,0.0,0.0,0.0,0.0,0.0,0.0,-0.8225,-0.4267,-0.3818,0.5822,-0.3261,0.7441,0.0315
239,0.0,0.0,0.0,0.0,0.0,0.0,-0.8226,-0.4414,-0.3763,0.5826,-0.3267,0.7435,0.0318
240,0.0,0.0,0.0,0.0,0.0,0.0,-0.8207,-0.4374,-0.3777,0.5833,-0.3273,0.7427,0.0320
241,0.0,0.0,0.0,0.0,0.0,0.0,-0.8240,-0.4015,-0.3804,0.5837,-0.3273,0.7424,0.0325
242,0.0,0.0,0.0,0.0,0.0,0.0,-0.8181,-0.4054,-0.3743,0.5841,-0.3273,0.7421,0.0330
243,0.0,0.0,0.0,0.0,0.0,0.0,-0.8168,-0.4220,-0.3684,0.5847,-0.3276,0.7414,0.0334
244,0.0,0.0,0.0,0.0,0.0,0.0,-0.8165,-0.4124,-0.3658,0.5852,-0.3280,0.7408,0.0338
245,0.0,0.0,0.0,0.0,0.0,0.0,-0.8199,-0.4130,-0.3633,0.5856,-0.3285,0.7403,0.0344
246,0.0,0.0,0.0,0.0,0.0,0.0,-0.8148,-0.4260,-0.3632,0.5858,-0.3294,0.7396,0.0350
247,0.0,0.0,0.0,0.0,0.0,0.0,-0.8155,-0.4357,-0.3638,0.5863,-0.3305,0.7388,0.0355
248,0.0,0.0,0.0,0.0,0.0,0.0,-0.8250,-0.4290,-0.3648,0.5867,-0.3312,0.7381,0.0355
249,0.0,0.0,0.0,0.0,0.0,0.0,-0.8203,-0.4333,-0.3636,0.5870,-0.3322,0.7374,0.0357
250,0.0,0.0,0.0,0.0,0.0,0.0,-0.8181,-0.4494,-0.3611,0.5874,-0.3334,0.7366,0.0360
251,0.0,0.0,0.0,0.0,0.0,0.0,-0.8174,-0.4353,-0.3633,0.5877,-0.3343,0.7359,0.0359
252,0.0,0.0,0.0,0.0,0.0,0.0,-0.8197,-0.4265,-0.3640,0.5878,-0.3348,0.7356,0.0358
253,0.0,0.0,0.0,0.0,0.0,0.0,-0.8159,-0.4318,-0.3637,0.5877,-0.3349,0.7356,0.0356
254,0.0,0.0,0.0,0.0,0.0,0.0,-0.8034,-0.4375,-0.3623,0.5877,-0.3353,0.7355,0.0355
255,0.0,0.0,0.0,0.0,0.0,0.0,-0.8098,-0.4473,-0.3623,0.5878,-0.3356,0.7353,0.0353
256,0.0,0.0,0.0,0.0,0.0,0.0,-0.8157,-0.4498,-0.3612,0.5879,-0.3355,0.7353,0.0346
257,0.0,0.0,0.0,0.0,0.0,0.0,-0.8184,-0.4406,-0.3614,0.5882,-0.3352,0.7352,0.0340
258,0.0,0.0,0.0,0.0,0.0,0.0,-0.8238,-0.4198,-0.3618,0.5882,-0.3345,0.7355,0.0335
259,0.0,0.0,0.0,0.0,0.0,0.0,-0.8175,-0.4222,-0.3591,0.5882,-0.3337,0.7359,0.0333
260,0.0,0.0,0.0,0.0,0.0,0.0,-0.8067,-0.4386,-0.3583,0.5880,-0.3334,0.7362,0.0330
261,0.0,0.0,0.0,0.0,0.0,0.0,-0.8053,-0.4682,-0.3584,0.5879,-0.3334,0.7363,0.0321
262,0.0,0.0,0.0,0.0,0.0,0.0,-0.8161,-0.4653,-0.3672,0.5878,-0.3332,0.7365,0.0308
263,0.0,0.0,0.0,0.0,0.0,0.0,-0.8245,-0.4182,-0.3700,0.5873,-0.3320,0.7375,0.0293
264,0.0,0.0,0.0,0.0,0.0,0.0,-0.8100,-0.4225,-0.3667,0.5864,-0.3311,0.7387,0.0282
265,0.0,0.0,0.0,0.0,0.0,0.0,-0.8120,-0.4200,-0.3709,0.5856,-0.3308,0.7395,0.0278
266,0.0,0.0,0.0,0.0,0.0,0.0,-0.8160,-0.4224,-0.3747,0.5847,-0.3307,0.7403,0.0281
267,0.0,0.0,0.0,0.0,0.0,0.0,-0.8190,-0.4307,-0.3752,0.5839,-0.3306,0.7409,0.0283
268,0.0,0.0,0.0,0.0,0.0,0.0,-0.8149,-0.4457,-0.3727,0.5835,-0.3307,0.7411,0.0287
269,0.0,0.0,0.0,0.0,0.0,0.0,-0.8121,-0.4471,-0.3753,0.5834,-0.3307,0.7413,0.0287
270,0.0,0.0,0.0,0.0,0.0,0.0,-0.8178,-0.4374,-0.3793,0.5831,-0.3305,0.7416,0.0283
271,0.0,0.0,0.0,0.0,0.0,0.0,-0.8190,-0.4218,-0.3818,0.5828,-0.3300,0.7421,0.0280
272,0.0,0.0,0.0,0.0,0.0,0.0,-0.8194,-0.4175,-0.3803,0.5826,-0.3297,0.7424,0.0280
273,0.0,0.0,0.0,0.0,0.0,0.0,-0.8175,-0.4204,-0.3799,0.5825,-0.3299,0.7424,0.0284
274,0.0,0.0,0.0,0.0,0.0,0.0,-0.8134,-0.4320,-0.3788,0.5823,-0.3303,0.7423,0.0289
275,0.0,0.0,0.0,0.0,0.0,0.0,-0.8125,-0.4387,-0.3799,0.5823,-0.3309,0.7420,0.0294
276,0.0,0.0,0.0,0.0,0.0,0.0,-0.8155,-0.4417,-0.3794,0.5824,-0.3315,0.7417,0.0298
277,0.0,0.0,0.0,0.0,0.0,0.0,-0.8110,-0.4378,-0.3790,0.5825,-0.3316,0.7415,0.0299
278,0.0,0.0,0.0,0.0,0.0,0.0,-0.8090,-0.4339,-0.3790,0.5825,-0.3315,0.7416,0.0298
279,0.0,0.0,0.0,0.0,0.0,0.0,-0.8091,-0.4373,-0.3781,0.5825,-0.3317,0.7415,0.0302
280,0.0,0.0,0.0,0.0,0.0,0.0,-0.8101,-0.4373,-0.3785,0.5824,-0.3316,0.7415,0.0305
281,0.0,0.0,0.0,0.0,0.0,0.0,-0.8109,-0.4339,-0.3765,0.5823,-0.3312,0.7418,0.0306
282,0.0,0.0,0.0,0.0,0.0,0.0,-0.8090,-0.4329,-0.3766,0.5822,-0.3310,0.7419,0.0311
283,0.0,0.0,0.0,0.0,0.0,0.0,-0.8109,-0.4325,-0.3765,0.5822,-0.3310,0.7420,0.0316
284,0.0,0.0,0.0,0.0,0.0,0.0,-0.8133,-0.4335,-0.3769,0.5821,-0.3307,0.7421,0.0320
285,0.0,0.0,0.0,0.0,0.0,0.0,-0.8148,-0.4320,-0.3778,0.5819,-0.3304,0.7425,0.0322
286,0.0,0.0,0.0,0.0,0.0,0.0,-0.8147,-0.4287,-0.3763,0.5818,-0.3304,0.7425,0.0326
287,0.0,0.0,0.0,0.0,0.0,0.0,-0.8147,-0.4321,-0.3749,0.5818,-0.3305,0.7424,0.0333
288,0.0,0.0,0.0,0.0,0.0,0.0,-0.8118,-0.4301,-0.3769,0.5817,-0.3306,0.7424,0.0338
289,0.0,0.0,0.0,0.0,0.0,0.0,-0.8181,-0.4267,-0.3791,0.5816,-0.3304,0.7425,0.0341
290,0.0,0.0,0.0,0.0,0.0,0.0,-0.8206,-0.4292,-0.3790,0.5817,-0.3303,0.7426,0.0343
291,0.0,0.0,0.0,0.0,0.0,0.0,-0.8157,-0.4242,-0.3796,0.5815,-0.3299,0.7429,0.0340
292,0.0,0.0,0.0,0.0,0.0,0.0,-0.8175,-0.4209,-0.3790,0.5813,-0.3294,0.7433,0.0333
293,0.0,0.0,0.0,0.0,0.0,0.0,-0.8191,-0.4253,-0.3795,0.5813,-0.3293,0.7433,0.0332
294,0.0,0.0,0.0,0.0,0.0,0.0,-0.8171,-0.4228,-0.3790,0.5813,-0.3293,0.7433,0.0332
295,0.0,0.0,0.0,0.0,0.0,0.0,-0.8146,-0.4213,-0.3800,0.5812,-0.3292,0.7434,0.0329
296,0.0,0.0,0.0,0.0,0.0,0.0,-0.8133,-0.4242,-0.3816,0.5812,-0.3292,0.7435,0.0328
297,0.0,0.0,0.0,0.0,0.0,0.0,-0.8076,-0.4260,-0.3837,0.5810,-0.3292,0.7436,0.0325
298,0.0,0.0,0.0,0.0,0.0,0.0,-0.8085,-0.4270,-0.3837,0.5810,-0.3295,0.7435,0.0325
299,0.0,0.0,0.0,0.0,0.0,0.0,-0.8128,-0.4232,-0.3806,0.5809,-0.3299,0.7434,0.0325
300,0.0,0.0,0.0,0.0,0.0,0.0,-0.8107,-0.4139,-0.3844,0.5804,-0.3303,0.7436,0.0328
301,0.0,0.0,0.0,0.0,0.0,0.0,-0.8098,-0.4104,-0.3868,0.5798,-0.3304,0.7440,0.0331
302,0.0,0.0,0.0,0.0,0.0,0.0,-0.8059,-0.4109,-0.3859,0.5791,-0.3308,0.7444,0.0334
303,0.0,0.0,0.0,0.0,0.0,0.0,-0.8169,-0.4140,-0.3808,0.5783,-0.3311,0.7448,0.0338
304,0.0,0.0,0.0,0.0,0.0,0.0,-0.8259,-0.4089,-0.3766,0.5779,-0.3312,0.7451,0.0344
305,0.0,0.0,0.0,0.0,0.0,0.0,-0.8336,-0.4051,-0.3777,0.5776,-0.3315,0.7452,0.0355
306,0.0,0.0,0.0,0.0,0.0,0.0,-0.8400,-0.4110,-0.3781,0.5775,-0.3323,0.7448,0.0370
307,0.0,0.0,0.0,0.0,0.0,0.0,-0.8320,-0.4196,-0.3785,0.5776,-0.3334,0.7441,0.0387
308,0.0,0.0,0.0,0.0,0.0,0.0,-0.8263,-0.4253,-0.3807,0.5779,-0.3343,0.7435,0.0400
309,0.0,0.0,0.0,0.0,0.0,0.0,-0.8225,-0.4277,-0.3818,0.5782,-0.3352,0.7427,0.0411
310,0.0,0.0,0.0,0.0,0.0,0.0,-0.8201,-0.4237,-0.3828,0.5784,-0.3358,0.7423,0.0417
311,0.0,0.0,0.0,0.0,0.0,0.0,-0.8201,-0.4232,-0.3838,0.5785,-0.3360,0.7421,0.0416
312,0.0,0.0,0.0,0.0,0.0,0.0,-0.8186,-0.4203,-0.3833,0.5787,-0.3360,0.7419,0.0413
313,0.0,0.0,0.0,0.0,0.0,0.0,-0.8218,-0.4136,-0.3816,0.5791,-0.3359,0.7417,0.0411
314,0.0,0.0,0.0,0.0,0.0,0.0,-0.8235,-0.4064,-0.3795,0.5794,-0.3356,0.7416,0.0408
315,0.0,0.0,0.0,0.0,0.0,0.0,-0.8211,-0.4039,-0.3795,0.5797,-0.3351,0.7416,0.0406
316,0.0,0.0,0.0,0.0,0.0,0.0,-0.8265,-0.4084,-0.3799,0.5800,-0.3347,0.7416,0.0400
317,0.0,0.0,0.0,0.0,0.0,0.0,-0.8245,-0.4074,-0.3790,0.5805,-0.3344,0.7414,0.0396
318,0.0,0.0,0.0,0.0,0.0,0.0,-0.8235,-0.4098,-0.3766,0.5811,-0.3339,0.7411,0.0391
319,0.0,0.0,0.0,0.0,0.0,0.0,-0.8274,-0.4079,-0.3789,0.5816,-0.3335,0.7410,0.0385
320,0.0,0.0,0.0,0.0,0.0,0.0,-0.8093,-0.3960,-0.3788,0.5818,-0.3334,0.7409,0.0386
321,0.0,0.0,0.0,0.0,0.0,0.0,-0.8207,-0.4122,-0.3782,0.5821,-0.3333,0.7407,0.0382
322,0.0,0.0,0.0,0.0,0.0,0.0,-0.8271,-0.4152,-0.3786,0.5824,-0.3329,0.7407,0.0378
323,0.0,0.0,0.0,0.0,0.0,0.0,-0.8198,-0.4171,-0.3769,0.5828,-0.3325,0.7405,0.0377
324,0.0,0.0,0.0,0.0,0.0,0.0,-0.8222,-0.4191,-0.3754,0.5833,-0.3324,0.7402,0.0377
325,0.0,0.0,0.0,0.0,0.0,0.0,-0.8134,-0.4151,-0.3727,0.5837,-0.3323,0.7399,0.0376
326,0.0,0.0,0.0,0.0,0.0,0.0,-0.8365,-0.4066,-0.3767,0.5840,-0.3319,0.7399,0.0373
327,0.0,0.0,0.0,0.0,0.0,0.0,-0.8232,-0.3716,-0.3726,0.5838,-0.3312,0.7403,0.0375
328,0.0,0.0,0.0,0.0,0.0,0.0,-0.8147,-0.4118,-0.3697,0.5836,-0.3314,0.7404,0.0379
329,0.0,0.0,0.0,0.0,0.0,0.0,-0.8299,-0.4197,-0.3732,0.5837,-0.3317,0.7401,0.0382
330,0.0,0.0,0.0,0.0,0.0,0.0,-0.8239,-0.4080,-0.3718,0.5838,-0.3322,0.7398,0.0387
331,0.0,0.0,0.0,0.0,0.0,0.0,-0.8283,-0.4100,-0.3726,0.5837,-0.3325,0.7398,0.0392
332,0.0,0.0,0.0,0.0,0.0,0.0,-0.8251,-0.4211,-0.3715,0.5837,-0.3327,0.7396,0.0395
333,0.0,0.0,0.0,0.0,0.0,0.0,-0.8260,-0.4158,-0.3723,0.5838,-0.3329,0.7395,0.0398
334,0.0,0.0,0.0,0.0,0.0,0.0,-0.8211,-0.4148,-0.3720,0.5838,-0.3330,0.7394,0.0400
335,0.0,0.0,0.0,0.0,0.0,0.0,-0.8210,-0.4128,-0.3700,0.5838,-0.3330,0.7394,0.0402
336,0.0,0.0,0.0,0.0,0.0,0.0,-0.8224,-0.4154,-0.3656,0.5839,-0.3330,0.7393,0.0406
337,0.0,0.0,0.0,0.0,0.0,0.0,-0.8231,-0.4246,-0.3687,0.5840,-0.3328,0.7392,0.0405
338,0.0,0.0,0.0,0.0,0.0,0.0,-0.8358,-0.4068,-0.3680,0.5843,-0.3323,0.7393,0.0405
339,0.0,0.0,0.0,0.0,0.0,0.0,-0.8143,-0.3885,-0.3698,0.5841,-0.3316,0.7398,0.0404
340,0.0,0.0,0.0,0.0,0.0,0.0,-0.8264,-0.4154,-0.3689,0.5839,-0.3314,0.7400,0.0403
341,0.0,0.0,0.0,0.0,0.0,0.0,-0.8283,-0.4154,-0.3713,0.5840,-0.3314,0.7399,0.0405
342,0.0,0.0,0.0,0.0,0.0,0.0,-0.8258,-0.4100,-0.3717,0.5840,-0.3316,0.7398,0.0406
343,0.0,0.0,0.0,0.0,0.0,0.0,-0.8278,-0.4144,-0.3708,0.5839,-0.3318,0.7398,0.0408
344,0.0,0.0,0.0,0.0,0.0,0.0,-0.8231,-0.4197,-0.3705,0.5839,-0.3320,0.7397,0.0410
345,0.0,0.0,0.0,0.0,0.0,0.0,-0.8188,-0.4215,-0.3727,0.5838,-0.3320,0.7398,0.0410
346,0.0,0.0,0.0,0.0,0.0,0.0,-0.8232,-0.4250,-0.3697,0.5838,-0.3319,0.7399,0.0407
347,0.0,0.0,0.0,0.0,0.0,0.0,-0.8217,-0.4226,-0.3692,0.5838,-0.3317,0.7400,0.0404
348,0.0,0.0,0.0,0.0,0.0,0.0,-0.8211,-0.4172,-0.3706,0.5838,-0.3314,0.7401,0.0402
349,0.0,0.0,0.0,0.0,0.0,0.0,-0.8254,-0.4134,-0.3704,0.5840,-0.3309,0.7402,0.0397
350,0.0,0.0,0.0,0.0,0.0,0.0,-0.8253,-0.4090,-0.3717,0.5840,-0.3306,0.7404,0.0393
351,0.0,0.0,0.0,0.0,0.0,0.0,-0.8254,-0.4119,-0.3713,0.5839,-0.3307,0.7404,0.0390
352,0.0,0.0,0.0,0.0,0.0,0.0,-0.8240,-0.4177,-0.3719,0.5838,-0.3307,0.7404,0.0387
353,0.0,0.0,0.0,0.0,0.0,0.0,-0.8240,-0.4143,-0.3733,0.5838,-0.3308,0.7404,0.0385
354,0.0,0.0,0.0,0.0,0.0,0.0,-0.8249,-0.4090,-0.3732,0.5839,-0.3311,0.7402,0.0387
355,0.0,0.0,0.0,0.0,0.0,0.0,-0.8259,-0.4099,-0.3746,0.5838,-0.3311,0.7403,0.0385
356,0.0,0.0,0.0,0.0,0.0,0.0,-0.8278,-0.4031,-0.3769,0.5836,-0.3310,0.7405,0.0386
357,0.0,0.0,0.0,0.0,0.0,0.0,-0.8239,-0.4070,-0.3756,0.5835,-0.3312,0.7405,0.0389
358,0.0,0.0,0.0,0.0,0.0,0.0,-0.8241,-0.4172,-0.3743,0.5835,-0.3315,0.7404,0.0391
359,0.0,0.0,0.0,0.0,0.0,0.0,-0.8290,-0.4196,-0.3762,0.5835,-0.3316,0.7403,0.0391
360,0.0,0.0,0.0,0.0,0.0,0.0,-0.8289,-0.4089,-0.3784,0.5834,-0.3313,0.7405,0.0388
361,0.0,0.0,0.0,0.0,0.0,0.0,-0.8171,-0.3980,-0.3800,0.5832,-0.3312,0.7408,0.0390
362,0.0,0.0,0.0,0.0,0.0,0.0,-0.8216,-0.4054,-0.3795,0.5828,-0.3311,0.7410,0.0394
363,0.0,0.0,0.0,0.0,0.0,0.0,-0.8202,-0.4083,-0.3796,0.5824,-0.3308,0.7415,0.0397
364,0.0,0.0,0.0,0.0,0.0,0.0,-0.8193,-0.4132,-0.3778,0.5819,-0.3306,0.7419,0.0398
365,0.0,0.0,0.0,0.0,0.0,0.0,-0.8228,-0.4210,-0.3769,0.5817,-0.3305,0.7422,0.0400
366,0.0,0.0,0.0,0.0,0.0,0.0,-0.8214,-0.4219,-0.3774,0.5815,-0.3305,0.7423,0.0401
367,0.0,0.0,0.0,0.0,0.0,0.0,-0.8238,-0.4239,-0.3779,0.5815,-0.3303,0.7425,0.0397
368,0.0,0.0,0.0,0.0,0.0,0.0,-0.8271,-0.4201,-0.3767,0.5815,-0.3301,0.7425,0.0394
369,0.0,0.0,0.0,0.0,0.0,0.0,-0.8289,-0.4099,-0.3765,0.5816,-0.3302,0.7424,0.0394
370,0.0,0.0,0.0,0.0,0.0,0.0,-0.8288,-0.4060,-0.3759,0.5816,-0.3302,0.7424,0.0392
371,0.0,0.0,0.0,0.0,0.0,0.0,-0.8287,-0.4036,-0.3754,0.5814,-0.3303,0.7425,0.0390
372,0.0,0.0,0.0,0.0,0.0,0.0,-0.8264,-0.4099,-0.3741,0.5814,-0.3306,0.7424,0.0390
373,0.0,0.0,0.0,0.0,0.0,0.0,-0.8203,-0.4196,-0.3740,0.5815,-0.3311,0.7421,0.0388
374,0.0,0.0,0.0,0.0,0.0,0.0,-0.8170,-0.4229,-0.3761,0.5815,-0.3315,0.7419,0.0383
375,0.0,0.0,0.0,0.0,0.0,0.0,-0.8185,-0.4218,-0.3799,0.5816,-0.3322,0.7416,0.0379
376,0.0,0.0,0.0,0.0,0.0,0.0,-0.8195,-0.4194,-0.3818,0.5818,-0.3330,0.7411,0.0378
377,0.0,0.0,0.0,0.0,0.0,0.0,-0.8165,-0.4140,-0.3837,0.5818,-0.3333,0.7410,0.0373
378,0.0,0.0,0.0,0.0,0.0,0.0,-0.8127,-0.4168,-0.3834,0.5817,-0.3335,0.7410,0.0366
379,0.0,0.0,0.0,0.0,0.0,0.0,-0.8137,-0.4188,-0.3829,0.5817,-0.3340,0.7408,0.0362
380,0.0,0.0,0.0,0.0,0.0,0.0,-0.8152,-0.4208,-0.3824,0.5818,-0.3342,0.7406,0.0360
381,0.0,0.0,0.0,0.0,0.0,0.0,-0.8166,-0.4184,-0.3828,0.5819,-0.3340,0.7407,0.0356
382,0.0,0.0,0.0,0.0,0.0,0.0,-0.8155,-0.4150,-0.3809,0.5820,-0.3340,0.7406,0.0358
383,0.0,0.0,0.0,0.0,0.0,0.0,-0.8189,-0.4135,-0.3836,0.5820,-0.3338,0.7407,0.0358
384,0.0,0.0,0.0,0.0,0.0,0.0,-0.8266,-0.4152,-0.3800,0.5821,-0.3337,0.7406,0.0362
385,0.0,0.0,0.0,0.0,0.0,0.0,-0.8160,-0.4190,-0.3761,0.5823,-0.3338,0.7404,0.0369
386,0.0,0.0,0.0,0.0,0.0,0.0,-0.8200,-0.4278,-0.3766,0.5825,-0.3339,0.7401,0.0370
387,0.0,0.0,0.0,0.0,0.0,0.0,-0.8257,-0.4225,-0.3754,0.5829,-0.3341,0.7398,0.0373
388,0.0,0.0,0.0,0.0,0.0,0.0,-0.8285,-0.4206,-0.3743,0.5835,-0.3345,0.7391,0.0380
389,0.0,0.0,0.0,0.0,0.0,0.0,-0.8198,-0.4181,-0.3750,0.5840,-0.3348,0.7385,0.0385
390,0.0,0.0,0.0,0.0,0.0,0.0,-0.8149,-0.4200,-0.3727,0.5844,-0.3349,0.7381,0.0389
391,0.0,0.0,0.0,0.0,0.0,0.0,-0.8227,-0.4230,-0.3716,0.5848,-0.3350,0.7377,0.0391
392,0.0,0.0,0.0,0.0,0.0,0.0,-0.8241,-0.4241,-0.3691,0.5852,-0.3350,0.7374,0.0393
393,0.0,0.0,0.0,0.0,0.0,0.0,-0.8203,-0.4308,-0.3684,0.5858,-0.3350,0.7370,0.0394
394,0.0,0.0,0.0,0.0,0.0,0.0,-0.8228,-0.4323,-0.3674,0.5863,-0.3350,0.7366,0.0392
395,0.0,0.0,0.0,0.0,0.0,0.0,-0.8220,-0.4212,-0.3662,0.5867,-0.3348,0.7364,0.0388
396,0.0,0.0,0.0,0.0,0.0,0.0,-0.8218,-0.4100,-0.3661,0.5871,-0.3349,0.7359,0.0389
397,0.0,0.0,0.0,0.0,0.0,0.0,-0.8223,-0.4110,-0.3641,0.5875,-0.3356,0.7353,0.0394
398,0.0,0.0,0.0,0.0,0.0,0.0,-0.8210,-0.4203,-0.3624,0.5878,-0.3363,0.7347,0.0397
399,0.0,0.0,0.0,0.0,0.0,0.0,-0.8157,-0.4211,-0.3645,0.5879,-0.3368,0.7344,0.0401
400,0.0,0.0,0.0,0.0,0.0,0.0,-0.8134,-0.4279,-0.3657,0.5879,-0.3373,0.7342,0.0402
401,0.0,0.0,0.0,0.0,0.0,0.0,-0.8189,-0.4426,-0.3600,0.5882,-0.3380,0.7336,0.0400
402,0.0,0.0,0.0,0.0,0.0,0.0,-0.8194,-0.4446,-0.3580,0.5886,-0.3385,0.7331,0.0397
403,0.0,0.0,0.0,0.0,0.0,0.0,-0.8172,-0.4300,-0.3603,0.5888,-0.3388,0.7328,0.0392
404,0.0,0.0,0.0,0.0,0.0,0.0,-0.8181,-0.4202,-0.3630,0.5889,-0.3394,0.7325,0.0391
405,0.0,0.0,0.0,0.0,0.0,0.0,-0.8220,-0.4247,-0.3629,0.5890,-0.3402,0.7319,0.0396
406,0.0,0.0,0.0,0.0,0.0,0.0,-0.8202,-0.4289,-0.3655,0.5890,-0.3409,0.7316,0.0400
407,0.0,0.0,0.0,0.0,0.0,0.0,-0.8275,-0.4295,-0.3648,0.5891,-0.3415,0.7312,0.0406
408,0.0,0.0,0.0,0.0,0.0,0.0,-0.8276,-0.4349,-0.3644,0.5891,-0.3419,0.7310,0.0411
409,0.0,0.0,0.0,0.0,0.0,0.0,-0.8212,-0.4339,-0.3631,0.5891,-0.3418,0.7311,0.0410
410,0.0,0.0,0.0,0.0,0.0,0.0,-0.8138,-0.4305,-0.3580,0.5892,-0.3417,0.7310,0.0408
411,0.0,0.0,0.0,0.0,0.0,0.0,-0.8142,-0.4295,-0.3570,0.5892,-0.3418,0.7310,0.0408
412,0.0,0.0,0.0,0.0,0.0,0.0,-0.8148,-0.4310,-0.3579,0.5892,-0.3418,0.7310,0.0408
413,0.0,0.0,0.0,0.0,0.0,0.0,-0.8216,-0.4325,-0.3582,0.5894,-0.3419,0.7308,0.0406
414,0.0,0.0,0.0,0.0,0.0,0.0,-0.8264,-0.4276,-0.3619,0.5895,-0.3416,0.7309,0.0404
415,0.0,0.0,0.0,0.0,0.0,0.0,-0.8206,-0.4256,-0.3625,0.5893,-0.3412,0.7312,0.0402
416,0.0,0.0,0.0,0.0,0.0,0.0,-0.8143,-0.4319,-0.3599,0.5892,-0.3411,0.7313,0.0401
417,0.0,0.0,0.0,0.0,0.0,0.0,-0.8164,-0.4397,-0.3590,0.5892,-0.3409,0.7315,0.0400
418,0.0,0.0,0.0,0.0,0.0,0.0,-0.8153,-0.4333,-0.3604,0.5890,-0.3406,0.7318,0.0399
419,0.0,0.0,0.0,0.0,0.0,0.0,-0.8168,-0.4309,-0.3627,0.5889,-0.3402,0.7321,0.0396
420,0.0,0.0,0.0,0.0,0.0,0.0,-0.8222,-0.4329,-0.3640,0.5887,-0.3395,0.7326,0.0389
421,0.0,0.0,0.0,0.0,0.0,0.0,-0.8193,-0.4323,-0.3665,0.5884,-0.3389,0.7331,0.0384
422,0.0,0.0,0.0,0.0,0.0,0.0,-0.8174,-0.4308,-0.3680,0.5881,-0.3386,0.7335,0.0380
423,0.0,0.0,0.0,0.0,0.0,0.0,-0.8227,-0.4294,-0.3673,0.5880,-0.3384,0.7337,0.0376
424,0.0,0.0,0.0,0.0,0.0,0.0,-0.8247,-0.4397,-0.3636,0.5881,-0.3386,0.7335,0.0377
425,0.0,0.0,0.0,0.0,0.0,0.0,-0.8213,-0.4343,-0.3665,0.5880,-0.3384,0.7337,0.0373
426,0.0,0.0,0.0,0.0,0.0,0.0,-0.8173,-0.4260,-0.3670,0.5879,-0.3383,0.7338,0.0372
427,0.0,0.0,0.0,0.0,0.0,0.0,-0.8199,-0.4387,-0.3652,0.5882,-0.3386,0.7335,0.0374
428,0.0,0.0,0.0,0.0,0.0,0.0,-0.8203,-0.4294,-0.3665,0.5884,-0.3384,0.7334,0.0371
429,0.0,0.0,0.0,0.0,0.0,0.0,-0.8215,-0.4202,-0.3667,0.5883,-0.3381,0.7337,0.0369
430,0.0,0.0,0.0,0.0,0.0,0.0,-0.8240,-0.4246,-0.3662,0.5882,-0.3382,0.7337,0.0370
431,0.0,0.0,0.0,0.0,0.0,0.0,-0.8254,-0.4247,-0.3648,0.5883,-0.3386,0.7334,0.0375
432,0.0,0.0,0.0,0.0,0.0,0.0,-0.8226,-0.4261,-0.3644,0.5883,-0.3386,0.7333,0.0375
433,0.0,0.0,0.0,0.0,0.0,0.0,-0.8222,-0.4329,-0.3626,0.5885,-0.3389,0.7331,0.0378
434,0.0,0.0,0.0,0.0,0.0,0.0,-0.8222,-0.4353,-0.3626,0.5889,-0.3398,0.7323,0.0387
435,0.0,0.0,0.0,0.0,0.0,0.0,-0.8256,-0.4344,-0.3625,0.5893,-0.3403,0.7317,0.0393
436,0.0,0.0,0.0,0.0,0.0,0.0,-0.8215,-0.4188,-0.3643,0.5894,-0.3402,0.7316,0.0395
437,0.0,0.0,0.0,0.0,0.0,0.0,-0.8252,-0.4111,-0.3635,0.5893,-0.3399,0.7318,0.0397
438,0.0,0.0,0.0,0.0,0.0,0.0,-0.8200,-0.4252,-0.3591,0.5893,-0.3402,0.7317,0.0402
439,0.0,0.0,0.0,0.0,0.0,0.0,-0.8171,-0.4295,-0.3578,0.5893,-0.3407,0.7314,0.0411
440,0.0,0.0,0.0,0.0,0.0,0.0,-0.8225,-0.4316,-0.3567,0.5894,-0.3408,0.7313,0.0415
441,0.0,0.0,0.0,0.0,0.0,0.0,-0.8181,-0.4330,-0.3535,0.5894,-0.3406,0.7314,0.0413
442,0.0,0.0,0.0,0.0,0.0,0.0,-0.8118,-0.4315,-0.3551,0.5895,-0.3406,0.7313,0.0414
443,0.0,0.0,0.0,0.0,0.0,0.0,-0.8100,-0.4299,-0.3605,0.5892,-0.3407,0.7314,0.0413
444,0.0,0.0,0.0,0.0,0.0,0.0,-0.8139,-0.4323,-0.3623,0.5889,-0.3408,0.7317,0.0409
445,0.0,0.0,0.0,0.0,0.0,0.0,-0.8155,-0.4430,-0.3610,0.5886,-0.3409,0.7319,0.0406
446,0.0,0.0,0.0,0.0,0.0,0.0,-0.8182,-0.4547,-0.3621,0.5883,-0.3409,0.7322,0.0399
447,0.0,0.0,0.0,0.0,0.0,0.0,-0.8190,-0.4405,-0.3672,0.5878,-0.3405,0.7328,0.0386
448,0.0,0.0,0.0,0.0,0.0,0.0,-0.8163,-0.4191,-0.3707,0.5872,-0.3399,0.7337,0.0378
449,0.0,0.0,0.0,0.0,0.0,0.0,-0.8144,-0.4180,-0.3727,0.5866,-0.3391,0.7346,0.0372
450,0.0,0.0,0.0,0.0,0.0,0.0,-0.8187,-0.4176,-0.3726,0.5861,-0.3382,0.7353,0.0366
451,0.0,0.0,0.0,0.0,0.0,0.0,-0.8175,-0.4312,-0.3714,0.5859,-0.3377,0.7358,0.0365
452,0.0,0.0,0.0,0.0,0.0,0.0,-0.8161,-0.4316,-0.3739,0.5857,-0.3370,0.7363,0.0363
453,0.0,0.0,0.0,0.0,0.0,0.0,-0.8171,-0.4302,-0.3753,0.5853,-0.3362,0.7370,0.0359
454,0.0,0.0,0.0,0.0,0.0,0.0,-0.8194,-0.4253,-0.3756,0.5849,-0.3355,0.7376,0.0358
455,0.0,0.0,0.0,0.0,0.0,0.0,-0.8237,-0.4186,-0.3758,0.5847,-0.3351,0.7379,0.0361
456,0.0,0.0,0.0,0.0,0.0,0.0,-0.8231,-0.4157,-0.3758,0.5845,-0.3347,0.7382,0.0366
457,0.0,0.0,0.0,0.0,0.0,0.0,-0.8218,-0.4210,-0.3755,0.5841,-0.3342,0.7387,0.0368
458,0.0,0.0,0.0,0.0,0.0,0.0,-0.8229,-0.4283,-0.3765,0.5839,-0.3339,0.7390,0.0372
459,0.0,0.0,0.0,0.0,0.0,0.0,-0.8287,-0.4299,-0.3739,0.5839,-0.3337,0.7391,0.0377
460,0.0,0.0,0.0,0.0,0.0,0.0,-0.8285,-0.4231,-0.3709,0.5840,-0.3333,0.7392,0.0380
461,0.0,0.0,0.0,0.0,0.0,0.0,-0.8230,-0.4178,-0.3686,0.5841,-0.3329,0.7393,0.0383
462,0.0,0.0,0.0,0.0,0.0,0.0,-0.8269,-0.4232,-0.3671,0.5843,-0.3327,0.7392,0.0386
463,0.0,0.0,0.0,0.0,0.0,0.0,-0.8236,-0.4246,-0.3667,0.5846,-0.3327,0.7389,0.0390
464,0.0,0.0,0.0,0.0,0.0,0.0,-0.8197,-0.4270,-0.3655,0.5850,-0.3329,0.7385,0.0393
465,0.0,0.0,0.0,0.0,0.0,0.0,-0.8196,-0.4241,-0.3644,0.5854,-0.3328,0.7383,0.0392
466,0.0,0.0,0.0,0.0,0.0,0.0,-0.8219,-0.4188,-0.3633,0.5856,-0.3327,0.7381,0.0388
467,0.0,0.0,0.0,0.0,0.0,0.0,-0.8220,-0.4237,-0.3629,0.5860,-0.3330,0.7377,0.0387
468,0.0,0.0,0.0,0.0,0.0,0.0,-0.8229,-0.4198,-0.3623,0.5864,-0.3334,0.7372,0.0388
469,0.0,0.0,0.0,0.0,0.0,0.0,-0.8180,-0.4178,-0.3634,0.5866,-0.3339,0.7368,0.0388
470,0.0,0.0,0.0,0.0,0.0,0.0,-0.8200,-0.4193,-0.3639,0.5867,-0.3343,0.7365,0.0387
471,0.0,0.0,0.0,0.0,0.0,0.0,-0.8211,-0.4266,-0.3620,0.5868,-0.3350,0.7362,0.0385
472,0.0,0.0,0.0,0.0,0.0,0.0,-0.8207,-0.4348,-0.3627,0.5870,-0.3356,0.7358,0.0382
473,0.0,0.0,0.0,0.0,0.0,0.0,-0.8203,-0.4314,-0.3650,0.5870,-0.3361,0.7355,0.0379
474,0.0,0.0,0.0,0.0,0.0,0.0,-0.8183,-0.4308,-0.3661,0.5871,-0.3367,0.7352,0.0375
475,0.0,0.0,0.0,0.0,0.0,0.0,-0.8183,-0.4274,-0.3674,0.5871,-0.3372,0.7350,0.0371
476,0.0,0.0,0.0,0.0,0.0,0.0,-0.8155,-0.4293,-0.3681,0.5871,-0.3376,0.7349,0.0369
477,0.0,0.0,0.0,0.0,0.0,0.0,-0.8182,-0.4206,-0.3693,0.5869,-0.3377,0.7350,0.0366
478,0.0,0.0,0.0,0.0,0.0,0.0,-0.8256,-0.4280,-0.3682,0.5868,-0.3381,0.7348,0.0368
479,0.0,0.0,0.0,0.0,0.0,0.0,-0.8150,-0.4307,-0.3695,0.5867,-0.3386,0.7347,0.0372
480,0.0,0.0,0.0,0.0,0.0,0.0,-0.8116,-0.4263,-0.3701,0.5867,-0.3389,0.7346,0.0374
481,0.0,0.0,0.0,0.0,0.0,0.0,-0.8223,-0.4347,-0.3689,0.5866,-0.3390,0.7346,0.0372
482,0.0,0.0,0.0,0.0,0.0,0.0,-0.8233,-0.4294,-0.3712,0.5866,-0.3386,0.7348,0.0369
483,0.0,0.0,0.0,0.0,0.0,0.0,-0.8308,-0.4232,-0.3689,0.5869,-0.3386,0.7346,0.0372
484,0.0,0.0,0.0,0.0,0.0,0.0,-0.8241,-0.4314,-0.3654,0.5874,-0.3390,0.7339,0.0377
485,0.0,0.0,0.0,0.0,0.0,0.0,-0.8163,-0.4216,-0.3679,0.5876,-0.3392,0.7336,0.0380
486,0.0,0.0,0.0,0.0,0.0,0.0,-0.8201,-0.4202,-0.3673,0.5875,-0.3393,0.7336,0.0382
487,0.0,0.0,0.0,0.0,0.0,0.0,-0.8214,-0.4159,-0.3652,0.5872,-0.3390,0.7340,0.0383
488,0.0,0.0,0.0,0.0,0.0,0.0,-0.8157,-0.4202,-0.3640,0.5869,-0.3390,0.7342,0.0389
489,0.0,0.0,0.0,0.0,0.0,0.0,-0.8212,-0.4319,-0.3626,0.5868,-0.3392,0.7343,0.0390
490,0.0,0.0,0.0,0.0,0.0,0.0,-0.8222,-0.4324,-0.3631,0.5866,-0.3393,0.7344,0.0391
491,0.0,0.0,0.0,0.0,0.0,0.0,-0.8187,-0.4280,-0.3631,0.5865,-0.3393,0.7344,0.0390
492,0.0,0.0,0.0,0.0,0.0,0.0,-0.8181,-0.4221,-0.3640,0.5863,-0.3392,0.7347,0.0388
493,0.0,0.0,0.0,0.0,0.0,0.0,-0.8206,-0.4221,-0.3658,0.5861,-0.3394,0.7347,0.0388
494,0.0,0.0,0.0,0.0,0.0,0.0,-0.8187,-0.4201,-0.3688,0.5858,-0.3394,0.7350,0.0386
495,0.0,0.0,0.0,0.0,0.0,0.0,-0.8192,-0.4167,-0.3711,0.5855,-0.3393,0.7353,0.0384
496,0.0,0.0,0.0,0.0,0.0,0.0,-0.8203,-0.4220,-0.3721,0.5852,-0.3394,0.7355,0.0383
497,0.0,0.0,0.0,0.0,0.0,0.0,-0.8199,-0.4268,-0.3737,0.5849,-0.3394,0.7357,0.0382
498,0.0,0.0,0.0,0.0,0.0,0.0,-0.8194,-0.4229,-0.3746,0.5845,-0.3392,0.7361,0.0380
499,0.0,0.0,0.0,0.0,0.0,0.0,-0.8137,-0.4311,-0.3754,0.5843,-0.3391,0.7363,0.0376
500,0.0,0.0,0.0,0.0,0.0,0.0,-0.8292,-0.4249,-0.3782,0.5843,-0.3389,0.7364,0.0373
501,0.0,0.0,0.0,0.0,0.0,0.0,-0.8213,-0.4161,-0.3797,0.5840,-0.3386,0.7368,0.0371
502,0.0,0.0,0.0,0.0,0.0,0.0,-0.8184,-0.4146,-0.3793,0.5835,-0.3381,0.7375,0.0365
503,0.0,0.0,0.0,0.0,0.0,0.0,-0.8203,-0.4161,-0.3769,0.5833,-0.3379,0.7378,0.0365
504,0.0,0.0,0.0,0.0,0.0,0.0,-0.8232,-0.4191,-0.3749,0.5831,-0.3380,0.7378,0.0369
505,0.0,0.0,0.0,0.0,0.0,0.0,-0.8248,-0.4288,-0.3755,0.5830,-0.3380,0.7379,0.0370
506,0.0,0.0,0.0,0.0,0.0,0.0,-0.8205,-0.4297,-0.3757,0.5829,-0.3381,0.7379,0.0370
507,0.0,0.0,0.0,0.0,0.0,0.0,-0.8147,-0.4321,-0.3749,0.5831,-0.3383,0.7376,0.0371
508,0.0,0.0,0.0,0.0,0.0,0.0,-0.8171,-0.4302,-0.3743,0.5833,-0.3386,0.7374,0.0371
509,0.0,0.0,0.0,0.0,0.0,0.0,-0.8195,-0.4307,-0.3738,0.5835,-0.3387,0.7372,0.0368
510,0.0,0.0,0.0,0.0,0.0,0.0,-0.8156,-0.4331,-0.3715,0.5839,-0.3388,0.7369,0.0366
511,0.0,0.0,0.0,0.0,0.0,0.0,-0.8131,-0.4292,-0.3715,0.5844,-0.3392,0.7363,0.0368
512,0.0,0.0,0.0,0.0,0.0,0.0,-0.8121,-0.4278,-0.3706,0.5848,-0.3397,0.7357,0.0370
513,0.0,0.0,0.0,0.0,0.0,0.0,-0.8151,-0.4302,-0.3710,0.5851,-0.3398,0.7354,0.0369
514,0.0,0.0,0.0,0.0,0.0,0.0,-0.8146,-0.4332,-0.3691,0.5855,-0.3400,0.7350,0.0369
515,0.0,0.0,0.0,0.0,0.0,0.0,-0.8190,-0.4411,-0.3657,0.5859,-0.3403,0.7345,0.0369
516,0.0,0.0,0.0,0.0,0.0,0.0,-0.8124,-0.4220,-0.3661,0.5862,-0.3400,0.7345,0.0366
517,0.0,0.0,0.0,0.0,0.0,0.0,-0.8153,-0.4230,-0.3670,0.5863,-0.3399,0.7344,0.0369
518,0.0,0.0,0.0,0.0,0.0,0.0,-0.8169,-0.4264,-0.3689,0.5863,-0.3403,0.7342,0.0375
519,0.0,0.0,0.0,0.0,0.0,0.0,-0.8150,-0.4322,-0.3686,0.5861,-0.3402,0.7344,0.0376
520,0.0,0.0,0.0,0.0,0.0,0.0,-0.8223,-0.4343,-0.3679,0.5860,-0.3398,0.7347,0.0375
521,0.0,0.0,0.0,0.0,0.0,0.0,-0.8188,-0.4270,-0.3669,0.5858,-0.3394,0.7350,0.0377
522,0.0,0.0,0.0,0.0,0.0,0.0,-0.8120,-0.4219,-0.3705,0.5854,-0.3393,0.7354,0.0378
523,0.0,0.0,0.0,0.0,0.0,0.0,-0.8130,-0.4210,-0.3714,0.5849,-0.3393,0.7358,0.0379
524,0.0,0.0,0.0,0.0,0.0,0.0,-0.8212,-0.4255,-0.3702,0.5845,-0.3395,0.7360,0.0381
525,0.0,0.0,0.0,0.0,0.0,0.0,-0.8247,-0.4299,-0.3712,0.5843,-0.3394,0.7362,0.0382
526,0.0,0.0,0.0,0.0,0.0,0.0,-0.8214,-0.4312,-0.3732,0.5840,-0.3390,0.7366,0.0377
527,0.0,0.0,0.0,0.0,0.0,0.0,-0.8194,-0.4263,-0.3751,0.5838,-0.3385,0.7370,0.0375
528,0.0,0.0,0.0,0.0,0.0,0.0,-0.8210,-0.4332,-0.3728,0.5839,-0.3384,0.7370,0.0371
529,0.0,0.0,0.0,0.0,0.0,0.0,-0.8165,-0.4263,-0.3723,0.5841,-0.3382,0.7370,0.0368
530,0.0,0.0,0.0,0.0,0.0,0.0,-0.8198,-0.4205,-0.3726,0.5841,-0.3380,0.7370,0.0365
531,0.0,0.0,0.0,0.0,0.0,0.0,-0.8184,-0.4229,-0.3741,0.5842,-0.3377,0.7372,0.0364
532,0.0,0.0,0.0,0.0,0.0,0.0,-0.8214,-0.4254,-0.3751,0.5843,-0.3377,0.7370,0.0366
533,0.0,0.0,0.0,0.0,0.0,0.0,-0.8227,-0.4264,-0.3716,0.5846,-0.3378,0.7367,0.0366
534,0.0,0.0,0.0,0.0,0.0,0.0,-0.8236,-0.4260,-0.3692,0.5850,-0.3378,0.7364,0.0367
535,0.0,0.0,0.0,0.0,0.0,0.0,-0.8222,-0.4260,-0.3692,0.5854,-0.3377,0.7362,0.0367
536,0.0,0.0,0.0,0.0,0.0,0.0,-0.8155,-0.4312,-0.3691,0.5858,-0.3379,0.7358,0.0368
537,0.0,0.0,0.0,0.0,0.0,0.0,-0.8117,-0.4287,-0.3725,0.5860,-0.3382,0.7354,0.0367
538,0.0,0.0,0.0,0.0,0.0,0.0,-0.8188,-0.4240,-0.3698,0.5863,-0.3386,0.7351,0.0366
539,0.0,0.0,0.0,0.0,0.0,0.0,-0.8233,-0.4367,-0.3679,0.5868,-0.3391,0.7344,0.0362
540,0.0,0.0,0.0,0.0,0.0,0.0,-0.8241,-0.4182,-0.3719,0.5870,-0.3390,0.7344,0.0353
541,0.0,0.0,0.0,0.0,0.0,0.0,-0.8220,-0.4119,-0.3709,0.5871,-0.3388,0.7344,0.0347
542,0.0,0.0,0.0,0.0,0.0,0.0,-0.8193,-0.4269,-0.3679,0.5873,-0.3392,0.7340,0.0348
543,0.0,0.0,0.0,0.0,0.0,0.0,-0.8150,-0.4322,-0.3676,0.5877,-0.3397,0.7334,0.0349
544,0.0,0.0,0.0,0.0,0.0,0.0,-0.8183,-0.4265,-0.3665,0.5881,-0.3400,0.7331,0.0349
545,0.0,0.0,0.0,0.0,0.0,0.0,-0.8168,-0.4240,-0.3655,0.5883,-0.3403,0.7327,0.0350
546,0.0,0.0,0.0,0.0,0.0,0.0,-0.8149,-0.4299,-0.3632,0.5884,-0.3407,0.7324,0.0352
547,0.0,0.0,0.0,0.0,0.0,0.0,-0.8165,-0.4377,-0.3633,0.5886,-0.3410,0.7322,0.0354
548,0.0,0.0,0.0,0.0,0.0,0.0,-0.8150,-0.4352,-0.3648,0.5886,-0.3408,0.7323,0.0351
549,0.0,0.0,0.0,0.0,0.0,0.0,-0.8135,-0.4342,-0.3648,0.5884,-0.3406,0.7325,0.0346
550,0.0,0.0,0.0,0.0,0.0,0.0,-0.8103,-0.4419,-0.3646,0.5884,-0.3408,0.7324,0.0345
551,0.0,0.0,0.0,0.0,0.0,0.0,-0.8136,-0.4386,-0.3634,0.5885,-0.3411,0.7322,0.0343
552,0.0,0.0,0.0,0.0,0.0,0.0,-0.8193,-0.4333,-0.3632,0.5887,-0.3414,0.7319,0.0345
553,0.0,0.0,0.0,0.0,0.0,0.0,-0.8188,-0.4313,-0.3660,0.5887,-0.3415,0.7319,0.0345
554,0.0,0.0,0.0,0.0,0.0,0.0,-0.8215,-0.4237,-0.3629,0.5887,-0.3414,0.7319,0.0346
555,0.0,0.0,0.0,0.0,0.0,0.0,-0.8160,-0.4411,-0.3610,0.5888,-0.3415,0.7317,0.0352
556,0.0,0.0,0.0,0.0,0.0,0.0,-0.8095,-0.4526,-0.3648,0.5889,-0.3415,0.7317,0.0351
557,0.0,0.0,0.0,0.0,0.0,0.0,-0.8181,-0.4415,-0.3672,0.5888,-0.3410,0.7320,0.0346
558,0.0,0.0,0.0,0.0,0.0,0.0,-0.8227,-0.4333,-0.3655,0.5887,-0.3406,0.7322,0.0346
559,0.0,0.0,0.0,0.0,0.0,0.0,-0.8203,-0.4368,-0.3627,0.5887,-0.3406,0.7323,0.0349
560,0.0,0.0,0.0,0.0,0.0,0.0,-0.8137,-0.4489,-0.3598,0.5888,-0.3408,0.7321,0.0350
561,0.0,0.0,0.0,0.0,0.0,0.0,-0.8146,-0.4455,-0.3611,0.5889,-0.3410,0.7319,0.0352
562,0.0,0.0,0.0,0.0,0.0,0.0,-0.8165,-0.4406,-0.3615,0.5891,-0.3411,0.7317,0.0351
563,0.0,0.0,0.0,0.0,0.0,0.0,-0.8140,-0.4372,-0.3619,0.5891,-0.3409,0.7318,0.0348
564,0.0,0.0,0.0,0.0,0.0,0.0,-0.8106,-0.4337,-0.3625,0.5889,-0.3408,0.7320,0.0346
565,0.0,0.0,0.0,0.0,0.0,0.0,-0.8120,-0.4333,-0.3615,0.5888,-0.3411,0.7319,0.0348
566,0.0,0.0,0.0,0.0,0.0,0.0,-0.8145,-0.4391,-0.3629,0.5887,-0.3414,0.7319,0.0350
567,0.0,0.0,0.0,0.0,0.0,0.0,-0.8141,-0.4425,-0.3640,0.5885,-0.3415,0.7320,0.0350
568,0.0,0.0,0.0,0.0,0.0,0.0,-0.8118,-0.4405,-0.3664,0.5883,-0.3417,0.7321,0.0350
569,0.0,0.0,0.0,0.0,0.0,0.0,-0.8152,-0.4429,-0.3683,0.5880,-0.3416,0.7323,0.0349
570,0.0,0.0,0.0,0.0,0.0,0.0,-0.8148,-0.4429,-0.3693,0.5879,-0.3415,0.7326,0.0346
571,0.0,0.0,0.0,0.0,0.0,0.0,-0.8136,-0.4268,-0.3715,0.5874,-0.3409,0.7332,0.0340
572,0.0,0.0,0.0,0.0,0.0,0.0,-0.8184,-0.4234,-0.3722,0.5869,-0.3406,0.7338,0.0339
573,0.0,0.0,0.0,0.0,0.0,0.0,-0.8170,-0.4278,-0.3723,0.5865,-0.3405,0.7341,0.0341
574,0.0,0.0,0.0,0.0,0.0,0.0,-0.8170,-0.4302,-0.3714,0.5860,-0.3406,0.7344,0.0343
575,0.0,0.0,0.0,0.0,0.0,0.0,-0.8147,-0.4341,-0.3711,0.5855,-0.3406,0.7348,0.0343
576,0.0,0.0,0.0,0.0,0.0,0.0,-0.8115,-0.4437,-0.3733,0.5851,-0.3409,0.7350,0.0342
577,0.0,0.0,0.0,0.0,0.0,0.0,-0.8087,-0.4519,-0.3726,0.5850,-0.3410,0.7351,0.0336
578,0.0,0.0,0.0,0.0,0.0,0.0,-0.8082,-0.4504,-0.3740,0.5849,-0.3410,0.7352,0.0329
579,0.0,0.0,0.0,0.0,0.0,0.0,-0.8119,-0.4344,-0.3770,0.5848,-0.3413,0.7352,0.0324
580,0.0,0.0,0.0,0.0,0.0,0.0,-0.8183,-0.4097,-0.3812,0.5844,-0.3409,0.7357,0.0322
581,0.0,0.0,0.0,0.0,0.0,0.0,-0.8155,-0.4101,-0.3822,0.5838,-0.3408,0.7362,0.0324
582,0.0,0.0,0.0,0.0,0.0,0.0,-0.8056,-0.4314,-0.3791,0.5834,-0.3410,0.7364,0.0327
583,0.0,0.0,0.0,0.0,0.0,0.0,-0.8079,-0.4533,-0.3774,0.5833,-0.3413,0.7363,0.0329
584,0.0,0.0,0.0,0.0,0.0,0.0,-0.8223,-0.4457,-0.3793,0.5833,-0.3412,0.7364,0.0329
585,0.0,0.0,0.0,0.0,0.0,0.0,-0.8156,-0.4253,-0.3752,0.5834,-0.3407,0.7366,0.0329
586,0.0,0.0,0.0,0.0,0.0,0.0,-0.8083,-0.4222,-0.3769,0.5833,-0.3402,0.7369,0.0331
587,0.0,0.0,0.0,0.0,0.0,0.0,-0.8103,-0.4222,-0.3783,0.5829,-0.3398,0.7374,0.0333
588,0.0,0.0,0.0,0.0,0.0,0.0,-0.8134,-0.4349,-0.3774,0.5826,-0.3398,0.7375,0.0338
589,0.0,0.0,0.0,0.0,0.0,0.0,-0.8110,-0.4392,-0.3781,0.5825,-0.3401,0.7375,0.0343
590,0.0,0.0,0.0,0.0,0.0,0.0,-0.8121,-0.4397,-0.3795,0.5824,-0.3400,0.7376,0.0340
591,0.0,0.0,0.0,0.0,0.0,0.0,-0.8124,-0.4314,-0.3813,0.5822,-0.3399,0.7378,0.0337
592,0.0,0.0,0.0,0.0,0.0,0.0,-0.8129,-0.4280,-0.3826,0.5820,-0.3399,0.7379,0.0337
593,0.0,0.0,0.0,0.0,0.0,0.0,-0.8081,-0.4284,-0.3833,0.5819,-0.3402,0.7379,0.0339
594,0.0,0.0,0.0,0.0,0.0,0.0,-0.8101,-0.4357,-0.3829,0.5817,-0.3402,0.7381,0.0336
595,0.0,0.0,0.0,0.0,0.0,0.0,-0.8164,-0.4334,-0.3817,0.5817,-0.3398,0.7383,0.0331
596,0.0,0.0,0.0,0.0,0.0,0.0,-0.8182,-0.4300,-0.3820,0.5818,-0.3398,0.7382,0.0332
597,0.0,0.0,0.0,0.0,0.0,0.0,-0.8124,-0.4290,-0.3807,0.5820,-0.3398,0.7381,0.0333
598,0.0,0.0,0.0,0.0,0.0,0.0,-0.8148,-0.4301,-0.3787,0.5822,-0.3396,0.7380,0.0333
599,0.0,0.0,0.0,0.0,0.0,0.0,-0.8125,-0.4393,-0.3775,0.5825,-0.3398,0.7376,0.0336
600,0.0,0.0,0.0,0.0,0.0,0.0,-0.8108,-0.4538,-0.3774,0.5828,-0.3405,0.7370,0.0340
601,0.0,0.0,0.0,0.0,0.0,0.0,-0.8092,-0.4455,-0.3777,0.5832,-0.3408,0.7366,0.0340
602,0.0,0.0,0.0,0.0,0.0,0.0,-0.8129,-0.4335,-0.3774,0.5835,-0.3409,0.7363,0.0339
603,0.0,0.0,0.0,0.0,0.0,0.0,-0.8132,-0.4223,-0.3777,0.5837,-0.3412,0.7360,0.0343
604,0.0,0.0,0.0,0.0,0.0,0.0,-0.8149,-0.4092,-0.3788,0.5836,-0.3412,0.7361,0.0349
605,0.0,0.0,0.0,0.0,0.0,0.0,-0.8070,-0.4330,-0.3742,0.5835,-0.3413,0.7360,0.0355
606,0.0,0.0,0.0,0.0,0.0,0.0,-0.8121,-0.4530,-0.3720,0.5839,-0.3418,0.7355,0.0359
607,0.0,0.0,0.0,0.0,0.0,0.0,-0.8187,-0.4409,-0.3725,0.5843,-0.3422,0.7350,0.0365
608,0.0,0.0,0.0,0.0,0.0,0.0,-0.8136,-0.4297,-0.3710,0.5845,-0.3425,0.7346,0.0372
609,0.0,0.0,0.0,0.0,0.0,0.0,-0.8105,-0.4229,-0.3695,0.5846,-0.3425,0.7345,0.0378
610,0.0,0.0,0.0,0.0,0.0,0.0,-0.8131,-0.4307,-0.3686,0.5847,-0.3429,0.7342,0.0384
611,0.0,0.0,0.0,0.0,0.0,0.0,-0.8120,-0.4506,-0.3686,0.5849,-0.3436,0.7337,0.0387
612,0.0,0.0,0.0,0.0,0.0,0.0,-0.8143,-0.4438,-0.3698,0.5852,-0.3440,0.7333,0.0384
613,0.0,0.0,0.0,0.0,0.0,0.0,-0.8189,-0.4381,-0.3657,0.5857,-0.3447,0.7326,0.0385
614,0.0,0.0,0.0,0.0,0.0,0.0,-0.8178,-0.4289,-0.3656,0.5860,-0.3451,0.7321,0.0382
615,0.0,0.0,0.0,0.0,0.0,0.0,-0.8168,-0.4221,-0.3674,0.5862,-0.3453,0.7319,0.0379
616,0.0,0.0,0.0,0.0,0.0,0.0,-0.8207,-0.4231,-0.3683,0.5864,-0.3457,0.7315,0.0379
617,0.0,0.0,0.0,0.0,0.0,0.0,-0.8233,-0.4313,-0.3698,0.5867,-0.3461,0.7312,0.0379
618,0.0,0.0,0.0,0.0,0.0,0.0,-0.8180,-0.4327,-0.3695,0.5869,-0.3461,0.7310,0.0377
619,0.0,0.0,0.0,0.0,0.0,0.0,-0.8140,-0.4283,-0.3676,0.5871,-0.3459,0.7310,0.0372
620,0.0,0.0,0.0,0.0,0.0,0.0,-0.8115,-0.4293,-0.3638,0.5873,-0.3457,0.7309,0.0368
621,0.0,0.0,0.0,0.0,0.0,0.0,-0.8132,-0.4444,-0.3631,0.5877,-0.3459,0.7305,0.0368
622,0.0,0.0,0.0,0.0,0.0,0.0,-0.8130,-0.4293,-0.3662,0.5879,-0.3457,0.7305,0.0365
623,0.0,0.0,0.0,0.0,0.0,0.0,-0.8187,-0.4260,-0.3645,0.5879,-0.3453,0.7307,0.0360
624,0.0,0.0,0.0,0.0,0.0,0.0,-0.8200,-0.4168,-0.3638,0.5879,-0.3451,0.7307,0.0362
625,0.0,0.0,0.0,0.0,0.0,0.0,-0.8158,-0.4314,-0.3608,0.5881,-0.3456,0.7303,0.0371
626,0.0,0.0,0.0,0.0,0.0,0.0,-0.8152,-0.4518,-0.3607,0.5882,-0.3459,0.7301,0.0372
627,0.0,0.0,0.0,0.0,0.0,0.0,-0.8113,-0.4473,-0.3637,0.5883,-0.3457,0.7301,0.0369
628,0.0,0.0,0.0,0.0,0.0,0.0,-0.8113,-0.4433,-0.3670,0.5883,-0.3458,0.7301,0.0366
629,0.0,0.0,0.0,0.0,0.0,0.0,-0.8127,-0.4424,-0.3660,0.5881,-0.3457,0.7303,0.0361
630,0.0,0.0,0.0,0.0,0.0,0.0,-0.8171,-0.4430,-0.3649,0.5879,-0.3455,0.7305,0.0355
631,0.0,0.0,0.0,0.0,0.0,0.0,-0.8185,-0.4411,-0.3653,0.5878,-0.3456,0.7306,0.0354
632,0.0,0.0,0.0,0.0,0.0,0.0,-0.8180,-0.4367,-0.3667,0.5877,-0.3455,0.7308,0.0352
633,0.0,0.0,0.0,0.0,0.0,0.0,-0.8136,-0.4361,-0.3668,0.5875,-0.3454,0.7310,0.0350
634,0.0,0.0,0.0,0.0,0.0,0.0,-0.8113,-0.4390,-0.3669,0.5874,-0.3453,0.7311,0.0347
635,0.0,0.0,0.0,0.0,0.0,0.0,-0.8098,-0.4370,-0.3684,0.5874,-0.3452,0.7312,0.0345
636,0.0,0.0,0.0,0.0,0.0,0.0,-0.8141,-0.4351,-0.3687,0.5872,-0.3453,0.7313,0.0343
637,0.0,0.0,0.0,0.0,0.0,0.0,-0.8165,-0.4347,-0.3686,0.5870,-0.3452,0.7315,0.0338
638,0.0,0.0,0.0,0.0,0.0,0.0,-0.8174,-0.4259,-0.3708,0.5868,-0.3452,0.7317,0.0336
639,0.0,0.0,0.0,0.0,0.0,0.0,-0.8194,-0.4278,-0.3727,0.5865,-0.3450,0.7321,0.0333
640,0.0,0.0,0.0,0.0,0.0,0.0,-0.8204,-0.4288,-0.3747,0.5860,-0.3451,0.7324,0.0335
641,0.0,0.0,0.0,0.0,0.0,0.0,-0.8175,-0.4238,-0.3766,0.5855,-0.3450,0.7328,0.0338
642,0.0,0.0,0.0,0.0,0.0,0.0,-0.8172,-0.4350,-0.3759,0.5851,-0.3450,0.7331,0.0343
643,0.0,0.0,0.0,0.0,0.0,0.0,-0.8177,-0.4336,-0.3758,0.5848,-0.3449,0.7334,0.0350
644,0.0,0.0,0.0,0.0,0.0,0.0,-0.8160,-0.4268,-0.3704,0.5844,-0.3445,0.7338,0.0357
645,0.0,0.0,0.0,0.0,0.0,0.0,-0.8169,-0.4337,-0.3657,0.5843,-0.3442,0.7340,0.0365
646,0.0,0.0,0.0,0.0,0.0,0.0,-0.8159,-0.4362,-0.3628,0.5844,-0.3439,0.7341,0.0372
647,0.0,0.0,0.0,0.0,0.0,0.0,-0.8175,-0.4381,-0.3643,0.5845,-0.3438,0.7340,0.0379
648,0.0,0.0,0.0,0.0,0.0,0.0,-0.8281,-0.4452,-0.3612,0.5850,-0.3441,0.7334,0.0385
649,0.0,0.0,0.0,0.0,0.0,0.0,-0.8313,-0.4370,-0.3580,0.5858,-0.3442,0.7327,0.0391
650,0.0,0.0,0.0,0.0,0.0,0.0,-0.8211,-0.4364,-0.3569,0.5865,-0.3446,0.7319,0.0394
651,0.0,0.0,0.0,0.0,0.0,0.0,-0.8128,-0.4236,-0.3617,0.5869,-0.3450,0.7314,0.0395
652,0.0,0.0,0.0,0.0,0.0,0.0,-0.8102,-0.4113,-0.3645,0.5869,-0.3457,0.7311,0.0398
653,0.0,0.0,0.0,0.0,0.0,0.0,-0.8099,-0.4181,-0.3646,0.5868,-0.3465,0.7307,0.0400
654,0.0,0.0,0.0,0.0,0.0,0.0,-0.8106,-0.4263,-0.3677,0.5866,-0.3475,0.7304,0.0401
655,0.0,0.0,0.0,0.0,0.0,0.0,-0.8078,-0.4326,-0.3679,0.5864,-0.3487,0.7301,0.0402
656,0.0,0.0,0.0,0.0,0.0,0.0,-0.8067,-0.4471,-0.3706,0.5861,-0.3496,0.7299,0.0398
657,0.0,0.0,0.0,0.0,0.0,0.0,-0.8093,-0.4514,-0.3754,0.5858,-0.3502,0.7298,0.0391
658,0.0,0.0,0.0,0.0,0.0,0.0,-0.8079,-0.4479,-0.3812,0.5855,-0.3507,0.7299,0.0388
659,0.0,0.0,0.0,0.0,0.0,0.0,-0.8070,-0.4488,-0.3851,0.5850,-0.3508,0.7303,0.0383
660,0.0,0.0,0.0,0.0,0.0,0.0,-0.8071,-0.4487,-0.3861,0.5845,-0.3504,0.7309,0.0377
661,0.0,0.0,0.0,0.0,0.0,0.0,-0.8097,-0.4371,-0.3853,0.5842,-0.3496,0.7315,0.0372
662,0.0,0.0,0.0,0.0,0.0,0.0,-0.8166,-0.4164,-0.3857,0.5837,-0.3480,0.7326,0.0368
663,0.0,0.0,0.0,0.0,0.0,0.0,-0.8241,-0.4068,-0.3834,0.5832,-0.3464,0.7338,0.0371
664,0.0,0.0,0.0,0.0,0.0,0.0,-0.8240,-0.4074,-0.3790,0.5828,-0.3452,0.7347,0.0377
665,0.0,0.0,0.0,0.0,0.0,0.0,-0.8242,-0.4142,-0.3786,0.5824,-0.3443,0.7354,0.0386
666,0.0,0.0,0.0,0.0,0.0,0.0,-0.8225,-0.4282,-0.3809,0.5823,-0.3441,0.7355,0.0398
667,0.0,0.0,0.0,0.0,0.0,0.0,-0.8232,-0.4369,-0.3830,0.5823,-0.3441,0.7354,0.0406
668,0.0,0.0,0.0,0.0,0.0,0.0,-0.8197,-0.4374,-0.3792,0.5825,-0.3439,0.7353,0.0408
669,0.0,0.0,0.0,0.0,0.0,0.0,-0.8200,-0.4307,-0.3733,0.5830,-0.3438,0.7350,0.0408
670,0.0,0.0,0.0,0.0,0.0,0.0,-0.8207,-0.4196,-0.3701,0.5837,-0.3436,0.7345,0.0409
671,0.0,0.0,0.0,0.0,0.0,0.0,-0.8229,-0.4129,-0.3666,0.5845,-0.3435,0.7340,0.0414
672,0.0,0.0,0.0,0.0,0.0,0.0,-0.8229,-0.4188,-0.3647,0.5851,-0.3434,0.7335,0.0418
673,0.0,0.0,0.0,0.0,0.0,0.0,-0.8216,-0.4295,-0.3640,0.5858,-0.3435,0.7329,0.0419
674,0.0,0.0,0.0,0.0,0.0,0.0,-0.8134,-0.4328,-0.3619,0.5865,-0.3438,0.7322,0.0421
675,0.0,0.0,0.0,0.0,0.0,0.0,-0.8124,-0.4377,-0.3567,0.5872,-0.3441,0.7315,0.0421
676,0.0,0.0,0.0,0.0,0.0,0.0,-0.8070,-0.4367,-0.3544,0.5879,-0.3446,0.7307,0.0421
677,0.0,0.0,0.0,0.0,0.0,0.0,-0.8181,-0.4320,-0.3554,0.5884,-0.3448,0.7302,0.0421
678,0.0,0.0,0.0,0.0,0.0,0.0,-0.8088,-0.4305,-0.3504,0.5888,-0.3451,0.7297,0.0421
679,0.0,0.0,0.0,0.0,0.0,0.0,-0.8139,-0.4481,-0.3510,0.5892,-0.3458,0.7291,0.0419
680,0.0,0.0,0.0,0.0,0.0,0.0,-0.8150,-0.4233,-0.3544,0.5893,-0.3457,0.7290,0.0414
681,0.0,0.0,0.0,0.0,0.0,0.0,-0.8254,-0.4098,-0.3543,0.5890,-0.3455,0.7293,0.0414
682,0.0,0.0,0.0,0.0,0.0,0.0,-0.8255,-0.4112,-0.3572,0.5886,-0.3454,0.7297,0.0418
683,0.0,0.0,0.0,0.0,0.0,0.0,-0.8174,-0.4125,-0.3599,0.5879,-0.3455,0.7302,0.0424
684,0.0,0.0,0.0,0.0,0.0,0.0,-0.8145,-0.4406,-0.3601,0.5872,-0.3460,0.7305,0.0428
685,0.0,0.0,0.0,0.0,0.0,0.0,-0.8153,-0.4532,-0.3646,0.5867,-0.3461,0.7309,0.0423
686,0.0,0.0,0.0,0.0,0.0,0.0,-0.8177,-0.4444,-0.3683,0.5864,-0.3461,0.7312,0.0419
687,0.0,0.0,0.0,0.0,0.0,0.0,-0.8185,-0.4347,-0.3685,0.5860,-0.3460,0.7315,0.0414
688,0.0,0.0,0.0,0.0,0.0,0.0,-0.8217,-0.4206,-0.3711,0.5857,-0.3458,0.7319,0.0409
689,0.0,0.0,0.0,0.0,0.0,0.0,-0.8278,-0.4104,-0.3736,0.5851,-0.3455,0.7326,0.0405
690,0.0,0.0,0.0,0.0,0.0,0.0,-0.8303,-0.4134,-0.3736,0.5844,-0.3452,0.7333,0.0401
691,0.0,0.0,0.0,0.0,0.0,0.0,-0.8266,-0.4235,-0.3734,0.5840,-0.3453,0.7336,0.0399
692,0.0,0.0,0.0,0.0,0.0,0.0,-0.8182,-0.4340,-0.3768,0.5837,-0.3456,0.7336,0.0398
693,0.0,0.0,0.0,0.0,0.0,0.0,-0.8100,-0.4378,-0.3776,0.5834,-0.3460,0.7337,0.0392
694,0.0,0.0,0.0,0.0,0.0,0.0,-0.8071,-0.4329,-0.3776,0.5833,-0.3464,0.7337,0.0386
695,0.0,0.0,0.0,0.0,0.0,0.0,-0.8112,-0.4218,-0.3792,0.5831,-0.3468,0.7337,0.0381
696,0.0,0.0,0.0,0.0,0.0,0.0,-0.8185,-0.4233,-0.3775,0.5830,-0.3474,0.7335,0.0378
697,0.0,0.0,0.0,0.0,0.0,0.0,-0.8234,-0.4224,-0.3798,0.5829,-0.3482,0.7332,0.0377
698,0.0,0.0,0.0,0.0,0.0,0.0,-0.8292,-0.4234,-0.3820,0.5828,-0.3488,0.7330,0.0375
699,0.0,0.0,0.0,0.0,0.0,0.0,-0.8255,-0.4238,-0.3860,0.5825,-0.3496,0.7328,0.0376
700,0.0,0.0,0.0,0.0,0.0,0.0,-0.8105,-0.4171,-0.3912,0.5821,-0.3505,0.7327,0.0380
701,0.0,0.0,0.0,0.0,0.0,0.0,-0.8142,-0.4298,-0.3938,0.5815,-0.3514,0.7327,0.0383
702,0.0,0.0,0.0,0.0,0.0,0.0,-0.8056,-0.4428,-0.3919,0.5810,-0.3518,0.7329,0.0383
703,0.0,0.0,0.0,0.0,0.0,0.0,-0.7941,-0.4509,-0.3885,0.5806,-0.3520,0.7332,0.0381
704,0.0,0.0,0.0,0.0,0.0,0.0,-0.7954,-0.4407,-0.3907,0.5804,-0.3519,0.7334,0.0379
705,0.0,0.0,0.0,0.0,0.0,0.0,-0.8077,-0.4342,-0.3849,0.5803,-0.3514,0.7337,0.0379
706,0.0,0.0,0.0,0.0,0.0,0.0,-0.8106,-0.4333,-0.3838,0.5804,-0.3510,0.7338,0.0381
707,0.0,0.0,0.0,0.0,0.0,0.0,-0.8108,-0.4202,-0.3835,0.5804,-0.3502,0.7342,0.0382
708,0.0,0.0,0.0,0.0,0.0,0.0,-0.8145,-0.4110,-0.3832,0.5803,-0.3491,0.7348,0.0382
709,0.0,0.0,0.0,0.0,0.0,0.0,-0.8223,-0.3889,-0.3807,0.5801,-0.3481,0.7354,0.0389
710,0.0,0.0,0.0,0.0,0.0,0.0,-0.8314,-0.3866,-0.3784,0.5797,-0.3470,0.7362,0.0399
711,0.0,0.0,0.0,0.0,0.0,0.0,-0.8396,-0.3912,-0.3729,0.5793,-0.3463,0.7367,0.0413
712,0.0,0.0,0.0,0.0,0.0,0.0,-0.8231,-0.4211,-0.3706,0.5792,-0.3467,0.7365,0.0433
713,0.0,0.0,0.0,0.0,0.0,0.0,-0.8136,-0.4213,-0.3781,0.5787,-0.3469,0.7367,0.0444
714,0.0,0.0,0.0,0.0,0.0,0.0,-0.8147,-0.4223,-0.3805,0.5782,-0.3472,0.7370,0.0451
715,0.0,0.0,0.0,0.0,0.0,0.0,-0.8087,-0.4406,-0.3801,0.5778,-0.3483,0.7367,0.0461
716,0.0,0.0,0.0,0.0,0.0,0.0,-0.8074,-0.4445,-0.3821,0.5776,-0.3495,0.7362,0.0469
717,0.0,0.0,0.0,0.0,0.0,0.0,-0.8040,-0.4444,-0.3842,0.5773,-0.3504,0.7360,0.0469
718,0.0,0.0,0.0,0.0,0.0,0.0,-0.8055,-0.4419,-0.3865,0.5772,-0.3510,0.7358,0.0463
719,0.0,0.0,0.0,0.0,0.0,0.0,-0.8073,-0.4312,-0.3906,0.5772,-0.3514,0.7357,0.0456
720,0.0,0.0,0.0,0.0,0.0,0.0,-0.8087,-0.4200,-0.3933,0.5772,-0.3515,0.7358,0.0450
721,0.0,0.0,0.0,0.0,0.0,0.0,-0.8121,-0.4210,-0.3951,0.5772,-0.3514,0.7358,0.0446
722,0.0,0.0,0.0,0.0,0.0,0.0,-0.8165,-0.4215,-0.3965,0.5773,-0.3511,0.7359,0.0441
723,0.0,0.0,0.0,0.0,0.0,0.0,-0.8235,-0.4095,-0.3960,0.5773,-0.3503,0.7363,0.0434
724,0.0,0.0,0.0,0.0,0.0,0.0,-0.8238,-0.3983,-0.3958,0.5772,-0.3490,0.7370,0.0428
725,0.0,0.0,0.0,0.0,0.0,0.0,-0.8251,-0.3989,-0.3909,0.5772,-0.3481,0.7374,0.0425
726,0.0,0.0,0.0,0.0,0.0,0.0,-0.8261,-0.4024,-0.3876,0.5774,-0.3475,0.7376,0.0427
727,0.0,0.0,0.0,0.0,0.0,0.0,-0.8250,-0.3990,-0.3856,0.5776,-0.3470,0.7376,0.0432
728,0.0,0.0,0.0,0.0,0.0,0.0,-0.8236,-0.4019,-0.3842,0.5777,-0.3466,0.7377,0.0436
729,0.0,0.0,0.0,0.0,0.0,0.0,-0.8236,-0.4063,-0.3819,0.5778,-0.3463,0.7377,0.0441
730,0.0,0.0,0.0,0.0,0.0,0.0,-0.8203,-0.4082,-0.3830,0.5779,-0.3461,0.7377,0.0445
731,0.0,0.0,0.0,0.0,0.0,0.0,-0.8183,-0.4092,-0.3816,0.5780,-0.3463,0.7376,0.0447
732,0.0,0.0,0.0,0.0,0.0,0.0,-0.8189,-0.4185,-0.3794,0.5782,-0.3468,0.7371,0.0451
733,0.0,0.0,0.0,0.0,0.0,0.0,-0.8161,-0.4218,-0.3800,0.5785,-0.3470,0.7368,0.0450
734,0.0,0.0,0.0,0.0,0.0,0.0,-0.8131,-0.4154,-0.3805,0.5786,-0.3468,0.7369,0.0443
735,0.0,0.0,0.0,0.0,0.0,0.0,-0.8107,-0.4154,-0.3805,0.5786,-0.3467,0.7369,0.0438
736,0.0,0.0,0.0,0.0,0.0,0.0,-0.8098,-0.4227,-0.3807,0.5787,-0.3467,0.7369,0.0434
737,0.0,0.0,0.0,0.0,0.0,0.0,-0.8119,-0.4265,-0.3836,0.5787,-0.3463,0.7371,0.0428
738,0.0,0.0,0.0,0.0,0.0,0.0,-0.8143,-0.4207,-0.3854,0.5787,-0.3459,0.7374,0.0419
739,0.0,0.0,0.0,0.0,0.0,0.0,-0.8201,-0.4198,-0.3861,0.5786,-0.3454,0.7377,0.0412
740,0.0,0.0,0.0,0.0,0.0,0.0,-0.8215,-0.4169,-0.3860,0.5786,-0.3448,0.7381,0.0408
741,0.0,0.0,0.0,0.0,0.0,0.0,-0.8189,-0.4086,-0.3850,0.5784,-0.3442,0.7385,0.0404
742,0.0,0.0,0.0,0.0,0.0,0.0,-0.8237,-0.4063,-0.3848,0.5784,-0.3439,0.7386,0.0404
743,0.0,0.0,0.0,0.0,0.0,0.0,-0.8256,-0.4053,-0.3857,0.5783,-0.3436,0.7388,0.0406
744,0.0,0.0,0.0,0.0,0.0,0.0,-0.8120,-0.4013,-0.3851,0.5780,-0.3433,0.7392,0.0406
745,0.0,0.0,0.0,0.0,0.0,0.0,-0.8103,-0.4080,-0.3882,0.5775,-0.3433,0.7396,0.0406
746,0.0,0.0,0.0,0.0,0.0,0.0,-0.8225,-0.4174,-0.3865,0.5773,-0.3431,0.7399,0.0403
747,0.0,0.0,0.0,0.0,0.0,0.0,-0.8193,-0.4285,-0.3863,0.5773,-0.3431,0.7399,0.0396
748,0.0,0.0,0.0,0.0,0.0,0.0,-0.8134,-0.4236,-0.3879,0.5774,-0.3433,0.7397,0.0394
749,0.0,0.0,0.0,0.0,0.0,0.0,-0.8144,-0.4240,-0.3883,0.5776,-0.3434,0.7396,0.0389
750,0.0,0.0,0.0,0.0,0.0,0.0,-0.8129,-0.4177,-0.3897,0.5778,-0.3432,0.7395,0.0384
751,0.0,0.0,0.0,0.0,0.0,0.0,-0.8128,-0.4133,-0.3892,0.5781,-0.3429,0.7395,0.0378
752,0.0,0.0,0.0,0.0,0.0,0.0,-0.8157,-0.4134,-0.3881,0.5783,-0.3425,0.7395,0.0372
753,0.0,0.0,0.0,0.0,0.0,0.0,-0.8146,-0.4076,-0.3866,0.5784,-0.3419,0.7398,0.0367
754,0.0,0.0,0.0,0.0,0.0,0.0,-0.8112,-0.4154,-0.3834,0.5784,-0.3413,0.7400,0.0362
755,0.0,0.0,0.0,0.0,0.0,0.0,-0.8100,-0.4255,-0.3841,0.5784,-0.3411,0.7402,0.0357
756,0.0,0.0,0.0,0.0,0.0,0.0,-0.8119,-0.4236,-0.3865,0.5782,-0.3406,0.7406,0.0350
757,0.0,0.0,0.0,0.0,0.0,0.0,-0.8109,-0.4182,-0.3869,0.5779,-0.3400,0.7411,0.0344
758,0.0,0.0,0.0,0.0,0.0,0.0,-0.8138,-0.4187,-0.3883,0.5773,-0.3396,0.7418,0.0340
759,0.0,0.0,0.0,0.0,0.0,0.0,-0.8120,-0.4225,-0.3889,0.5767,-0.3392,0.7424,0.0338
760,0.0,0.0,0.0,0.0,0.0,0.0,-0.8092,-0.4288,-0.3891,0.5762,-0.3389,0.7430,0.0338
761,0.0,0.0,0.0,0.0,0.0,0.0,-0.8123,-0.4381,-0.3891,0.5759,-0.3389,0.7432,0.0339
762,0.0,0.0,0.0,0.0,0.0,0.0,-0.8112,-0.4337,-0.3891,0.5757,-0.3389,0.7434,0.0340
763,0.0,0.0,0.0,0.0,0.0,0.0,-0.8102,-0.4317,-0.3886,0.5757,-0.3388,0.7434,0.0342
764,0.0,0.0,0.0,0.0,0.0,0.0,-0.8131,-0.4259,-0.3908,0.5757,-0.3387,0.7434,0.0342
765,0.0,0.0,0.0,0.0,0.0,0.0,-0.8159,-0.4240,-0.3907,0.5759,-0.3386,0.7433,0.0345
766,0.0,0.0,0.0,0.0,0.0,0.0,-0.8163,-0.4182,-0.3901,0.5760,-0.3383,0.7434,0.0342
767,0.0,0.0,0.0,0.0,0.0,0.0,-0.8139,-0.4225,-0.3903,0.5763,-0.3382,0.7432,0.0342
768,0.0,0.0,0.0,0.0,0.0,0.0,-0.8144,-0.4211,-0.3892,0.5766,-0.3381,0.7429,0.0342
769,0.0,0.0,0.0,0.0,0.0,0.0,-0.8085,-0.4191,-0.3875,0.5769,-0.3381,0.7427,0.0342
770,0.0,0.0,0.0,0.0,0.0,0.0,-0.8150,-0.4334,-0.3841,0.5776,-0.3386,0.7420,0.0347
771,0.0,0.0,0.0,0.0,0.0,0.0,-0.8170,-0.4402,-0.3847,0.5782,-0.3387,0.7415,0.0346
772,0.0,0.0,0.0,0.0,0.0,0.0,-0.8140,-0.4294,-0.3870,0.5786,-0.3384,0.7413,0.0341
773,0.0,0.0,0.0,0.0,0.0,0.0,-0.8183,-0.4261,-0.3878,0.5790,-0.3383,0.7411,0.0338
774,0.0,0.0,0.0,0.0,0.0,0.0,-0.8175,-0.4110,-0.3875,0.5791,-0.3378,0.7412,0.0334
775,0.0,0.0,0.0,0.0,0.0,0.0,-0.8049,-0.4138,-0.3841,0.5791,-0.3376,0.7413,0.0332
776,0.0,0.0,0.0,0.0,0.0,0.0,-0.8061,-0.4250,-0.3838,0.5793,-0.3378,0.7411,0.0333
777,0.0,0.0,0.0,0.0,0.0,0.0,-0.8132,-0.4193,-0.3830,0.5795,-0.3379,0.7409,0.0334
778,0.0,0.0,0.0,0.0,0.0,0.0,-0.8152,-0.4257,-0.3806,0.5797,-0.3380,0.7406,0.0334
779,0.0,0.0,0.0,0.0,0.0,0.0,-0.8214,-0.4204,-0.3793,0.5802,-0.3382,0.7402,0.0338
780,0.0,0.0,0.0,0.0,0.0,0.0,-0.8067,-0.4125,-0.3792,0.5804,-0.3385,0.7398,0.0347
781,0.0,0.0,0.0,0.0,0.0,0.0,-0.8017,-0.4255,-0.3800,0.5804,-0.3388,0.7397,0.0355
782,0.0,0.0,0.0,0.0,0.0,0.0,-0.8068,-0.4425,-0.3812,0.5805,-0.3392,0.7394,0.0360
783,0.0,0.0,0.0,0.0,0.0,0.0,-0.8069,-0.4454,-0.3817,0.5806,-0.3396,0.7391,0.0363
784,0.0,0.0,0.0,0.0,0.0,0.0,-0.8125,-0.4383,-0.3794,0.5808,-0.3398,0.7388,0.0363
785,0.0,0.0,0.0,0.0,0.0,0.0,-0.8139,-0.4339,-0.3793,0.5809,-0.3401,0.7386,0.0364
786,0.0,0.0,0.0,0.0,0.0,0.0,-0.8090,-0.4314,-0.3804,0.5809,-0.3404,0.7385,0.0366
787,0.0,0.0,0.0,0.0,0.0,0.0,-0.8081,-0.4338,-0.3800,0.5809,-0.3407,0.7383,0.0367
788,0.0,0.0,0.0,0.0,0.0,0.0,-0.8087,-0.4401,-0.3801,0.5809,-0.3409,0.7382,0.0367
789,0.0,0.0,0.0,0.0,0.0,0.0,-0.8093,-0.4450,-0.3806,0.5810,-0.3406,0.7383,0.0363
790,0.0,0.0,0.0,0.0,0.0,0.0,-0.8063,-0.4435,-0.3793,0.5812,-0.3405,0.7382,0.0360
791,0.0,0.0,0.0,0.0,0.0,0.0,-0.8077,-0.4397,-0.3791,0.5814,-0.3403,0.7382,0.0356
792,0.0,0.0,0.0,0.0,0.0,0.0,-0.8082,-0.4397,-0.3786,0.5815,-0.3401,0.7382,0.0352
793,0.0,0.0,0.0,0.0,0.0,0.0,-0.8096,-0.4373,-0.3790,0.5815,-0.3398,0.7383,0.0347
794,0.0,0.0,0.0,0.0,0.0,0.0,-0.8086,-0.4333,-0.3800,0.5815,-0.3395,0.7385,0.0343
795,0.0,0.0,0.0,0.0,0.0,0.0,-0.8080,-0.4290,-0.3789,0.5816,-0.3395,0.7384,0.0341
796,0.0,0.0,0.0,0.0,0.0,0.0,-0.8103,-0.4227,-0.3783,0.5815,-0.3394,0.7386,0.0339
797,0.0,0.0,0.0,0.0,0.0,0.0,-0.8108,-0.4266,-0.3788,0.5813,-0.3391,0.7389,0.0339
798,0.0,0.0,0.0,0.0,0.0,0.0,-0.8146,-0.4223,-0.3791,0.5811,-0.3387,0.7392,0.0339
799,0.0,0.0,0.0,0.0,0.0,0.0,-0.8184,-0.4160,-0.3784,0.5807,-0.3382,0.7398,0.0339
800,0.0,0.0,0.0,0.0,0.0,0.0,-0.8164,-0.4180,-0.3756,0.5803,-0.3381,0.7401,0.0343
801,0.0,0.0,0.0,0.0,0.0,0.0,-0.8198,-0.4210,-0.3745,0.5801,-0.3384,0.7401,0.0351
802,0.0,0.0,0.0,0.0,0.0,0.0,-0.8262,-0.4235,-0.3763,0.5799,-0.3386,0.7401,0.0358
803,0.0,0.0,0.0,0.0,0.0,0.0,-0.8215,-0.4292,-0.3795,0.5797,-0.3388,0.7402,0.0364
804,0.0,0.0,0.0,0.0,0.0,0.0,-0.8050,-0.4483,-0.3808,0.5795,-0.3396,0.7399,0.0370
805,0.0,0.0,0.0,0.0,0.0,0.0,-0.8106,-0.4570,-0.3861,0.5794,-0.3401,0.7398,0.0367
806,0.0,0.0,0.0,0.0,0.0,0.0,-0.8090,-0.4225,-0.3870,0.5791,-0.3400,0.7401,0.0362
807,0.0,0.0,0.0,0.0,0.0,0.0,-0.7992,-0.4107,-0.3881,0.5786,-0.3401,0.7404,0.0364
808,0.0,0.0,0.0,0.0,0.0,0.0,-0.8046,-0.4147,-0.3894,0.5779,-0.3400,0.7410,0.0366
809,0.0,0.0,0.0,0.0,0.0,0.0,-0.8092,-0.4278,-0.3890,0.5774,-0.3398,0.7415,0.0369
810,0.0,0.0,0.0,0.0,0.0,0.0,-0.8175,-0.4318,-0.3898,0.5770,-0.3396,0.7419,0.0372
811,0.0,0.0,0.0,0.0,0.0,0.0,-0.8189,-0.4250,-0.3911,0.5766,-0.3388,0.7426,0.0371
812,0.0,0.0,0.0,0.0,0.0,0.0,-0.8167,-0.4133,-0.3924,0.5761,-0.3379,0.7433,0.0370
813,0.0,0.0,0.0,0.0,0.0,0.0,-0.8161,-0.4100,-0.3904,0.5756,-0.3375,0.7439,0.0375
814,0.0,0.0,0.0,0.0,0.0,0.0,-0.8182,-0.4178,-0.3876,0.5751,-0.3371,0.7444,0.0379
815,0.0,0.0,0.0,0.0,0.0,0.0,-0.8142,-0.4401,-0.3877,0.5750,-0.3369,0.7446,0.0378
816,0.0,0.0,0.0,0.0,0.0,0.0,-0.8180,-0.4333,-0.3918,0.5751,-0.3368,0.7446,0.0377
817,0.0,0.0,0.0,0.0,0.0,0.0,-0.8189,-0.4299,-0.3893,0.5754,-0.3372,0.7442,0.0378
818,0.0,0.0,0.0,0.0,0.0,0.0,-0.8185,-0.4343,-0.3879,0.5759,-0.3376,0.7436,0.0377
819,0.0,0.0,0.0,0.0,0.0,0.0,-0.8173,-0.4250,-0.3887,0.5764,-0.3379,0.7431,0.0374
820,0.0,0.0,0.0,0.0,0.0,0.0,-0.8143,-0.4217,-0.3864,0.5771,-0.3382,0.7424,0.0372
821,0.0,0.0,0.0,0.0,0.0,0.0,-0.8095,-0.4245,-0.3856,0.5778,-0.3385,0.7418,0.0370
822,0.0,0.0,0.0,0.0,0.0,0.0,-0.8147,-0.4217,-0.3839,0.5785,-0.3387,0.7411,0.0371
823,0.0,0.0,0.0,0.0,0.0,0.0,-0.8138,-0.4227,-0.3825,0.5793,-0.3389,0.7404,0.0374
824,0.0,0.0,0.0,0.0,0.0,0.0,-0.8030,-0.4197,-0.3809,0.5797,-0.3388,0.7401,0.0372
825,0.0,0.0,0.0,0.0,0.0,0.0,-0.8050,-0.4266,-0.3771,0.5801,-0.3389,0.7397,0.0370
826,0.0,0.0,0.0,0.0,0.0,0.0,-0.8089,-0.4285,-0.3779,0.5806,-0.3391,0.7393,0.0368
827,0.0,0.0,0.0,0.0,0.0,0.0,-0.8070,-0.4246,-0.3799,0.5809,-0.3391,0.7391,0.0364
828,0.0,0.0,0.0,0.0,0.0,0.0,-0.8104,-0.4251,-0.3812,0.5811,-0.3392,0.7389,0.0360
829,0.0,0.0,0.0,0.0,0.0,0.0,-0.8138,-0.4261,-0.3826,0.5812,-0.3391,0.7389,0.0355
830,0.0,0.0,0.0,0.0,0.0,0.0,-0.8103,-0.4192,-0.3830,0.5811,-0.3387,0.7392,0.0350
831,0.0,0.0,0.0,0.0,0.0,0.0,-0.8119,-0.4260,-0.3836,0.5810,-0.3382,0.7395,0.0345
832,0.0,0.0,0.0,0.0,0.0,0.0,-0.8153,-0.4261,-0.3820,0.5812,-0.3380,0.7394,0.0346
833,0.0,0.0,0.0,0.0,0.0,0.0,-0.8119,-0.4275,-0.3812,0.5813,-0.3379,0.7394,0.0347
834,0.0,0.0,0.0,0.0,0.0,0.0,-0.8129,-0.4315,-0.3798,0.5813,-0.3375,0.7395,0.0344
835,0.0,0.0,0.0,0.0,0.0,0.0,-0.8177,-0.4291,-0.3801,0.5814,-0.3372,0.7397,0.0343
836,0.0,0.0,0.0,0.0,0.0,0.0,-0.8160,-0.4219,-0.3776,0.5816,-0.3370,0.7396,0.0345
837,0.0,0.0,0.0,0.0,0.0,0.0,-0.8208,-0.4146,-0.3788,0.5817,-0.3367,0.7397,0.0345
838,0.0,0.0,0.0,0.0,0.0,0.0,-0.8202,-0.4117,-0.3768,0.5817,-0.3365,0.7397,0.0346
839,0.0,0.0,0.0,0.0,0.0,0.0,-0.8176,-0.4277,-0.3757,0.5817,-0.3365,0.7397,0.0345
840,0.0,0.0,0.0,0.0,0.0,0.0,-0.8208,-0.4215,-0.3765,0.5819,-0.3367,0.7395,0.0345
841,0.0,0.0,0.0,0.0,0.0,0.0,-0.8160,-0.4190,-0.3766,0.5820,-0.3372,0.7392,0.0347
842,0.0,0.0,0.0,0.0,0.0,0.0,-0.8146,-0.4277,-0.3753,0.5820,-0.3377,0.7389,0.0348
843,0.0,0.0,0.0,0.0,0.0,0.0,-0.8117,-0.4291,-0.3745,0.5822,-0.3385,0.7384,0.0351
844,0.0,0.0,0.0,0.0,0.0,0.0,-0.8090,-0.4339,-0.3756,0.5823,-0.3394,0.7379,0.0356
845,0.0,0.0,0.0,0.0,0.0,0.0,-0.8105,-0.4368,-0.3771,0.5824,-0.3400,0.7375,0.0357
846,0.0,0.0,0.0,0.0,0.0,0.0,-0.8110,-0.4373,-0.3775,0.5824,-0.3406,0.7373,0.0358
847,0.0,0.0,0.0,0.0,0.0,0.0,-0.8111,-0.4402,-0.3776,0.5826,-0.3413,0.7368,0.0360
848,0.0,0.0,0.0,0.0,0.0,0.0,-0.8102,-0.4411,-0.3801,0.5826,-0.3415,0.7367,0.0357
849,0.0,0.0,0.0,0.0,0.0,0.0,-0.8112,-0.4421,-0.3805,0.5827,-0.3418,0.7365,0.0354
850,0.0,0.0,0.0,0.0,0.0,0.0,-0.8086,-0.4368,-0.3795,0.5828,-0.3423,0.7362,0.0354
851,0.0,0.0,0.0,0.0,0.0,0.0,-0.8023,-0.4357,-0.3773,0.5828,-0.3427,0.7360,0.0349
852,0.0,0.0,0.0,0.0,0.0,0.0,-0.8057,-0.4382,-0.3797,0.5828,-0.3432,0.7358,0.0347
853,0.0,0.0,0.0,0.0,0.0,0.0,-0.8096,-0.4372,-0.3805,0.5828,-0.3434,0.7357,0.0342
854,0.0,0.0,0.0,0.0,0.0,0.0,-0.8076,-0.4343,-0.3786,0.5827,-0.3435,0.7358,0.0337
855,0.0,0.0,0.0,0.0,0.0,0.0,-0.8083,-0.4489,-0.3764,0.5828,-0.3441,0.7354,0.0339
856,0.0,0.0,0.0,0.0,0.0,0.0,-0.8049,-0.4508,-0.3770,0.5830,-0.3446,0.7350,0.0337
857,0.0,0.0,0.0,0.0,0.0,0.0,-0.8046,-0.4561,-0.3786,0.5832,-0.3450,0.7346,0.0334
858,0.0,0.0,0.0,0.0,0.0,0.0,-0.8093,-0.4474,-0.3792,0.5834,-0.3452,0.7344,0.0330
859,0.0,0.0,0.0,0.0,0.0,0.0,-0.8086,-0.4373,-0.3781,0.5836,-0.3454,0.7342,0.0326
860,0.0,0.0,0.0,0.0,0.0,0.0,-0.8085,-0.4334,-0.3785,0.5837,-0.3453,0.7342,0.0322
861,0.0,0.0,0.0,0.0,0.0,0.0,-0.8094,-0.4305,-0.3775,0.5837,-0.3449,0.7344,0.0317
862,0.0,0.0,0.0,0.0,0.0,0.0,-0.8099,-0.4320,-0.3775,0.5837,-0.3448,0.7344,0.0317
863,0.0,0.0,0.0,0.0,0.0,0.0,-0.8144,-0.4427,-0.3751,0.5840,-0.3452,0.7340,0.0320
864,0.0,0.0,0.0,0.0,0.0,0.0,-0.8108,-0.4578,-0.3745,0.5843,-0.3457,0.7335,0.0323
865,0.0,0.0,0.0,0.0,0.0,0.0,-0.8064,-0.4558,-0.3727,0.5847,-0.3461,0.7330,0.0322
866,0.0,0.0,0.0,0.0,0.0,0.0,-0.8053,-0.4524,-0.3727,0.5850,-0.3464,0.7326,0.0318
867,0.0,0.0,0.0,0.0,0.0,0.0,-0.8057,-0.4431,-0.3744,0.5852,-0.3463,0.7325,0.0313
868,0.0,0.0,0.0,0.0,0.0,0.0,-0.8094,-0.4359,-0.3737,0.5853,-0.3461,0.7326,0.0308
869,0.0,0.0,0.0,0.0,0.0,0.0,-0.8088,-0.4326,-0.3703,0.5853,-0.3456,0.7328,0.0305
870,0.0,0.0,0.0,0.0,0.0,0.0,-0.8062,-0.4559,-0.3674,0.5855,-0.3456,0.7327,0.0303
871,0.0,0.0,0.0,0.0,0.0,0.0,-0.7990,-0.4582,-0.3672,0.5859,-0.3456,0.7324,0.0303
872,0.0,0.0,0.0,0.0,0.0,0.0,-0.7946,-0.4528,-0.3682,0.5859,-0.3454,0.7325,0.0301
873,0.0,0.0,0.0,0.0,0.0,0.0,-0.8005,-0.4528,-0.3704,0.5858,-0.3452,0.7327,0.0297
874,0.0,0.0,0.0,0.0,0.0,0.0,-0.8051,-0.4402,-0.3725,0.5855,-0.3448,0.7331,0.0296
875,0.0,0.0,0.0,0.0,0.0,0.0,-0.8067,-0.4495,-0.3706,0.5851,-0.3445,0.7336,0.0295
876,0.0,0.0,0.0,0.0,0.0,0.0,-0.8059,-0.4602,-0.3709,0.5847,-0.3442,0.7340,0.0294
877,0.0,0.0,0.0,0.0,0.0,0.0,-0.8039,-0.4577,-0.3704,0.5843,-0.3439,0.7345,0.0291
878,0.0,0.0,0.0,0.0,0.0,0.0,-0.8078,-0.4568,-0.3717,0.5842,-0.3437,0.7347,0.0291
879,0.0,0.0,0.0,0.0,0.0,0.0,-0.8053,-0.4480,-0.3740,0.5840,-0.3435,0.7350,0.0293
880,0.0,0.0,0.0,0.0,0.0,0.0,-0.8067,-0.4407,-0.3758,0.5836,-0.3430,0.7355,0.0293
881,0.0,0.0,0.0,0.0,0.0,0.0,-0.8116,-0.4422,-0.3766,0.5832,-0.3426,0.7360,0.0294
882,0.0,0.0,0.0,0.0,0.0,0.0,-0.8092,-0.4412,-0.3782,0.5828,-0.3421,0.7365,0.0296
883,0.0,0.0,0.0,0.0,0.0,0.0,-0.8115,-0.4412,-0.3766,0.5825,-0.3418,0.7369,0.0298
884,0.0,0.0,0.0,0.0,0.0,0.0,-0.8130,-0.4432,-0.3766,0.5821,-0.3415,0.7373,0.0300
885,0.0,0.0,0.0,0.0,0.0,0.0,-0.8134,-0.4378,-0.3780,0.5819,-0.3413,0.7376,0.0303
886,0.0,0.0,0.0,0.0,0.0,0.0,-0.8172,-0.4345,-0.3758,0.5818,-0.3413,0.7376,0.0308
887,0.0,0.0,0.0,0.0,0.0,0.0,-0.8128,-0.4296,-0.3769,0.5817,-0.3413,0.7376,0.0313
888,0.0,0.0,0.0,0.0,0.0,0.0,-0.8147,-0.4306,-0.3773,0.5817,-0.3416,0.7375,0.0321
889,0.0,0.0,0.0,0.0,0.0,0.0,-0.8091,-0.4427,-0.3748,0.5819,-0.3421,0.7371,0.0329
890,0.0,0.0,0.0,0.0,0.0,0.0,-0.8095,-0.4393,-0.3742,0.5823,-0.3422,0.7367,0.0329
891,0.0,0.0,0.0,0.0,0.0,0.0,-0.8228,-0.4259,-0.3760,0.5826,-0.3419,0.7367,0.0324
892,0.0,0.0,0.0,0.0,0.0,0.0,-0.8176,-0.4302,-0.3743,0.5829,-0.3415,0.7366,0.0322
893,0.0,0.0,0.0,0.0,0.0,0.0,-0.8037,-0.4456,-0.3707,0.5835,-0.3418,0.7360,0.0328
894,0.0,0.0,0.0,0.0,0.0,0.0,-0.8085,-0.4753,-0.3677,0.5846,-0.3425,0.7347,0.0330
895,0.0,0.0,0.0,0.0,0.0,0.0,-0.8047,-0.4831,-0.3636,0.5859,-0.3428,0.7336,0.0319
896,0.0,0.0,0.0,0.0,0.0,0.0,-0.8055,-0.4403,-0.3686,0.5868,-0.3425,0.7331,0.0301
897,0.0,0.0,0.0,0.0,0.0,0.0,-0.8140,-0.4021,-0.3681,0.5872,-0.3422,0.7330,0.0290
898,0.0,0.0,0.0,0.0,0.0,0.0,-0.8080,-0.4127,-0.3699,0.5872,-0.3421,0.7331,0.0283
899,0.0,0.0,0.0,0.0,0.0,0.0,-0.8078,-0.4232,-0.3745,0.5869,-0.3423,0.7332,0.0281
900,0.0,0.0,0.0,0.0,0.0,0.0,-0.8167,-0.4365,-0.3720,0.5865,-0.3428,0.7333,0.0279
901,0.0,0.0,0.0,0.0,0.0,0.0,-0.8187,-0.4429,-0.3701,0.5864,-0.3431,0.7332,0.0281
902,0.0,0.0,0.0,0.0,0.0,0.0,-0.8142,-0.4325,-0.3754,0.5862,-0.3434,0.7332,0.0288
903,0.0,0.0,0.0,0.0,0.0,0.0,-0.8044,-0.4266,-0.3746,0.5857,-0.3432,0.7337,0.0292
904,0.0,0.0,0.0,0.0,0.0,0.0,-0.8086,-0.4426,-0.3763,0.5853,-0.3431,0.7341,0.0294
905,0.0,0.0,0.0,0.0,0.0,0.0,-0.8158,-0.4389,-0.3760,0.5850,-0.3432,0.7342,0.0298
906,0.0,0.0,0.0,0.0,0.0,0.0,-0.8149,-0.4398,-0.3765,0.5847,-0.3430,0.7346,0.0301
907,0.0,0.0,0.0,0.0,0.0,0.0,-0.8177,-0.4379,-0.3754,0.5844,-0.3425,0.7350,0.0301
908,0.0,0.0,0.0,0.0,0.0,0.0,-0.8110,-0.4378,-0.3766,0.5841,-0.3423,0.7353,0.0302
909,0.0,0.0,0.0,0.0,0.0,0.0,-0.8090,-0.4358,-0.3766,0.5838,-0.3420,0.7357,0.0304
910,0.0,0.0,0.0,0.0,0.0,0.0,-0.8067,-0.4485,-0.3730,0.5837,-0.3424,0.7355,0.0312
911,0.0,0.0,0.0,0.0,0.0,0.0,-0.7991,-0.4522,-0.3748,0.5838,-0.3429,0.7353,0.0316
912,0.0,0.0,0.0,0.0,0.0,0.0,-0.8001,-0.4503,-0.3757,0.5838,-0.3427,0.7354,0.0312
913,0.0,0.0,0.0,0.0,0.0,0.0,-0.8087,-0.4461,-0.3744,0.5838,-0.3425,0.7355,0.0311
914,0.0,0.0,0.0,0.0,0.0,0.0,-0.8134,-0.4457,-0.3713,0.5840,-0.3423,0.7354,0.0314
915,0.0,0.0,0.0,0.0,0.0,0.0,-0.8139,-0.4492,-0.3694,0.5844,-0.3423,0.7351,0.0318
916,0.0,0.0,0.0,0.0,0.0,0.0,-0.8115,-0.4472,-0.3700,0.5848,-0.3418,0.7350,0.0318
917,0.0,0.0,0.0,0.0,0.0,0.0,-0.8127,-0.4444,-0.3645,0.5852,-0.3413,0.7349,0.0319
918,0.0,0.0,0.0,0.0,0.0,0.0,-0.8174,-0.4416,-0.3590,0.5858,-0.3413,0.7344,0.0324
919,0.0,0.0,0.0,0.0,0.0,0.0,-0.8169,-0.4417,-0.3585,0.5864,-0.3412,0.7339,0.0328
920,0.0,0.0,0.0,0.0,0.0,0.0,-0.8125,-0.4396,-0.3601,0.5868,-0.3411,0.7337,0.0330
921,0.0,0.0,0.0,0.0,0.0,0.0,-0.8096,-0.4411,-0.3578,0.5871,-0.3413,0.7333,0.0335
922,0.0,0.0,0.0,0.0,0.0,0.0,-0.8101,-0.4431,-0.3559,0.5873,-0.3412,0.7332,0.0336
923,0.0,0.0,0.0,0.0,0.0,0.0,-0.8158,-0.4348,-0.3585,0.5873,-0.3411,0.7332,0.0336
924,0.0,0.0,0.0,0.0,0.0,0.0,-0.8220,-0.4301,-0.3591,0.5872,-0.3409,0.7334,0.0336
925,0.0,0.0,0.0,0.0,0.0,0.0,-0.8184,-0.4421,-0.3614,0.5873,-0.3412,0.7332,0.0342
926,0.0,0.0,0.0,0.0,0.0,0.0,-0.8167,-0.4469,-0.3645,0.5873,-0.3416,0.7330,0.0346
927,0.0,0.0,0.0,0.0,0.0,0.0,-0.8186,-0.4425,-0.3672,0.5870,-0.3413,0.7333,0.0343
928,0.0,0.0,0.0,0.0,0.0,0.0,-0.8161,-0.4376,-0.3677,0.5868,-0.3409,0.7337,0.0342
929,0.0,0.0,0.0,0.0,0.0,0.0,-0.8175,-0.4366,-0.3672,0.5865,-0.3404,0.7341,0.0341
930,0.0,0.0,0.0,0.0,0.0,0.0,-0.8171,-0.4380,-0.3691,0.5863,-0.3401,0.7344,0.0343
931,0.0,0.0,0.0,0.0,0.0,0.0,-0.8146,-0.4361,-0.3682,0.5862,-0.3396,0.7347,0.0345
932,0.0,0.0,0.0,0.0,0.0,0.0,-0.8116,-0.4297,-0.3701,0.5860,-0.3389,0.7352,0.0348
933,0.0,0.0,0.0,0.0,0.0,0.0,-0.8145,-0.4288,-0.3700,0.5858,-0.3383,0.7356,0.0351
934,0.0,0.0,0.0,0.0,0.0,0.0,-0.8179,-0.4244,-0.3722,0.5856,-0.3375,0.7362,0.0352
935,0.0,0.0,0.0,0.0,0.0,0.0,-0.8140,-0.4184,-0.3766,0.5850,-0.3362,0.7372,0.0352
936,0.0,0.0,0.0,0.0,0.0,0.0,-0.8121,-0.4179,-0.3776,0.5844,-0.3351,0.7382,0.0353
937,0.0,0.0,0.0,0.0,0.0,0.0,-0.8159,-0.4146,-0.3755,0.5838,-0.3341,0.7391,0.0354
938,0.0,0.0,0.0,0.0,0.0,0.0,-0.8277,-0.4047,-0.3711,0.5833,-0.3330,0.7400,0.0357
939,0.0,0.0,0.0,0.0,0.0,0.0,-0.8288,-0.4154,-0.3688,0.5831,-0.3324,0.7404,0.0364
940,0.0,0.0,0.0,0.0,0.0,0.0,-0.8360,-0.4121,-0.3710,0.5830,-0.3317,0.7407,0.0371
941,0.0,0.0,0.0,0.0,0.0,0.0,-0.8326,-0.4096,-0.3715,0.5830,-0.3310,0.7410,0.0377
942,0.0,0.0,0.0,0.0,0.0,0.0,-0.8291,-0.4091,-0.3687,0.5832,-0.3307,0.7410,0.0385
943,0.0,0.0,0.0,0.0,0.0,0.0,-0.8303,-0.4223,-0.3665,0.5835,-0.3306,0.7407,0.0395
944,0.0,0.0,0.0,0.0,0.0,0.0,-0.8259,-0.4237,-0.3657,0.5839,-0.3303,0.7405,0.0400
945,0.0,0.0,0.0,0.0,0.0,0.0,-0.8257,-0.4140,-0.3650,0.5843,-0.3300,0.7403,0.0402
946,0.0,0.0,0.0,0.0,0.0,0.0,-0.8301,-0.4150,-0.3644,0.5847,-0.3298,0.7401,0.0405
947,0.0,0.0,0.0,0.0,0.0,0.0,-0.8261,-0.4097,-0.3635,0.5851,-0.3295,0.7399,0.0407
948,0.0,0.0,0.0,0.0,0.0,0.0,-0.8240,-0.4014,-0.3610,0.5854,-0.3291,0.7399,0.0407
949,0.0,0.0,0.0,0.0,0.0,0.0,-0.8196,-0.4024,-0.3592,0.5856,-0.3291,0.7396,0.0410
950,0.0,0.0,0.0,0.0,0.0,0.0,-0.8217,-0.4131,-0.3598,0.5858,-0.3293,0.7394,0.0410
951,0.0,0.0,0.0,0.0,0.0,0.0,-0.8268,-0.4208,-0.3622,0.5861,-0.3295,0.7391,0.0408
952,0.0,0.0,0.0,0.0,0.0,0.0,-0.8306,-0.4190,-0.3625,0.5864,-0.3300,0.7386,0.0408
953,0.0,0.0,0.0,0.0,0.0,0.0,-0.8272,-0.4140,-0.3645,0.5866,-0.3303,0.7383,0.0406
954,0.0,0.0,0.0,0.0,0.0,0.0,-0.8194,-0.4100,-0.3647,0.5867,-0.3307,0.7381,0.0405
955,0.0,0.0,0.0,0.0,0.0,0.0,-0.8296,-0.4140,-0.3654,0.5867,-0.3309,0.7380,0.0404
956,0.0,0.0,0.0,0.0,0.0,0.0,-0.8272,-0.4155,-0.3636,0.5868,-0.3311,0.7379,0.0403
957,0.0,0.0,0.0,0.0,0.0,0.0,-0.8240,-0.4295,-0.3629,0.5870,-0.3314,0.7376,0.0401
958,0.0,0.0,0.0,0.0,0.0,0.0,-0.8257,-0.4363,-0.3650,0.5873,-0.3317,0.7372,0.0397
959,0.0,0.0,0.0,0.0,0.0,0.0,-0.8221,-0.4270,-0.3649,0.5877,-0.3316,0.7370,0.0392
960,0.0,0.0,0.0,0.0,0.0,0.0,-0.8176,-0.4163,-0.3653,0.5878,-0.3313,0.7370,0.0386
961,0.0,0.0,0.0,0.0,0.0,0.0,-0.8248,-0.4189,-0.3632,0.5881,-0.3313,0.7368,0.0382
962,0.0,0.0,0.0,0.0,0.0,0.0,-0.8252,-0.4145,-0.3612,0.5883,-0.3315,0.7366,0.0383
963,0.0,0.0,0.0,0.0,0.0,0.0,-0.8152,-0.4270,-0.3598,0.5884,-0.3320,0.7362,0.0384
964,0.0,0.0,0.0,0.0,0.0,0.0,-0.8222,-0.4363,-0.3607,0.5886,-0.3325,0.7359,0.0379
965,0.0,0.0,0.0,0.0,0.0,0.0,-0.8287,-0.4224,-0.3598,0.5889,-0.3326,0.7357,0.0374
966,0.0,0.0,0.0,0.0,0.0,0.0,-0.8285,-0.4151,-0.3601,0.5889,-0.3327,0.7356,0.0371
967,0.0,0.0,0.0,0.0,0.0,0.0,-0.8256,-0.4156,-0.3593,0.5888,-0.3328,0.7356,0.0369
968,0.0,0.0,0.0,0.0,0.0,0.0,-0.8195,-0.4227,-0.3591,0.5887,-0.3333,0.7355,0.0370
969,0.0,0.0,0.0,0.0,0.0,0.0,-0.8234,-0.4277,-0.3591,0.5887,-0.3339,0.7352,0.0372
970,0.0,0.0,0.0,0.0,0.0,0.0,-0.8228,-0.4208,-0.3599,0.5885,-0.3345,0.7351,0.0376
971,0.0,0.0,0.0,0.0,0.0,0.0,-0.8223,-0.4223,-0.3585,0.5883,-0.3349,0.7351,0.0377
972,0.0,0.0,0.0,0.0,0.0,0.0,-0.8219,-0.4262,-0.3576,0.5879,-0.3352,0.7352,0.0375
973,0.0,0.0,0.0,0.0,0.0,0.0,-0.8191,-0.4266,-0.3592,0.5877,-0.3358,0.7351,0.0377
974,0.0,0.0,0.0,0.0,0.0,0.0,-0.8156,-0.4246,-0.3592,0.5874,-0.3366,0.7350,0.0379
975,0.0,0.0,0.0,0.0,0.0,0.0,-0.8138,-0.4251,-0.3608,0.5870,-0.3372,0.7351,0.0379
976,0.0,0.0,0.0,0.0,0.0,0.0,-0.8126,-0.4386,-0.3615,0.5867,-0.3378,0.7350,0.0379
977,0.0,0.0,0.0,0.0,0.0,0.0,-0.8122,-0.4410,-0.3645,0.5864,-0.3382,0.7351,0.0374
978,0.0,0.0,0.0,0.0,0.0,0.0,-0.8132,-0.4380,-0.3673,0.5860,-0.3385,0.7353,0.0368
979,0.0,0.0,0.0,0.0,0.0,0.0,-0.8171,-0.4385,-0.3687,0.5857,-0.3387,0.7355,0.0364
980,0.0,0.0,0.0,0.0,0.0,0.0,-0.8180,-0.4322,-0.3714,0.5853,-0.3391,0.7356,0.0360
981,0.0,0.0,0.0,0.0,0.0,0.0,-0.8157,-0.4350,-0.3744,0.5848,-0.3394,0.7359,0.0355
982,0.0,0.0,0.0,0.0,0.0,0.0,-0.8207,-0.4375,-0.3768,0.5843,-0.3394,0.7363,0.0349
983,0.0,0.0,0.0,0.0,0.0,0.0,-0.8240,-0.4366,-0.3747,0.5841,-0.3395,0.7365,0.0346
984,0.0,0.0,0.0,0.0,0.0,0.0,-0.8240,-0.4390,-0.3747,0.5842,-0.3397,0.7363,0.0346
985,0.0,0.0,0.0,0.0,0.0,0.0,-0.8235,-0.4375,-0.3747,0.5843,-0.3398,0.7362,0.0343
986,0.0,0.0,0.0,0.0,0.0,0.0,-0.8258,-0.4328,-0.3731,0.5846,-0.3401,0.7358,0.0344
987,0.0,0.0,0.0,0.0,0.0,0.0,-0.8247,-0.4264,-0.3735,0.5850,-0.3404,0.7354,0.0348
988,0.0,0.0,0.0,0.0,0.0,0.0,-0.8169,-0.4224,-0.3732,0.5852,-0.3408,0.7350,0.0349
989,0.0,0.0,0.0,0.0,0.0,0.0,-0.8169,-0.4210,-0.3727,0.5853,-0.3414,0.7346,0.0350
990,0.0,0.0,0.0,0.0,0.0,0.0,-0.8182,-0.4176,-0.3711,0.5854,-0.3421,0.7342,0.0352
991,0.0,0.0,0.0,0.0,0.0,0.0,-0.8182,-0.4167,-0.3716,0.5854,-0.3427,0.7339,0.0354
992,0.0,0.0,0.0,0.0,0.0,0.0,-0.8155,-0.4234,-0.3728,0.5854,-0.3437,0.7334,0.0359
993,0.0,0.0,0.0,0.0,0.0,0.0,-0.8122,-0.4282,-0.3730,0.5856,-0.3449,0.7327,0.0366
994,0.0,0.0,0.0,0.0,0.0,0.0,-0.8103,-0.4315,-0.3746,0.5856,-0.3459,0.7322,0.0368
995,0.0,0.0,0.0,0.0,0.0,0.0,-0.8146,-0.4257,-0.3762,0.5856,-0.3467,0.7317,0.0370
996,0.0,0.0,0.0,0.0,0.0,0.0,-0.8160,-0.4160,-0.3785,0.5856,-0.3473,0.7315,0.0376
997,0.0,0.0,0.0,0.0,0.0,0.0,-0.8164,-0.4101,-0.3808,0.5852,-0.3475,0.7317,0.0381
998,0.0,0.0,0.0,0.0,0.0,0.0,-0.8159,-0.4111,-0.3808,0.5846,-0.3473,0.7322,0.0389
999,0.0,0.0,0.0,0.0,0.0,0.0,-0.8095,-0.4344,-0.3771,0.5843,-0.3476,0.7323,0.0401
1000,0.0,0.0,0.0,0.0,0.0,0.0,-0.8150,-0.4466,-0.3781,0.5841,-0.3479,0.7322,0.0410
1001,0.0,0.0,0.0,0.0,0.0,0.0,-0.8269,-0.4307,-0.3784,0.5839,-0.3477,0.7324,0.0417
1002,0.0,0.0,0.0,0.0,0.0,0.0,-0.8245,-0.4113,-0.3747,0.5836,-0.3471,0.7329,0.0424
1003,0.0,0.0,0.0,0.0,0.0,0.0,-0.8225,-0.4060,-0.3752,0.5832,-0.3464,0.7335,0.0429
1004,0.0,0.0,0.0,0.0,0.0,0.0,-0.8202,-0.4166,-0.3740,0.5827,-0.3463,0.7339,0.0438
1005,0.0,0.0,0.0,0.0,0.0,0.0,-0.8183,-0.4181,-0.3745,0.5824,-0.3461,0.7343,0.0443
1006,0.0,0.0,0.0,0.0,0.0,0.0,-0.8211,-0.4123,-0.3743,0.5820,-0.3458,0.7346,0.0446
1007,0.0,0.0,0.0,0.0,0.0,0.0,-0.8226,-0.4133,-0.3738,0.5818,-0.3457,0.7349,0.0450
1008,0.0,0.0,0.0,0.0,0.0,0.0,-0.8225,-0.4119,-0.3724,0.5816,-0.3455,0.7351,0.0452
1009,0.0,0.0,0.0,0.0,0.0,0.0,-0.8240,-0.4109,-0.3737,0.5815,-0.3452,0.7353,0.0452
1010,0.0,0.0,0.0,0.0,0.0,0.0,-0.8236,-0.4123,-0.3767,0.5815,-0.3450,0.7354,0.0451
1011,0.0,0.0,0.0,0.0,0.0,0.0,-0.8217,-0.4171,-0.3759,0.5815,-0.3451,0.7353,0.0453
1012,0.0,0.0,0.0,0.0,0.0,0.0,-0.8231,-0.4142,-0.3758,0.5817,-0.3450,0.7352,0.0453
1013,0.0,0.0,0.0,0.0,0.0,0.0,-0.8241,-0.4123,-0.3762,0.5817,-0.3445,0.7354,0.0449
1014,0.0,0.0,0.0,0.0,0.0,0.0,-0.8202,-0.4166,-0.3754,0.5818,-0.3443,0.7355,0.0447
1015,0.0,0.0,0.0,0.0,0.0,0.0,-0.8221,-0.4142,-0.3753,0.5818,-0.3441,0.7356,0.0446
1016,0.0,0.0,0.0,0.0,0.0,0.0,-0.8241,-0.4167,-0.3734,0.5820,-0.3441,0.7355,0.0446
1017,0.0,0.0,0.0,0.0,0.0,0.0,-0.8193,-0.4191,-0.3740,0.5822,-0.3443,0.7352,0.0447
1018,0.0,0.0,0.0,0.0,0.0,0.0,-0.8208,-0.4239,-0.3741,0.5824,-0.3441,0.7352,0.0444
1019,0.0,0.0,0.0,0.0,0.0,0.0,-0.8189,-0.4278,-0.3732,0.5825,-0.3437,0.7352,0.0439
1020,0.0,0.0,0.0,0.0,0.0,0.0,-0.8193,-0.4201,-0.3726,0.5827,-0.3433,0.7354,0.0433
1021,0.0,0.0,0.0,0.0,0.0,0.0,-0.8217,-0.4235,-0.3711,0.5830,-0.3432,0.7351,0.0432
1022,0.0,0.0,0.0,0.0,0.0,0.0,-0.8204,-0.4278,-0.3722,0.5834,-0.3431,0.7349,0.0430
1023,0.0,0.0,0.0,0.0,0.0,0.0,-0.8227,-0.4264,-0.3712,0.5837,-0.3429,0.7348,0.0426
1024,0.0,0.0,0.0,0.0,0.0,0.0,-0.8203,-0.4284,-0.3684,0.5842,-0.3429,0.7344,0.0426
1025,0.0,0.0,0.0,0.0,0.0,0.0,-0.8183,-0.4299,-0.3665,0.5847,-0.3429,0.7340,0.0425
1026,0.0,0.0,0.0,0.0,0.0,0.0,-0.8198,-0.4309,-0.3646,0.5853,-0.3429,0.7335,0.0422
1027,0.0,0.0,0.0,0.0,0.0,0.0,-0.8216,-0.4290,-0.3630,0.5859,-0.3431,0.7330,0.0420
1028,0.0,0.0,0.0,0.0,0.0,0.0,-0.8196,-0.4226,-0.3654,0.5863,-0.3433,0.7326,0.0421
1029,0.0,0.0,0.0,0.0,0.0,0.0,-0.8177,-0.4246,-0.3645,0.5865,-0.3434,0.7324,0.0418
1030,0.0,0.0,0.0,0.0,0.0,0.0,-0.8168,-0.4279,-0.3651,0.5866,-0.3433,0.7324,0.0413
1031,0.0,0.0,0.0,0.0,0.0,0.0,-0.8178,-0.4299,-0.3641,0.5866,-0.3435,0.7323,0.0411
1032,0.0,0.0,0.0,0.0,0.0,0.0,-0.8169,-0.4343,-0.3647,0.5868,-0.3438,0.7320,0.0411
1033,0.0,0.0,0.0,0.0,0.0,0.0,-0.8151,-0.4361,-0.3667,0.5868,-0.3440,0.7319,0.0413
1034,0.0,0.0,0.0,0.0,0.0,0.0,-0.8151,-0.4400,-0.3668,0.5869,-0.3441,0.7317,0.0415
1035,0.0,0.0,0.0,0.0,0.0,0.0,-0.8148,-0.4493,-0.3651,0.5871,-0.3442,0.7315,0.0414
1036,0.0,0.0,0.0,0.0,0.0,0.0,-0.8190,-0.4347,-0.3695,0.5872,-0.3438,0.7317,0.0409
1037,0.0,0.0,0.0,0.0,0.0,0.0,-0.8200,-0.4060,-0.3733,0.5868,-0.3430,0.7324,0.0405
1038,0.0,0.0,0.0,0.0,0.0,0.0,-0.8200,-0.4094,-0.3705,0.5865,-0.3424,0.7329,0.0406
1039,0.0,0.0,0.0,0.0,0.0,0.0,-0.8227,-0.4260,-0.3687,0.5864,-0.3423,0.7330,0.0411
1040,0.0,0.0,0.0,0.0,0.0,0.0,-0.8227,-0.4284,-0.3702,0.5863,-0.3423,0.7330,0.0415
1041,0.0,0.0,0.0,0.0,0.0,0.0,-0.8237,-0.4275,-0.3682,0.5864,-0.3424,0.7329,0.0417
1042,0.0,0.0,0.0,0.0,0.0,0.0,-0.8230,-0.4178,-0.3671,0.5864,-0.3424,0.7329,0.0420
1043,0.0,0.0,0.0,0.0,0.0,0.0,-0.8262,-0.4110,-0.3669,0.5864,-0.3420,0.7331,0.0419
1044,0.0,0.0,0.0,0.0,0.0,0.0,-0.8253,-0.4139,-0.3670,0.5863,-0.3422,0.7330,0.0422
1045,0.0,0.0,0.0,0.0,0.0,0.0,-0.8234,-0.4183,-0.3657,0.5864,-0.3429,0.7326,0.0428
1046,0.0,0.0,0.0,0.0,0.0,0.0,-0.8249,-0.4193,-0.3652,0.5864,-0.3435,0.7323,0.0431
1047,0.0,0.0,0.0,0.0,0.0,0.0,-0.8249,-0.4183,-0.3651,0.5864,-0.3439,0.7321,0.0432
1048,0.0,0.0,0.0,0.0,0.0,0.0,-0.8229,-0.4164,-0.3642,0.5863,-0.3446,0.7318,0.0435
1049,0.0,0.0,0.0,0.0,0.0,0.0,-0.8235,-0.4246,-0.3648,0.5862,-0.3454,0.7315,0.0437
1050,0.0,0.0,0.0,0.0,0.0,0.0,-0.8230,-0.4261,-0.3644,0.5863,-0.3464,0.7310,0.0441
1051,0.0,0.0,0.0,0.0,0.0,0.0,-0.8217,-0.4300,-0.3645,0.5863,-0.3474,0.7305,0.0444
1052,0.0,0.0,0.0,0.0,0.0,0.0,-0.8168,-0.4313,-0.3642,0.5864,-0.3481,0.7301,0.0443
1053,0.0,0.0,0.0,0.0,0.0,0.0,-0.8170,-0.4377,-0.3643,0.5865,-0.3489,0.7296,0.0444
1054,0.0,0.0,0.0,0.0,0.0,0.0,-0.8155,-0.4308,-0.3681,0.5864,-0.3495,0.7294,0.0442
1055,0.0,0.0,0.0,0.0,0.0,0.0,-0.8145,-0.4293,-0.3671,0.5862,-0.3500,0.7293,0.0440
1056,0.0,0.0,0.0,0.0,0.0,0.0,-0.8159,-0.4274,-0.3690,0.5860,-0.3504,0.7293,0.0438
1057,0.0,0.0,0.0,0.0,0.0,0.0,-0.8174,-0.4279,-0.3694,0.5859,-0.3505,0.7294,0.0435
1058,0.0,0.0,0.0,0.0,0.0,0.0,-0.8207,-0.4255,-0.3688,0.5857,-0.3507,0.7294,0.0434
1059,0.0,0.0,0.0,0.0,0.0,0.0,-0.8189,-0.4298,-0.3689,0.5857,-0.3509,0.7293,0.0435
1060,0.0,0.0,0.0,0.0,0.0,0.0,-0.8165,-0.4288,-0.3714,0.5856,-0.3510,0.7294,0.0435
1061,0.0,0.0,0.0,0.0,0.0,0.0,-0.8171,-0.4336,-0.3710,0.5856,-0.3510,0.7294,0.0436
1062,0.0,0.0,0.0,0.0,0.0,0.0,-0.8156,-0.4351,-0.3711,0.5867,-0.3490,0.7295,0.0424
1063,0.0,0.0,0.0,0.0,0.0,0.0,-0.8156,-0.4322,-0.3715,0.5867,-0.3487,0.7297,0.0421
1064,0.0,0.0,0.0,0.0,0.0,0.0,-0.8145,-0.4258,-0.3714,0.5866,-0.3483,0.7299,0.0415
1065,0.0,0.0,0.0,0.0,0.0,0.0,-0.8134,-0.4234,-0.3690,0.5867,-0.3482,0.7299,0.0415
1066,0.0,0.0,0.0,0.0,0.0,0.0,-0.8140,-0.4312,-0.3677,0.5869,-0.3484,0.7297,0.0417
1067,0.0,0.0,0.0,0.0,0.0,0.0,-0.8098,-0.4385,-0.3674,0.5870,-0.3486,0.7295,0.0416
1068,0.0,0.0,0.0,0.0,0.0,0.0,-0.8104,-0.4414,-0.3680,0.5872,-0.3488,0.7292,0.0413
1069,0.0,0.0,0.0,0.0,0.0,0.0,-0.8182,-0.4448,-0.3702,0.5875,-0.3487,0.7291,0.0405
1070,0.0,0.0,0.0,0.0,0.0,0.0,-0.8182,-0.4438,-0.3716,0.5879,-0.3487,0.7288,0.0396
1071,0.0,0.0,0.0,0.0,0.0,0.0,-0.8138,-0.4394,-0.3712,0.5884,-0.3487,0.7285,0.0386
1072,0.0,0.0,0.0,0.0,0.0,0.0,-0.8205,-0.4346,-0.3719,0.5886,-0.3484,0.7285,0.0376
1073,0.0,0.0,0.0,0.0,0.0,0.0,-0.8077,-0.4263,-0.3678,0.5888,-0.3481,0.7286,0.0371
1074,0.0,0.0,0.0,0.0,0.0,0.0,-0.8012,-0.4447,-0.3659,0.5889,-0.3480,0.7285,0.0365
1075,0.0,0.0,0.0,0.0,0.0,0.0,-0.8058,-0.4578,-0.3669,0.5890,-0.3479,0.7285,0.0358
1076,0.0,0.0,0.0,0.0,0.0,0.0,-0.8067,-0.4564,-0.3659,0.5891,-0.3475,0.7286,0.0351
1077,0.0,0.0,0.0,0.0,0.0,0.0,-0.8095,-0.4560,-0.3634,0.5891,-0.3468,0.7291,0.0341
1078,0.0,0.0,0.0,0.0,0.0,0.0,-0.8100,-0.4536,-0.3624,0.5891,-0.3460,0.7294,0.0333
1079,0.0,0.0,0.0,0.0,0.0,0.0,-0.8086,-0.4560,-0.3629,0.5893,-0.3453,0.7296,0.0326
1080,0.0,0.0,0.0,0.0,0.0,0.0,-0.8052,-0.4550,-0.3640,0.5895,-0.3448,0.7298,0.0321
1081,0.0,0.0,0.0,0.0,0.0,0.0,-0.8067,-0.4593,-0.3645,0.5895,-0.3442,0.7301,0.0312
1082,0.0,0.0,0.0,0.0,0.0,0.0,-0.8101,-0.4525,-0.3682,0.5894,-0.3431,0.7308,0.0301
1083,0.0,0.0,0.0,0.0,0.0,0.0,-0.8133,-0.4424,-0.3684,0.5892,-0.3421,0.7314,0.0293
1084,0.0,0.0,0.0,0.0,0.0,0.0,-0.8133,-0.4433,-0.3689,0.5892,-0.3414,0.7318,0.0291
1085,0.0,0.0,0.0,0.0,0.0,0.0,-0.8177,-0.4405,-0.3706,0.5892,-0.3406,0.7322,0.0292
1086,0.0,0.0,0.0,0.0,0.0,0.0,-0.8184,-0.4338,-0.3661,0.5890,-0.3395,0.7328,0.0293
1087,0.0,0.0,0.0,0.0,0.0,0.0,-0.8161,-0.4435,-0.3639,0.5890,-0.3387,0.7331,0.0297
1088,0.0,0.0,0.0,0.0,0.0,0.0,-0.8171,-0.4430,-0.3649,0.5892,-0.3384,0.7331,0.0303
1089,0.0,0.0,0.0,0.0,0.0,0.0,-0.8181,-0.4479,-0.3625,0.5894,-0.3381,0.7330,0.0309
1090,0.0,0.0,0.0,0.0,0.0,0.0,-0.8137,-0.4488,-0.3612,0.5897,-0.3379,0.7329,0.0314
1091,0.0,0.0,0.0,0.0,0.0,0.0,-0.8102,-0.4444,-0.3598,0.5900,-0.3377,0.7327,0.0315
1092,0.0,0.0,0.0,0.0,0.0,0.0,-0.8082,-0.4391,-0.3588,0.5904,-0.3376,0.7325,0.0316
1093,0.0,0.0,0.0,0.0,0.0,0.0,-0.8090,-0.4357,-0.3572,0.5907,-0.3379,0.7320,0.0320
1094,0.0,0.0,0.0,0.0,0.0,0.0,-0.8118,-0.4299,-0.3585,0.5909,-0.3384,0.7316,0.0327
1095,0.0,0.0,0.0,0.0,0.0,0.0,-0.8151,-0.4281,-0.3564,0.5908,-0.3386,0.7315,0.0333
1096,0.0,0.0,0.0,0.0,0.0,0.0,-0.8178,-0.4476,-0.3509,0.5911,-0.3393,0.7310,0.0341
1097,0.0,0.0,0.0,0.0,0.0,0.0,-0.8156,-0.4533,-0.3559,0.5914,-0.3400,0.7304,0.0346
1098,0.0,0.0,0.0,0.0,0.0,0.0,-0.8096,-0.4337,-0.3606,0.5911,-0.3400,0.7306,0.0349
1099,0.0,0.0,0.0,0.0,0.0,0.0,-0.8010,-0.4384,-0.3619,0.5906,-0.3402,0.7309,0.0355
1100,0.0,0.0,0.0,0.0,0.0,0.0,-0.8064,-0.4434,-0.3623,0.5899,-0.3406,0.7313,0.0360
1101,0.0,0.0,0.0,0.0,0.0,0.0,-0.8165,-0.4440,-0.3615,0.5892,-0.3406,0.7317,0.0363
1102,0.0,0.0,0.0,0.0,0.0,0.0,-0.8199,-0.4416,-0.3643,0.5887,-0.3409,0.7320,0.0370
1103,0.0,0.0,0.0,0.0,0.0,0.0,-0.8200,-0.4391,-0.3676,0.5881,-0.3411,0.7323,0.0379
1104,0.0,0.0,0.0,0.0,0.0,0.0,-0.8135,-0.4481,-0.3723,0.5876,-0.3411,0.7327,0.0383
1105,0.0,0.0,0.0,0.0,0.0,0.0,-0.8112,-0.4500,-0.3744,0.5872,-0.3411,0.7331,0.0385
1106,0.0,0.0,0.0,0.0,0.0,0.0,-0.8077,-0.4505,-0.3711,0.5869,-0.3411,0.7333,0.0385
1107,0.0,0.0,0.0,0.0,0.0,0.0,-0.8074,-0.4399,-0.3670,0.5868,-0.3408,0.7335,0.0383
1108,0.0,0.0,0.0,0.0,0.0,0.0,-0.8145,-0.4328,-0.3648,0.5868,-0.3402,0.7338,0.0382
1109,0.0,0.0,0.0,0.0,0.0,0.0,-0.8207,-0.4246,-0.3668,0.5868,-0.3394,0.7342,0.0381
1110,0.0,0.0,0.0,0.0,0.0,0.0,-0.8281,-0.4096,-0.3658,0.5869,-0.3388,0.7344,0.0385
1111,0.0,0.0,0.0,0.0,0.0,0.0,-0.8360,-0.3977,-0.3620,0.5868,-0.3381,0.7347,0.0393
1112,0.0,0.0,0.0,0.0,0.0,0.0,-0.8371,-0.4109,-0.3559,0.5867,-0.3377,0.7349,0.0407
1113,0.0,0.0,0.0,0.0,0.0,0.0,-0.8353,-0.4211,-0.3542,0.5868,-0.3376,0.7348,0.0423
1114,0.0,0.0,0.0,0.0,0.0,0.0,-0.8205,-0.4286,-0.3567,0.5866,-0.3376,0.7348,0.0437
1115,0.0,0.0,0.0,0.0,0.0,0.0,-0.8200,-0.4246,-0.3615,0.5862,-0.3376,0.7351,0.0449
1116,0.0,0.0,0.0,0.0,0.0,0.0,-0.8299,-0.4049,-0.3623,0.5857,-0.3378,0.7353,0.0465
1117,0.0,0.0,0.0,0.0,0.0,0.0,-0.8291,-0.4190,-0.3611,0.5851,-0.3382,0.7355,0.0480
1118,0.0,0.0,0.0,0.0,0.0,0.0,-0.8264,-0.4252,-0.3638,0.5845,-0.3385,0.7358,0.0490
1119,0.0,0.0,0.0,0.0,0.0,0.0,-0.8216,-0.4280,-0.3649,0.5839,-0.3388,0.7361,0.0493
1120,0.0,0.0,0.0,0.0,0.0,0.0,-0.8158,-0.4240,-0.3679,0.5833,-0.3389,0.7366,0.0490
1121,0.0,0.0,0.0,0.0,0.0,0.0,-0.8153,-0.4176,-0.3698,0.5828,-0.3393,0.7368,0.0486
1122,0.0,0.0,0.0,0.0,0.0,0.0,-0.8193,-0.4220,-0.3722,0.5827,-0.3400,0.7366,0.0485
1123,0.0,0.0,0.0,0.0,0.0,0.0,-0.8242,-0.4206,-0.3744,0.5826,-0.3405,0.7364,0.0481
1124,0.0,0.0,0.0,0.0,0.0,0.0,-0.8294,-0.4143,-0.3756,0.5825,-0.3407,0.7365,0.0473
1125,0.0,0.0,0.0,0.0,0.0,0.0,-0.8284,-0.4123,-0.3775,0.5826,-0.3412,0.7362,0.0471
1126,0.0,0.0,0.0,0.0,0.0,0.0,-0.8226,-0.4113,-0.3777,0.5826,-0.3415,0.7360,0.0468
1127,0.0,0.0,0.0,0.0,0.0,0.0,-0.8138,-0.4068,-0.3759,0.5825,-0.3419,0.7360,0.0463
1128,0.0,0.0,0.0,0.0,0.0,0.0,-0.8186,-0.4054,-0.3753,0.5824,-0.3424,0.7358,0.0461
1129,0.0,0.0,0.0,0.0,0.0,0.0,-0.8255,-0.4103,-0.3785,0.5823,-0.3429,0.7357,0.0459
1130,0.0,0.0,0.0,0.0,0.0,0.0,-0.8291,-0.4127,-0.3833,0.5820,-0.3433,0.7357,0.0457
1131,0.0,0.0,0.0,0.0,0.0,0.0,-0.8330,-0.4157,-0.3818,0.5818,-0.3437,0.7357,0.0455
1132,0.0,0.0,0.0,0.0,0.0,0.0,-0.8310,-0.4186,-0.3804,0.5817,-0.3442,0.7356,0.0455
1133,0.0,0.0,0.0,0.0,0.0,0.0,-0.8109,-0.4354,-0.3756,0.5817,-0.3449,0.7353,0.0457
1134,0.0,0.0,0.0,0.0,0.0,0.0,-0.7920,-0.4540,-0.3804,0.5817,-0.3455,0.7350,0.0452
1135,0.0,0.0,0.0,0.0,0.0,0.0,-0.7950,-0.4238,-0.3865,0.5814,-0.3453,0.7354,0.0442
1136,0.0,0.0,0.0,0.0,0.0,0.0,-0.8016,-0.4221,-0.3814,0.5811,-0.3450,0.7358,0.0434
1137,0.0,0.0,0.0,0.0,0.0,0.0,-0.8100,-0.4310,-0.3794,0.5810,-0.3448,0.7361,0.0428
1138,0.0,0.0,0.0,0.0,0.0,0.0,-0.8191,-0.4282,-0.3795,0.5809,-0.3443,0.7363,0.0423
1139,0.0,0.0,0.0,0.0,0.0,0.0,-0.8219,-0.4239,-0.3789,0.5810,-0.3435,0.7367,0.0415
1140,0.0,0.0,0.0,0.0,0.0,0.0,-0.8286,-0.4186,-0.3791,0.5811,-0.3427,0.7370,0.0407
1141,0.0,0.0,0.0,0.0,0.0,0.0,-0.8275,-0.4142,-0.3790,0.5812,-0.3422,0.7373,0.0402
1142,0.0,0.0,0.0,0.0,0.0,0.0,-0.8294,-0.4118,-0.3794,0.5811,-0.3413,0.7377,0.0394
1143,0.0,0.0,0.0,0.0,0.0,0.0,-0.8271,-0.4171,-0.3796,0.5812,-0.3409,0.7379,0.0391
1144,0.0,0.0,0.0,0.0,0.0,0.0,-0.8162,-0.4242,-0.3825,0.5812,-0.3410,0.7378,0.0392
1145,0.0,0.0,0.0,0.0,0.0,0.0,-0.8096,-0.4308,-0.3847,0.5810,-0.3409,0.7381,0.0386
1146,0.0,0.0,0.0,0.0,0.0,0.0,-0.8025,-0.4390,-0.3846,0.5809,-0.3412,0.7380,0.0382
1147,0.0,0.0,0.0,0.0,0.0,0.0,-0.7988,-0.4472,-0.3844,0.5810,-0.3415,0.7378,0.0376
1148,0.0,0.0,0.0,0.0,0.0,0.0,-0.7959,-0.4467,-0.3850,0.5811,-0.3414,0.7378,0.0364
1149,0.0,0.0,0.0,0.0,0.0,0.0,-0.7994,-0.4510,-0.3874,0.5813,-0.3412,0.7379,0.0349
1150,0.0,0.0,0.0,0.0,0.0,0.0,-0.7991,-0.4534,-0.3918,0.5815,-0.3408,0.7380,0.0331
1151,0.0,0.0,0.0,0.0,0.0,0.0,-0.8026,-0.4320,-0.3937,0.5817,-0.3402,0.7381,0.0314
1152,0.0,0.0,0.0,0.0,0.0,0.0,-0.8111,-0.4205,-0.3937,0.5816,-0.3394,0.7386,0.0299
1153,0.0,0.0,0.0,0.0,0.0,0.0,-0.8021,-0.4345,-0.3908,0.5815,-0.3388,0.7391,0.0285
1154,0.0,0.0,0.0,0.0,0.0,0.0,-0.8104,-0.4419,-0.3888,0.5816,-0.3381,0.7394,0.0270
1155,0.0,0.0,0.0,0.0,0.0,0.0,-0.8191,-0.4455,-0.3871,0.5820,-0.3376,0.7394,0.0262
1156,0.0,0.0,0.0,0.0,0.0,0.0,-0.8107,-0.4362,-0.3848,0.5822,-0.3370,0.7394,0.0255
1157,0.0,0.0,0.0,0.0,0.0,0.0,-0.8047,-0.4328,-0.3815,0.5825,-0.3367,0.7394,0.0249
1158,0.0,0.0,0.0,0.0,0.0,0.0,-0.8029,-0.4440,-0.3760,0.5829,-0.3369,0.7390,0.0247
1159,0.0,0.0,0.0,0.0,0.0,0.0,-0.8010,-0.4479,-0.3766,0.5832,-0.3369,0.7388,0.0243
1160,0.0,0.0,0.0,0.0,0.0,0.0,-0.7953,-0.4536,-0.3759,0.5834,-0.3369,0.7386,0.0235
1161,0.0,0.0,0.0,0.0,0.0,0.0,-0.8022,-0.4615,-0.3773,0.5838,-0.3374,0.7382,0.0225
1162,0.0,0.0,0.0,0.0,0.0,0.0,-0.8020,-0.4508,-0.3771,0.5842,-0.3379,0.7376,0.0218
1163,0.0,0.0,0.0,0.0,0.0,0.0,-0.7959,-0.4580,-0.3760,0.5845,-0.3385,0.7371,0.0209
1164,0.0,0.0,0.0,0.0,0.0,0.0,-0.7956,-0.4652,-0.3781,0.5848,-0.3391,0.7366,0.0199
1165,0.0,0.0,0.0,0.0,0.0,0.0,-0.7960,-0.4658,-0.3766,0.5852,-0.3400,0.7359,0.0191
1166,0.0,0.0,0.0,0.0,0.0,0.0,-0.7970,-0.4673,-0.3751,0.5856,-0.3407,0.7353,0.0184
1167,0.0,0.0,0.0,0.0,0.0,0.0,-0.7936,-0.4657,-0.3762,0.5858,-0.3411,0.7350,0.0175
1168,0.0,0.0,0.0,0.0,0.0,0.0,-0.7955,-0.4658,-0.3752,0.5859,-0.3412,0.7349,0.0166
1169,0.0,0.0,0.0,0.0,0.0,0.0,-0.7960,-0.4658,-0.3747,0.5862,-0.3415,0.7345,0.0161
1170,0.0,0.0,0.0,0.0,0.0,0.0,-0.7949,-0.4609,-0.3756,0.5863,-0.3416,0.7343,0.0157
1171,0.0,0.0,0.0,0.0,0.0,0.0,-0.7983,-0.4610,-0.3740,0.5863,-0.3415,0.7344,0.0155
1172,0.0,0.0,0.0,0.0,0.0,0.0,-0.7973,-0.4615,-0.3736,0.5863,-0.3416,0.7344,0.0158
1173,0.0,0.0,0.0,0.0,0.0,0.0,-0.8001,-0.4566,-0.3739,0.5862,-0.3413,0.7346,0.0159
1174,0.0,0.0,0.0,0.0,0.0,0.0,-0.8034,-0.4528,-0.3737,0.5860,-0.3409,0.7350,0.0162
1175,0.0,0.0,0.0,0.0,0.0,0.0,-0.8039,-0.4528,-0.3732,0.5857,-0.3404,0.7354,0.0168
1176,0.0,0.0,0.0,0.0,0.0,0.0,-0.8035,-0.4538,-0.3737,0.5853,-0.3397,0.7360,0.0174
1177,0.0,0.0,0.0,0.0,0.0,0.0,-0.8025,-0.4577,-0.3724,0.5851,-0.3393,0.7363,0.0184
1178,0.0,0.0,0.0,0.0,0.0,0.0,-0.8050,-0.4611,-0.3709,0.5851,-0.3394,0.7363,0.0195
1179,0.0,0.0,0.0,0.0,0.0,0.0,-0.8064,-0.4573,-0.3708,0.5852,-0.3393,0.7362,0.0203
1180,0.0,0.0,0.0,0.0,0.0,0.0,-0.8029,-0.4543,-0.3713,0.5852,-0.3390,0.7363,0.0207
1181,0.0,0.0,0.0,0.0,0.0,0.0,-0.8032,-0.4436,-0.3721,0.5851,-0.3388,0.7365,0.0211
1182,0.0,0.0,0.0,0.0,0.0,0.0,-0.8003,-0.4407,-0.3716,0.5850,-0.3387,0.7366,0.0217
1183,0.0,0.0,0.0,0.0,0.0,0.0,-0.7996,-0.4577,-0.3691,0.5849,-0.3390,0.7366,0.0225
1184,0.0,0.0,0.0,0.0,0.0,0.0,-0.8018,-0.4752,-0.3693,0.5850,-0.3397,0.7361,0.0236
1185,0.0,0.0,0.0,0.0,0.0,0.0,-0.8004,-0.4732,-0.3708,0.5853,-0.3403,0.7355,0.0245
1186,0.0,0.0,0.0,0.0,0.0,0.0,-0.7993,-0.4693,-0.3712,0.5855,-0.3404,0.7353,0.0249
1187,0.0,0.0,0.0,0.0,0.0,0.0,-0.8020,-0.4572,-0.3709,0.5856,-0.3403,0.7353,0.0251
1188,0.0,0.0,0.0,0.0,0.0,0.0,-0.7961,-0.4513,-0.3696,0.5856,-0.3406,0.7351,0.0258
1189,0.0,0.0,0.0,0.0,0.0,0.0,-0.7977,-0.4611,-0.3692,0.5857,-0.3409,0.7348,0.0263
1190,0.0,0.0,0.0,0.0,0.0,0.0,-0.8044,-0.4553,-0.3713,0.5858,-0.3410,0.7348,0.0264
1191,0.0,0.0,0.0,0.0,0.0,0.0,-0.8047,-0.4470,-0.3716,0.5857,-0.3409,0.7348,0.0265
1192,0.0,0.0,0.0,0.0,0.0,0.0,-0.8028,-0.4436,-0.3731,0.5855,-0.3410,0.7350,0.0267
1193,0.0,0.0,0.0,0.0,0.0,0.0,-0.8051,-0.4354,-0.3738,0.5852,-0.3410,0.7352,0.0270
1194,0.0,0.0,0.0,0.0,0.0,0.0,-0.8085,-0.4354,-0.3747,0.5848,-0.3412,0.7354,0.0277
1195,0.0,0.0,0.0,0.0,0.0,0.0,-0.8070,-0.4330,-0.3742,0.5843,-0.3412,0.7358,0.0284
1196,0.0,0.0,0.0,0.0,0.0,0.0,-0.8107,-0.4233,-0.3758,0.5837,-0.3411,0.7363,0.0293
1197,0.0,0.0,0.0,0.0,0.0,0.0,-0.8137,-0.4287,-0.3749,0.5830,-0.3411,0.7368,0.0305
1198,0.0,0.0,0.0,0.0,0.0,0.0,-0.8164,-0.4457,-0.3741,0.5827,-0.3410,0.7371,0.0312
1199,0.0,0.0,0.0,0.0,0.0,0.0,-0.8142,-0.4534,-0.3768,0.5825,-0.3414,0.7370,0.0322
1200,0.0,0.0,0.0,0.0,0.0,0.0,-0.8117,-0.4529,-0.3768,0.5825,-0.3421,0.7366,0.0334
1201,0.0,0.0,0.0,0.0,0.0,0.0,-0.8136,-0.4520,-0.3748,0.5825,-0.3425,0.7364,0.0338
1202,0.0,0.0,0.0,0.0,0.0,0.0,-0.8126,-0.4534,-0.3734,0.5826,-0.3429,0.7361,0.0340
1203,0.0,0.0,0.0,0.0,0.0,0.0,-0.8126,-0.4515,-0.3729,0.5829,-0.3436,0.7355,0.0347
1204,0.0,0.0,0.0,0.0,0.0,0.0,-0.8121,-0.4520,-0.3715,0.5833,-0.3439,0.7350,0.0348
1205,0.0,0.0,0.0,0.0,0.0,0.0,-0.8058,-0.4519,-0.3712,0.5838,-0.3441,0.7345,0.0347
1206,0.0,0.0,0.0,0.0,0.0,0.0,-0.8046,-0.4442,-0.3696,0.5841,-0.3441,0.7344,0.0344
1207,0.0,0.0,0.0,0.0,0.0,0.0,-0.8075,-0.4511,-0.3643,0.5844,-0.3443,0.7340,0.0343
1208,0.0,0.0,0.0,0.0,0.0,0.0,-0.8040,-0.4433,-0.3648,0.5846,-0.3445,0.7337,0.0344
1209,0.0,0.0,0.0,0.0,0.0,0.0,-0.8063,-0.4316,-0.3674,0.5847,-0.3444,0.7337,0.0348
1210,0.0,0.0,0.0,0.0,0.0,0.0,-0.8117,-0.4355,-0.3697,0.5847,-0.3445,0.7337,0.0354
1211,0.0,0.0,0.0,0.0,0.0,0.0,-0.8119,-0.4472,-0.3695,0.5846,-0.3445,0.7336,0.0357
1212,0.0,0.0,0.0,0.0,0.0,0.0,-0.8095,-0.4501,-0.3672,0.5848,-0.3444,0.7336,0.0359
1213,0.0,0.0,0.0,0.0,0.0,0.0,-0.8147,-0.4449,-0.3669,0.5849,-0.3444,0.7335,0.0360
1214,0.0,0.0,0.0,0.0,0.0,0.0,-0.8156,-0.4395,-0.3678,0.5851,-0.3446,0.7332,0.0363
1215,0.0,0.0,0.0,0.0,0.0,0.0,-0.8136,-0.4371,-0.3663,0.5853,-0.3450,0.7328,0.0366
1216,0.0,0.0,0.0,0.0,0.0,0.0,-0.8155,-0.4371,-0.3653,0.5855,-0.3454,0.7325,0.0369
1217,0.0,0.0,0.0,0.0,0.0,0.0,-0.8185,-0.4415,-0.3662,0.5858,-0.3457,0.7321,0.0371
1218,0.0,0.0,0.0,0.0,0.0,0.0,-0.8179,-0.4347,-0.3661,0.5861,-0.3462,0.7316,0.0373
1219,0.0,0.0,0.0,0.0,0.0,0.0,-0.8174,-0.4333,-0.3656,0.5865,-0.3469,0.7310,0.0378
1220,0.0,0.0,0.0,0.0,0.0,0.0,-0.8166,-0.4415,-0.3644,0.5869,-0.3475,0.7303,0.0378
1221,0.0,0.0,0.0,0.0,0.0,0.0,-0.8141,-0.4356,-0.3663,0.5871,-0.3479,0.7300,0.0375
1222,0.0,0.0,0.0,0.0,0.0,0.0,-0.8126,-0.4376,-0.3644,0.5874,-0.3481,0.7297,0.0370
1223,0.0,0.0,0.0,0.0,0.0,0.0,-0.8156,-0.4440,-0.3635,0.5880,-0.3487,0.7289,0.0370
1224,0.0,0.0,0.0,0.0,0.0,0.0,-0.8175,-0.4430,-0.3629,0.5885,-0.3491,0.7283,0.0370
1225,0.0,0.0,0.0,0.0,0.0,0.0,-0.8097,-0.4390,-0.3631,0.5889,-0.3495,0.7278,0.0367
1226,0.0,0.0,0.0,0.0,0.0,0.0,-0.8121,-0.4346,-0.3673,0.5890,-0.3500,0.7275,0.0364
1227,0.0,0.0,0.0,0.0,0.0,0.0,-0.8173,-0.4220,-0.3698,0.5888,-0.3500,0.7277,0.0362
1228,0.0,0.0,0.0,0.0,0.0,0.0,-0.8123,-0.4157,-0.3669,0.5882,-0.3499,0.7282,0.0360
1229,0.0,0.0,0.0,0.0,0.0,0.0,-0.8138,-0.4507,-0.3656,0.5880,-0.3503,0.7282,0.0360
1230,0.0,0.0,0.0,0.0,0.0,0.0,-0.8182,-0.4503,-0.3659,0.5879,-0.3504,0.7282,0.0359
1231,0.0,0.0,0.0,0.0,0.0,0.0,-0.8137,-0.4424,-0.3659,0.5877,-0.3499,0.7286,0.0352
1232,0.0,0.0,0.0,0.0,0.0,0.0,-0.8108,-0.4414,-0.3646,0.5875,-0.3494,0.7290,0.0346
1233,0.0,0.0,0.0,0.0,0.0,0.0,-0.8103,-0.4419,-0.3651,0.5874,-0.3493,0.7292,0.0345
1234,0.0,0.0,0.0,0.0,0.0,0.0,-0.8087,-0.4356,-0.3660,0.5873,-0.3492,0.7293,0.0347
1235,0.0,0.0,0.0,0.0,0.0,0.0,-0.8126,-0.4346,-0.3673,0.5870,-0.3492,0.7296,0.0347
1236,0.0,0.0,0.0,0.0,0.0,0.0,-0.8175,-0.4391,-0.3667,0.5868,-0.3493,0.7297,0.0347
1237,0.0,0.0,0.0,0.0,0.0,0.0,-0.8147,-0.4380,-0.3682,0.5868,-0.3496,0.7296,0.0349
1238,0.0,0.0,0.0,0.0,0.0,0.0,-0.8116,-0.4307,-0.3672,0.5866,-0.3500,0.7295,0.0353
1239,0.0,0.0,0.0,0.0,0.0,0.0,-0.8166,-0.4435,-0.3634,0.5867,-0.3507,0.7291,0.0357
1240,0.0,0.0,0.0,0.0,0.0,0.0,-0.8160,-0.4332,-0.3676,0.5867,-0.3511,0.7289,0.0359
1241,0.0,0.0,0.0,0.0,0.0,0.0,-0.8154,-0.4195,-0.3718,0.5864,-0.3513,0.7289,0.0363
1242,0.0,0.0,0.0,0.0,0.0,0.0,-0.8233,-0.4343,-0.3684,0.5863,-0.3515,0.7289,0.0365
1243,0.0,0.0,0.0,0.0,0.0,0.0,-0.8244,-0.4425,-0.3700,0.5864,-0.3520,0.7286,0.0370
1244,0.0,0.0,0.0,0.0,0.0,0.0,-0.8153,-0.4399,-0.3731,0.5864,-0.3529,0.7281,0.0376
1245,0.0,0.0,0.0,0.0,0.0,0.0,-0.8134,-0.4482,-0.3709,0.5864,-0.3537,0.7277,0.0378
1246,0.0,0.0,0.0,0.0,0.0,0.0,-0.8053,-0.4568,-0.3694,0.5867,-0.3543,0.7273,0.0377
1247,0.0,0.0,0.0,0.0,0.0,0.0,-0.7995,-0.4533,-0.3714,0.5868,-0.3545,0.7270,0.0374
1248,0.0,0.0,0.0,0.0,0.0,0.0,-0.8025,-0.4548,-0.3718,0.5868,-0.3546,0.7270,0.0368
1249,0.0,0.0,0.0,0.0,0.0,0.0,-0.8101,-0.4491,-0.3715,0.5869,-0.3544,0.7271,0.0363
1250,0.0,0.0,0.0,0.0,0.0,0.0,-0.8133,-0.4375,-0.3712,0.5870,-0.3536,0.7274,0.0356
1251,0.0,0.0,0.0,0.0,0.0,0.0,-0.8136,-0.4292,-0.3701,0.5871,-0.3528,0.7278,0.0351
1252,0.0,0.0,0.0,0.0,0.0,0.0,-0.8135,-0.4253,-0.3714,0.5869,-0.3520,0.7283,0.0350
1253,0.0,0.0,0.0,0.0,0.0,0.0,-0.8146,-0.4287,-0.3715,0.5865,-0.3512,0.7290,0.0352
1254,0.0,0.0,0.0,0.0,0.0,0.0,-0.8083,-0.4257,-0.3726,0.5859,-0.3504,0.7299,0.0358
1255,0.0,0.0,0.0,0.0,0.0,0.0,-0.8121,-0.4292,-0.3701,0.5850,-0.3493,0.7310,0.0362
1256,0.0,0.0,0.0,0.0,0.0,0.0,-0.8122,-0.4385,-0.3678,0.5842,-0.3482,0.7322,0.0364
1257,0.0,0.0,0.0,0.0,0.0,0.0,-0.8160,-0.4337,-0.3686,0.5835,-0.3474,0.7331,0.0370
1258,0.0,0.0,0.0,0.0,0.0,0.0,-0.8192,-0.4488,-0.3668,0.5830,-0.3470,0.7337,0.0375
1259,0.0,0.0,0.0,0.0,0.0,0.0,-0.8199,-0.4629,-0.3676,0.5829,-0.3468,0.7339,0.0376
1260,0.0,0.0,0.0,0.0,0.0,0.0,-0.8172,-0.4414,-0.3711,0.5828,-0.3460,0.7343,0.0371
1261,0.0,0.0,0.0,0.0,0.0,0.0,-0.8166,-0.4351,-0.3696,0.5828,-0.3450,0.7349,0.0363
1262,0.0,0.0,0.0,0.0,0.0,0.0,-0.8152,-0.4434,-0.3669,0.5830,-0.3447,0.7348,0.0359
1263,0.0,0.0,0.0,0.0,0.0,0.0,-0.8148,-0.4502,-0.3670,0.5834,-0.3449,0.7344,0.0358
1264,0.0,0.0,0.0,0.0,0.0,0.0,-0.8139,-0.4492,-0.3680,0.5840,-0.3449,0.7340,0.0353
1265,0.0,0.0,0.0,0.0,0.0,0.0,-0.8170,-0.4347,-0.3667,0.5848,-0.3447,0.7335,0.0347
1266,0.0,0.0,0.0,0.0,0.0,0.0,-0.8234,-0.4115,-0.3685,0.5854,-0.3444,0.7331,0.0346
1267,0.0,0.0,0.0,0.0,0.0,0.0,-0.8200,-0.4173,-0.3658,0.5859,-0.3442,0.7328,0.0349
1268,0.0,0.0,0.0,0.0,0.0,0.0,-0.8150,-0.4352,-0.3629,0.5865,-0.3445,0.7322,0.0351
1269,0.0,0.0,0.0,0.0,0.0,0.0,-0.8146,-0.4420,-0.3640,0.5870,-0.3448,0.7317,0.0350
1270,0.0,0.0,0.0,0.0,0.0,0.0,-0.8175,-0.4430,-0.3639,0.5874,-0.3449,0.7313,0.0349
1271,0.0,0.0,0.0,0.0,0.0,0.0,-0.8212,-0.4349,-0.3617,0.5879,-0.3448,0.7309,0.0348
1272,0.0,0.0,0.0,0.0,0.0,0.0,-0.8197,-0.4329,-0.3627,0.5884,-0.3447,0.7306,0.0348
1273,0.0,0.0,0.0,0.0,0.0,0.0,-0.8154,-0.4318,-0.3623,0.5888,-0.3447,0.7303,0.0347
1274,0.0,0.0,0.0,0.0,0.0,0.0,-0.8182,-0.4275,-0.3616,0.5889,-0.3446,0.7302,0.0346
1275,0.0,0.0,0.0,0.0,0.0,0.0,-0.8155,-0.4450,-0.3596,0.5892,-0.3448,0.7299,0.0347
1276,0.0,0.0,0.0,0.0,0.0,0.0,-0.8165,-0.4445,-0.3591,0.5896,-0.3447,0.7297,0.0346
1277,0.0,0.0,0.0,0.0,0.0,0.0,-0.8157,-0.4359,-0.3546,0.5899,-0.3446,0.7294,0.0344
1278,0.0,0.0,0.0,0.0,0.0,0.0,-0.8138,-0.4354,-0.3542,0.5902,-0.3446,0.7292,0.0344
1279,0.0,0.0,0.0,0.0,0.0,0.0,-0.8138,-0.4344,-0.3542,0.5904,-0.3443,0.7292,0.0342
1280,0.0,0.0,0.0,0.0,0.0,0.0,-0.8162,-0.4364,-0.3546,0.5905,-0.3441,0.7292,0.0342
1281,0.0,0.0,0.0,0.0,0.0,0.0,-0.8193,-0.4407,-0.3575,0.5906,-0.3438,0.7293,0.0340
1282,0.0,0.0,0.0,0.0,0.0,0.0,-0.8237,-0.4442,-0.3593,0.5907,-0.3435,0.7293,0.0338
1283,0.0,0.0,0.0,0.0,0.0,0.0,-0.8169,-0.4368,-0.3609,0.5907,-0.3434,0.7294,0.0340
1284,0.0,0.0,0.0,0.0,0.0,0.0,-0.8154,-0.4333,-0.3609,0.5904,-0.3433,0.7297,0.0341
1285,0.0,0.0,0.0,0.0,0.0,0.0,-0.8217,-0.4373,-0.3593,0.5902,-0.3429,0.7300,0.0339
1286,0.0,0.0,0.0,0.0,0.0,0.0,-0.8227,-0.4368,-0.3602,0.5903,-0.3426,0.7301,0.0338
1287,0.0,0.0,0.0,0.0,0.0,0.0,-0.8230,-0.4330,-0.3577,0.5903,-0.3423,0.7303,0.0338
1288,0.0,0.0,0.0,0.0,0.0,0.0,-0.8234,-0.4296,-0.3576,0.5903,-0.3417,0.7305,0.0335
1289,0.0,0.0,0.0,0.0,0.0,0.0,-0.8215,-0.4286,-0.3601,0.5903,-0.3412,0.7308,0.0334
1290,0.0,0.0,0.0,0.0,0.0,0.0,-0.8234,-0.4213,-0.3623,0.5902,-0.3409,0.7310,0.0337
1291,0.0,0.0,0.0,0.0,0.0,0.0,-0.8185,-0.4212,-0.3605,0.5901,-0.3411,0.7309,0.0344
1292,0.0,0.0,0.0,0.0,0.0,0.0,-0.8205,-0.4252,-0.3601,0.5901,-0.3413,0.7308,0.0351
1293,0.0,0.0,0.0,0.0,0.0,0.0,-0.8243,-0.4218,-0.3613,0.5901,-0.3416,0.7306,0.0359
1294,0.0,0.0,0.0,0.0,0.0,0.0,-0.8215,-0.4266,-0.3620,0.5898,-0.3417,0.7308,0.0365
1295,0.0,0.0,0.0,0.0,0.0,0.0,-0.8164,-0.4353,-0.3614,0.5896,-0.3418,0.7309,0.0370
1296,0.0,0.0,0.0,0.0,0.0,0.0,-0.8284,-0.4355,-0.3600,0.5896,-0.3420,0.7308,0.0374
1297,0.0,0.0,0.0,0.0,0.0,0.0,-0.8245,-0.4306,-0.3596,0.5895,-0.3420,0.7308,0.0379
1298,0.0,0.0,0.0,0.0,0.0,0.0,-0.8138,-0.4289,-0.3613,0.5891,-0.3420,0.7311,0.0382
1299,0.0,0.0,0.0,0.0,0.0,0.0,-0.8188,-0.4309,-0.3641,0.5887,-0.3421,0.7314,0.0387
1300,0.0,0.0,0.0,0.0,0.0,0.0,-0.8202,-0.4285,-0.3631,0.5884,-0.3422,0.7316,0.0393
1301,0.0,0.0,0.0,0.0,0.0,0.0,-0.8206,-0.4290,-0.3611,0.5880,-0.3421,0.7319,0.0398
1302,0.0,0.0,0.0,0.0,0.0,0.0,-0.8210,-0.4271,-0.3601,0.5878,-0.3421,0.7320,0.0404
1303,0.0,0.0,0.0,0.0,0.0,0.0,-0.8242,-0.4150,-0.3607,0.5874,-0.3420,0.7323,0.0409
1304,0.0,0.0,0.0,0.0,0.0,0.0,-0.8204,-0.4188,-0.3624,0.5869,-0.3418,0.7328,0.0413
1305,0.0,0.0,0.0,0.0,0.0,0.0,-0.8187,-0.4275,-0.3636,0.5865,-0.3417,0.7331,0.0418
1306,0.0,0.0,0.0,0.0,0.0,0.0,-0.8177,-0.4207,-0.3654,0.5861,-0.3417,0.7334,0.0422
1307,0.0,0.0,0.0,0.0,0.0,0.0,-0.8191,-0.4187,-0.3663,0.5857,-0.3417,0.7338,0.0425
1308,0.0,0.0,0.0,0.0,0.0,0.0,-0.8206,-0.4202,-0.3658,0.5853,-0.3413,0.7343,0.0422
1309,0.0,0.0,0.0,0.0,0.0,0.0,-0.8206,-0.4202,-0.3672,0.5850,-0.3411,0.7346,0.0420
1310,0.0,0.0,0.0,0.0,0.0,0.0,-0.8172,-0.4181,-0.3702,0.5846,-0.3413,0.7348,0.0421
1311,0.0,0.0,0.0,0.0,0.0,0.0,-0.8197,-0.4162,-0.3720,0.5842,-0.3413,0.7352,0.0420
1312,0.0,0.0,0.0,0.0,0.0,0.0,-0.8232,-0.4206,-0.3735,0.5839,-0.3412,0.7355,0.0419
1313,0.0,0.0,0.0,0.0,0.0,0.0,-0.8266,-0.4181,-0.3767,0.5835,-0.3411,0.7359,0.0414
1314,0.0,0.0,0.0,0.0,0.0,0.0,-0.8261,-0.4162,-0.3772,0.5832,-0.3412,0.7361,0.0412
1315,0.0,0.0,0.0,0.0,0.0,0.0,-0.8242,-0.4171,-0.3782,0.5830,-0.3414,0.7361,0.0415
1316,0.0,0.0,0.0,0.0,0.0,0.0,-0.8238,-0.4170,-0.3806,0.5827,-0.3414,0.7363,0.0413
1317,0.0,0.0,0.0,0.0,0.0,0.0,-0.8242,-0.4156,-0.3792,0.5825,-0.3413,0.7365,0.0413
1318,0.0,0.0,0.0,0.0,0.0,0.0,-0.8276,-0.4206,-0.3767,0.5826,-0.3416,0.7363,0.0415
1319,0.0,0.0,0.0,0.0,0.0,0.0,-0.8269,-0.4138,-0.3737,0.5827,-0.3417,0.7362,0.0416
1320,0.0,0.0,0.0,0.0,0.0,0.0,-0.8221,-0.4148,-0.3724,0.5828,-0.3416,0.7362,0.0417
1321,0.0,0.0,0.0,0.0,0.0,0.0,-0.8327,-0.4169,-0.3721,0.5831,-0.3421,0.7357,0.0423
1322,0.0,0.0,0.0,0.0,0.0,0.0,-0.8325,-0.4324,-0.3695,0.5836,-0.3427,0.7349,0.0428
1323,0.0,0.0,0.0,0.0,0.0,0.0,-0.8246,-0.4182,-0.3739,0.5841,-0.3431,0.7344,0.0429
1324,0.0,0.0,0.0,0.0,0.0,0.0,-0.8240,-0.4173,-0.3685,0.5846,-0.3442,0.7334,0.0436
1325,0.0,0.0,0.0,0.0,0.0,0.0,-0.8260,-0.4241,-0.3667,0.5852,-0.3450,0.7325,0.0441
1326,0.0,0.0,0.0,0.0,0.0,0.0,-0.8206,-0.4236,-0.3659,0.5858,-0.3457,0.7317,0.0446
1327,0.0,0.0,0.0,0.0,0.0,0.0,-0.8168,-0.4275,-0.3641,0.5863,-0.3464,0.7310,0.0448
1328,0.0,0.0,0.0,0.0,0.0,0.0,-0.8217,-0.4314,-0.3631,0.5869,-0.3472,0.7301,0.0450
1329,0.0,0.0,0.0,0.0,0.0,0.0,-0.8240,-0.4335,-0.3591,0.5877,-0.3479,0.7291,0.0452
1330,0.0,0.0,0.0,0.0,0.0,0.0,-0.8216,-0.4354,-0.3597,0.5884,-0.3483,0.7283,0.0452
1331,0.0,0.0,0.0,0.0,0.0,0.0,-0.8225,-0.4360,-0.3558,0.5893,-0.3490,0.7273,0.0454
1332,0.0,0.0,0.0,0.0,0.0,0.0,-0.8187,-0.4423,-0.3537,0.5902,-0.3497,0.7262,0.0451
1333,0.0,0.0,0.0,0.0,0.0,0.0,-0.8216,-0.4404,-0.3526,0.5911,-0.3498,0.7254,0.0444
1334,0.0,0.0,0.0,0.0,0.0,0.0,-0.8243,-0.4341,-0.3514,0.5920,-0.3497,0.7248,0.0435
1335,0.0,0.0,0.0,0.0,0.0,0.0,-0.8189,-0.4312,-0.3491,0.5928,-0.3495,0.7243,0.0428
1336,0.0,0.0,0.0,0.0,0.0,0.0,-0.8217,-0.4274,-0.3485,0.5935,-0.3495,0.7237,0.0423
1337,0.0,0.0,0.0,0.0,0.0,0.0,-0.8232,-0.4283,-0.3484,0.5942,-0.3497,0.7231,0.0418
1338,0.0,0.0,0.0,0.0,0.0,0.0,-0.8174,-0.4268,-0.3495,0.5946,-0.3499,0.7227,0.0414
1339,0.0,0.0,0.0,0.0,0.0,0.0,-0.8183,-0.4195,-0.3528,0.5948,-0.3500,0.7225,0.0409
1340,0.0,0.0,0.0,0.0,0.0,0.0,-0.8210,-0.4054,-0.3539,0.5945,-0.3496,0.7230,0.0404
1341,0.0,0.0,0.0,0.0,0.0,0.0,-0.8219,-0.4050,-0.3514,0.5940,-0.3490,0.7237,0.0402
1342,0.0,0.0,0.0,0.0,0.0,0.0,-0.8207,-0.4249,-0.3470,0.5936,-0.3492,0.7239,0.0409
1343,0.0,0.0,0.0,0.0,0.0,0.0,-0.8094,-0.4388,-0.3491,0.5932,-0.3496,0.7240,0.0418
1344,0.0,0.0,0.0,0.0,0.0,0.0,-0.8115,-0.4485,-0.3516,0.5925,-0.3496,0.7245,0.0422
1345,0.0,0.0,0.0,0.0,0.0,0.0,-0.8142,-0.4567,-0.3546,0.5918,-0.3496,0.7251,0.0424
1346,0.0,0.0,0.0,0.0,0.0,0.0,-0.8140,-0.4509,-0.3540,0.5913,-0.3496,0.7255,0.0427
1347,0.0,0.0,0.0,0.0,0.0,0.0,-0.8141,-0.4548,-0.3540,0.5909,-0.3495,0.7258,0.0428
1348,0.0,0.0,0.0,0.0,0.0,0.0,-0.8166,-0.4567,-0.3564,0.5906,-0.3493,0.7262,0.0426
1349,0.0,0.0,0.0,0.0,0.0,0.0,-0.8071,-0.4624,-0.3592,0.5903,-0.3490,0.7266,0.0420
1350,0.0,0.0,0.0,0.0,0.0,0.0,-0.8071,-0.4516,-0.3653,0.5901,-0.3483,0.7272,0.0407
1351,0.0,0.0,0.0,0.0,0.0,0.0,-0.8166,-0.4445,-0.3635,0.5899,-0.3473,0.7279,0.0392
1352,0.0,0.0,0.0,0.0,0.0,0.0,-0.8227,-0.4339,-0.3631,0.5899,-0.3460,0.7286,0.0377
1353,0.0,0.0,0.0,0.0,0.0,0.0,-0.8264,-0.4247,-0.3633,0.5899,-0.3450,0.7291,0.0364
1354,0.0,0.0,0.0,0.0,0.0,0.0,-0.8263,-0.4193,-0.3656,0.5900,-0.3442,0.7295,0.0358
1355,0.0,0.0,0.0,0.0,0.0,0.0,-0.8293,-0.4193,-0.3679,0.5900,-0.3436,0.7298,0.0354
1356,0.0,0.0,0.0,0.0,0.0,0.0,-0.8265,-0.4251,-0.3671,0.5900,-0.3431,0.7300,0.0351
1357,0.0,0.0,0.0,0.0,0.0,0.0,-0.8202,-0.4230,-0.3692,0.5899,-0.3427,0.7303,0.0351
1358,0.0,0.0,0.0,0.0,0.0,0.0,-0.8256,-0.4270,-0.3677,0.5898,-0.3424,0.7305,0.0352
1359,0.0,0.0,0.0,0.0,0.0,0.0,-0.8285,-0.4305,-0.3662,0.5894,-0.3411,0.7313,0.0372
1360,0.0,0.0,0.0,0.0,0.0,0.0,-0.8270,-0.4315,-0.3658,0.5895,-0.3414,0.7311,0.0377
1361,0.0,0.0,0.0,0.0,0.0,0.0,-0.8256,-0.4275,-0.3672,0.5897,-0.3415,0.7309,0.0382
1362,0.0,0.0,0.0,0.0,0.0,0.0,-0.8230,-0.4202,-0.3672,0.5898,-0.3415,0.7308,0.0386
1363,0.0,0.0,0.0,0.0,0.0,0.0,-0.8172,-0.4226,-0.3650,0.5898,-0.3417,0.7306,0.0391
1364,0.0,0.0,0.0,0.0,0.0,0.0,-0.8163,-0.4289,-0.3627,0.5900,-0.3420,0.7304,0.0393
1365,0.0,0.0,0.0,0.0,0.0,0.0,-0.8163,-0.4314,-0.3603,0.5901,-0.3421,0.7302,0.0392
1366,0.0,0.0,0.0,0.0,0.0,0.0,-0.8221,-0.4344,-0.3597,0.5902,-0.3425,0.7299,0.0392
1367,0.0,0.0,0.0,0.0,0.0,0.0,-0.8240,-0.4345,-0.3587,0.5905,-0.3431,0.7294,0.0394
1368,0.0,0.0,0.0,0.0,0.0,0.0,-0.8188,-0.4387,-0.3599,0.5908,-0.3438,0.7289,0.0397
1369,0.0,0.0,0.0,0.0,0.0,0.0,-0.8135,-0.4347,-0.3634,0.5909,-0.3445,0.7283,0.0400
1370,0.0,0.0,0.0,0.0,0.0,0.0,-0.8086,-0.4362,-0.3606,0.5911,-0.3455,0.7277,0.0402
1371,0.0,0.0,0.0,0.0,0.0,0.0,-0.8059,-0.4478,-0.3585,0.5913,-0.3464,0.7272,0.0402
1372,0.0,0.0,0.0,0.0,0.0,0.0,-0.8085,-0.4600,-0.3596,0.5914,-0.3474,0.7266,0.0398
1373,0.0,0.0,0.0,0.0,0.0,0.0,-0.8071,-0.4624,-0.3583,0.5918,-0.3482,0.7259,0.0392
1374,0.0,0.0,0.0,0.0,0.0,0.0,-0.8027,-0.4638,-0.3560,0.5922,-0.3487,0.7254,0.0381
1375,0.0,0.0,0.0,0.0,0.0,0.0,-0.8018,-0.4633,-0.3570,0.5926,-0.3491,0.7250,0.0370
1376,0.0,0.0,0.0,0.0,0.0,0.0,-0.8067,-0.4668,-0.3579,0.5930,-0.3495,0.7245,0.0359
1377,0.0,0.0,0.0,0.0,0.0,0.0,-0.8062,-0.4624,-0.3593,0.5935,-0.3499,0.7240,0.0349
1378,0.0,0.0,0.0,0.0,0.0,0.0,-0.8104,-0.4561,-0.3610,0.5938,-0.3503,0.7235,0.0343
1379,0.0,0.0,0.0,0.0,0.0,0.0,-0.8133,-0.4537,-0.3603,0.5940,-0.3507,0.7232,0.0338
1380,0.0,0.0,0.0,0.0,0.0,0.0,-0.8109,-0.4556,-0.3600,0.5941,-0.3510,0.7230,0.0335
1381,0.0,0.0,0.0,0.0,0.0,0.0,-0.8075,-0.4600,-0.3577,0.5941,-0.3513,0.7229,0.0330
1382,0.0,0.0,0.0,0.0,0.0,0.0,-0.8070,-0.4566,-0.3582,0.5940,-0.3514,0.7229,0.0322
1383,0.0,0.0,0.0,0.0,0.0,0.0,-0.8088,-0.4513,-0.3575,0.5941,-0.3516,0.7228,0.0319
1384,0.0,0.0,0.0,0.0,0.0,0.0,-0.8089,-0.4532,-0.3590,0.5940,-0.3518,0.7228,0.0316
1385,0.0,0.0,0.0,0.0,0.0,0.0,-0.8114,-0.4556,-0.3599,0.5939,-0.3520,0.7228,0.0312
1386,0.0,0.0,0.0,0.0,0.0,0.0,-0.8153,-0.4581,-0.3608,0.5938,-0.3525,0.7226,0.0314
1387,0.0,0.0,0.0,0.0,0.0,0.0,-0.8139,-0.4644,-0.3595,0.5939,-0.3529,0.7223,0.0317
1388,0.0,0.0,0.0,0.0,0.0,0.0,-0.8106,-0.4688,-0.3573,0.5941,-0.3531,0.7221,0.0317
1389,0.0,0.0,0.0,0.0,0.0,0.0,-0.8041,-0.4526,-0.3592,0.5939,-0.3531,0.7222,0.0315
1390,0.0,0.0,0.0,0.0,0.0,0.0,-0.8098,-0.4270,-0.3575,0.5937,-0.3528,0.7226,0.0318
1391,0.0,0.0,0.0,0.0,0.0,0.0,-0.8037,-0.4420,-0.3541,0.5934,-0.3529,0.7227,0.0325
1392,0.0,0.0,0.0,0.0,0.0,0.0,-0.8039,-0.4479,-0.3547,0.5930,-0.3528,0.7230,0.0326
1393,0.0,0.0,0.0,0.0,0.0,0.0,-0.8069,-0.4561,-0.3562,0.5926,-0.3532,0.7232,0.0331
1394,0.0,0.0,0.0,0.0,0.0,0.0,-0.8114,-0.4615,-0.3581,0.5923,-0.3538,0.7231,0.0337
1395,0.0,0.0,0.0,0.0,0.0,0.0,-0.8105,-0.4605,-0.3581,0.5919,-0.3539,0.7233,0.0341
1396,0.0,0.0,0.0,0.0,0.0,0.0,-0.8051,-0.4590,-0.3588,0.5916,-0.3538,0.7236,0.0343
1397,0.0,0.0,0.0,0.0,0.0,0.0,-0.8085,-0.4614,-0.3582,0.5914,-0.3541,0.7237,0.0348
1398,0.0,0.0,0.0,0.0,0.0,0.0,-0.8081,-0.4609,-0.3587,0.5912,-0.3545,0.7235,0.0356
1399,0.0,0.0,0.0,0.0,0.0,0.0,-0.8133,-0.4542,-0.3613,0.5910,-0.3546,0.7236,0.0362
1400,0.0,0.0,0.0,0.0,0.0,0.0,-0.8205,-0.4519,-0.3591,0.5909,-0.3542,0.7239,0.0365
1401,0.0,0.0,0.0,0.0,0.0,0.0,-0.8156,-0.4543,-0.3559,0.5910,-0.3541,0.7238,0.0370
1402,0.0,0.0,0.0,0.0,0.0,0.0,-0.8099,-0.4625,-0.3548,0.5913,-0.3543,0.7235,0.0376
1403,0.0,0.0,0.0,0.0,0.0,0.0,-0.8128,-0.4606,-0.3532,0.5915,-0.3543,0.7233,0.0378
1404,0.0,0.0,0.0,0.0,0.0,0.0,-0.8122,-0.4577,-0.3512,0.5919,-0.3543,0.7229,0.0381
1405,0.0,0.0,0.0,0.0,0.0,0.0,-0.8097,-0.4563,-0.3484,0.5924,-0.3542,0.7226,0.0382
1406,0.0,0.0,0.0,0.0,0.0,0.0,-0.8063,-0.4568,-0.3480,0.5929,-0.3542,0.7222,0.0381
1407,0.0,0.0,0.0,0.0,0.0,0.0,-0.8146,-0.4627,-0.3469,0.5933,-0.3544,0.7217,0.0382
1408,0.0,0.0,0.0,0.0,0.0,0.0,-0.8154,-0.4525,-0.3472,0.5938,-0.3543,0.7214,0.0379
1409,0.0,0.0,0.0,0.0,0.0,0.0,-0.8141,-0.4350,-0.3479,0.5940,-0.3538,0.7216,0.0375
1410,0.0,0.0,0.0,0.0,0.0,0.0,-0.8155,-0.4311,-0.3497,0.5940,-0.3536,0.7216,0.0376
1411,0.0,0.0,0.0,0.0,0.0,0.0,-0.8187,-0.4403,-0.3531,0.5941,-0.3538,0.7214,0.0379
1412,0.0,0.0,0.0,0.0,0.0,0.0,-0.8189,-0.4485,-0.3567,0.5940,-0.3538,0.7216,0.0377
1413,0.0,0.0,0.0,0.0,0.0,0.0,-0.8088,-0.4552,-0.3552,0.5939,-0.3542,0.7214,0.0376
1414,0.0,0.0,0.0,0.0,0.0,0.0,-0.8150,-0.4534,-0.3530,0.5938,-0.3545,0.7213,0.0375
1415,0.0,0.0,0.0,0.0,0.0,0.0,-0.8213,-0.4545,-0.3514,0.5938,-0.3544,0.7214,0.0371
1416,0.0,0.0,0.0,0.0,0.0,0.0,-0.8142,-0.4621,-0.3532,0.5940,-0.3546,0.7211,0.0370
1417,0.0,0.0,0.0,0.0,0.0,0.0,-0.8152,-0.4596,-0.3570,0.5941,-0.3548,0.7210,0.0365
1418,0.0,0.0,0.0,0.0,0.0,0.0,-0.8093,-0.4547,-0.3547,0.5943,-0.3549,0.7208,0.0359
1419,0.0,0.0,0.0,0.0,0.0,0.0,-0.8046,-0.4407,-0.3497,0.5944,-0.3547,0.7208,0.0352
1420,0.0,0.0,0.0,0.0,0.0,0.0,-0.8068,-0.4286,-0.3509,0.5943,-0.3542,0.7213,0.0342
1421,0.0,0.0,0.0,0.0,0.0,0.0,-0.8154,-0.4481,-0.3529,0.5940,-0.3542,0.7215,0.0338
1422,0.0,0.0,0.0,0.0,0.0,0.0,-0.8135,-0.4722,-0.3553,0.5940,-0.3549,0.7212,0.0336
1423,0.0,0.0,0.0,0.0,0.0,0.0,-0.8065,-0.4848,-0.3558,0.5941,-0.3555,0.7208,0.0331
1424,0.0,0.0,0.0,0.0,0.0,0.0,-0.8024,-0.4735,-0.3552,0.5942,-0.3556,0.7207,0.0322
1425,0.0,0.0,0.0,0.0,0.0,0.0,-0.8021,-0.4624,-0.3521,0.5944,-0.3555,0.7207,0.0314
1426,0.0,0.0,0.0,0.0,0.0,0.0,-0.8060,-0.4606,-0.3520,0.5945,-0.3555,0.7206,0.0307
1427,0.0,0.0,0.0,0.0,0.0,0.0,-0.8036,-0.4658,-0.3526,0.5946,-0.3555,0.7206,0.0301
1428,0.0,0.0,0.0,0.0,0.0,0.0,-0.8033,-0.4751,-0.3523,0.5946,-0.3556,0.7205,0.0298
1429,0.0,0.0,0.0,0.0,0.0,0.0,-0.8009,-0.4751,-0.3514,0.5946,-0.3555,0.7205,0.0291
1430,0.0,0.0,0.0,0.0,0.0,0.0,-0.8003,-0.4707,-0.3504,0.5946,-0.3554,0.7206,0.0284
1431,0.0,0.0,0.0,0.0,0.0,0.0,-0.7979,-0.4667,-0.3523,0.5945,-0.3553,0.7208,0.0278
1432,0.0,0.0,0.0,0.0,0.0,0.0,-0.7993,-0.4667,-0.3542,0.5943,-0.3551,0.7211,0.0271
1433,0.0,0.0,0.0,0.0,0.0,0.0,-0.8066,-0.4644,-0.3564,0.5939,-0.3547,0.7216,0.0264
1434,0.0,0.0,0.0,0.0,0.0,0.0,-0.8089,-0.4625,-0.3543,0.5936,-0.3543,0.7222,0.0257
1435,0.0,0.0,0.0,0.0,0.0,0.0,-0.8060,-0.4625,-0.3530,0.5934,-0.3542,0.7223,0.0256
1436,0.0,0.0,0.0,0.0,0.0,0.0,-0.8033,-0.4623,-0.3594,0.5931,-0.3541,0.7226,0.0258
1437,0.0,0.0,0.0,0.0,0.0,0.0,-0.8002,-0.4675,-0.3673,0.5924,-0.3539,0.7233,0.0258
1438,0.0,0.0,0.0,0.0,0.0,0.0,-0.7968,-0.4689,-0.3669,0.5917,-0.3536,0.7240,0.0257
1439,0.0,0.0,0.0,0.0,0.0,0.0,-0.7972,-0.4626,-0.3668,0.5911,-0.3531,0.7248,0.0255
1440,0.0,0.0,0.0,0.0,0.0,0.0,-0.8043,-0.4573,-0.3670,0.5904,-0.3526,0.7255,0.0257
1441,0.0,0.0,0.0,0.0,0.0,0.0,-0.8095,-0.4506,-0.3667,0.5897,-0.3519,0.7265,0.0258
1442,0.0,0.0,0.0,0.0,0.0,0.0,-0.8085,-0.4477,-0.3657,0.5891,-0.3514,0.7272,0.0263
1443,0.0,0.0,0.0,0.0,0.0,0.0,-0.8051,-0.4467,-0.3658,0.5886,-0.3513,0.7276,0.0275
1444,0.0,0.0,0.0,0.0,0.0,0.0,-0.8027,-0.4476,-0.3654,0.5880,-0.3511,0.7281,0.0282
1445,0.0,0.0,0.0,0.0,0.0,0.0,-0.8060,-0.4442,-0.3667,0.5874,-0.3509,0.7287,0.0288
1446,0.0,0.0,0.0,0.0,0.0,0.0,-0.8113,-0.4409,-0.3665,0.5870,-0.3511,0.7289,0.0301
1447,0.0,0.0,0.0,0.0,0.0,0.0,-0.8194,-0.4386,-0.3652,0.5865,-0.3512,0.7291,0.0314
1448,0.0,0.0,0.0,0.0,0.0,0.0,-0.8304,-0.4350,-0.3633,0.5862,-0.3512,0.7293,0.0327
1449,0.0,0.0,0.0,0.0,0.0,0.0,-0.8332,-0.4306,-0.3627,0.5861,-0.3513,0.7294,0.0343
1450,0.0,0.0,0.0,0.0,0.0,0.0,-0.8332,-0.4273,-0.3621,0.5858,-0.3514,0.7294,0.0362
1451,0.0,0.0,0.0,0.0,0.0,0.0,-0.8307,-0.4238,-0.3617,0.5856,-0.3516,0.7294,0.0385
1452,0.0,0.0,0.0,0.0,0.0,0.0,-0.8313,-0.4228,-0.3665,0.5854,-0.3520,0.7292,0.0410
1453,0.0,0.0,0.0,0.0,0.0,0.0,-0.8364,-0.4329,-0.3728,0.5852,-0.3525,0.7290,0.0435
1454,0.0,0.0,0.0,0.0,0.0,0.0,-0.8337,-0.4416,-0.3745,0.5851,-0.3527,0.7289,0.0454
1455,0.0,0.0,0.0,0.0,0.0,0.0,-0.8163,-0.4433,-0.3726,0.5850,-0.3531,0.7286,0.0471
1456,0.0,0.0,0.0,0.0,0.0,0.0,-0.7994,-0.4426,-0.3732,0.5848,-0.3535,0.7285,0.0483
1457,0.0,0.0,0.0,0.0,0.0,0.0,-0.7945,-0.4440,-0.3700,0.5847,-0.3538,0.7284,0.0489
1458,0.0,0.0,0.0,0.0,0.0,0.0,-0.8005,-0.4389,-0.3643,0.5848,-0.3539,0.7282,0.0492
1459,0.0,0.0,0.0,0.0,0.0,0.0,-0.8118,-0.4250,-0.3608,0.5850,-0.3536,0.7282,0.0492
1460,0.0,0.0,0.0,0.0,0.0,0.0,-0.8276,-0.4161,-0.3587,0.5853,-0.3529,0.7283,0.0489
1461,0.0,0.0,0.0,0.0,0.0,0.0,-0.8380,-0.4095,-0.3568,0.5858,-0.3522,0.7282,0.0489
1462,0.0,0.0,0.0,0.0,0.0,0.0,-0.8375,-0.4060,-0.3582,0.5863,-0.3517,0.7281,0.0493
1463,0.0,0.0,0.0,0.0,0.0,0.0,-0.8371,-0.4070,-0.3602,0.5866,-0.3513,0.7280,0.0498
1464,0.0,0.0,0.0,0.0,0.0,0.0,-0.8376,-0.4089,-0.3583,0.5870,-0.3510,0.7278,0.0503
1465,0.0,0.0,0.0,0.0,0.0,0.0,-0.8362,-0.4123,-0.3569,0.5874,-0.3507,0.7276,0.0506
1466,0.0,0.0,0.0,0.0,0.0,0.0,-0.8357,-0.4118,-0.3584,0.5879,-0.3506,0.7272,0.0512
1467,0.0,0.0,0.0,0.0,0.0,0.0,-0.8304,-0.4142,-0.3586,0.5883,-0.3508,0.7268,0.0517
1468,0.0,0.0,0.0,0.0,0.0,0.0,-0.8288,-0.4083,-0.3576,0.5885,-0.3508,0.7266,0.0517
1469,0.0,0.0,0.0,0.0,0.0,0.0,-0.8238,-0.4025,-0.3547,0.5886,-0.3503,0.7268,0.0513
1470,0.0,0.0,0.0,0.0,0.0,0.0,-0.8214,-0.4005,-0.3543,0.5886,-0.3501,0.7269,0.0512
1471,0.0,0.0,0.0,0.0,0.0,0.0,-0.8234,-0.4025,-0.3547,0.5885,-0.3501,0.7269,0.0511
1472,0.0,0.0,0.0,0.0,0.0,0.0,-0.8254,-0.4083,-0.3553,0.5885,-0.3502,0.7270,0.0508
1473,0.0,0.0,0.0,0.0,0.0,0.0,-0.8246,-0.4151,-0.3573,0.5885,-0.3504,0.7269,0.0503
1474,0.0,0.0,0.0,0.0,0.0,0.0,-0.8233,-0.4213,-0.3594,0.5885,-0.3509,0.7267,0.0499
1475,0.0,0.0,0.0,0.0,0.0,0.0,-0.8278,-0.4233,-0.3627,0.5885,-0.3510,0.7267,0.0491
1476,0.0,0.0,0.0,0.0,0.0,0.0,-0.8264,-0.4232,-0.3642,0.5883,-0.3509,0.7269,0.0480
1477,0.0,0.0,0.0,0.0,0.0,0.0,-0.8263,-0.4238,-0.3618,0.5884,-0.3509,0.7270,0.0470
1478,0.0,0.0,0.0,0.0,0.0,0.0,-0.8302,-0.4238,-0.3612,0.5885,-0.3509,0.7270,0.0462
1479,0.0,0.0,0.0,0.0,0.0,0.0,-0.8277,-0.4204,-0.3607,0.5886,-0.3509,0.7269,0.0456
1480,0.0,0.0,0.0,0.0,0.0,0.0,-0.8263,-0.4233,-0.3608,0.5887,-0.3505,0.7270,0.0447
1481,0.0,0.0,0.0,0.0,0.0,0.0,-0.8259,-0.4267,-0.3614,0.5888,-0.3500,0.7272,0.0436
1482,0.0,0.0,0.0,0.0,0.0,0.0,-0.8240,-0.4315,-0.3610,0.5891,-0.3497,0.7272,0.0427
1483,0.0,0.0,0.0,0.0,0.0,0.0,-0.8260,-0.4335,-0.3615,0.5895,-0.3492,0.7272,0.0419
1484,0.0,0.0,0.0,0.0,0.0,0.0,-0.8229,-0.4188,-0.3638,0.5897,-0.3482,0.7276,0.0408
1485,0.0,0.0,0.0,0.0,0.0,0.0,-0.8188,-0.4091,-0.3627,0.5897,-0.3471,0.7281,0.0397
1486,0.0,0.0,0.0,0.0,0.0,0.0,-0.8217,-0.4097,-0.3593,0.5898,-0.3466,0.7283,0.0392
1487,0.0,0.0,0.0,0.0,0.0,0.0,-0.8274,-0.4064,-0.3590,0.5897,-0.3464,0.7285,0.0389
1488,0.0,0.0,0.0,0.0,0.0,0.0,-0.8343,-0.4069,-0.3622,0.5896,-0.3460,0.7288,0.0389
1489,0.0,0.0,0.0,0.0,0.0,0.0,-0.8343,-0.4054,-0.3636,0.5893,-0.3456,0.7292,0.0391
1490,0.0,0.0,0.0,0.0,0.0,0.0,-0.8258,-0.4213,-0.3613,0.5892,-0.3458,0.7292,0.0396
1491,0.0,0.0,0.0,0.0,0.0,0.0,-0.8285,-0.4398,-0.3611,0.5893,-0.3461,0.7289,0.0398
1492,0.0,0.0,0.0,0.0,0.0,0.0,-0.8315,-0.4141,-0.3644,0.5894,-0.3457,0.7291,0.0400
1493,0.0,0.0,0.0,0.0,0.0,0.0,-0.8285,-0.4048,-0.3643,0.5891,-0.3454,0.7294,0.0405
1494,0.0,0.0,0.0,0.0,0.0,0.0,-0.8261,-0.4116,-0.3621,0.5888,-0.3452,0.7297,0.0410
1495,0.0,0.0,0.0,0.0,0.0,0.0,-0.8238,-0.4209,-0.3580,0.5887,-0.3453,0.7297,0.0417
1496,0.0,0.0,0.0,0.0,0.0,0.0,-0.8212,-0.4521,-0.3509,0.5889,-0.3460,0.7291,0.0425
1497,0.0,0.0,0.0,0.0,0.0,0.0,-0.8168,-0.4753,-0.3514,0.5896,-0.3470,0.7281,0.0427
1498,0.0,0.0,0.0,0.0,0.0,0.0,-0.8223,-0.4179,-0.3609,0.5900,-0.3468,0.7280,0.0420
1499,0.0,0.0,0.0,0.0,0.0,0.0,-0.8262,-0.3996,-0.3565,0.5900,-0.3467,0.7280,0.0421
1500,0.0,0.0,0.0,0.0,0.0,0.0,-0.8227,-0.4200,-0.3546,0.5901,-0.3471,0.7277,0.0422
1501,0.0,0.0,0.0,0.0,0.0,0.0,-0.8233,-0.4219,-0.3570,0.5902,-0.3473,0.7275,0.0422
1502,0.0,0.0,0.0,0.0,0.0,0.0,-0.8301,-0.4234,-0.3588,0.5902,-0.3475,0.7274,0.0422
1503,0.0,0.0,0.0,0.0,0.0,0.0,-0.8326,-0.4283,-0.3578,0.5902,-0.3475,0.7274,0.0421
1504,0.0,0.0,0.0,0.0,0.0,0.0,-0.8235,-0.4316,-0.3586,0.5902,-0.3475,0.7274,0.0420
1505,0.0,0.0,0.0,0.0,0.0,0.0,-0.8210,-0.4330,-0.3558,0.5904,-0.3478,0.7271,0.0418
1506,0.0,0.0,0.0,0.0,0.0,0.0,-0.8186,-0.4310,-0.3583,0.5906,-0.3483,0.7268,0.0418
1507,0.0,0.0,0.0,0.0,0.0,0.0,-0.8206,-0.4374,-0.3564,0.5907,-0.3488,0.7264,0.0417
1508,0.0,0.0,0.0,0.0,0.0,0.0,-0.8247,-0.4466,-0.3569,0.5911,-0.3490,0.7260,0.0412
1509,0.0,0.0,0.0,0.0,0.0,0.0,-0.8193,-0.4417,-0.3575,0.5915,-0.3490,0.7258,0.0404
1510,0.0,0.0,0.0,0.0,0.0,0.0,-0.8149,-0.4387,-0.3566,0.5920,-0.3491,0.7254,0.0395
1511,0.0,0.0,0.0,0.0,0.0,0.0,-0.8180,-0.4218,-0.3591,0.5921,-0.3486,0.7256,0.0382
1512,0.0,0.0,0.0,0.0,0.0,0.0,-0.8241,-0.4122,-0.3568,0.5919,-0.3476,0.7263,0.0370
1513,0.0,0.0,0.0,0.0,0.0,0.0,-0.8174,-0.4218,-0.3553,0.5916,-0.3469,0.7268,0.0366
1514,0.0,0.0,0.0,0.0,0.0,0.0,-0.8021,-0.4600,-0.3521,0.5914,-0.3468,0.7271,0.0359
1515,0.0,0.0,0.0,0.0,0.0,0.0,-0.8105,-0.4561,-0.3614,0.5912,-0.3463,0.7276,0.0343
1516,0.0,0.0,0.0,0.0,0.0,0.0,-0.8209,-0.4159,-0.3623,0.5907,-0.3458,0.7283,0.0335
1517,0.0,0.0,0.0,0.0,0.0,0.0,-0.8160,-0.4183,-0.3582,0.5899,-0.3457,0.7289,0.0337
1518,0.0,0.0,0.0,0.0,0.0,0.0,-0.8119,-0.4323,-0.3590,0.5891,-0.3455,0.7297,0.0335
1519,0.0,0.0,0.0,0.0,0.0,0.0,-0.8132,-0.4474,-0.3617,0.5883,-0.3452,0.7305,0.0329
1520,0.0,0.0,0.0,0.0,0.0,0.0,-0.8154,-0.4575,-0.3652,0.5877,-0.3453,0.7310,0.0319
1521,0.0,0.0,0.0,0.0,0.0,0.0,-0.8131,-0.4603,-0.3677,0.5874,-0.3456,0.7311,0.0309
1522,0.0,0.0,0.0,0.0,0.0,0.0,-0.8150,-0.4535,-0.3704,0.5871,-0.3454,0.7315,0.0295
1523,0.0,0.0,0.0,0.0,0.0,0.0,-0.8154,-0.4477,-0.3718,0.5869,-0.3450,0.7319,0.0280
1524,0.0,0.0,0.0,0.0,0.0,0.0,-0.8130,-0.4476,-0.3743,0.5867,-0.3447,0.7323,0.0266
1525,0.0,0.0,0.0,0.0,0.0,0.0,-0.8141,-0.4481,-0.3762,0.5865,-0.3442,0.7327,0.0254
1526,0.0,0.0,0.0,0.0,0.0,0.0,-0.8117,-0.4485,-0.3772,0.5863,-0.3437,0.7331,0.0244
1527,0.0,0.0,0.0,0.0,0.0,0.0,-0.8064,-0.4528,-0.3741,0.5864,-0.3435,0.7332,0.0242
1528,0.0,0.0,0.0,0.0,0.0,0.0,-0.8112,-0.4568,-0.3730,0.5867,-0.3434,0.7330,0.0242
1529,0.0,0.0,0.0,0.0,0.0,0.0,-0.8088,-0.4539,-0.3731,0.5868,-0.3433,0.7330,0.0244
1530,0.0,0.0,0.0,0.0,0.0,0.0,-0.8077,-0.4481,-0.3720,0.5868,-0.3430,0.7331,0.0246
1531,0.0,0.0,0.0,0.0,0.0,0.0,-0.8081,-0.4471,-0.3705,0.5870,-0.3427,0.7331,0.0248
1532,0.0,0.0,0.0,0.0,0.0,0.0,-0.8065,-0.4393,-0.3705,0.5870,-0.3424,0.7332,0.0253
1533,0.0,0.0,0.0,0.0,0.0,0.0,-0.8075,-0.4399,-0.3690,0.5869,-0.3422,0.7333,0.0258
1534,0.0,0.0,0.0,0.0,0.0,0.0,-0.8090,-0.4457,-0.3686,0.5869,-0.3422,0.7333,0.0263
1535,0.0,0.0,0.0,0.0,0.0,0.0,-0.8075,-0.4457,-0.3686,0.5868,-0.3424,0.7333,0.0269
1536,0.0,0.0,0.0,0.0,0.0,0.0,-0.8051,-0.4427,-0.3696,0.5868,-0.3427,0.7331,0.0275
1537,0.0,0.0,0.0,0.0,0.0,0.0,-0.8069,-0.4315,-0.3727,0.5867,-0.3430,0.7331,0.0282
1538,0.0,0.0,0.0,0.0,0.0,0.0,-0.8092,-0.4262,-0.3721,0.5863,-0.3432,0.7332,0.0290
1539,0.0,0.0,0.0,0.0,0.0,0.0,-0.8057,-0.4471,-0.3721,0.5860,-0.3437,0.7332,0.0299
1540,0.0,0.0,0.0,0.0,0.0,0.0,-0.8082,-0.4446,-0.3749,0.5858,-0.3441,0.7332,0.0306
1541,0.0,0.0,0.0,0.0,0.0,0.0,-0.8080,-0.4383,-0.3747,0.5854,-0.3442,0.7333,0.0312
1542,0.0,0.0,0.0,0.0,0.0,0.0,-0.8052,-0.4451,-0.3730,0.5851,-0.3445,0.7334,0.0318
1543,0.0,0.0,0.0,0.0,0.0,0.0,-0.8096,-0.4456,-0.3748,0.5849,-0.3447,0.7335,0.0323
1544,0.0,0.0,0.0,0.0,0.0,0.0,-0.8140,-0.4437,-0.3756,0.5848,-0.3447,0.7336,0.0323
1545,0.0,0.0,0.0,0.0,0.0,0.0,-0.8140,-0.4452,-0.3747,0.5849,-0.3446,0.7336,0.0323
1546,0.0,0.0,0.0,0.0,0.0,0.0,-0.8129,-0.4437,-0.3728,0.5851,-0.3446,0.7334,0.0326
1547,0.0,0.0,0.0,0.0,0.0,0.0,-0.8109,-0.4394,-0.3723,0.5853,-0.3447,0.7332,0.0329
1548,0.0,0.0,0.0,0.0,0.0,0.0,-0.8109,-0.4379,-0.3717,0.5856,-0.3449,0.7328,0.0332
1549,0.0,0.0,0.0,0.0,0.0,0.0,-0.8194,-0.4322,-0.3709,0.5859,-0.3448,0.7326,0.0334
1550,0.0,0.0,0.0,0.0,0.0,0.0,-0.8218,-0.4298,-0.3708,0.5860,-0.3446,0.7326,0.0337
1551,0.0,0.0,0.0,0.0,0.0,0.0,-0.8077,-0.4316,-0.3669,0.5861,-0.3445,0.7325,0.0339
1552,0.0,0.0,0.0,0.0,0.0,0.0,-0.8055,-0.4448,-0.3653,0.5863,-0.3448,0.7323,0.0340
1553,0.0,0.0,0.0,0.0,0.0,0.0,-0.8096,-0.4496,-0.3691,0.5864,-0.3453,0.7319,0.0337
1554,0.0,0.0,0.0,0.0,0.0,0.0,-0.8136,-0.4287,-0.3705,0.5864,-0.3451,0.7321,0.0333
1555,0.0,0.0,0.0,0.0,0.0,0.0,-0.8130,-0.4273,-0.3681,0.5862,-0.3453,0.7322,0.0333
1556,0.0,0.0,0.0,0.0,0.0,0.0,-0.8094,-0.4438,-0.3680,0.5861,-0.3458,0.7320,0.0334
1557,0.0,0.0,0.0,0.0,0.0,0.0,-0.8096,-0.4471,-0.3705,0.5861,-0.3464,0.7317,0.0335
1558,0.0,0.0,0.0,0.0,0.0,0.0,-0.8091,-0.4505,-0.3696,0.5861,-0.3470,0.7314,0.0334
1559,0.0,0.0,0.0,0.0,0.0,0.0,-0.8120,-0.4462,-0.3704,0.5861,-0.3472,0.7313,0.0331
1560,0.0,0.0,0.0,0.0,0.0,0.0,-0.8105,-0.4462,-0.3709,0.5862,-0.3476,0.7311,0.0331
1561,0.0,0.0,0.0,0.0,0.0,0.0,-0.8092,-0.4500,-0.3720,0.5863,-0.3479,0.7308,0.0328
