,Position_X,Position_Y,Position_Z,Velocity_X,Velocity_Y,Velocity_Z,Acceleration_X,Acceleration_Y,Acceleration_Z,Quaterion_0,Quaterion_1,Quaterion_2,Quaterion_3
90,0.0,0.0,0.0,0.0,0.0,0.0,-0.0188,0.9447,0.3233,0.4694,0.3848,-0.4787,-0.6344
91,0.0,0.0,0.0,0.0,0.0,0.0,-0.0193,0.9447,0.3228,0.4702,0.3845,-0.4783,-0.6342
92,0.0,0.0,0.0,0.0,0.0,0.0,-0.0169,0.9399,0.3199,0.4708,0.3844,-0.4780,-0.6341
93,0.0,0.0,0.0,0.0,0.0,0.0,-0.0170,0.9302,0.3101,0.4712,0.3844,-0.4780,-0.6338
94,0.0,0.0,0.0,0.0,0.0,0.0,-0.0010,0.9078,0.2951,0.4716,0.3843,-0.4788,-0.6330
95,0.0,0.0,0.0,0.0,0.0,0.0,-0.0201,0.9709,0.3092,0.4718,0.3848,-0.4794,-0.6320
96,0.0,0.0,0.0,0.0,0.0,0.0,-0.0202,0.9632,0.3082,0.4719,0.3855,-0.4800,-0.6311
97,0.0,0.0,0.0,0.0,0.0,0.0,-0.0118,0.9791,0.3165,0.4722,0.3858,-0.4806,-0.6302
98,0.0,0.0,0.0,0.0,0.0,0.0,-0.0089,0.9742,0.3169,0.4728,0.3858,-0.4806,-0.6298
99,0.0,0.0,0.0,0.0,0.0,0.0,-0.0080,0.9635,0.3160,0.4731,0.3857,-0.4807,-0.6296
100,0.0,0.0,0.0,0.0,0.0,0.0,-0.0095,0.9582,0.3165,0.4737,0.3859,-0.4806,-0.6291
101,0.0,0.0,0.0,0.0,0.0,0.0,-0.0237,0.9559,0.3174,0.4742,0.3862,-0.4799,-0.6290
102,0.0,0.0,0.0,0.0,0.0,0.0,-0.0271,0.9564,0.3208,0.4746,0.3864,-0.4791,-0.6292
103,0.0,0.0,0.0,0.0,0.0,0.0,-0.0261,0.9501,0.3218,0.4752,0.3863,-0.4782,-0.6295
104,0.0,0.0,0.0,0.0,0.0,0.0,-0.0281,0.9424,0.3218,0.4756,0.3867,-0.4776,-0.6294
105,0.0,0.0,0.0,0.0,0.0,0.0,-0.0306,0.9375,0.3237,0.4759,0.3872,-0.4771,-0.6292
106,0.0,0.0,0.0,0.0,0.0,0.0,-0.0340,0.9356,0.3242,0.4762,0.3875,-0.4763,-0.6295
107,0.0,0.0,0.0,0.0,0.0,0.0,-0.0355,0.9347,0.3247,0.4765,0.3878,-0.4756,-0.6296
108,0.0,0.0,0.0,0.0,0.0,0.0,-0.0370,0.9357,0.3252,0.4765,0.3881,-0.4753,-0.6296
109,0.0,0.0,0.0,0.0,0.0,0.0,-0.0374,0.9361,0.3232,0.4764,0.3884,-0.4751,-0.6296
110,0.0,0.0,0.0,0.0,0.0,0.0,-0.0384,0.9376,0.3232,0.4765,0.3885,-0.4747,-0.6298
111,0.0,0.0,0.0,0.0,0.0,0.0,-0.0389,0.9410,0.3232,0.4765,0.3887,-0.4745,-0.6298
112,0.0,0.0,0.0,0.0,0.0,0.0,-0.0379,0.9429,0.3218,0.4764,0.3888,-0.4743,-0.6300
113,0.0,0.0,0.0,0.0,0.0,0.0,-0.0393,0.9459,0.3228,0.4763,0.3887,-0.4742,-0.6303
114,0.0,0.0,0.0,0.0,0.0,0.0,-0.0389,0.9454,0.3247,0.4762,0.3885,-0.4738,-0.6307
115,0.0,0.0,0.0,0.0,0.0,0.0,-0.0359,0.9458,0.3242,0.4761,0.3883,-0.4737,-0.6310
116,0.0,0.0,0.0,0.0,0.0,0.0,-0.0354,0.9487,0.3247,0.4759,0.3882,-0.4738,-0.6311
117,0.0,0.0,0.0,0.0,0.0,0.0,-0.0340,0.9477,0.3247,0.4757,0.3882,-0.4739,-0.6312
118,0.0,0.0,0.0,0.0,0.0,0.0,-0.0305,0.9467,0.3247,0.4756,0.3881,-0.4741,-0.6312
119,0.0,0.0,0.0,0.0,0.0,0.0,-0.0281,0.9462,0.3237,0.4752,0.3879,-0.4744,-0.6314
120,0.0,0.0,0.0,0.0,0.0,0.0,-0.0252,0.9404,0.3228,0.4751,0.3876,-0.4743,-0.6317
121,0.0,0.0,0.0,0.0,0.0,0.0,-0.0243,0.9225,0.3101,0.4750,0.3877,-0.4747,-0.6315
122,0.0,0.0,0.0,0.0,0.0,0.0,0.0023,0.8898,0.2951,0.4747,0.3874,-0.4760,-0.6309
123,0.0,0.0,0.0,0.0,0.0,0.0,-0.0138,0.9660,0.3150,0.4747,0.3873,-0.4767,-0.6304
124,0.0,0.0,0.0,0.0,0.0,0.0,-0.0217,0.9617,0.3130,0.4746,0.3873,-0.4773,-0.6300
125,0.0,0.0,0.0,0.0,0.0,0.0,-0.0109,0.9723,0.3184,0.4748,0.3871,-0.4781,-0.6294
126,0.0,0.0,0.0,0.0,0.0,0.0,-0.0114,0.9665,0.3150,0.4753,0.3872,-0.4787,-0.6284
127,0.0,0.0,0.0,0.0,0.0,0.0,-0.0139,0.9529,0.3087,0.4761,0.3874,-0.4791,-0.6274
128,0.0,0.0,0.0,0.0,0.0,0.0,-0.0193,0.9511,0.3092,0.4768,0.3876,-0.4790,-0.6269
129,0.0,0.0,0.0,0.0,0.0,0.0,-0.0212,0.9661,0.3150,0.4774,0.3879,-0.4789,-0.6263
130,0.0,0.0,0.0,0.0,0.0,0.0,-0.0217,0.9632,0.3150,0.4779,0.3882,-0.4786,-0.6260
131,0.0,0.0,0.0,0.0,0.0,0.0,-0.0271,0.9598,0.3150,0.4785,0.3886,-0.4781,-0.6256
132,0.0,0.0,0.0,0.0,0.0,0.0,-0.0285,0.9555,0.3203,0.4790,0.3890,-0.4775,-0.6255
133,0.0,0.0,0.0,0.0,0.0,0.0,-0.0310,0.9501,0.3223,0.4793,0.3893,-0.4767,-0.6257
134,0.0,0.0,0.0,0.0,0.0,0.0,-0.0354,0.9449,0.3228,0.4796,0.3898,-0.4758,-0.6258
135,0.0,0.0,0.0,0.0,0.0,0.0,-0.0389,0.9396,0.3218,0.4798,0.3903,-0.4750,-0.6260
136,0.0,0.0,0.0,0.0,0.0,0.0,-0.0404,0.9367,0.3228,0.4800,0.3906,-0.4742,-0.6262
137,0.0,0.0,0.0,0.0,0.0,0.0,-0.0428,0.9391,0.3237,0.4800,0.3909,-0.4734,-0.6266
138,0.0,0.0,0.0,0.0,0.0,0.0,-0.0414,0.9362,0.3223,0.4799,0.3914,-0.4730,-0.6267
139,0.0,0.0,0.0,0.0,0.0,0.0,-0.0452,0.9440,0.3242,0.4798,0.3916,-0.4725,-0.6271
140,0.0,0.0,0.0,0.0,0.0,0.0,-0.0423,0.9430,0.3232,0.4796,0.3918,-0.4719,-0.6276
141,0.0,0.0,0.0,0.0,0.0,0.0,-0.0437,0.9469,0.3232,0.4792,0.3921,-0.4716,-0.6279
142,0.0,0.0,0.0,0.0,0.0,0.0,-0.0437,0.9493,0.3237,0.4792,0.3921,-0.4711,-0.6283
143,0.0,0.0,0.0,0.0,0.0,0.0,-0.0418,0.9502,0.3237,0.4792,0.3919,-0.4706,-0.6288
144,0.0,0.0,0.0,0.0,0.0,0.0,-0.0393,0.9517,0.3237,0.4792,0.3918,-0.4700,-0.6293
145,0.0,0.0,0.0,0.0,0.0,0.0,-0.0359,0.9526,0.3242,0.4793,0.3914,-0.4695,-0.6298
146,0.0,0.0,0.0,0.0,0.0,0.0,-0.0325,0.9487,0.3228,0.4795,0.3911,-0.4692,-0.6300
147,0.0,0.0,0.0,0.0,0.0,0.0,-0.0296,0.9419,0.3198,0.4798,0.3911,-0.4692,-0.6299
148,0.0,0.0,0.0,0.0,0.0,0.0,-0.0282,0.9303,0.3135,0.4800,0.3910,-0.4689,-0.6300
149,0.0,0.0,0.0,0.0,0.0,0.0,-0.0120,0.8701,0.2863,0.4802,0.3905,-0.4696,-0.6296
150,0.0,0.0,0.0,0.0,0.0,0.0,-0.0374,0.9503,0.3048,0.4802,0.3909,-0.4704,-0.6288
151,0.0,0.0,0.0,0.0,0.0,0.0,-0.0389,0.9450,0.2999,0.4797,0.3916,-0.4714,-0.6280
152,0.0,0.0,0.0,0.0,0.0,0.0,-0.0221,0.9632,0.3087,0.4796,0.3918,-0.4728,-0.6269
153,0.0,0.0,0.0,0.0,0.0,0.0,-0.0216,0.9796,0.3184,0.4796,0.3919,-0.4739,-0.6260
154,0.0,0.0,0.0,0.0,0.0,0.0,-0.0100,0.9611,0.3140,0.4799,0.3914,-0.4746,-0.6255
155,0.0,0.0,0.0,0.0,0.0,0.0,-0.0061,0.9514,0.3072,0.4805,0.3907,-0.4752,-0.6250
156,0.0,0.0,0.0,0.0,0.0,0.0,-0.0119,0.9655,0.3101,0.4810,0.3903,-0.4756,-0.6245
157,0.0,0.0,0.0,0.0,0.0,0.0,-0.0084,0.9708,0.3145,0.4816,0.3899,-0.4760,-0.6241
158,0.0,0.0,0.0,0.0,0.0,0.0,-0.0075,0.9708,0.3184,0.4823,0.3893,-0.4761,-0.6238
159,0.0,0.0,0.0,0.0,0.0,0.0,-0.0031,0.9659,0.3218,0.4834,0.3883,-0.4758,-0.6238
160,0.0,0.0,0.0,0.0,0.0,0.0,-0.0021,0.9620,0.3267,0.4844,0.3875,-0.4752,-0.6241
161,0.0,0.0,0.0,0.0,0.0,0.0,-0.0037,0.9538,0.3262,0.4853,0.3870,-0.4746,-0.6240
162,0.0,0.0,0.0,0.0,0.0,0.0,-0.0067,0.9407,0.3242,0.4864,0.3868,-0.4738,-0.6239
163,0.0,0.0,0.0,0.0,0.0,0.0,-0.0077,0.9291,0.3233,0.4873,0.3868,-0.4732,-0.6237
164,0.0,0.0,0.0,0.0,0.0,0.0,-0.0111,0.9291,0.3252,0.4883,0.3868,-0.4726,-0.6234
165,0.0,0.0,0.0,0.0,0.0,0.0,-0.0179,0.9403,0.3281,0.4894,0.3871,-0.4720,-0.6228
166,0.0,0.0,0.0,0.0,0.0,0.0,-0.0267,0.9404,0.3247,0.4902,0.3880,-0.4714,-0.6220
167,0.0,0.0,0.0,0.0,0.0,0.0,-0.0316,0.9317,0.3208,0.4909,0.3889,-0.4710,-0.6212
168,0.0,0.0,0.0,0.0,0.0,0.0,-0.0356,0.9236,0.3150,0.4915,0.3899,-0.4707,-0.6204
169,0.0,0.0,0.0,0.0,0.0,0.0,-0.0331,0.9274,0.3106,0.4917,0.3906,-0.4706,-0.6198
170,0.0,0.0,0.0,0.0,0.0,0.0,-0.0287,0.9361,0.3116,0.4918,0.3913,-0.4708,-0.6192
171,0.0,0.0,0.0,0.0,0.0,0.0,-0.0281,0.9458,0.3135,0.4918,0.3919,-0.4712,-0.6184
172,0.0,0.0,0.0,0.0,0.0,0.0,-0.0246,0.9535,0.3130,0.4918,0.3923,-0.4717,-0.6179
173,0.0,0.0,0.0,0.0,0.0,0.0,-0.0231,0.9612,0.3145,0.4917,0.3927,-0.4721,-0.6174
174,0.0,0.0,0.0,0.0,0.0,0.0,-0.0232,0.9569,0.3130,0.4916,0.3931,-0.4725,-0.6169
175,0.0,0.0,0.0,0.0,0.0,0.0,-0.0193,0.9486,0.3096,0.4914,0.3935,-0.4730,-0.6164
176,0.0,0.0,0.0,0.0,0.0,0.0,-0.0174,0.9481,0.3077,0.4911,0.3937,-0.4736,-0.6160
177,0.0,0.0,0.0,0.0,0.0,0.0,-0.0144,0.9505,0.3067,0.4910,0.3934,-0.4741,-0.6159
178,0.0,0.0,0.0,0.0,0.0,0.0,-0.0095,0.9534,0.3087,0.4910,0.3932,-0.4746,-0.6156
179,0.0,0.0,0.0,0.0,0.0,0.0,-0.0027,0.9548,0.3116,0.4909,0.3930,-0.4755,-0.6152
180,0.0,0.0,0.0,0.0,0.0,0.0,0.0012,0.9572,0.3131,0.4911,0.3926,-0.4762,-0.6147
181,0.0,0.0,0.0,0.0,0.0,0.0,0.0041,0.9494,0.3087,0.4912,0.3922,-0.4768,-0.6144
182,0.0,0.0,0.0,0.0,0.0,0.0,0.0046,0.9489,0.3077,0.4915,0.3917,-0.4772,-0.6142
183,0.0,0.0,0.0,0.0,0.0,0.0,0.0052,0.9605,0.3140,0.4920,0.3913,-0.4776,-0.6137
184,0.0,0.0,0.0,0.0,0.0,0.0,0.0047,0.9673,0.3174,0.4929,0.3914,-0.4779,-0.6128
185,0.0,0.0,0.0,0.0,0.0,0.0,0.0052,0.9707,0.3209,0.4938,0.3914,-0.4779,-0.6120
186,0.0,0.0,0.0,0.0,0.0,0.0,0.0076,0.9595,0.3170,0.4950,0.3910,-0.4773,-0.6117
187,0.0,0.0,0.0,0.0,0.0,0.0,-0.0036,0.9645,0.3140,0.4963,0.3908,-0.4765,-0.6115
188,0.0,0.0,0.0,0.0,0.0,0.0,-0.0070,0.9621,0.3131,0.4974,0.3908,-0.4756,-0.6112
189,0.0,0.0,0.0,0.0,0.0,0.0,-0.0095,0.9635,0.3145,0.4985,0.3910,-0.4746,-0.6111
190,0.0,0.0,0.0,0.0,0.0,0.0,-0.0086,0.9383,0.3131,0.4994,0.3909,-0.4736,-0.6111
191,0.0,0.0,0.0,0.0,0.0,0.0,0.0001,0.9334,0.3136,0.5003,0.3905,-0.4727,-0.6113
192,0.0,0.0,0.0,0.0,0.0,0.0,0.0030,0.9315,0.3150,0.5009,0.3902,-0.4723,-0.6113
193,0.0,0.0,0.0,0.0,0.0,0.0,0.0079,0.9309,0.3179,0.5012,0.3902,-0.4722,-0.6112
194,0.0,0.0,0.0,0.0,0.0,0.0,0.0094,0.9411,0.3213,0.5016,0.3901,-0.4720,-0.6111
195,0.0,0.0,0.0,0.0,0.0,0.0,0.0085,0.9406,0.3204,0.5020,0.3900,-0.4718,-0.6111
196,0.0,0.0,0.0,0.0,0.0,0.0,0.0094,0.9261,0.3131,0.5022,0.3899,-0.4715,-0.6112
197,0.0,0.0,0.0,0.0,0.0,0.0,0.0085,0.9435,0.3126,0.5022,0.3903,-0.4715,-0.6109
198,0.0,0.0,0.0,0.0,0.0,0.0,0.0051,0.9499,0.3121,0.5022,0.3907,-0.4716,-0.6105
199,0.0,0.0,0.0,0.0,0.0,0.0,0.0026,0.9417,0.3058,0.5023,0.3911,-0.4718,-0.6100
200,0.0,0.0,0.0,0.0,0.0,0.0,0.0002,0.9533,0.3058,0.5022,0.3918,-0.4722,-0.6093
201,0.0,0.0,0.0,0.0,0.0,0.0,0.0012,0.9567,0.3063,0.5020,0.3922,-0.4726,-0.6090
202,0.0,0.0,0.0,0.0,0.0,0.0,0.0042,0.9572,0.3048,0.5019,0.3924,-0.4730,-0.6086
203,0.0,0.0,0.0,0.0,0.0,0.0,0.0027,0.9591,0.3048,0.5017,0.3928,-0.4733,-0.6083
204,0.0,0.0,0.0,0.0,0.0,0.0,0.0032,0.9596,0.3072,0.5015,0.3929,-0.4734,-0.6083
205,0.0,0.0,0.0,0.0,0.0,0.0,0.0028,0.9644,0.3106,0.5013,0.3932,-0.4734,-0.6083
206,0.0,0.0,0.0,0.0,0.0,0.0,0.0042,0.9605,0.3116,0.5010,0.3933,-0.4733,-0.6085
207,0.0,0.0,0.0,0.0,0.0,0.0,0.0008,0.9639,0.3170,0.5007,0.3932,-0.4729,-0.6091
208,0.0,0.0,0.0,0.0,0.0,0.0,-0.0011,0.9731,0.3208,0.5006,0.3936,-0.4723,-0.6095
209,0.0,0.0,0.0,0.0,0.0,0.0,-0.0036,0.9567,0.3160,0.5006,0.3938,-0.4714,-0.6100
210,0.0,0.0,0.0,0.0,0.0,0.0,-0.0066,0.9466,0.3126,0.5005,0.3940,-0.4705,-0.6106
211,0.0,0.0,0.0,0.0,0.0,0.0,-0.0096,0.9384,0.3101,0.5004,0.3943,-0.4698,-0.6110
212,0.0,0.0,0.0,0.0,0.0,0.0,-0.0121,0.9340,0.3077,0.5002,0.3946,-0.4694,-0.6115
213,0.0,0.0,0.0,0.0,0.0,0.0,-0.0155,0.9384,0.3072,0.4998,0.3948,-0.4689,-0.6120
214,0.0,0.0,0.0,0.0,0.0,0.0,-0.0189,0.9370,0.3087,0.4993,0.3953,-0.4689,-0.6121
215,0.0,0.0,0.0,0.0,0.0,0.0,-0.0121,0.9306,0.3087,0.4986,0.3955,-0.4693,-0.6121
216,0.0,0.0,0.0,0.0,0.0,0.0,-0.0047,0.9388,0.3101,0.4981,0.3952,-0.4697,-0.6124
217,0.0,0.0,0.0,0.0,0.0,0.0,-0.0061,0.9480,0.3111,0.4976,0.3951,-0.4703,-0.6125
218,0.0,0.0,0.0,0.0,0.0,0.0,-0.0052,0.9441,0.3087,0.4971,0.3950,-0.4708,-0.6126
219,0.0,0.0,0.0,0.0,0.0,0.0,-0.0032,0.9504,0.3067,0.4964,0.3949,-0.4714,-0.6127
220,0.0,0.0,0.0,0.0,0.0,0.0,-0.0022,0.9562,0.3048,0.4958,0.3948,-0.4722,-0.6126
221,0.0,0.0,0.0,0.0,0.0,0.0,-0.0051,0.9616,0.3033,0.4950,0.3946,-0.4728,-0.6129
222,0.0,0.0,0.0,0.0,0.0,0.0,-0.0056,0.9631,0.3058,0.4942,0.3944,-0.4732,-0.6134
223,0.0,0.0,0.0,0.0,0.0,0.0,-0.0021,0.9625,0.3053,0.4933,0.3944,-0.4738,-0.6137
224,0.0,0.0,0.0,0.0,0.0,0.0,-0.0031,0.9611,0.3063,0.4925,0.3943,-0.4743,-0.6140
225,0.0,0.0,0.0,0.0,0.0,0.0,-0.0075,0.9640,0.3097,0.4916,0.3941,-0.4748,-0.6145
226,0.0,0.0,0.0,0.0,0.0,0.0,-0.0085,0.9602,0.3067,0.4908,0.3940,-0.4752,-0.6148
227,0.0,0.0,0.0,0.0,0.0,0.0,-0.0042,0.9461,0.3033,0.4901,0.3936,-0.4757,-0.6152
228,0.0,0.0,0.0,0.0,0.0,0.0,-0.0022,0.9475,0.3038,0.4896,0.3933,-0.4764,-0.6154
229,0.0,0.0,0.0,0.0,0.0,0.0,0.0002,0.9460,0.3053,0.4891,0.3927,-0.4770,-0.6157
230,0.0,0.0,0.0,0.0,0.0,0.0,0.0046,0.9450,0.3043,0.4886,0.3921,-0.4777,-0.6159
231,0.0,0.0,0.0,0.0,0.0,0.0,0.0046,0.9479,0.3053,0.4883,0.3915,-0.4783,-0.6161
232,0.0,0.0,0.0,0.0,0.0,0.0,0.0105,0.9464,0.3048,0.4881,0.3904,-0.4787,-0.6165
233,0.0,0.0,0.0,0.0,0.0,0.0,0.0100,0.9484,0.3053,0.4881,0.3895,-0.4792,-0.6168
234,0.0,0.0,0.0,0.0,0.0,0.0,0.0115,0.9508,0.3077,0.4881,0.3888,-0.4799,-0.6167
235,0.0,0.0,0.0,0.0,0.0,0.0,0.0129,0.9522,0.3106,0.4883,0.3880,-0.4804,-0.6166
236,0.0,0.0,0.0,0.0,0.0,0.0,0.0134,0.9541,0.3116,0.4887,0.3871,-0.4806,-0.6168
237,0.0,0.0,0.0,0.0,0.0,0.0,0.0120,0.9532,0.3136,0.4892,0.3862,-0.4806,-0.6169
238,0.0,0.0,0.0,0.0,0.0,0.0,0.0120,0.9527,0.3145,0.4896,0.3855,-0.4806,-0.6170
239,0.0,0.0,0.0,0.0,0.0,0.0,0.0105,0.9503,0.3170,0.4900,0.3850,-0.4804,-0.6171
240,0.0,0.0,0.0,0.0,0.0,0.0,0.0105,0.9459,0.3170,0.4903,0.3847,-0.4802,-0.6173
241,0.0,0.0,0.0,0.0,0.0,0.0,0.0100,0.9454,0.3150,0.4907,0.3845,-0.4799,-0.6173
242,0.0,0.0,0.0,0.0,0.0,0.0,0.0080,0.9406,0.3111,0.4908,0.3848,-0.4800,-0.6169
243,0.0,0.0,0.0,0.0,0.0,0.0,0.0078,0.9159,0.3024,0.4911,0.3851,-0.4802,-0.6163
244,0.0,0.0,0.0,0.0,0.0,0.0,0.0133,0.9246,0.3068,0.4914,0.3853,-0.4802,-0.6160
245,0.0,0.0,0.0,0.0,0.0,0.0,0.0067,0.9678,0.3179,0.4919,0.3863,-0.4803,-0.6149
246,0.0,0.0,0.0,0.0,0.0,0.0,0.0081,0.9532,0.3082,0.4924,0.3873,-0.4803,-0.6138
247,0.0,0.0,0.0,0.0,0.0,0.0,0.0090,0.9533,0.2985,0.4929,0.3880,-0.4800,-0.6133
248,0.0,0.0,0.0,0.0,0.0,0.0,0.0038,0.9688,0.2994,0.4933,0.3891,-0.4798,-0.6125
249,0.0,0.0,0.0,0.0,0.0,0.0,-0.0011,0.9684,0.2970,0.4936,0.3904,-0.4796,-0.6115
250,0.0,0.0,0.0,0.0,0.0,0.0,-0.0027,0.9505,0.2892,0.4940,0.3915,-0.4793,-0.6107
251,0.0,0.0,0.0,0.0,0.0,0.0,0.0012,0.9495,0.2873,0.4941,0.3922,-0.4793,-0.6102
252,0.0,0.0,0.0,0.0,0.0,0.0,-0.0045,0.9699,0.2946,0.4945,0.3930,-0.4794,-0.6093
253,0.0,0.0,0.0,0.0,0.0,0.0,-0.0070,0.9607,0.2878,0.4948,0.3938,-0.4793,-0.6085
254,0.0,0.0,0.0,0.0,0.0,0.0,-0.0096,0.9409,0.2761,0.4949,0.3946,-0.4796,-0.6078
255,0.0,0.0,0.0,0.0,0.0,0.0,-0.0193,0.9570,0.2809,0.4946,0.3948,-0.4800,-0.6075
256,0.0,0.0,0.0,0.0,0.0,0.0,-0.0241,0.9686,0.2873,0.4942,0.3943,-0.4805,-0.6078
257,0.0,0.0,0.0,0.0,0.0,0.0,-0.0123,0.9704,0.2916,0.4941,0.3930,-0.4808,-0.6085
258,0.0,0.0,0.0,0.0,0.0,0.0,-0.0027,0.9515,0.2887,0.4941,0.3916,-0.4808,-0.6094
259,0.0,0.0,0.0,0.0,0.0,0.0,0.0095,0.9489,0.2917,0.4942,0.3900,-0.4810,-0.6101
260,0.0,0.0,0.0,0.0,0.0,0.0,0.0144,0.9484,0.2951,0.4943,0.3886,-0.4814,-0.6107
261,0.0,0.0,0.0,0.0,0.0,0.0,0.0242,0.9565,0.3004,0.4943,0.3876,-0.4822,-0.6107
262,0.0,0.0,0.0,0.0,0.0,0.0,0.0234,0.9890,0.3121,0.4943,0.3871,-0.4828,-0.6105
263,0.0,0.0,0.0,0.0,0.0,0.0,0.0185,0.9769,0.3029,0.4942,0.3870,-0.4830,-0.6105
264,0.0,0.0,0.0,0.0,0.0,0.0,0.0232,0.9483,0.2931,0.4941,0.3866,-0.4833,-0.6106
265,0.0,0.0,0.0,0.0,0.0,0.0,0.0230,0.9193,0.2815,0.4940,0.3863,-0.4837,-0.6105
266,0.0,0.0,0.0,0.0,0.0,0.0,0.0305,0.9458,0.2951,0.4940,0.3863,-0.4844,-0.6100
267,0.0,0.0,0.0,0.0,0.0,0.0,0.0230,1.0001,0.3092,0.4941,0.3870,-0.4851,-0.6089
268,0.0,0.0,0.0,0.0,0.0,0.0,0.0281,0.9633,0.3000,0.4945,0.3876,-0.4855,-0.6079
269,0.0,0.0,0.0,0.0,0.0,0.0,0.0184,0.9696,0.3058,0.4948,0.3884,-0.4855,-0.6072
270,0.0,0.0,0.0,0.0,0.0,0.0,0.0135,0.9692,0.3092,0.4951,0.3891,-0.4852,-0.6066
271,0.0,0.0,0.0,0.0,0.0,0.0,0.0081,0.9562,0.3063,0.4954,0.3895,-0.4847,-0.6066
272,0.0,0.0,0.0,0.0,0.0,0.0,0.0109,0.9329,0.2970,0.4955,0.3897,-0.4845,-0.6065
273,0.0,0.0,0.0,0.0,0.0,0.0,0.0167,0.9256,0.2975,0.4955,0.3895,-0.4844,-0.6067
274,0.0,0.0,0.0,0.0,0.0,0.0,0.0197,0.9410,0.3048,0.4956,0.3895,-0.4846,-0.6066
275,0.0,0.0,0.0,0.0,0.0,0.0,0.0227,0.9555,0.3107,0.4957,0.3891,-0.4847,-0.6065
276,0.0,0.0,0.0,0.0,0.0,0.0,0.0227,0.9570,0.3111,0.4960,0.3887,-0.4847,-0.6067
277,0.0,0.0,0.0,0.0,0.0,0.0,0.0232,0.9589,0.3092,0.4961,0.3886,-0.4848,-0.6066
278,0.0,0.0,0.0,0.0,0.0,0.0,0.0197,0.9439,0.3029,0.4962,0.3886,-0.4848,-0.6064
279,0.0,0.0,0.0,0.0,0.0,0.0,0.0163,0.9440,0.3019,0.4964,0.3885,-0.4846,-0.6065
280,0.0,0.0,0.0,0.0,0.0,0.0,0.0129,0.9498,0.2999,0.4963,0.3886,-0.4846,-0.6065
281,0.0,0.0,0.0,0.0,0.0,0.0,0.0163,0.9517,0.2985,0.4962,0.3888,-0.4848,-0.6063
282,0.0,0.0,0.0,0.0,0.0,0.0,0.0169,0.9576,0.2975,0.4960,0.3890,-0.4850,-0.6062
283,0.0,0.0,0.0,0.0,0.0,0.0,0.0120,0.9634,0.2980,0.4957,0.3894,-0.4850,-0.6062
284,0.0,0.0,0.0,0.0,0.0,0.0,0.0145,0.9629,0.2951,0.4954,0.3898,-0.4849,-0.6062
285,0.0,0.0,0.0,0.0,0.0,0.0,0.0130,0.9653,0.2956,0.4952,0.3901,-0.4848,-0.6062
286,0.0,0.0,0.0,0.0,0.0,0.0,0.0159,0.9624,0.2970,0.4949,0.3903,-0.4848,-0.6064
287,0.0,0.0,0.0,0.0,0.0,0.0,0.0140,0.9600,0.2975,0.4946,0.3906,-0.4847,-0.6066
288,0.0,0.0,0.0,0.0,0.0,0.0,0.0130,0.9557,0.2970,0.4945,0.3907,-0.4844,-0.6068
289,0.0,0.0,0.0,0.0,0.0,0.0,0.0110,0.9615,0.2999,0.4945,0.3909,-0.4840,-0.6070
290,0.0,0.0,0.0,0.0,0.0,0.0,0.0086,0.9566,0.3009,0.4944,0.3912,-0.4836,-0.6072
291,0.0,0.0,0.0,0.0,0.0,0.0,0.0080,0.9455,0.2985,0.4944,0.3912,-0.4830,-0.6076
292,0.0,0.0,0.0,0.0,0.0,0.0,0.0085,0.9460,0.3019,0.4943,0.3913,-0.4827,-0.6079
293,0.0,0.0,0.0,0.0,0.0,0.0,0.0085,0.9484,0.3058,0.4943,0.3914,-0.4824,-0.6081
294,0.0,0.0,0.0,0.0,0.0,0.0,0.0085,0.9426,0.3048,0.4943,0.3913,-0.4822,-0.6083
295,0.0,0.0,0.0,0.0,0.0,0.0,0.0085,0.9440,0.3072,0.4943,0.3914,-0.4819,-0.6085
296,0.0,0.0,0.0,0.0,0.0,0.0,0.0075,0.9445,0.3077,0.4944,0.3913,-0.4818,-0.6085
297,0.0,0.0,0.0,0.0,0.0,0.0,0.0085,0.9421,0.3077,0.4947,0.3912,-0.4818,-0.6084
298,0.0,0.0,0.0,0.0,0.0,0.0,0.0080,0.9455,0.3068,0.4949,0.3910,-0.4817,-0.6084
299,0.0,0.0,0.0,0.0,0.0,0.0,0.0080,0.9498,0.3068,0.4950,0.3912,-0.4818,-0.6082
300,0.0,0.0,0.0,0.0,0.0,0.0,0.0081,0.9542,0.3063,0.4950,0.3913,-0.4818,-0.6080
301,0.0,0.0,0.0,0.0,0.0,0.0,0.0095,0.9537,0.3053,0.4951,0.3910,-0.4819,-0.6081
302,0.0,0.0,0.0,0.0,0.0,0.0,0.0125,0.9590,0.3053,0.4953,0.3908,-0.4820,-0.6080
303,0.0,0.0,0.0,0.0,0.0,0.0,0.0145,0.9614,0.3048,0.4955,0.3906,-0.4820,-0.6080
304,0.0,0.0,0.0,0.0,0.0,0.0,0.0140,0.9745,0.3092,0.4956,0.3904,-0.4819,-0.6080
305,0.0,0.0,0.0,0.0,0.0,0.0,0.0199,0.9730,0.3121,0.4959,0.3899,-0.4817,-0.6083
306,0.0,0.0,0.0,0.0,0.0,0.0,0.0213,0.9638,0.3121,0.4965,0.3894,-0.4814,-0.6084
307,0.0,0.0,0.0,0.0,0.0,0.0,0.0213,0.9570,0.3121,0.4972,0.3889,-0.4808,-0.6086
308,0.0,0.0,0.0,0.0,0.0,0.0,0.0227,0.9521,0.3150,0.4981,0.3884,-0.4799,-0.6089
309,0.0,0.0,0.0,0.0,0.0,0.0,0.0173,0.9522,0.3189,0.4987,0.3883,-0.4789,-0.6092
310,0.0,0.0,0.0,0.0,0.0,0.0,0.0178,0.9458,0.3209,0.4995,0.3883,-0.4778,-0.6095
311,0.0,0.0,0.0,0.0,0.0,0.0,0.0084,0.9329,0.3170,0.5002,0.3887,-0.4767,-0.6095
312,0.0,0.0,0.0,0.0,0.0,0.0,-0.0033,0.9286,0.3160,0.5008,0.3895,-0.4756,-0.6093
313,0.0,0.0,0.0,0.0,0.0,0.0,-0.0140,0.9306,0.3169,0.5012,0.3902,-0.4745,-0.6094
314,0.0,0.0,0.0,0.0,0.0,0.0,-0.0165,0.9350,0.3199,0.5014,0.3911,-0.4739,-0.6091
315,0.0,0.0,0.0,0.0,0.0,0.0,-0.0170,0.9345,0.3203,0.5014,0.3921,-0.4737,-0.6087
316,0.0,0.0,0.0,0.0,0.0,0.0,-0.0150,0.9369,0.3199,0.5015,0.3925,-0.4733,-0.6086
317,0.0,0.0,0.0,0.0,0.0,0.0,-0.0125,0.9374,0.3208,0.5013,0.3927,-0.4733,-0.6087
318,0.0,0.0,0.0,0.0,0.0,0.0,-0.0081,0.9417,0.3218,0.5010,0.3932,-0.4736,-0.6084
319,0.0,0.0,0.0,0.0,0.0,0.0,-0.0047,0.9373,0.3223,0.5007,0.3934,-0.4739,-0.6082
320,0.0,0.0,0.0,0.0,0.0,0.0,-0.0023,0.9383,0.3208,0.5005,0.3934,-0.4742,-0.6082
321,0.0,0.0,0.0,0.0,0.0,0.0,-0.0038,0.9373,0.3199,0.5004,0.3936,-0.4746,-0.6078
322,0.0,0.0,0.0,0.0,0.0,0.0,-0.0067,0.9398,0.3179,0.5002,0.3938,-0.4750,-0.6075
323,0.0,0.0,0.0,0.0,0.0,0.0,-0.0051,0.9654,0.3199,0.4999,0.3940,-0.4754,-0.6073
324,0.0,0.0,0.0,0.0,0.0,0.0,-0.0037,0.9446,0.3155,0.4997,0.3943,-0.4757,-0.6071
325,0.0,0.0,0.0,0.0,0.0,0.0,0.0012,0.9484,0.3155,0.4995,0.3945,-0.4762,-0.6068
326,0.0,0.0,0.0,0.0,0.0,0.0,0.0027,0.9591,0.3121,0.4992,0.3946,-0.4767,-0.6066
327,0.0,0.0,0.0,0.0,0.0,0.0,0.0056,0.9494,0.3087,0.4989,0.3948,-0.4771,-0.6063
328,0.0,0.0,0.0,0.0,0.0,0.0,0.0114,0.9469,0.3053,0.4988,0.3948,-0.4776,-0.6060
329,0.0,0.0,0.0,0.0,0.0,0.0,0.0084,0.9334,0.3033,0.4987,0.3948,-0.4780,-0.6058
330,0.0,0.0,0.0,0.0,0.0,0.0,0.0121,0.9827,0.3184,0.4986,0.3949,-0.4783,-0.6055
331,0.0,0.0,0.0,0.0,0.0,0.0,0.0097,0.9813,0.3175,0.4987,0.3952,-0.4782,-0.6054
332,0.0,0.0,0.0,0.0,0.0,0.0,0.0128,0.9300,0.3029,0.4991,0.3952,-0.4780,-0.6052
333,0.0,0.0,0.0,0.0,0.0,0.0,0.0081,0.9552,0.3097,0.4995,0.3954,-0.4776,-0.6050
334,0.0,0.0,0.0,0.0,0.0,0.0,-0.0022,0.9557,0.3116,0.4998,0.3957,-0.4771,-0.6050
335,0.0,0.0,0.0,0.0,0.0,0.0,-0.0080,0.9592,0.3106,0.4999,0.3959,-0.4765,-0.6052
336,0.0,0.0,0.0,0.0,0.0,0.0,-0.0105,0.9495,0.3058,0.5000,0.3962,-0.4759,-0.6054
337,0.0,0.0,0.0,0.0,0.0,0.0,-0.0134,0.9568,0.3087,0.5000,0.3968,-0.4756,-0.6053
338,0.0,0.0,0.0,0.0,0.0,0.0,-0.0163,0.9559,0.3106,0.5000,0.3973,-0.4753,-0.6052
339,0.0,0.0,0.0,0.0,0.0,0.0,-0.0173,0.9539,0.3092,0.5000,0.3977,-0.4748,-0.6053
340,0.0,0.0,0.0,0.0,0.0,0.0,-0.0169,0.9428,0.3058,0.5001,0.3979,-0.4742,-0.6055
341,0.0,0.0,0.0,0.0,0.0,0.0,-0.0096,0.9330,0.3077,0.5002,0.3978,-0.4739,-0.6058
342,0.0,0.0,0.0,0.0,0.0,0.0,-0.0123,0.9694,0.3155,0.5000,0.3979,-0.4736,-0.6061
343,0.0,0.0,0.0,0.0,0.0,0.0,-0.0041,0.9533,0.3160,0.4999,0.3979,-0.4735,-0.6063
344,0.0,0.0,0.0,0.0,0.0,0.0,0.0002,0.9441,0.3077,0.4998,0.3976,-0.4734,-0.6066
345,0.0,0.0,0.0,0.0,0.0,0.0,0.0032,0.9538,0.3102,0.4998,0.3974,-0.4734,-0.6067
346,0.0,0.0,0.0,0.0,0.0,0.0,0.0046,0.9542,0.3111,0.4999,0.3972,-0.4734,-0.6068
347,0.0,0.0,0.0,0.0,0.0,0.0,-0.0046,0.9524,0.3106,0.4998,0.3971,-0.4732,-0.6071
348,0.0,0.0,0.0,0.0,0.0,0.0,-0.0120,0.9500,0.3072,0.4996,0.3970,-0.4728,-0.6077
349,0.0,0.0,0.0,0.0,0.0,0.0,-0.0095,0.9495,0.3062,0.4994,0.3966,-0.4725,-0.6083
350,0.0,0.0,0.0,0.0,0.0,0.0,-0.0071,0.9456,0.3058,0.4992,0.3963,-0.4724,-0.6088
351,0.0,0.0,0.0,0.0,0.0,0.0,-0.0037,0.9403,0.3058,0.4988,0.3961,-0.4726,-0.6090
352,0.0,0.0,0.0,0.0,0.0,0.0,0.0002,0.9412,0.3087,0.4985,0.3957,-0.4728,-0.6094
353,0.0,0.0,0.0,0.0,0.0,0.0,0.0046,0.9450,0.3111,0.4984,0.3951,-0.4732,-0.6096
354,0.0,0.0,0.0,0.0,0.0,0.0,0.0056,0.9499,0.3121,0.4983,0.3947,-0.4736,-0.6096
355,0.0,0.0,0.0,0.0,0.0,0.0,0.0032,0.9538,0.3111,0.4983,0.3945,-0.4739,-0.6095
356,0.0,0.0,0.0,0.0,0.0,0.0,0.0071,0.9489,0.3092,0.4984,0.3941,-0.4741,-0.6095
357,0.0,0.0,0.0,0.0,0.0,0.0,0.0066,0.9503,0.3097,0.4985,0.3937,-0.4743,-0.6096
358,0.0,0.0,0.0,0.0,0.0,0.0,0.0056,0.9537,0.3140,0.4987,0.3934,-0.4744,-0.6095
359,0.0,0.0,0.0,0.0,0.0,0.0,0.0051,0.9542,0.3165,0.4989,0.3931,-0.4743,-0.6095
360,0.0,0.0,0.0,0.0,0.0,0.0,0.0032,0.9639,0.3189,0.4990,0.3933,-0.4745,-0.6093
361,0.0,0.0,0.0,0.0,0.0,0.0,0.0007,0.9489,0.3140,0.4991,0.3936,-0.4745,-0.6089
362,0.0,0.0,0.0,0.0,0.0,0.0,0.0036,0.9368,0.3121,0.4994,0.3935,-0.4743,-0.6089
363,0.0,0.0,0.0,0.0,0.0,0.0,0.0012,0.9441,0.3160,0.4997,0.3933,-0.4742,-0.6088
364,0.0,0.0,0.0,0.0,0.0,0.0,-0.0036,0.9678,0.3204,0.4998,0.3932,-0.4740,-0.6090
365,0.0,0.0,0.0,0.0,0.0,0.0,-0.0021,0.9644,0.3204,0.4998,0.3933,-0.4740,-0.6090
366,0.0,0.0,0.0,0.0,0.0,0.0,-0.0021,0.9640,0.3199,0.4998,0.3934,-0.4738,-0.6091
367,0.0,0.0,0.0,0.0,0.0,0.0,-0.0046,0.9591,0.3174,0.4998,0.3935,-0.4734,-0.6093
368,0.0,0.0,0.0,0.0,0.0,0.0,0.0002,0.9470,0.3140,0.4997,0.3936,-0.4731,-0.6096
369,0.0,0.0,0.0,0.0,0.0,0.0,0.0041,0.9363,0.3111,0.4995,0.3935,-0.4728,-0.6100
370,0.0,0.0,0.0,0.0,0.0,0.0,0.0021,0.9320,0.3106,0.4993,0.3933,-0.4726,-0.6105
371,0.0,0.0,0.0,0.0,0.0,0.0,0.0080,0.9392,0.3106,0.4990,0.3931,-0.4726,-0.6109
372,0.0,0.0,0.0,0.0,0.0,0.0,0.0075,0.9421,0.3131,0.4989,0.3928,-0.4728,-0.6109
373,0.0,0.0,0.0,0.0,0.0,0.0,0.0105,0.9474,0.3160,0.4991,0.3925,-0.4731,-0.6108
374,0.0,0.0,0.0,0.0,0.0,0.0,0.0139,0.9493,0.3179,0.4992,0.3921,-0.4733,-0.6108
375,0.0,0.0,0.0,0.0,0.0,0.0,0.0095,0.9537,0.3175,0.4992,0.3922,-0.4736,-0.6104
376,0.0,0.0,0.0,0.0,0.0,0.0,0.0065,0.9421,0.3121,0.4993,0.3927,-0.4740,-0.6097
377,0.0,0.0,0.0,0.0,0.0,0.0,0.0060,0.9329,0.3092,0.4995,0.3930,-0.4743,-0.6091
378,0.0,0.0,0.0,0.0,0.0,0.0,0.0040,0.9320,0.3082,0.4998,0.3931,-0.4744,-0.6088
379,0.0,0.0,0.0,0.0,0.0,0.0,0.0031,0.9363,0.3092,0.5002,0.3930,-0.4746,-0.6083
380,0.0,0.0,0.0,0.0,0.0,0.0,0.0021,0.9446,0.3116,0.5005,0.3932,-0.4750,-0.6077
381,0.0,0.0,0.0,0.0,0.0,0.0,0.0012,0.9518,0.3140,0.5008,0.3935,-0.4754,-0.6068
382,0.0,0.0,0.0,0.0,0.0,0.0,0.0051,0.9494,0.3106,0.5011,0.3937,-0.4758,-0.6062
383,0.0,0.0,0.0,0.0,0.0,0.0,0.0071,0.9542,0.3072,0.5014,0.3936,-0.4759,-0.6060
384,0.0,0.0,0.0,0.0,0.0,0.0,0.0081,0.9561,0.3077,0.5016,0.3937,-0.4761,-0.6056
385,0.0,0.0,0.0,0.0,0.0,0.0,0.0125,0.9643,0.3092,0.5017,0.3941,-0.4766,-0.6048
386,0.0,0.0,0.0,0.0,0.0,0.0,0.0116,0.9658,0.3077,0.5017,0.3946,-0.4769,-0.6043
387,0.0,0.0,0.0,0.0,0.0,0.0,0.0155,0.9691,0.3136,0.5017,0.3947,-0.4770,-0.6042
388,0.0,0.0,0.0,0.0,0.0,0.0,0.0160,0.9692,0.3111,0.5019,0.3947,-0.4767,-0.6042
389,0.0,0.0,0.0,0.0,0.0,0.0,0.0153,0.9387,0.3024,0.5021,0.3949,-0.4764,-0.6041
390,0.0,0.0,0.0,0.0,0.0,0.0,0.0206,0.9362,0.3038,0.5023,0.3950,-0.4762,-0.6040
391,0.0,0.0,0.0,0.0,0.0,0.0,0.0124,0.9435,0.3082,0.5027,0.3952,-0.4758,-0.6040
392,0.0,0.0,0.0,0.0,0.0,0.0,0.0061,0.9450,0.3102,0.5029,0.3957,-0.4754,-0.6037
393,0.0,0.0,0.0,0.0,0.0,0.0,0.0021,0.9446,0.3082,0.5030,0.3963,-0.4752,-0.6034
394,0.0,0.0,0.0,0.0,0.0,0.0,-0.0018,0.9393,0.3053,0.5028,0.3971,-0.4753,-0.6030
395,0.0,0.0,0.0,0.0,0.0,0.0,-0.0041,0.9534,0.3063,0.5025,0.3979,-0.4754,-0.6026
396,0.0,0.0,0.0,0.0,0.0,0.0,-0.0056,0.9534,0.3028,0.5025,0.3985,-0.4753,-0.6023
397,0.0,0.0,0.0,0.0,0.0,0.0,-0.0076,0.9471,0.2985,0.5023,0.3993,-0.4754,-0.6018
398,0.0,0.0,0.0,0.0,0.0,0.0,0.0012,0.9504,0.2970,0.5020,0.4000,-0.4758,-0.6014
399,0.0,0.0,0.0,0.0,0.0,0.0,0.0066,0.9528,0.2999,0.5020,0.4001,-0.4760,-0.6011
400,0.0,0.0,0.0,0.0,0.0,0.0,0.0052,0.9610,0.3024,0.5019,0.4007,-0.4767,-0.6003
401,0.0,0.0,0.0,0.0,0.0,0.0,0.0081,0.9659,0.2995,0.5019,0.4015,-0.4772,-0.5993
402,0.0,0.0,0.0,0.0,0.0,0.0,0.0037,0.9640,0.2951,0.5021,0.4018,-0.4771,-0.5990
403,0.0,0.0,0.0,0.0,0.0,0.0,-0.0036,0.9631,0.2951,0.5020,0.4017,-0.4769,-0.5993
404,0.0,0.0,0.0,0.0,0.0,0.0,-0.0002,0.9534,0.2912,0.5020,0.4016,-0.4769,-0.5994
405,0.0,0.0,0.0,0.0,0.0,0.0,0.0021,0.9369,0.2824,0.5019,0.4019,-0.4774,-0.5989
406,0.0,0.0,0.0,0.0,0.0,0.0,0.0094,0.9359,0.2800,0.5018,0.4023,-0.4780,-0.5982
407,0.0,0.0,0.0,0.0,0.0,0.0,0.0125,0.9620,0.2839,0.5019,0.4024,-0.4786,-0.5976
408,0.0,0.0,0.0,0.0,0.0,0.0,0.0028,0.9751,0.2897,0.5019,0.4032,-0.4793,-0.5965
409,0.0,0.0,0.0,0.0,0.0,0.0,0.0028,0.9718,0.2907,0.5020,0.4038,-0.4794,-0.5959
410,0.0,0.0,0.0,0.0,0.0,0.0,0.0043,0.9727,0.2921,0.5023,0.4040,-0.4793,-0.5956
411,0.0,0.0,0.0,0.0,0.0,0.0,0.0004,0.9713,0.2921,0.5023,0.4045,-0.4793,-0.5952
412,0.0,0.0,0.0,0.0,0.0,0.0,-0.0041,0.9660,0.2921,0.5024,0.4048,-0.4790,-0.5952
413,0.0,0.0,0.0,0.0,0.0,0.0,-0.0012,0.9602,0.2868,0.5022,0.4051,-0.4789,-0.5952
414,0.0,0.0,0.0,0.0,0.0,0.0,-0.0007,0.9524,0.2824,0.5020,0.4055,-0.4788,-0.5952
415,0.0,0.0,0.0,0.0,0.0,0.0,-0.0007,0.9529,0.2844,0.5019,0.4056,-0.4789,-0.5952
416,0.0,0.0,0.0,0.0,0.0,0.0,0.0036,0.9504,0.2824,0.5020,0.4055,-0.4789,-0.5952
417,0.0,0.0,0.0,0.0,0.0,0.0,0.0022,0.9553,0.2853,0.5018,0.4055,-0.4789,-0.5953
418,0.0,0.0,0.0,0.0,0.0,0.0,-0.0055,0.9704,0.2921,0.5017,0.4056,-0.4790,-0.5952
419,0.0,0.0,0.0,0.0,0.0,0.0,-0.0045,0.9689,0.2902,0.5015,0.4058,-0.4792,-0.5951
420,0.0,0.0,0.0,0.0,0.0,0.0,-0.0032,0.9529,0.2839,0.5013,0.4059,-0.4793,-0.5952
421,0.0,0.0,0.0,0.0,0.0,0.0,0.0002,0.9529,0.2824,0.5011,0.4059,-0.4795,-0.5952
422,0.0,0.0,0.0,0.0,0.0,0.0,0.0027,0.9577,0.2849,0.5008,0.4059,-0.4797,-0.5953
423,0.0,0.0,0.0,0.0,0.0,0.0,0.0056,0.9562,0.2868,0.5005,0.4056,-0.4800,-0.5955
424,0.0,0.0,0.0,0.0,0.0,0.0,0.0071,0.9591,0.2883,0.5002,0.4051,-0.4801,-0.5959
425,0.0,0.0,0.0,0.0,0.0,0.0,0.0057,0.9596,0.2887,0.5000,0.4048,-0.4801,-0.5963
426,0.0,0.0,0.0,0.0,0.0,0.0,0.0125,0.9571,0.2902,0.5000,0.4043,-0.4803,-0.5965
427,0.0,0.0,0.0,0.0,0.0,0.0,0.0164,0.9619,0.2922,0.5002,0.4034,-0.4803,-0.5970
428,0.0,0.0,0.0,0.0,0.0,0.0,0.0178,0.9464,0.2858,0.5004,0.4025,-0.4803,-0.5974
429,0.0,0.0,0.0,0.0,0.0,0.0,0.0164,0.9542,0.2922,0.5005,0.4020,-0.4805,-0.5975
430,0.0,0.0,0.0,0.0,0.0,0.0,0.0169,0.9551,0.2917,0.5005,0.4019,-0.4810,-0.5972
431,0.0,0.0,0.0,0.0,0.0,0.0,0.0143,0.9440,0.2883,0.5004,0.4018,-0.4812,-0.5971
432,0.0,0.0,0.0,0.0,0.0,0.0,0.0193,0.9522,0.2912,0.5004,0.4015,-0.4814,-0.5972
433,0.0,0.0,0.0,0.0,0.0,0.0,0.0179,0.9609,0.2941,0.5006,0.4012,-0.4814,-0.5972
434,0.0,0.0,0.0,0.0,0.0,0.0,0.0169,0.9614,0.2956,0.5008,0.4011,-0.4814,-0.5972
435,0.0,0.0,0.0,0.0,0.0,0.0,0.0140,0.9649,0.2965,0.5007,0.4012,-0.4813,-0.5973
436,0.0,0.0,0.0,0.0,0.0,0.0,0.0135,0.9576,0.2926,0.5008,0.4015,-0.4811,-0.5971
437,0.0,0.0,0.0,0.0,0.0,0.0,0.0110,0.9542,0.2878,0.5010,0.4020,-0.4812,-0.5966
438,0.0,0.0,0.0,0.0,0.0,0.0,0.0095,0.9538,0.2888,0.5011,0.4025,-0.4811,-0.5961
439,0.0,0.0,0.0,0.0,0.0,0.0,0.0081,0.9543,0.2897,0.5013,0.4031,-0.4811,-0.5957
440,0.0,0.0,0.0,0.0,0.0,0.0,0.0043,0.9732,0.2970,0.5014,0.4035,-0.4807,-0.5957
441,0.0,0.0,0.0,0.0,0.0,0.0,-0.0025,0.9907,0.2999,0.5014,0.4038,-0.4799,-0.5959
442,0.0,0.0,0.0,0.0,0.0,0.0,-0.0055,0.9655,0.2907,0.5013,0.4043,-0.4795,-0.5960
443,0.0,0.0,0.0,0.0,0.0,0.0,-0.0046,0.9510,0.2883,0.5012,0.4045,-0.4791,-0.5964
444,0.0,0.0,0.0,0.0,0.0,0.0,-0.0061,0.9491,0.2878,0.5009,0.4045,-0.4787,-0.5969
445,0.0,0.0,0.0,0.0,0.0,0.0,-0.0023,0.9408,0.2844,0.5005,0.4044,-0.4786,-0.5974
446,0.0,0.0,0.0,0.0,0.0,0.0,-0.0032,0.9437,0.2844,0.5002,0.4043,-0.4783,-0.5980
447,0.0,0.0,0.0,0.0,0.0,0.0,-0.0022,0.9524,0.2858,0.5000,0.4040,-0.4781,-0.5985
448,0.0,0.0,0.0,0.0,0.0,0.0,-0.0026,0.9602,0.2858,0.4998,0.4039,-0.4781,-0.5988
449,0.0,0.0,0.0,0.0,0.0,0.0,0.0002,0.9529,0.2810,0.4996,0.4037,-0.4783,-0.5989
450,0.0,0.0,0.0,0.0,0.0,0.0,0.0026,0.9447,0.2785,0.4995,0.4034,-0.4786,-0.5989
451,0.0,0.0,0.0,0.0,0.0,0.0,0.0027,0.9606,0.2887,0.4992,0.4035,-0.4792,-0.5986
452,0.0,0.0,0.0,0.0,0.0,0.0,0.0033,0.9693,0.2956,0.4991,0.4033,-0.4796,-0.5985
453,0.0,0.0,0.0,0.0,0.0,0.0,0.0099,1.0909,0.2970,0.4989,0.4033,-0.4797,-0.5986
454,0.0,0.0,0.0,0.0,0.0,0.0,0.0086,0.9697,0.2975,0.4990,0.4028,-0.4794,-0.5990
455,0.0,0.0,0.0,0.0,0.0,0.0,0.0081,0.9538,0.2926,0.4991,0.4025,-0.4792,-0.5994
456,0.0,0.0,0.0,0.0,0.0,0.0,0.0081,0.9572,0.2926,0.4991,0.4020,-0.4789,-0.6000
457,0.0,0.0,0.0,0.0,0.0,0.0,0.0110,0.9591,0.2936,0.4989,0.4015,-0.4787,-0.6006
458,0.0,0.0,0.0,0.0,0.0,0.0,0.0130,0.9590,0.2985,0.4988,0.4015,-0.4788,-0.6006
459,0.0,0.0,0.0,0.0,0.0,0.0,0.0111,0.9639,0.3029,0.4988,0.4014,-0.4787,-0.6007
460,0.0,0.0,0.0,0.0,0.0,0.0,0.0120,0.9615,0.3033,0.4989,0.4010,-0.4782,-0.6014
461,0.0,0.0,0.0,0.0,0.0,0.0,0.0120,0.9518,0.3029,0.4990,0.4007,-0.4779,-0.6017
462,0.0,0.0,0.0,0.0,0.0,0.0,0.0124,0.9508,0.3009,0.4990,0.4004,-0.4776,-0.6021
463,0.0,0.0,0.0,0.0,0.0,0.0,0.0124,0.9484,0.3009,0.4991,0.4004,-0.4775,-0.6021
464,0.0,0.0,0.0,0.0,0.0,0.0,0.0085,0.9494,0.3024,0.4990,0.4006,-0.4774,-0.6022
465,0.0,0.0,0.0,0.0,0.0,0.0,0.0060,0.9416,0.3024,0.4991,0.4006,-0.4770,-0.6024
466,0.0,0.0,0.0,0.0,0.0,0.0,-0.0008,0.9451,0.3009,0.4991,0.4009,-0.4767,-0.6024
467,0.0,0.0,0.0,0.0,0.0,0.0,-0.0027,0.9437,0.2990,0.4989,0.4014,-0.4766,-0.6024
468,0.0,0.0,0.0,0.0,0.0,0.0,-0.0037,0.9413,0.2980,0.4988,0.4018,-0.4764,-0.6023
469,0.0,0.0,0.0,0.0,0.0,0.0,-0.0056,0.9471,0.2975,0.4988,0.4020,-0.4762,-0.6023
470,0.0,0.0,0.0,0.0,0.0,0.0,-0.0071,0.9481,0.2970,0.4989,0.4025,-0.4763,-0.6019
471,0.0,0.0,0.0,0.0,0.0,0.0,-0.0037,0.9471,0.2955,0.4989,0.4028,-0.4764,-0.6016
472,0.0,0.0,0.0,0.0,0.0,0.0,-0.0071,0.9573,0.2965,0.4988,0.4032,-0.4763,-0.6015
473,0.0,0.0,0.0,0.0,0.0,0.0,-0.0046,0.9573,0.2955,0.4989,0.4034,-0.4763,-0.6013
474,0.0,0.0,0.0,0.0,0.0,0.0,-0.0061,0.9583,0.2946,0.4989,0.4036,-0.4764,-0.6010
475,0.0,0.0,0.0,0.0,0.0,0.0,-0.0027,0.9553,0.2907,0.4990,0.4038,-0.4767,-0.6006
476,0.0,0.0,0.0,0.0,0.0,0.0,-0.0007,0.9505,0.2892,0.4993,0.4039,-0.4768,-0.6002
477,0.0,0.0,0.0,0.0,0.0,0.0,-0.0017,0.9539,0.2912,0.4996,0.4039,-0.4770,-0.5998
478,0.0,0.0,0.0,0.0,0.0,0.0,-0.0007,0.9592,0.2921,0.4996,0.4040,-0.4774,-0.5994
479,0.0,0.0,0.0,0.0,0.0,0.0,-0.0002,0.9640,0.2921,0.4997,0.4042,-0.4777,-0.5989
480,0.0,0.0,0.0,0.0,0.0,0.0,0.0027,0.9616,0.2931,0.5001,0.4041,-0.4779,-0.5985
481,0.0,0.0,0.0,0.0,0.0,0.0,0.0062,0.9722,0.2975,0.5005,0.4039,-0.4780,-0.5982
482,0.0,0.0,0.0,0.0,0.0,0.0,0.0042,0.9649,0.2946,0.5007,0.4037,-0.4780,-0.5982
483,0.0,0.0,0.0,0.0,0.0,0.0,0.0066,0.9591,0.2912,0.5009,0.4037,-0.4779,-0.5981
484,0.0,0.0,0.0,0.0,0.0,0.0,0.0081,0.9552,0.2941,0.5013,0.4034,-0.4778,-0.5980
485,0.0,0.0,0.0,0.0,0.0,0.0,0.0061,0.9470,0.2946,0.5018,0.4030,-0.4776,-0.5981
486,0.0,0.0,0.0,0.0,0.0,0.0,0.0066,0.9518,0.2975,0.5023,0.4029,-0.4775,-0.5978
487,0.0,0.0,0.0,0.0,0.0,0.0,0.0061,0.9572,0.3004,0.5026,0.4028,-0.4774,-0.5976
488,0.0,0.0,0.0,0.0,0.0,0.0,0.0007,0.9412,0.2946,0.5028,0.4029,-0.4772,-0.5976
489,0.0,0.0,0.0,0.0,0.0,0.0,-0.0007,0.9601,0.2975,0.5028,0.4034,-0.4772,-0.5973
490,0.0,0.0,0.0,0.0,0.0,0.0,-0.0055,0.9733,0.2960,0.5028,0.4039,-0.4770,-0.5971
491,0.0,0.0,0.0,0.0,0.0,0.0,-0.0070,0.9738,0.2975,0.5030,0.4041,-0.4768,-0.5970
492,0.0,0.0,0.0,0.0,0.0,0.0,-0.0046,0.9529,0.2951,0.5030,0.4045,-0.4766,-0.5969
493,0.0,0.0,0.0,0.0,0.0,0.0,-0.0022,0.9476,0.2921,0.5031,0.4045,-0.4761,-0.5971
494,0.0,0.0,0.0,0.0,0.0,0.0,-0.0032,0.9481,0.2921,0.5032,0.4045,-0.4758,-0.5973
495,0.0,0.0,0.0,0.0,0.0,0.0,-0.0017,0.9495,0.2931,0.5032,0.4045,-0.4758,-0.5974
496,0.0,0.0,0.0,0.0,0.0,0.0,0.0017,0.9485,0.2956,0.5033,0.4044,-0.4757,-0.5974
497,0.0,0.0,0.0,0.0,0.0,0.0,-0.0046,0.9573,0.2994,0.5034,0.4044,-0.4758,-0.5972
498,0.0,0.0,0.0,0.0,0.0,0.0,-0.0046,0.9592,0.3014,0.5036,0.4046,-0.4759,-0.5968
499,0.0,0.0,0.0,0.0,0.0,0.0,0.0012,0.9557,0.3033,0.5038,0.4044,-0.4759,-0.5968
500,0.0,0.0,0.0,0.0,0.0,0.0,-0.0007,0.9553,0.3019,0.5041,0.4040,-0.4758,-0.5969
501,0.0,0.0,0.0,0.0,0.0,0.0,0.0041,0.9509,0.3019,0.5044,0.4037,-0.4758,-0.5969
502,0.0,0.0,0.0,0.0,0.0,0.0,0.0051,0.9533,0.3019,0.5044,0.4035,-0.4757,-0.5971
503,0.0,0.0,0.0,0.0,0.0,0.0,0.0118,0.9305,0.2980,0.5046,0.4030,-0.4757,-0.5972
504,0.0,0.0,0.0,0.0,0.0,0.0,0.0062,0.9629,0.3077,0.5045,0.4029,-0.4761,-0.5970
505,0.0,0.0,0.0,0.0,0.0,0.0,0.0062,0.9625,0.3077,0.5045,0.4032,-0.4767,-0.5964
506,0.0,0.0,0.0,0.0,0.0,0.0,0.0101,0.9629,0.3087,0.5046,0.4029,-0.4768,-0.5964
507,0.0,0.0,0.0,0.0,0.0,0.0,0.0105,0.9566,0.3063,0.5046,0.4028,-0.4767,-0.5965
508,0.0,0.0,0.0,0.0,0.0,0.0,0.0110,0.9508,0.3038,0.5049,0.4027,-0.4764,-0.5965
509,0.0,0.0,0.0,0.0,0.0,0.0,0.0095,0.9460,0.3024,0.5050,0.4026,-0.4761,-0.5968
510,0.0,0.0,0.0,0.0,0.0,0.0,0.0090,0.9431,0.2995,0.5050,0.4026,-0.4758,-0.5970
511,0.0,0.0,0.0,0.0,0.0,0.0,0.0075,0.9392,0.2985,0.5052,0.4030,-0.4759,-0.5966
512,0.0,0.0,0.0,0.0,0.0,0.0,0.0075,0.9441,0.2990,0.5054,0.4033,-0.4760,-0.5961
513,0.0,0.0,0.0,0.0,0.0,0.0,0.0061,0.9455,0.2965,0.5055,0.4037,-0.4762,-0.5956
514,0.0,0.0,0.0,0.0,0.0,0.0,0.0075,0.9460,0.2946,0.5056,0.4039,-0.4765,-0.5951
515,0.0,0.0,0.0,0.0,0.0,0.0,0.0066,0.9509,0.2936,0.5057,0.4041,-0.4765,-0.5949
516,0.0,0.0,0.0,0.0,0.0,0.0,0.0037,0.9562,0.2936,0.5056,0.4043,-0.4766,-0.5948
517,0.0,0.0,0.0,0.0,0.0,0.0,0.0032,0.9616,0.2941,0.5055,0.4044,-0.4767,-0.5947
518,0.0,0.0,0.0,0.0,0.0,0.0,0.0027,0.9495,0.2907,0.5055,0.4047,-0.4769,-0.5944
519,0.0,0.0,0.0,0.0,0.0,0.0,0.0042,0.9582,0.2873,0.5051,0.4049,-0.4771,-0.5944
520,0.0,0.0,0.0,0.0,0.0,0.0,0.0048,0.9751,0.2921,0.5050,0.4050,-0.4772,-0.5944
521,0.0,0.0,0.0,0.0,0.0,0.0,0.0053,0.9761,0.2922,0.5049,0.4054,-0.4774,-0.5940
522,0.0,0.0,0.0,0.0,0.0,0.0,0.0033,0.9747,0.2926,0.5048,0.4055,-0.4774,-0.5941
523,0.0,0.0,0.0,0.0,0.0,0.0,0.0032,0.9621,0.2917,0.5046,0.4053,-0.4770,-0.5945
524,0.0,0.0,0.0,0.0,0.0,0.0,0.0057,0.9664,0.2936,0.5047,0.4051,-0.4768,-0.5949
525,0.0,0.0,0.0,0.0,0.0,0.0,0.0047,0.9572,0.2941,0.5048,0.4050,-0.4766,-0.5950
526,0.0,0.0,0.0,0.0,0.0,0.0,0.0042,0.9582,0.2956,0.5048,0.4049,-0.4763,-0.5953
527,0.0,0.0,0.0,0.0,0.0,0.0,0.0061,0.9572,0.2995,0.5048,0.4047,-0.4761,-0.5956
528,0.0,0.0,0.0,0.0,0.0,0.0,0.0080,0.9474,0.3009,0.5050,0.4043,-0.4761,-0.5957
529,0.0,0.0,0.0,0.0,0.0,0.0,0.0046,0.9412,0.3009,0.5051,0.4037,-0.4758,-0.5962
530,0.0,0.0,0.0,0.0,0.0,0.0,0.0002,0.9446,0.3019,0.5052,0.4033,-0.4756,-0.5967
531,0.0,0.0,0.0,0.0,0.0,0.0,-0.0028,0.9398,0.3043,0.5051,0.4029,-0.4753,-0.5971
532,0.0,0.0,0.0,0.0,0.0,0.0,0.0036,0.9359,0.2999,0.5049,0.4025,-0.4754,-0.5976
533,0.0,0.0,0.0,0.0,0.0,0.0,0.0046,0.9470,0.3014,0.5045,0.4022,-0.4757,-0.5978
534,0.0,0.0,0.0,0.0,0.0,0.0,0.0051,0.9499,0.3033,0.5041,0.4018,-0.4761,-0.5981
535,0.0,0.0,0.0,0.0,0.0,0.0,0.0076,0.9504,0.3029,0.5040,0.4013,-0.4763,-0.5985
536,0.0,0.0,0.0,0.0,0.0,0.0,0.0100,0.9552,0.3014,0.5038,0.4009,-0.4766,-0.5986
537,0.0,0.0,0.0,0.0,0.0,0.0,0.0100,0.9523,0.2990,0.5036,0.4009,-0.4771,-0.5983
538,0.0,0.0,0.0,0.0,0.0,0.0,0.0100,0.9494,0.2995,0.5034,0.4009,-0.4775,-0.5982
539,0.0,0.0,0.0,0.0,0.0,0.0,0.0085,0.9499,0.2990,0.5033,0.4008,-0.4777,-0.5982
540,0.0,0.0,0.0,0.0,0.0,0.0,0.0094,0.9373,0.2917,0.5031,0.4011,-0.4782,-0.5979
541,0.0,0.0,0.0,0.0,0.0,0.0,0.0192,0.9415,0.2951,0.5030,0.4010,-0.4787,-0.5975
542,0.0,0.0,0.0,0.0,0.0,0.0,0.0212,0.9396,0.2936,0.5033,0.4008,-0.4794,-0.5968
543,0.0,0.0,0.0,0.0,0.0,0.0,0.0172,0.9377,0.2917,0.5035,0.4009,-0.4800,-0.5961
544,0.0,0.0,0.0,0.0,0.0,0.0,0.0081,0.9683,0.3014,0.5036,0.4010,-0.4804,-0.5957
545,0.0,0.0,0.0,0.0,0.0,0.0,0.0055,0.8447,0.3009,0.5042,0.4003,-0.4804,-0.5956
546,0.0,0.0,0.0,0.0,0.0,0.0,0.0056,0.9577,0.2926,0.5042,0.4005,-0.4806,-0.5952
547,0.0,0.0,0.0,0.0,0.0,0.0,0.0057,0.9591,0.2883,0.5041,0.4008,-0.4809,-0.5950
548,0.0,0.0,0.0,0.0,0.0,0.0,0.0062,0.9678,0.2897,0.5036,0.4013,-0.4812,-0.5948
549,0.0,0.0,0.0,0.0,0.0,0.0,-0.1197,0.9709,0.2876,0.5023,0.4037,-0.4803,-0.5951
550,0.0,0.0,0.0,0.0,0.0,0.0,0.0067,0.9659,0.2839,0.5020,0.4038,-0.4805,-0.5950
551,0.0,0.0,0.0,0.0,0.0,0.0,0.0071,0.9611,0.2815,0.5018,0.4041,-0.4809,-0.5946
552,0.0,0.0,0.0,0.0,0.0,0.0,0.0047,0.9689,0.2824,0.5017,0.4045,-0.4811,-0.5943
553,0.0,0.0,0.0,0.0,0.0,0.0,0.0048,0.9742,0.2834,0.5016,0.4048,-0.4812,-0.5942
554,0.0,0.0,0.0,0.0,0.0,0.0,0.0076,0.9548,0.2800,0.5015,0.4049,-0.4814,-0.5939
555,0.0,0.0,0.0,0.0,0.0,0.0,0.0159,0.9552,0.2824,0.5018,0.4047,-0.4816,-0.5936
556,0.0,0.0,0.0,0.0,0.0,0.0,0.0115,0.9591,0.2844,0.5019,0.4043,-0.4816,-0.5938
557,0.0,0.0,0.0,0.0,0.0,0.0,0.0174,0.9673,0.2873,0.5021,0.4040,-0.4815,-0.5940
558,0.0,0.0,0.0,0.0,0.0,0.0,0.0121,0.9780,0.2883,0.5021,0.4037,-0.4813,-0.5944
559,0.0,0.0,0.0,0.0,0.0,0.0,0.0066,0.9558,0.2800,0.5019,0.4034,-0.4810,-0.5949
560,0.0,0.0,0.0,0.0,0.0,0.0,0.0095,0.9436,0.2781,0.5016,0.4034,-0.4812,-0.5952
561,0.0,0.0,0.0,0.0,0.0,0.0,0.0110,0.9625,0.2849,0.5012,0.4034,-0.4813,-0.5953
562,0.0,0.0,0.0,0.0,0.0,0.0,0.0140,0.9746,0.2858,0.5010,0.4033,-0.4813,-0.5956
563,0.0,0.0,0.0,0.0,0.0,0.0,0.0159,0.9644,0.2805,0.5008,0.4032,-0.4813,-0.5958
564,0.0,0.0,0.0,0.0,0.0,0.0,0.0168,0.9484,0.2756,0.5005,0.4033,-0.4817,-0.5956
565,0.0,0.0,0.0,0.0,0.0,0.0,0.0154,0.9557,0.2785,0.5004,0.4034,-0.4820,-0.5954
566,0.0,0.0,0.0,0.0,0.0,0.0,0.0125,0.9601,0.2795,0.5002,0.4034,-0.4820,-0.5956
567,0.0,0.0,0.0,0.0,0.0,0.0,0.0130,0.9615,0.2781,0.5001,0.4033,-0.4821,-0.5956
568,0.0,0.0,0.0,0.0,0.0,0.0,0.0111,0.9678,0.2810,0.5001,0.4032,-0.4822,-0.5957
569,0.0,0.0,0.0,0.0,0.0,0.0,0.0135,0.9697,0.2815,0.5001,0.4029,-0.4822,-0.5958
570,0.0,0.0,0.0,0.0,0.0,0.0,0.0096,0.9640,0.2805,0.5002,0.4027,-0.4821,-0.5960
571,0.0,0.0,0.0,0.0,0.0,0.0,0.0105,0.9586,0.2805,0.5002,0.4024,-0.4820,-0.5962
572,0.0,0.0,0.0,0.0,0.0,0.0,0.0096,0.9581,0.2834,0.5001,0.4021,-0.4821,-0.5965
573,0.0,0.0,0.0,0.0,0.0,0.0,0.0085,0.9528,0.2844,0.5000,0.4017,-0.4823,-0.5967
574,0.0,0.0,0.0,0.0,0.0,0.0,0.0125,0.9542,0.2844,0.4999,0.4013,-0.4824,-0.5970
575,0.0,0.0,0.0,0.0,0.0,0.0,0.0169,0.9668,0.2926,0.5000,0.4007,-0.4826,-0.5971
576,0.0,0.0,0.0,0.0,0.0,0.0,0.0184,0.9648,0.2936,0.4999,0.3999,-0.4826,-0.5977
577,0.0,0.0,0.0,0.0,0.0,0.0,0.0232,0.9599,0.2931,0.5000,0.3993,-0.4824,-0.5981
578,0.0,0.0,0.0,0.0,0.0,0.0,0.0227,0.9585,0.2927,0.5001,0.3991,-0.4824,-0.5983
579,0.0,0.0,0.0,0.0,0.0,0.0,0.0202,0.9508,0.2897,0.5003,0.3988,-0.4823,-0.5984
580,0.0,0.0,0.0,0.0,0.0,0.0,0.0212,0.9411,0.2844,0.5005,0.3985,-0.4821,-0.5986
581,0.0,0.0,0.0,0.0,0.0,0.0,0.0245,0.9304,0.2810,0.5007,0.3983,-0.4824,-0.5983
582,0.0,0.0,0.0,0.0,0.0,0.0,0.0250,0.9338,0.2824,0.5011,0.3981,-0.4828,-0.5979
583,0.0,0.0,0.0,0.0,0.0,0.0,0.0213,0.9590,0.2936,0.5014,0.3975,-0.4829,-0.5978
584,0.0,0.0,0.0,0.0,0.0,0.0,0.0146,0.9847,0.3063,0.5017,0.3975,-0.4828,-0.5977
585,0.0,0.0,0.0,0.0,0.0,0.0,0.0151,0.9900,0.3038,0.5019,0.3976,-0.4824,-0.5977
586,0.0,0.0,0.0,0.0,0.0,0.0,0.0154,0.9571,0.2912,0.5019,0.3978,-0.4821,-0.5978
587,0.0,0.0,0.0,0.0,0.0,0.0,0.0167,0.9358,0.2858,0.5018,0.3981,-0.4821,-0.5977
588,0.0,0.0,0.0,0.0,0.0,0.0,0.0233,0.9653,0.2946,0.5018,0.3978,-0.4820,-0.5980
589,0.0,0.0,0.0,0.0,0.0,0.0,0.0213,0.9590,0.2936,0.5019,0.3976,-0.4817,-0.5983
590,0.0,0.0,0.0,0.0,0.0,0.0,0.0174,0.9629,0.2965,0.5019,0.3976,-0.4815,-0.5985
591,0.0,0.0,0.0,0.0,0.0,0.0,0.0184,0.9605,0.2961,0.5020,0.3976,-0.4811,-0.5987
592,0.0,0.0,0.0,0.0,0.0,0.0,0.0198,0.9517,0.2946,0.5022,0.3973,-0.4806,-0.5991
593,0.0,0.0,0.0,0.0,0.0,0.0,0.0212,0.9420,0.2917,0.5026,0.3971,-0.4802,-0.5993
594,0.0,0.0,0.0,0.0,0.0,0.0,0.0168,0.9454,0.2956,0.5028,0.3969,-0.4799,-0.5995
595,0.0,0.0,0.0,0.0,0.0,0.0,0.0153,0.9479,0.2980,0.5030,0.3968,-0.4797,-0.5995
596,0.0,0.0,0.0,0.0,0.0,0.0,0.0158,0.9498,0.2990,0.5031,0.3967,-0.4796,-0.5996
597,0.0,0.0,0.0,0.0,0.0,0.0,0.0173,0.9483,0.2990,0.5032,0.3964,-0.4794,-0.5998
598,0.0,0.0,0.0,0.0,0.0,0.0,0.0236,0.9449,0.2975,0.5033,0.3959,-0.4793,-0.6002
599,0.0,0.0,0.0,0.0,0.0,0.0,0.0261,0.9497,0.3004,0.5033,0.3954,-0.4792,-0.6005
600,0.0,0.0,0.0,0.0,0.0,0.0,0.0286,0.9555,0.3000,0.5033,0.3952,-0.4794,-0.6006
601,0.0,0.0,0.0,0.0,0.0,0.0,0.0310,0.9526,0.2966,0.5034,0.3954,-0.4798,-0.6001
602,0.0,0.0,0.0,0.0,0.0,0.0,0.0286,0.9570,0.2961,0.5034,0.3958,-0.4799,-0.5997
603,0.0,0.0,0.0,0.0,0.0,0.0,0.0251,0.9512,0.2902,0.5034,0.3959,-0.4798,-0.5997
604,0.0,0.0,0.0,0.0,0.0,0.0,0.0251,0.9410,0.2849,0.5036,0.3960,-0.4798,-0.5994
605,0.0,0.0,0.0,0.0,0.0,0.0,0.0276,0.9478,0.2883,0.5037,0.3964,-0.4802,-0.5988
606,0.0,0.0,0.0,0.0,0.0,0.0,0.0242,0.9648,0.2927,0.5037,0.3968,-0.4805,-0.5983
607,0.0,0.0,0.0,0.0,0.0,0.0,0.0267,0.9739,0.2975,0.5039,0.3968,-0.4806,-0.5980
608,0.0,0.0,0.0,0.0,0.0,0.0,0.0171,0.9876,0.3043,0.5041,0.3971,-0.4802,-0.5980
609,0.0,0.0,0.0,0.0,0.0,0.0,0.0188,0.9580,0.2917,0.5042,0.3975,-0.4798,-0.5980
610,0.0,0.0,0.0,0.0,0.0,0.0,0.0261,0.9430,0.2839,0.5043,0.3979,-0.4797,-0.5977
611,0.0,0.0,0.0,0.0,0.0,0.0,0.0184,0.9600,0.2907,0.5044,0.3985,-0.4795,-0.5974
612,0.0,0.0,0.0,0.0,0.0,0.0,0.0115,0.9615,0.2922,0.5044,0.3990,-0.4792,-0.5972
613,0.0,0.0,0.0,0.0,0.0,0.0,0.0081,0.9610,0.2946,0.5044,0.3995,-0.4789,-0.5972
614,0.0,0.0,0.0,0.0,0.0,0.0,0.0056,0.9446,0.2912,0.5042,0.3998,-0.4785,-0.5975
615,0.0,0.0,0.0,0.0,0.0,0.0,0.0049,0.9233,0.2849,0.5042,0.4000,-0.4784,-0.5975
616,0.0,0.0,0.0,0.0,0.0,0.0,0.0104,0.9358,0.2883,0.5041,0.4002,-0.4787,-0.5971
617,0.0,0.0,0.0,0.0,0.0,0.0,0.0114,0.9407,0.2878,0.5041,0.4006,-0.4796,-0.5962
618,0.0,0.0,0.0,0.0,0.0,0.0,0.0110,0.9538,0.2902,0.5040,0.4009,-0.4802,-0.5955
619,0.0,0.0,0.0,0.0,0.0,0.0,0.0071,0.9630,0.2931,0.5040,0.4013,-0.4807,-0.5949
620,0.0,0.0,0.0,0.0,0.0,0.0,0.0067,0.9673,0.2946,0.5040,0.4016,-0.4811,-0.5943
621,0.0,0.0,0.0,0.0,0.0,0.0,0.0018,0.9645,0.2951,0.5039,0.4017,-0.4812,-0.5943
622,0.0,0.0,0.0,0.0,0.0,0.0,0.0081,0.9596,0.2917,0.5038,0.4018,-0.4813,-0.5942
623,0.0,0.0,0.0,0.0,0.0,0.0,0.0135,0.9654,0.2873,0.5037,0.4017,-0.4815,-0.5943
624,0.0,0.0,0.0,0.0,0.0,0.0,0.0169,0.9581,0.2800,0.5034,0.4018,-0.4818,-0.5941
625,0.0,0.0,0.0,0.0,0.0,0.0,0.0134,0.9533,0.2790,0.5032,0.4023,-0.4822,-0.5936
626,0.0,0.0,0.0,0.0,0.0,0.0,0.0194,0.9721,0.2854,0.5029,0.4022,-0.4825,-0.5937
627,0.0,0.0,0.0,0.0,0.0,0.0,0.0184,0.9760,0.2873,0.5029,0.4021,-0.4826,-0.5938
628,0.0,0.0,0.0,0.0,0.0,0.0,0.0185,0.9818,0.2892,0.5030,0.4019,-0.4824,-0.5940
629,0.0,0.0,0.0,0.0,0.0,0.0,0.0120,0.9562,0.2819,0.5030,0.4019,-0.4821,-0.5941
630,0.0,0.0,0.0,0.0,0.0,0.0,0.0095,0.9485,0.2761,0.5029,0.4022,-0.4822,-0.5940
631,0.0,0.0,0.0,0.0,0.0,0.0,0.0090,0.9528,0.2790,0.5027,0.4022,-0.4822,-0.5941
632,0.0,0.0,0.0,0.0,0.0,0.0,0.0100,0.9557,0.2815,0.5025,0.4024,-0.4827,-0.5937
633,0.0,0.0,0.0,0.0,0.0,0.0,0.0101,0.9596,0.2805,0.5025,0.4026,-0.4831,-0.5934
634,0.0,0.0,0.0,0.0,0.0,0.0,0.0115,0.9625,0.2815,0.5025,0.4024,-0.4829,-0.5937
635,0.0,0.0,0.0,0.0,0.0,0.0,0.0184,0.9605,0.2819,0.5024,0.4022,-0.4829,-0.5938
636,0.0,0.0,0.0,0.0,0.0,0.0,0.0193,0.9624,0.2839,0.5024,0.4022,-0.4831,-0.5936
637,0.0,0.0,0.0,0.0,0.0,0.0,0.0193,0.9585,0.2844,0.5023,0.4019,-0.4833,-0.5938
638,0.0,0.0,0.0,0.0,0.0,0.0,0.0222,0.9493,0.2824,0.5025,0.4014,-0.4832,-0.5940
639,0.0,0.0,0.0,0.0,0.0,0.0,0.0241,0.9478,0.2839,0.5027,0.4010,-0.4832,-0.5942
640,0.0,0.0,0.0,0.0,0.0,0.0,0.0232,0.9527,0.2883,0.5029,0.4006,-0.4834,-0.5941
641,0.0,0.0,0.0,0.0,0.0,0.0,0.0251,0.9541,0.2883,0.5031,0.4004,-0.4836,-0.5938
642,0.0,0.0,0.0,0.0,0.0,0.0,0.0281,0.9643,0.2922,0.5036,0.4002,-0.4836,-0.5935
643,0.0,0.0,0.0,0.0,0.0,0.0,0.0247,0.9677,0.2927,0.5041,0.4003,-0.4836,-0.5932
644,0.0,0.0,0.0,0.0,0.0,0.0,0.0224,0.9759,0.2946,0.5044,0.4002,-0.4832,-0.5932
645,0.0,0.0,0.0,0.0,0.0,0.0,0.0195,0.9813,0.2961,0.5045,0.4003,-0.4825,-0.5936
646,0.0,0.0,0.0,0.0,0.0,0.0,0.0189,0.9682,0.2922,0.5048,0.4005,-0.4819,-0.5938
647,0.0,0.0,0.0,0.0,0.0,0.0,0.0160,0.9707,0.2951,0.5049,0.4005,-0.4809,-0.5945
648,0.0,0.0,0.0,0.0,0.0,0.0,0.0130,0.9683,0.2922,0.5048,0.4008,-0.4799,-0.5952
649,0.0,0.0,0.0,0.0,0.0,0.0,0.0129,0.9508,0.2844,0.5048,0.4013,-0.4790,-0.5956
650,0.0,0.0,0.0,0.0,0.0,0.0,0.0172,0.9392,0.2834,0.5047,0.4016,-0.4783,-0.5960
651,0.0,0.0,0.0,0.0,0.0,0.0,0.0158,0.9373,0.2829,0.5045,0.4021,-0.4777,-0.5963
652,0.0,0.0,0.0,0.0,0.0,0.0,0.0114,0.9402,0.2839,0.5043,0.4028,-0.4771,-0.5965
653,0.0,0.0,0.0,0.0,0.0,0.0,0.0090,0.9446,0.2853,0.5040,0.4034,-0.4766,-0.5968
654,0.0,0.0,0.0,0.0,0.0,0.0,0.0079,0.9320,0.2815,0.5038,0.4041,-0.4765,-0.5966
655,0.0,0.0,0.0,0.0,0.0,0.0,0.0066,0.9509,0.2887,0.5038,0.4049,-0.4765,-0.5960
656,0.0,0.0,0.0,0.0,0.0,0.0,-0.0012,0.9606,0.2931,0.5040,0.4058,-0.4767,-0.5950
657,0.0,0.0,0.0,0.0,0.0,0.0,-0.0051,0.9597,0.2907,0.5043,0.4065,-0.4768,-0.5942
658,0.0,0.0,0.0,0.0,0.0,0.0,-0.0090,0.9651,0.2887,0.5048,0.4067,-0.4766,-0.5939
659,0.0,0.0,0.0,0.0,0.0,0.0,-0.0095,0.9602,0.2853,0.5053,0.4068,-0.4764,-0.5935
660,0.0,0.0,0.0,0.0,0.0,0.0,-0.0071,0.9472,0.2800,0.5058,0.4070,-0.4765,-0.5929
661,0.0,0.0,0.0,0.0,0.0,0.0,-0.0080,0.9573,0.2829,0.5058,0.4071,-0.4767,-0.5926
662,0.0,0.0,0.0,0.0,0.0,0.0,-0.0070,0.9680,0.2873,0.5058,0.4072,-0.4772,-0.5921
663,0.0,0.0,0.0,0.0,0.0,0.0,-0.0011,0.9699,0.2868,0.5055,0.4068,-0.4775,-0.5923
664,0.0,0.0,0.0,0.0,0.0,0.0,0.0096,0.9683,0.2888,0.5050,0.4060,-0.4778,-0.5931
665,0.0,0.0,0.0,0.0,0.0,0.0,0.0184,0.9711,0.2946,0.5046,0.4049,-0.4780,-0.5940
666,0.0,0.0,0.0,0.0,0.0,0.0,0.0243,0.9822,0.3024,0.5042,0.4040,-0.4779,-0.5952
667,0.0,0.0,0.0,0.0,0.0,0.0,0.0360,0.9700,0.3058,0.5039,0.4034,-0.4779,-0.5957
668,0.0,0.0,0.0,0.0,0.0,0.0,0.0344,0.9511,0.3048,0.5038,0.4028,-0.4774,-0.5967
669,0.0,0.0,0.0,0.0,0.0,0.0,0.0285,0.9448,0.3034,0.5036,0.4022,-0.4765,-0.5980
670,0.0,0.0,0.0,0.0,0.0,0.0,0.0241,0.9366,0.3014,0.5036,0.4017,-0.4757,-0.5989
671,0.0,0.0,0.0,0.0,0.0,0.0,0.0167,0.9348,0.3009,0.5036,0.4017,-0.4753,-0.5993
672,0.0,0.0,0.0,0.0,0.0,0.0,0.0123,0.9290,0.2985,0.5034,0.4022,-0.4752,-0.5992
673,0.0,0.0,0.0,0.0,0.0,0.0,0.0118,0.9261,0.2961,0.5035,0.4025,-0.4748,-0.5992
674,0.0,0.0,0.0,0.0,0.0,0.0,0.0089,0.9363,0.2980,0.5036,0.4028,-0.4744,-0.5993
675,0.0,0.0,0.0,0.0,0.0,0.0,0.0031,0.9460,0.2990,0.5034,0.4035,-0.4739,-0.5993
676,0.0,0.0,0.0,0.0,0.0,0.0,-0.0008,0.9495,0.2941,0.5033,0.4046,-0.4734,-0.5991
677,0.0,0.0,0.0,0.0,0.0,0.0,0.0002,0.9495,0.2868,0.5031,0.4058,-0.4732,-0.5986
678,0.0,0.0,0.0,0.0,0.0,0.0,-0.0041,0.9602,0.2824,0.5029,0.4072,-0.4733,-0.5978
679,0.0,0.0,0.0,0.0,0.0,0.0,-0.0129,0.9647,0.2771,0.5027,0.4085,-0.4733,-0.5971
680,0.0,0.0,0.0,0.0,0.0,0.0,-0.0154,0.9569,0.2771,0.5025,0.4092,-0.4733,-0.5968
681,0.0,0.0,0.0,0.0,0.0,0.0,-0.0172,0.9773,0.2805,0.5022,0.4098,-0.4734,-0.5965
682,0.0,0.0,0.0,0.0,0.0,0.0,-0.0197,0.9638,0.2741,0.5017,0.4104,-0.4735,-0.5964
683,0.0,0.0,0.0,0.0,0.0,0.0,-0.0119,0.9564,0.2702,0.5014,0.4105,-0.4738,-0.5964
684,0.0,0.0,0.0,0.0,0.0,0.0,-0.0079,0.9864,0.2829,0.5012,0.4104,-0.4741,-0.5963
685,0.0,0.0,0.0,0.0,0.0,0.0,-0.0078,0.9951,0.2897,0.5011,0.4102,-0.4742,-0.5965
686,0.0,0.0,0.0,0.0,0.0,0.0,-0.0098,0.9932,0.2912,0.5013,0.4097,-0.4738,-0.5969
687,0.0,0.0,0.0,0.0,0.0,0.0,-0.0113,0.9792,0.2887,0.5016,0.4090,-0.4731,-0.5977
688,0.0,0.0,0.0,0.0,0.0,0.0,-0.0140,0.9458,0.2834,0.5019,0.4082,-0.4723,-0.5987
689,0.0,0.0,0.0,0.0,0.0,0.0,-0.0160,0.9366,0.2853,0.5021,0.4076,-0.4719,-0.5992
690,0.0,0.0,0.0,0.0,0.0,0.0,-0.0159,0.9419,0.2878,0.5016,0.4077,-0.4716,-0.5998
691,0.0,0.0,0.0,0.0,0.0,0.0,0.0152,0.9271,0.2888,0.5014,0.4067,-0.4719,-0.6005
692,0.0,0.0,0.0,0.0,0.0,0.0,-0.0046,0.9553,0.3004,0.4997,0.4073,-0.4711,-0.6021
693,0.0,0.0,0.0,0.0,0.0,0.0,0.0111,0.9663,0.3058,0.4996,0.4064,-0.4714,-0.6025
694,0.0,0.0,0.0,0.0,0.0,0.0,0.0233,0.9681,0.3048,0.5005,0.4048,-0.4720,-0.6024
695,0.0,0.0,0.0,0.0,0.0,0.0,0.0119,0.9469,0.3019,0.5016,0.4032,-0.4723,-0.6023
696,0.0,0.0,0.0,0.0,0.0,0.0,0.0114,0.9411,0.2990,0.5022,0.4024,-0.4725,-0.6023
697,0.0,0.0,0.0,0.0,0.0,0.0,0.0152,0.9314,0.2931,0.5028,0.4017,-0.4728,-0.6019
698,0.0,0.0,0.0,0.0,0.0,0.0,0.0119,0.9348,0.2946,0.5032,0.4014,-0.4736,-0.6011
699,0.0,0.0,0.0,0.0,0.0,0.0,0.0173,0.9459,0.3009,0.5039,0.4010,-0.4743,-0.6003
700,0.0,0.0,0.0,0.0,0.0,0.0,0.0216,0.9396,0.2995,0.5048,0.4003,-0.4746,-0.5997
701,0.0,0.0,0.0,0.0,0.0,0.0,0.0232,0.9526,0.3024,0.5057,0.3998,-0.4752,-0.5989
702,0.0,0.0,0.0,0.0,0.0,0.0,0.0193,0.9628,0.3038,0.5064,0.3998,-0.4756,-0.5980
703,0.0,0.0,0.0,0.0,0.0,0.0,0.0155,0.9779,0.3053,0.5070,0.3999,-0.4755,-0.5974
704,0.0,0.0,0.0,0.0,0.0,0.0,0.0126,0.9774,0.3072,0.5077,0.3999,-0.4753,-0.5970
705,0.0,0.0,0.0,0.0,0.0,0.0,0.0082,0.9794,0.3082,0.5081,0.3999,-0.4748,-0.5970
706,0.0,0.0,0.0,0.0,0.0,0.0,0.0086,0.9654,0.2985,0.5084,0.4002,-0.4746,-0.5967
707,0.0,0.0,0.0,0.0,0.0,0.0,0.0119,0.9373,0.2883,0.5084,0.4003,-0.4747,-0.5966
708,0.0,0.0,0.0,0.0,0.0,0.0,0.0183,0.9575,0.2961,0.5083,0.4001,-0.4748,-0.5968
709,0.0,0.0,0.0,0.0,0.0,0.0,0.0193,0.9561,0.2965,0.5079,0.4001,-0.4748,-0.5971
710,0.0,0.0,0.0,0.0,0.0,0.0,0.0237,0.9488,0.2970,0.5077,0.3998,-0.4747,-0.5975
711,0.0,0.0,0.0,0.0,0.0,0.0,0.0247,0.9609,0.3019,0.5074,0.3998,-0.4744,-0.5980
712,0.0,0.0,0.0,0.0,0.0,0.0,0.0277,0.9676,0.3077,0.5072,0.3997,-0.4740,-0.5986
713,0.0,0.0,0.0,0.0,0.0,0.0,0.0258,0.9865,0.3194,0.5071,0.3998,-0.4733,-0.5992
714,0.0,0.0,0.0,0.0,0.0,0.0,0.0219,0.9831,0.3204,0.5071,0.4001,-0.4721,-0.5999
715,0.0,0.0,0.0,0.0,0.0,0.0,0.0117,0.9900,0.3160,0.5071,0.4008,-0.4704,-0.6008
716,0.0,0.0,0.0,0.0,0.0,0.0,0.0060,0.9383,0.2985,0.5072,0.4018,-0.4687,-0.6013
717,0.0,0.0,0.0,0.0,0.0,0.0,0.0026,0.9402,0.2990,0.5073,0.4025,-0.4671,-0.6020
718,0.0,0.0,0.0,0.0,0.0,0.0,-0.0071,0.9510,0.3014,0.5078,0.4029,-0.4653,-0.6027
719,0.0,0.0,0.0,0.0,0.0,0.0,-0.0068,0.9224,0.2965,0.5084,0.4031,-0.4638,-0.6032
720,0.0,0.0,0.0,0.0,0.0,0.0,-0.0083,0.9127,0.2960,0.5088,0.4035,-0.4631,-0.6032
721,0.0,0.0,0.0,0.0,0.0,0.0,-0.0068,0.9146,0.2985,0.5093,0.4035,-0.4626,-0.6032
722,0.0,0.0,0.0,0.0,0.0,0.0,-0.0083,0.9171,0.3033,0.5098,0.4032,-0.4624,-0.6031
723,0.0,0.0,0.0,0.0,0.0,0.0,-0.0111,0.9311,0.3097,0.5099,0.4033,-0.4628,-0.6026
724,0.0,0.0,0.0,0.0,0.0,0.0,-0.0071,0.9412,0.3160,0.5100,0.4031,-0.4632,-0.6023
725,0.0,0.0,0.0,0.0,0.0,0.0,-0.0022,0.9441,0.3179,0.5101,0.4026,-0.4637,-0.6022
726,0.0,0.0,0.0,0.0,0.0,0.0,0.0061,0.9464,0.3209,0.5100,0.4021,-0.4645,-0.6021
727,0.0,0.0,0.0,0.0,0.0,0.0,0.0081,0.9609,0.3272,0.5098,0.4016,-0.4651,-0.6021
728,0.0,0.0,0.0,0.0,0.0,0.0,0.0091,0.9629,0.3301,0.5095,0.4011,-0.4654,-0.6025
729,0.0,0.0,0.0,0.0,0.0,0.0,0.0090,0.9541,0.3257,0.5093,0.4006,-0.4655,-0.6028
730,0.0,0.0,0.0,0.0,0.0,0.0,0.0115,0.9532,0.3233,0.5091,0.4004,-0.4657,-0.6030
731,0.0,0.0,0.0,0.0,0.0,0.0,0.0090,0.9551,0.3243,0.5088,0.4006,-0.4659,-0.6030
732,0.0,0.0,0.0,0.0,0.0,0.0,0.0070,0.9469,0.3218,0.5086,0.4005,-0.4657,-0.6033
733,0.0,0.0,0.0,0.0,0.0,0.0,0.0041,0.9489,0.3204,0.5086,0.4004,-0.4654,-0.6037
734,0.0,0.0,0.0,0.0,0.0,0.0,0.0012,0.9460,0.3174,0.5086,0.4005,-0.4652,-0.6037
735,0.0,0.0,0.0,0.0,0.0,0.0,-0.0008,0.9465,0.3145,0.5086,0.4006,-0.4650,-0.6038
736,0.0,0.0,0.0,0.0,0.0,0.0,-0.0057,0.9359,0.3087,0.5086,0.4008,-0.4649,-0.6038
737,0.0,0.0,0.0,0.0,0.0,0.0,-0.0072,0.9398,0.3082,0.5085,0.4012,-0.4650,-0.6035
738,0.0,0.0,0.0,0.0,0.0,0.0,-0.0110,0.9490,0.3106,0.5083,0.4014,-0.4651,-0.6034
739,0.0,0.0,0.0,0.0,0.0,0.0,-0.0095,0.9481,0.3072,0.5078,0.4016,-0.4655,-0.6034
740,0.0,0.0,0.0,0.0,0.0,0.0,-0.0076,0.9447,0.3058,0.5076,0.4018,-0.4660,-0.6031
741,0.0,0.0,0.0,0.0,0.0,0.0,-0.0042,0.9485,0.3067,0.5074,0.4019,-0.4666,-0.6028
742,0.0,0.0,0.0,0.0,0.0,0.0,-0.0002,0.9586,0.3092,0.5070,0.4019,-0.4672,-0.6026
743,0.0,0.0,0.0,0.0,0.0,0.0,0.0027,0.9601,0.3101,0.5067,0.4016,-0.4677,-0.6027
744,0.0,0.0,0.0,0.0,0.0,0.0,0.0110,0.9556,0.3121,0.5065,0.4010,-0.4682,-0.6029
745,0.0,0.0,0.0,0.0,0.0,0.0,0.0125,0.9614,0.3150,0.5066,0.4003,-0.4686,-0.6030
746,0.0,0.0,0.0,0.0,0.0,0.0,0.0086,0.9619,0.3170,0.5065,0.4001,-0.4688,-0.6030
747,0.0,0.0,0.0,0.0,0.0,0.0,0.0115,0.9638,0.3175,0.5064,0.4000,-0.4689,-0.6031
748,0.0,0.0,0.0,0.0,0.0,0.0,0.0080,0.9445,0.3150,0.5067,0.3997,-0.4687,-0.6032
749,0.0,0.0,0.0,0.0,0.0,0.0,0.0104,0.9396,0.3175,0.5071,0.3993,-0.4686,-0.6032
750,0.0,0.0,0.0,0.0,0.0,0.0,0.0089,0.9319,0.3145,0.5076,0.3991,-0.4685,-0.6029
751,0.0,0.0,0.0,0.0,0.0,0.0,0.0030,0.9281,0.3116,0.5081,0.3991,-0.4686,-0.6025
752,0.0,0.0,0.0,0.0,0.0,0.0,0.0031,0.9349,0.3131,0.5083,0.3988,-0.4687,-0.6024
753,0.0,0.0,0.0,0.0,0.0,0.0,0.0011,0.9363,0.3145,0.5086,0.3985,-0.4690,-0.6022
754,0.0,0.0,0.0,0.0,0.0,0.0,0.0012,0.9460,0.3174,0.5085,0.3980,-0.4694,-0.6023
755,0.0,0.0,0.0,0.0,0.0,0.0,0.0061,0.9484,0.3184,0.5085,0.3973,-0.4697,-0.6025
756,0.0,0.0,0.0,0.0,0.0,0.0,0.0076,0.9571,0.3170,0.5083,0.3973,-0.4704,-0.6021
757,0.0,0.0,0.0,0.0,0.0,0.0,0.0081,0.9644,0.3160,0.5079,0.3975,-0.4711,-0.6017
758,0.0,0.0,0.0,0.0,0.0,0.0,0.0095,0.9522,0.3102,0.5077,0.3974,-0.4714,-0.6017
759,0.0,0.0,0.0,0.0,0.0,0.0,0.0115,0.9542,0.3063,0.5075,0.3973,-0.4720,-0.6015
760,0.0,0.0,0.0,0.0,0.0,0.0,0.0159,0.9638,0.3058,0.5073,0.3970,-0.4725,-0.6015
761,0.0,0.0,0.0,0.0,0.0,0.0,0.0194,0.9701,0.3068,0.5071,0.3965,-0.4729,-0.6017
762,0.0,0.0,0.0,0.0,0.0,0.0,0.0184,0.9745,0.3072,0.5069,0.3963,-0.4733,-0.6017
763,0.0,0.0,0.0,0.0,0.0,0.0,0.0194,0.9662,0.3068,0.5067,0.3958,-0.4734,-0.6020
764,0.0,0.0,0.0,0.0,0.0,0.0,0.0183,0.9522,0.3043,0.5067,0.3953,-0.4732,-0.6026
765,0.0,0.0,0.0,0.0,0.0,0.0,0.0168,0.9420,0.3043,0.5067,0.3949,-0.4728,-0.6031
766,0.0,0.0,0.0,0.0,0.0,0.0,0.0172,0.9377,0.3072,0.5069,0.3945,-0.4727,-0.6033
767,0.0,0.0,0.0,0.0,0.0,0.0,0.0182,0.9309,0.3092,0.5068,0.3944,-0.4727,-0.6034
768,0.0,0.0,0.0,0.0,0.0,0.0,0.0172,0.9357,0.3116,0.5068,0.3942,-0.4727,-0.6036
769,0.0,0.0,0.0,0.0,0.0,0.0,0.0168,0.9381,0.3126,0.5068,0.3941,-0.4729,-0.6035
770,0.0,0.0,0.0,0.0,0.0,0.0,0.0100,0.9450,0.3175,0.5066,0.3945,-0.4732,-0.6032
771,0.0,0.0,0.0,0.0,0.0,0.0,0.0129,0.9415,0.3141,0.5065,0.3947,-0.4734,-0.6029
772,0.0,0.0,0.0,0.0,0.0,0.0,0.0095,0.9527,0.3126,0.5064,0.3948,-0.4736,-0.6028
773,0.0,0.0,0.0,0.0,0.0,0.0,0.0134,0.9459,0.3097,0.5064,0.3951,-0.4740,-0.6023
774,0.0,0.0,0.0,0.0,0.0,0.0,0.0177,0.9352,0.3034,0.5064,0.3952,-0.4744,-0.6019
775,0.0,0.0,0.0,0.0,0.0,0.0,0.0148,0.9420,0.3024,0.5062,0.3954,-0.4747,-0.6017
776,0.0,0.0,0.0,0.0,0.0,0.0,0.0159,0.9595,0.3072,0.5061,0.3956,-0.4752,-0.6013
777,0.0,0.0,0.0,0.0,0.0,0.0,0.0145,0.9619,0.3102,0.5061,0.3960,-0.4759,-0.6005
778,0.0,0.0,0.0,0.0,0.0,0.0,0.0087,0.9760,0.3150,0.5061,0.3963,-0.4762,-0.6000
779,0.0,0.0,0.0,0.0,0.0,0.0,0.0120,0.9542,0.3058,0.5061,0.3966,-0.4765,-0.5996
780,0.0,0.0,0.0,0.0,0.0,0.0,0.0212,0.9507,0.3038,0.5061,0.3967,-0.4769,-0.5992
781,0.0,0.0,0.0,0.0,0.0,0.0,0.0222,0.9589,0.3058,0.5064,0.3967,-0.4770,-0.5988
782,0.0,0.0,0.0,0.0,0.0,0.0,0.0222,0.9483,0.3029,0.5067,0.3970,-0.4774,-0.5981
783,0.0,0.0,0.0,0.0,0.0,0.0,0.0184,0.9696,0.3058,0.5068,0.3973,-0.4776,-0.5976
784,0.0,0.0,0.0,0.0,0.0,0.0,0.0082,0.9707,0.3043,0.5068,0.3977,-0.4772,-0.5977
785,0.0,0.0,0.0,0.0,0.0,0.0,0.0066,0.9567,0.2975,0.5067,0.3981,-0.4767,-0.5979
786,0.0,0.0,0.0,0.0,0.0,0.0,0.0095,0.9455,0.2926,0.5066,0.3985,-0.4764,-0.5980
787,0.0,0.0,0.0,0.0,0.0,0.0,0.0119,0.9440,0.2941,0.5066,0.3986,-0.4765,-0.5979
788,0.0,0.0,0.0,0.0,0.0,0.0,0.0115,0.9499,0.2961,0.5068,0.3987,-0.4764,-0.5977
789,0.0,0.0,0.0,0.0,0.0,0.0,0.0125,0.9542,0.2965,0.5069,0.3989,-0.4762,-0.5976
790,0.0,0.0,0.0,0.0,0.0,0.0,0.0139,0.9537,0.2965,0.5069,0.3992,-0.4762,-0.5974
791,0.0,0.0,0.0,0.0,0.0,0.0,0.0134,0.9556,0.2970,0.5069,0.3994,-0.4762,-0.5973
792,0.0,0.0,0.0,0.0,0.0,0.0,0.0158,0.9498,0.2956,0.5069,0.3994,-0.4762,-0.5973
793,0.0,0.0,0.0,0.0,0.0,0.0,0.0158,0.9450,0.2927,0.5068,0.3995,-0.4765,-0.5971
794,0.0,0.0,0.0,0.0,0.0,0.0,0.0173,0.9474,0.2927,0.5065,0.3996,-0.4769,-0.5969
795,0.0,0.0,0.0,0.0,0.0,0.0,0.0193,0.9498,0.2941,0.5063,0.3996,-0.4772,-0.5969
796,0.0,0.0,0.0,0.0,0.0,0.0,0.0207,0.9483,0.2927,0.5061,0.3995,-0.4776,-0.5968
797,0.0,0.0,0.0,0.0,0.0,0.0,0.0227,0.9561,0.2936,0.5058,0.3995,-0.4780,-0.5967
798,0.0,0.0,0.0,0.0,0.0,0.0,0.0227,0.9575,0.2946,0.5056,0.3993,-0.4783,-0.5968
799,0.0,0.0,0.0,0.0,0.0,0.0,0.0189,0.9643,0.2990,0.5055,0.3990,-0.4785,-0.5969
800,0.0,0.0,0.0,0.0,0.0,0.0,0.0116,0.9697,0.2999,0.5054,0.3990,-0.4786,-0.5970
801,0.0,0.0,0.0,0.0,0.0,0.0,0.0179,0.9624,0.2975,0.5052,0.3989,-0.4787,-0.5970
802,0.0,0.0,0.0,0.0,0.0,0.0,0.0174,0.9726,0.3009,0.5051,0.3992,-0.4792,-0.5966
803,0.0,0.0,0.0,0.0,0.0,0.0,0.0092,0.9794,0.3048,0.5051,0.3995,-0.4789,-0.5966
804,0.0,0.0,0.0,0.0,0.0,0.0,0.0140,0.9702,0.3029,0.5052,0.3993,-0.4783,-0.5971
805,0.0,0.0,0.0,0.0,0.0,0.0,0.0130,0.9634,0.3004,0.5056,0.3991,-0.4776,-0.5975
806,0.0,0.0,0.0,0.0,0.0,0.0,0.0140,0.9634,0.3043,0.5059,0.3988,-0.4770,-0.5979
807,0.0,0.0,0.0,0.0,0.0,0.0,0.0100,0.9591,0.3014,0.5061,0.3990,-0.4765,-0.5980
808,0.0,0.0,0.0,0.0,0.0,0.0,0.0074,0.9174,0.2926,0.5066,0.3988,-0.4760,-0.5981
809,0.0,0.0,0.0,0.0,0.0,0.0,0.0099,0.9377,0.3014,0.5071,0.3984,-0.4759,-0.5980
810,0.0,0.0,0.0,0.0,0.0,0.0,0.0013,0.9678,0.3092,0.5074,0.3983,-0.4758,-0.5979
811,0.0,0.0,0.0,0.0,0.0,0.0,0.0052,0.9634,0.3087,0.5074,0.3981,-0.4758,-0.5981
812,0.0,0.0,0.0,0.0,0.0,0.0,0.0101,0.9639,0.3097,0.5072,0.3980,-0.4758,-0.5983
813,0.0,0.0,0.0,0.0,0.0,0.0,0.0144,0.9546,0.3077,0.5070,0.3977,-0.4758,-0.5986
814,0.0,0.0,0.0,0.0,0.0,0.0,0.0183,0.9507,0.3097,0.5068,0.3974,-0.4759,-0.5990
815,0.0,0.0,0.0,0.0,0.0,0.0,0.0213,0.9579,0.3141,0.5066,0.3969,-0.4757,-0.5996
816,0.0,0.0,0.0,0.0,0.0,0.0,0.0227,0.9603,0.3175,0.5064,0.3959,-0.4750,-0.6010
817,0.0,0.0,0.0,0.0,0.0,0.0,0.0251,0.9531,0.3184,0.5063,0.3951,-0.4744,-0.6021
818,0.0,0.0,0.0,0.0,0.0,0.0,0.0235,0.9313,0.3121,0.5062,0.3948,-0.4739,-0.6028
819,0.0,0.0,0.0,0.0,0.0,0.0,0.0273,0.9085,0.3058,0.5063,0.3944,-0.4736,-0.6031
820,0.0,0.0,0.0,0.0,0.0,0.0,0.0264,0.9269,0.3131,0.5065,0.3943,-0.4736,-0.6031
821,0.0,0.0,0.0,0.0,0.0,0.0,0.0245,0.9230,0.3111,0.5066,0.3939,-0.4736,-0.6032
822,0.0,0.0,0.0,0.0,0.0,0.0,0.0250,0.9230,0.3087,0.5068,0.3937,-0.4738,-0.6030
823,0.0,0.0,0.0,0.0,0.0,0.0,0.0197,0.9362,0.3102,0.5068,0.3939,-0.4743,-0.6025
824,0.0,0.0,0.0,0.0,0.0,0.0,0.0090,0.9435,0.3092,0.5066,0.3946,-0.4746,-0.6020
825,0.0,0.0,0.0,0.0,0.0,0.0,0.0076,0.9503,0.3087,0.5065,0.3951,-0.4748,-0.6016
826,0.0,0.0,0.0,0.0,0.0,0.0,0.0052,0.9591,0.3092,0.5062,0.3959,-0.4749,-0.6013
827,0.0,0.0,0.0,0.0,0.0,0.0,-0.0007,0.9620,0.3058,0.5057,0.3970,-0.4752,-0.6007
828,0.0,0.0,0.0,0.0,0.0,0.0,0.0052,0.9572,0.3014,0.5053,0.3976,-0.4753,-0.6005
829,0.0,0.0,0.0,0.0,0.0,0.0,0.0080,0.9431,0.2956,0.5051,0.3979,-0.4754,-0.6005
830,0.0,0.0,0.0,0.0,0.0,0.0,0.0075,0.9484,0.2965,0.5049,0.3983,-0.4758,-0.6001
831,0.0,0.0,0.0,0.0,0.0,0.0,0.0100,0.9552,0.2995,0.5048,0.3987,-0.4764,-0.5994
832,0.0,0.0,0.0,0.0,0.0,0.0,0.0096,0.9581,0.2995,0.5047,0.3989,-0.4769,-0.5989
833,0.0,0.0,0.0,0.0,0.0,0.0,0.0072,0.9659,0.3029,0.5045,0.3989,-0.4774,-0.5987
834,0.0,0.0,0.0,0.0,0.0,0.0,0.0091,0.9629,0.3038,0.5045,0.3988,-0.4776,-0.5986
835,0.0,0.0,0.0,0.0,0.0,0.0,0.0106,0.9658,0.3033,0.5043,0.3988,-0.4780,-0.5984
836,0.0,0.0,0.0,0.0,0.0,0.0,0.0135,0.9634,0.3024,0.5042,0.3989,-0.4782,-0.5983
837,0.0,0.0,0.0,0.0,0.0,0.0,0.0144,0.9547,0.3019,0.5039,0.3987,-0.4781,-0.5988
838,0.0,0.0,0.0,0.0,0.0,0.0,0.0144,0.9517,0.3019,0.5034,0.3985,-0.4783,-0.5992
839,0.0,0.0,0.0,0.0,0.0,0.0,0.0149,0.9532,0.3029,0.5031,0.3984,-0.4785,-0.5993
840,0.0,0.0,0.0,0.0,0.0,0.0,0.0173,0.9503,0.3034,0.5030,0.3981,-0.4787,-0.5993
841,0.0,0.0,0.0,0.0,0.0,0.0,0.0218,0.9599,0.3072,0.5030,0.3981,-0.4791,-0.5991
842,0.0,0.0,0.0,0.0,0.0,0.0,0.0173,0.9498,0.3043,0.5029,0.3982,-0.4793,-0.5990
843,0.0,0.0,0.0,0.0,0.0,0.0,0.0187,0.9381,0.3004,0.5030,0.3982,-0.4793,-0.5989
844,0.0,0.0,0.0,0.0,0.0,0.0,0.0120,0.9581,0.3063,0.5033,0.3982,-0.4789,-0.5990
845,0.0,0.0,0.0,0.0,0.0,0.0,0.0115,0.9547,0.3014,0.5035,0.3985,-0.4787,-0.5988
846,0.0,0.0,0.0,0.0,0.0,0.0,0.0100,0.9518,0.2970,0.5038,0.3987,-0.4784,-0.5987
847,0.0,0.0,0.0,0.0,0.0,0.0,0.0085,0.9513,0.2956,0.5040,0.3991,-0.4780,-0.5985
848,0.0,0.0,0.0,0.0,0.0,0.0,0.0075,0.9480,0.2931,0.5042,0.3997,-0.4778,-0.5981
849,0.0,0.0,0.0,0.0,0.0,0.0,0.0051,0.9504,0.2926,0.5043,0.4002,-0.4776,-0.5978
850,0.0,0.0,0.0,0.0,0.0,0.0,0.0037,0.9553,0.2926,0.5043,0.4008,-0.4775,-0.5974
851,0.0,0.0,0.0,0.0,0.0,0.0,0.0047,0.9567,0.2956,0.5044,0.4014,-0.4775,-0.5970
852,0.0,0.0,0.0,0.0,0.0,0.0,0.0037,0.9562,0.2946,0.5046,0.4016,-0.4776,-0.5967
853,0.0,0.0,0.0,0.0,0.0,0.0,0.0086,0.9562,0.2917,0.5046,0.4018,-0.4778,-0.5964
854,0.0,0.0,0.0,0.0,0.0,0.0,0.0105,0.9605,0.2912,0.5046,0.4018,-0.4779,-0.5963
855,0.0,0.0,0.0,0.0,0.0,0.0,0.0139,0.9489,0.2883,0.5046,0.4015,-0.4780,-0.5964
856,0.0,0.0,0.0,0.0,0.0,0.0,0.0188,0.9600,0.2907,0.5046,0.4013,-0.4783,-0.5963
857,0.0,0.0,0.0,0.0,0.0,0.0,0.0213,0.9653,0.2897,0.5047,0.4009,-0.4786,-0.5962
858,0.0,0.0,0.0,0.0,0.0,0.0,0.0228,0.9643,0.2878,0.5047,0.4006,-0.4789,-0.5962
859,0.0,0.0,0.0,0.0,0.0,0.0,0.0212,0.9537,0.2834,0.5047,0.4006,-0.4793,-0.5959
860,0.0,0.0,0.0,0.0,0.0,0.0,0.0193,0.9479,0.2820,0.5047,0.4008,-0.4799,-0.5953
861,0.0,0.0,0.0,0.0,0.0,0.0,0.0231,0.9425,0.2834,0.5045,0.4011,-0.4807,-0.5945
862,0.0,0.0,0.0,0.0,0.0,0.0,0.0198,0.9605,0.2878,0.5045,0.4010,-0.4814,-0.5941
863,0.0,0.0,0.0,0.0,0.0,0.0,0.0213,0.9638,0.2897,0.5045,0.4006,-0.4818,-0.5940
864,0.0,0.0,0.0,0.0,0.0,0.0,0.0213,0.9624,0.2922,0.5046,0.4005,-0.4822,-0.5937
865,0.0,0.0,0.0,0.0,0.0,0.0,0.0164,0.9658,0.2926,0.5047,0.4007,-0.4824,-0.5933
866,0.0,0.0,0.0,0.0,0.0,0.0,0.0228,0.9638,0.2927,0.5048,0.4007,-0.4825,-0.5932
867,0.0,0.0,0.0,0.0,0.0,0.0,0.0217,0.9546,0.2883,0.5049,0.4006,-0.4824,-0.5932
868,0.0,0.0,0.0,0.0,0.0,0.0,0.0188,0.9469,0.2795,0.5050,0.4007,-0.4824,-0.5930
869,0.0,0.0,0.0,0.0,0.0,0.0,0.0178,0.9484,0.2785,0.5049,0.4012,-0.4830,-0.5924
870,0.0,0.0,0.0,0.0,0.0,0.0,0.0178,0.9542,0.2810,0.5049,0.4016,-0.4834,-0.5917
871,0.0,0.0,0.0,0.0,0.0,0.0,0.0208,0.9634,0.2834,0.5050,0.4016,-0.4835,-0.5915
872,0.0,0.0,0.0,0.0,0.0,0.0,0.0219,0.9808,0.2873,0.5050,0.4017,-0.4837,-0.5913
873,0.0,0.0,0.0,0.0,0.0,0.0,0.0170,0.9779,0.2863,0.5049,0.4018,-0.4836,-0.5914
874,0.0,0.0,0.0,0.0,0.0,0.0,0.0139,0.9547,0.2737,0.5045,0.4022,-0.4837,-0.5914
875,0.0,0.0,0.0,0.0,0.0,0.0,0.0105,0.9606,0.2717,0.5039,0.4026,-0.4840,-0.5915
876,0.0,0.0,0.0,0.0,0.0,0.0,0.0125,0.9615,0.2722,0.5033,0.4027,-0.4841,-0.5917
877,0.0,0.0,0.0,0.0,0.0,0.0,0.0184,0.9712,0.2747,0.5030,0.4025,-0.4843,-0.5920
878,0.0,0.0,0.0,0.0,0.0,0.0,0.0224,0.9895,0.2815,0.5026,0.4022,-0.4842,-0.5926
879,0.0,0.0,0.0,0.0,0.0,0.0,0.0253,0.9721,0.2747,0.5024,0.4019,-0.4842,-0.5929
880,0.0,0.0,0.0,0.0,0.0,0.0,0.0281,0.9634,0.2713,0.5023,0.4015,-0.4841,-0.5934
881,0.0,0.0,0.0,0.0,0.0,0.0,0.0271,0.9571,0.2717,0.5022,0.4014,-0.4840,-0.5936
882,0.0,0.0,0.0,0.0,0.0,0.0,0.0271,0.9575,0.2766,0.5022,0.4013,-0.4840,-0.5937
883,0.0,0.0,0.0,0.0,0.0,0.0,0.0232,0.9585,0.2815,0.5021,0.4012,-0.4839,-0.5939
884,0.0,0.0,0.0,0.0,0.0,0.0,0.0223,0.9643,0.2854,0.5020,0.4011,-0.4836,-0.5943
885,0.0,0.0,0.0,0.0,0.0,0.0,0.0174,0.9649,0.2844,0.5019,0.4011,-0.4832,-0.5948
886,0.0,0.0,0.0,0.0,0.0,0.0,0.0189,0.9648,0.2863,0.5019,0.4012,-0.4827,-0.5950
887,0.0,0.0,0.0,0.0,0.0,0.0,0.0242,0.9561,0.2873,0.5021,0.4009,-0.4822,-0.5956
888,0.0,0.0,0.0,0.0,0.0,0.0,0.0237,0.9507,0.2878,0.5022,0.4006,-0.4816,-0.5961
889,0.0,0.0,0.0,0.0,0.0,0.0,0.0242,0.9512,0.2922,0.5023,0.4005,-0.4812,-0.5964
890,0.0,0.0,0.0,0.0,0.0,0.0,0.0178,0.9527,0.2961,0.5025,0.4006,-0.4808,-0.5965
891,0.0,0.0,0.0,0.0,0.0,0.0,0.0100,0.9479,0.2975,0.5027,0.4008,-0.4804,-0.5966
892,0.0,0.0,0.0,0.0,0.0,0.0,0.0085,0.9508,0.2995,0.5029,0.4012,-0.4801,-0.5964
893,0.0,0.0,0.0,0.0,0.0,0.0,0.0065,0.9349,0.2922,0.5030,0.4014,-0.4798,-0.5964
894,0.0,0.0,0.0,0.0,0.0,0.0,0.0192,0.9343,0.2951,0.5033,0.4011,-0.4798,-0.5963
895,0.0,0.0,0.0,0.0,0.0,0.0,0.0100,0.9571,0.3009,0.5035,0.4012,-0.4797,-0.5961
896,0.0,0.0,0.0,0.0,0.0,0.0,0.0032,0.9596,0.2965,0.5036,0.4013,-0.4795,-0.5962
897,0.0,0.0,0.0,0.0,0.0,0.0,-0.0018,0.9316,0.2868,0.5033,0.4016,-0.4796,-0.5962
898,0.0,0.0,0.0,0.0,0.0,0.0,0.0019,0.9108,0.2737,0.5027,0.4019,-0.4805,-0.5958
899,0.0,0.0,0.0,0.0,0.0,0.0,0.0038,0.8977,0.2654,0.5022,0.4020,-0.4819,-0.5950
900,0.0,0.0,0.0,0.0,0.0,0.0,0.0149,0.9542,0.2849,0.5020,0.4020,-0.4835,-0.5938
901,0.0,0.0,0.0,0.0,0.0,0.0,0.0195,0.9934,0.2936,0.5021,0.4020,-0.4847,-0.5927
902,0.0,0.0,0.0,0.0,0.0,0.0,0.0205,0.9910,0.2892,0.5021,0.4020,-0.4857,-0.5919
903,0.0,0.0,0.0,0.0,0.0,0.0,0.0239,0.9914,0.2873,0.5024,0.4020,-0.4862,-0.5913
904,0.0,0.0,0.0,0.0,0.0,0.0,0.0234,0.9847,0.2863,0.5026,0.4019,-0.4864,-0.5910
905,0.0,0.0,0.0,0.0,0.0,0.0,0.0145,0.9746,0.2844,0.5027,0.4020,-0.4862,-0.5910
906,0.0,0.0,0.0,0.0,0.0,0.0,0.0088,0.9887,0.2907,0.5028,0.4021,-0.4858,-0.5912
907,0.0,0.0,0.0,0.0,0.0,0.0,0.0081,0.9674,0.2883,0.5027,0.4024,-0.4852,-0.5916
908,0.0,0.0,0.0,0.0,0.0,0.0,0.0212,0.9522,0.2868,0.5027,0.4021,-0.4847,-0.5922
909,0.0,0.0,0.0,0.0,0.0,0.0,0.0218,0.9614,0.2907,0.5029,0.4018,-0.4840,-0.5928
910,0.0,0.0,0.0,0.0,0.0,0.0,0.0296,0.9570,0.2897,0.5032,0.4016,-0.4834,-0.5932
911,0.0,0.0,0.0,0.0,0.0,0.0,0.0223,0.9600,0.2883,0.5034,0.4014,-0.4827,-0.5937
912,0.0,0.0,0.0,0.0,0.0,0.0,0.0189,0.9639,0.2907,0.5035,0.4016,-0.4822,-0.5939
913,0.0,0.0,0.0,0.0,0.0,0.0,0.0237,0.9590,0.2888,0.5036,0.4019,-0.4819,-0.5938
914,0.0,0.0,0.0,0.0,0.0,0.0,0.0212,0.9474,0.2815,0.5037,0.4020,-0.4813,-0.5942
915,0.0,0.0,0.0,0.0,0.0,0.0,0.0197,0.9426,0.2800,0.5036,0.4019,-0.4809,-0.5946
916,0.0,0.0,0.0,0.0,0.0,0.0,0.0236,0.9454,0.2800,0.5036,0.4019,-0.4808,-0.5948
917,0.0,0.0,0.0,0.0,0.0,0.0,0.0237,0.9561,0.2834,0.5035,0.4019,-0.4806,-0.5950
918,0.0,0.0,0.0,0.0,0.0,0.0,0.0237,0.9566,0.2829,0.5034,0.4022,-0.4804,-0.5950
919,0.0,0.0,0.0,0.0,0.0,0.0,0.0246,0.9512,0.2805,0.5033,0.4027,-0.4803,-0.5949
920,0.0,0.0,0.0,0.0,0.0,0.0,0.0223,0.9605,0.2810,0.5030,0.4031,-0.4801,-0.5950
921,0.0,0.0,0.0,0.0,0.0,0.0,0.0189,0.9649,0.2805,0.5028,0.4035,-0.4798,-0.5952
922,0.0,0.0,0.0,0.0,0.0,0.0,0.0125,0.9620,0.2785,0.5024,0.4043,-0.4796,-0.5951
923,0.0,0.0,0.0,0.0,0.0,0.0,0.0081,0.9572,0.2771,0.5020,0.4052,-0.4794,-0.5950
924,0.0,0.0,0.0,0.0,0.0,0.0,0.0071,0.9626,0.2766,0.5017,0.4059,-0.4791,-0.5950
925,0.0,0.0,0.0,0.0,0.0,0.0,-0.0006,0.9665,0.2761,0.5017,0.4064,-0.4787,-0.5950
926,0.0,0.0,0.0,0.0,0.0,0.0,-0.0021,0.9621,0.2766,0.5016,0.4070,-0.4783,-0.5950
927,0.0,0.0,0.0,0.0,0.0,0.0,-0.0026,0.9713,0.2829,0.5016,0.4073,-0.4779,-0.5951
928,0.0,0.0,0.0,0.0,0.0,0.0,-0.0099,0.9709,0.2834,0.5015,0.4080,-0.4772,-0.5952
929,0.0,0.0,0.0,0.0,0.0,0.0,-0.0095,0.9549,0.2805,0.5015,0.4086,-0.4768,-0.5952
930,0.0,0.0,0.0,0.0,0.0,0.0,-0.0100,0.9583,0.2839,0.5015,0.4089,-0.4762,-0.5954
931,0.0,0.0,0.0,0.0,0.0,0.0,-0.0104,0.9670,0.2863,0.5013,0.4093,-0.4757,-0.5957
932,0.0,0.0,0.0,0.0,0.0,0.0,-0.0099,0.9665,0.2868,0.5010,0.4095,-0.4754,-0.5961
933,0.0,0.0,0.0,0.0,0.0,0.0,-0.0085,0.9646,0.2907,0.5008,0.4097,-0.4749,-0.5965
934,0.0,0.0,0.0,0.0,0.0,0.0,-0.0080,0.9583,0.2902,0.5005,0.4098,-0.4745,-0.5970
935,0.0,0.0,0.0,0.0,0.0,0.0,-0.0066,0.9554,0.2912,0.5003,0.4098,-0.4740,-0.5976
936,0.0,0.0,0.0,0.0,0.0,0.0,-0.0042,0.9519,0.2912,0.5000,0.4099,-0.4736,-0.5981
937,0.0,0.0,0.0,0.0,0.0,0.0,-0.0061,0.9486,0.2931,0.4997,0.4100,-0.4732,-0.5986
938,0.0,0.0,0.0,0.0,0.0,0.0,-0.0163,0.9598,0.2999,0.4993,0.4100,-0.4726,-0.5994
939,0.0,0.0,0.0,0.0,0.0,0.0,-0.0178,0.9637,0.3019,0.4989,0.4102,-0.4721,-0.6000
940,0.0,0.0,0.0,0.0,0.0,0.0,-0.0095,0.9554,0.3009,0.4986,0.4102,-0.4717,-0.6005
941,0.0,0.0,0.0,0.0,0.0,0.0,0.0007,0.9528,0.3063,0.4986,0.4097,-0.4714,-0.6012
942,0.0,0.0,0.0,0.0,0.0,0.0,-0.0046,0.9582,0.3082,0.4986,0.4092,-0.4707,-0.6020
943,0.0,0.0,0.0,0.0,0.0,0.0,-0.0013,0.9320,0.3043,0.4986,0.4087,-0.4700,-0.6029
944,0.0,0.0,0.0,0.0,0.0,0.0,-0.0066,0.9461,0.3135,0.4985,0.4085,-0.4694,-0.6036
945,0.0,0.0,0.0,0.0,0.0,0.0,-0.0110,0.9427,0.3121,0.4982,0.4084,-0.4687,-0.6044
946,0.0,0.0,0.0,0.0,0.0,0.0,-0.0115,0.9418,0.3092,0.4980,0.4084,-0.4680,-0.6050
947,0.0,0.0,0.0,0.0,0.0,0.0,-0.0160,0.9331,0.3033,0.4977,0.4085,-0.4676,-0.6056
948,0.0,0.0,0.0,0.0,0.0,0.0,-0.0184,0.9351,0.3028,0.4974,0.4086,-0.4673,-0.6060
949,0.0,0.0,0.0,0.0,0.0,0.0,-0.0242,0.9414,0.3053,0.4972,0.4088,-0.4671,-0.6062
950,0.0,0.0,0.0,0.0,0.0,0.0,-0.0276,0.9424,0.3043,0.4971,0.4090,-0.4669,-0.6063
951,0.0,0.0,0.0,0.0,0.0,0.0,-0.0266,0.9482,0.3053,0.4969,0.4092,-0.4669,-0.6064
952,0.0,0.0,0.0,0.0,0.0,0.0,-0.0295,0.9560,0.3062,0.4967,0.4094,-0.4667,-0.6065
953,0.0,0.0,0.0,0.0,0.0,0.0,-0.0281,0.9463,0.3033,0.4965,0.4096,-0.4666,-0.6066
954,0.0,0.0,0.0,0.0,0.0,0.0,-0.0242,0.9419,0.2989,0.4964,0.4097,-0.4667,-0.6065
955,0.0,0.0,0.0,0.0,0.0,0.0,-0.0189,0.9433,0.2980,0.4964,0.4096,-0.4668,-0.6066
956,0.0,0.0,0.0,0.0,0.0,0.0,-0.0168,0.9520,0.2980,0.4963,0.4095,-0.4673,-0.6064
957,0.0,0.0,0.0,0.0,0.0,0.0,-0.0192,0.9637,0.3004,0.4962,0.4096,-0.4679,-0.6058
958,0.0,0.0,0.0,0.0,0.0,0.0,-0.0193,0.9579,0.3033,0.4964,0.4093,-0.4682,-0.6057
959,0.0,0.0,0.0,0.0,0.0,0.0,-0.0197,0.9637,0.3033,0.4965,0.4090,-0.4684,-0.6057
960,0.0,0.0,0.0,0.0,0.0,0.0,-0.0207,0.9555,0.2985,0.4963,0.4092,-0.4686,-0.6056
961,0.0,0.0,0.0,0.0,0.0,0.0,-0.0135,0.9394,0.2936,0.4963,0.4089,-0.4689,-0.6054
962,0.0,0.0,0.0,0.0,0.0,0.0,-0.0154,0.9409,0.2936,0.4964,0.4085,-0.4694,-0.6053
963,0.0,0.0,0.0,0.0,0.0,0.0,-0.0149,0.9530,0.2960,0.4963,0.4084,-0.4699,-0.6051
964,0.0,0.0,0.0,0.0,0.0,0.0,-0.0124,0.9530,0.2965,0.4961,0.4083,-0.4705,-0.6048
965,0.0,0.0,0.0,0.0,0.0,0.0,-0.0075,0.9587,0.2960,0.4960,0.4082,-0.4712,-0.6044
966,0.0,0.0,0.0,0.0,0.0,0.0,-0.0114,0.9723,0.2970,0.4960,0.4081,-0.4716,-0.6042
967,0.0,0.0,0.0,0.0,0.0,0.0,-0.0086,0.9418,0.2863,0.4958,0.4079,-0.4721,-0.6041
968,0.0,0.0,0.0,0.0,0.0,0.0,-0.0008,0.9461,0.2883,0.4958,0.4079,-0.4730,-0.6034
969,0.0,0.0,0.0,0.0,0.0,0.0,-0.0017,0.9616,0.2917,0.4960,0.4076,-0.4736,-0.6029
970,0.0,0.0,0.0,0.0,0.0,0.0,-0.0050,0.9718,0.2941,0.4963,0.4074,-0.4738,-0.6027
971,0.0,0.0,0.0,0.0,0.0,0.0,-0.0074,0.9723,0.2921,0.4964,0.4074,-0.4738,-0.6025
972,0.0,0.0,0.0,0.0,0.0,0.0,-0.0090,0.9651,0.2873,0.4966,0.4073,-0.4737,-0.6026
973,0.0,0.0,0.0,0.0,0.0,0.0,-0.0148,0.9676,0.2897,0.4968,0.4076,-0.4735,-0.6023
974,0.0,0.0,0.0,0.0,0.0,0.0,-0.0177,0.9705,0.2926,0.4970,0.4080,-0.4735,-0.6019
975,0.0,0.0,0.0,0.0,0.0,0.0,-0.0173,0.9627,0.2912,0.4972,0.4081,-0.4732,-0.6019
976,0.0,0.0,0.0,0.0,0.0,0.0,-0.0188,0.9598,0.2892,0.4975,0.4081,-0.4728,-0.6020
977,0.0,0.0,0.0,0.0,0.0,0.0,-0.0178,0.9579,0.2873,0.4979,0.4082,-0.4727,-0.6017
978,0.0,0.0,0.0,0.0,0.0,0.0,-0.0207,0.9608,0.2887,0.4982,0.4082,-0.4726,-0.6015
979,0.0,0.0,0.0,0.0,0.0,0.0,-0.0212,0.9545,0.2882,0.4984,0.4082,-0.4726,-0.6013
980,0.0,0.0,0.0,0.0,0.0,0.0,-0.0159,0.9448,0.2824,0.4987,0.4080,-0.4727,-0.6011
981,0.0,0.0,0.0,0.0,0.0,0.0,-0.0130,0.9491,0.2848,0.4991,0.4076,-0.4729,-0.6009
982,0.0,0.0,0.0,0.0,0.0,0.0,-0.0100,0.9501,0.2878,0.4994,0.4071,-0.4733,-0.6007
983,0.0,0.0,0.0,0.0,0.0,0.0,-0.0022,0.9548,0.2883,0.4998,0.4063,-0.4737,-0.6007
984,0.0,0.0,0.0,0.0,0.0,0.0,0.0017,0.9572,0.2917,0.5000,0.4056,-0.4742,-0.6005
985,0.0,0.0,0.0,0.0,0.0,0.0,0.0032,0.9582,0.2936,0.5002,0.4050,-0.4748,-0.6003
986,0.0,0.0,0.0,0.0,0.0,0.0,0.0076,0.9562,0.2946,0.5006,0.4042,-0.4753,-0.6000
987,0.0,0.0,0.0,0.0,0.0,0.0,0.0105,0.9508,0.2946,0.5008,0.4038,-0.4760,-0.5996
988,0.0,0.0,0.0,0.0,0.0,0.0,0.0163,0.9416,0.2931,0.5010,0.4033,-0.4767,-0.5992
989,0.0,0.0,0.0,0.0,0.0,0.0,0.0221,0.9420,0.2927,0.5014,0.4024,-0.4772,-0.5992
990,0.0,0.0,0.0,0.0,0.0,0.0,0.0192,0.9469,0.2941,0.5017,0.4020,-0.4777,-0.5987
991,0.0,0.0,0.0,0.0,0.0,0.0,0.0159,0.9547,0.2956,0.5020,0.4021,-0.4782,-0.5980
992,0.0,0.0,0.0,0.0,0.0,0.0,0.0164,0.9537,0.2956,0.5025,0.4021,-0.4785,-0.5974
993,0.0,0.0,0.0,0.0,0.0,0.0,0.0139,0.9552,0.2956,0.5031,0.4024,-0.4789,-0.5963
994,0.0,0.0,0.0,0.0,0.0,0.0,0.0115,0.9605,0.2970,0.5039,0.4027,-0.4790,-0.5955
995,0.0,0.0,0.0,0.0,0.0,0.0,0.0115,0.9600,0.2956,0.5047,0.4030,-0.4789,-0.5946
996,0.0,0.0,0.0,0.0,0.0,0.0,0.0076,0.9586,0.2931,0.5055,0.4037,-0.4789,-0.5934
997,0.0,0.0,0.0,0.0,0.0,0.0,0.0066,0.9567,0.2912,0.5063,0.4040,-0.4787,-0.5927
998,0.0,0.0,0.0,0.0,0.0,0.0,0.0046,0.9538,0.2902,0.5071,0.4041,-0.4785,-0.5921
999,0.0,0.0,0.0,0.0,0.0,0.0,0.0052,0.9664,0.2970,0.5077,0.4043,-0.4781,-0.5918
1000,0.0,0.0,0.0,0.0,0.0,0.0,0.0057,0.9751,0.3024,0.5082,0.4048,-0.4778,-0.5913
1001,0.0,0.0,0.0,0.0,0.0,0.0,0.0049,0.9935,0.3077,0.5086,0.4053,-0.4773,-0.5910
1002,0.0,0.0,0.0,0.0,0.0,0.0,-0.0005,0.9887,0.3048,0.5088,0.4058,-0.4762,-0.5913
1003,0.0,0.0,0.0,0.0,0.0,0.0,-0.0012,0.9490,0.2931,0.5087,0.4059,-0.4751,-0.5922
1004,0.0,0.0,0.0,0.0,0.0,0.0,0.0055,0.9354,0.2936,0.5086,0.4058,-0.4743,-0.5931
1005,0.0,0.0,0.0,0.0,0.0,0.0,0.0047,0.9581,0.3019,0.5083,0.4057,-0.4734,-0.5941
1006,0.0,0.0,0.0,0.0,0.0,0.0,0.0037,0.9639,0.3067,0.5083,0.4057,-0.4725,-0.5948
1007,0.0,0.0,0.0,0.0,0.0,0.0,0.0042,0.9610,0.3077,0.5083,0.4058,-0.4718,-0.5953
1008,0.0,0.0,0.0,0.0,0.0,0.0,0.0021,0.9407,0.3033,0.5082,0.4059,-0.4709,-0.5960
1009,0.0,0.0,0.0,0.0,0.0,0.0,-0.0023,0.9398,0.3043,0.5082,0.4060,-0.4700,-0.5967
1010,0.0,0.0,0.0,0.0,0.0,0.0,-0.0071,0.9432,0.3082,0.5084,0.4061,-0.4692,-0.5971
1011,0.0,0.0,0.0,0.0,0.0,0.0,-0.0086,0.9388,0.3092,0.5086,0.4061,-0.4684,-0.5975
1012,0.0,0.0,0.0,0.0,0.0,0.0,-0.0101,0.9398,0.3097,0.5086,0.4061,-0.4677,-0.5980
1013,0.0,0.0,0.0,0.0,0.0,0.0,-0.0062,0.9437,0.3106,0.5088,0.4062,-0.4675,-0.5980
1014,0.0,0.0,0.0,0.0,0.0,0.0,-0.0096,0.9442,0.3092,0.5089,0.4064,-0.4673,-0.5979
1015,0.0,0.0,0.0,0.0,0.0,0.0,-0.0052,0.9427,0.3067,0.5089,0.4068,-0.4673,-0.5977
1016,0.0,0.0,0.0,0.0,0.0,0.0,-0.0081,0.9495,0.3082,0.5088,0.4072,-0.4674,-0.5973
1017,0.0,0.0,0.0,0.0,0.0,0.0,-0.0100,0.9519,0.3072,0.5088,0.4073,-0.4674,-0.5973
1018,0.0,0.0,0.0,0.0,0.0,0.0,-0.0076,0.9485,0.3058,0.5086,0.4073,-0.4675,-0.5974
1019,0.0,0.0,0.0,0.0,0.0,0.0,-0.0085,0.9553,0.3053,0.5082,0.4075,-0.4675,-0.5976
1020,0.0,0.0,0.0,0.0,0.0,0.0,-0.0085,0.9548,0.3043,0.5080,0.4075,-0.4676,-0.5977
1021,0.0,0.0,0.0,0.0,0.0,0.0,-0.0046,0.9509,0.3043,0.5079,0.4074,-0.4677,-0.5978
1022,0.0,0.0,0.0,0.0,0.0,0.0,-0.0027,0.9500,0.3014,0.5076,0.4072,-0.4679,-0.5981
1023,0.0,0.0,0.0,0.0,0.0,0.0,0.0012,0.9480,0.2985,0.5072,0.4069,-0.4683,-0.5982
1024,0.0,0.0,0.0,0.0,0.0,0.0,0.0022,0.9509,0.3004,0.5067,0.4066,-0.4687,-0.5985
1025,0.0,0.0,0.0,0.0,0.0,0.0,0.0007,0.9504,0.2980,0.5064,0.4061,-0.4689,-0.5990
1026,0.0,0.0,0.0,0.0,0.0,0.0,0.0032,0.9523,0.2975,0.5061,0.4056,-0.4691,-0.5995
1027,0.0,0.0,0.0,0.0,0.0,0.0,0.0046,0.9523,0.2951,0.5056,0.4054,-0.4694,-0.5998
1028,0.0,0.0,0.0,0.0,0.0,0.0,0.0056,0.9475,0.2917,0.5051,0.4053,-0.4698,-0.5999
1029,0.0,0.0,0.0,0.0,0.0,0.0,0.0061,0.9446,0.2883,0.5047,0.4053,-0.4702,-0.5999
1030,0.0,0.0,0.0,0.0,0.0,0.0,0.0075,0.9489,0.2873,0.5043,0.4051,-0.4706,-0.6000
1031,0.0,0.0,0.0,0.0,0.0,0.0,0.0071,0.9567,0.2883,0.5041,0.4049,-0.4711,-0.6000
1032,0.0,0.0,0.0,0.0,0.0,0.0,0.0047,0.9664,0.2897,0.5037,0.4051,-0.4716,-0.5998
1033,0.0,0.0,0.0,0.0,0.0,0.0,0.0042,0.9659,0.2892,0.5037,0.4054,-0.4719,-0.5994
1034,0.0,0.0,0.0,0.0,0.0,0.0,0.0013,0.9708,0.2883,0.5038,0.4055,-0.4718,-0.5993
1035,0.0,0.0,0.0,0.0,0.0,0.0,0.0018,0.9669,0.2868,0.5037,0.4057,-0.4719,-0.5991
1036,0.0,0.0,0.0,0.0,0.0,0.0,0.0008,0.9616,0.2853,0.5038,0.4059,-0.4719,-0.5990
1037,0.0,0.0,0.0,0.0,0.0,0.0,0.0003,0.9626,0.2853,0.5037,0.4059,-0.4717,-0.5992
1038,0.0,0.0,0.0,0.0,0.0,0.0,-0.0002,0.9553,0.2834,0.5036,0.4063,-0.4719,-0.5988
1039,0.0,0.0,0.0,0.0,0.0,0.0,0.0002,0.9413,0.2795,0.5033,0.4064,-0.4720,-0.5989
1040,0.0,0.0,0.0,0.0,0.0,0.0,0.0028,0.9650,0.2926,0.5031,0.4060,-0.4720,-0.5994
1041,0.0,0.0,0.0,0.0,0.0,0.0,0.0039,0.9891,0.3043,0.5028,0.4059,-0.4719,-0.5998
1042,0.0,0.0,0.0,0.0,0.0,0.0,0.0082,0.9697,0.3004,0.5029,0.4057,-0.4715,-0.6001
1043,0.0,0.0,0.0,0.0,0.0,0.0,0.0085,0.9504,0.2956,0.5029,0.4054,-0.4712,-0.6006
1044,0.0,0.0,0.0,0.0,0.0,0.0,0.0076,0.9504,0.2951,0.5030,0.4052,-0.4711,-0.6007
1045,0.0,0.0,0.0,0.0,0.0,0.0,0.0085,0.9494,0.2965,0.5032,0.4051,-0.4710,-0.6007
1046,0.0,0.0,0.0,0.0,0.0,0.0,0.0085,0.9508,0.2995,0.5033,0.4047,-0.4708,-0.6010
1047,0.0,0.0,0.0,0.0,0.0,0.0,0.0086,0.9571,0.3004,0.5035,0.4044,-0.4706,-0.6012
1048,0.0,0.0,0.0,0.0,0.0,0.0,0.0090,0.9528,0.2990,0.5039,0.4040,-0.4704,-0.6013
1049,0.0,0.0,0.0,0.0,0.0,0.0,0.0075,0.9499,0.2985,0.5042,0.4040,-0.4701,-0.6013
1050,0.0,0.0,0.0,0.0,0.0,0.0,0.0046,0.9504,0.2965,0.5045,0.4043,-0.4699,-0.6010
1051,0.0,0.0,0.0,0.0,0.0,0.0,0.0017,0.9519,0.2970,0.5050,0.4046,-0.4696,-0.6006
1052,0.0,0.0,0.0,0.0,0.0,0.0,0.0017,0.9558,0.2965,0.5055,0.4050,-0.4693,-0.6001
1053,0.0,0.0,0.0,0.0,0.0,0.0,-0.0032,0.9500,0.2941,0.5061,0.4053,-0.4690,-0.5998
1054,0.0,0.0,0.0,0.0,0.0,0.0,-0.0037,0.9515,0.2921,0.5065,0.4057,-0.4686,-0.5994
1055,0.0,0.0,0.0,0.0,0.0,0.0,-0.0066,0.9525,0.2897,0.5070,0.4062,-0.4683,-0.5989
1056,0.0,0.0,0.0,0.0,0.0,0.0,-0.0095,0.9549,0.2887,0.5074,0.4067,-0.4680,-0.5984
1057,0.0,0.0,0.0,0.0,0.0,0.0,-0.0105,0.9501,0.2868,0.5078,0.4073,-0.4679,-0.5977
1058,0.0,0.0,0.0,0.0,0.0,0.0,-0.0104,0.9622,0.2902,0.5080,0.4077,-0.4679,-0.5973
1059,0.0,0.0,0.0,0.0,0.0,0.0,-0.0100,0.9568,0.2897,0.5084,0.4080,-0.4678,-0.5969
1060,0.0,0.0,0.0,0.0,0.0,0.0,-0.0070,0.9588,0.2907,0.5087,0.4080,-0.4677,-0.5966
1061,0.0,0.0,0.0,0.0,0.0,0.0,-0.0046,0.9578,0.2926,0.5088,0.4081,-0.4677,-0.5964
1062,0.0,0.0,0.0,0.0,0.0,0.0,-0.0036,0.9582,0.2941,0.5090,0.4082,-0.4675,-0.5964
1063,0.0,0.0,0.0,0.0,0.0,0.0,-0.0017,0.9534,0.2926,0.5092,0.4080,-0.4674,-0.5964
1064,0.0,0.0,0.0,0.0,0.0,0.0,-0.0119,0.9617,0.2946,0.5093,0.4085,-0.4676,-0.5959
1065,0.0,0.0,0.0,0.0,0.0,0.0,-0.0081,0.9500,0.2921,0.5091,0.4090,-0.4676,-0.5957
1066,0.0,0.0,0.0,0.0,0.0,0.0,0.0031,0.9461,0.2902,0.5092,0.4088,-0.4677,-0.5957
1067,0.0,0.0,0.0,0.0,0.0,0.0,-0.0002,0.9538,0.2907,0.5089,0.4090,-0.4682,-0.5955
1068,0.0,0.0,0.0,0.0,0.0,0.0,0.0022,0.9582,0.2926,0.5086,0.4091,-0.4688,-0.5952
1069,0.0,0.0,0.0,0.0,0.0,0.0,0.0041,0.9514,0.2922,0.5085,0.4088,-0.4693,-0.5950
1070,0.0,0.0,0.0,0.0,0.0,0.0,0.0046,0.9432,0.2883,0.5083,0.4088,-0.4698,-0.5948
1071,0.0,0.0,0.0,0.0,0.0,0.0,0.0085,0.9383,0.2839,0.5080,0.4088,-0.4709,-0.5942
1072,0.0,0.0,0.0,0.0,0.0,0.0,0.0094,0.9383,0.2819,0.5080,0.4086,-0.4719,-0.5935
1073,0.0,0.0,0.0,0.0,0.0,0.0,0.0114,0.9470,0.2834,0.5078,0.4082,-0.4729,-0.5933
1074,0.0,0.0,0.0,0.0,0.0,0.0,0.0115,0.9523,0.2844,0.5078,0.4080,-0.4740,-0.5925
1075,0.0,0.0,0.0,0.0,0.0,0.0,0.0105,0.9567,0.2858,0.5076,0.4080,-0.4754,-0.5914
1076,0.0,0.0,0.0,0.0,0.0,0.0,0.0058,0.9853,0.2897,0.5075,0.4079,-0.4764,-0.5908
1077,0.0,0.0,0.0,0.0,0.0,0.0,0.0043,0.9824,0.2858,0.5075,0.4078,-0.4772,-0.5902
1078,0.0,0.0,0.0,0.0,0.0,0.0,0.0071,0.9616,0.2746,0.5072,0.4076,-0.4781,-0.5900
1079,0.0,0.0,0.0,0.0,0.0,0.0,0.0096,0.9606,0.2698,0.5065,0.4072,-0.4792,-0.5900
1080,0.0,0.0,0.0,0.0,0.0,0.0,0.0145,0.9620,0.2693,0.5059,0.4065,-0.4801,-0.5902
1081,0.0,0.0,0.0,0.0,0.0,0.0,0.0184,0.9639,0.2683,0.5053,0.4056,-0.4810,-0.5906
1082,0.0,0.0,0.0,0.0,0.0,0.0,0.0208,0.9649,0.2683,0.5046,0.4049,-0.4821,-0.5908
1083,0.0,0.0,0.0,0.0,0.0,0.0,0.0208,0.9605,0.2674,0.5039,0.4045,-0.4830,-0.5910
1084,0.0,0.0,0.0,0.0,0.0,0.0,0.0252,0.9634,0.2674,0.5031,0.4040,-0.4839,-0.5912
1085,0.0,0.0,0.0,0.0,0.0,0.0,0.0296,0.9575,0.2654,0.5025,0.4036,-0.4849,-0.5911
1086,0.0,0.0,0.0,0.0,0.0,0.0,0.0301,0.9730,0.2703,0.5020,0.4030,-0.4859,-0.5912
1087,0.0,0.0,0.0,0.0,0.0,0.0,0.0341,0.9778,0.2752,0.5016,0.4027,-0.4869,-0.5909
1088,0.0,0.0,0.0,0.0,0.0,0.0,0.0370,0.9725,0.2747,0.5012,0.4024,-0.4878,-0.5906
1089,0.0,0.0,0.0,0.0,0.0,0.0,0.0385,0.9778,0.2790,0.5009,0.4017,-0.4882,-0.5911
1090,0.0,0.0,0.0,0.0,0.0,0.0,0.0370,0.9744,0.2805,0.5006,0.4014,-0.4884,-0.5914
1091,0.0,0.0,0.0,0.0,0.0,0.0,0.0359,0.9618,0.2752,0.5004,0.4015,-0.4886,-0.5913
1092,0.0,0.0,0.0,0.0,0.0,0.0,0.0340,0.9584,0.2742,0.5002,0.4014,-0.4886,-0.5916
1093,0.0,0.0,0.0,0.0,0.0,0.0,0.0261,0.9503,0.2722,0.5000,0.4014,-0.4883,-0.5919
1094,0.0,0.0,0.0,0.0,0.0,0.0,0.0236,0.9469,0.2727,0.4999,0.4016,-0.4883,-0.5920
1095,0.0,0.0,0.0,0.0,0.0,0.0,0.0241,0.9484,0.2713,0.4998,0.4018,-0.4882,-0.5919
1096,0.0,0.0,0.0,0.0,0.0,0.0,0.0222,0.9547,0.2708,0.4998,0.4021,-0.4882,-0.5917
1097,0.0,0.0,0.0,0.0,0.0,0.0,0.0213,0.9615,0.2722,0.4999,0.4024,-0.4882,-0.5915
1098,0.0,0.0,0.0,0.0,0.0,0.0,0.0185,0.9770,0.2771,0.5001,0.4028,-0.4882,-0.5910
1099,0.0,0.0,0.0,0.0,0.0,0.0,0.0160,0.9785,0.2761,0.5002,0.4031,-0.4880,-0.5909
1100,0.0,0.0,0.0,0.0,0.0,0.0,0.0110,0.9524,0.2630,0.5003,0.4036,-0.4876,-0.5909
1101,0.0,0.0,0.0,0.0,0.0,0.0,0.0116,0.9659,0.2664,0.5002,0.4042,-0.4874,-0.5906
1102,0.0,0.0,0.0,0.0,0.0,0.0,0.0093,0.9940,0.2737,0.5004,0.4048,-0.4870,-0.5904
1103,0.0,0.0,0.0,0.0,0.0,0.0,0.0072,0.9805,0.2693,0.5005,0.4052,-0.4865,-0.5904
1104,0.0,0.0,0.0,0.0,0.0,0.0,0.0106,0.9761,0.2703,0.5007,0.4055,-0.4860,-0.5905
1105,0.0,0.0,0.0,0.0,0.0,0.0,0.0096,0.9742,0.2746,0.5008,0.4059,-0.4856,-0.5905
1106,0.0,0.0,0.0,0.0,0.0,0.0,0.0101,0.9708,0.2795,0.5011,0.4061,-0.4849,-0.5906
1107,0.0,0.0,0.0,0.0,0.0,0.0,0.0081,0.9635,0.2805,0.5014,0.4062,-0.4840,-0.5911
1108,0.0,0.0,0.0,0.0,0.0,0.0,0.0085,0.9480,0.2810,0.5014,0.4063,-0.4834,-0.5914
1109,0.0,0.0,0.0,0.0,0.0,0.0,0.0124,0.9417,0.2810,0.5015,0.4063,-0.4831,-0.5916
1110,0.0,0.0,0.0,0.0,0.0,0.0,0.0119,0.9373,0.2785,0.5016,0.4061,-0.4827,-0.5921
1111,0.0,0.0,0.0,0.0,0.0,0.0,0.0119,0.9388,0.2810,0.5017,0.4057,-0.4824,-0.5925
1112,0.0,0.0,0.0,0.0,0.0,0.0,0.0095,0.9431,0.2839,0.5016,0.4055,-0.4822,-0.5928
1113,0.0,0.0,0.0,0.0,0.0,0.0,0.0159,0.9648,0.2936,0.5013,0.4056,-0.4820,-0.5931
1114,0.0,0.0,0.0,0.0,0.0,0.0,0.0170,0.9837,0.2995,0.5012,0.4058,-0.4816,-0.5934
1115,0.0,0.0,0.0,0.0,0.0,0.0,0.0108,0.9993,0.3009,0.5012,0.4061,-0.4808,-0.5939
1116,0.0,0.0,0.0,0.0,0.0,0.0,0.0077,0.9809,0.2941,0.5010,0.4066,-0.4798,-0.5945
1117,0.0,0.0,0.0,0.0,0.0,0.0,0.0038,0.9698,0.2863,0.5007,0.4074,-0.4788,-0.5950
1118,0.0,0.0,0.0,0.0,0.0,0.0,-0.0042,0.9520,0.2800,0.5005,0.4083,-0.4773,-0.5957
1119,0.0,0.0,0.0,0.0,0.0,0.0,-0.0016,0.9674,0.2892,0.5006,0.4090,-0.4758,-0.5964
1120,0.0,0.0,0.0,0.0,0.0,0.0,-0.0152,0.9811,0.2975,0.5010,0.4097,-0.4739,-0.5972
1121,0.0,0.0,0.0,0.0,0.0,0.0,-0.0154,0.9428,0.2931,0.5013,0.4100,-0.4719,-0.5982
1122,0.0,0.0,0.0,0.0,0.0,0.0,-0.0194,0.9346,0.2970,0.5018,0.4103,-0.4700,-0.5991
1123,0.0,0.0,0.0,0.0,0.0,0.0,-0.0219,0.9186,0.2970,0.5025,0.4106,-0.4686,-0.5994
1124,0.0,0.0,0.0,0.0,0.0,0.0,-0.0210,0.9181,0.2985,0.5031,0.4107,-0.4676,-0.5996
1125,0.0,0.0,0.0,0.0,0.0,0.0,-0.0200,0.9215,0.3028,0.5039,0.4107,-0.4669,-0.5996
1126,0.0,0.0,0.0,0.0,0.0,0.0,-0.0195,0.9239,0.3033,0.5046,0.4106,-0.4665,-0.5993
1127,0.0,0.0,0.0,0.0,0.0,0.0,-0.0179,0.9312,0.3067,0.5053,0.4104,-0.4663,-0.5990
1128,0.0,0.0,0.0,0.0,0.0,0.0,-0.0198,0.9452,0.3092,0.5058,0.4102,-0.4662,-0.5989
1129,0.0,0.0,0.0,0.0,0.0,0.0,-0.0183,0.9520,0.3111,0.5062,0.4102,-0.4663,-0.5985
1130,0.0,0.0,0.0,0.0,0.0,0.0,-0.0110,0.9553,0.3101,0.5064,0.4100,-0.4665,-0.5982
1131,0.0,0.0,0.0,0.0,0.0,0.0,-0.0022,0.9495,0.3072,0.5069,0.4096,-0.4667,-0.5979
1132,0.0,0.0,0.0,0.0,0.0,0.0,0.0032,0.9513,0.3087,0.5075,0.4089,-0.4668,-0.5978
1133,0.0,0.0,0.0,0.0,0.0,0.0,0.0032,0.9557,0.3101,0.5080,0.4083,-0.4669,-0.5977
1134,0.0,0.0,0.0,0.0,0.0,0.0,0.0032,0.9644,0.3140,0.5088,0.4079,-0.4670,-0.5972
1135,0.0,0.0,0.0,0.0,0.0,0.0,-0.0011,0.9659,0.3150,0.5093,0.4079,-0.4671,-0.5967
1136,0.0,0.0,0.0,0.0,0.0,0.0,-0.0050,0.9737,0.3126,0.5097,0.4078,-0.4668,-0.5967
1137,0.0,0.0,0.0,0.0,0.0,0.0,-0.0155,0.9293,0.2916,0.5097,0.4080,-0.4666,-0.5966
1138,0.0,0.0,0.0,0.0,0.0,0.0,-0.0136,0.9171,0.2897,0.5095,0.4081,-0.4669,-0.5966
1139,0.0,0.0,0.0,0.0,0.0,0.0,-0.0143,0.9675,0.3023,0.5092,0.4080,-0.4674,-0.5966
1140,0.0,0.0,0.0,0.0,0.0,0.0,-0.0134,0.9607,0.3004,0.5086,0.4079,-0.4679,-0.5966
1141,0.0,0.0,0.0,0.0,0.0,0.0,-0.0027,0.9466,0.2980,0.5082,0.4072,-0.4684,-0.5971
1142,0.0,0.0,0.0,0.0,0.0,0.0,0.0017,0.9533,0.3009,0.5077,0.4064,-0.4689,-0.5976
1143,0.0,0.0,0.0,0.0,0.0,0.0,0.0075,0.9479,0.3038,0.5071,0.4059,-0.4698,-0.5978
1144,0.0,0.0,0.0,0.0,0.0,0.0,0.0100,0.9537,0.3072,0.5068,0.4052,-0.4704,-0.5981
1145,0.0,0.0,0.0,0.0,0.0,0.0,0.0149,0.9629,0.3082,0.5067,0.4043,-0.4708,-0.5985
1146,0.0,0.0,0.0,0.0,0.0,0.0,0.0144,0.9595,0.3087,0.5067,0.4037,-0.4711,-0.5986
1147,0.0,0.0,0.0,0.0,0.0,0.0,0.0076,0.9571,0.3067,0.5068,0.4032,-0.4712,-0.5987
1148,0.0,0.0,0.0,0.0,0.0,0.0,0.0037,0.9543,0.3048,0.5068,0.4027,-0.4713,-0.5990
1149,0.0,0.0,0.0,0.0,0.0,0.0,0.0031,0.9480,0.2999,0.5066,0.4026,-0.4719,-0.5988
1150,0.0,0.0,0.0,0.0,0.0,0.0,0.0036,0.9354,0.2936,0.5064,0.4026,-0.4725,-0.5986
1151,0.0,0.0,0.0,0.0,0.0,0.0,0.0055,0.9281,0.2907,0.5061,0.4022,-0.4731,-0.5985
1152,0.0,0.0,0.0,0.0,0.0,0.0,0.0089,0.9286,0.2892,0.5059,0.4021,-0.4744,-0.5978
1153,0.0,0.0,0.0,0.0,0.0,0.0,0.0152,0.9295,0.2883,0.5056,0.4018,-0.4760,-0.5970
1154,0.0,0.0,0.0,0.0,0.0,0.0,0.0256,0.9405,0.2888,0.5051,0.4013,-0.4778,-0.5963
1155,0.0,0.0,0.0,0.0,0.0,0.0,0.0262,0.9652,0.2980,0.5048,0.4004,-0.4793,-0.5959
1156,0.0,0.0,0.0,0.0,0.0,0.0,0.0224,0.9827,0.3029,0.5045,0.3995,-0.4805,-0.5958
1157,0.0,0.0,0.0,0.0,0.0,0.0,0.0330,0.9550,0.2922,0.5042,0.3990,-0.4820,-0.5952
1158,0.0,0.0,0.0,0.0,0.0,0.0,0.0350,0.9613,0.2936,0.5039,0.3983,-0.4834,-0.5947
1159,0.0,0.0,0.0,0.0,0.0,0.0,0.0379,0.9656,0.2932,0.5036,0.3976,-0.4847,-0.5944
1160,0.0,0.0,0.0,0.0,0.0,0.0,0.0355,0.9744,0.2912,0.5033,0.3970,-0.4858,-0.5942
1161,0.0,0.0,0.0,0.0,0.0,0.0,0.0365,0.9686,0.2859,0.5031,0.3969,-0.4868,-0.5936
1162,0.0,0.0,0.0,0.0,0.0,0.0,0.0368,0.9502,0.2766,0.5030,0.3971,-0.4878,-0.5927
1163,0.0,0.0,0.0,0.0,0.0,0.0,0.0305,0.9483,0.2771,0.5029,0.3969,-0.4886,-0.5924
1164,0.0,0.0,0.0,0.0,0.0,0.0,0.0299,0.9372,0.2737,0.5027,0.3965,-0.4894,-0.5921
1165,0.0,0.0,0.0,0.0,0.0,0.0,0.0344,0.9502,0.2756,0.5026,0.3961,-0.4906,-0.5915
1166,0.0,0.0,0.0,0.0,0.0,0.0,0.0286,0.9575,0.2751,0.5026,0.3957,-0.4918,-0.5907
1167,0.0,0.0,0.0,0.0,0.0,0.0,0.0325,0.9527,0.2683,0.5025,0.3952,-0.4931,-0.5900
1168,0.0,0.0,0.0,0.0,0.0,0.0,0.0364,0.9551,0.2654,0.5024,0.3948,-0.4945,-0.5892
1169,0.0,0.0,0.0,0.0,0.0,0.0,0.0389,0.9618,0.2645,0.5023,0.3943,-0.4959,-0.5885
1170,0.0,0.0,0.0,0.0,0.0,0.0,0.0421,1.0912,0.2625,0.5017,0.3943,-0.4975,-0.5876
1171,0.0,0.0,0.0,0.0,0.0,0.0,0.0453,0.9729,0.2606,0.5017,0.3940,-0.4988,-0.5867
1172,0.0,0.0,0.0,0.0,0.0,0.0,0.0477,0.9763,0.2591,0.5015,0.3939,-0.5002,-0.5858
1173,0.0,0.0,0.0,0.0,0.0,0.0,0.0468,0.9782,0.2606,0.5011,0.3937,-0.5013,-0.5853
1174,0.0,0.0,0.0,0.0,0.0,0.0,0.0488,0.9869,0.2611,0.5007,0.3935,-0.5021,-0.5851
1175,0.0,0.0,0.0,0.0,0.0,0.0,0.0522,0.9879,0.2591,0.5005,0.3933,-0.5027,-0.5850
1176,0.0,0.0,0.0,0.0,0.0,0.0,0.0522,0.9801,0.2562,0.5002,0.3930,-0.5030,-0.5852
1177,0.0,0.0,0.0,0.0,0.0,0.0,0.0503,0.9884,0.2615,0.5000,0.3931,-0.5032,-0.5851
1178,0.0,0.0,0.0,0.0,0.0,0.0,0.0478,0.9874,0.2635,0.4997,0.3933,-0.5031,-0.5852
1179,0.0,0.0,0.0,0.0,0.0,0.0,0.0444,0.9816,0.2635,0.4995,0.3936,-0.5025,-0.5857
1180,0.0,0.0,0.0,0.0,0.0,0.0,0.0458,0.9758,0.2654,0.4994,0.3938,-0.5017,-0.5863
1181,0.0,0.0,0.0,0.0,0.0,0.0,0.0438,0.9628,0.2635,0.4993,0.3942,-0.5010,-0.5867
1182,0.0,0.0,0.0,0.0,0.0,0.0,0.0437,0.9560,0.2630,0.4991,0.3947,-0.5005,-0.5871
1183,0.0,0.0,0.0,0.0,0.0,0.0,0.0403,0.9555,0.2640,0.4989,0.3950,-0.4999,-0.5876
1184,0.0,0.0,0.0,0.0,0.0,0.0,0.0408,0.9536,0.2649,0.4988,0.3953,-0.4994,-0.5878
1185,0.0,0.0,0.0,0.0,0.0,0.0,0.0399,0.9671,0.2698,0.4989,0.3956,-0.4988,-0.5880
1186,0.0,0.0,0.0,0.0,0.0,0.0,0.0419,0.9720,0.2693,0.4991,0.3958,-0.4981,-0.5883
1187,0.0,0.0,0.0,0.0,0.0,0.0,0.0398,0.9555,0.2586,0.4991,0.3961,-0.4974,-0.5887
1188,0.0,0.0,0.0,0.0,0.0,0.0,0.0359,0.9536,0.2538,0.4991,0.3967,-0.4970,-0.5887
1189,0.0,0.0,0.0,0.0,0.0,0.0,0.0325,0.9576,0.2547,0.4989,0.3973,-0.4966,-0.5887
1190,0.0,0.0,0.0,0.0,0.0,0.0,0.0320,0.9595,0.2591,0.4989,0.3977,-0.4962,-0.5888
1191,0.0,0.0,0.0,0.0,0.0,0.0,0.0321,0.9696,0.2640,0.4988,0.3980,-0.4960,-0.5889
1192,0.0,0.0,0.0,0.0,0.0,0.0,0.0330,0.9633,0.2615,0.4987,0.3982,-0.4957,-0.5891
1193,0.0,0.0,0.0,0.0,0.0,0.0,0.0379,0.9560,0.2591,0.4985,0.3983,-0.4955,-0.5893
1194,0.0,0.0,0.0,0.0,0.0,0.0,0.0345,0.9652,0.2669,0.4985,0.3983,-0.4954,-0.5895
1195,0.0,0.0,0.0,0.0,0.0,0.0,0.0355,0.9677,0.2698,0.4986,0.3983,-0.4952,-0.5895
1196,0.0,0.0,0.0,0.0,0.0,0.0,0.0389,0.9691,0.2713,0.4986,0.3984,-0.4951,-0.5896
1197,0.0,0.0,0.0,0.0,0.0,0.0,0.0380,0.9797,0.2761,0.4988,0.3983,-0.4946,-0.5898
1198,0.0,0.0,0.0,0.0,0.0,0.0,0.0292,0.9793,0.2781,0.4989,0.3984,-0.4940,-0.5903
1199,0.0,0.0,0.0,0.0,0.0,0.0,0.0297,0.9764,0.2815,0.4991,0.3983,-0.4932,-0.5908
1200,0.0,0.0,0.0,0.0,0.0,0.0,0.0297,0.9807,0.2878,0.4992,0.3980,-0.4920,-0.5918
1201,0.0,0.0,0.0,0.0,0.0,0.0,0.0282,0.9662,0.2844,0.4993,0.3977,-0.4911,-0.5927
1202,0.0,0.0,0.0,0.0,0.0,0.0,0.0290,0.9439,0.2815,0.4996,0.3973,-0.4899,-0.5938
1203,0.0,0.0,0.0,0.0,0.0,0.0,0.0256,0.9411,0.2800,0.4998,0.3971,-0.4888,-0.5947
1204,0.0,0.0,0.0,0.0,0.0,0.0,0.0236,0.9382,0.2795,0.4999,0.3973,-0.4879,-0.5952
1205,0.0,0.0,0.0,0.0,0.0,0.0,0.0221,0.9382,0.2795,0.5000,0.3978,-0.4874,-0.5951
1206,0.0,0.0,0.0,0.0,0.0,0.0,0.0226,0.9377,0.2781,0.5003,0.3980,-0.4869,-0.5952
1207,0.0,0.0,0.0,0.0,0.0,0.0,0.0202,0.9455,0.2795,0.5004,0.3984,-0.4863,-0.5953
1208,0.0,0.0,0.0,0.0,0.0,0.0,0.0198,0.9498,0.2766,0.5005,0.3989,-0.4859,-0.5952
1209,0.0,0.0,0.0,0.0,0.0,0.0,0.0232,0.9542,0.2732,0.5005,0.3994,-0.4857,-0.5951
1210,0.0,0.0,0.0,0.0,0.0,0.0,0.0286,0.9677,0.2722,0.5004,0.4002,-0.4858,-0.5944
1211,0.0,0.0,0.0,0.0,0.0,0.0,0.0242,0.9658,0.2654,0.5003,0.4015,-0.4860,-0.5935
1212,0.0,0.0,0.0,0.0,0.0,0.0,0.0170,0.9722,0.2708,0.5002,0.4022,-0.4857,-0.5934
1213,0.0,0.0,0.0,0.0,0.0,0.0,0.0126,0.9799,0.2780,0.5003,0.4030,-0.4852,-0.5932
1214,0.0,0.0,0.0,0.0,0.0,0.0,0.0102,0.9766,0.2800,0.5002,0.4040,-0.4848,-0.5930
1215,0.0,0.0,0.0,0.0,0.0,0.0,0.0115,0.9611,0.2742,0.5003,0.4044,-0.4841,-0.5931
1216,0.0,0.0,0.0,0.0,0.0,0.0,0.0168,0.9533,0.2727,0.5003,0.4047,-0.4836,-0.5933
1217,0.0,0.0,0.0,0.0,0.0,0.0,0.0144,0.9567,0.2756,0.5004,0.4048,-0.4832,-0.5934
1218,0.0,0.0,0.0,0.0,0.0,0.0,0.0120,0.9557,0.2790,0.5007,0.4049,-0.4828,-0.5935
1219,0.0,0.0,0.0,0.0,0.0,0.0,0.0129,0.9523,0.2795,0.5009,0.4049,-0.4825,-0.5936
1220,0.0,0.0,0.0,0.0,0.0,0.0,0.0105,0.9504,0.2810,0.5010,0.4051,-0.4822,-0.5936
1221,0.0,0.0,0.0,0.0,0.0,0.0,0.0105,0.9499,0.2810,0.5012,0.4053,-0.4821,-0.5933
1222,0.0,0.0,0.0,0.0,0.0,0.0,0.0100,0.9538,0.2834,0.5015,0.4053,-0.4820,-0.5933
1223,0.0,0.0,0.0,0.0,0.0,0.0,0.0095,0.9489,0.2819,0.5019,0.4053,-0.4818,-0.5930
1224,0.0,0.0,0.0,0.0,0.0,0.0,0.0095,0.9485,0.2795,0.5021,0.4057,-0.4819,-0.5925
1225,0.0,0.0,0.0,0.0,0.0,0.0,0.0081,0.9591,0.2805,0.5024,0.4059,-0.4819,-0.5922
1226,0.0,0.0,0.0,0.0,0.0,0.0,0.0071,0.9533,0.2771,0.5027,0.4061,-0.4819,-0.5917
1227,0.0,0.0,0.0,0.0,0.0,0.0,0.0076,0.9499,0.2771,0.5029,0.4062,-0.4821,-0.5913
1228,0.0,0.0,0.0,0.0,0.0,0.0,0.0062,0.9611,0.2746,0.5030,0.4066,-0.4823,-0.5909
1229,0.0,0.0,0.0,0.0,0.0,0.0,0.0071,0.9538,0.2746,0.5030,0.4072,-0.4827,-0.5901
1230,0.0,0.0,0.0,0.0,0.0,0.0,0.0077,0.9717,0.2795,0.5031,0.4079,-0.4830,-0.5893
1231,0.0,0.0,0.0,0.0,0.0,0.0,0.0098,0.9988,0.2883,0.5029,0.4083,-0.4832,-0.5890
1232,0.0,0.0,0.0,0.0,0.0,0.0,0.0057,0.9747,0.2844,0.5031,0.4085,-0.4831,-0.5888
1233,0.0,0.0,0.0,0.0,0.0,0.0,0.0085,0.9533,0.2751,0.5032,0.4085,-0.4829,-0.5888
1234,0.0,0.0,0.0,0.0,0.0,0.0,0.0091,0.9640,0.2761,0.5033,0.4087,-0.4829,-0.5886
1235,0.0,0.0,0.0,0.0,0.0,0.0,0.0096,0.9645,0.2742,0.5031,0.4089,-0.4829,-0.5886
1236,0.0,0.0,0.0,0.0,0.0,0.0,0.0135,0.9640,0.2712,0.5030,0.4089,-0.4828,-0.5888
1237,0.0,0.0,0.0,0.0,0.0,0.0,0.0154,0.9586,0.2712,0.5027,0.4090,-0.4828,-0.5890
1238,0.0,0.0,0.0,0.0,0.0,0.0,0.0203,0.9610,0.2747,0.5028,0.4089,-0.4829,-0.5890
1239,0.0,0.0,0.0,0.0,0.0,0.0,0.0228,0.9624,0.2761,0.5030,0.4088,-0.4830,-0.5887
1240,0.0,0.0,0.0,0.0,0.0,0.0,0.0218,0.9615,0.2761,0.5032,0.4088,-0.4831,-0.5885
1241,0.0,0.0,0.0,0.0,0.0,0.0,0.0223,0.9648,0.2785,0.5036,0.4084,-0.4830,-0.5884
1242,0.0,0.0,0.0,0.0,0.0,0.0,0.0242,0.9580,0.2761,0.5042,0.4081,-0.4827,-0.5884
1243,0.0,0.0,0.0,0.0,0.0,0.0,0.0178,0.9455,0.2732,0.5046,0.4079,-0.4824,-0.5884
1244,0.0,0.0,0.0,0.0,0.0,0.0,0.0130,0.9596,0.2834,0.5050,0.4079,-0.4822,-0.5883
1245,0.0,0.0,0.0,0.0,0.0,0.0,0.0194,0.9687,0.2892,0.5057,0.4079,-0.4818,-0.5880
1246,0.0,0.0,0.0,0.0,0.0,0.0,0.0198,0.9537,0.2839,0.5065,0.4077,-0.4814,-0.5878
1247,0.0,0.0,0.0,0.0,0.0,0.0,0.0091,0.9577,0.2829,0.5071,0.4078,-0.4808,-0.5877
1248,0.0,0.0,0.0,0.0,0.0,0.0,0.0062,0.9620,0.2849,0.5075,0.4083,-0.4802,-0.5875
1249,0.0,0.0,0.0,0.0,0.0,0.0,0.0036,0.9500,0.2785,0.5078,0.4088,-0.4798,-0.5873
1250,0.0,0.0,0.0,0.0,0.0,0.0,0.0002,0.9457,0.2741,0.5079,0.4091,-0.4795,-0.5871
1251,0.0,0.0,0.0,0.0,0.0,0.0,0.0032,0.9524,0.2737,0.5079,0.4093,-0.4795,-0.5870
1252,0.0,0.0,0.0,0.0,0.0,0.0,0.0061,0.9572,0.2732,0.5076,0.4096,-0.4800,-0.5867
1253,0.0,0.0,0.0,0.0,0.0,0.0,0.0096,0.9664,0.2751,0.5073,0.4096,-0.4805,-0.5865
1254,0.0,0.0,0.0,0.0,0.0,0.0,0.0170,0.9736,0.2790,0.5071,0.4094,-0.4809,-0.5865
1255,0.0,0.0,0.0,0.0,0.0,0.0,0.0234,0.9837,0.2839,0.5068,0.4092,-0.4812,-0.5866
1256,0.0,0.0,0.0,0.0,0.0,0.0,0.0244,0.9953,0.2844,0.5066,0.4092,-0.4811,-0.5869
1257,0.0,0.0,0.0,0.0,0.0,0.0,0.0181,0.9973,0.2834,0.5062,0.4091,-0.4806,-0.5877
1258,0.0,0.0,0.0,0.0,0.0,0.0,0.0122,1.0008,0.2853,0.5057,0.4092,-0.4799,-0.5887
1259,0.0,0.0,0.0,0.0,0.0,0.0,0.0058,0.9897,0.2824,0.5049,0.4091,-0.4789,-0.5903
1260,0.0,0.0,0.0,0.0,0.0,0.0,0.0091,0.9659,0.2815,0.5042,0.4087,-0.4777,-0.5921
1261,0.0,0.0,0.0,0.0,0.0,0.0,0.0129,0.9523,0.2863,0.5038,0.4080,-0.4765,-0.5939
1262,0.0,0.0,0.0,0.0,0.0,0.0,0.0079,0.9257,0.2795,0.5034,0.4073,-0.4756,-0.5954
1263,0.0,0.0,0.0,0.0,0.0,0.0,0.0088,0.9121,0.2776,0.5030,0.4067,-0.4750,-0.5966
1264,0.0,0.0,0.0,0.0,0.0,0.0,0.0109,0.9344,0.2858,0.5026,0.4060,-0.4748,-0.5976
1265,0.0,0.0,0.0,0.0,0.0,0.0,0.0104,0.9368,0.2873,0.5023,0.4053,-0.4746,-0.5985
1266,0.0,0.0,0.0,0.0,0.0,0.0,0.0103,0.9266,0.2819,0.5022,0.4051,-0.4747,-0.5987
1267,0.0,0.0,0.0,0.0,0.0,0.0,0.0084,0.9281,0.2790,0.5017,0.4053,-0.4752,-0.5985
1268,0.0,0.0,0.0,0.0,0.0,0.0,0.0075,0.9344,0.2810,0.5015,0.4052,-0.4756,-0.5985
1269,0.0,0.0,0.0,0.0,0.0,0.0,0.0085,0.9504,0.2883,0.5014,0.4052,-0.4760,-0.5982
1270,0.0,0.0,0.0,0.0,0.0,0.0,0.0043,0.9780,0.2975,0.5015,0.4056,-0.4764,-0.5975
1271,0.0,0.0,0.0,0.0,0.0,0.0,0.0037,0.9664,0.2902,0.5015,0.4062,-0.4766,-0.5969
1272,0.0,0.0,0.0,0.0,0.0,0.0,0.0081,0.9616,0.2815,0.5013,0.4067,-0.4766,-0.5968
1273,0.0,0.0,0.0,0.0,0.0,0.0,0.0071,0.9543,0.2780,0.5014,0.4071,-0.4769,-0.5961
1274,0.0,0.0,0.0,0.0,0.0,0.0,0.0046,0.9529,0.2795,0.5015,0.4076,-0.4773,-0.5954
1275,0.0,0.0,0.0,0.0,0.0,0.0,0.0013,0.9616,0.2834,0.5017,0.4079,-0.4776,-0.5948
1276,0.0,0.0,0.0,0.0,0.0,0.0,-0.0051,0.9641,0.2834,0.5016,0.4084,-0.4778,-0.5945
1277,0.0,0.0,0.0,0.0,0.0,0.0,-0.0021,0.9679,0.2844,0.5015,0.4088,-0.4781,-0.5940
1278,0.0,0.0,0.0,0.0,0.0,0.0,-0.0030,0.9752,0.2824,0.5014,0.4090,-0.4782,-0.5938
1279,0.0,0.0,0.0,0.0,0.0,0.0,0.0007,0.9554,0.2717,0.5013,0.4092,-0.4783,-0.5937
1280,0.0,0.0,0.0,0.0,0.0,0.0,0.0003,0.9646,0.2746,0.5011,0.4093,-0.4784,-0.5937
1281,0.0,0.0,0.0,0.0,0.0,0.0,-0.0011,0.9684,0.2756,0.5007,0.4099,-0.4789,-0.5932
1282,0.0,0.0,0.0,0.0,0.0,0.0,-0.0021,0.9665,0.2727,0.5005,0.4104,-0.4792,-0.5928
1283,0.0,0.0,0.0,0.0,0.0,0.0,0.0013,0.9631,0.2751,0.5004,0.4103,-0.4793,-0.5929
1284,0.0,0.0,0.0,0.0,0.0,0.0,0.0008,0.9641,0.2766,0.5003,0.4105,-0.4796,-0.5927
1285,0.0,0.0,0.0,0.0,0.0,0.0,0.0013,0.9650,0.2766,0.5003,0.4104,-0.4797,-0.5926
1286,0.0,0.0,0.0,0.0,0.0,0.0,0.0042,0.9660,0.2746,0.5004,0.4102,-0.4797,-0.5927
1287,0.0,0.0,0.0,0.0,0.0,0.0,0.0018,0.9665,0.2771,0.5003,0.4105,-0.4800,-0.5923
1288,0.0,0.0,0.0,0.0,0.0,0.0,0.0028,0.9650,0.2790,0.5005,0.4106,-0.4801,-0.5919
1289,0.0,0.0,0.0,0.0,0.0,0.0,0.0042,0.9592,0.2780,0.5009,0.4104,-0.4800,-0.5919
1290,0.0,0.0,0.0,0.0,0.0,0.0,0.0066,0.9558,0.2805,0.5012,0.4103,-0.4800,-0.5918
1291,0.0,0.0,0.0,0.0,0.0,0.0,0.0076,0.9514,0.2815,0.5013,0.4102,-0.4800,-0.5917
1292,0.0,0.0,0.0,0.0,0.0,0.0,0.0100,0.9562,0.2834,0.5014,0.4101,-0.4801,-0.5916
1293,0.0,0.0,0.0,0.0,0.0,0.0,0.0066,0.9572,0.2839,0.5015,0.4099,-0.4800,-0.5916
1294,0.0,0.0,0.0,0.0,0.0,0.0,0.0033,0.9722,0.2897,0.5017,0.4099,-0.4798,-0.5917
1295,0.0,0.0,0.0,0.0,0.0,0.0,0.0047,0.9596,0.2868,0.5021,0.4099,-0.4795,-0.5915
1296,0.0,0.0,0.0,0.0,0.0,0.0,0.0057,0.9621,0.2853,0.5024,0.4101,-0.4793,-0.5913
1297,0.0,0.0,0.0,0.0,0.0,0.0,0.0018,0.9752,0.2887,0.5026,0.4103,-0.4789,-0.5914
1298,0.0,0.0,0.0,0.0,0.0,0.0,-0.0001,0.9694,0.2868,0.5028,0.4105,-0.4783,-0.5916
1299,0.0,0.0,0.0,0.0,0.0,0.0,0.0056,0.9475,0.2824,0.5032,0.4103,-0.4780,-0.5916
1300,0.0,0.0,0.0,0.0,0.0,0.0,0.0042,0.9621,0.2844,0.5033,0.4103,-0.4777,-0.5917
1301,0.0,0.0,0.0,0.0,0.0,0.0,-0.0011,0.9665,0.2839,0.5033,0.4104,-0.4773,-0.5920
1302,0.0,0.0,0.0,0.0,0.0,0.0,-0.0002,0.9626,0.2844,0.5034,0.4104,-0.4768,-0.5923
1303,0.0,0.0,0.0,0.0,0.0,0.0,-0.0026,0.9665,0.2883,0.5036,0.4105,-0.4763,-0.5925
1304,0.0,0.0,0.0,0.0,0.0,0.0,-0.0012,0.9631,0.2887,0.5037,0.4106,-0.4757,-0.5927
1305,0.0,0.0,0.0,0.0,0.0,0.0,0.0042,0.9567,0.2873,0.5039,0.4104,-0.4752,-0.5932
1306,0.0,0.0,0.0,0.0,0.0,0.0,0.0056,0.9553,0.2868,0.5040,0.4102,-0.4747,-0.5937
1307,0.0,0.0,0.0,0.0,0.0,0.0,-0.0041,0.9660,0.2936,0.5040,0.4103,-0.4742,-0.5939
1308,0.0,0.0,0.0,0.0,0.0,0.0,-0.0090,0.9563,0.2931,0.5040,0.4103,-0.4734,-0.5946
1309,0.0,0.0,0.0,0.0,0.0,0.0,-0.0129,0.9535,0.2936,0.5039,0.4103,-0.4725,-0.5954
1310,0.0,0.0,0.0,0.0,0.0,0.0,-0.0100,0.9510,0.2960,0.5037,0.4102,-0.4719,-0.5960
1311,0.0,0.0,0.0,0.0,0.0,0.0,-0.0086,0.9500,0.2975,0.5039,0.4100,-0.4713,-0.5965
1312,0.0,0.0,0.0,0.0,0.0,0.0,-0.0086,0.9432,0.2970,0.5039,0.4099,-0.4710,-0.5969
1313,0.0,0.0,0.0,0.0,0.0,0.0,-0.0057,0.9432,0.2990,0.5039,0.4098,-0.4709,-0.5970
1314,0.0,0.0,0.0,0.0,0.0,0.0,-0.0066,0.9466,0.2999,0.5040,0.4096,-0.4706,-0.5973
1315,0.0,0.0,0.0,0.0,0.0,0.0,-0.0017,0.9495,0.3014,0.5042,0.4092,-0.4703,-0.5976
1316,0.0,0.0,0.0,0.0,0.0,0.0,0.0031,0.9441,0.3019,0.5044,0.4087,-0.4702,-0.5979
1317,0.0,0.0,0.0,0.0,0.0,0.0,0.0036,0.9475,0.3048,0.5048,0.4081,-0.4702,-0.5980
1318,0.0,0.0,0.0,0.0,0.0,0.0,0.0041,0.9523,0.3097,0.5051,0.4077,-0.4701,-0.5981
1319,0.0,0.0,0.0,0.0,0.0,0.0,0.0026,0.9455,0.3082,0.5054,0.4076,-0.4701,-0.5979
1320,0.0,0.0,0.0,0.0,0.0,0.0,0.0046,0.9470,0.3087,0.5056,0.4074,-0.4702,-0.5977
1321,0.0,0.0,0.0,0.0,0.0,0.0,0.0075,0.9494,0.3092,0.5060,0.4072,-0.4702,-0.5975
1322,0.0,0.0,0.0,0.0,0.0,0.0,0.0080,0.9494,0.3072,0.5064,0.4073,-0.4703,-0.5970
1323,0.0,0.0,0.0,0.0,0.0,0.0,0.0081,0.9547,0.3033,0.5068,0.4075,-0.4702,-0.5967
1324,0.0,0.0,0.0,0.0,0.0,0.0,0.0080,0.9421,0.3029,0.5073,0.4074,-0.4698,-0.5966
1325,0.0,0.0,0.0,0.0,0.0,0.0,0.0095,0.9513,0.3048,0.5076,0.4075,-0.4697,-0.5964
1326,0.0,0.0,0.0,0.0,0.0,0.0,0.0026,0.9339,0.2985,0.5080,0.4082,-0.4697,-0.5955
1327,0.0,0.0,0.0,0.0,0.0,0.0,0.0022,0.9581,0.3053,0.5087,0.4087,-0.4696,-0.5947
1328,0.0,0.0,0.0,0.0,0.0,0.0,-0.0027,0.9456,0.3004,0.5092,0.4091,-0.4692,-0.5943
1329,0.0,0.0,0.0,0.0,0.0,0.0,-0.0090,0.9510,0.2975,0.5096,0.4099,-0.4689,-0.5936
1330,0.0,0.0,0.0,0.0,0.0,0.0,-0.0090,0.9549,0.2946,0.5099,0.4108,-0.4686,-0.5930
1331,0.0,0.0,0.0,0.0,0.0,0.0,-0.0096,0.9467,0.2907,0.5101,0.4117,-0.4685,-0.5923
1332,0.0,0.0,0.0,0.0,0.0,0.0,-0.0120,0.9530,0.2902,0.5103,0.4125,-0.4684,-0.5917
1333,0.0,0.0,0.0,0.0,0.0,0.0,-0.0169,0.9511,0.2878,0.5104,0.4133,-0.4683,-0.5911
1334,0.0,0.0,0.0,0.0,0.0,0.0,-0.0183,0.9506,0.2878,0.5104,0.4142,-0.4685,-0.5903
1335,0.0,0.0,0.0,0.0,0.0,0.0,-0.0188,0.9502,0.2843,0.5102,0.4150,-0.4688,-0.5897
1336,0.0,0.0,0.0,0.0,0.0,0.0,-0.0169,0.9424,0.2775,0.5099,0.4159,-0.4694,-0.5888
1337,0.0,0.0,0.0,0.0,0.0,0.0,-0.0115,0.9462,0.2771,0.5096,0.4166,-0.4702,-0.5879
1338,0.0,0.0,0.0,0.0,0.0,0.0,-0.0173,0.9623,0.2780,0.5091,0.4174,-0.4712,-0.5870
1339,0.0,0.0,0.0,0.0,0.0,0.0,-0.0143,0.9656,0.2771,0.5087,0.4181,-0.4722,-0.5860
1340,0.0,0.0,0.0,0.0,0.0,0.0,-0.0094,0.9675,0.2751,0.5085,0.4186,-0.4732,-0.5850
1341,0.0,0.0,0.0,0.0,0.0,0.0,-0.0123,0.9700,0.2766,0.5082,0.4191,-0.4741,-0.5842
1342,0.0,0.0,0.0,0.0,0.0,0.0,-0.0114,0.9710,0.2761,0.5081,0.4193,-0.4747,-0.5837
1343,0.0,0.0,0.0,0.0,0.0,0.0,-0.0098,0.9889,0.2819,0.5080,0.4196,-0.4756,-0.5828
1344,0.0,0.0,0.0,0.0,0.0,0.0,-0.0048,1.0062,0.2873,0.5081,0.4197,-0.4761,-0.5823
1345,0.0,0.0,0.0,0.0,0.0,0.0,-0.0028,1.0106,0.2839,0.5082,0.4195,-0.4758,-0.5825
1346,0.0,0.0,0.0,0.0,0.0,0.0,-0.0103,0.9884,0.2732,0.5080,0.4196,-0.4754,-0.5830
1347,0.0,0.0,0.0,0.0,0.0,0.0,-0.0099,0.9758,0.2678,0.5078,0.4196,-0.4749,-0.5836
1348,0.0,0.0,0.0,0.0,0.0,0.0,-0.0129,0.9637,0.2644,0.5074,0.4196,-0.4744,-0.5844
1349,0.0,0.0,0.0,0.0,0.0,0.0,-0.0139,0.9618,0.2659,0.5070,0.4194,-0.4739,-0.5852
1350,0.0,0.0,0.0,0.0,0.0,0.0,-0.0149,0.9570,0.2683,0.5065,0.4193,-0.4736,-0.5859
1351,0.0,0.0,0.0,0.0,0.0,0.0,-0.0135,0.9434,0.2698,0.5060,0.4191,-0.4736,-0.5866
1352,0.0,0.0,0.0,0.0,0.0,0.0,-0.0155,0.9371,0.2717,0.5055,0.4185,-0.4734,-0.5875
1353,0.0,0.0,0.0,0.0,0.0,0.0,-0.0077,0.9249,0.2707,0.5050,0.4180,-0.4740,-0.5879
1354,0.0,0.0,0.0,0.0,0.0,0.0,-0.0047,0.9346,0.2756,0.5045,0.4170,-0.4748,-0.5883
1355,0.0,0.0,0.0,0.0,0.0,0.0,0.0060,0.9427,0.2800,0.5042,0.4158,-0.4758,-0.5887
1356,0.0,0.0,0.0,0.0,0.0,0.0,0.0129,0.9504,0.2824,0.5038,0.4147,-0.4770,-0.5887
1357,0.0,0.0,0.0,0.0,0.0,0.0,0.0174,0.9590,0.2873,0.5037,0.4136,-0.4780,-0.5889
1358,0.0,0.0,0.0,0.0,0.0,0.0,0.0218,0.9619,0.2917,0.5036,0.4124,-0.4788,-0.5891
1359,0.0,0.0,0.0,0.0,0.0,0.0,0.0218,0.9706,0.2927,0.5037,0.4116,-0.4794,-0.5891
1360,0.0,0.0,0.0,0.0,0.0,0.0,0.0184,0.9726,0.2902,0.5039,0.4110,-0.4796,-0.5891
1361,0.0,0.0,0.0,0.0,0.0,0.0,0.0184,0.9697,0.2907,0.5043,0.4104,-0.4797,-0.5891
1362,0.0,0.0,0.0,0.0,0.0,0.0,0.0193,0.9576,0.2897,0.5047,0.4100,-0.4796,-0.5892
1363,0.0,0.0,0.0,0.0,0.0,0.0,0.0120,0.9600,0.2897,0.5050,0.4100,-0.4794,-0.5891
1364,0.0,0.0,0.0,0.0,0.0,0.0,0.0066,0.9562,0.2892,0.5053,0.4102,-0.4792,-0.5888
1365,0.0,0.0,0.0,0.0,0.0,0.0,0.0066,0.9601,0.2936,0.5057,0.4105,-0.4790,-0.5886
1366,0.0,0.0,0.0,0.0,0.0,0.0,0.0017,0.9592,0.2936,0.5059,0.4110,-0.4786,-0.5882
1367,0.0,0.0,0.0,0.0,0.0,0.0,0.0007,0.9524,0.2883,0.5061,0.4113,-0.4783,-0.5882
1368,0.0,0.0,0.0,0.0,0.0,0.0,0.0046,0.9509,0.2863,0.5064,0.4116,-0.4780,-0.5879
1369,0.0,0.0,0.0,0.0,0.0,0.0,0.0075,0.9494,0.2819,0.5067,0.4119,-0.4778,-0.5875
1370,0.0,0.0,0.0,0.0,0.0,0.0,0.0076,0.9528,0.2805,0.5071,0.4123,-0.4776,-0.5871
1371,0.0,0.0,0.0,0.0,0.0,0.0,0.0003,0.9597,0.2819,0.5075,0.4129,-0.4774,-0.5866
1372,0.0,0.0,0.0,0.0,0.0,0.0,-0.0031,0.9597,0.2805,0.5079,0.4133,-0.4772,-0.5860
1373,0.0,0.0,0.0,0.0,0.0,0.0,-0.0026,0.9670,0.2824,0.5081,0.4138,-0.4773,-0.5855
1374,0.0,0.0,0.0,0.0,0.0,0.0,-0.0041,0.9631,0.2805,0.5083,0.4141,-0.4774,-0.5850
1375,0.0,0.0,0.0,0.0,0.0,0.0,-0.0008,0.9462,0.2712,0.5083,0.4144,-0.4777,-0.5846
1376,0.0,0.0,0.0,0.0,0.0,0.0,0.0002,0.9428,0.2678,0.5082,0.4143,-0.4782,-0.5843
1377,0.0,0.0,0.0,0.0,0.0,0.0,0.0051,0.9442,0.2654,0.5082,0.4140,-0.4790,-0.5840
1378,0.0,0.0,0.0,0.0,0.0,0.0,0.0100,0.9442,0.2615,0.5080,0.4137,-0.4800,-0.5835
1379,0.0,0.0,0.0,0.0,0.0,0.0,0.0110,0.9543,0.2591,0.5076,0.4133,-0.4811,-0.5832
1380,0.0,0.0,0.0,0.0,0.0,0.0,0.0140,0.9587,0.2586,0.5069,0.4131,-0.4824,-0.5828
1381,0.0,0.0,0.0,0.0,0.0,0.0,0.0262,0.9692,0.2586,0.5064,0.4128,-0.4838,-0.5822
1382,0.0,0.0,0.0,0.0,0.0,0.0,0.0263,0.9823,0.2625,0.5061,0.4123,-0.4851,-0.5819
1383,0.0,0.0,0.0,0.0,0.0,0.0,0.0283,0.9876,0.2654,0.5057,0.4119,-0.4861,-0.5816
1384,0.0,0.0,0.0,0.0,0.0,0.0,0.0316,0.9750,0.2606,0.5056,0.4117,-0.4870,-0.5811
1385,0.0,0.0,0.0,0.0,0.0,0.0,0.0350,0.9643,0.2557,0.5055,0.4116,-0.4879,-0.5805
1386,0.0,0.0,0.0,0.0,0.0,0.0,0.0380,0.9720,0.2606,0.5057,0.4114,-0.4887,-0.5798
1387,0.0,0.0,0.0,0.0,0.0,0.0,0.0326,0.9721,0.2606,0.5061,0.4112,-0.4891,-0.5792
1388,0.0,0.0,0.0,0.0,0.0,0.0,0.0296,0.9711,0.2620,0.5063,0.4111,-0.4893,-0.5789
1389,0.0,0.0,0.0,0.0,0.0,0.0,0.0262,0.9721,0.2640,0.5065,0.4110,-0.4893,-0.5789
1390,0.0,0.0,0.0,0.0,0.0,0.0,0.0248,0.9750,0.2630,0.5065,0.4112,-0.4894,-0.5787
1391,0.0,0.0,0.0,0.0,0.0,0.0,0.0228,0.9659,0.2576,0.5066,0.4117,-0.4896,-0.5781
1392,0.0,0.0,0.0,0.0,0.0,0.0,0.0145,0.9626,0.2557,0.5064,0.4119,-0.4895,-0.5782
1393,0.0,0.0,0.0,0.0,0.0,0.0,0.0165,0.9741,0.2674,0.5062,0.4120,-0.4894,-0.5784
1394,0.0,0.0,0.0,0.0,0.0,0.0,0.0161,0.9959,0.2703,0.5061,0.4124,-0.4892,-0.5783
1395,0.0,0.0,0.0,0.0,0.0,0.0,0.0209,0.9732,0.2571,0.5061,0.4128,-0.4888,-0.5785
1396,0.0,0.0,0.0,0.0,0.0,0.0,0.0263,0.9818,0.2581,0.5060,0.4129,-0.4882,-0.5789
1397,0.0,0.0,0.0,0.0,0.0,0.0,0.0213,0.9664,0.2567,0.5060,0.4130,-0.4875,-0.5794
1398,0.0,0.0,0.0,0.0,0.0,0.0,0.0213,0.9702,0.2581,0.5062,0.4129,-0.4869,-0.5798
1399,0.0,0.0,0.0,0.0,0.0,0.0,0.0170,0.9712,0.2571,0.5063,0.4129,-0.4863,-0.5802
1400,0.0,0.0,0.0,0.0,0.0,0.0,0.0155,0.9664,0.2576,0.5064,0.4131,-0.4859,-0.5803
1401,0.0,0.0,0.0,0.0,0.0,0.0,0.0135,0.9606,0.2576,0.5065,0.4134,-0.4854,-0.5805
1402,0.0,0.0,0.0,0.0,0.0,0.0,0.0120,0.9596,0.2620,0.5065,0.4136,-0.4848,-0.5808
1403,0.0,0.0,0.0,0.0,0.0,0.0,0.0145,0.9654,0.2674,0.5065,0.4137,-0.4843,-0.5812
1404,0.0,0.0,0.0,0.0,0.0,0.0,0.0159,0.9620,0.2683,0.5066,0.4138,-0.4837,-0.5815
1405,0.0,0.0,0.0,0.0,0.0,0.0,0.0169,0.9596,0.2639,0.5065,0.4140,-0.4831,-0.5819
1406,0.0,0.0,0.0,0.0,0.0,0.0,0.0159,0.9509,0.2605,0.5064,0.4142,-0.4827,-0.5822
1407,0.0,0.0,0.0,0.0,0.0,0.0,0.0091,0.9563,0.2610,0.5063,0.4145,-0.4823,-0.5824
1408,0.0,0.0,0.0,0.0,0.0,0.0,0.0095,0.9534,0.2591,0.5061,0.4149,-0.4819,-0.5826
1409,0.0,0.0,0.0,0.0,0.0,0.0,0.0095,0.9529,0.2562,0.5059,0.4154,-0.4818,-0.5826
1410,0.0,0.0,0.0,0.0,0.0,0.0,0.0100,0.9466,0.2537,0.5054,0.4160,-0.4819,-0.5825
1411,0.0,0.0,0.0,0.0,0.0,0.0,0.0080,0.9490,0.2547,0.5051,0.4165,-0.4823,-0.5821
1412,0.0,0.0,0.0,0.0,0.0,0.0,0.0047,0.9670,0.2610,0.5049,0.4169,-0.4823,-0.5819
1413,0.0,0.0,0.0,0.0,0.0,0.0,0.0048,0.9762,0.2673,0.5049,0.4172,-0.4822,-0.5818
1414,0.0,0.0,0.0,0.0,0.0,0.0,0.0058,0.9766,0.2693,0.5050,0.4175,-0.4821,-0.5816
1415,0.0,0.0,0.0,0.0,0.0,0.0,0.0033,0.9762,0.2707,0.5052,0.4174,-0.4818,-0.5817
1416,0.0,0.0,0.0,0.0,0.0,0.0,0.0047,0.9699,0.2693,0.5054,0.4174,-0.4815,-0.5818
1417,0.0,0.0,0.0,0.0,0.0,0.0,0.0076,0.9606,0.2659,0.5055,0.4175,-0.4814,-0.5817
1418,0.0,0.0,0.0,0.0,0.0,0.0,0.0062,0.9655,0.2669,0.5057,0.4173,-0.4814,-0.5817
1419,0.0,0.0,0.0,0.0,0.0,0.0,0.0061,0.9568,0.2649,0.5056,0.4171,-0.4815,-0.5819
1420,0.0,0.0,0.0,0.0,0.0,0.0,0.0090,0.9451,0.2630,0.5056,0.4168,-0.4817,-0.5819
1421,0.0,0.0,0.0,0.0,0.0,0.0,0.0091,0.9592,0.2664,0.5056,0.4164,-0.4819,-0.5820
1422,0.0,0.0,0.0,0.0,0.0,0.0,0.0134,0.9509,0.2654,0.5057,0.4159,-0.4823,-0.5819
1423,0.0,0.0,0.0,0.0,0.0,0.0,0.0149,0.9562,0.2654,0.5058,0.4158,-0.4829,-0.5815
1424,0.0,0.0,0.0,0.0,0.0,0.0,0.0130,0.9693,0.2683,0.5056,0.4160,-0.4833,-0.5812
1425,0.0,0.0,0.0,0.0,0.0,0.0,0.0101,0.9713,0.2649,0.5054,0.4160,-0.4835,-0.5811
1426,0.0,0.0,0.0,0.0,0.0,0.0,0.0135,0.9596,0.2571,0.5055,0.4158,-0.4837,-0.5810
1427,0.0,0.0,0.0,0.0,0.0,0.0,0.0115,0.9563,0.2523,0.5054,0.4157,-0.4844,-0.5806
1428,0.0,0.0,0.0,0.0,0.0,0.0,0.0121,0.9679,0.2528,0.5052,0.4156,-0.4852,-0.5803
1429,0.0,0.0,0.0,0.0,0.0,0.0,0.0150,0.9698,0.2518,0.5051,0.4152,-0.4857,-0.5801
1430,0.0,0.0,0.0,0.0,0.0,0.0,0.0184,0.9737,0.2528,0.5050,0.4149,-0.4862,-0.5801
1431,0.0,0.0,0.0,0.0,0.0,0.0,0.0214,0.9741,0.2513,0.5048,0.4146,-0.4867,-0.5801
1432,0.0,0.0,0.0,0.0,0.0,0.0,0.0228,0.9683,0.2479,0.5045,0.4145,-0.4873,-0.5798
1433,0.0,0.0,0.0,0.0,0.0,0.0,0.0243,0.9673,0.2455,0.5041,0.4144,-0.4880,-0.5797
1434,0.0,0.0,0.0,0.0,0.0,0.0,0.0272,0.9702,0.2464,0.5038,0.4139,-0.4886,-0.5797
1435,0.0,0.0,0.0,0.0,0.0,0.0,0.0297,0.9726,0.2469,0.5036,0.4133,-0.4892,-0.5799
1436,0.0,0.0,0.0,0.0,0.0,0.0,0.0180,0.9761,0.2498,0.5033,0.4130,-0.4893,-0.5802
1437,0.0,0.0,0.0,0.0,0.0,0.0,0.0350,0.9706,0.2503,0.5029,0.4129,-0.4897,-0.5803
1438,0.0,0.0,0.0,0.0,0.0,0.0,0.0355,0.9721,0.2513,0.5026,0.4126,-0.4902,-0.5803
1439,0.0,0.0,0.0,0.0,0.0,0.0,0.0238,0.9770,0.2523,0.5023,0.4125,-0.4903,-0.5806
1440,0.0,0.0,0.0,0.0,0.0,0.0,0.0312,0.9799,0.2547,0.5022,0.4120,-0.4904,-0.5809
1441,0.0,0.0,0.0,0.0,0.0,0.0,0.0273,0.9842,0.2567,0.5026,0.4112,-0.4906,-0.5811
1442,0.0,0.0,0.0,0.0,0.0,0.0,0.0243,0.9794,0.2567,0.5030,0.4103,-0.4907,-0.5813
1443,0.0,0.0,0.0,0.0,0.0,0.0,0.0267,0.9731,0.2576,0.5031,0.4096,-0.4904,-0.5819
1444,0.0,0.0,0.0,0.0,0.0,0.0,0.0350,0.9711,0.2635,0.5033,0.4089,-0.4901,-0.5825
1445,0.0,0.0,0.0,0.0,0.0,0.0,0.0380,0.9735,0.2679,0.5034,0.4082,-0.4895,-0.5833
1446,0.0,0.0,0.0,0.0,0.0,0.0,0.0409,0.9705,0.2683,0.5035,0.4077,-0.4887,-0.5843
1447,0.0,0.0,0.0,0.0,0.0,0.0,0.0408,0.9647,0.2684,0.5036,0.4074,-0.4879,-0.5850
1448,0.0,0.0,0.0,0.0,0.0,0.0,0.0398,0.9594,0.2688,0.5039,0.4072,-0.4871,-0.5857
1449,0.0,0.0,0.0,0.0,0.0,0.0,0.0384,0.9618,0.2718,0.5041,0.4068,-0.4861,-0.5866
1450,0.0,0.0,0.0,0.0,0.0,0.0,0.0379,0.9637,0.2742,0.5044,0.4067,-0.4850,-0.5873
1451,0.0,0.0,0.0,0.0,0.0,0.0,0.0360,0.9667,0.2786,0.5049,0.4069,-0.4839,-0.5877
1452,0.0,0.0,0.0,0.0,0.0,0.0,0.0316,0.9672,0.2839,0.5054,0.4072,-0.4825,-0.5882
1453,0.0,0.0,0.0,0.0,0.0,0.0,0.0242,0.9662,0.2863,0.5058,0.4078,-0.4809,-0.5887
1454,0.0,0.0,0.0,0.0,0.0,0.0,0.0169,0.9658,0.2883,0.5064,0.4086,-0.4788,-0.5894
1455,0.0,0.0,0.0,0.0,0.0,0.0,0.0081,0.9644,0.2907,0.5068,0.4097,-0.4766,-0.5900
1456,0.0,0.0,0.0,0.0,0.0,0.0,-0.0006,0.9689,0.2951,0.5070,0.4115,-0.4747,-0.5902
1457,0.0,0.0,0.0,0.0,0.0,0.0,-0.0114,0.9694,0.3004,0.5072,0.4132,-0.4727,-0.5904
1458,0.0,0.0,0.0,0.0,0.0,0.0,-0.0188,0.9579,0.2975,0.5073,0.4146,-0.4705,-0.5911
1459,0.0,0.0,0.0,0.0,0.0,0.0,-0.0198,0.9463,0.2941,0.5074,0.4157,-0.4685,-0.5918
1460,0.0,0.0,0.0,0.0,0.0,0.0,-0.0223,0.9318,0.2882,0.5074,0.4165,-0.4668,-0.5926
1461,0.0,0.0,0.0,0.0,0.0,0.0,-0.0209,0.9255,0.2858,0.5074,0.4169,-0.4655,-0.5934
1462,0.0,0.0,0.0,0.0,0.0,0.0,-0.0189,0.9274,0.2858,0.5073,0.4172,-0.4648,-0.5937
1463,0.0,0.0,0.0,0.0,0.0,0.0,-0.0160,0.9356,0.2921,0.5070,0.4175,-0.4644,-0.5941
1464,0.0,0.0,0.0,0.0,0.0,0.0,-0.0115,0.9525,0.2980,0.5066,0.4177,-0.4642,-0.5945
1465,0.0,0.0,0.0,0.0,0.0,0.0,-0.0105,0.9534,0.2999,0.5062,0.4180,-0.4638,-0.5949
1466,0.0,0.0,0.0,0.0,0.0,0.0,-0.0149,0.9549,0.3023,0.5058,0.4185,-0.4632,-0.5953
1467,0.0,0.0,0.0,0.0,0.0,0.0,-0.0207,0.9583,0.3067,0.5055,0.4191,-0.4625,-0.5958
1468,0.0,0.0,0.0,0.0,0.0,0.0,-0.0271,0.9555,0.3053,0.5053,0.4197,-0.4618,-0.5960
1469,0.0,0.0,0.0,0.0,0.0,0.0,-0.0354,0.9493,0.3028,0.5051,0.4206,-0.4612,-0.5961
1470,0.0,0.0,0.0,0.0,0.0,0.0,-0.0383,0.9488,0.3023,0.5047,0.4213,-0.4606,-0.5963
1471,0.0,0.0,0.0,0.0,0.0,0.0,-0.0418,0.9435,0.3004,0.5044,0.4218,-0.4600,-0.5967
1472,0.0,0.0,0.0,0.0,0.0,0.0,-0.0418,0.9464,0.3004,0.5040,0.4222,-0.4597,-0.5970
1473,0.0,0.0,0.0,0.0,0.0,0.0,-0.0408,0.9450,0.2989,0.5040,0.4223,-0.4595,-0.5971
1474,0.0,0.0,0.0,0.0,0.0,0.0,-0.0393,0.9469,0.2989,0.5040,0.4220,-0.4592,-0.5975
1475,0.0,0.0,0.0,0.0,0.0,0.0,-0.0359,0.9464,0.2989,0.5041,0.4219,-0.4594,-0.5974
1476,0.0,0.0,0.0,0.0,0.0,0.0,-0.0330,0.9415,0.2975,0.5044,0.4214,-0.4596,-0.5973
1477,0.0,0.0,0.0,0.0,0.0,0.0,-0.0316,0.9396,0.2950,0.5045,0.4204,-0.4595,-0.5980
1478,0.0,0.0,0.0,0.0,0.0,0.0,-0.0315,0.9430,0.2955,0.5045,0.4197,-0.4599,-0.5982
1479,0.0,0.0,0.0,0.0,0.0,0.0,-0.0252,0.9492,0.2980,0.5045,0.4190,-0.4605,-0.5983
1480,0.0,0.0,0.0,0.0,0.0,0.0,-0.0237,0.9555,0.2980,0.5048,0.4179,-0.4610,-0.5983
1481,0.0,0.0,0.0,0.0,0.0,0.0,-0.0232,0.9555,0.2980,0.5050,0.4171,-0.4615,-0.5983
1482,0.0,0.0,0.0,0.0,0.0,0.0,-0.0159,0.9482,0.2975,0.5051,0.4162,-0.4622,-0.5983
1483,0.0,0.0,0.0,0.0,0.0,0.0,-0.0135,0.9467,0.2965,0.5053,0.4153,-0.4628,-0.5984
1484,0.0,0.0,0.0,0.0,0.0,0.0,-0.0110,0.9457,0.2951,0.5053,0.4146,-0.4634,-0.5983
1485,0.0,0.0,0.0,0.0,0.0,0.0,-0.0101,0.9442,0.2936,0.5052,0.4140,-0.4642,-0.5982
1486,0.0,0.0,0.0,0.0,0.0,0.0,-0.0120,0.9423,0.2916,0.5050,0.4135,-0.4650,-0.5981
1487,0.0,0.0,0.0,0.0,0.0,0.0,-0.0120,0.9433,0.2931,0.5047,0.4132,-0.4658,-0.5980
1488,0.0,0.0,0.0,0.0,0.0,0.0,-0.0104,0.9646,0.2980,0.5043,0.4132,-0.4667,-0.5976
1489,0.0,0.0,0.0,0.0,0.0,0.0,0.0013,0.9674,0.2951,0.5042,0.4132,-0.4675,-0.5971
1490,0.0,0.0,0.0,0.0,0.0,0.0,0.0081,0.9635,0.2936,0.5044,0.4129,-0.4682,-0.5966
1491,0.0,0.0,0.0,0.0,0.0,0.0,0.0052,0.9732,0.2965,0.5045,0.4128,-0.4686,-0.5963
1492,0.0,0.0,0.0,0.0,0.0,0.0,-0.0015,0.9800,0.3009,0.5046,0.4128,-0.4688,-0.5960
1493,0.0,0.0,0.0,0.0,0.0,0.0,-0.0132,0.9844,0.3058,0.5048,0.4129,-0.4685,-0.5960
1494,0.0,0.0,0.0,0.0,0.0,0.0,-0.0144,0.9549,0.2951,0.5050,0.4130,-0.4681,-0.5961
1495,0.0,0.0,0.0,0.0,0.0,0.0,-0.0037,0.9461,0.2907,0.5051,0.4129,-0.4681,-0.5961
1496,0.0,0.0,0.0,0.0,0.0,0.0,-0.0103,0.9801,0.3023,0.5051,0.4129,-0.4680,-0.5961
1497,0.0,0.0,0.0,0.0,0.0,0.0,-0.0172,0.9787,0.3023,0.5052,0.4131,-0.4677,-0.5962
1498,0.0,0.0,0.0,0.0,0.0,0.0,-0.0128,0.9757,0.2970,0.5050,0.4131,-0.4675,-0.5964
1499,0.0,0.0,0.0,0.0,0.0,0.0,-0.0090,0.9505,0.2907,0.5049,0.4130,-0.4673,-0.5968
1500,0.0,0.0,0.0,0.0,0.0,0.0,-0.0103,0.9060,0.2727,0.5048,0.4129,-0.4674,-0.5969
1501,0.0,0.0,0.0,0.0,0.0,0.0,-0.0036,0.8842,0.2693,0.5046,0.4130,-0.4683,-0.5963
1502,0.0,0.0,0.0,0.0,0.0,0.0,-0.0011,0.9771,0.2960,0.5045,0.4132,-0.4691,-0.5956
1503,0.0,0.0,0.0,0.0,0.0,0.0,0.0004,0.9761,0.2921,0.5047,0.4132,-0.4696,-0.5950
1504,0.0,0.0,0.0,0.0,0.0,0.0,0.0022,0.9611,0.2873,0.5048,0.4134,-0.4698,-0.5946
1505,0.0,0.0,0.0,0.0,0.0,0.0,0.0033,0.9698,0.2921,0.5050,0.4135,-0.4699,-0.5942
1506,0.0,0.0,0.0,0.0,0.0,0.0,-0.0064,0.9830,0.2946,0.5050,0.4141,-0.4699,-0.5939
1507,0.0,0.0,0.0,0.0,0.0,0.0,-0.0167,0.9724,0.2892,0.5048,0.4150,-0.4697,-0.5935
1508,0.0,0.0,0.0,0.0,0.0,0.0,-0.0134,0.9535,0.2814,0.5047,0.4158,-0.4696,-0.5932
1509,0.0,0.0,0.0,0.0,0.0,0.0,-0.0154,0.9501,0.2775,0.5046,0.4162,-0.4694,-0.5932
1510,0.0,0.0,0.0,0.0,0.0,0.0,-0.0164,0.9453,0.2766,0.5043,0.4165,-0.4697,-0.5930
1511,0.0,0.0,0.0,0.0,0.0,0.0,-0.0121,0.9346,0.2737,0.5043,0.4164,-0.4702,-0.5927
1512,0.0,0.0,0.0,0.0,0.0,0.0,-0.0184,0.9386,0.2741,0.5042,0.4164,-0.4708,-0.5922
1513,0.0,0.0,0.0,0.0,0.0,0.0,-0.0159,0.9448,0.2751,0.5042,0.4165,-0.4718,-0.5914
1514,0.0,0.0,0.0,0.0,0.0,0.0,-0.0120,0.9462,0.2751,0.5042,0.4160,-0.4727,-0.5910
1515,0.0,0.0,0.0,0.0,0.0,0.0,-0.0059,0.9820,0.2853,0.5041,0.4154,-0.4737,-0.5907
1516,0.0,0.0,0.0,0.0,0.0,0.0,-0.0092,1.0014,0.2897,0.5039,0.4150,-0.4743,-0.5907
1517,0.0,0.0,0.0,0.0,0.0,0.0,-0.0127,0.9860,0.2761,0.5035,0.4149,-0.4747,-0.5908
1518,0.0,0.0,0.0,0.0,0.0,0.0,0.0026,0.9302,0.2591,0.5032,0.4141,-0.4756,-0.5908
1519,0.0,0.0,0.0,0.0,0.0,0.0,0.0008,0.9636,0.2717,0.5031,0.4133,-0.4764,-0.5908
1520,0.0,0.0,0.0,0.0,0.0,0.0,-0.0008,1.0169,0.2858,0.5031,0.4126,-0.4768,-0.5910
1521,0.0,0.0,0.0,0.0,0.0,0.0,0.0068,0.9882,0.2824,0.5033,0.4115,-0.4769,-0.5915
1522,0.0,0.0,0.0,0.0,0.0,0.0,0.0086,0.9620,0.2805,0.5035,0.4109,-0.4772,-0.5916
1523,0.0,0.0,0.0,0.0,0.0,0.0,0.0041,0.9412,0.2805,0.5038,0.4103,-0.4775,-0.5915
1524,0.0,0.0,0.0,0.0,0.0,0.0,0.0055,0.9301,0.2800,0.5042,0.4090,-0.4777,-0.5918
1525,0.0,0.0,0.0,0.0,0.0,0.0,0.0118,0.9300,0.2790,0.5043,0.4076,-0.4783,-0.5922
1526,0.0,0.0,0.0,0.0,0.0,0.0,0.0193,0.9474,0.2810,0.5046,0.4066,-0.4791,-0.5920
1527,0.0,0.0,0.0,0.0,0.0,0.0,0.0247,0.9541,0.2815,0.5048,0.4057,-0.4801,-0.5917
1528,0.0,0.0,0.0,0.0,0.0,0.0,0.0271,0.9595,0.2820,0.5049,0.4049,-0.4809,-0.5915
1529,0.0,0.0,0.0,0.0,0.0,0.0,0.0306,0.9720,0.2839,0.5049,0.4045,-0.4815,-0.5913
1530,0.0,0.0,0.0,0.0,0.0,0.0,0.0311,0.9696,0.2824,0.5049,0.4039,-0.4821,-0.5912
1531,0.0,0.0,0.0,0.0,0.0,0.0,0.0315,0.9614,0.2771,0.5049,0.4038,-0.4828,-0.5908
1532,0.0,0.0,0.0,0.0,0.0,0.0,0.0306,0.9657,0.2756,0.5048,0.4037,-0.4831,-0.5907
1533,0.0,0.0,0.0,0.0,0.0,0.0,0.0326,0.9681,0.2766,0.5046,0.4037,-0.4833,-0.5906
1534,0.0,0.0,0.0,0.0,0.0,0.0,0.0287,0.9721,0.2761,0.5045,0.4042,-0.4835,-0.5902
1535,0.0,0.0,0.0,0.0,0.0,0.0,0.0223,0.9678,0.2761,0.5044,0.4046,-0.4832,-0.5902
1536,0.0,0.0,0.0,0.0,0.0,0.0,0.0189,0.9673,0.2790,0.5044,0.4050,-0.4828,-0.5902
1537,0.0,0.0,0.0,0.0,0.0,0.0,0.0188,0.9610,0.2800,0.5045,0.4054,-0.4825,-0.5902
1538,0.0,0.0,0.0,0.0,0.0,0.0,0.0135,0.9572,0.2790,0.5046,0.4057,-0.4819,-0.5904
1539,0.0,0.0,0.0,0.0,0.0,0.0,0.0110,0.9572,0.2776,0.5047,0.4060,-0.4815,-0.5904
1540,0.0,0.0,0.0,0.0,0.0,0.0,0.0144,0.9581,0.2776,0.5049,0.4063,-0.4812,-0.5903
1541,0.0,0.0,0.0,0.0,0.0,0.0,0.0116,0.9736,0.2863,0.5051,0.4066,-0.4807,-0.5903
1542,0.0,0.0,0.0,0.0,0.0,0.0,0.0072,0.9751,0.2878,0.5054,0.4069,-0.4801,-0.5903
1543,0.0,0.0,0.0,0.0,0.0,0.0,0.0095,0.9494,0.2790,0.5056,0.4071,-0.4796,-0.5904
1544,0.0,0.0,0.0,0.0,0.0,0.0,0.0101,0.9620,0.2834,0.5057,0.4076,-0.4794,-0.5901
1545,0.0,0.0,0.0,0.0,0.0,0.0,0.0066,0.9596,0.2863,0.5059,0.4079,-0.4790,-0.5902
1546,0.0,0.0,0.0,0.0,0.0,0.0,0.0085,0.9456,0.2839,0.5061,0.4077,-0.4784,-0.5906
1547,0.0,0.0,0.0,0.0,0.0,0.0,0.0095,0.9480,0.2853,0.5061,0.4077,-0.4782,-0.5907
1548,0.0,0.0,0.0,0.0,0.0,0.0,0.0090,0.9514,0.2868,0.5061,0.4077,-0.4781,-0.5908
1549,0.0,0.0,0.0,0.0,0.0,0.0,0.0095,0.9499,0.2863,0.5060,0.4077,-0.4780,-0.5910
1550,0.0,0.0,0.0,0.0,0.0,0.0,0.0124,0.9479,0.2858,0.5061,0.4077,-0.4779,-0.5910
1551,0.0,0.0,0.0,0.0,0.0,0.0,0.0119,0.9455,0.2853,0.5059,0.4081,-0.4783,-0.5905
1552,0.0,0.0,0.0,0.0,0.0,0.0,0.0110,0.9528,0.2853,0.5057,0.4084,-0.4787,-0.5901
1553,0.0,0.0,0.0,0.0,0.0,0.0,0.0130,0.9639,0.2892,0.5057,0.4083,-0.4788,-0.5902
1554,0.0,0.0,0.0,0.0,0.0,0.0,0.0072,0.9727,0.2892,0.5055,0.4086,-0.4788,-0.5902
1555,0.0,0.0,0.0,0.0,0.0,0.0,0.0061,0.9596,0.2844,0.5055,0.4088,-0.4786,-0.5901
1556,0.0,0.0,0.0,0.0,0.0,0.0,0.0050,0.9388,0.2771,0.5056,0.4088,-0.4784,-0.5902
1557,0.0,0.0,0.0,0.0,0.0,0.0,0.0080,0.9451,0.2805,0.5056,0.4088,-0.4785,-0.5901
1558,0.0,0.0,0.0,0.0,0.0,0.0,0.0097,0.9765,0.2892,0.5057,0.4091,-0.4789,-0.5896
1559,0.0,0.0,0.0,0.0,0.0,0.0,0.0096,0.9688,0.2844,0.5058,0.4092,-0.4790,-0.5893
1560,0.0,0.0,0.0,0.0,0.0,0.0,0.0100,0.9499,0.2785,0.5061,0.4091,-0.4789,-0.5892
1561,0.0,0.0,0.0,0.0,0.0,0.0,0.0100,0.9548,0.2805,0.5065,0.4091,-0.4791,-0.5887
1562,0.0,0.0,0.0,0.0,0.0,0.0,0.0100,0.9509,0.2776,0.5066,0.4091,-0.4794,-0.5884
1563,0.0,0.0,0.0,0.0,0.0,0.0,0.0096,0.9596,0.2805,0.5067,0.4090,-0.4795,-0.5883
1564,0.0,0.0,0.0,0.0,0.0,0.0,0.0091,0.9572,0.2795,0.5069,0.4090,-0.4796,-0.5881
1565,0.0,0.0,0.0,0.0,0.0,0.0,0.0095,0.9567,0.2771,0.5069,0.4090,-0.4797,-0.5879
1566,0.0,0.0,0.0,0.0,0.0,0.0,0.0081,0.9669,0.2795,0.5069,0.4089,-0.4799,-0.5878
1567,0.0,0.0,0.0,0.0,0.0,0.0,0.0090,0.9475,0.2732,0.5067,0.4093,-0.4803,-0.5873
1568,0.0,0.0,0.0,0.0,0.0,0.0,0.0096,0.9645,0.2795,0.5064,0.4095,-0.4809,-0.5870
1569,0.0,0.0,0.0,0.0,0.0,0.0,0.0106,0.9746,0.2858,0.5062,0.4093,-0.4811,-0.5872
1570,0.0,0.0,0.0,0.0,0.0,0.0,0.0111,0.9693,0.2824,0.5059,0.4092,-0.4812,-0.5874
1571,0.0,0.0,0.0,0.0,0.0,0.0,0.0140,0.9673,0.2795,0.5057,0.4094,-0.4814,-0.5873
1572,0.0,0.0,0.0,0.0,0.0,0.0,0.0149,0.9567,0.2737,0.5056,0.4094,-0.4816,-0.5872
1573,0.0,0.0,0.0,0.0,0.0,0.0,0.0208,0.9571,0.2747,0.5055,0.4095,-0.4818,-0.5870
1574,0.0,0.0,0.0,0.0,0.0,0.0,0.0126,0.9795,0.2776,0.5056,0.4096,-0.4820,-0.5868
1575,0.0,0.0,0.0,0.0,0.0,0.0,0.0052,0.9694,0.2727,0.5055,0.4097,-0.4817,-0.5870
1576,0.0,0.0,0.0,0.0,0.0,0.0,0.0129,0.9543,0.2664,0.5054,0.4096,-0.4817,-0.5871
1577,0.0,0.0,0.0,0.0,0.0,0.0,0.0091,0.9679,0.2712,0.5055,0.4096,-0.4819,-0.5869
1578,0.0,0.0,0.0,0.0,0.0,0.0,0.0052,0.9640,0.2717,0.5054,0.4095,-0.4818,-0.5871
1579,0.0,0.0,0.0,0.0,0.0,0.0,0.0081,0.9592,0.2708,0.5052,0.4092,-0.4818,-0.5875
1580,0.0,0.0,0.0,0.0,0.0,0.0,0.0081,0.9558,0.2712,0.5050,0.4089,-0.4820,-0.5878
1581,0.0,0.0,0.0,0.0,0.0,0.0,0.0090,0.9504,0.2703,0.5048,0.4085,-0.4825,-0.5878
1582,0.0,0.0,0.0,0.0,0.0,0.0,0.0124,0.9480,0.2712,0.5045,0.4082,-0.4830,-0.5878
1583,0.0,0.0,0.0,0.0,0.0,0.0,0.0256,0.9522,0.2742,0.5045,0.4073,-0.4836,-0.5880
1584,0.0,0.0,0.0,0.0,0.0,0.0,0.0185,0.9862,0.2785,0.5044,0.4070,-0.4841,-0.5879
1585,0.0,0.0,0.0,0.0,0.0,0.0,0.0218,0.9619,0.2747,0.5042,0.4068,-0.4846,-0.5878
1586,0.0,0.0,0.0,0.0,0.0,0.0,0.0248,0.9735,0.2761,0.5040,0.4066,-0.4851,-0.5876
1587,0.0,0.0,0.0,0.0,0.0,0.0,0.0243,0.9765,0.2747,0.5038,0.4067,-0.4855,-0.5874
1588,0.0,0.0,0.0,0.0,0.0,0.0,0.0263,0.9794,0.2737,0.5037,0.4067,-0.4858,-0.5873
1589,0.0,0.0,0.0,0.0,0.0,0.0,0.0287,0.9740,0.2717,0.5035,0.4068,-0.4858,-0.5873
1590,0.0,0.0,0.0,0.0,0.0,0.0,0.0214,0.9726,0.2727,0.5032,0.4069,-0.4855,-0.5877
1591,0.0,0.0,0.0,0.0,0.0,0.0,0.0170,0.9731,0.2766,0.5031,0.4071,-0.4852,-0.5880
1592,0.0,0.0,0.0,0.0,0.0,0.0,0.0130,0.9635,0.2751,0.5030,0.4072,-0.4847,-0.5884
