,Position_X,Position_Y,Position_Z,Velocity_X,Velocity_Y,Velocity_Z,Acceleration_X,Acceleration_Y,Acceleration_Z,Quaterion_0,Quaterion_1,Quaterion_2,Quaterion_3
90,0.0,0.0,0.0,0.0,0.0,0.0,0.0523,-0.9249,0.1214,0.7534,-0.5832,-0.2310,0.1972
91,0.0,0.0,0.0,0.0,0.0,0.0,0.0555,-0.9642,0.1273,0.7525,-0.5839,-0.2317,0.1979
92,0.0,0.0,0.0,0.0,0.0,0.0,0.0665,-0.9899,0.1363,0.7520,-0.5840,-0.2325,0.1984
93,0.0,0.0,0.0,0.0,0.0,0.0,0.0563,-0.9850,0.1337,0.7515,-0.5843,-0.2329,0.1989
94,0.0,0.0,0.0,0.0,0.0,0.0,0.0513,-1.0010,0.1407,0.7513,-0.5845,-0.2329,0.1994
95,0.0,0.0,0.0,0.0,0.0,0.0,0.0498,-0.9923,0.1404,0.7512,-0.5844,-0.2328,0.2000
96,0.0,0.0,0.0,0.0,0.0,0.0,0.0454,-0.9841,0.1407,0.7513,-0.5842,-0.2325,0.2007
97,0.0,0.0,0.0,0.0,0.0,0.0,0.0527,-0.9783,0.1431,0.7514,-0.5837,-0.2324,0.2015
98,0.0,0.0,0.0,0.0,0.0,0.0,0.0629,-0.9783,0.1477,0.7517,-0.5831,-0.2325,0.2022
99,0.0,0.0,0.0,0.0,0.0,0.0,0.0560,-0.9749,0.1513,0.7521,-0.5824,-0.2323,0.2029
100,0.0,0.0,0.0,0.0,0.0,0.0,0.0569,-0.9695,0.1538,0.7526,-0.5817,-0.2321,0.2034
101,0.0,0.0,0.0,0.0,0.0,0.0,0.0574,-0.9628,0.1553,0.7531,-0.5809,-0.2320,0.2038
102,0.0,0.0,0.0,0.0,0.0,0.0,0.0573,-0.9589,0.1578,0.7537,-0.5801,-0.2319,0.2041
103,0.0,0.0,0.0,0.0,0.0,0.0,0.0603,-0.9555,0.1588,0.7541,-0.5794,-0.2319,0.2043
104,0.0,0.0,0.0,0.0,0.0,0.0,0.0602,-0.9555,0.1603,0.7546,-0.5787,-0.2320,0.2044
105,0.0,0.0,0.0,0.0,0.0,0.0,0.0597,-0.9550,0.1608,0.7549,-0.5782,-0.2321,0.2047
106,0.0,0.0,0.0,0.0,0.0,0.0,0.0617,-0.9550,0.1602,0.7552,-0.5777,-0.2323,0.2048
107,0.0,0.0,0.0,0.0,0.0,0.0,0.0636,-0.9569,0.1602,0.7553,-0.5774,-0.2325,0.2049
108,0.0,0.0,0.0,0.0,0.0,0.0,0.0636,-0.9608,0.1606,0.7555,-0.5771,-0.2327,0.2051
109,0.0,0.0,0.0,0.0,0.0,0.0,0.0636,-0.9632,0.1605,0.7556,-0.5769,-0.2329,0.2052
110,0.0,0.0,0.0,0.0,0.0,0.0,0.0641,-0.9657,0.1595,0.7556,-0.5767,-0.2330,0.2053
111,0.0,0.0,0.0,0.0,0.0,0.0,0.0641,-0.9662,0.1600,0.7557,-0.5765,-0.2331,0.2052
112,0.0,0.0,0.0,0.0,0.0,0.0,0.0641,-0.9676,0.1595,0.7558,-0.5764,-0.2332,0.2051
113,0.0,0.0,0.0,0.0,0.0,0.0,0.0631,-0.9686,0.1595,0.7559,-0.5763,-0.2332,0.2051
114,0.0,0.0,0.0,0.0,0.0,0.0,0.0607,-0.9695,0.1576,0.7560,-0.5763,-0.2331,0.2049
115,0.0,0.0,0.0,0.0,0.0,0.0,0.0564,-0.9686,0.1562,0.7562,-0.5762,-0.2329,0.2048
116,0.0,0.0,0.0,0.0,0.0,0.0,0.0539,-0.9661,0.1563,0.7563,-0.5762,-0.2326,0.2045
117,0.0,0.0,0.0,0.0,0.0,0.0,0.0506,-0.9569,0.1527,0.7564,-0.5763,-0.2323,0.2043
118,0.0,0.0,0.0,0.0,0.0,0.0,0.0488,-0.9079,0.1262,0.7559,-0.5768,-0.2327,0.2042
119,0.0,0.0,0.0,0.0,0.0,0.0,0.0446,-0.9579,0.1344,0.7550,-0.5778,-0.2333,0.2041
120,0.0,0.0,0.0,0.0,0.0,0.0,0.0629,-0.9904,0.1470,0.7544,-0.5783,-0.2342,0.2041
121,0.0,0.0,0.0,0.0,0.0,0.0,0.0469,-0.9763,0.1413,0.7537,-0.5789,-0.2346,0.2043
122,0.0,0.0,0.0,0.0,0.0,0.0,0.0468,-0.9909,0.1439,0.7531,-0.5794,-0.2348,0.2049
123,0.0,0.0,0.0,0.0,0.0,0.0,0.0542,-0.9802,0.1411,0.7526,-0.5797,-0.2352,0.2054
124,0.0,0.0,0.0,0.0,0.0,0.0,0.0562,-0.9700,0.1388,0.7522,-0.5799,-0.2356,0.2061
125,0.0,0.0,0.0,0.0,0.0,0.0,0.0620,-0.9797,0.1404,0.7517,-0.5800,-0.2361,0.2068
126,0.0,0.0,0.0,0.0,0.0,0.0,0.0615,-0.9865,0.1442,0.7515,-0.5800,-0.2365,0.2074
127,0.0,0.0,0.0,0.0,0.0,0.0,0.0624,-0.9841,0.1466,0.7514,-0.5798,-0.2367,0.2078
128,0.0,0.0,0.0,0.0,0.0,0.0,0.0643,-0.9812,0.1490,0.7515,-0.5794,-0.2369,0.2083
129,0.0,0.0,0.0,0.0,0.0,0.0,0.0637,-0.9768,0.1530,0.7519,-0.5788,-0.2371,0.2086
130,0.0,0.0,0.0,0.0,0.0,0.0,0.0647,-0.9695,0.1541,0.7523,-0.5781,-0.2373,0.2089
131,0.0,0.0,0.0,0.0,0.0,0.0,0.0657,-0.9632,0.1561,0.7527,-0.5773,-0.2375,0.2091
132,0.0,0.0,0.0,0.0,0.0,0.0,0.0671,-0.9574,0.1586,0.7531,-0.5766,-0.2378,0.2094
133,0.0,0.0,0.0,0.0,0.0,0.0,0.0675,-0.9579,0.1601,0.7535,-0.5759,-0.2382,0.2094
134,0.0,0.0,0.0,0.0,0.0,0.0,0.0675,-0.9555,0.1611,0.7539,-0.5753,-0.2385,0.2093
135,0.0,0.0,0.0,0.0,0.0,0.0,0.0675,-0.9584,0.1620,0.7542,-0.5748,-0.2389,0.2093
136,0.0,0.0,0.0,0.0,0.0,0.0,0.0699,-0.9618,0.1628,0.7545,-0.5742,-0.2392,0.2092
137,0.0,0.0,0.0,0.0,0.0,0.0,0.0670,-0.9613,0.1629,0.7547,-0.5738,-0.2395,0.2092
138,0.0,0.0,0.0,0.0,0.0,0.0,0.0699,-0.9637,0.1633,0.7550,-0.5734,-0.2397,0.2092
139,0.0,0.0,0.0,0.0,0.0,0.0,0.0704,-0.9662,0.1613,0.7551,-0.5732,-0.2398,0.2092
140,0.0,0.0,0.0,0.0,0.0,0.0,0.0690,-0.9691,0.1603,0.7553,-0.5730,-0.2397,0.2093
141,0.0,0.0,0.0,0.0,0.0,0.0,0.0666,-0.9710,0.1584,0.7554,-0.5728,-0.2396,0.2094
142,0.0,0.0,0.0,0.0,0.0,0.0,0.0636,-0.9715,0.1584,0.7555,-0.5727,-0.2393,0.2097
143,0.0,0.0,0.0,0.0,0.0,0.0,0.0603,-0.9642,0.1552,0.7557,-0.5725,-0.2389,0.2099
144,0.0,0.0,0.0,0.0,0.0,0.0,0.0594,-0.9574,0.1520,0.7557,-0.5725,-0.2387,0.2102
145,0.0,0.0,0.0,0.0,0.0,0.0,0.0502,-0.9152,0.1279,0.7554,-0.5728,-0.2387,0.2105
146,0.0,0.0,0.0,0.0,0.0,0.0,0.0654,-0.9234,0.1250,0.7543,-0.5737,-0.2398,0.2109
147,0.0,0.0,0.0,0.0,0.0,0.0,0.0883,-0.9739,0.1444,0.7536,-0.5740,-0.2413,0.2108
148,0.0,0.0,0.0,0.0,0.0,0.0,0.0676,-0.9535,0.1321,0.7526,-0.5748,-0.2423,0.2109
149,0.0,0.0,0.0,0.0,0.0,0.0,0.0629,-0.9923,0.1426,0.7518,-0.5756,-0.2429,0.2109
150,0.0,0.0,0.0,0.0,0.0,0.0,0.0566,-0.9923,0.1441,0.7511,-0.5763,-0.2430,0.2113
151,0.0,0.0,0.0,0.0,0.0,0.0,0.0461,-0.9710,0.1313,0.7503,-0.5771,-0.2430,0.2118
152,0.0,0.0,0.0,0.0,0.0,0.0,0.0588,-0.9802,0.1313,0.7496,-0.5778,-0.2433,0.2121
153,0.0,0.0,0.0,0.0,0.0,0.0,0.0553,-0.9884,0.1351,0.7490,-0.5784,-0.2434,0.2127
154,0.0,0.0,0.0,0.0,0.0,0.0,0.0499,-0.9899,0.1371,0.7485,-0.5789,-0.2430,0.2134
155,0.0,0.0,0.0,0.0,0.0,0.0,0.0464,-0.9909,0.1410,0.7483,-0.5792,-0.2424,0.2141
156,0.0,0.0,0.0,0.0,0.0,0.0,0.0405,-0.9894,0.1445,0.7483,-0.5793,-0.2414,0.2149
157,0.0,0.0,0.0,0.0,0.0,0.0,0.0385,-0.9850,0.1471,0.7485,-0.5791,-0.2405,0.2159
158,0.0,0.0,0.0,0.0,0.0,0.0,0.0390,-0.9749,0.1473,0.7487,-0.5788,-0.2397,0.2169
159,0.0,0.0,0.0,0.0,0.0,0.0,0.0395,-0.9608,0.1466,0.7488,-0.5785,-0.2391,0.2180
160,0.0,0.0,0.0,0.0,0.0,0.0,0.0400,-0.9525,0.1472,0.7488,-0.5781,-0.2389,0.2191
161,0.0,0.0,0.0,0.0,0.0,0.0,0.0443,-0.9608,0.1523,0.7488,-0.5776,-0.2389,0.2202
162,0.0,0.0,0.0,0.0,0.0,0.0,0.0515,-0.9661,0.1554,0.7489,-0.5771,-0.2392,0.2212
163,0.0,0.0,0.0,0.0,0.0,0.0,0.0589,-0.9569,0.1520,0.7489,-0.5765,-0.2398,0.2221
164,0.0,0.0,0.0,0.0,0.0,0.0,0.0649,-0.9482,0.1482,0.7487,-0.5760,-0.2408,0.2228
165,0.0,0.0,0.0,0.0,0.0,0.0,0.0679,-0.9438,0.1444,0.7484,-0.5758,-0.2419,0.2233
166,0.0,0.0,0.0,0.0,0.0,0.0,0.0664,-0.9501,0.1424,0.7479,-0.5758,-0.2429,0.2237
167,0.0,0.0,0.0,0.0,0.0,0.0,0.0640,-0.9598,0.1403,0.7474,-0.5760,-0.2440,0.2238
168,0.0,0.0,0.0,0.0,0.0,0.0,0.0645,-0.9695,0.1401,0.7469,-0.5762,-0.2450,0.2238
169,0.0,0.0,0.0,0.0,0.0,0.0,0.0630,-0.9773,0.1424,0.7464,-0.5765,-0.2458,0.2238
170,0.0,0.0,0.0,0.0,0.0,0.0,0.0630,-0.9817,0.1413,0.7461,-0.5767,-0.2465,0.2236
171,0.0,0.0,0.0,0.0,0.0,0.0,0.0631,-0.9724,0.1357,0.7457,-0.5769,-0.2473,0.2235
172,0.0,0.0,0.0,0.0,0.0,0.0,0.0598,-0.9666,0.1315,0.7453,-0.5773,-0.2479,0.2232
173,0.0,0.0,0.0,0.0,0.0,0.0,0.0598,-0.9661,0.1296,0.7448,-0.5778,-0.2485,0.2228
174,0.0,0.0,0.0,0.0,0.0,0.0,0.0564,-0.9700,0.1296,0.7444,-0.5784,-0.2489,0.2224
175,0.0,0.0,0.0,0.0,0.0,0.0,0.0491,-0.9753,0.1311,0.7439,-0.5791,-0.2489,0.2220
176,0.0,0.0,0.0,0.0,0.0,0.0,0.0456,-0.9802,0.1316,0.7435,-0.5797,-0.2490,0.2218
177,0.0,0.0,0.0,0.0,0.0,0.0,0.0442,-0.9773,0.1297,0.7431,-0.5802,-0.2490,0.2216
178,0.0,0.0,0.0,0.0,0.0,0.0,0.0428,-0.9685,0.1261,0.7427,-0.5808,-0.2492,0.2215
179,0.0,0.0,0.0,0.0,0.0,0.0,0.0418,-0.9763,0.1303,0.7422,-0.5813,-0.2492,0.2216
180,0.0,0.0,0.0,0.0,0.0,0.0,0.0377,-0.9875,0.1354,0.7418,-0.5816,-0.2491,0.2222
181,0.0,0.0,0.0,0.0,0.0,0.0,0.0372,-0.9899,0.1369,0.7415,-0.5818,-0.2489,0.2230
182,0.0,0.0,0.0,0.0,0.0,0.0,0.0367,-0.9933,0.1368,0.7413,-0.5817,-0.2486,0.2241
183,0.0,0.0,0.0,0.0,0.0,0.0,0.0413,-0.9816,0.1292,0.7410,-0.5816,-0.2486,0.2254
184,0.0,0.0,0.0,0.0,0.0,0.0,0.0535,-0.9821,0.1285,0.7408,-0.5813,-0.2488,0.2267
185,0.0,0.0,0.0,0.0,0.0,0.0,0.0549,-0.9899,0.1297,0.7406,-0.5810,-0.2491,0.2278
186,0.0,0.0,0.0,0.0,0.0,0.0,0.0559,-0.9778,0.1304,0.7406,-0.5805,-0.2492,0.2289
187,0.0,0.0,0.0,0.0,0.0,0.0,0.0492,-0.9574,0.1257,0.7406,-0.5802,-0.2491,0.2299
188,0.0,0.0,0.0,0.0,0.0,0.0,0.0443,-0.9627,0.1266,0.7405,-0.5800,-0.2490,0.2308
189,0.0,0.0,0.0,0.0,0.0,0.0,0.0384,-0.9583,0.1273,0.7405,-0.5799,-0.2488,0.2313
190,0.0,0.0,0.0,0.0,0.0,0.0,0.0311,-0.9666,0.1292,0.7404,-0.5799,-0.2486,0.2318
191,0.0,0.0,0.0,0.0,0.0,0.0,0.0301,-0.9743,0.1310,0.7405,-0.5797,-0.2485,0.2321
192,0.0,0.0,0.0,0.0,0.0,0.0,0.0321,-0.9608,0.1255,0.7404,-0.5796,-0.2487,0.2324
193,0.0,0.0,0.0,0.0,0.0,0.0,0.0347,-0.9540,0.1217,0.7401,-0.5796,-0.2493,0.2328
194,0.0,0.0,0.0,0.0,0.0,0.0,0.0404,-0.9748,0.1250,0.7397,-0.5796,-0.2501,0.2331
195,0.0,0.0,0.0,0.0,0.0,0.0,0.0449,-0.9646,0.1208,0.7393,-0.5796,-0.2510,0.2334
196,0.0,0.0,0.0,0.0,0.0,0.0,0.0503,-0.9661,0.1182,0.7388,-0.5797,-0.2521,0.2335
197,0.0,0.0,0.0,0.0,0.0,0.0,0.0517,-0.9777,0.1199,0.7384,-0.5799,-0.2530,0.2336
198,0.0,0.0,0.0,0.0,0.0,0.0,0.0517,-0.9777,0.1194,0.7380,-0.5800,-0.2537,0.2336
199,0.0,0.0,0.0,0.0,0.0,0.0,0.0517,-0.9802,0.1189,0.7377,-0.5802,-0.2543,0.2335
200,0.0,0.0,0.0,0.0,0.0,0.0,0.0522,-0.9821,0.1193,0.7374,-0.5804,-0.2548,0.2333
201,0.0,0.0,0.0,0.0,0.0,0.0,0.0492,-0.9865,0.1232,0.7373,-0.5805,-0.2550,0.2331
202,0.0,0.0,0.0,0.0,0.0,0.0,0.0482,-0.9874,0.1251,0.7374,-0.5804,-0.2551,0.2328
203,0.0,0.0,0.0,0.0,0.0,0.0,0.0437,-0.9855,0.1296,0.7377,-0.5802,-0.2549,0.2328
204,0.0,0.0,0.0,0.0,0.0,0.0,0.0470,-0.9957,0.1351,0.7380,-0.5799,-0.2547,0.2328
205,0.0,0.0,0.0,0.0,0.0,0.0,0.0504,-0.9918,0.1346,0.7384,-0.5795,-0.2545,0.2328
206,0.0,0.0,0.0,0.0,0.0,0.0,0.0510,-0.9734,0.1316,0.7389,-0.5790,-0.2543,0.2326
207,0.0,0.0,0.0,0.0,0.0,0.0,0.0530,-0.9618,0.1318,0.7394,-0.5786,-0.2541,0.2324
208,0.0,0.0,0.0,0.0,0.0,0.0,0.0555,-0.9540,0.1300,0.7397,-0.5782,-0.2541,0.2321
209,0.0,0.0,0.0,0.0,0.0,0.0,0.0574,-0.9564,0.1299,0.7400,-0.5780,-0.2542,0.2316
210,0.0,0.0,0.0,0.0,0.0,0.0,0.0613,-0.9584,0.1312,0.7402,-0.5778,-0.2544,0.2312
211,0.0,0.0,0.0,0.0,0.0,0.0,0.0594,-0.9521,0.1289,0.7404,-0.5778,-0.2545,0.2306
212,0.0,0.0,0.0,0.0,0.0,0.0,0.0482,-0.9511,0.1268,0.7404,-0.5782,-0.2544,0.2300
213,0.0,0.0,0.0,0.0,0.0,0.0,0.0476,-0.9671,0.1294,0.7403,-0.5786,-0.2542,0.2293
214,0.0,0.0,0.0,0.0,0.0,0.0,0.0516,-0.9705,0.1287,0.7401,-0.5791,-0.2542,0.2286
215,0.0,0.0,0.0,0.0,0.0,0.0,0.0497,-0.9695,0.1264,0.7400,-0.5796,-0.2542,0.2278
216,0.0,0.0,0.0,0.0,0.0,0.0,0.0516,-0.9753,0.1238,0.7398,-0.5801,-0.2544,0.2269
217,0.0,0.0,0.0,0.0,0.0,0.0,0.0551,-0.9797,0.1232,0.7396,-0.5806,-0.2545,0.2260
218,0.0,0.0,0.0,0.0,0.0,0.0,0.0575,-0.9841,0.1250,0.7396,-0.5809,-0.2547,0.2252
219,0.0,0.0,0.0,0.0,0.0,0.0,0.0545,-0.9841,0.1250,0.7396,-0.5812,-0.2547,0.2244
220,0.0,0.0,0.0,0.0,0.0,0.0,0.0521,-0.9826,0.1261,0.7397,-0.5815,-0.2544,0.2237
221,0.0,0.0,0.0,0.0,0.0,0.0,0.0550,-0.9826,0.1280,0.7399,-0.5816,-0.2541,0.2230
222,0.0,0.0,0.0,0.0,0.0,0.0,0.0535,-0.9831,0.1294,0.7402,-0.5817,-0.2537,0.2223
223,0.0,0.0,0.0,0.0,0.0,0.0,0.0540,-0.9700,0.1263,0.7404,-0.5818,-0.2532,0.2217
224,0.0,0.0,0.0,0.0,0.0,0.0,0.0507,-0.9651,0.1240,0.7405,-0.5821,-0.2527,0.2212
225,0.0,0.0,0.0,0.0,0.0,0.0,0.0492,-0.9680,0.1250,0.7406,-0.5824,-0.2523,0.2208
226,0.0,0.0,0.0,0.0,0.0,0.0,0.0448,-0.9676,0.1251,0.7406,-0.5828,-0.2517,0.2203
227,0.0,0.0,0.0,0.0,0.0,0.0,0.0429,-0.9671,0.1251,0.7405,-0.5831,-0.2512,0.2201
228,0.0,0.0,0.0,0.0,0.0,0.0,0.0399,-0.9690,0.1261,0.7405,-0.5836,-0.2505,0.2199
229,0.0,0.0,0.0,0.0,0.0,0.0,0.0361,-0.9690,0.1238,0.7404,-0.5840,-0.2500,0.2198
230,0.0,0.0,0.0,0.0,0.0,0.0,0.0361,-0.9709,0.1232,0.7402,-0.5844,-0.2494,0.2199
231,0.0,0.0,0.0,0.0,0.0,0.0,0.0321,-0.9739,0.1247,0.7400,-0.5848,-0.2489,0.2202
232,0.0,0.0,0.0,0.0,0.0,0.0,0.0336,-0.9768,0.1261,0.7397,-0.5852,-0.2484,0.2205
233,0.0,0.0,0.0,0.0,0.0,0.0,0.0326,-0.9797,0.1270,0.7395,-0.5855,-0.2479,0.2210
234,0.0,0.0,0.0,0.0,0.0,0.0,0.0330,-0.9787,0.1280,0.7394,-0.5856,-0.2475,0.2214
235,0.0,0.0,0.0,0.0,0.0,0.0,0.0316,-0.9777,0.1290,0.7394,-0.5857,-0.2471,0.2218
236,0.0,0.0,0.0,0.0,0.0,0.0,0.0335,-0.9753,0.1314,0.7395,-0.5856,-0.2467,0.2223
237,0.0,0.0,0.0,0.0,0.0,0.0,0.0350,-0.9734,0.1300,0.7395,-0.5854,-0.2465,0.2228
238,0.0,0.0,0.0,0.0,0.0,0.0,0.0350,-0.9710,0.1281,0.7395,-0.5853,-0.2465,0.2230
239,0.0,0.0,0.0,0.0,0.0,0.0,0.0366,-0.9564,0.1240,0.7395,-0.5852,-0.2466,0.2232
240,0.0,0.0,0.0,0.0,0.0,0.0,0.0387,-0.9370,0.1185,0.7392,-0.5853,-0.2471,0.2233
241,0.0,0.0,0.0,0.0,0.0,0.0,0.0350,-0.9714,0.1300,0.7389,-0.5855,-0.2476,0.2234
242,0.0,0.0,0.0,0.0,0.0,0.0,0.0344,-0.9870,0.1312,0.7386,-0.5856,-0.2480,0.2236
243,0.0,0.0,0.0,0.0,0.0,0.0,0.0391,-0.9695,0.1179,0.7382,-0.5858,-0.2485,0.2238
244,0.0,0.0,0.0,0.0,0.0,0.0,0.0478,-0.9845,0.1189,0.7378,-0.5859,-0.2493,0.2241
245,0.0,0.0,0.0,0.0,0.0,0.0,0.0522,-0.9908,0.1192,0.7376,-0.5857,-0.2501,0.2244
246,0.0,0.0,0.0,0.0,0.0,0.0,0.0552,-0.9787,0.1155,0.7374,-0.5855,-0.2509,0.2248
247,0.0,0.0,0.0,0.0,0.0,0.0,0.0549,-0.9588,0.1077,0.7370,-0.5855,-0.2517,0.2253
248,0.0,0.0,0.0,0.0,0.0,0.0,0.0577,-0.9763,0.1126,0.7365,-0.5855,-0.2525,0.2258
249,0.0,0.0,0.0,0.0,0.0,0.0,0.0586,-0.9879,0.1167,0.7362,-0.5854,-0.2532,0.2262
250,0.0,0.0,0.0,0.0,0.0,0.0,0.0613,-0.9637,0.1045,0.7358,-0.5855,-0.2540,0.2266
251,0.0,0.0,0.0,0.0,0.0,0.0,0.0666,-0.9709,0.1072,0.7353,-0.5856,-0.2549,0.2269
252,0.0,0.0,0.0,0.0,0.0,0.0,0.0664,-0.9894,0.1131,0.7349,-0.5856,-0.2557,0.2274
253,0.0,0.0,0.0,0.0,0.0,0.0,0.0708,-0.9947,0.1134,0.7347,-0.5854,-0.2564,0.2276
254,0.0,0.0,0.0,0.0,0.0,0.0,0.0700,-0.9797,0.1069,0.7345,-0.5853,-0.2569,0.2277
255,0.0,0.0,0.0,0.0,0.0,0.0,0.0657,-0.9656,0.1034,0.7344,-0.5855,-0.2571,0.2276
256,0.0,0.0,0.0,0.0,0.0,0.0,0.0623,-0.9637,0.1016,0.7341,-0.5858,-0.2574,0.2273
257,0.0,0.0,0.0,0.0,0.0,0.0,0.0575,-0.9671,0.1002,0.7338,-0.5864,-0.2575,0.2268
258,0.0,0.0,0.0,0.0,0.0,0.0,0.0534,-0.9952,0.1089,0.7335,-0.5870,-0.2573,0.2263
259,0.0,0.0,0.0,0.0,0.0,0.0,0.0562,-1.0068,0.1120,0.7335,-0.5873,-0.2570,0.2257
260,0.0,0.0,0.0,0.0,0.0,0.0,0.0555,-0.9772,0.0991,0.7335,-0.5876,-0.2568,0.2252
261,0.0,0.0,0.0,0.0,0.0,0.0,0.0523,-0.9510,0.0900,0.7334,-0.5881,-0.2566,0.2246
262,0.0,0.0,0.0,0.0,0.0,0.0,0.0520,-0.9345,0.0860,0.7328,-0.5890,-0.2566,0.2242
263,0.0,0.0,0.0,0.0,0.0,0.0,0.0481,-1.0063,0.1035,0.7323,-0.5900,-0.2562,0.2235
264,0.0,0.0,0.0,0.0,0.0,0.0,0.0418,-1.0078,0.1021,0.7321,-0.5908,-0.2555,0.2231
265,0.0,0.0,0.0,0.0,0.0,0.0,0.0423,-0.9879,0.1020,0.7319,-0.5914,-0.2548,0.2228
266,0.0,0.0,0.0,0.0,0.0,0.0,0.0450,-0.9991,0.1114,0.7320,-0.5917,-0.2539,0.2227
267,0.0,0.0,0.0,0.0,0.0,0.0,0.0431,-0.9889,0.1116,0.7324,-0.5917,-0.2529,0.2226
268,0.0,0.0,0.0,0.0,0.0,0.0,0.0442,-0.9734,0.1076,0.7328,-0.5917,-0.2520,0.2223
269,0.0,0.0,0.0,0.0,0.0,0.0,0.0380,-0.9496,0.1004,0.7330,-0.5918,-0.2513,0.2221
270,0.0,0.0,0.0,0.0,0.0,0.0,0.0326,-0.9598,0.1042,0.7330,-0.5922,-0.2506,0.2219
271,0.0,0.0,0.0,0.0,0.0,0.0,0.0290,-0.9782,0.1102,0.7330,-0.5925,-0.2499,0.2217
272,0.0,0.0,0.0,0.0,0.0,0.0,0.0255,-0.9855,0.1125,0.7331,-0.5927,-0.2491,0.2217
273,0.0,0.0,0.0,0.0,0.0,0.0,0.0270,-0.9879,0.1129,0.7333,-0.5927,-0.2485,0.2218
274,0.0,0.0,0.0,0.0,0.0,0.0,0.0300,-0.9797,0.1087,0.7334,-0.5927,-0.2481,0.2220
275,0.0,0.0,0.0,0.0,0.0,0.0,0.0330,-0.9685,0.1050,0.7334,-0.5926,-0.2479,0.2222
276,0.0,0.0,0.0,0.0,0.0,0.0,0.0369,-0.9734,0.1058,0.7335,-0.5926,-0.2478,0.2224
277,0.0,0.0,0.0,0.0,0.0,0.0,0.0389,-0.9738,0.1043,0.7334,-0.5925,-0.2479,0.2226
278,0.0,0.0,0.0,0.0,0.0,0.0,0.0403,-0.9801,0.1037,0.7333,-0.5925,-0.2481,0.2227
279,0.0,0.0,0.0,0.0,0.0,0.0,0.0442,-0.9835,0.1030,0.7334,-0.5924,-0.2484,0.2227
280,0.0,0.0,0.0,0.0,0.0,0.0,0.0452,-0.9855,0.1025,0.7335,-0.5922,-0.2485,0.2226
281,0.0,0.0,0.0,0.0,0.0,0.0,0.0442,-0.9869,0.1034,0.7336,-0.5920,-0.2486,0.2225
282,0.0,0.0,0.0,0.0,0.0,0.0,0.0427,-0.9864,0.1040,0.7339,-0.5918,-0.2486,0.2223
283,0.0,0.0,0.0,0.0,0.0,0.0,0.0379,-0.9840,0.1041,0.7341,-0.5915,-0.2483,0.2224
284,0.0,0.0,0.0,0.0,0.0,0.0,0.0393,-0.9806,0.1042,0.7344,-0.5913,-0.2481,0.2225
285,0.0,0.0,0.0,0.0,0.0,0.0,0.0417,-0.9806,0.1070,0.7347,-0.5909,-0.2479,0.2225
286,0.0,0.0,0.0,0.0,0.0,0.0,0.0402,-0.9826,0.1109,0.7351,-0.5905,-0.2476,0.2226
287,0.0,0.0,0.0,0.0,0.0,0.0,0.0422,-0.9743,0.1105,0.7355,-0.5901,-0.2474,0.2227
288,0.0,0.0,0.0,0.0,0.0,0.0,0.0441,-0.9671,0.1106,0.7359,-0.5897,-0.2473,0.2228
289,0.0,0.0,0.0,0.0,0.0,0.0,0.0377,-0.9700,0.1150,0.7363,-0.5893,-0.2469,0.2228
290,0.0,0.0,0.0,0.0,0.0,0.0,0.0367,-0.9675,0.1180,0.7366,-0.5890,-0.2466,0.2229
291,0.0,0.0,0.0,0.0,0.0,0.0,0.0381,-0.9637,0.1175,0.7368,-0.5888,-0.2464,0.2230
292,0.0,0.0,0.0,0.0,0.0,0.0,0.0347,-0.9675,0.1195,0.7370,-0.5886,-0.2462,0.2230
293,0.0,0.0,0.0,0.0,0.0,0.0,0.0366,-0.9656,0.1204,0.7371,-0.5885,-0.2460,0.2231
294,0.0,0.0,0.0,0.0,0.0,0.0,0.0366,-0.9680,0.1199,0.7372,-0.5885,-0.2459,0.2231
295,0.0,0.0,0.0,0.0,0.0,0.0,0.0376,-0.9709,0.1189,0.7372,-0.5885,-0.2459,0.2231
296,0.0,0.0,0.0,0.0,0.0,0.0,0.0376,-0.9734,0.1174,0.7371,-0.5885,-0.2459,0.2231
297,0.0,0.0,0.0,0.0,0.0,0.0,0.0396,-0.9777,0.1148,0.7371,-0.5886,-0.2460,0.2231
298,0.0,0.0,0.0,0.0,0.0,0.0,0.0368,-0.9763,0.1101,0.7369,-0.5889,-0.2459,0.2232
299,0.0,0.0,0.0,0.0,0.0,0.0,0.0358,-0.9821,0.1114,0.7367,-0.5891,-0.2457,0.2232
300,0.0,0.0,0.0,0.0,0.0,0.0,0.0343,-0.9908,0.1127,0.7366,-0.5894,-0.2454,0.2234
301,0.0,0.0,0.0,0.0,0.0,0.0,0.0308,-0.9991,0.1151,0.7366,-0.5895,-0.2449,0.2236
302,0.0,0.0,0.0,0.0,0.0,0.0,0.0260,-0.9918,0.1143,0.7367,-0.5895,-0.2441,0.2240
303,0.0,0.0,0.0,0.0,0.0,0.0,0.0255,-0.9864,0.1149,0.7368,-0.5895,-0.2432,0.2246
304,0.0,0.0,0.0,0.0,0.0,0.0,0.0249,-0.9855,0.1193,0.7371,-0.5893,-0.2423,0.2253
305,0.0,0.0,0.0,0.0,0.0,0.0,0.0243,-0.9850,0.1232,0.7375,-0.5888,-0.2415,0.2260
306,0.0,0.0,0.0,0.0,0.0,0.0,0.0213,-0.9836,0.1272,0.7381,-0.5880,-0.2408,0.2267
307,0.0,0.0,0.0,0.0,0.0,0.0,0.0267,-0.9690,0.1273,0.7387,-0.5870,-0.2406,0.2276
308,0.0,0.0,0.0,0.0,0.0,0.0,0.0345,-0.9583,0.1288,0.7392,-0.5860,-0.2408,0.2284
309,0.0,0.0,0.0,0.0,0.0,0.0,0.0472,-0.9530,0.1311,0.7395,-0.5850,-0.2415,0.2292
310,0.0,0.0,0.0,0.0,0.0,0.0,0.0510,-0.9535,0.1334,0.7398,-0.5841,-0.2423,0.2298
311,0.0,0.0,0.0,0.0,0.0,0.0,0.0524,-0.9574,0.1362,0.7399,-0.5834,-0.2430,0.2303
312,0.0,0.0,0.0,0.0,0.0,0.0,0.0495,-0.9569,0.1358,0.7400,-0.5829,-0.2437,0.2306
313,0.0,0.0,0.0,0.0,0.0,0.0,0.0480,-0.9603,0.1367,0.7400,-0.5827,-0.2443,0.2307
314,0.0,0.0,0.0,0.0,0.0,0.0,0.0451,-0.9656,0.1372,0.7399,-0.5825,-0.2449,0.2307
315,0.0,0.0,0.0,0.0,0.0,0.0,0.0402,-0.9656,0.1363,0.7399,-0.5824,-0.2453,0.2306
316,0.0,0.0,0.0,0.0,0.0,0.0,0.0378,-0.9622,0.1364,0.7399,-0.5824,-0.2457,0.2303
317,0.0,0.0,0.0,0.0,0.0,0.0,0.0378,-0.9622,0.1364,0.7397,-0.5825,-0.2461,0.2301
318,0.0,0.0,0.0,0.0,0.0,0.0,0.0403,-0.9627,0.1339,0.7395,-0.5826,-0.2466,0.2299
319,0.0,0.0,0.0,0.0,0.0,0.0,0.0475,-0.9768,0.1340,0.7393,-0.5828,-0.2474,0.2295
320,0.0,0.0,0.0,0.0,0.0,0.0,0.0470,-0.9841,0.1339,0.7391,-0.5828,-0.2479,0.2291
321,0.0,0.0,0.0,0.0,0.0,0.0,0.0404,-0.9671,0.1281,0.7390,-0.5830,-0.2482,0.2288
322,0.0,0.0,0.0,0.0,0.0,0.0,0.0447,-0.9841,0.1276,0.7389,-0.5832,-0.2486,0.2283
323,0.0,0.0,0.0,0.0,0.0,0.0,0.0419,-0.9797,0.1234,0.7388,-0.5834,-0.2489,0.2279
324,0.0,0.0,0.0,0.0,0.0,0.0,0.0410,-0.9734,0.1178,0.7386,-0.5836,-0.2492,0.2275
325,0.0,0.0,0.0,0.0,0.0,0.0,0.0338,-0.9700,0.1156,0.7385,-0.5838,-0.2493,0.2272
326,0.0,0.0,0.0,0.0,0.0,0.0,0.0352,-0.9651,0.1190,0.7382,-0.5841,-0.2495,0.2271
327,0.0,0.0,0.0,0.0,0.0,0.0,0.0373,-1.0195,0.1314,0.7382,-0.5842,-0.2496,0.2268
328,0.0,0.0,0.0,0.0,0.0,0.0,0.0268,-0.9772,0.1228,0.7384,-0.5840,-0.2494,0.2268
329,0.0,0.0,0.0,0.0,0.0,0.0,0.0406,-0.9642,0.1175,0.7384,-0.5838,-0.2497,0.2271
330,0.0,0.0,0.0,0.0,0.0,0.0,0.0433,-0.9821,0.1253,0.7384,-0.5836,-0.2500,0.2273
331,0.0,0.0,0.0,0.0,0.0,0.0,0.0506,-0.9821,0.1290,0.7385,-0.5832,-0.2504,0.2275
332,0.0,0.0,0.0,0.0,0.0,0.0,0.0526,-0.9729,0.1258,0.7386,-0.5828,-0.2507,0.2278
333,0.0,0.0,0.0,0.0,0.0,0.0,0.0574,-0.9744,0.1281,0.7387,-0.5824,-0.2512,0.2280
334,0.0,0.0,0.0,0.0,0.0,0.0,0.0593,-0.9763,0.1304,0.7389,-0.5820,-0.2515,0.2282
335,0.0,0.0,0.0,0.0,0.0,0.0,0.0593,-0.9729,0.1305,0.7391,-0.5817,-0.2517,0.2282
336,0.0,0.0,0.0,0.0,0.0,0.0,0.0603,-0.9715,0.1295,0.7393,-0.5814,-0.2519,0.2282
337,0.0,0.0,0.0,0.0,0.0,0.0,0.0565,-0.9438,0.1253,0.7395,-0.5812,-0.2519,0.2280
338,0.0,0.0,0.0,0.0,0.0,0.0,0.0563,-0.9816,0.1318,0.7395,-0.5812,-0.2520,0.2277
339,0.0,0.0,0.0,0.0,0.0,0.0,0.0524,-0.9855,0.1342,0.7398,-0.5810,-0.2518,0.2275
340,0.0,0.0,0.0,0.0,0.0,0.0,0.0424,-0.9666,0.1261,0.7399,-0.5811,-0.2514,0.2274
341,0.0,0.0,0.0,0.0,0.0,0.0,0.0458,-0.9700,0.1221,0.7399,-0.5812,-0.2512,0.2274
342,0.0,0.0,0.0,0.0,0.0,0.0,0.0409,-0.9807,0.1244,0.7399,-0.5813,-0.2509,0.2274
343,0.0,0.0,0.0,0.0,0.0,0.0,0.0443,-0.9787,0.1234,0.7398,-0.5814,-0.2507,0.2275
344,0.0,0.0,0.0,0.0,0.0,0.0,0.0545,-0.9748,0.1247,0.7399,-0.5814,-0.2507,0.2274
345,0.0,0.0,0.0,0.0,0.0,0.0,0.0536,-0.9710,0.1229,0.7399,-0.5813,-0.2508,0.2273
346,0.0,0.0,0.0,0.0,0.0,0.0,0.0556,-0.9680,0.1224,0.7399,-0.5813,-0.2509,0.2271
347,0.0,0.0,0.0,0.0,0.0,0.0,0.0527,-0.9637,0.1226,0.7400,-0.5814,-0.2509,0.2268
348,0.0,0.0,0.0,0.0,0.0,0.0,0.0478,-0.9608,0.1222,0.7399,-0.5817,-0.2508,0.2265
349,0.0,0.0,0.0,0.0,0.0,0.0,0.0439,-0.9661,0.1232,0.7398,-0.5820,-0.2507,0.2262
350,0.0,0.0,0.0,0.0,0.0,0.0,0.0414,-0.9705,0.1251,0.7396,-0.5823,-0.2504,0.2262
351,0.0,0.0,0.0,0.0,0.0,0.0,0.0413,-0.9758,0.1269,0.7395,-0.5825,-0.2502,0.2262
352,0.0,0.0,0.0,0.0,0.0,0.0,0.0414,-0.9748,0.1235,0.7393,-0.5828,-0.2501,0.2264
353,0.0,0.0,0.0,0.0,0.0,0.0,0.0405,-0.9714,0.1212,0.7390,-0.5831,-0.2500,0.2266
354,0.0,0.0,0.0,0.0,0.0,0.0,0.0409,-0.9763,0.1240,0.7387,-0.5834,-0.2500,0.2268
355,0.0,0.0,0.0,0.0,0.0,0.0,0.0433,-0.9792,0.1268,0.7386,-0.5835,-0.2499,0.2269
356,0.0,0.0,0.0,0.0,0.0,0.0,0.0413,-0.9826,0.1277,0.7385,-0.5836,-0.2498,0.2272
357,0.0,0.0,0.0,0.0,0.0,0.0,0.0412,-0.9860,0.1320,0.7386,-0.5835,-0.2496,0.2275
358,0.0,0.0,0.0,0.0,0.0,0.0,0.0404,-0.9651,0.1271,0.7386,-0.5834,-0.2495,0.2278
359,0.0,0.0,0.0,0.0,0.0,0.0,0.0423,-0.9627,0.1271,0.7386,-0.5833,-0.2494,0.2280
360,0.0,0.0,0.0,0.0,0.0,0.0,0.0471,-0.9826,0.1325,0.7386,-0.5833,-0.2495,0.2280
361,0.0,0.0,0.0,0.0,0.0,0.0,0.0475,-0.9913,0.1352,0.7386,-0.5832,-0.2495,0.2281
362,0.0,0.0,0.0,0.0,0.0,0.0,0.0456,-0.9879,0.1333,0.7388,-0.5831,-0.2493,0.2281
363,0.0,0.0,0.0,0.0,0.0,0.0,0.0500,-0.9875,0.1342,0.7391,-0.5828,-0.2491,0.2281
364,0.0,0.0,0.0,0.0,0.0,0.0,0.0461,-0.9768,0.1307,0.7395,-0.5825,-0.2487,0.2280
365,0.0,0.0,0.0,0.0,0.0,0.0,0.0409,-0.9656,0.1266,0.7398,-0.5823,-0.2483,0.2279
366,0.0,0.0,0.0,0.0,0.0,0.0,0.0400,-0.9569,0.1239,0.7400,-0.5823,-0.2479,0.2279
367,0.0,0.0,0.0,0.0,0.0,0.0,0.0395,-0.9598,0.1229,0.7400,-0.5824,-0.2477,0.2277
368,0.0,0.0,0.0,0.0,0.0,0.0,0.0361,-0.9632,0.1229,0.7400,-0.5826,-0.2475,0.2277
369,0.0,0.0,0.0,0.0,0.0,0.0,0.0345,-0.9709,0.1262,0.7398,-0.5828,-0.2473,0.2277
370,0.0,0.0,0.0,0.0,0.0,0.0,0.0287,-0.9734,0.1277,0.7397,-0.5831,-0.2471,0.2277
371,0.0,0.0,0.0,0.0,0.0,0.0,0.0286,-0.9792,0.1305,0.7395,-0.5833,-0.2469,0.2279
372,0.0,0.0,0.0,0.0,0.0,0.0,0.0354,-0.9763,0.1304,0.7394,-0.5833,-0.2470,0.2283
373,0.0,0.0,0.0,0.0,0.0,0.0,0.0375,-0.9608,0.1258,0.7392,-0.5833,-0.2472,0.2286
374,0.0,0.0,0.0,0.0,0.0,0.0,0.0405,-0.9554,0.1235,0.7388,-0.5834,-0.2476,0.2290
375,0.0,0.0,0.0,0.0,0.0,0.0,0.0414,-0.9554,0.1234,0.7384,-0.5836,-0.2482,0.2292
376,0.0,0.0,0.0,0.0,0.0,0.0,0.0419,-0.9622,0.1257,0.7380,-0.5839,-0.2487,0.2294
377,0.0,0.0,0.0,0.0,0.0,0.0,0.0433,-0.9724,0.1284,0.7375,-0.5842,-0.2492,0.2296
378,0.0,0.0,0.0,0.0,0.0,0.0,0.0424,-0.9734,0.1255,0.7370,-0.5845,-0.2497,0.2298
379,0.0,0.0,0.0,0.0,0.0,0.0,0.0419,-0.9758,0.1211,0.7364,-0.5850,-0.2501,0.2300
380,0.0,0.0,0.0,0.0,0.0,0.0,0.0420,-0.9802,0.1176,0.7359,-0.5855,-0.2504,0.2300
381,0.0,0.0,0.0,0.0,0.0,0.0,0.0420,-0.9836,0.1166,0.7355,-0.5858,-0.2508,0.2300
382,0.0,0.0,0.0,0.0,0.0,0.0,0.0381,-0.9966,0.1169,0.7353,-0.5861,-0.2509,0.2299
383,0.0,0.0,0.0,0.0,0.0,0.0,0.0366,-0.9874,0.1166,0.7352,-0.5863,-0.2509,0.2298
384,0.0,0.0,0.0,0.0,0.0,0.0,0.0307,-0.9971,0.1185,0.7352,-0.5863,-0.2508,0.2298
385,0.0,0.0,0.0,0.0,0.0,0.0,0.0347,-0.9821,0.1148,0.7353,-0.5862,-0.2508,0.2297
386,0.0,0.0,0.0,0.0,0.0,0.0,0.0285,-0.9588,0.1101,0.7353,-0.5861,-0.2508,0.2299
387,0.0,0.0,0.0,0.0,0.0,0.0,0.0285,-0.9661,0.1138,0.7353,-0.5861,-0.2509,0.2300
388,0.0,0.0,0.0,0.0,0.0,0.0,0.0347,-0.9695,0.1199,0.7353,-0.5859,-0.2512,0.2302
389,0.0,0.0,0.0,0.0,0.0,0.0,0.0429,-0.9724,0.1226,0.7353,-0.5856,-0.2518,0.2303
390,0.0,0.0,0.0,0.0,0.0,0.0,0.0459,-0.9642,0.1203,0.7353,-0.5852,-0.2525,0.2305
391,0.0,0.0,0.0,0.0,0.0,0.0,0.0517,-0.9695,0.1210,0.7353,-0.5849,-0.2533,0.2305
392,0.0,0.0,0.0,0.0,0.0,0.0,0.0541,-0.9787,0.1218,0.7353,-0.5846,-0.2541,0.2304
393,0.0,0.0,0.0,0.0,0.0,0.0,0.0567,-0.9690,0.1166,0.7352,-0.5843,-0.2550,0.2302
394,0.0,0.0,0.0,0.0,0.0,0.0,0.0562,-0.9651,0.1152,0.7351,-0.5842,-0.2558,0.2300
395,0.0,0.0,0.0,0.0,0.0,0.0,0.0446,-0.9695,0.1130,0.7348,-0.5844,-0.2565,0.2299
396,0.0,0.0,0.0,0.0,0.0,0.0,0.0474,-0.9768,0.1157,0.7345,-0.5845,-0.2571,0.2298
397,0.0,0.0,0.0,0.0,0.0,0.0,0.0440,-0.9865,0.1165,0.7342,-0.5847,-0.2575,0.2298
398,0.0,0.0,0.0,0.0,0.0,0.0,0.0475,-0.9874,0.1116,0.7339,-0.5847,-0.2581,0.2300
399,0.0,0.0,0.0,0.0,0.0,0.0,0.0597,-0.9855,0.1114,0.7337,-0.5846,-0.2589,0.2301
400,0.0,0.0,0.0,0.0,0.0,0.0,0.0578,-0.9763,0.1102,0.7336,-0.5844,-0.2595,0.2302
401,0.0,0.0,0.0,0.0,0.0,0.0,0.0564,-0.9641,0.1056,0.7333,-0.5844,-0.2600,0.2304
402,0.0,0.0,0.0,0.0,0.0,0.0,0.0561,-0.9496,0.0967,0.7328,-0.5847,-0.2608,0.2305
403,0.0,0.0,0.0,0.0,0.0,0.0,0.0507,-0.9641,0.0970,0.7322,-0.5852,-0.2615,0.2306
404,0.0,0.0,0.0,0.0,0.0,0.0,0.0550,-0.9850,0.1018,0.7316,-0.5855,-0.2622,0.2307
405,0.0,0.0,0.0,0.0,0.0,0.0,0.0607,-0.9918,0.1059,0.7312,-0.5857,-0.2628,0.2307
406,0.0,0.0,0.0,0.0,0.0,0.0,0.0593,-0.9899,0.1070,0.7310,-0.5858,-0.2632,0.2307
407,0.0,0.0,0.0,0.0,0.0,0.0,0.0602,-0.9933,0.1083,0.7309,-0.5858,-0.2636,0.2307
408,0.0,0.0,0.0,0.0,0.0,0.0,0.0631,-0.9884,0.1098,0.7309,-0.5856,-0.2638,0.2306
409,0.0,0.0,0.0,0.0,0.0,0.0,0.0631,-0.9816,0.1080,0.7310,-0.5855,-0.2641,0.2304
410,0.0,0.0,0.0,0.0,0.0,0.0,0.0618,-0.9743,0.1033,0.7310,-0.5855,-0.2643,0.2303
411,0.0,0.0,0.0,0.0,0.0,0.0,0.0618,-0.9685,0.1025,0.7310,-0.5855,-0.2645,0.2301
412,0.0,0.0,0.0,0.0,0.0,0.0,0.0594,-0.9685,0.1025,0.7309,-0.5856,-0.2645,0.2299
413,0.0,0.0,0.0,0.0,0.0,0.0,0.0560,-0.9685,0.1002,0.7307,-0.5859,-0.2645,0.2298
414,0.0,0.0,0.0,0.0,0.0,0.0,0.0617,-0.9811,0.1066,0.7307,-0.5860,-0.2646,0.2296
415,0.0,0.0,0.0,0.0,0.0,0.0,0.0660,-0.9899,0.1112,0.7308,-0.5860,-0.2646,0.2293
416,0.0,0.0,0.0,0.0,0.0,0.0,0.0641,-0.9782,0.1071,0.7309,-0.5860,-0.2644,0.2291
417,0.0,0.0,0.0,0.0,0.0,0.0,0.0628,-0.9680,0.1025,0.7309,-0.5861,-0.2643,0.2289
418,0.0,0.0,0.0,0.0,0.0,0.0,0.0618,-0.9748,0.1014,0.7309,-0.5864,-0.2641,0.2285
419,0.0,0.0,0.0,0.0,0.0,0.0,0.0579,-0.9743,0.1020,0.7310,-0.5866,-0.2637,0.2280
420,0.0,0.0,0.0,0.0,0.0,0.0,0.0540,-0.9753,0.1030,0.7310,-0.5869,-0.2633,0.2277
421,0.0,0.0,0.0,0.0,0.0,0.0,0.0535,-0.9768,0.1035,0.7310,-0.5873,-0.2627,0.2273
422,0.0,0.0,0.0,0.0,0.0,0.0,0.0472,-0.9777,0.1036,0.7310,-0.5877,-0.2621,0.2270
423,0.0,0.0,0.0,0.0,0.0,0.0,0.0438,-0.9777,0.1032,0.7310,-0.5881,-0.2614,0.2267
424,0.0,0.0,0.0,0.0,0.0,0.0,0.0399,-0.9763,0.1004,0.7309,-0.5886,-0.2607,0.2266
425,0.0,0.0,0.0,0.0,0.0,0.0,0.0439,-0.9685,0.0980,0.7308,-0.5890,-0.2603,0.2265
426,0.0,0.0,0.0,0.0,0.0,0.0,0.0379,-0.9821,0.1037,0.7307,-0.5894,-0.2597,0.2263
427,0.0,0.0,0.0,0.0,0.0,0.0,0.0419,-0.9704,0.0990,0.7306,-0.5897,-0.2594,0.2263
428,0.0,0.0,0.0,0.0,0.0,0.0,0.0419,-0.9704,0.0980,0.7303,-0.5901,-0.2592,0.2264
429,0.0,0.0,0.0,0.0,0.0,0.0,0.0379,-0.9806,0.1023,0.7302,-0.5903,-0.2590,0.2263
430,0.0,0.0,0.0,0.0,0.0,0.0,0.0398,-0.9835,0.1036,0.7302,-0.5904,-0.2589,0.2263
431,0.0,0.0,0.0,0.0,0.0,0.0,0.0413,-0.9879,0.1040,0.7302,-0.5904,-0.2589,0.2263
432,0.0,0.0,0.0,0.0,0.0,0.0,0.0427,-0.9845,0.1045,0.7303,-0.5903,-0.2589,0.2264
433,0.0,0.0,0.0,0.0,0.0,0.0,0.0438,-0.9767,0.1022,0.7303,-0.5901,-0.2590,0.2267
434,0.0,0.0,0.0,0.0,0.0,0.0,0.0472,-0.9738,0.0998,0.7302,-0.5899,-0.2592,0.2270
435,0.0,0.0,0.0,0.0,0.0,0.0,0.0516,-0.9753,0.1011,0.7302,-0.5897,-0.2597,0.2273
436,0.0,0.0,0.0,0.0,0.0,0.0,0.0544,-0.9811,0.1067,0.7302,-0.5894,-0.2601,0.2274
437,0.0,0.0,0.0,0.0,0.0,0.0,0.0571,-1.0049,0.1149,0.7304,-0.5890,-0.2604,0.2276
438,0.0,0.0,0.0,0.0,0.0,0.0,0.0625,-1.0030,0.1119,0.7308,-0.5883,-0.2606,0.2277
439,0.0,0.0,0.0,0.0,0.0,0.0,0.0637,-0.9753,0.1057,0.7313,-0.5876,-0.2609,0.2278
440,0.0,0.0,0.0,0.0,0.0,0.0,0.0632,-0.9651,0.1083,0.7317,-0.5869,-0.2611,0.2279
441,0.0,0.0,0.0,0.0,0.0,0.0,0.0608,-0.9608,0.1056,0.7320,-0.5864,-0.2613,0.2279
442,0.0,0.0,0.0,0.0,0.0,0.0,0.0618,-0.9540,0.1047,0.7322,-0.5861,-0.2616,0.2279
443,0.0,0.0,0.0,0.0,0.0,0.0,0.0622,-0.9612,0.1060,0.7323,-0.5859,-0.2618,0.2279
444,0.0,0.0,0.0,0.0,0.0,0.0,0.0627,-0.9709,0.1053,0.7323,-0.5857,-0.2619,0.2279
445,0.0,0.0,0.0,0.0,0.0,0.0,0.0642,-0.9734,0.1024,0.7323,-0.5858,-0.2620,0.2279
446,0.0,0.0,0.0,0.0,0.0,0.0,0.0629,-0.9607,0.0968,0.7321,-0.5860,-0.2621,0.2278
447,0.0,0.0,0.0,0.0,0.0,0.0,0.0629,-0.9641,0.0997,0.7319,-0.5863,-0.2622,0.2277
448,0.0,0.0,0.0,0.0,0.0,0.0,0.0568,-0.9894,0.1104,0.7318,-0.5867,-0.2619,0.2275
449,0.0,0.0,0.0,0.0,0.0,0.0,0.0514,-0.9855,0.1120,0.7318,-0.5869,-0.2613,0.2273
450,0.0,0.0,0.0,0.0,0.0,0.0,0.0489,-0.9918,0.1139,0.7320,-0.5872,-0.2605,0.2271
451,0.0,0.0,0.0,0.0,0.0,0.0,0.0465,-0.9835,0.1107,0.7323,-0.5873,-0.2596,0.2269
452,0.0,0.0,0.0,0.0,0.0,0.0,0.0500,-0.9763,0.1060,0.7325,-0.5874,-0.2590,0.2266
453,0.0,0.0,0.0,0.0,0.0,0.0,0.0462,-0.9806,0.1045,0.7327,-0.5876,-0.2583,0.2263
454,0.0,0.0,0.0,0.0,0.0,0.0,0.0427,-0.9797,0.1070,0.7329,-0.5878,-0.2575,0.2259
455,0.0,0.0,0.0,0.0,0.0,0.0,0.0406,-0.9850,0.1132,0.7333,-0.5878,-0.2567,0.2257
456,0.0,0.0,0.0,0.0,0.0,0.0,0.0386,-0.9889,0.1156,0.7338,-0.5877,-0.2558,0.2254
457,0.0,0.0,0.0,0.0,0.0,0.0,0.0362,-0.9811,0.1143,0.7343,-0.5875,-0.2549,0.2252
458,0.0,0.0,0.0,0.0,0.0,0.0,0.0372,-0.9743,0.1140,0.7348,-0.5872,-0.2542,0.2251
459,0.0,0.0,0.0,0.0,0.0,0.0,0.0367,-0.9738,0.1140,0.7352,-0.5870,-0.2536,0.2250
460,0.0,0.0,0.0,0.0,0.0,0.0,0.0411,-0.9753,0.1148,0.7355,-0.5867,-0.2532,0.2249
461,0.0,0.0,0.0,0.0,0.0,0.0,0.0406,-0.9690,0.1174,0.7359,-0.5864,-0.2530,0.2249
462,0.0,0.0,0.0,0.0,0.0,0.0,0.0449,-0.9656,0.1208,0.7363,-0.5859,-0.2529,0.2249
463,0.0,0.0,0.0,0.0,0.0,0.0,0.0498,-0.9646,0.1207,0.7367,-0.5854,-0.2531,0.2247
464,0.0,0.0,0.0,0.0,0.0,0.0,0.0508,-0.9612,0.1178,0.7369,-0.5851,-0.2534,0.2246
465,0.0,0.0,0.0,0.0,0.0,0.0,0.0528,-0.9603,0.1168,0.7370,-0.5849,-0.2537,0.2246
466,0.0,0.0,0.0,0.0,0.0,0.0,0.0547,-0.9666,0.1191,0.7369,-0.5847,-0.2541,0.2246
467,0.0,0.0,0.0,0.0,0.0,0.0,0.0562,-0.9642,0.1172,0.7369,-0.5846,-0.2545,0.2247
468,0.0,0.0,0.0,0.0,0.0,0.0,0.0567,-0.9719,0.1170,0.7367,-0.5846,-0.2550,0.2247
469,0.0,0.0,0.0,0.0,0.0,0.0,0.0567,-0.9758,0.1165,0.7365,-0.5846,-0.2554,0.2249
470,0.0,0.0,0.0,0.0,0.0,0.0,0.0572,-0.9739,0.1141,0.7363,-0.5847,-0.2559,0.2250
471,0.0,0.0,0.0,0.0,0.0,0.0,0.0572,-0.9748,0.1141,0.7361,-0.5847,-0.2562,0.2251
472,0.0,0.0,0.0,0.0,0.0,0.0,0.0568,-0.9680,0.1089,0.7357,-0.5849,-0.2566,0.2253
473,0.0,0.0,0.0,0.0,0.0,0.0,0.0563,-0.9695,0.1079,0.7354,-0.5851,-0.2570,0.2255
474,0.0,0.0,0.0,0.0,0.0,0.0,0.0583,-0.9743,0.1073,0.7349,-0.5854,-0.2574,0.2257
475,0.0,0.0,0.0,0.0,0.0,0.0,0.0577,-0.9831,0.1100,0.7346,-0.5856,-0.2578,0.2259
476,0.0,0.0,0.0,0.0,0.0,0.0,0.0563,-0.9802,0.1082,0.7342,-0.5858,-0.2580,0.2261
477,0.0,0.0,0.0,0.0,0.0,0.0,0.0538,-0.9869,0.1095,0.7340,-0.5860,-0.2581,0.2264
478,0.0,0.0,0.0,0.0,0.0,0.0,0.0504,-0.9918,0.1110,0.7339,-0.5861,-0.2581,0.2265
479,0.0,0.0,0.0,0.0,0.0,0.0,0.0544,-0.9811,0.1067,0.7338,-0.5861,-0.2582,0.2267
480,0.0,0.0,0.0,0.0,0.0,0.0,0.0476,-0.9748,0.1056,0.7337,-0.5862,-0.2581,0.2269
481,0.0,0.0,0.0,0.0,0.0,0.0,0.0461,-0.9704,0.1076,0.7336,-0.5862,-0.2579,0.2272
482,0.0,0.0,0.0,0.0,0.0,0.0,0.0500,-0.9695,0.1104,0.7335,-0.5862,-0.2579,0.2275
483,0.0,0.0,0.0,0.0,0.0,0.0,0.0431,-0.9792,0.1133,0.7335,-0.5862,-0.2578,0.2278
484,0.0,0.0,0.0,0.0,0.0,0.0,0.0499,-0.9714,0.1109,0.7334,-0.5861,-0.2580,0.2281
485,0.0,0.0,0.0,0.0,0.0,0.0,0.0538,-0.9709,0.1113,0.7332,-0.5860,-0.2584,0.2284
486,0.0,0.0,0.0,0.0,0.0,0.0,0.0587,-0.9870,0.1128,0.7331,-0.5858,-0.2590,0.2285
487,0.0,0.0,0.0,0.0,0.0,0.0,0.0640,-0.9957,0.1135,0.7331,-0.5856,-0.2595,0.2287
488,0.0,0.0,0.0,0.0,0.0,0.0,0.0606,-0.9831,0.1138,0.7333,-0.5852,-0.2597,0.2288
489,0.0,0.0,0.0,0.0,0.0,0.0,0.0568,-0.9690,0.1093,0.7335,-0.5849,-0.2598,0.2289
490,0.0,0.0,0.0,0.0,0.0,0.0,0.0573,-0.9671,0.1094,0.7335,-0.5847,-0.2599,0.2290
491,0.0,0.0,0.0,0.0,0.0,0.0,0.0578,-0.9666,0.1089,0.7336,-0.5846,-0.2601,0.2291
492,0.0,0.0,0.0,0.0,0.0,0.0,0.0563,-0.9695,0.1118,0.7336,-0.5846,-0.2601,0.2292
493,0.0,0.0,0.0,0.0,0.0,0.0,0.0533,-0.9734,0.1132,0.7336,-0.5845,-0.2600,0.2294
494,0.0,0.0,0.0,0.0,0.0,0.0,0.0606,-0.9753,0.1149,0.7336,-0.5844,-0.2601,0.2296
495,0.0,0.0,0.0,0.0,0.0,0.0,0.0547,-0.9768,0.1160,0.7336,-0.5844,-0.2599,0.2297
496,0.0,0.0,0.0,0.0,0.0,0.0,0.0508,-0.9811,0.1170,0.7337,-0.5844,-0.2595,0.2298
497,0.0,0.0,0.0,0.0,0.0,0.0,0.0518,-0.9743,0.1137,0.7338,-0.5844,-0.2592,0.2298
498,0.0,0.0,0.0,0.0,0.0,0.0,0.0484,-0.9763,0.1142,0.7339,-0.5845,-0.2588,0.2299
499,0.0,0.0,0.0,0.0,0.0,0.0,0.0431,-0.9646,0.1121,0.7339,-0.5845,-0.2583,0.2302
500,0.0,0.0,0.0,0.0,0.0,0.0,0.0411,-0.9685,0.1126,0.7338,-0.5848,-0.2579,0.2303
501,0.0,0.0,0.0,0.0,0.0,0.0,0.0449,-0.9889,0.1184,0.7339,-0.5848,-0.2576,0.2303
502,0.0,0.0,0.0,0.0,0.0,0.0,0.0406,-0.9860,0.1166,0.7340,-0.5848,-0.2572,0.2303
503,0.0,0.0,0.0,0.0,0.0,0.0,0.0400,-0.9840,0.1181,0.7342,-0.5848,-0.2567,0.2304
504,0.0,0.0,0.0,0.0,0.0,0.0,0.0386,-0.9792,0.1172,0.7344,-0.5847,-0.2563,0.2306
505,0.0,0.0,0.0,0.0,0.0,0.0,0.0401,-0.9729,0.1149,0.7345,-0.5845,-0.2560,0.2307
506,0.0,0.0,0.0,0.0,0.0,0.0,0.0401,-0.9680,0.1145,0.7347,-0.5844,-0.2559,0.2308
507,0.0,0.0,0.0,0.0,0.0,0.0,0.0402,-0.9632,0.1117,0.7347,-0.5843,-0.2560,0.2309
508,0.0,0.0,0.0,0.0,0.0,0.0,0.0436,-0.9627,0.1102,0.7345,-0.5844,-0.2562,0.2310
509,0.0,0.0,0.0,0.0,0.0,0.0,0.0461,-0.9680,0.1110,0.7343,-0.5845,-0.2565,0.2311
510,0.0,0.0,0.0,0.0,0.0,0.0,0.0456,-0.9671,0.1091,0.7340,-0.5846,-0.2569,0.2313
511,0.0,0.0,0.0,0.0,0.0,0.0,0.0476,-0.9695,0.1076,0.7336,-0.5848,-0.2574,0.2314
512,0.0,0.0,0.0,0.0,0.0,0.0,0.0515,-0.9748,0.1079,0.7333,-0.5849,-0.2579,0.2315
513,0.0,0.0,0.0,0.0,0.0,0.0,0.0534,-0.9802,0.1082,0.7330,-0.5851,-0.2585,0.2316
514,0.0,0.0,0.0,0.0,0.0,0.0,0.0544,-0.9763,0.1064,0.7328,-0.5852,-0.2590,0.2314
515,0.0,0.0,0.0,0.0,0.0,0.0,0.0574,-0.9714,0.1025,0.7325,-0.5854,-0.2595,0.2312
516,0.0,0.0,0.0,0.0,0.0,0.0,0.0564,-0.9855,0.1028,0.7322,-0.5856,-0.2601,0.2311
517,0.0,0.0,0.0,0.0,0.0,0.0,0.0568,-0.9947,0.1069,0.7321,-0.5856,-0.2604,0.2309
518,0.0,0.0,0.0,0.0,0.0,0.0,0.0559,-0.9942,0.1060,0.7321,-0.5856,-0.2606,0.2308
519,0.0,0.0,0.0,0.0,0.0,0.0,0.0563,-0.9860,0.1066,0.7322,-0.5855,-0.2606,0.2306
520,0.0,0.0,0.0,0.0,0.0,0.0,0.0539,-0.9831,0.1062,0.7324,-0.5854,-0.2605,0.2305
521,0.0,0.0,0.0,0.0,0.0,0.0,0.0514,-0.9821,0.1082,0.7325,-0.5853,-0.2602,0.2304
522,0.0,0.0,0.0,0.0,0.0,0.0,0.0519,-0.9777,0.1093,0.7327,-0.5852,-0.2600,0.2305
523,0.0,0.0,0.0,0.0,0.0,0.0,0.0500,-0.9797,0.1098,0.7329,-0.5851,-0.2596,0.2305
524,0.0,0.0,0.0,0.0,0.0,0.0,0.0441,-0.9748,0.1124,0.7332,-0.5850,-0.2590,0.2306
525,0.0,0.0,0.0,0.0,0.0,0.0,0.0446,-0.9675,0.1130,0.7334,-0.5849,-0.2585,0.2307
526,0.0,0.0,0.0,0.0,0.0,0.0,0.0499,-0.9661,0.1158,0.7337,-0.5847,-0.2582,0.2307
527,0.0,0.0,0.0,0.0,0.0,0.0,0.0503,-0.9642,0.1192,0.7339,-0.5845,-0.2579,0.2306
528,0.0,0.0,0.0,0.0,0.0,0.0,0.0484,-0.9579,0.1155,0.7341,-0.5845,-0.2577,0.2304
529,0.0,0.0,0.0,0.0,0.0,0.0,0.0495,-0.9603,0.1121,0.7341,-0.5847,-0.2576,0.2301
530,0.0,0.0,0.0,0.0,0.0,0.0,0.0460,-0.9729,0.1158,0.7340,-0.5849,-0.2575,0.2299
531,0.0,0.0,0.0,0.0,0.0,0.0,0.0465,-0.9719,0.1148,0.7339,-0.5852,-0.2573,0.2297
532,0.0,0.0,0.0,0.0,0.0,0.0,0.0416,-0.9753,0.1139,0.7339,-0.5855,-0.2570,0.2294
533,0.0,0.0,0.0,0.0,0.0,0.0,0.0397,-0.9777,0.1100,0.7337,-0.5858,-0.2568,0.2291
534,0.0,0.0,0.0,0.0,0.0,0.0,0.0422,-0.9753,0.1105,0.7336,-0.5861,-0.2567,0.2289
535,0.0,0.0,0.0,0.0,0.0,0.0,0.0450,-0.9748,0.1119,0.7335,-0.5863,-0.2568,0.2287
536,0.0,0.0,0.0,0.0,0.0,0.0,0.0422,-0.9685,0.1101,0.7334,-0.5865,-0.2568,0.2285
537,0.0,0.0,0.0,0.0,0.0,0.0,0.0389,-0.9549,0.1042,0.7331,-0.5869,-0.2570,0.2283
538,0.0,0.0,0.0,0.0,0.0,0.0,0.0286,-0.9700,0.1065,0.7326,-0.5875,-0.2569,0.2284
539,0.0,0.0,0.0,0.0,0.0,0.0,0.0365,-0.9564,0.1008,0.7320,-0.5881,-0.2571,0.2284
540,0.0,0.0,0.0,0.0,0.0,0.0,0.0446,-0.9743,0.1076,0.7315,-0.5885,-0.2577,0.2284
541,0.0,0.0,0.0,0.0,0.0,0.0,0.0464,-0.9942,0.1163,0.7311,-0.5887,-0.2581,0.2286
542,0.0,0.0,0.0,0.0,0.0,0.0,0.0494,-0.9836,0.1111,0.7308,-0.5888,-0.2586,0.2286
543,0.0,0.0,0.0,0.0,0.0,0.0,0.0549,-0.9753,0.1054,0.7306,-0.5889,-0.2593,0.2285
544,0.0,0.0,0.0,0.0,0.0,0.0,0.0549,-0.9845,0.1052,0.7302,-0.5891,-0.2598,0.2285
545,0.0,0.0,0.0,0.0,0.0,0.0,0.0554,-0.9869,0.1042,0.7300,-0.5891,-0.2603,0.2285
546,0.0,0.0,0.0,0.0,0.0,0.0,0.0579,-0.9850,0.1018,0.7299,-0.5892,-0.2608,0.2284
547,0.0,0.0,0.0,0.0,0.0,0.0,0.0565,-0.9826,0.0970,0.7297,-0.5892,-0.2611,0.2284
548,0.0,0.0,0.0,0.0,0.0,0.0,0.0575,-0.9821,0.0960,0.7295,-0.5893,-0.2615,0.2284
549,0.0,0.0,0.0,0.0,0.0,0.0,0.0609,-0.9860,0.0973,0.7293,-0.5895,-0.2617,0.2283
550,0.0,0.0,0.0,0.0,0.0,0.0,0.0561,-0.9821,0.0956,0.7293,-0.5896,-0.2617,0.2282
551,0.0,0.0,0.0,0.0,0.0,0.0,0.0499,-0.9670,0.0907,0.7290,-0.5899,-0.2616,0.2283
552,0.0,0.0,0.0,0.0,0.0,0.0,0.0483,-0.9801,0.0953,0.7288,-0.5902,-0.2613,0.2283
553,0.0,0.0,0.0,0.0,0.0,0.0,0.0478,-0.9806,0.0958,0.7287,-0.5905,-0.2612,0.2283
554,0.0,0.0,0.0,0.0,0.0,0.0,0.0477,-0.9995,0.0993,0.7286,-0.5907,-0.2609,0.2283
555,0.0,0.0,0.0,0.0,0.0,0.0,0.0550,-0.9942,0.0978,0.7288,-0.5905,-0.2608,0.2282
556,0.0,0.0,0.0,0.0,0.0,0.0,0.0572,-0.9622,0.0882,0.7289,-0.5904,-0.2610,0.2280
557,0.0,0.0,0.0,0.0,0.0,0.0,0.0518,-0.9690,0.0896,0.7289,-0.5905,-0.2610,0.2278
558,0.0,0.0,0.0,0.0,0.0,0.0,0.0488,-0.9908,0.0956,0.7290,-0.5905,-0.2609,0.2276
559,0.0,0.0,0.0,0.0,0.0,0.0,0.0483,-0.9918,0.0955,0.7291,-0.5905,-0.2607,0.2274
560,0.0,0.0,0.0,0.0,0.0,0.0,0.0499,-0.9733,0.0901,0.7292,-0.5905,-0.2607,0.2272
561,0.0,0.0,0.0,0.0,0.0,0.0,0.0495,-0.9680,0.0863,0.7291,-0.5906,-0.2608,0.2271
562,0.0,0.0,0.0,0.0,0.0,0.0,0.0504,-0.9767,0.0890,0.7290,-0.5907,-0.2609,0.2270
563,0.0,0.0,0.0,0.0,0.0,0.0,0.0503,-0.9772,0.0905,0.7290,-0.5908,-0.2610,0.2269
564,0.0,0.0,0.0,0.0,0.0,0.0,0.0523,-0.9806,0.0918,0.7289,-0.5908,-0.2611,0.2270
565,0.0,0.0,0.0,0.0,0.0,0.0,0.0512,-0.9864,0.0941,0.7288,-0.5909,-0.2609,0.2271
566,0.0,0.0,0.0,0.0,0.0,0.0,0.0532,-0.9830,0.0937,0.7289,-0.5909,-0.2609,0.2271
567,0.0,0.0,0.0,0.0,0.0,0.0,0.0571,-0.9797,0.0937,0.7289,-0.5908,-0.2608,0.2272
568,0.0,0.0,0.0,0.0,0.0,0.0,0.0561,-0.9758,0.0943,0.7290,-0.5908,-0.2608,0.2272
569,0.0,0.0,0.0,0.0,0.0,0.0,0.0541,-0.9729,0.0973,0.7291,-0.5907,-0.2606,0.2272
570,0.0,0.0,0.0,0.0,0.0,0.0,0.0522,-0.9719,0.0954,0.7291,-0.5908,-0.2603,0.2271
571,0.0,0.0,0.0,0.0,0.0,0.0,0.0482,-0.9797,0.1001,0.7292,-0.5909,-0.2600,0.2270
572,0.0,0.0,0.0,0.0,0.0,0.0,0.0418,-0.9908,0.1039,0.7294,-0.5909,-0.2594,0.2270
573,0.0,0.0,0.0,0.0,0.0,0.0,0.0394,-0.9845,0.1012,0.7296,-0.5909,-0.2588,0.2270
574,0.0,0.0,0.0,0.0,0.0,0.0,0.0389,-0.9830,0.1007,0.7298,-0.5909,-0.2582,0.2271
575,0.0,0.0,0.0,0.0,0.0,0.0,0.0390,-0.9777,0.0994,0.7300,-0.5908,-0.2577,0.2274
576,0.0,0.0,0.0,0.0,0.0,0.0,0.0395,-0.9661,0.0972,0.7301,-0.5908,-0.2573,0.2276
577,0.0,0.0,0.0,0.0,0.0,0.0,0.0396,-0.9544,0.0916,0.7299,-0.5909,-0.2571,0.2279
578,0.0,0.0,0.0,0.0,0.0,0.0,0.0372,-0.9515,0.0893,0.7296,-0.5913,-0.2570,0.2282
579,0.0,0.0,0.0,0.0,0.0,0.0,0.0390,-0.9622,0.0958,0.7292,-0.5916,-0.2570,0.2284
580,0.0,0.0,0.0,0.0,0.0,0.0,0.0416,-0.9947,0.1096,0.7290,-0.5918,-0.2569,0.2286
581,0.0,0.0,0.0,0.0,0.0,0.0,0.0420,-1.0156,0.1150,0.7291,-0.5918,-0.2566,0.2288
582,0.0,0.0,0.0,0.0,0.0,0.0,0.0441,-1.0029,0.1065,0.7294,-0.5915,-0.2563,0.2288
583,0.0,0.0,0.0,0.0,0.0,0.0,0.0444,-0.9661,0.0966,0.7297,-0.5914,-0.2560,0.2288
584,0.0,0.0,0.0,0.0,0.0,0.0,0.0434,-0.9641,0.0972,0.7297,-0.5914,-0.2558,0.2289
585,0.0,0.0,0.0,0.0,0.0,0.0,0.0374,-0.9923,0.1040,0.7299,-0.5913,-0.2554,0.2289
586,0.0,0.0,0.0,0.0,0.0,0.0,0.0369,-0.9758,0.1028,0.7301,-0.5912,-0.2551,0.2289
587,0.0,0.0,0.0,0.0,0.0,0.0,0.0408,-0.9864,0.1045,0.7304,-0.5910,-0.2548,0.2289
588,0.0,0.0,0.0,0.0,0.0,0.0,0.0364,-0.9777,0.1033,0.7307,-0.5908,-0.2543,0.2289
589,0.0,0.0,0.0,0.0,0.0,0.0,0.0355,-0.9690,0.1011,0.7309,-0.5907,-0.2539,0.2290
590,0.0,0.0,0.0,0.0,0.0,0.0,0.0356,-0.9641,0.0992,0.7309,-0.5907,-0.2536,0.2292
591,0.0,0.0,0.0,0.0,0.0,0.0,0.0379,-0.9709,0.1039,0.7309,-0.5907,-0.2534,0.2294
592,0.0,0.0,0.0,0.0,0.0,0.0,0.0364,-0.9743,0.1077,0.7309,-0.5907,-0.2532,0.2295
593,0.0,0.0,0.0,0.0,0.0,0.0,0.0364,-0.9753,0.1067,0.7309,-0.5907,-0.2530,0.2297
594,0.0,0.0,0.0,0.0,0.0,0.0,0.0335,-0.9704,0.1045,0.7309,-0.5908,-0.2528,0.2298
595,0.0,0.0,0.0,0.0,0.0,0.0,0.0316,-0.9724,0.1025,0.7308,-0.5910,-0.2526,0.2299
596,0.0,0.0,0.0,0.0,0.0,0.0,0.0291,-0.9811,0.1034,0.7307,-0.5911,-0.2524,0.2300
597,0.0,0.0,0.0,0.0,0.0,0.0,0.0277,-0.9796,0.1010,0.7306,-0.5913,-0.2523,0.2300
598,0.0,0.0,0.0,0.0,0.0,0.0,0.0287,-0.9816,0.1000,0.7306,-0.5913,-0.2523,0.2301
599,0.0,0.0,0.0,0.0,0.0,0.0,0.0326,-0.9830,0.0975,0.7304,-0.5913,-0.2525,0.2302
600,0.0,0.0,0.0,0.0,0.0,0.0,0.0352,-0.9690,0.0924,0.7303,-0.5914,-0.2529,0.2303
601,0.0,0.0,0.0,0.0,0.0,0.0,0.0353,-0.9627,0.0891,0.7299,-0.5916,-0.2534,0.2304
602,0.0,0.0,0.0,0.0,0.0,0.0,0.0356,-0.9792,0.0941,0.7296,-0.5918,-0.2538,0.2304
603,0.0,0.0,0.0,0.0,0.0,0.0,0.0346,-0.9932,0.0982,0.7293,-0.5919,-0.2542,0.2304
604,0.0,0.0,0.0,0.0,0.0,0.0,0.0373,-1.0063,0.1056,0.7293,-0.5917,-0.2545,0.2306
605,0.0,0.0,0.0,0.0,0.0,0.0,0.0407,-1.0010,0.1052,0.7296,-0.5913,-0.2547,0.2307
606,0.0,0.0,0.0,0.0,0.0,0.0,0.0367,-0.9641,0.0896,0.7297,-0.5910,-0.2549,0.2310
607,0.0,0.0,0.0,0.0,0.0,0.0,0.0415,-0.9758,0.0941,0.7296,-0.5908,-0.2553,0.2313
608,0.0,0.0,0.0,0.0,0.0,0.0,0.0448,-0.9855,0.0996,0.7296,-0.5905,-0.2557,0.2315
609,0.0,0.0,0.0,0.0,0.0,0.0,0.0476,-0.9831,0.1030,0.7298,-0.5901,-0.2561,0.2317
610,0.0,0.0,0.0,0.0,0.0,0.0,0.0476,-0.9763,0.1055,0.7301,-0.5896,-0.2563,0.2318
611,0.0,0.0,0.0,0.0,0.0,0.0,0.0507,-0.9506,0.1011,0.7302,-0.5891,-0.2567,0.2319
612,0.0,0.0,0.0,0.0,0.0,0.0,0.0502,-0.9452,0.0998,0.7301,-0.5890,-0.2572,0.2319
613,0.0,0.0,0.0,0.0,0.0,0.0,0.0424,-0.9569,0.1002,0.7299,-0.5892,-0.2576,0.2318
614,0.0,0.0,0.0,0.0,0.0,0.0,0.0453,-0.9670,0.0990,0.7294,-0.5896,-0.2581,0.2319
615,0.0,0.0,0.0,0.0,0.0,0.0,0.0481,-0.9792,0.1040,0.7290,-0.5899,-0.2586,0.2319
616,0.0,0.0,0.0,0.0,0.0,0.0,0.0475,-0.9879,0.1082,0.7287,-0.5900,-0.2590,0.2319
617,0.0,0.0,0.0,0.0,0.0,0.0,0.0563,-0.9889,0.1099,0.7286,-0.5899,-0.2596,0.2318
618,0.0,0.0,0.0,0.0,0.0,0.0,0.0549,-0.9811,0.1062,0.7285,-0.5899,-0.2600,0.2318
619,0.0,0.0,0.0,0.0,0.0,0.0,0.0511,-0.9797,0.1015,0.7284,-0.5899,-0.2603,0.2315
620,0.0,0.0,0.0,0.0,0.0,0.0,0.0453,-0.9889,0.0971,0.7283,-0.5901,-0.2605,0.2313
621,0.0,0.0,0.0,0.0,0.0,0.0,0.0538,-0.9666,0.0892,0.7282,-0.5902,-0.2609,0.2309
622,0.0,0.0,0.0,0.0,0.0,0.0,0.0503,-0.9826,0.0928,0.7279,-0.5904,-0.2613,0.2308
623,0.0,0.0,0.0,0.0,0.0,0.0,0.0429,-0.9923,0.0956,0.7278,-0.5906,-0.2612,0.2306
624,0.0,0.0,0.0,0.0,0.0,0.0,0.0453,-1.0010,0.0983,0.7278,-0.5907,-0.2612,0.2307
625,0.0,0.0,0.0,0.0,0.0,0.0,0.0448,-0.9913,0.0971,0.7280,-0.5905,-0.2610,0.2308
626,0.0,0.0,0.0,0.0,0.0,0.0,0.0533,-0.9680,0.0906,0.7280,-0.5903,-0.2612,0.2310
627,0.0,0.0,0.0,0.0,0.0,0.0,0.0572,-0.9670,0.0891,0.7280,-0.5901,-0.2615,0.2310
628,0.0,0.0,0.0,0.0,0.0,0.0,0.0552,-0.9709,0.0924,0.7280,-0.5901,-0.2617,0.2310
629,0.0,0.0,0.0,0.0,0.0,0.0,0.0537,-0.9748,0.0919,0.7279,-0.5902,-0.2618,0.2309
630,0.0,0.0,0.0,0.0,0.0,0.0,0.0527,-0.9801,0.0918,0.7278,-0.5903,-0.2619,0.2309
631,0.0,0.0,0.0,0.0,0.0,0.0,0.0518,-0.9801,0.0923,0.7276,-0.5905,-0.2618,0.2309
632,0.0,0.0,0.0,0.0,0.0,0.0,0.0449,-0.9826,0.0924,0.7275,-0.5907,-0.2617,0.2308
633,0.0,0.0,0.0,0.0,0.0,0.0,0.0459,-0.9821,0.0929,0.7275,-0.5908,-0.2616,0.2308
634,0.0,0.0,0.0,0.0,0.0,0.0,0.0440,-0.9743,0.0897,0.7274,-0.5910,-0.2615,0.2307
635,0.0,0.0,0.0,0.0,0.0,0.0,0.0406,-0.9685,0.0899,0.7273,-0.5912,-0.2614,0.2306
636,0.0,0.0,0.0,0.0,0.0,0.0,0.0381,-0.9719,0.0923,0.7271,-0.5915,-0.2612,0.2306
637,0.0,0.0,0.0,0.0,0.0,0.0,0.0376,-0.9733,0.0927,0.7269,-0.5918,-0.2611,0.2306
638,0.0,0.0,0.0,0.0,0.0,0.0,0.0366,-0.9835,0.0950,0.7267,-0.5921,-0.2610,0.2308
639,0.0,0.0,0.0,0.0,0.0,0.0,0.0365,-0.9918,0.0977,0.7266,-0.5922,-0.2608,0.2310
640,0.0,0.0,0.0,0.0,0.0,0.0,0.0404,-0.9966,0.0980,0.7265,-0.5922,-0.2607,0.2313
641,0.0,0.0,0.0,0.0,0.0,0.0,0.0447,-1.0049,0.1007,0.7267,-0.5919,-0.2606,0.2315
642,0.0,0.0,0.0,0.0,0.0,0.0,0.0409,-1.0010,0.0994,0.7271,-0.5915,-0.2604,0.2317
643,0.0,0.0,0.0,0.0,0.0,0.0,0.0473,-0.9908,0.0975,0.7275,-0.5909,-0.2603,0.2318
644,0.0,0.0,0.0,0.0,0.0,0.0,0.0462,-0.9961,0.1023,0.7281,-0.5903,-0.2600,0.2318
645,0.0,0.0,0.0,0.0,0.0,0.0,0.0472,-0.9835,0.0996,0.7289,-0.5895,-0.2598,0.2317
646,0.0,0.0,0.0,0.0,0.0,0.0,0.0464,-0.9680,0.0941,0.7295,-0.5888,-0.2598,0.2317
647,0.0,0.0,0.0,0.0,0.0,0.0,0.0410,-0.9573,0.0949,0.7300,-0.5881,-0.2598,0.2318
648,0.0,0.0,0.0,0.0,0.0,0.0,0.0439,-0.9578,0.0992,0.7304,-0.5875,-0.2600,0.2319
649,0.0,0.0,0.0,0.0,0.0,0.0,0.0477,-0.9675,0.1038,0.7307,-0.5869,-0.2604,0.2320
650,0.0,0.0,0.0,0.0,0.0,0.0,0.0473,-0.9535,0.1002,0.7309,-0.5863,-0.2611,0.2321
651,0.0,0.0,0.0,0.0,0.0,0.0,0.0511,-0.9549,0.1030,0.7309,-0.5859,-0.2620,0.2323
652,0.0,0.0,0.0,0.0,0.0,0.0,0.0509,-0.9719,0.1113,0.7308,-0.5855,-0.2626,0.2327
653,0.0,0.0,0.0,0.0,0.0,0.0,0.0553,-0.9724,0.1122,0.7306,-0.5852,-0.2632,0.2334
654,0.0,0.0,0.0,0.0,0.0,0.0,0.0611,-0.9753,0.1111,0.7304,-0.5849,-0.2638,0.2343
655,0.0,0.0,0.0,0.0,0.0,0.0,0.0670,-0.9748,0.1095,0.7301,-0.5847,-0.2643,0.2351
656,0.0,0.0,0.0,0.0,0.0,0.0,0.0677,-0.9666,0.1034,0.7297,-0.5846,-0.2648,0.2358
657,0.0,0.0,0.0,0.0,0.0,0.0,0.0697,-0.9646,0.1005,0.7292,-0.5847,-0.2654,0.2365
658,0.0,0.0,0.0,0.0,0.0,0.0,0.0710,-0.9831,0.1030,0.7288,-0.5850,-0.2657,0.2367
659,0.0,0.0,0.0,0.0,0.0,0.0,0.0691,-0.9894,0.1019,0.7285,-0.5854,-0.2658,0.2367
660,0.0,0.0,0.0,0.0,0.0,0.0,0.0618,-0.9932,0.1001,0.7284,-0.5857,-0.2657,0.2363
661,0.0,0.0,0.0,0.0,0.0,0.0,0.0496,-0.9961,0.1003,0.7284,-0.5862,-0.2651,0.2357
662,0.0,0.0,0.0,0.0,0.0,0.0,0.0408,-1.0020,0.1042,0.7287,-0.5865,-0.2642,0.2350
663,0.0,0.0,0.0,0.0,0.0,0.0,0.0270,-1.0083,0.1101,0.7293,-0.5866,-0.2629,0.2341
664,0.0,0.0,0.0,0.0,0.0,0.0,0.0158,-0.9952,0.1121,0.7302,-0.5865,-0.2615,0.2334
665,0.0,0.0,0.0,0.0,0.0,0.0,0.0202,-0.9792,0.1128,0.7311,-0.5860,-0.2603,0.2330
666,0.0,0.0,0.0,0.0,0.0,0.0,0.0217,-0.9666,0.1125,0.7320,-0.5855,-0.2594,0.2327
667,0.0,0.0,0.0,0.0,0.0,0.0,0.0270,-0.9583,0.1126,0.7327,-0.5849,-0.2588,0.2323
668,0.0,0.0,0.0,0.0,0.0,0.0,0.0334,-0.9540,0.1106,0.7332,-0.5846,-0.2586,0.2319
669,0.0,0.0,0.0,0.0,0.0,0.0,0.0359,-0.9496,0.1101,0.7334,-0.5844,-0.2586,0.2318
670,0.0,0.0,0.0,0.0,0.0,0.0,0.0382,-0.9564,0.1143,0.7336,-0.5841,-0.2589,0.2316
671,0.0,0.0,0.0,0.0,0.0,0.0,0.0415,-0.9661,0.1198,0.7338,-0.5839,-0.2592,0.2313
672,0.0,0.0,0.0,0.0,0.0,0.0,0.0483,-0.9700,0.1192,0.7340,-0.5835,-0.2598,0.2310
673,0.0,0.0,0.0,0.0,0.0,0.0,0.0514,-0.9666,0.1119,0.7340,-0.5832,-0.2606,0.2307
674,0.0,0.0,0.0,0.0,0.0,0.0,0.0588,-0.9695,0.1083,0.7339,-0.5829,-0.2617,0.2305
675,0.0,0.0,0.0,0.0,0.0,0.0,0.0657,-0.9739,0.1052,0.7336,-0.5828,-0.2628,0.2304
676,0.0,0.0,0.0,0.0,0.0,0.0,0.0774,-0.9709,0.1021,0.7333,-0.5826,-0.2641,0.2303
677,0.0,0.0,0.0,0.0,0.0,0.0,0.0744,-0.9748,0.1065,0.7330,-0.5827,-0.2650,0.2303
678,0.0,0.0,0.0,0.0,0.0,0.0,0.0802,-0.9811,0.1062,0.7327,-0.5827,-0.2658,0.2301
679,0.0,0.0,0.0,0.0,0.0,0.0,0.0770,-0.9666,0.0964,0.7324,-0.5829,-0.2665,0.2300
680,0.0,0.0,0.0,0.0,0.0,0.0,0.0779,-0.9821,0.1009,0.7319,-0.5832,-0.2670,0.2299
681,0.0,0.0,0.0,0.0,0.0,0.0,0.0684,-1.0059,0.1098,0.7318,-0.5835,-0.2669,0.2299
682,0.0,0.0,0.0,0.0,0.0,0.0,0.0698,-1.0093,0.1131,0.7318,-0.5835,-0.2666,0.2300
683,0.0,0.0,0.0,0.0,0.0,0.0,0.0664,-1.0030,0.1138,0.7321,-0.5834,-0.2659,0.2303
684,0.0,0.0,0.0,0.0,0.0,0.0,0.0661,-0.9777,0.1085,0.7324,-0.5832,-0.2651,0.2307
685,0.0,0.0,0.0,0.0,0.0,0.0,0.0696,-0.9501,0.1042,0.7325,-0.5832,-0.2645,0.2311
686,0.0,0.0,0.0,0.0,0.0,0.0,0.0578,-0.9588,0.1076,0.7326,-0.5833,-0.2637,0.2313
687,0.0,0.0,0.0,0.0,0.0,0.0,0.0506,-0.9569,0.1058,0.7326,-0.5835,-0.2628,0.2318
688,0.0,0.0,0.0,0.0,0.0,0.0,0.0534,-0.9578,0.1111,0.7325,-0.5838,-0.2621,0.2322
689,0.0,0.0,0.0,0.0,0.0,0.0,0.0356,-0.9840,0.1206,0.7325,-0.5842,-0.2609,0.2324
690,0.0,0.0,0.0,0.0,0.0,0.0,0.0361,-0.9899,0.1180,0.7325,-0.5846,-0.2598,0.2327
691,0.0,0.0,0.0,0.0,0.0,0.0,0.0391,-0.9792,0.1143,0.7324,-0.5851,-0.2589,0.2327
692,0.0,0.0,0.0,0.0,0.0,0.0,0.0251,-0.9700,0.1124,0.7323,-0.5857,-0.2579,0.2329
693,0.0,0.0,0.0,0.0,0.0,0.0,0.0296,-0.9588,0.1062,0.7320,-0.5861,-0.2573,0.2333
694,0.0,0.0,0.0,0.0,0.0,0.0,0.0345,-0.9506,0.1044,0.7316,-0.5865,-0.2571,0.2337
695,0.0,0.0,0.0,0.0,0.0,0.0,0.0330,-0.9632,0.1066,0.7311,-0.5871,-0.2568,0.2341
696,0.0,0.0,0.0,0.0,0.0,0.0,0.0252,-0.9680,0.1081,0.7306,-0.5877,-0.2564,0.2347
697,0.0,0.0,0.0,0.0,0.0,0.0,0.0261,-0.9704,0.1085,0.7300,-0.5882,-0.2563,0.2353
698,0.0,0.0,0.0,0.0,0.0,0.0,0.0251,-0.9835,0.1111,0.7294,-0.5886,-0.2562,0.2361
699,0.0,0.0,0.0,0.0,0.0,0.0,0.0343,-0.9995,0.1131,0.7290,-0.5888,-0.2565,0.2368
700,0.0,0.0,0.0,0.0,0.0,0.0,0.0362,-0.9996,0.1145,0.7287,-0.5888,-0.2568,0.2376
701,0.0,0.0,0.0,0.0,0.0,0.0,0.0376,-1.0054,0.1163,0.7286,-0.5887,-0.2568,0.2381
702,0.0,0.0,0.0,0.0,0.0,0.0,0.0451,-0.9976,0.1095,0.7285,-0.5885,-0.2570,0.2385
703,0.0,0.0,0.0,0.0,0.0,0.0,0.0453,-0.9748,0.1003,0.7286,-0.5883,-0.2571,0.2387
704,0.0,0.0,0.0,0.0,0.0,0.0,0.0430,-0.9602,0.0958,0.7285,-0.5884,-0.2573,0.2386
705,0.0,0.0,0.0,0.0,0.0,0.0,0.0330,-0.9879,0.1037,0.7286,-0.5885,-0.2570,0.2384
706,0.0,0.0,0.0,0.0,0.0,0.0,0.0335,-0.9729,0.1025,0.7288,-0.5885,-0.2567,0.2381
707,0.0,0.0,0.0,0.0,0.0,0.0,0.0290,-0.9835,0.1072,0.7291,-0.5884,-0.2563,0.2377
708,0.0,0.0,0.0,0.0,0.0,0.0,0.0256,-0.9864,0.1096,0.7296,-0.5883,-0.2557,0.2371
709,0.0,0.0,0.0,0.0,0.0,0.0,0.0224,-1.0054,0.1199,0.7303,-0.5879,-0.2549,0.2367
710,0.0,0.0,0.0,0.0,0.0,0.0,0.0188,-1.0112,0.1276,0.7313,-0.5871,-0.2539,0.2366
711,0.0,0.0,0.0,0.0,0.0,0.0,0.0231,-1.0228,0.1321,0.7326,-0.5860,-0.2528,0.2366
712,0.0,0.0,0.0,0.0,0.0,0.0,0.0302,-0.9923,0.1234,0.7341,-0.5844,-0.2520,0.2368
713,0.0,0.0,0.0,0.0,0.0,0.0,0.0358,-0.9486,0.1160,0.7352,-0.5830,-0.2515,0.2372
714,0.0,0.0,0.0,0.0,0.0,0.0,0.0356,-0.9700,0.1223,0.7361,-0.5818,-0.2512,0.2378
715,0.0,0.0,0.0,0.0,0.0,0.0,0.0396,-0.9559,0.1172,0.7367,-0.5808,-0.2511,0.2385
716,0.0,0.0,0.0,0.0,0.0,0.0,0.0426,-0.9331,0.1147,0.7370,-0.5801,-0.2512,0.2392
717,0.0,0.0,0.0,0.0,0.0,0.0,0.0421,-0.9331,0.1181,0.7370,-0.5797,-0.2515,0.2399
718,0.0,0.0,0.0,0.0,0.0,0.0,0.0401,-0.9336,0.1191,0.7368,-0.5796,-0.2519,0.2403
719,0.0,0.0,0.0,0.0,0.0,0.0,0.0449,-0.9438,0.1236,0.7364,-0.5797,-0.2524,0.2406
720,0.0,0.0,0.0,0.0,0.0,0.0,0.0408,-0.9608,0.1287,0.7360,-0.5800,-0.2528,0.2407
721,0.0,0.0,0.0,0.0,0.0,0.0,0.0383,-0.9705,0.1319,0.7357,-0.5803,-0.2531,0.2406
722,0.0,0.0,0.0,0.0,0.0,0.0,0.0325,-0.9700,0.1301,0.7355,-0.5807,-0.2532,0.2404
723,0.0,0.0,0.0,0.0,0.0,0.0,0.0295,-0.9831,0.1338,0.7353,-0.5811,-0.2532,0.2400
724,0.0,0.0,0.0,0.0,0.0,0.0,0.0274,-0.9938,0.1384,0.7353,-0.5813,-0.2530,0.2395
725,0.0,0.0,0.0,0.0,0.0,0.0,0.0201,-0.9894,0.1382,0.7355,-0.5814,-0.2526,0.2392
726,0.0,0.0,0.0,0.0,0.0,0.0,0.0207,-0.9811,0.1345,0.7358,-0.5814,-0.2524,0.2387
727,0.0,0.0,0.0,0.0,0.0,0.0,0.0241,-0.9855,0.1358,0.7360,-0.5812,-0.2523,0.2383
728,0.0,0.0,0.0,0.0,0.0,0.0,0.0275,-0.9777,0.1354,0.7363,-0.5809,-0.2522,0.2382
729,0.0,0.0,0.0,0.0,0.0,0.0,0.0314,-0.9739,0.1349,0.7366,-0.5805,-0.2523,0.2381
730,0.0,0.0,0.0,0.0,0.0,0.0,0.0344,-0.9700,0.1330,0.7368,-0.5802,-0.2525,0.2383
731,0.0,0.0,0.0,0.0,0.0,0.0,0.0368,-0.9676,0.1339,0.7369,-0.5798,-0.2528,0.2385
732,0.0,0.0,0.0,0.0,0.0,0.0,0.0398,-0.9637,0.1320,0.7369,-0.5796,-0.2531,0.2387
733,0.0,0.0,0.0,0.0,0.0,0.0,0.0472,-0.9550,0.1272,0.7368,-0.5794,-0.2537,0.2389
734,0.0,0.0,0.0,0.0,0.0,0.0,0.0516,-0.9637,0.1284,0.7366,-0.5793,-0.2544,0.2391
735,0.0,0.0,0.0,0.0,0.0,0.0,0.0525,-0.9710,0.1277,0.7363,-0.5793,-0.2550,0.2392
736,0.0,0.0,0.0,0.0,0.0,0.0,0.0531,-0.9666,0.1240,0.7361,-0.5794,-0.2555,0.2391
737,0.0,0.0,0.0,0.0,0.0,0.0,0.0541,-0.9676,0.1215,0.7358,-0.5796,-0.2560,0.2390
738,0.0,0.0,0.0,0.0,0.0,0.0,0.0488,-0.9748,0.1215,0.7355,-0.5800,-0.2563,0.2388
739,0.0,0.0,0.0,0.0,0.0,0.0,0.0458,-0.9831,0.1223,0.7353,-0.5803,-0.2563,0.2385
740,0.0,0.0,0.0,0.0,0.0,0.0,0.0405,-0.9836,0.1219,0.7351,-0.5807,-0.2562,0.2381
741,0.0,0.0,0.0,0.0,0.0,0.0,0.0302,-0.9855,0.1236,0.7351,-0.5811,-0.2558,0.2378
742,0.0,0.0,0.0,0.0,0.0,0.0,0.0331,-0.9845,0.1255,0.7351,-0.5812,-0.2555,0.2376
743,0.0,0.0,0.0,0.0,0.0,0.0,0.0345,-0.9884,0.1282,0.7352,-0.5813,-0.2552,0.2375
744,0.0,0.0,0.0,0.0,0.0,0.0,0.0325,-0.9840,0.1293,0.7354,-0.5812,-0.2548,0.2373
745,0.0,0.0,0.0,0.0,0.0,0.0,0.0297,-0.9617,0.1279,0.7357,-0.5812,-0.2544,0.2373
746,0.0,0.0,0.0,0.0,0.0,0.0,0.0253,-0.9637,0.1270,0.7358,-0.5813,-0.2538,0.2375
747,0.0,0.0,0.0,0.0,0.0,0.0,0.0361,-0.9525,0.1251,0.7357,-0.5813,-0.2537,0.2376
748,0.0,0.0,0.0,0.0,0.0,0.0,0.0380,-0.9574,0.1249,0.7355,-0.5815,-0.2538,0.2377
749,0.0,0.0,0.0,0.0,0.0,0.0,0.0380,-0.9579,0.1244,0.7352,-0.5817,-0.2539,0.2378
750,0.0,0.0,0.0,0.0,0.0,0.0,0.0424,-0.9651,0.1261,0.7349,-0.5820,-0.2542,0.2378
751,0.0,0.0,0.0,0.0,0.0,0.0,0.0365,-0.9719,0.1266,0.7346,-0.5824,-0.2542,0.2376
752,0.0,0.0,0.0,0.0,0.0,0.0,0.0384,-0.9777,0.1260,0.7344,-0.5828,-0.2543,0.2373
753,0.0,0.0,0.0,0.0,0.0,0.0,0.0370,-0.9908,0.1257,0.7342,-0.5832,-0.2542,0.2370
754,0.0,0.0,0.0,0.0,0.0,0.0,0.0336,-0.9845,0.1216,0.7342,-0.5835,-0.2540,0.2367
755,0.0,0.0,0.0,0.0,0.0,0.0,0.0353,-0.9748,0.1135,0.7340,-0.5838,-0.2539,0.2364
756,0.0,0.0,0.0,0.0,0.0,0.0,0.0343,-0.9801,0.1110,0.7338,-0.5842,-0.2538,0.2363
757,0.0,0.0,0.0,0.0,0.0,0.0,0.0338,-0.9908,0.1103,0.7335,-0.5846,-0.2536,0.2363
758,0.0,0.0,0.0,0.0,0.0,0.0,0.0343,-0.9976,0.1102,0.7333,-0.5850,-0.2534,0.2363
759,0.0,0.0,0.0,0.0,0.0,0.0,0.0343,-0.9976,0.1112,0.7333,-0.5851,-0.2530,0.2363
760,0.0,0.0,0.0,0.0,0.0,0.0,0.0309,-0.9860,0.1095,0.7334,-0.5852,-0.2525,0.2364
761,0.0,0.0,0.0,0.0,0.0,0.0,0.0334,-0.9724,0.1093,0.7335,-0.5852,-0.2521,0.2364
762,0.0,0.0,0.0,0.0,0.0,0.0,0.0309,-0.9685,0.1118,0.7336,-0.5853,-0.2517,0.2364
763,0.0,0.0,0.0,0.0,0.0,0.0,0.0270,-0.9588,0.1126,0.7337,-0.5853,-0.2513,0.2363
764,0.0,0.0,0.0,0.0,0.0,0.0,0.0265,-0.9612,0.1149,0.7338,-0.5855,-0.2511,0.2361
765,0.0,0.0,0.0,0.0,0.0,0.0,0.0259,-0.9637,0.1178,0.7338,-0.5856,-0.2510,0.2360
766,0.0,0.0,0.0,0.0,0.0,0.0,0.0268,-0.9700,0.1215,0.7337,-0.5857,-0.2508,0.2360
767,0.0,0.0,0.0,0.0,0.0,0.0,0.0283,-0.9695,0.1229,0.7337,-0.5858,-0.2508,0.2359
768,0.0,0.0,0.0,0.0,0.0,0.0,0.0308,-0.9700,0.1205,0.7336,-0.5858,-0.2511,0.2358
769,0.0,0.0,0.0,0.0,0.0,0.0,0.0317,-0.9777,0.1193,0.7335,-0.5859,-0.2513,0.2357
770,0.0,0.0,0.0,0.0,0.0,0.0,0.0260,-0.9661,0.1134,0.7333,-0.5861,-0.2514,0.2356
771,0.0,0.0,0.0,0.0,0.0,0.0,0.0339,-0.9617,0.1080,0.7329,-0.5864,-0.2520,0.2355
772,0.0,0.0,0.0,0.0,0.0,0.0,0.0344,-0.9748,0.1102,0.7325,-0.5867,-0.2526,0.2354
773,0.0,0.0,0.0,0.0,0.0,0.0,0.0324,-0.9835,0.1115,0.7321,-0.5871,-0.2531,0.2352
774,0.0,0.0,0.0,0.0,0.0,0.0,0.0371,-0.9952,0.1170,0.7318,-0.5872,-0.2537,0.2351
775,0.0,0.0,0.0,0.0,0.0,0.0,0.0380,-0.9913,0.1199,0.7318,-0.5872,-0.2540,0.2350
776,0.0,0.0,0.0,0.0,0.0,0.0,0.0324,-0.9675,0.1089,0.7316,-0.5873,-0.2542,0.2350
777,0.0,0.0,0.0,0.0,0.0,0.0,0.0290,-0.9806,0.1097,0.7314,-0.5875,-0.2543,0.2351
778,0.0,0.0,0.0,0.0,0.0,0.0,0.0275,-0.9767,0.1093,0.7312,-0.5877,-0.2543,0.2352
779,0.0,0.0,0.0,0.0,0.0,0.0,0.0314,-0.9845,0.1105,0.7310,-0.5877,-0.2545,0.2355
780,0.0,0.0,0.0,0.0,0.0,0.0,0.0396,-1.0000,0.1134,0.7310,-0.5875,-0.2549,0.2357
781,0.0,0.0,0.0,0.0,0.0,0.0,0.0436,-0.9879,0.1107,0.7312,-0.5870,-0.2552,0.2357
782,0.0,0.0,0.0,0.0,0.0,0.0,0.0457,-0.9709,0.1042,0.7314,-0.5867,-0.2555,0.2358
783,0.0,0.0,0.0,0.0,0.0,0.0,0.0399,-0.9622,0.1002,0.7314,-0.5865,-0.2558,0.2357
784,0.0,0.0,0.0,0.0,0.0,0.0,0.0413,-0.9670,0.1034,0.7314,-0.5865,-0.2561,0.2357
785,0.0,0.0,0.0,0.0,0.0,0.0,0.0398,-0.9753,0.1052,0.7312,-0.5866,-0.2563,0.2357
786,0.0,0.0,0.0,0.0,0.0,0.0,0.0393,-0.9772,0.1042,0.7311,-0.5867,-0.2565,0.2355
787,0.0,0.0,0.0,0.0,0.0,0.0,0.0399,-0.9777,0.1032,0.7310,-0.5868,-0.2567,0.2355
788,0.0,0.0,0.0,0.0,0.0,0.0,0.0399,-0.9777,0.1018,0.7308,-0.5869,-0.2568,0.2355
789,0.0,0.0,0.0,0.0,0.0,0.0,0.0400,-0.9704,0.0976,0.7306,-0.5871,-0.2571,0.2354
790,0.0,0.0,0.0,0.0,0.0,0.0,0.0414,-0.9690,0.0976,0.7304,-0.5874,-0.2573,0.2351
791,0.0,0.0,0.0,0.0,0.0,0.0,0.0395,-0.9719,0.0980,0.7302,-0.5877,-0.2576,0.2348
792,0.0,0.0,0.0,0.0,0.0,0.0,0.0375,-0.9738,0.0971,0.7299,-0.5880,-0.2578,0.2345
793,0.0,0.0,0.0,0.0,0.0,0.0,0.0361,-0.9743,0.0961,0.7296,-0.5884,-0.2580,0.2341
794,0.0,0.0,0.0,0.0,0.0,0.0,0.0346,-0.9796,0.0970,0.7294,-0.5888,-0.2582,0.2337
795,0.0,0.0,0.0,0.0,0.0,0.0,0.0360,-0.9826,0.0984,0.7291,-0.5892,-0.2584,0.2334
796,0.0,0.0,0.0,0.0,0.0,0.0,0.0427,-0.9932,0.1038,0.7290,-0.5893,-0.2585,0.2332
797,0.0,0.0,0.0,0.0,0.0,0.0,0.0423,-0.9879,0.1030,0.7290,-0.5894,-0.2585,0.2330
798,0.0,0.0,0.0,0.0,0.0,0.0,0.0379,-0.9874,0.1026,0.7291,-0.5895,-0.2584,0.2328
799,0.0,0.0,0.0,0.0,0.0,0.0,0.0412,-1.0015,0.1090,0.7293,-0.5893,-0.2581,0.2328
800,0.0,0.0,0.0,0.0,0.0,0.0,0.0416,-0.9966,0.1101,0.7297,-0.5891,-0.2577,0.2328
801,0.0,0.0,0.0,0.0,0.0,0.0,0.0388,-0.9889,0.1079,0.7300,-0.5887,-0.2572,0.2330
802,0.0,0.0,0.0,0.0,0.0,0.0,0.0388,-0.9855,0.1089,0.7304,-0.5884,-0.2567,0.2333
803,0.0,0.0,0.0,0.0,0.0,0.0,0.0377,-0.9869,0.1108,0.7308,-0.5880,-0.2562,0.2337
804,0.0,0.0,0.0,0.0,0.0,0.0,0.0403,-0.9641,0.1040,0.7310,-0.5876,-0.2559,0.2341
805,0.0,0.0,0.0,0.0,0.0,0.0,0.0395,-0.9302,0.0993,0.7309,-0.5876,-0.2558,0.2346
806,0.0,0.0,0.0,0.0,0.0,0.0,0.0499,-0.9811,0.1126,0.7307,-0.5877,-0.2558,0.2349
807,0.0,0.0,0.0,0.0,0.0,0.0,0.0478,-0.9937,0.1177,0.7308,-0.5877,-0.2556,0.2350
808,0.0,0.0,0.0,0.0,0.0,0.0,0.0420,-0.9918,0.1164,0.7310,-0.5876,-0.2551,0.2351
809,0.0,0.0,0.0,0.0,0.0,0.0,0.0387,-0.9889,0.1137,0.7314,-0.5875,-0.2544,0.2350
810,0.0,0.0,0.0,0.0,0.0,0.0,0.0343,-0.9792,0.1115,0.7319,-0.5873,-0.2536,0.2348
811,0.0,0.0,0.0,0.0,0.0,0.0,0.0289,-0.9826,0.1140,0.7324,-0.5872,-0.2527,0.2344
812,0.0,0.0,0.0,0.0,0.0,0.0,0.0245,-0.9884,0.1169,0.7330,-0.5870,-0.2517,0.2340
813,0.0,0.0,0.0,0.0,0.0,0.0,0.0205,-0.9869,0.1203,0.7337,-0.5867,-0.2505,0.2338
814,0.0,0.0,0.0,0.0,0.0,0.0,0.0171,-0.9777,0.1191,0.7345,-0.5863,-0.2494,0.2336
815,0.0,0.0,0.0,0.0,0.0,0.0,0.0188,-0.9418,0.1121,0.7350,-0.5860,-0.2485,0.2336
816,0.0,0.0,0.0,0.0,0.0,0.0,0.0168,-0.9404,0.1117,0.7352,-0.5860,-0.2480,0.2336
817,0.0,0.0,0.0,0.0,0.0,0.0,0.0153,-0.9554,0.1167,0.7352,-0.5861,-0.2477,0.2336
818,0.0,0.0,0.0,0.0,0.0,0.0,0.0178,-0.9443,0.1140,0.7350,-0.5864,-0.2477,0.2338
819,0.0,0.0,0.0,0.0,0.0,0.0,0.0216,-0.9588,0.1160,0.7346,-0.5866,-0.2480,0.2339
820,0.0,0.0,0.0,0.0,0.0,0.0,0.0284,-0.9675,0.1186,0.7342,-0.5868,-0.2487,0.2340
821,0.0,0.0,0.0,0.0,0.0,0.0,0.0376,-0.9709,0.1189,0.7339,-0.5869,-0.2496,0.2339
822,0.0,0.0,0.0,0.0,0.0,0.0,0.0405,-0.9792,0.1201,0.7336,-0.5869,-0.2506,0.2337
823,0.0,0.0,0.0,0.0,0.0,0.0,0.0502,-0.9850,0.1212,0.7334,-0.5867,-0.2516,0.2335
824,0.0,0.0,0.0,0.0,0.0,0.0,0.0503,-0.9821,0.1169,0.7333,-0.5866,-0.2526,0.2331
825,0.0,0.0,0.0,0.0,0.0,0.0,0.0422,-0.9685,0.1111,0.7331,-0.5867,-0.2532,0.2328
826,0.0,0.0,0.0,0.0,0.0,0.0,0.0451,-0.9651,0.1092,0.7328,-0.5870,-0.2538,0.2326
827,0.0,0.0,0.0,0.0,0.0,0.0,0.0407,-0.9700,0.1096,0.7325,-0.5873,-0.2543,0.2323
828,0.0,0.0,0.0,0.0,0.0,0.0,0.0397,-0.9772,0.1090,0.7321,-0.5876,-0.2546,0.2322
829,0.0,0.0,0.0,0.0,0.0,0.0,0.0441,-0.9816,0.1089,0.7317,-0.5880,-0.2550,0.2321
830,0.0,0.0,0.0,0.0,0.0,0.0,0.0455,-0.9952,0.1129,0.7315,-0.5882,-0.2552,0.2318
831,0.0,0.0,0.0,0.0,0.0,0.0,0.0412,-0.9850,0.1103,0.7315,-0.5883,-0.2553,0.2316
832,0.0,0.0,0.0,0.0,0.0,0.0,0.0427,-0.9889,0.1083,0.7315,-0.5885,-0.2553,0.2313
833,0.0,0.0,0.0,0.0,0.0,0.0,0.0392,-0.9865,0.1094,0.7316,-0.5885,-0.2552,0.2310
834,0.0,0.0,0.0,0.0,0.0,0.0,0.0393,-0.9777,0.1081,0.7317,-0.5885,-0.2551,0.2306
835,0.0,0.0,0.0,0.0,0.0,0.0,0.0373,-0.9782,0.1086,0.7319,-0.5884,-0.2550,0.2303
836,0.0,0.0,0.0,0.0,0.0,0.0,0.0363,-0.9767,0.1086,0.7320,-0.5884,-0.2550,0.2300
837,0.0,0.0,0.0,0.0,0.0,0.0,0.0329,-0.9777,0.1121,0.7322,-0.5884,-0.2548,0.2297
838,0.0,0.0,0.0,0.0,0.0,0.0,0.0298,-0.9898,0.1153,0.7324,-0.5882,-0.2545,0.2297
839,0.0,0.0,0.0,0.0,0.0,0.0,0.0295,-0.9603,0.1096,0.7326,-0.5881,-0.2544,0.2298
840,0.0,0.0,0.0,0.0,0.0,0.0,0.0363,-0.9714,0.1116,0.7326,-0.5879,-0.2546,0.2300
841,0.0,0.0,0.0,0.0,0.0,0.0,0.0382,-0.9816,0.1143,0.7325,-0.5877,-0.2548,0.2304
842,0.0,0.0,0.0,0.0,0.0,0.0,0.0407,-0.9729,0.1106,0.7325,-0.5875,-0.2551,0.2308
843,0.0,0.0,0.0,0.0,0.0,0.0,0.0471,-0.9743,0.1075,0.7324,-0.5872,-0.2556,0.2311
844,0.0,0.0,0.0,0.0,0.0,0.0,0.0476,-0.9690,0.1066,0.7323,-0.5870,-0.2561,0.2315
845,0.0,0.0,0.0,0.0,0.0,0.0,0.0496,-0.9685,0.1061,0.7321,-0.5868,-0.2567,0.2318
846,0.0,0.0,0.0,0.0,0.0,0.0,0.0554,-0.9748,0.1064,0.7319,-0.5867,-0.2574,0.2320
847,0.0,0.0,0.0,0.0,0.0,0.0,0.0544,-0.9738,0.1054,0.7317,-0.5866,-0.2579,0.2321
848,0.0,0.0,0.0,0.0,0.0,0.0,0.0539,-0.9777,0.1068,0.7316,-0.5867,-0.2584,0.2322
849,0.0,0.0,0.0,0.0,0.0,0.0,0.0520,-0.9743,0.1040,0.7313,-0.5868,-0.2588,0.2321
850,0.0,0.0,0.0,0.0,0.0,0.0,0.0487,-0.9797,0.1016,0.7310,-0.5871,-0.2591,0.2320
851,0.0,0.0,0.0,0.0,0.0,0.0,0.0443,-0.9733,0.0979,0.7307,-0.5875,-0.2593,0.2318
852,0.0,0.0,0.0,0.0,0.0,0.0,0.0424,-0.9729,0.0965,0.7303,-0.5880,-0.2594,0.2317
853,0.0,0.0,0.0,0.0,0.0,0.0,0.0385,-0.9855,0.0978,0.7299,-0.5885,-0.2594,0.2317
854,0.0,0.0,0.0,0.0,0.0,0.0,0.0390,-0.9884,0.0972,0.7296,-0.5889,-0.2593,0.2316
855,0.0,0.0,0.0,0.0,0.0,0.0,0.0386,-0.9782,0.0907,0.7292,-0.5893,-0.2593,0.2317
856,0.0,0.0,0.0,0.0,0.0,0.0,0.0421,-0.9762,0.0882,0.7288,-0.5898,-0.2595,0.2318
857,0.0,0.0,0.0,0.0,0.0,0.0,0.0422,-0.9612,0.0866,0.7283,-0.5902,-0.2596,0.2319
858,0.0,0.0,0.0,0.0,0.0,0.0,0.0406,-0.9733,0.0893,0.7278,-0.5908,-0.2599,0.2319
859,0.0,0.0,0.0,0.0,0.0,0.0,0.0430,-0.9874,0.0933,0.7273,-0.5912,-0.2601,0.2319
860,0.0,0.0,0.0,0.0,0.0,0.0,0.0390,-0.9864,0.0949,0.7270,-0.5916,-0.2602,0.2319
861,0.0,0.0,0.0,0.0,0.0,0.0,0.0414,-0.9903,0.0976,0.7269,-0.5917,-0.2603,0.2318
862,0.0,0.0,0.0,0.0,0.0,0.0,0.0404,-0.9874,0.0977,0.7268,-0.5918,-0.2604,0.2318
863,0.0,0.0,0.0,0.0,0.0,0.0,0.0366,-0.9864,0.0964,0.7269,-0.5918,-0.2603,0.2318
864,0.0,0.0,0.0,0.0,0.0,0.0,0.0421,-0.9699,0.0893,0.7268,-0.5918,-0.2605,0.2317
865,0.0,0.0,0.0,0.0,0.0,0.0,0.0465,-0.9670,0.0864,0.7265,-0.5919,-0.2610,0.2317
866,0.0,0.0,0.0,0.0,0.0,0.0,0.0475,-0.9690,0.0854,0.7262,-0.5922,-0.2615,0.2317
867,0.0,0.0,0.0,0.0,0.0,0.0,0.0455,-0.9782,0.0877,0.7258,-0.5925,-0.2619,0.2317
868,0.0,0.0,0.0,0.0,0.0,0.0,0.0450,-0.9923,0.0903,0.7254,-0.5927,-0.2622,0.2317
869,0.0,0.0,0.0,0.0,0.0,0.0,0.0454,-1.0068,0.0929,0.7254,-0.5928,-0.2623,0.2315
870,0.0,0.0,0.0,0.0,0.0,0.0,0.0490,-0.9830,0.0856,0.7254,-0.5928,-0.2625,0.2314
871,0.0,0.0,0.0,0.0,0.0,0.0,0.0593,-0.9748,0.0802,0.7253,-0.5927,-0.2631,0.2311
872,0.0,0.0,0.0,0.0,0.0,0.0,0.0559,-0.9811,0.0806,0.7252,-0.5928,-0.2634,0.2308
873,0.0,0.0,0.0,0.0,0.0,0.0,0.0569,-0.9782,0.0783,0.7251,-0.5929,-0.2638,0.2306
874,0.0,0.0,0.0,0.0,0.0,0.0,0.0529,-0.9986,0.0818,0.7250,-0.5931,-0.2637,0.2303
875,0.0,0.0,0.0,0.0,0.0,0.0,0.0475,-1.0029,0.0818,0.7252,-0.5931,-0.2634,0.2301
876,0.0,0.0,0.0,0.0,0.0,0.0,0.0487,-0.9850,0.0754,0.7253,-0.5932,-0.2631,0.2297
877,0.0,0.0,0.0,0.0,0.0,0.0,0.0462,-0.9791,0.0760,0.7255,-0.5933,-0.2627,0.2294
878,0.0,0.0,0.0,0.0,0.0,0.0,0.0447,-0.9762,0.0785,0.7256,-0.5934,-0.2624,0.2292
879,0.0,0.0,0.0,0.0,0.0,0.0,0.0437,-0.9787,0.0824,0.7257,-0.5935,-0.2619,0.2290
880,0.0,0.0,0.0,0.0,0.0,0.0,0.0421,-0.9825,0.0867,0.7260,-0.5935,-0.2614,0.2288
881,0.0,0.0,0.0,0.0,0.0,0.0,0.0439,-0.9884,0.0923,0.7263,-0.5934,-0.2609,0.2285
882,0.0,0.0,0.0,0.0,0.0,0.0,0.0449,-0.9879,0.0923,0.7267,-0.5932,-0.2604,0.2284
883,0.0,0.0,0.0,0.0,0.0,0.0,0.0391,-0.9850,0.0920,0.7272,-0.5930,-0.2598,0.2282
884,0.0,0.0,0.0,0.0,0.0,0.0,0.0376,-0.9748,0.0917,0.7276,-0.5928,-0.2592,0.2281
885,0.0,0.0,0.0,0.0,0.0,0.0,0.0337,-0.9743,0.0938,0.7279,-0.5926,-0.2587,0.2281
886,0.0,0.0,0.0,0.0,0.0,0.0,0.0336,-0.9767,0.0995,0.7283,-0.5923,-0.2581,0.2283
887,0.0,0.0,0.0,0.0,0.0,0.0,0.0379,-0.9748,0.1043,0.7287,-0.5919,-0.2577,0.2286
888,0.0,0.0,0.0,0.0,0.0,0.0,0.0393,-0.9685,0.1073,0.7291,-0.5915,-0.2574,0.2288
889,0.0,0.0,0.0,0.0,0.0,0.0,0.0422,-0.9714,0.1096,0.7296,-0.5910,-0.2572,0.2288
890,0.0,0.0,0.0,0.0,0.0,0.0,0.0380,-0.9467,0.0991,0.7297,-0.5908,-0.2572,0.2289
891,0.0,0.0,0.0,0.0,0.0,0.0,0.0354,-0.9709,0.1073,0.7297,-0.5907,-0.2571,0.2291
892,0.0,0.0,0.0,0.0,0.0,0.0,0.0475,-0.9850,0.1121,0.7298,-0.5904,-0.2574,0.2293
893,0.0,0.0,0.0,0.0,0.0,0.0,0.0530,-0.9690,0.1070,0.7299,-0.5900,-0.2578,0.2295
894,0.0,0.0,0.0,0.0,0.0,0.0,0.0523,-0.9326,0.0952,0.7297,-0.5900,-0.2584,0.2295
895,0.0,0.0,0.0,0.0,0.0,0.0,0.0594,-0.9156,0.0828,0.7289,-0.5904,-0.2596,0.2295
896,0.0,0.0,0.0,0.0,0.0,0.0,0.0559,-0.9287,0.0836,0.7277,-0.5914,-0.2609,0.2293
897,0.0,0.0,0.0,0.0,0.0,0.0,0.0398,-1.0039,0.1018,0.7267,-0.5925,-0.2615,0.2291
898,0.0,0.0,0.0,0.0,0.0,0.0,0.0433,-1.0151,0.0995,0.7260,-0.5933,-0.2619,0.2289
899,0.0,0.0,0.0,0.0,0.0,0.0,0.0463,-1.0121,0.0937,0.7254,-0.5938,-0.2622,0.2290
900,0.0,0.0,0.0,0.0,0.0,0.0,0.0439,-1.0117,0.0914,0.7251,-0.5942,-0.2622,0.2291
901,0.0,0.0,0.0,0.0,0.0,0.0,0.0469,-1.0015,0.0910,0.7250,-0.5943,-0.2622,0.2292
902,0.0,0.0,0.0,0.0,0.0,0.0,0.0551,-1.0024,0.0942,0.7250,-0.5941,-0.2624,0.2291
903,0.0,0.0,0.0,0.0,0.0,0.0,0.0574,-1.0112,0.1022,0.7255,-0.5936,-0.2622,0.2291
904,0.0,0.0,0.0,0.0,0.0,0.0,0.0469,-0.9733,0.0940,0.7261,-0.5932,-0.2618,0.2289
905,0.0,0.0,0.0,0.0,0.0,0.0,0.0400,-0.9821,0.0945,0.7265,-0.5929,-0.2613,0.2288
906,0.0,0.0,0.0,0.0,0.0,0.0,0.0347,-0.9801,0.0946,0.7269,-0.5928,-0.2607,0.2287
907,0.0,0.0,0.0,0.0,0.0,0.0,0.0342,-0.9821,0.0931,0.7272,-0.5926,-0.2601,0.2288
908,0.0,0.0,0.0,0.0,0.0,0.0,0.0434,-0.9860,0.0948,0.7276,-0.5923,-0.2599,0.2287
909,0.0,0.0,0.0,0.0,0.0,0.0,0.0376,-0.9855,0.0949,0.7279,-0.5920,-0.2595,0.2288
910,0.0,0.0,0.0,0.0,0.0,0.0,0.0396,-0.9758,0.0907,0.7282,-0.5918,-0.2592,0.2289
911,0.0,0.0,0.0,0.0,0.0,0.0,0.0426,-0.9661,0.0865,0.7283,-0.5916,-0.2591,0.2290
912,0.0,0.0,0.0,0.0,0.0,0.0,0.0407,-0.9627,0.0847,0.7284,-0.5915,-0.2591,0.2291
913,0.0,0.0,0.0,0.0,0.0,0.0,0.0392,-0.9733,0.0864,0.7283,-0.5915,-0.2590,0.2291
914,0.0,0.0,0.0,0.0,0.0,0.0,0.0401,-0.9835,0.0891,0.7284,-0.5915,-0.2590,0.2291
915,0.0,0.0,0.0,0.0,0.0,0.0,0.0412,-0.9767,0.0863,0.7285,-0.5913,-0.2592,0.2291
916,0.0,0.0,0.0,0.0,0.0,0.0,0.0426,-0.9772,0.0848,0.7286,-0.5911,-0.2596,0.2289
917,0.0,0.0,0.0,0.0,0.0,0.0,0.0445,-0.9850,0.0875,0.7287,-0.5909,-0.2600,0.2288
918,0.0,0.0,0.0,0.0,0.0,0.0,0.0494,-0.9845,0.0899,0.7289,-0.5904,-0.2605,0.2287
919,0.0,0.0,0.0,0.0,0.0,0.0,0.0542,-0.9782,0.0913,0.7291,-0.5899,-0.2611,0.2286
920,0.0,0.0,0.0,0.0,0.0,0.0,0.0557,-0.9787,0.0928,0.7294,-0.5893,-0.2618,0.2284
921,0.0,0.0,0.0,0.0,0.0,0.0,0.0585,-0.9792,0.0951,0.7296,-0.5886,-0.2625,0.2286
922,0.0,0.0,0.0,0.0,0.0,0.0,0.0678,-0.9724,0.0946,0.7298,-0.5880,-0.2632,0.2288
923,0.0,0.0,0.0,0.0,0.0,0.0,0.0677,-0.9792,0.1007,0.7300,-0.5875,-0.2638,0.2288
924,0.0,0.0,0.0,0.0,0.0,0.0,0.0651,-0.9899,0.1078,0.7304,-0.5869,-0.2641,0.2289
925,0.0,0.0,0.0,0.0,0.0,0.0,0.0686,-0.9797,0.1060,0.7308,-0.5862,-0.2643,0.2291
926,0.0,0.0,0.0,0.0,0.0,0.0,0.0701,-0.9690,0.1043,0.7311,-0.5856,-0.2646,0.2292
927,0.0,0.0,0.0,0.0,0.0,0.0,0.0700,-0.9802,0.1084,0.7313,-0.5852,-0.2648,0.2293
928,0.0,0.0,0.0,0.0,0.0,0.0,0.0694,-0.9840,0.1098,0.7317,-0.5847,-0.2649,0.2293
929,0.0,0.0,0.0,0.0,0.0,0.0,0.0670,-0.9826,0.1103,0.7320,-0.5843,-0.2649,0.2292
930,0.0,0.0,0.0,0.0,0.0,0.0,0.0650,-0.9807,0.1123,0.7325,-0.5838,-0.2647,0.2289
931,0.0,0.0,0.0,0.0,0.0,0.0,0.0636,-0.9743,0.1120,0.7331,-0.5834,-0.2645,0.2286
932,0.0,0.0,0.0,0.0,0.0,0.0,0.0587,-0.9743,0.1136,0.7336,-0.5831,-0.2641,0.2282
933,0.0,0.0,0.0,0.0,0.0,0.0,0.0538,-0.9661,0.1148,0.7342,-0.5828,-0.2634,0.2278
934,0.0,0.0,0.0,0.0,0.0,0.0,0.0600,-0.9724,0.1194,0.7348,-0.5825,-0.2629,0.2274
935,0.0,0.0,0.0,0.0,0.0,0.0,0.0623,-0.9821,0.1264,0.7355,-0.5820,-0.2623,0.2269
936,0.0,0.0,0.0,0.0,0.0,0.0,0.0560,-0.9792,0.1261,0.7363,-0.5817,-0.2614,0.2263
937,0.0,0.0,0.0,0.0,0.0,0.0,0.0468,-0.9680,0.1221,0.7369,-0.5815,-0.2604,0.2259
938,0.0,0.0,0.0,0.0,0.0,0.0,0.0432,-0.9850,0.1306,0.7376,-0.5813,-0.2591,0.2254
939,0.0,0.0,0.0,0.0,0.0,0.0,0.0413,-0.9666,0.1290,0.7385,-0.5809,-0.2580,0.2251
940,0.0,0.0,0.0,0.0,0.0,0.0,0.0427,-0.9642,0.1315,0.7392,-0.5804,-0.2571,0.2248
941,0.0,0.0,0.0,0.0,0.0,0.0,0.0426,-0.9695,0.1357,0.7401,-0.5799,-0.2563,0.2244
942,0.0,0.0,0.0,0.0,0.0,0.0,0.0470,-0.9656,0.1362,0.7408,-0.5793,-0.2558,0.2242
943,0.0,0.0,0.0,0.0,0.0,0.0,0.0481,-0.9593,0.1339,0.7414,-0.5787,-0.2555,0.2240
944,0.0,0.0,0.0,0.0,0.0,0.0,0.0555,-0.9501,0.1300,0.7418,-0.5782,-0.2556,0.2238
945,0.0,0.0,0.0,0.0,0.0,0.0,0.0563,-0.9555,0.1343,0.7421,-0.5778,-0.2558,0.2236
946,0.0,0.0,0.0,0.0,0.0,0.0,0.0607,-0.9598,0.1365,0.7423,-0.5774,-0.2561,0.2234
947,0.0,0.0,0.0,0.0,0.0,0.0,0.0631,-0.9593,0.1365,0.7425,-0.5772,-0.2565,0.2232
948,0.0,0.0,0.0,0.0,0.0,0.0,0.0650,-0.9710,0.1386,0.7426,-0.5770,-0.2569,0.2231
949,0.0,0.0,0.0,0.0,0.0,0.0,0.0645,-0.9690,0.1377,0.7427,-0.5767,-0.2571,0.2230
950,0.0,0.0,0.0,0.0,0.0,0.0,0.0627,-0.9574,0.1331,0.7427,-0.5767,-0.2573,0.2229
951,0.0,0.0,0.0,0.0,0.0,0.0,0.0628,-0.9559,0.1283,0.7425,-0.5767,-0.2575,0.2230
952,0.0,0.0,0.0,0.0,0.0,0.0,0.0599,-0.9642,0.1258,0.7422,-0.5770,-0.2577,0.2231
953,0.0,0.0,0.0,0.0,0.0,0.0,0.0628,-0.9763,0.1270,0.7418,-0.5774,-0.2580,0.2232
954,0.0,0.0,0.0,0.0,0.0,0.0,0.0633,-0.9758,0.1274,0.7415,-0.5776,-0.2582,0.2234
955,0.0,0.0,0.0,0.0,0.0,0.0,0.0608,-0.9782,0.1308,0.7412,-0.5779,-0.2582,0.2236
956,0.0,0.0,0.0,0.0,0.0,0.0,0.0666,-0.9826,0.1301,0.7410,-0.5781,-0.2583,0.2238
957,0.0,0.0,0.0,0.0,0.0,0.0,0.0585,-0.9661,0.1243,0.7408,-0.5783,-0.2582,0.2239
958,0.0,0.0,0.0,0.0,0.0,0.0,0.0635,-0.9564,0.1196,0.7405,-0.5785,-0.2585,0.2239
959,0.0,0.0,0.0,0.0,0.0,0.0,0.0634,-0.9642,0.1195,0.7401,-0.5789,-0.2589,0.2238
960,0.0,0.0,0.0,0.0,0.0,0.0,0.0614,-0.9724,0.1213,0.7398,-0.5793,-0.2591,0.2237
961,0.0,0.0,0.0,0.0,0.0,0.0,0.0566,-0.9734,0.1194,0.7394,-0.5797,-0.2593,0.2236
962,0.0,0.0,0.0,0.0,0.0,0.0,0.0600,-0.9855,0.1196,0.7390,-0.5801,-0.2595,0.2236
963,0.0,0.0,0.0,0.0,0.0,0.0,0.0606,-0.9724,0.1145,0.7388,-0.5804,-0.2596,0.2234
964,0.0,0.0,0.0,0.0,0.0,0.0,0.0573,-0.9530,0.1082,0.7384,-0.5808,-0.2598,0.2235
965,0.0,0.0,0.0,0.0,0.0,0.0,0.0563,-0.9772,0.1106,0.7378,-0.5814,-0.2601,0.2237
966,0.0,0.0,0.0,0.0,0.0,0.0,0.0586,-0.9879,0.1147,0.7373,-0.5818,-0.2604,0.2238
967,0.0,0.0,0.0,0.0,0.0,0.0,0.0600,-0.9942,0.1170,0.7371,-0.5819,-0.2606,0.2241
968,0.0,0.0,0.0,0.0,0.0,0.0,0.0611,-0.9860,0.1128,0.7368,-0.5819,-0.2609,0.2244
969,0.0,0.0,0.0,0.0,0.0,0.0,0.0670,-0.9797,0.1109,0.7367,-0.5819,-0.2612,0.2247
970,0.0,0.0,0.0,0.0,0.0,0.0,0.0717,-0.9860,0.1179,0.7366,-0.5817,-0.2615,0.2251
971,0.0,0.0,0.0,0.0,0.0,0.0,0.0683,-0.9821,0.1180,0.7366,-0.5815,-0.2616,0.2254
972,0.0,0.0,0.0,0.0,0.0,0.0,0.0693,-0.9758,0.1157,0.7366,-0.5813,-0.2617,0.2258
973,0.0,0.0,0.0,0.0,0.0,0.0,0.0713,-0.9734,0.1148,0.7365,-0.5812,-0.2618,0.2264
974,0.0,0.0,0.0,0.0,0.0,0.0,0.0723,-0.9739,0.1147,0.7363,-0.5811,-0.2618,0.2270
975,0.0,0.0,0.0,0.0,0.0,0.0,0.0713,-0.9719,0.1172,0.7362,-0.5811,-0.2617,0.2276
976,0.0,0.0,0.0,0.0,0.0,0.0,0.0691,-0.8395,0.1145,0.7364,-0.5807,-0.2615,0.2281
977,0.0,0.0,0.0,0.0,0.0,0.0,0.0695,-0.9588,0.1074,0.7360,-0.5811,-0.2614,0.2286
978,0.0,0.0,0.0,0.0,0.0,0.0,0.0656,-0.9646,0.1088,0.7356,-0.5815,-0.2612,0.2289
979,0.0,0.0,0.0,0.0,0.0,0.0,0.0607,-0.9680,0.1088,0.7352,-0.5821,-0.2608,0.2292
980,0.0,0.0,0.0,0.0,0.0,0.0,0.0563,-0.9763,0.1082,0.7348,-0.5828,-0.2604,0.2294
981,0.0,0.0,0.0,0.0,0.0,0.0,0.0534,-0.9777,0.1088,0.7344,-0.5834,-0.2599,0.2296
982,0.0,0.0,0.0,0.0,0.0,0.0,0.0471,-0.9797,0.1084,0.7341,-0.5840,-0.2594,0.2297
983,0.0,0.0,0.0,0.0,0.0,0.0,0.0442,-0.9797,0.1070,0.7337,-0.5847,-0.2589,0.2298
984,0.0,0.0,0.0,0.0,0.0,0.0,0.0374,-0.9714,0.1053,0.7333,-0.5853,-0.2584,0.2300
985,0.0,0.0,0.0,0.0,0.0,0.0,0.0335,-0.9670,0.1031,0.7329,-0.5859,-0.2581,0.2302
986,0.0,0.0,0.0,0.0,0.0,0.0,0.0321,-0.9690,0.1036,0.7324,-0.5865,-0.2580,0.2303
987,0.0,0.0,0.0,0.0,0.0,0.0,0.0330,-0.9743,0.1063,0.7319,-0.5870,-0.2582,0.2304
988,0.0,0.0,0.0,0.0,0.0,0.0,0.0339,-0.9763,0.1072,0.7315,-0.5873,-0.2584,0.2307
989,0.0,0.0,0.0,0.0,0.0,0.0,0.0349,-0.9748,0.1073,0.7309,-0.5876,-0.2587,0.2312
990,0.0,0.0,0.0,0.0,0.0,0.0,0.0397,-0.9792,0.1090,0.7304,-0.5879,-0.2592,0.2320
991,0.0,0.0,0.0,0.0,0.0,0.0,0.0397,-0.9821,0.1094,0.7299,-0.5880,-0.2596,0.2327
992,0.0,0.0,0.0,0.0,0.0,0.0,0.0441,-0.9811,0.1079,0.7295,-0.5880,-0.2601,0.2335
993,0.0,0.0,0.0,0.0,0.0,0.0,0.0466,-0.9782,0.1070,0.7290,-0.5880,-0.2607,0.2343
994,0.0,0.0,0.0,0.0,0.0,0.0,0.0506,-0.9743,0.1045,0.7286,-0.5878,-0.2614,0.2351
995,0.0,0.0,0.0,0.0,0.0,0.0,0.0505,-0.9772,0.1054,0.7282,-0.5878,-0.2620,0.2358
996,0.0,0.0,0.0,0.0,0.0,0.0,0.0484,-0.9962,0.1109,0.7279,-0.5876,-0.2625,0.2365
997,0.0,0.0,0.0,0.0,0.0,0.0,0.0493,-1.0102,0.1154,0.7280,-0.5872,-0.2628,0.2370
998,0.0,0.0,0.0,0.0,0.0,0.0,0.0536,-1.0219,0.1180,0.7285,-0.5864,-0.2629,0.2372
999,0.0,0.0,0.0,0.0,0.0,0.0,0.0562,-0.9942,0.1113,0.7292,-0.5854,-0.2630,0.2374
1000,0.0,0.0,0.0,0.0,0.0,0.0,0.0526,-0.9593,0.1033,0.7298,-0.5846,-0.2631,0.2375
1001,0.0,0.0,0.0,0.0,0.0,0.0,0.0485,-0.9695,0.1095,0.7304,-0.5839,-0.2631,0.2373
1002,0.0,0.0,0.0,0.0,0.0,0.0,0.0469,-0.9831,0.1155,0.7310,-0.5833,-0.2629,0.2371
1003,0.0,0.0,0.0,0.0,0.0,0.0,0.0434,-0.9879,0.1203,0.7318,-0.5825,-0.2627,0.2369
1004,0.0,0.0,0.0,0.0,0.0,0.0,0.0425,-0.9743,0.1202,0.7326,-0.5818,-0.2623,0.2367
1005,0.0,0.0,0.0,0.0,0.0,0.0,0.0459,-0.9574,0.1190,0.7333,-0.5811,-0.2621,0.2366
1006,0.0,0.0,0.0,0.0,0.0,0.0,0.0473,-0.9613,0.1242,0.7338,-0.5804,-0.2618,0.2367
1007,0.0,0.0,0.0,0.0,0.0,0.0,0.0472,-0.9608,0.1266,0.7343,-0.5799,-0.2616,0.2367
1008,0.0,0.0,0.0,0.0,0.0,0.0,0.0516,-0.9593,0.1294,0.7348,-0.5794,-0.2614,0.2369
1009,0.0,0.0,0.0,0.0,0.0,0.0,0.0472,-0.9617,0.1300,0.7351,-0.5790,-0.2612,0.2369
1010,0.0,0.0,0.0,0.0,0.0,0.0,0.0506,-0.9671,0.1298,0.7353,-0.5787,-0.2612,0.2370
1011,0.0,0.0,0.0,0.0,0.0,0.0,0.0497,-0.9632,0.1270,0.7355,-0.5784,-0.2612,0.2372
1012,0.0,0.0,0.0,0.0,0.0,0.0,0.0501,-0.9671,0.1269,0.7356,-0.5783,-0.2612,0.2372
1013,0.0,0.0,0.0,0.0,0.0,0.0,0.0516,-0.9739,0.1282,0.7357,-0.5781,-0.2613,0.2372
1014,0.0,0.0,0.0,0.0,0.0,0.0,0.0531,-0.9705,0.1263,0.7357,-0.5780,-0.2614,0.2373
1015,0.0,0.0,0.0,0.0,0.0,0.0,0.0531,-0.9729,0.1253,0.7357,-0.5780,-0.2615,0.2372
1016,0.0,0.0,0.0,0.0,0.0,0.0,0.0540,-0.9777,0.1252,0.7358,-0.5779,-0.2616,0.2371
1017,0.0,0.0,0.0,0.0,0.0,0.0,0.0531,-0.9729,0.1224,0.7358,-0.5779,-0.2617,0.2371
1018,0.0,0.0,0.0,0.0,0.0,0.0,0.0507,-0.9705,0.1210,0.7358,-0.5779,-0.2618,0.2369
1019,0.0,0.0,0.0,0.0,0.0,0.0,0.0518,-0.9690,0.1181,0.7357,-0.5780,-0.2619,0.2366
1020,0.0,0.0,0.0,0.0,0.0,0.0,0.0498,-0.9695,0.1167,0.7356,-0.5782,-0.2621,0.2364
1021,0.0,0.0,0.0,0.0,0.0,0.0,0.0503,-0.9729,0.1166,0.7356,-0.5784,-0.2622,0.2360
1022,0.0,0.0,0.0,0.0,0.0,0.0,0.0523,-0.9719,0.1147,0.7355,-0.5785,-0.2624,0.2356
1023,0.0,0.0,0.0,0.0,0.0,0.0,0.0518,-0.9743,0.1132,0.7353,-0.5787,-0.2627,0.2352
1024,0.0,0.0,0.0,0.0,0.0,0.0,0.0514,-0.9705,0.1114,0.7351,-0.5790,-0.2630,0.2349
1025,0.0,0.0,0.0,0.0,0.0,0.0,0.0505,-0.9646,0.1086,0.7349,-0.5793,-0.2634,0.2347
1026,0.0,0.0,0.0,0.0,0.0,0.0,0.0510,-0.9637,0.1076,0.7345,-0.5796,-0.2638,0.2345
1027,0.0,0.0,0.0,0.0,0.0,0.0,0.0505,-0.9709,0.1070,0.7340,-0.5800,-0.2643,0.2343
1028,0.0,0.0,0.0,0.0,0.0,0.0,0.0539,-0.9792,0.1087,0.7336,-0.5804,-0.2648,0.2342
1029,0.0,0.0,0.0,0.0,0.0,0.0,0.0558,-0.9831,0.1086,0.7332,-0.5807,-0.2653,0.2342
1030,0.0,0.0,0.0,0.0,0.0,0.0,0.0607,-0.9855,0.1075,0.7328,-0.5809,-0.2658,0.2343
1031,0.0,0.0,0.0,0.0,0.0,0.0,0.0622,-0.9874,0.1074,0.7324,-0.5811,-0.2663,0.2343
1032,0.0,0.0,0.0,0.0,0.0,0.0,0.0617,-0.9816,0.1056,0.7322,-0.5813,-0.2667,0.2344
1033,0.0,0.0,0.0,0.0,0.0,0.0,0.0627,-0.9806,0.1051,0.7319,-0.5814,-0.2670,0.2345
1034,0.0,0.0,0.0,0.0,0.0,0.0,0.0637,-0.9782,0.1052,0.7318,-0.5814,-0.2673,0.2344
1035,0.0,0.0,0.0,0.0,0.0,0.0,0.0643,-0.9651,0.1001,0.7316,-0.5816,-0.2677,0.2342
1036,0.0,0.0,0.0,0.0,0.0,0.0,0.0648,-0.9666,0.1020,0.7314,-0.5819,-0.2681,0.2338
1037,0.0,0.0,0.0,0.0,0.0,0.0,0.0576,-1.0015,0.1150,0.7314,-0.5821,-0.2680,0.2333
1038,0.0,0.0,0.0,0.0,0.0,0.0,0.0464,-1.0020,0.1171,0.7316,-0.5821,-0.2675,0.2330
1039,0.0,0.0,0.0,0.0,0.0,0.0,0.0460,-0.9782,0.1108,0.7319,-0.5821,-0.2670,0.2329
1040,0.0,0.0,0.0,0.0,0.0,0.0,0.0470,-0.9709,0.1114,0.7321,-0.5820,-0.2666,0.2328
1041,0.0,0.0,0.0,0.0,0.0,0.0,0.0470,-0.9695,0.1119,0.7323,-0.5820,-0.2662,0.2329
1042,0.0,0.0,0.0,0.0,0.0,0.0,0.0450,-0.9700,0.1134,0.7324,-0.5820,-0.2659,0.2329
1043,0.0,0.0,0.0,0.0,0.0,0.0,0.0430,-0.9777,0.1157,0.7325,-0.5819,-0.2656,0.2330
1044,0.0,0.0,0.0,0.0,0.0,0.0,0.0420,-0.9772,0.1172,0.7326,-0.5817,-0.2654,0.2333
1045,0.0,0.0,0.0,0.0,0.0,0.0,0.0450,-0.9705,0.1158,0.7327,-0.5815,-0.2653,0.2337
1046,0.0,0.0,0.0,0.0,0.0,0.0,0.0474,-0.9700,0.1158,0.7327,-0.5813,-0.2654,0.2343
1047,0.0,0.0,0.0,0.0,0.0,0.0,0.0503,-0.9700,0.1167,0.7326,-0.5811,-0.2655,0.2350
1048,0.0,0.0,0.0,0.0,0.0,0.0,0.0527,-0.9743,0.1170,0.7324,-0.5808,-0.2658,0.2357
1049,0.0,0.0,0.0,0.0,0.0,0.0,0.0543,-0.9709,0.1152,0.7323,-0.5805,-0.2662,0.2365
1050,0.0,0.0,0.0,0.0,0.0,0.0,0.0592,-0.9695,0.1141,0.7320,-0.5802,-0.2668,0.2373
1051,0.0,0.0,0.0,0.0,0.0,0.0,0.0611,-0.9700,0.1131,0.7318,-0.5799,-0.2675,0.2380
1052,0.0,0.0,0.0,0.0,0.0,0.0,0.0660,-0.9719,0.1120,0.7315,-0.5797,-0.2683,0.2386
1053,0.0,0.0,0.0,0.0,0.0,0.0,0.0671,-0.9666,0.1082,0.7311,-0.5795,-0.2691,0.2393
1054,0.0,0.0,0.0,0.0,0.0,0.0,0.0695,-0.9729,0.1100,0.7306,-0.5795,-0.2699,0.2399
1055,0.0,0.0,0.0,0.0,0.0,0.0,0.0689,-0.9763,0.1123,0.7303,-0.5794,-0.2705,0.2403
1056,0.0,0.0,0.0,0.0,0.0,0.0,0.0665,-0.9748,0.1124,0.7300,-0.5794,-0.2710,0.2406
1057,0.0,0.0,0.0,0.0,0.0,0.0,0.0626,-0.9748,0.1115,0.7298,-0.5795,-0.2712,0.2410
1058,0.0,0.0,0.0,0.0,0.0,0.0,0.0625,-0.9797,0.1143,0.7296,-0.5796,-0.2714,0.2412
1059,0.0,0.0,0.0,0.0,0.0,0.0,0.0601,-0.9773,0.1125,0.7294,-0.5796,-0.2715,0.2414
1060,0.0,0.0,0.0,0.0,0.0,0.0,0.0626,-0.9748,0.1139,0.7294,-0.5796,-0.2716,0.2414
1061,0.0,0.0,0.0,0.0,0.0,0.0,0.0650,-0.9739,0.1139,0.7295,-0.5795,-0.2717,0.2412
1062,0.0,0.0,0.0,0.0,0.0,0.0,0.0583,-0.9651,0.1084,0.7294,-0.5798,-0.2717,0.2409
1063,0.0,0.0,0.0,0.0,0.0,0.0,0.0559,-0.9695,0.1069,0.7292,-0.5801,-0.2717,0.2406
1064,0.0,0.0,0.0,0.0,0.0,0.0,0.0568,-0.9734,0.1073,0.7290,-0.5805,-0.2717,0.2402
1065,0.0,0.0,0.0,0.0,0.0,0.0,0.0514,-0.9772,0.1098,0.7289,-0.5809,-0.2715,0.2399
1066,0.0,0.0,0.0,0.0,0.0,0.0,0.0520,-0.9671,0.1075,0.7288,-0.5813,-0.2712,0.2396
1067,0.0,0.0,0.0,0.0,0.0,0.0,0.0497,-0.9598,0.1010,0.7285,-0.5819,-0.2711,0.2393
1068,0.0,0.0,0.0,0.0,0.0,0.0,0.0463,-0.9569,0.0972,0.7280,-0.5826,-0.2710,0.2390
1069,0.0,0.0,0.0,0.0,0.0,0.0,0.0468,-0.9603,0.0976,0.7274,-0.5834,-0.2710,0.2388
1070,0.0,0.0,0.0,0.0,0.0,0.0,0.0468,-0.9690,0.0965,0.7268,-0.5844,-0.2710,0.2385
1071,0.0,0.0,0.0,0.0,0.0,0.0,0.0473,-0.9714,0.0960,0.7260,-0.5853,-0.2712,0.2383
1072,0.0,0.0,0.0,0.0,0.0,0.0,0.0550,-0.9894,0.0988,0.7252,-0.5863,-0.2715,0.2381
1073,0.0,0.0,0.0,0.0,0.0,0.0,0.0622,-1.0112,0.1016,0.7247,-0.5869,-0.2717,0.2378
1074,0.0,0.0,0.0,0.0,0.0,0.0,0.0605,-0.9879,0.0915,0.7244,-0.5874,-0.2718,0.2374
1075,0.0,0.0,0.0,0.0,0.0,0.0,0.0626,-0.9777,0.0839,0.7239,-0.5881,-0.2720,0.2369
1076,0.0,0.0,0.0,0.0,0.0,0.0,0.0602,-0.9796,0.0820,0.7236,-0.5888,-0.2720,0.2362
1077,0.0,0.0,0.0,0.0,0.0,0.0,0.0569,-0.9796,0.0787,0.7232,-0.5896,-0.2720,0.2354
1078,0.0,0.0,0.0,0.0,0.0,0.0,0.0564,-0.9840,0.0782,0.7228,-0.5904,-0.2719,0.2346
1079,0.0,0.0,0.0,0.0,0.0,0.0,0.0545,-0.9830,0.0768,0.7224,-0.5913,-0.2717,0.2338
1080,0.0,0.0,0.0,0.0,0.0,0.0,0.0550,-0.9796,0.0739,0.7221,-0.5921,-0.2715,0.2330
1081,0.0,0.0,0.0,0.0,0.0,0.0,0.0478,-0.9796,0.0716,0.7217,-0.5931,-0.2711,0.2320
1082,0.0,0.0,0.0,0.0,0.0,0.0,0.0507,-0.9796,0.0735,0.7214,-0.5939,-0.2709,0.2313
1083,0.0,0.0,0.0,0.0,0.0,0.0,0.0442,-0.9981,0.0767,0.7212,-0.5948,-0.2703,0.2304
1084,0.0,0.0,0.0,0.0,0.0,0.0,0.0403,-0.9985,0.0763,0.7211,-0.5955,-0.2697,0.2296
1085,0.0,0.0,0.0,0.0,0.0,0.0,0.0408,-0.9981,0.0792,0.7211,-0.5959,-0.2690,0.2289
1086,0.0,0.0,0.0,0.0,0.0,0.0,0.0368,-1.0034,0.0825,0.7214,-0.5962,-0.2683,0.2282
1087,0.0,0.0,0.0,0.0,0.0,0.0,0.0388,-0.9893,0.0794,0.7218,-0.5962,-0.2677,0.2276
1088,0.0,0.0,0.0,0.0,0.0,0.0,0.0384,-0.9835,0.0795,0.7222,-0.5962,-0.2672,0.2271
1089,0.0,0.0,0.0,0.0,0.0,0.0,0.0393,-0.9743,0.0801,0.7226,-0.5961,-0.2668,0.2266
1090,0.0,0.0,0.0,0.0,0.0,0.0,0.0442,-0.9680,0.0816,0.7230,-0.5958,-0.2667,0.2262
1091,0.0,0.0,0.0,0.0,0.0,0.0,0.0432,-0.9627,0.0803,0.7231,-0.5958,-0.2667,0.2261
1092,0.0,0.0,0.0,0.0,0.0,0.0,0.0456,-0.9690,0.0825,0.7232,-0.5957,-0.2668,0.2258
1093,0.0,0.0,0.0,0.0,0.0,0.0,0.0486,-0.9728,0.0819,0.7232,-0.5957,-0.2669,0.2258
1094,0.0,0.0,0.0,0.0,0.0,0.0,0.0514,-0.9855,0.0835,0.7231,-0.5956,-0.2671,0.2259
1095,0.0,0.0,0.0,0.0,0.0,0.0,0.0528,-0.9976,0.0876,0.7232,-0.5954,-0.2671,0.2261
1096,0.0,0.0,0.0,0.0,0.0,0.0,0.0553,-0.9879,0.0839,0.7234,-0.5950,-0.2671,0.2263
1097,0.0,0.0,0.0,0.0,0.0,0.0,0.0643,-0.9685,0.0764,0.7234,-0.5947,-0.2676,0.2266
1098,0.0,0.0,0.0,0.0,0.0,0.0,0.0631,-1.0005,0.0835,0.7235,-0.5944,-0.2679,0.2268
1099,0.0,0.0,0.0,0.0,0.0,0.0,0.0641,-1.0005,0.0844,0.7238,-0.5939,-0.2680,0.2270
1100,0.0,0.0,0.0,0.0,0.0,0.0,0.0636,-0.9898,0.0822,0.7241,-0.5935,-0.2678,0.2273
1101,0.0,0.0,0.0,0.0,0.0,0.0,0.0626,-0.9918,0.0856,0.7245,-0.5931,-0.2675,0.2276
1102,0.0,0.0,0.0,0.0,0.0,0.0,0.0615,-0.9898,0.0900,0.7251,-0.5925,-0.2670,0.2279
1103,0.0,0.0,0.0,0.0,0.0,0.0,0.0575,-0.9889,0.0945,0.7257,-0.5919,-0.2663,0.2281
1104,0.0,0.0,0.0,0.0,0.0,0.0,0.0551,-0.9738,0.0948,0.7265,-0.5913,-0.2656,0.2281
1105,0.0,0.0,0.0,0.0,0.0,0.0,0.0484,-0.9646,0.0932,0.7270,-0.5910,-0.2648,0.2282
1106,0.0,0.0,0.0,0.0,0.0,0.0,0.0465,-0.9583,0.0904,0.7274,-0.5908,-0.2641,0.2281
1107,0.0,0.0,0.0,0.0,0.0,0.0,0.0484,-0.9578,0.0904,0.7277,-0.5908,-0.2635,0.2280
1108,0.0,0.0,0.0,0.0,0.0,0.0,0.0478,-0.9617,0.0952,0.7280,-0.5908,-0.2630,0.2278
1109,0.0,0.0,0.0,0.0,0.0,0.0,0.0467,-0.9748,0.1003,0.7283,-0.5907,-0.2626,0.2276
1110,0.0,0.0,0.0,0.0,0.0,0.0,0.0378,-0.9957,0.1063,0.7287,-0.5905,-0.2618,0.2273
1111,0.0,0.0,0.0,0.0,0.0,0.0,0.0425,-1.0228,0.1149,0.7295,-0.5899,-0.2611,0.2272
1112,0.0,0.0,0.0,0.0,0.0,0.0,0.0450,-1.0136,0.1131,0.7305,-0.5890,-0.2603,0.2272
1113,0.0,0.0,0.0,0.0,0.0,0.0,0.0514,-1.0015,0.1093,0.7317,-0.5877,-0.2599,0.2272
1114,0.0,0.0,0.0,0.0,0.0,0.0,0.0588,-0.9782,0.1053,0.7329,-0.5863,-0.2598,0.2273
1115,0.0,0.0,0.0,0.0,0.0,0.0,0.0593,-0.9656,0.1060,0.7338,-0.5850,-0.2597,0.2275
1116,0.0,0.0,0.0,0.0,0.0,0.0,0.0565,-0.9981,0.1218,0.7349,-0.5837,-0.2593,0.2279
1117,0.0,0.0,0.0,0.0,0.0,0.0,0.0590,-0.9782,0.1226,0.7361,-0.5822,-0.2588,0.2285
1118,0.0,0.0,0.0,0.0,0.0,0.0,0.0570,-0.9540,0.1246,0.7371,-0.5808,-0.2584,0.2291
1119,0.0,0.0,0.0,0.0,0.0,0.0,0.0565,-0.9409,0.1268,0.7379,-0.5797,-0.2581,0.2298
1120,0.0,0.0,0.0,0.0,0.0,0.0,0.0560,-0.9322,0.1270,0.7384,-0.5789,-0.2579,0.2305
1121,0.0,0.0,0.0,0.0,0.0,0.0,0.0545,-0.9346,0.1284,0.7387,-0.5783,-0.2578,0.2310
1122,0.0,0.0,0.0,0.0,0.0,0.0,0.0526,-0.9375,0.1294,0.7387,-0.5781,-0.2578,0.2316
1123,0.0,0.0,0.0,0.0,0.0,0.0,0.0535,-0.9453,0.1311,0.7385,-0.5781,-0.2579,0.2322
1124,0.0,0.0,0.0,0.0,0.0,0.0,0.0519,-0.9588,0.1352,0.7383,-0.5781,-0.2580,0.2327
1125,0.0,0.0,0.0,0.0,0.0,0.0,0.0543,-0.9705,0.1369,0.7380,-0.5782,-0.2582,0.2332
1126,0.0,0.0,0.0,0.0,0.0,0.0,0.0524,-0.9739,0.1359,0.7377,-0.5784,-0.2584,0.2335
1127,0.0,0.0,0.0,0.0,0.0,0.0,0.0457,-0.9714,0.1279,0.7373,-0.5787,-0.2584,0.2340
1128,0.0,0.0,0.0,0.0,0.0,0.0,0.0394,-0.9719,0.1246,0.7368,-0.5791,-0.2583,0.2345
1129,0.0,0.0,0.0,0.0,0.0,0.0,0.0394,-0.9777,0.1259,0.7364,-0.5795,-0.2582,0.2350
1130,0.0,0.0,0.0,0.0,0.0,0.0,0.0369,-0.9845,0.1273,0.7361,-0.5797,-0.2581,0.2357
1131,0.0,0.0,0.0,0.0,0.0,0.0,0.0427,-0.9908,0.1295,0.7357,-0.5798,-0.2581,0.2364
1132,0.0,0.0,0.0,0.0,0.0,0.0,0.0480,-0.9967,0.1312,0.7355,-0.5797,-0.2583,0.2371
1133,0.0,0.0,0.0,0.0,0.0,0.0,0.0546,-0.9811,0.1236,0.7354,-0.5795,-0.2586,0.2376
1134,0.0,0.0,0.0,0.0,0.0,0.0,0.0652,-0.9292,0.1080,0.7352,-0.5793,-0.2595,0.2378
1135,0.0,0.0,0.0,0.0,0.0,0.0,0.0655,-0.9545,0.1153,0.7347,-0.5796,-0.2603,0.2378
1136,0.0,0.0,0.0,0.0,0.0,0.0,0.0595,-0.9860,0.1201,0.7344,-0.5800,-0.2604,0.2377
1137,0.0,0.0,0.0,0.0,0.0,0.0,0.0577,-0.9705,0.1146,0.7342,-0.5804,-0.2604,0.2373
1138,0.0,0.0,0.0,0.0,0.0,0.0,0.0513,-0.9734,0.1147,0.7340,-0.5809,-0.2602,0.2368
1139,0.0,0.0,0.0,0.0,0.0,0.0,0.0440,-0.9739,0.1168,0.7339,-0.5814,-0.2598,0.2362
1140,0.0,0.0,0.0,0.0,0.0,0.0,0.0371,-0.9724,0.1188,0.7338,-0.5820,-0.2592,0.2358
1141,0.0,0.0,0.0,0.0,0.0,0.0,0.0342,-0.9845,0.1196,0.7337,-0.5825,-0.2587,0.2353
1142,0.0,0.0,0.0,0.0,0.0,0.0,0.0278,-0.9845,0.1207,0.7336,-0.5830,-0.2581,0.2352
1143,0.0,0.0,0.0,0.0,0.0,0.0,0.0327,-0.9845,0.1206,0.7335,-0.5833,-0.2577,0.2350
1144,0.0,0.0,0.0,0.0,0.0,0.0,0.0420,-0.9782,0.1186,0.7335,-0.5835,-0.2576,0.2349
1145,0.0,0.0,0.0,0.0,0.0,0.0,0.0454,-0.9705,0.1168,0.7333,-0.5837,-0.2576,0.2348
1146,0.0,0.0,0.0,0.0,0.0,0.0,0.0475,-0.9632,0.1121,0.7330,-0.5841,-0.2577,0.2347
1147,0.0,0.0,0.0,0.0,0.0,0.0,0.0448,-0.9501,0.1037,0.7326,-0.5847,-0.2578,0.2346
1148,0.0,0.0,0.0,0.0,0.0,0.0,0.0443,-0.9472,0.1004,0.7320,-0.5855,-0.2579,0.2342
1149,0.0,0.0,0.0,0.0,0.0,0.0,0.0381,-0.9476,0.0966,0.7312,-0.5867,-0.2580,0.2337
1150,0.0,0.0,0.0,0.0,0.0,0.0,0.0343,-0.9520,0.0923,0.7302,-0.5880,-0.2582,0.2332
1151,0.0,0.0,0.0,0.0,0.0,0.0,0.0312,-0.9777,0.0957,0.7291,-0.5895,-0.2583,0.2327
1152,0.0,0.0,0.0,0.0,0.0,0.0,0.0315,-1.0068,0.1048,0.7283,-0.5908,-0.2582,0.2321
1153,0.0,0.0,0.0,0.0,0.0,0.0,0.0283,-0.9903,0.0969,0.7278,-0.5919,-0.2579,0.2314
1154,0.0,0.0,0.0,0.0,0.0,0.0,0.0255,-0.9821,0.0909,0.7271,-0.5931,-0.2576,0.2307
1155,0.0,0.0,0.0,0.0,0.0,0.0,0.0259,-0.9937,0.0931,0.7266,-0.5941,-0.2573,0.2301
1156,0.0,0.0,0.0,0.0,0.0,0.0,0.0255,-0.9961,0.0901,0.7260,-0.5950,-0.2571,0.2296
1157,0.0,0.0,0.0,0.0,0.0,0.0,0.0270,-0.9956,0.0882,0.7256,-0.5958,-0.2570,0.2292
1158,0.0,0.0,0.0,0.0,0.0,0.0,0.0281,-0.9820,0.0817,0.7251,-0.5965,-0.2569,0.2289
1159,0.0,0.0,0.0,0.0,0.0,0.0,0.0325,-0.9733,0.0793,0.7246,-0.5971,-0.2571,0.2286
1160,0.0,0.0,0.0,0.0,0.0,0.0,0.0340,-0.9690,0.0813,0.7241,-0.5977,-0.2573,0.2285
1161,0.0,0.0,0.0,0.0,0.0,0.0,0.0312,-0.9515,0.0749,0.7234,-0.5984,-0.2576,0.2285
1162,0.0,0.0,0.0,0.0,0.0,0.0,0.0364,-0.9762,0.0787,0.7226,-0.5992,-0.2580,0.2286
1163,0.0,0.0,0.0,0.0,0.0,0.0,0.0390,-0.9728,0.0744,0.7217,-0.6001,-0.2585,0.2286
1164,0.0,0.0,0.0,0.0,0.0,0.0,0.0401,-0.9719,0.0676,0.7206,-0.6010,-0.2591,0.2287
1165,0.0,0.0,0.0,0.0,0.0,0.0,0.0416,-0.9772,0.0646,0.7195,-0.6021,-0.2598,0.2286
1166,0.0,0.0,0.0,0.0,0.0,0.0,0.0411,-0.9840,0.0620,0.7184,-0.6032,-0.2605,0.2285
1167,0.0,0.0,0.0,0.0,0.0,0.0,0.0417,-0.9903,0.0585,0.7173,-0.6043,-0.2611,0.2284
1168,0.0,0.0,0.0,0.0,0.0,0.0,0.0417,-0.9956,0.0555,0.7163,-0.6053,-0.2617,0.2283
1169,0.0,0.0,0.0,0.0,0.0,0.0,0.0437,-0.9995,0.0549,0.7154,-0.6062,-0.2622,0.2280
1170,0.0,0.0,0.0,0.0,0.0,0.0,0.0442,-1.0039,0.0548,0.7148,-0.6069,-0.2626,0.2276
1171,0.0,0.0,0.0,0.0,0.0,0.0,0.0417,-1.0106,0.0543,0.7144,-0.6074,-0.2628,0.2272
1172,0.0,0.0,0.0,0.0,0.0,0.0,0.0403,-1.0048,0.0530,0.7141,-0.6078,-0.2629,0.2267
1173,0.0,0.0,0.0,0.0,0.0,0.0,0.0393,-1.0063,0.0549,0.7141,-0.6081,-0.2629,0.2264
1174,0.0,0.0,0.0,0.0,0.0,0.0,0.0411,-1.0121,0.0596,0.7143,-0.6081,-0.2627,0.2259
1175,0.0,0.0,0.0,0.0,0.0,0.0,0.0426,-1.0082,0.0610,0.7147,-0.6078,-0.2624,0.2255
1176,0.0,0.0,0.0,0.0,0.0,0.0,0.0386,-1.0005,0.0627,0.7154,-0.6074,-0.2621,0.2250
1177,0.0,0.0,0.0,0.0,0.0,0.0,0.0391,-0.9912,0.0634,0.7162,-0.6068,-0.2617,0.2245
1178,0.0,0.0,0.0,0.0,0.0,0.0,0.0363,-0.9767,0.0618,0.7169,-0.6063,-0.2613,0.2241
1179,0.0,0.0,0.0,0.0,0.0,0.0,0.0367,-0.9757,0.0652,0.7175,-0.6058,-0.2609,0.2239
1180,0.0,0.0,0.0,0.0,0.0,0.0,0.0362,-0.9709,0.0672,0.7181,-0.6053,-0.2606,0.2236
1181,0.0,0.0,0.0,0.0,0.0,0.0,0.0356,-0.9782,0.0705,0.7186,-0.6049,-0.2603,0.2235
1182,0.0,0.0,0.0,0.0,0.0,0.0,0.0375,-0.9888,0.0702,0.7191,-0.6044,-0.2601,0.2234
1183,0.0,0.0,0.0,0.0,0.0,0.0,0.0367,-0.9893,0.0649,0.7195,-0.6039,-0.2599,0.2236
1184,0.0,0.0,0.0,0.0,0.0,0.0,0.0451,-0.9699,0.0584,0.7198,-0.6035,-0.2600,0.2237
1185,0.0,0.0,0.0,0.0,0.0,0.0,0.0500,-0.9733,0.0592,0.7200,-0.6031,-0.2603,0.2238
1186,0.0,0.0,0.0,0.0,0.0,0.0,0.0505,-0.9738,0.0596,0.7201,-0.6028,-0.2606,0.2239
1187,0.0,0.0,0.0,0.0,0.0,0.0,0.0499,-0.9811,0.0629,0.7203,-0.6025,-0.2609,0.2238
1188,0.0,0.0,0.0,0.0,0.0,0.0,0.0464,-0.9874,0.0667,0.7205,-0.6023,-0.2610,0.2237
1189,0.0,0.0,0.0,0.0,0.0,0.0,0.0435,-0.9733,0.0641,0.7206,-0.6021,-0.2609,0.2238
1190,0.0,0.0,0.0,0.0,0.0,0.0,0.0430,-0.9762,0.0655,0.7207,-0.6020,-0.2609,0.2238
1191,0.0,0.0,0.0,0.0,0.0,0.0,0.0429,-0.9854,0.0716,0.7209,-0.6018,-0.2608,0.2237
1192,0.0,0.0,0.0,0.0,0.0,0.0,0.0390,-0.9850,0.0722,0.7211,-0.6017,-0.2606,0.2238
1193,0.0,0.0,0.0,0.0,0.0,0.0,0.0365,-0.9947,0.0750,0.7214,-0.6015,-0.2602,0.2239
1194,0.0,0.0,0.0,0.0,0.0,0.0,0.0407,-1.0034,0.0800,0.7218,-0.6010,-0.2599,0.2241
1195,0.0,0.0,0.0,0.0,0.0,0.0,0.0431,-0.9995,0.0829,0.7224,-0.6004,-0.2594,0.2244
1196,0.0,0.0,0.0,0.0,0.0,0.0,0.0386,-1.0024,0.0893,0.7233,-0.5995,-0.2588,0.2246
1197,0.0,0.0,0.0,0.0,0.0,0.0,0.0366,-0.9995,0.0918,0.7243,-0.5985,-0.2580,0.2251
1198,0.0,0.0,0.0,0.0,0.0,0.0,0.0363,-0.9762,0.0869,0.7253,-0.5975,-0.2573,0.2255
1199,0.0,0.0,0.0,0.0,0.0,0.0,0.0368,-0.9636,0.0862,0.7261,-0.5965,-0.2568,0.2258
1200,0.0,0.0,0.0,0.0,0.0,0.0,0.0397,-0.9598,0.0881,0.7268,-0.5956,-0.2566,0.2261
1201,0.0,0.0,0.0,0.0,0.0,0.0,0.0411,-0.9573,0.0891,0.7274,-0.5949,-0.2566,0.2263
1202,0.0,0.0,0.0,0.0,0.0,0.0,0.0417,-0.9578,0.0877,0.7276,-0.5944,-0.2567,0.2266
1203,0.0,0.0,0.0,0.0,0.0,0.0,0.0431,-0.9598,0.0876,0.7278,-0.5940,-0.2570,0.2268
1204,0.0,0.0,0.0,0.0,0.0,0.0,0.0446,-0.9685,0.0874,0.7278,-0.5938,-0.2575,0.2269
1205,0.0,0.0,0.0,0.0,0.0,0.0,0.0505,-0.9670,0.0834,0.7276,-0.5936,-0.2583,0.2270
1206,0.0,0.0,0.0,0.0,0.0,0.0,0.0471,-0.9791,0.0808,0.7273,-0.5936,-0.2589,0.2271
1207,0.0,0.0,0.0,0.0,0.0,0.0,0.0486,-0.9859,0.0783,0.7270,-0.5937,-0.2596,0.2273
1208,0.0,0.0,0.0,0.0,0.0,0.0,0.0588,-0.9850,0.0791,0.7268,-0.5936,-0.2604,0.2273
1209,0.0,0.0,0.0,0.0,0.0,0.0,0.0567,-0.9957,0.0876,0.7268,-0.5933,-0.2610,0.2273
1210,0.0,0.0,0.0,0.0,0.0,0.0,0.0571,-0.9966,0.0919,0.7271,-0.5928,-0.2612,0.2273
1211,0.0,0.0,0.0,0.0,0.0,0.0,0.0572,-0.9850,0.0897,0.7274,-0.5922,-0.2615,0.2274
1212,0.0,0.0,0.0,0.0,0.0,0.0,0.0563,-0.9724,0.0861,0.7277,-0.5918,-0.2617,0.2275
1213,0.0,0.0,0.0,0.0,0.0,0.0,0.0509,-0.9704,0.0867,0.7278,-0.5916,-0.2618,0.2276
1214,0.0,0.0,0.0,0.0,0.0,0.0,0.0498,-0.9743,0.0910,0.7280,-0.5913,-0.2618,0.2277
1215,0.0,0.0,0.0,0.0,0.0,0.0,0.0498,-0.9714,0.0940,0.7281,-0.5911,-0.2619,0.2278
1216,0.0,0.0,0.0,0.0,0.0,0.0,0.0493,-0.9690,0.0950,0.7282,-0.5909,-0.2619,0.2281
1217,0.0,0.0,0.0,0.0,0.0,0.0,0.0508,-0.9685,0.0950,0.7281,-0.5908,-0.2621,0.2284
1218,0.0,0.0,0.0,0.0,0.0,0.0,0.0522,-0.9724,0.0973,0.7280,-0.5907,-0.2623,0.2287
1219,0.0,0.0,0.0,0.0,0.0,0.0,0.0487,-0.9719,0.0998,0.7279,-0.5906,-0.2625,0.2291
1220,0.0,0.0,0.0,0.0,0.0,0.0,0.0507,-0.9636,0.0961,0.7277,-0.5905,-0.2628,0.2294
1221,0.0,0.0,0.0,0.0,0.0,0.0,0.0551,-0.9724,0.0958,0.7275,-0.5905,-0.2634,0.2297
1222,0.0,0.0,0.0,0.0,0.0,0.0,0.0546,-0.9767,0.0952,0.7272,-0.5905,-0.2638,0.2300
1223,0.0,0.0,0.0,0.0,0.0,0.0,0.0562,-0.9661,0.0915,0.7269,-0.5906,-0.2644,0.2303
1224,0.0,0.0,0.0,0.0,0.0,0.0,0.0605,-0.9782,0.0922,0.7264,-0.5907,-0.2650,0.2305
1225,0.0,0.0,0.0,0.0,0.0,0.0,0.0591,-0.9733,0.0899,0.7260,-0.5908,-0.2657,0.2307
1226,0.0,0.0,0.0,0.0,0.0,0.0,0.0591,-0.9797,0.0917,0.7256,-0.5910,-0.2664,0.2308
1227,0.0,0.0,0.0,0.0,0.0,0.0,0.0585,-0.9986,0.0967,0.7253,-0.5912,-0.2667,0.2309
1228,0.0,0.0,0.0,0.0,0.0,0.0,0.0535,-1.0151,0.1022,0.7253,-0.5911,-0.2666,0.2310
1229,0.0,0.0,0.0,0.0,0.0,0.0,0.0581,-0.9767,0.0932,0.7254,-0.5909,-0.2667,0.2311
1230,0.0,0.0,0.0,0.0,0.0,0.0,0.0601,-0.9772,0.0884,0.7254,-0.5909,-0.2669,0.2311
1231,0.0,0.0,0.0,0.0,0.0,0.0,0.0562,-0.9840,0.0902,0.7254,-0.5909,-0.2670,0.2311
1232,0.0,0.0,0.0,0.0,0.0,0.0,0.0553,-0.9835,0.0878,0.7254,-0.5909,-0.2670,0.2309
1233,0.0,0.0,0.0,0.0,0.0,0.0,0.0534,-0.9787,0.0831,0.7254,-0.5909,-0.2670,0.2307
1234,0.0,0.0,0.0,0.0,0.0,0.0,0.0514,-0.9772,0.0842,0.7254,-0.5910,-0.2670,0.2305
1235,0.0,0.0,0.0,0.0,0.0,0.0,0.0465,-0.9796,0.0862,0.7255,-0.5912,-0.2667,0.2305
1236,0.0,0.0,0.0,0.0,0.0,0.0,0.0436,-0.9821,0.0876,0.7255,-0.5913,-0.2664,0.2305
1237,0.0,0.0,0.0,0.0,0.0,0.0,0.0450,-0.9777,0.0872,0.7254,-0.5914,-0.2661,0.2307
1238,0.0,0.0,0.0,0.0,0.0,0.0,0.0420,-0.9898,0.0899,0.7254,-0.5914,-0.2658,0.2309
1239,0.0,0.0,0.0,0.0,0.0,0.0,0.0426,-0.9704,0.0855,0.7254,-0.5914,-0.2656,0.2313
1240,0.0,0.0,0.0,0.0,0.0,0.0,0.0518,-0.9714,0.0906,0.7253,-0.5913,-0.2657,0.2317
1241,0.0,0.0,0.0,0.0,0.0,0.0,0.0439,-0.9845,0.0972,0.7253,-0.5911,-0.2656,0.2322
1242,0.0,0.0,0.0,0.0,0.0,0.0,0.0380,-0.9850,0.0983,0.7255,-0.5909,-0.2654,0.2327
1243,0.0,0.0,0.0,0.0,0.0,0.0,0.0483,-0.9777,0.0963,0.7255,-0.5905,-0.2655,0.2333
1244,0.0,0.0,0.0,0.0,0.0,0.0,0.0551,-0.9748,0.0967,0.7256,-0.5900,-0.2659,0.2338
1245,0.0,0.0,0.0,0.0,0.0,0.0,0.0556,-0.9753,0.0962,0.7256,-0.5897,-0.2663,0.2342
1246,0.0,0.0,0.0,0.0,0.0,0.0,0.0625,-0.9627,0.0905,0.7255,-0.5894,-0.2670,0.2344
1247,0.0,0.0,0.0,0.0,0.0,0.0,0.0655,-0.9636,0.0880,0.7252,-0.5893,-0.2678,0.2344
1248,0.0,0.0,0.0,0.0,0.0,0.0,0.0646,-0.9690,0.0860,0.7249,-0.5895,-0.2684,0.2344
1249,0.0,0.0,0.0,0.0,0.0,0.0,0.0626,-0.9767,0.0854,0.7246,-0.5898,-0.2689,0.2339
1250,0.0,0.0,0.0,0.0,0.0,0.0,0.0572,-0.9898,0.0882,0.7244,-0.5901,-0.2691,0.2336
1251,0.0,0.0,0.0,0.0,0.0,0.0,0.0503,-1.0010,0.0881,0.7243,-0.5904,-0.2690,0.2332
1252,0.0,0.0,0.0,0.0,0.0,0.0,0.0474,-1.0092,0.0899,0.7245,-0.5905,-0.2687,0.2327
1253,0.0,0.0,0.0,0.0,0.0,0.0,0.0513,-1.0194,0.0896,0.7248,-0.5904,-0.2683,0.2324
1254,0.0,0.0,0.0,0.0,0.0,0.0,0.0581,-1.0184,0.0905,0.7255,-0.5900,-0.2678,0.2320
1255,0.0,0.0,0.0,0.0,0.0,0.0,0.0599,-1.0194,0.0953,0.7265,-0.5893,-0.2670,0.2315
1256,0.0,0.0,0.0,0.0,0.0,0.0,0.0610,-0.9942,0.0943,0.7277,-0.5884,-0.2661,0.2311
1257,0.0,0.0,0.0,0.0,0.0,0.0,0.0483,-0.9772,0.0968,0.7289,-0.5876,-0.2648,0.2308
1258,0.0,0.0,0.0,0.0,0.0,0.0,0.0424,-0.9617,0.0977,0.7301,-0.5869,-0.2635,0.2305
1259,0.0,0.0,0.0,0.0,0.0,0.0,0.0460,-0.9292,0.0930,0.7309,-0.5864,-0.2627,0.2302
1260,0.0,0.0,0.0,0.0,0.0,0.0,0.0454,-0.9438,0.0975,0.7313,-0.5862,-0.2622,0.2299
1261,0.0,0.0,0.0,0.0,0.0,0.0,0.0399,-0.9593,0.1021,0.7316,-0.5861,-0.2616,0.2298
1262,0.0,0.0,0.0,0.0,0.0,0.0,0.0414,-0.9506,0.1004,0.7318,-0.5860,-0.2614,0.2297
1263,0.0,0.0,0.0,0.0,0.0,0.0,0.0449,-0.9457,0.0980,0.7317,-0.5861,-0.2615,0.2297
1264,0.0,0.0,0.0,0.0,0.0,0.0,0.0517,-0.9491,0.0978,0.7313,-0.5864,-0.2619,0.2297
1265,0.0,0.0,0.0,0.0,0.0,0.0,0.0497,-0.9559,0.0996,0.7308,-0.5868,-0.2624,0.2296
1266,0.0,0.0,0.0,0.0,0.0,0.0,0.0504,-0.9894,0.1129,0.7305,-0.5871,-0.2628,0.2296
1267,0.0,0.0,0.0,0.0,0.0,0.0,0.0513,-0.9962,0.1152,0.7304,-0.5871,-0.2630,0.2295
1268,0.0,0.0,0.0,0.0,0.0,0.0,0.0559,-0.9816,0.1043,0.7302,-0.5872,-0.2633,0.2294
1269,0.0,0.0,0.0,0.0,0.0,0.0,0.0536,-0.9758,0.0977,0.7299,-0.5873,-0.2638,0.2295
1270,0.0,0.0,0.0,0.0,0.0,0.0,0.0556,-0.9700,0.0973,0.7297,-0.5874,-0.2643,0.2294
1271,0.0,0.0,0.0,0.0,0.0,0.0,0.0555,-0.9748,0.1001,0.7293,-0.5876,-0.2648,0.2294
1272,0.0,0.0,0.0,0.0,0.0,0.0,0.0632,-0.9826,0.1041,0.7291,-0.5876,-0.2655,0.2294
1273,0.0,0.0,0.0,0.0,0.0,0.0,0.0647,-0.9797,0.1042,0.7290,-0.5875,-0.2661,0.2293
1274,0.0,0.0,0.0,0.0,0.0,0.0,0.0627,-0.9918,0.1054,0.7289,-0.5875,-0.2666,0.2291
1275,0.0,0.0,0.0,0.0,0.0,0.0,0.0639,-0.9787,0.0969,0.7288,-0.5874,-0.2671,0.2290
1276,0.0,0.0,0.0,0.0,0.0,0.0,0.0669,-0.9724,0.0922,0.7286,-0.5875,-0.2677,0.2288
1277,0.0,0.0,0.0,0.0,0.0,0.0,0.0653,-0.9831,0.0959,0.7284,-0.5876,-0.2681,0.2287
1278,0.0,0.0,0.0,0.0,0.0,0.0,0.0673,-0.9821,0.0954,0.7283,-0.5877,-0.2684,0.2285
1279,0.0,0.0,0.0,0.0,0.0,0.0,0.0668,-0.9763,0.0945,0.7282,-0.5877,-0.2687,0.2284
1280,0.0,0.0,0.0,0.0,0.0,0.0,0.0649,-0.9797,0.0945,0.7281,-0.5878,-0.2689,0.2283
1281,0.0,0.0,0.0,0.0,0.0,0.0,0.0668,-0.9801,0.0944,0.7280,-0.5878,-0.2690,0.2283
1282,0.0,0.0,0.0,0.0,0.0,0.0,0.0644,-0.9816,0.0940,0.7280,-0.5879,-0.2690,0.2282
1283,0.0,0.0,0.0,0.0,0.0,0.0,0.0634,-0.9826,0.0945,0.7279,-0.5880,-0.2690,0.2281
1284,0.0,0.0,0.0,0.0,0.0,0.0,0.0609,-0.9831,0.0959,0.7279,-0.5880,-0.2689,0.2281
1285,0.0,0.0,0.0,0.0,0.0,0.0,0.0600,-0.9816,0.0965,0.7280,-0.5881,-0.2687,0.2280
1286,0.0,0.0,0.0,0.0,0.0,0.0,0.0585,-0.9767,0.0966,0.7280,-0.5882,-0.2684,0.2280
1287,0.0,0.0,0.0,0.0,0.0,0.0,0.0541,-0.9729,0.0963,0.7281,-0.5883,-0.2681,0.2279
1288,0.0,0.0,0.0,0.0,0.0,0.0,0.0507,-0.9738,0.0992,0.7281,-0.5884,-0.2678,0.2279
1289,0.0,0.0,0.0,0.0,0.0,0.0,0.0526,-0.9763,0.0991,0.7282,-0.5883,-0.2677,0.2278
1290,0.0,0.0,0.0,0.0,0.0,0.0,0.0559,-0.9850,0.1037,0.7283,-0.5882,-0.2676,0.2279
1291,0.0,0.0,0.0,0.0,0.0,0.0,0.0549,-0.9865,0.1061,0.7286,-0.5879,-0.2675,0.2280
1292,0.0,0.0,0.0,0.0,0.0,0.0,0.0540,-0.9743,0.1016,0.7288,-0.5877,-0.2673,0.2281
1293,0.0,0.0,0.0,0.0,0.0,0.0,0.0564,-0.9869,0.1051,0.7290,-0.5874,-0.2672,0.2283
1294,0.0,0.0,0.0,0.0,0.0,0.0,0.0602,-0.9937,0.1064,0.7294,-0.5869,-0.2670,0.2284
1295,0.0,0.0,0.0,0.0,0.0,0.0,0.0575,-0.9729,0.1001,0.7297,-0.5865,-0.2668,0.2287
1296,0.0,0.0,0.0,0.0,0.0,0.0,0.0521,-0.9709,0.0983,0.7298,-0.5864,-0.2666,0.2290
1297,0.0,0.0,0.0,0.0,0.0,0.0,0.0632,-0.9869,0.1026,0.7300,-0.5860,-0.2666,0.2294
1298,0.0,0.0,0.0,0.0,0.0,0.0,0.0623,-0.9811,0.1022,0.7303,-0.5856,-0.2666,0.2296
1299,0.0,0.0,0.0,0.0,0.0,0.0,0.0623,-0.9821,0.1032,0.7306,-0.5852,-0.2665,0.2296
1300,0.0,0.0,0.0,0.0,0.0,0.0,0.0613,-0.9845,0.1046,0.7309,-0.5848,-0.2663,0.2297
1301,0.0,0.0,0.0,0.0,0.0,0.0,0.0574,-0.9792,0.1029,0.7313,-0.5845,-0.2660,0.2298
1302,0.0,0.0,0.0,0.0,0.0,0.0,0.0526,-0.9734,0.1021,0.7317,-0.5842,-0.2656,0.2299
1303,0.0,0.0,0.0,0.0,0.0,0.0,0.0553,-0.9811,0.1101,0.7321,-0.5837,-0.2652,0.2300
1304,0.0,0.0,0.0,0.0,0.0,0.0,0.0601,-0.9821,0.1148,0.7327,-0.5831,-0.2649,0.2301
1305,0.0,0.0,0.0,0.0,0.0,0.0,0.0655,-0.9710,0.1149,0.7333,-0.5824,-0.2646,0.2302
1306,0.0,0.0,0.0,0.0,0.0,0.0,0.0630,-0.9666,0.1151,0.7339,-0.5819,-0.2643,0.2302
1307,0.0,0.0,0.0,0.0,0.0,0.0,0.0566,-0.9685,0.1181,0.7344,-0.5815,-0.2637,0.2302
1308,0.0,0.0,0.0,0.0,0.0,0.0,0.0571,-0.9632,0.1196,0.7349,-0.5811,-0.2632,0.2302
1309,0.0,0.0,0.0,0.0,0.0,0.0,0.0537,-0.9603,0.1183,0.7353,-0.5808,-0.2626,0.2303
1310,0.0,0.0,0.0,0.0,0.0,0.0,0.0537,-0.9642,0.1187,0.7355,-0.5807,-0.2621,0.2304
1311,0.0,0.0,0.0,0.0,0.0,0.0,0.0508,-0.9671,0.1201,0.7358,-0.5806,-0.2615,0.2305
1312,0.0,0.0,0.0,0.0,0.0,0.0,0.0469,-0.9666,0.1183,0.7359,-0.5807,-0.2608,0.2307
1313,0.0,0.0,0.0,0.0,0.0,0.0,0.0434,-0.9680,0.1203,0.7359,-0.5808,-0.2602,0.2310
1314,0.0,0.0,0.0,0.0,0.0,0.0,0.0419,-0.9724,0.1221,0.7360,-0.5809,-0.2596,0.2313
1315,0.0,0.0,0.0,0.0,0.0,0.0,0.0409,-0.9743,0.1245,0.7360,-0.5809,-0.2591,0.2316
1316,0.0,0.0,0.0,0.0,0.0,0.0,0.0414,-0.9690,0.1246,0.7361,-0.5809,-0.2587,0.2319
1317,0.0,0.0,0.0,0.0,0.0,0.0,0.0370,-0.9724,0.1246,0.7361,-0.5810,-0.2583,0.2321
1318,0.0,0.0,0.0,0.0,0.0,0.0,0.0371,-0.9719,0.1222,0.7361,-0.5810,-0.2580,0.2325
1319,0.0,0.0,0.0,0.0,0.0,0.0,0.0380,-0.9792,0.1206,0.7360,-0.5810,-0.2579,0.2327
1320,0.0,0.0,0.0,0.0,0.0,0.0,0.0391,-0.9748,0.1192,0.7360,-0.5810,-0.2579,0.2331
1321,0.0,0.0,0.0,0.0,0.0,0.0,0.0366,-0.9695,0.1218,0.7359,-0.5808,-0.2580,0.2335
1322,0.0,0.0,0.0,0.0,0.0,0.0,0.0391,-0.9666,0.1184,0.7358,-0.5806,-0.2583,0.2340
1323,0.0,0.0,0.0,0.0,0.0,0.0,0.0462,-1.0844,0.1174,0.7352,-0.5808,-0.2591,0.2346
1324,0.0,0.0,0.0,0.0,0.0,0.0,0.0448,-0.9763,0.1225,0.7349,-0.5806,-0.2598,0.2353
1325,0.0,0.0,0.0,0.0,0.0,0.0,0.0532,-0.9651,0.1196,0.7346,-0.5803,-0.2608,0.2360
1326,0.0,0.0,0.0,0.0,0.0,0.0,0.0605,-0.9753,0.1203,0.7342,-0.5800,-0.2619,0.2365
1327,0.0,0.0,0.0,0.0,0.0,0.0,0.0596,-0.9680,0.1151,0.7339,-0.5797,-0.2631,0.2369
1328,0.0,0.0,0.0,0.0,0.0,0.0,0.0640,-0.9656,0.1141,0.7335,-0.5795,-0.2644,0.2373
1329,0.0,0.0,0.0,0.0,0.0,0.0,0.0665,-0.9714,0.1144,0.7331,-0.5793,-0.2656,0.2376
1330,0.0,0.0,0.0,0.0,0.0,0.0,0.0719,-0.9656,0.1125,0.7326,-0.5791,-0.2671,0.2378
1331,0.0,0.0,0.0,0.0,0.0,0.0,0.0718,-0.9671,0.1139,0.7322,-0.5790,-0.2684,0.2379
1332,0.0,0.0,0.0,0.0,0.0,0.0,0.0725,-0.9574,0.1068,0.7317,-0.5791,-0.2698,0.2378
1333,0.0,0.0,0.0,0.0,0.0,0.0,0.0740,-0.9574,0.1030,0.7310,-0.5794,-0.2712,0.2376
1334,0.0,0.0,0.0,0.0,0.0,0.0,0.0715,-0.9685,0.1042,0.7302,-0.5798,-0.2726,0.2375
1335,0.0,0.0,0.0,0.0,0.0,0.0,0.0779,-0.9724,0.1021,0.7294,-0.5802,-0.2740,0.2373
1336,0.0,0.0,0.0,0.0,0.0,0.0,0.0730,-0.9777,0.1011,0.7286,-0.5807,-0.2752,0.2370
1337,0.0,0.0,0.0,0.0,0.0,0.0,0.0750,-0.9831,0.1015,0.7279,-0.5812,-0.2763,0.2368
1338,0.0,0.0,0.0,0.0,0.0,0.0,0.0755,-0.9816,0.1015,0.7272,-0.5816,-0.2773,0.2366
1339,0.0,0.0,0.0,0.0,0.0,0.0,0.0774,-0.9899,0.1013,0.7266,-0.5821,-0.2781,0.2364
1340,0.0,0.0,0.0,0.0,0.0,0.0,0.0729,-1.0146,0.1072,0.7262,-0.5824,-0.2784,0.2364
1341,0.0,0.0,0.0,0.0,0.0,0.0,0.0699,-1.0282,0.1084,0.7262,-0.5824,-0.2783,0.2365
1342,0.0,0.0,0.0,0.0,0.0,0.0,0.0749,-1.0194,0.1012,0.7265,-0.5822,-0.2782,0.2366
1343,0.0,0.0,0.0,0.0,0.0,0.0,0.0834,-0.9928,0.0924,0.7269,-0.5817,-0.2781,0.2366
1344,0.0,0.0,0.0,0.0,0.0,0.0,0.0815,-0.9816,0.0903,0.7273,-0.5812,-0.2779,0.2368
1345,0.0,0.0,0.0,0.0,0.0,0.0,0.0865,-0.9685,0.0890,0.7277,-0.5807,-0.2777,0.2366
1346,0.0,0.0,0.0,0.0,0.0,0.0,0.0834,-0.9739,0.0942,0.7282,-0.5804,-0.2773,0.2363
1347,0.0,0.0,0.0,0.0,0.0,0.0,0.0791,-0.9588,0.0937,0.7287,-0.5803,-0.2768,0.2359
1348,0.0,0.0,0.0,0.0,0.0,0.0,0.0756,-0.9545,0.0977,0.7290,-0.5803,-0.2763,0.2354
1349,0.0,0.0,0.0,0.0,0.0,0.0,0.0718,-0.9409,0.0951,0.7293,-0.5806,-0.2757,0.2347
1350,0.0,0.0,0.0,0.0,0.0,0.0,0.0674,-0.9399,0.0957,0.7292,-0.5812,-0.2752,0.2339
1351,0.0,0.0,0.0,0.0,0.0,0.0,0.0605,-0.9540,0.0985,0.7290,-0.5822,-0.2745,0.2330
1352,0.0,0.0,0.0,0.0,0.0,0.0,0.0507,-0.9656,0.0989,0.7286,-0.5833,-0.2737,0.2323
1353,0.0,0.0,0.0,0.0,0.0,0.0,0.0443,-0.9763,0.1003,0.7283,-0.5845,-0.2728,0.2315
1354,0.0,0.0,0.0,0.0,0.0,0.0,0.0403,-0.9835,0.1026,0.7280,-0.5855,-0.2719,0.2310
1355,0.0,0.0,0.0,0.0,0.0,0.0,0.0349,-0.9903,0.1041,0.7278,-0.5863,-0.2709,0.2306
1356,0.0,0.0,0.0,0.0,0.0,0.0,0.0403,-0.9952,0.1043,0.7277,-0.5869,-0.2702,0.2303
1357,0.0,0.0,0.0,0.0,0.0,0.0,0.0442,-0.9937,0.1019,0.7276,-0.5873,-0.2697,0.2301
1358,0.0,0.0,0.0,0.0,0.0,0.0,0.0403,-0.9860,0.1031,0.7276,-0.5875,-0.2691,0.2302
1359,0.0,0.0,0.0,0.0,0.0,0.0,0.0432,-0.9821,0.1045,0.7277,-0.5875,-0.2687,0.2302
1360,0.0,0.0,0.0,0.0,0.0,0.0,0.0471,-0.9797,0.1055,0.7278,-0.5874,-0.2686,0.2305
1361,0.0,0.0,0.0,0.0,0.0,0.0,0.0505,-0.9768,0.1084,0.7279,-0.5872,-0.2686,0.2306
1362,0.0,0.0,0.0,0.0,0.0,0.0,0.0509,-0.9806,0.1126,0.7282,-0.5869,-0.2685,0.2306
1363,0.0,0.0,0.0,0.0,0.0,0.0,0.0529,-0.9753,0.1117,0.7284,-0.5866,-0.2686,0.2307
1364,0.0,0.0,0.0,0.0,0.0,0.0,0.0540,-0.9690,0.1055,0.7285,-0.5863,-0.2687,0.2308
1365,0.0,0.0,0.0,0.0,0.0,0.0,0.0531,-0.9671,0.1003,0.7285,-0.5862,-0.2689,0.2311
1366,0.0,0.0,0.0,0.0,0.0,0.0,0.0526,-0.9670,0.0988,0.7283,-0.5862,-0.2691,0.2314
1367,0.0,0.0,0.0,0.0,0.0,0.0,0.0565,-0.9743,0.1001,0.7280,-0.5862,-0.2696,0.2318
1368,0.0,0.0,0.0,0.0,0.0,0.0,0.0643,-0.9743,0.1004,0.7278,-0.5860,-0.2702,0.2322
1369,0.0,0.0,0.0,0.0,0.0,0.0,0.0658,-0.9777,0.0993,0.7275,-0.5860,-0.2708,0.2326
1370,0.0,0.0,0.0,0.0,0.0,0.0,0.0663,-0.9811,0.0988,0.7272,-0.5860,-0.2713,0.2329
1371,0.0,0.0,0.0,0.0,0.0,0.0,0.0664,-0.9700,0.0942,0.7268,-0.5861,-0.2717,0.2333
1372,0.0,0.0,0.0,0.0,0.0,0.0,0.0661,-0.9578,0.0852,0.7263,-0.5864,-0.2723,0.2335
1373,0.0,0.0,0.0,0.0,0.0,0.0,0.0685,-0.9593,0.0832,0.7256,-0.5869,-0.2729,0.2337
1374,0.0,0.0,0.0,0.0,0.0,0.0,0.0657,-0.9588,0.0775,0.7248,-0.5875,-0.2736,0.2337
1375,0.0,0.0,0.0,0.0,0.0,0.0,0.0643,-0.9641,0.0736,0.7239,-0.5884,-0.2743,0.2335
1376,0.0,0.0,0.0,0.0,0.0,0.0,0.0644,-0.9719,0.0700,0.7229,-0.5895,-0.2749,0.2333
1377,0.0,0.0,0.0,0.0,0.0,0.0,0.0615,-0.9796,0.0670,0.7219,-0.5906,-0.2755,0.2328
1378,0.0,0.0,0.0,0.0,0.0,0.0,0.0561,-0.9922,0.0669,0.7210,-0.5917,-0.2759,0.2324
1379,0.0,0.0,0.0,0.0,0.0,0.0,0.0561,-1.0024,0.0691,0.7202,-0.5926,-0.2762,0.2321
1380,0.0,0.0,0.0,0.0,0.0,0.0,0.0522,-1.0019,0.0692,0.7196,-0.5935,-0.2762,0.2317
1381,0.0,0.0,0.0,0.0,0.0,0.0,0.0504,-0.9874,0.0637,0.7190,-0.5942,-0.2762,0.2315
1382,0.0,0.0,0.0,0.0,0.0,0.0,0.0475,-0.9811,0.0620,0.7184,-0.5950,-0.2762,0.2313
1383,0.0,0.0,0.0,0.0,0.0,0.0,0.0474,-0.9927,0.0661,0.7179,-0.5957,-0.2762,0.2312
1384,0.0,0.0,0.0,0.0,0.0,0.0,0.0512,-0.9898,0.0685,0.7175,-0.5961,-0.2762,0.2313
1385,0.0,0.0,0.0,0.0,0.0,0.0,0.0522,-0.9893,0.0699,0.7173,-0.5963,-0.2763,0.2314
1386,0.0,0.0,0.0,0.0,0.0,0.0,0.0570,-0.9951,0.0712,0.7172,-0.5965,-0.2764,0.2313
1387,0.0,0.0,0.0,0.0,0.0,0.0,0.0566,-0.9918,0.0703,0.7171,-0.5965,-0.2765,0.2313
1388,0.0,0.0,0.0,0.0,0.0,0.0,0.0630,-0.9806,0.0665,0.7171,-0.5964,-0.2769,0.2311
1389,0.0,0.0,0.0,0.0,0.0,0.0,0.0673,-0.9801,0.0693,0.7171,-0.5963,-0.2774,0.2309
1390,0.0,0.0,0.0,0.0,0.0,0.0,0.0592,-1.0107,0.0814,0.7173,-0.5961,-0.2774,0.2306
1391,0.0,0.0,0.0,0.0,0.0,0.0,0.0594,-1.0010,0.0753,0.7178,-0.5958,-0.2773,0.2303
1392,0.0,0.0,0.0,0.0,0.0,0.0,0.0581,-0.9888,0.0669,0.7181,-0.5955,-0.2771,0.2303
1393,0.0,0.0,0.0,0.0,0.0,0.0,0.0547,-0.9884,0.0665,0.7184,-0.5952,-0.2767,0.2304
1394,0.0,0.0,0.0,0.0,0.0,0.0,0.0596,-0.9806,0.0675,0.7187,-0.5949,-0.2765,0.2305
1395,0.0,0.0,0.0,0.0,0.0,0.0,0.0600,-0.9854,0.0684,0.7189,-0.5946,-0.2762,0.2308
1396,0.0,0.0,0.0,0.0,0.0,0.0,0.0614,-0.9840,0.0703,0.7192,-0.5943,-0.2759,0.2310
1397,0.0,0.0,0.0,0.0,0.0,0.0,0.0639,-0.9811,0.0703,0.7195,-0.5940,-0.2757,0.2312
1398,0.0,0.0,0.0,0.0,0.0,0.0,0.0648,-0.9762,0.0714,0.7199,-0.5936,-0.2755,0.2313
1399,0.0,0.0,0.0,0.0,0.0,0.0,0.0618,-0.9816,0.0771,0.7203,-0.5932,-0.2752,0.2313
1400,0.0,0.0,0.0,0.0,0.0,0.0,0.0574,-0.9821,0.0801,0.7208,-0.5928,-0.2748,0.2312
1401,0.0,0.0,0.0,0.0,0.0,0.0,0.0564,-0.9811,0.0801,0.7213,-0.5925,-0.2745,0.2311
1402,0.0,0.0,0.0,0.0,0.0,0.0,0.0546,-0.9694,0.0746,0.7216,-0.5922,-0.2743,0.2310
1403,0.0,0.0,0.0,0.0,0.0,0.0,0.0628,-0.9699,0.0764,0.7219,-0.5919,-0.2744,0.2308
1404,0.0,0.0,0.0,0.0,0.0,0.0,0.0628,-0.9709,0.0778,0.7221,-0.5916,-0.2745,0.2307
1405,0.0,0.0,0.0,0.0,0.0,0.0,0.0633,-0.9695,0.0740,0.7222,-0.5914,-0.2748,0.2306
1406,0.0,0.0,0.0,0.0,0.0,0.0,0.0649,-0.9646,0.0711,0.7222,-0.5913,-0.2751,0.2304
1407,0.0,0.0,0.0,0.0,0.0,0.0,0.0658,-0.9597,0.0717,0.7221,-0.5912,-0.2756,0.2303
1408,0.0,0.0,0.0,0.0,0.0,0.0,0.0721,-0.9699,0.0772,0.7219,-0.5911,-0.2763,0.2303
1409,0.0,0.0,0.0,0.0,0.0,0.0,0.0714,-0.9840,0.0836,0.7219,-0.5910,-0.2767,0.2301
1410,0.0,0.0,0.0,0.0,0.0,0.0,0.0670,-0.9894,0.0865,0.7221,-0.5908,-0.2769,0.2299
1411,0.0,0.0,0.0,0.0,0.0,0.0,0.0684,-0.9889,0.0889,0.7223,-0.5905,-0.2770,0.2299
1412,0.0,0.0,0.0,0.0,0.0,0.0,0.0689,-0.9855,0.0890,0.7225,-0.5903,-0.2769,0.2301
1413,0.0,0.0,0.0,0.0,0.0,0.0,0.0675,-0.9767,0.0853,0.7225,-0.5902,-0.2768,0.2303
1414,0.0,0.0,0.0,0.0,0.0,0.0,0.0690,-0.9753,0.0819,0.7225,-0.5902,-0.2767,0.2304
1415,0.0,0.0,0.0,0.0,0.0,0.0,0.0685,-0.9821,0.0833,0.7225,-0.5902,-0.2766,0.2304
1416,0.0,0.0,0.0,0.0,0.0,0.0,0.0652,-0.9651,0.0783,0.7224,-0.5903,-0.2766,0.2305
1417,0.0,0.0,0.0,0.0,0.0,0.0,0.0657,-0.9685,0.0788,0.7222,-0.5905,-0.2767,0.2304
1418,0.0,0.0,0.0,0.0,0.0,0.0,0.0613,-0.9709,0.0807,0.7220,-0.5908,-0.2768,0.2304
1419,0.0,0.0,0.0,0.0,0.0,0.0,0.0584,-0.9665,0.0785,0.7216,-0.5913,-0.2768,0.2304
1420,0.0,0.0,0.0,0.0,0.0,0.0,0.0598,-0.9801,0.0811,0.7213,-0.5916,-0.2768,0.2303
1421,0.0,0.0,0.0,0.0,0.0,0.0,0.0607,-0.9898,0.0818,0.7212,-0.5918,-0.2767,0.2304
1422,0.0,0.0,0.0,0.0,0.0,0.0,0.0638,-0.9811,0.0761,0.7210,-0.5920,-0.2767,0.2304
1423,0.0,0.0,0.0,0.0,0.0,0.0,0.0669,-0.9651,0.0658,0.7206,-0.5923,-0.2771,0.2305
1424,0.0,0.0,0.0,0.0,0.0,0.0,0.0723,-0.9743,0.0631,0.7200,-0.5929,-0.2776,0.2304
1425,0.0,0.0,0.0,0.0,0.0,0.0,0.0689,-0.9845,0.0629,0.7193,-0.5935,-0.2779,0.2303
1426,0.0,0.0,0.0,0.0,0.0,0.0,0.0669,-0.9864,0.0639,0.7188,-0.5941,-0.2781,0.2301
1427,0.0,0.0,0.0,0.0,0.0,0.0,0.0655,-0.9903,0.0624,0.7185,-0.5946,-0.2782,0.2298
1428,0.0,0.0,0.0,0.0,0.0,0.0,0.0651,-0.9854,0.0591,0.7181,-0.5951,-0.2783,0.2296
1429,0.0,0.0,0.0,0.0,0.0,0.0,0.0647,-0.9791,0.0549,0.7176,-0.5958,-0.2783,0.2295
1430,0.0,0.0,0.0,0.0,0.0,0.0,0.0627,-0.9816,0.0539,0.7171,-0.5964,-0.2784,0.2292
1431,0.0,0.0,0.0,0.0,0.0,0.0,0.0622,-0.9845,0.0558,0.7167,-0.5970,-0.2782,0.2290
1432,0.0,0.0,0.0,0.0,0.0,0.0,0.0569,-0.9869,0.0554,0.7164,-0.5977,-0.2780,0.2289
1433,0.0,0.0,0.0,0.0,0.0,0.0,0.0524,-0.9937,0.0592,0.7162,-0.5980,-0.2775,0.2289
1434,0.0,0.0,0.0,0.0,0.0,0.0,0.0612,-0.9888,0.0577,0.7160,-0.5983,-0.2773,0.2291
1435,0.0,0.0,0.0,0.0,0.0,0.0,0.0592,-0.9913,0.0601,0.7158,-0.5987,-0.2769,0.2293
1436,0.0,0.0,0.0,0.0,0.0,0.0,0.0563,-0.9917,0.0606,0.7158,-0.5989,-0.2765,0.2292
1437,0.0,0.0,0.0,0.0,0.0,0.0,0.0611,-0.9942,0.0624,0.7158,-0.5991,-0.2762,0.2290
1438,0.0,0.0,0.0,0.0,0.0,0.0,0.0606,-0.9966,0.0624,0.7159,-0.5994,-0.2756,0.2287
1439,0.0,0.0,0.0,0.0,0.0,0.0,0.0542,-0.9956,0.0630,0.7162,-0.5996,-0.2748,0.2283
1440,0.0,0.0,0.0,0.0,0.0,0.0,0.0479,-0.9913,0.0642,0.7166,-0.5997,-0.2738,0.2280
1441,0.0,0.0,0.0,0.0,0.0,0.0,0.0434,-0.9947,0.0695,0.7171,-0.5996,-0.2727,0.2277
1442,0.0,0.0,0.0,0.0,0.0,0.0,0.0385,-0.9951,0.0710,0.7178,-0.5994,-0.2715,0.2275
1443,0.0,0.0,0.0,0.0,0.0,0.0,0.0370,-0.9903,0.0707,0.7185,-0.5991,-0.2704,0.2274
1444,0.0,0.0,0.0,0.0,0.0,0.0,0.0361,-0.9830,0.0718,0.7193,-0.5986,-0.2694,0.2274
1445,0.0,0.0,0.0,0.0,0.0,0.0,0.0370,-0.9796,0.0743,0.7201,-0.5980,-0.2684,0.2276
1446,0.0,0.0,0.0,0.0,0.0,0.0,0.0360,-0.9840,0.0771,0.7209,-0.5974,-0.2674,0.2279
1447,0.0,0.0,0.0,0.0,0.0,0.0,0.0354,-0.9888,0.0804,0.7217,-0.5967,-0.2666,0.2283
1448,0.0,0.0,0.0,0.0,0.0,0.0,0.0362,-0.9927,0.0866,0.7226,-0.5957,-0.2658,0.2288
1449,0.0,0.0,0.0,0.0,0.0,0.0,0.0385,-0.9942,0.0947,0.7237,-0.5943,-0.2653,0.2294
1450,0.0,0.0,0.0,0.0,0.0,0.0,0.0414,-0.9918,0.0995,0.7249,-0.5927,-0.2649,0.2301
1451,0.0,0.0,0.0,0.0,0.0,0.0,0.0496,-0.9908,0.1042,0.7262,-0.5909,-0.2649,0.2308
1452,0.0,0.0,0.0,0.0,0.0,0.0,0.0553,-0.9865,0.1105,0.7276,-0.5887,-0.2651,0.2316
1453,0.0,0.0,0.0,0.0,0.0,0.0,0.0610,-0.9894,0.1171,0.7292,-0.5865,-0.2653,0.2322
1454,0.0,0.0,0.0,0.0,0.0,0.0,0.0668,-0.9831,0.1205,0.7307,-0.5842,-0.2657,0.2329
1455,0.0,0.0,0.0,0.0,0.0,0.0,0.0693,-0.9661,0.1193,0.7320,-0.5821,-0.2662,0.2334
1456,0.0,0.0,0.0,0.0,0.0,0.0,0.0714,-0.9486,0.1153,0.7331,-0.5804,-0.2667,0.2337
1457,0.0,0.0,0.0,0.0,0.0,0.0,0.0719,-0.9365,0.1111,0.7339,-0.5791,-0.2672,0.2337
1458,0.0,0.0,0.0,0.0,0.0,0.0,0.0710,-0.9360,0.1107,0.7345,-0.5782,-0.2676,0.2336
1459,0.0,0.0,0.0,0.0,0.0,0.0,0.0685,-0.9443,0.1144,0.7349,-0.5777,-0.2679,0.2333
1460,0.0,0.0,0.0,0.0,0.0,0.0,0.0648,-0.9627,0.1228,0.7355,-0.5772,-0.2679,0.2329
1461,0.0,0.0,0.0,0.0,0.0,0.0,0.0638,-0.9753,0.1265,0.7361,-0.5766,-0.2679,0.2325
1462,0.0,0.0,0.0,0.0,0.0,0.0,0.0612,-0.9773,0.1308,0.7368,-0.5757,-0.2680,0.2320
1463,0.0,0.0,0.0,0.0,0.0,0.0,0.0646,-0.9763,0.1356,0.7377,-0.5746,-0.2684,0.2316
1464,0.0,0.0,0.0,0.0,0.0,0.0,0.0669,-0.9734,0.1390,0.7386,-0.5734,-0.2687,0.2311
1465,0.0,0.0,0.0,0.0,0.0,0.0,0.0752,-0.9681,0.1418,0.7395,-0.5722,-0.2691,0.2308
1466,0.0,0.0,0.0,0.0,0.0,0.0,0.0825,-0.9681,0.1441,0.7405,-0.5709,-0.2698,0.2303
1467,0.0,0.0,0.0,0.0,0.0,0.0,0.0830,-0.9574,0.1443,0.7414,-0.5695,-0.2706,0.2297
1468,0.0,0.0,0.0,0.0,0.0,0.0,0.0805,-0.9545,0.1459,0.7421,-0.5685,-0.2711,0.2293
1469,0.0,0.0,0.0,0.0,0.0,0.0,0.0810,-0.9545,0.1459,0.7425,-0.5679,-0.2715,0.2290
1470,0.0,0.0,0.0,0.0,0.0,0.0,0.0829,-0.9535,0.1454,0.7428,-0.5675,-0.2718,0.2288
1471,0.0,0.0,0.0,0.0,0.0,0.0,0.0820,-0.9560,0.1448,0.7429,-0.5673,-0.2718,0.2290
1472,0.0,0.0,0.0,0.0,0.0,0.0,0.0805,-0.9564,0.1429,0.7428,-0.5673,-0.2716,0.2293
1473,0.0,0.0,0.0,0.0,0.0,0.0,0.0801,-0.9530,0.1406,0.7426,-0.5675,-0.2714,0.2298
1474,0.0,0.0,0.0,0.0,0.0,0.0,0.0817,-0.9511,0.1358,0.7422,-0.5679,-0.2713,0.2304
1475,0.0,0.0,0.0,0.0,0.0,0.0,0.0822,-0.9598,0.1351,0.7416,-0.5684,-0.2713,0.2309
1476,0.0,0.0,0.0,0.0,0.0,0.0,0.0734,-0.9671,0.1342,0.7409,-0.5692,-0.2710,0.2315
1477,0.0,0.0,0.0,0.0,0.0,0.0,0.0778,-0.9661,0.1317,0.7402,-0.5701,-0.2708,0.2321
1478,0.0,0.0,0.0,0.0,0.0,0.0,0.0774,-0.9695,0.1302,0.7394,-0.5710,-0.2705,0.2324
1479,0.0,0.0,0.0,0.0,0.0,0.0,0.0706,-0.9686,0.1294,0.7387,-0.5720,-0.2702,0.2327
1480,0.0,0.0,0.0,0.0,0.0,0.0,0.0692,-0.9666,0.1265,0.7379,-0.5729,-0.2701,0.2330
1481,0.0,0.0,0.0,0.0,0.0,0.0,0.0677,-0.9632,0.1237,0.7372,-0.5738,-0.2701,0.2332
1482,0.0,0.0,0.0,0.0,0.0,0.0,0.0697,-0.9637,0.1222,0.7365,-0.5746,-0.2702,0.2333
1483,0.0,0.0,0.0,0.0,0.0,0.0,0.0718,-0.9584,0.1189,0.7357,-0.5755,-0.2705,0.2332
1484,0.0,0.0,0.0,0.0,0.0,0.0,0.0731,-0.9705,0.1211,0.7350,-0.5763,-0.2708,0.2329
1485,0.0,0.0,0.0,0.0,0.0,0.0,0.0639,-0.9845,0.1205,0.7344,-0.5772,-0.2708,0.2326
1486,0.0,0.0,0.0,0.0,0.0,0.0,0.0552,-0.9806,0.1140,0.7339,-0.5781,-0.2706,0.2324
1487,0.0,0.0,0.0,0.0,0.0,0.0,0.0537,-0.9899,0.1158,0.7334,-0.5789,-0.2702,0.2323
1488,0.0,0.0,0.0,0.0,0.0,0.0,0.0556,-0.9967,0.1204,0.7331,-0.5794,-0.2699,0.2324
1489,0.0,0.0,0.0,0.0,0.0,0.0,0.0627,-1.0035,0.1274,0.7331,-0.5795,-0.2696,0.2326
1490,0.0,0.0,0.0,0.0,0.0,0.0,0.0676,-0.9928,0.1275,0.7333,-0.5793,-0.2693,0.2328
1491,0.0,0.0,0.0,0.0,0.0,0.0,0.0616,-0.9583,0.1124,0.7333,-0.5793,-0.2691,0.2330
1492,0.0,0.0,0.0,0.0,0.0,0.0,0.0634,-0.9807,0.1191,0.7332,-0.5793,-0.2690,0.2332
1493,0.0,0.0,0.0,0.0,0.0,0.0,0.0656,-1.0049,0.1287,0.7334,-0.5791,-0.2687,0.2335
1494,0.0,0.0,0.0,0.0,0.0,0.0,0.0691,-0.9952,0.1255,0.7337,-0.5788,-0.2685,0.2336
1495,0.0,0.0,0.0,0.0,0.0,0.0,0.0658,-0.9855,0.1204,0.7342,-0.5783,-0.2682,0.2338
1496,0.0,0.0,0.0,0.0,0.0,0.0,0.0641,-0.9496,0.1101,0.7345,-0.5779,-0.2680,0.2338
1497,0.0,0.0,0.0,0.0,0.0,0.0,0.0670,-0.8977,0.0951,0.7344,-0.5779,-0.2685,0.2337
1498,0.0,0.0,0.0,0.0,0.0,0.0,0.0657,-0.9443,0.1072,0.7338,-0.5785,-0.2690,0.2335
1499,0.0,0.0,0.0,0.0,0.0,0.0,0.0522,-1.0025,0.1194,0.7333,-0.5792,-0.2689,0.2335
1500,0.0,0.0,0.0,0.0,0.0,0.0,0.0640,-0.9816,0.1119,0.7331,-0.5794,-0.2692,0.2332
1501,0.0,0.0,0.0,0.0,0.0,0.0,0.0646,-0.9787,0.1109,0.7330,-0.5796,-0.2695,0.2327
1502,0.0,0.0,0.0,0.0,0.0,0.0,0.0683,-0.9889,0.1174,0.7332,-0.5795,-0.2698,0.2322
1503,0.0,0.0,0.0,0.0,0.0,0.0,0.0794,-1.0001,0.1223,0.7338,-0.5786,-0.2706,0.2314
1504,0.0,0.0,0.0,0.0,0.0,0.0,0.0703,-0.9782,0.1166,0.7345,-0.5778,-0.2711,0.2307
1505,0.0,0.0,0.0,0.0,0.0,0.0,0.0689,-0.9676,0.1120,0.7349,-0.5773,-0.2712,0.2305
1506,0.0,0.0,0.0,0.0,0.0,0.0,0.0699,-0.9588,0.1131,0.7351,-0.5770,-0.2712,0.2305
1507,0.0,0.0,0.0,0.0,0.0,0.0,0.0636,-0.9530,0.1105,0.7350,-0.5772,-0.2711,0.2305
1508,0.0,0.0,0.0,0.0,0.0,0.0,0.0705,-0.9467,0.1085,0.7346,-0.5776,-0.2712,0.2306
1509,0.0,0.0,0.0,0.0,0.0,0.0,0.0734,-0.9559,0.1098,0.7340,-0.5782,-0.2715,0.2307
1510,0.0,0.0,0.0,0.0,0.0,0.0,0.0715,-0.9579,0.1078,0.7332,-0.5791,-0.2718,0.2307
1511,0.0,0.0,0.0,0.0,0.0,0.0,0.0714,-0.9753,0.1104,0.7324,-0.5800,-0.2720,0.2307
1512,0.0,0.0,0.0,0.0,0.0,0.0,0.0702,-1.0093,0.1165,0.7317,-0.5809,-0.2720,0.2306
1513,0.0,0.0,0.0,0.0,0.0,0.0,0.0790,-1.0183,-0.0089,0.7291,-0.5834,-0.2734,0.2308
1514,0.0,0.0,0.0,0.0,0.0,0.0,0.0707,-0.9690,0.0955,0.7288,-0.5839,-0.2731,0.2308
1515,0.0,0.0,0.0,0.0,0.0,0.0,0.0714,-0.9379,0.0865,0.7282,-0.5847,-0.2732,0.2309
1516,0.0,0.0,0.0,0.0,0.0,0.0,0.0724,-1.0112,0.1039,0.7275,-0.5856,-0.2728,0.2310
1517,0.0,0.0,0.0,0.0,0.0,0.0,0.0680,-1.0243,0.1066,0.7273,-0.5862,-0.2720,0.2311
1518,0.0,0.0,0.0,0.0,0.0,0.0,0.0623,-0.9894,0.1006,0.7274,-0.5865,-0.2710,0.2313
1519,0.0,0.0,0.0,0.0,0.0,0.0,0.0585,-0.9675,0.0997,0.7275,-0.5868,-0.2699,0.2315
1520,0.0,0.0,0.0,0.0,0.0,0.0,0.0570,-0.9481,0.0991,0.7274,-0.5872,-0.2690,0.2317
1521,0.0,0.0,0.0,0.0,0.0,0.0,0.0517,-0.9438,0.0964,0.7271,-0.5879,-0.2681,0.2320
1522,0.0,0.0,0.0,0.0,0.0,0.0,0.0460,-0.9530,0.0910,0.7264,-0.5889,-0.2675,0.2322
1523,0.0,0.0,0.0,0.0,0.0,0.0,0.0425,-0.9743,0.0907,0.7257,-0.5900,-0.2669,0.2324
1524,0.0,0.0,0.0,0.0,0.0,0.0,0.0426,-0.9811,0.0891,0.7250,-0.5910,-0.2665,0.2325
1525,0.0,0.0,0.0,0.0,0.0,0.0,0.0416,-0.9903,0.0880,0.7244,-0.5919,-0.2663,0.2326
1526,0.0,0.0,0.0,0.0,0.0,0.0,0.0396,-0.9986,0.0883,0.7240,-0.5925,-0.2660,0.2325
1527,0.0,0.0,0.0,0.0,0.0,0.0,0.0407,-0.9898,0.0832,0.7237,-0.5930,-0.2658,0.2323
1528,0.0,0.0,0.0,0.0,0.0,0.0,0.0427,-0.9874,0.0808,0.7235,-0.5934,-0.2658,0.2320
1529,0.0,0.0,0.0,0.0,0.0,0.0,0.0422,-0.9884,0.0808,0.7233,-0.5936,-0.2659,0.2316
1530,0.0,0.0,0.0,0.0,0.0,0.0,0.0422,-0.9918,0.0831,0.7233,-0.5938,-0.2659,0.2314
1531,0.0,0.0,0.0,0.0,0.0,0.0,0.0441,-0.9918,0.0860,0.7234,-0.5937,-0.2659,0.2311
1532,0.0,0.0,0.0,0.0,0.0,0.0,0.0465,-0.9869,0.0870,0.7236,-0.5935,-0.2659,0.2310
1533,0.0,0.0,0.0,0.0,0.0,0.0,0.0425,-0.9850,0.0900,0.7239,-0.5932,-0.2658,0.2311
1534,0.0,0.0,0.0,0.0,0.0,0.0,0.0459,-0.9782,0.0910,0.7241,-0.5929,-0.2657,0.2313
1535,0.0,0.0,0.0,0.0,0.0,0.0,0.0493,-0.9767,0.0920,0.7244,-0.5925,-0.2657,0.2315
1536,0.0,0.0,0.0,0.0,0.0,0.0,0.0469,-0.9719,0.0897,0.7245,-0.5923,-0.2658,0.2317
1537,0.0,0.0,0.0,0.0,0.0,0.0,0.0498,-0.9816,0.0938,0.7246,-0.5921,-0.2658,0.2321
1538,0.0,0.0,0.0,0.0,0.0,0.0,0.0486,-0.9991,0.1031,0.7249,-0.5916,-0.2656,0.2324
1539,0.0,0.0,0.0,0.0,0.0,0.0,0.0531,-0.9792,0.0986,0.7253,-0.5911,-0.2656,0.2326
1540,0.0,0.0,0.0,0.0,0.0,0.0,0.0512,-0.9738,0.0963,0.7255,-0.5907,-0.2655,0.2328
1541,0.0,0.0,0.0,0.0,0.0,0.0,0.0506,-0.9845,0.1005,0.7259,-0.5903,-0.2654,0.2329
1542,0.0,0.0,0.0,0.0,0.0,0.0,0.0497,-0.9680,0.0984,0.7262,-0.5899,-0.2652,0.2331
1543,0.0,0.0,0.0,0.0,0.0,0.0,0.0483,-0.9651,0.0970,0.7265,-0.5896,-0.2650,0.2332
1544,0.0,0.0,0.0,0.0,0.0,0.0,0.0458,-0.9700,0.0980,0.7266,-0.5895,-0.2648,0.2333
1545,0.0,0.0,0.0,0.0,0.0,0.0,0.0463,-0.9714,0.0989,0.7268,-0.5893,-0.2647,0.2333
1546,0.0,0.0,0.0,0.0,0.0,0.0,0.0448,-0.9709,0.0975,0.7269,-0.5892,-0.2647,0.2333
1547,0.0,0.0,0.0,0.0,0.0,0.0,0.0424,-0.9680,0.0966,0.7269,-0.5892,-0.2647,0.2332
1548,0.0,0.0,0.0,0.0,0.0,0.0,0.0449,-0.9670,0.0971,0.7269,-0.5892,-0.2649,0.2331
1549,0.0,0.0,0.0,0.0,0.0,0.0,0.0448,-0.9797,0.1012,0.7269,-0.5891,-0.2650,0.2330
1550,0.0,0.0,0.0,0.0,0.0,0.0,0.0481,-0.9913,0.1052,0.7270,-0.5889,-0.2652,0.2330
1551,0.0,0.0,0.0,0.0,0.0,0.0,0.0525,-0.9865,0.1033,0.7272,-0.5886,-0.2654,0.2329
1552,0.0,0.0,0.0,0.0,0.0,0.0,0.0512,-0.9646,0.0965,0.7273,-0.5883,-0.2657,0.2331
1553,0.0,0.0,0.0,0.0,0.0,0.0,0.0513,-0.9530,0.0938,0.7272,-0.5883,-0.2660,0.2331
1554,0.0,0.0,0.0,0.0,0.0,0.0,0.0516,-0.9792,0.0986,0.7269,-0.5884,-0.2664,0.2332
1555,0.0,0.0,0.0,0.0,0.0,0.0,0.0496,-0.9957,0.1017,0.7268,-0.5885,-0.2664,0.2333
1556,0.0,0.0,0.0,0.0,0.0,0.0,0.0517,-0.9758,0.0948,0.7267,-0.5885,-0.2665,0.2335
1557,0.0,0.0,0.0,0.0,0.0,0.0,0.0527,-0.9700,0.0925,0.7265,-0.5886,-0.2667,0.2338
1558,0.0,0.0,0.0,0.0,0.0,0.0,0.0513,-0.9714,0.0925,0.7262,-0.5888,-0.2669,0.2339
1559,0.0,0.0,0.0,0.0,0.0,0.0,0.0523,-0.9704,0.0920,0.7259,-0.5890,-0.2671,0.2341
1560,0.0,0.0,0.0,0.0,0.0,0.0,0.0527,-0.9816,0.0942,0.7257,-0.5892,-0.2673,0.2342
1561,0.0,0.0,0.0,0.0,0.0,0.0,0.0533,-0.9714,0.0896,0.7253,-0.5894,-0.2676,0.2343
1562,0.0,0.0,0.0,0.0,0.0,0.0,0.0542,-0.9855,0.0922,0.7251,-0.5896,-0.2679,0.2342
1563,0.0,0.0,0.0,0.0,0.0,0.0,0.0538,-0.9763,0.0890,0.7249,-0.5898,-0.2682,0.2340
1564,0.0,0.0,0.0,0.0,0.0,0.0,0.0567,-0.9690,0.0881,0.7247,-0.5900,-0.2686,0.2336
1565,0.0,0.0,0.0,0.0,0.0,0.0,0.0541,-0.9937,0.0959,0.7246,-0.5902,-0.2688,0.2332
1566,0.0,0.0,0.0,0.0,0.0,0.0,0.0521,-0.9937,0.0964,0.7246,-0.5902,-0.2690,0.2328
1567,0.0,0.0,0.0,0.0,0.0,0.0,0.0498,-0.9855,0.0942,0.7248,-0.5903,-0.2689,0.2324
1568,0.0,0.0,0.0,0.0,0.0,0.0,0.0469,-0.9806,0.0900,0.7248,-0.5903,-0.2688,0.2321
1569,0.0,0.0,0.0,0.0,0.0,0.0,0.0519,-0.9753,0.0852,0.7248,-0.5904,-0.2689,0.2319
1570,0.0,0.0,0.0,0.0,0.0,0.0,0.0446,-0.9811,0.0857,0.7247,-0.5906,-0.2688,0.2320
1571,0.0,0.0,0.0,0.0,0.0,0.0,0.0610,-0.9957,0.0904,0.7247,-0.5905,-0.2689,0.2321
1572,0.0,0.0,0.0,0.0,0.0,0.0,0.0617,-0.9665,0.0818,0.7247,-0.5904,-0.2692,0.2320
1573,0.0,0.0,0.0,0.0,0.0,0.0,0.0597,-0.9792,0.0830,0.7245,-0.5905,-0.2694,0.2320
1574,0.0,0.0,0.0,0.0,0.0,0.0,0.0655,-0.9845,0.0871,0.7244,-0.5905,-0.2695,0.2321
1575,0.0,0.0,0.0,0.0,0.0,0.0,0.0626,-0.9777,0.0868,0.7244,-0.5906,-0.2694,0.2320
1576,0.0,0.0,0.0,0.0,0.0,0.0,0.0587,-0.9733,0.0856,0.7244,-0.5907,-0.2693,0.2319
1577,0.0,0.0,0.0,0.0,0.0,0.0,0.0573,-0.9714,0.0856,0.7243,-0.5910,-0.2691,0.2318
1578,0.0,0.0,0.0,0.0,0.0,0.0,0.0539,-0.9656,0.0839,0.7242,-0.5913,-0.2689,0.2316
1579,0.0,0.0,0.0,0.0,0.0,0.0,0.0476,-0.9598,0.0817,0.7239,-0.5918,-0.2686,0.2314
