,Position_X,Position_Y,Position_Z,Velocity_X,Velocity_Y,Velocity_Z,Acceleration_X,Acceleration_Y,Acceleration_Z,Quaterion_0,Quaterion_1,Quaterion_2,Quaterion_3
90,0.0,0.0,0.0,0.0,0.0,0.0,0.0450,-0.9665,0.2586,0.8108,-0.5787,-0.0643,0.0599
91,0.0,0.0,0.0,0.0,0.0,0.0,0.0533,-0.9665,0.2586,0.8110,-0.5784,-0.0644,0.0604
92,0.0,0.0,0.0,0.0,0.0,0.0,0.0557,-0.9665,0.2571,0.8110,-0.5783,-0.0646,0.0610
93,0.0,0.0,0.0,0.0,0.0,0.0,0.0562,-0.9680,0.2537,0.8109,-0.5782,-0.0648,0.0616
94,0.0,0.0,0.0,0.0,0.0,0.0,0.0557,-0.9651,0.2512,0.8110,-0.5781,-0.0650,0.0621
95,0.0,0.0,0.0,0.0,0.0,0.0,0.0591,-0.9494,0.2381,0.8109,-0.5781,-0.0655,0.0626
96,0.0,0.0,0.0,0.0,0.0,0.0,0.0669,-0.9382,0.2273,0.8102,-0.5789,-0.0669,0.0628
97,0.0,0.0,0.0,0.0,0.0,0.0,0.0714,-0.9948,0.2508,0.8098,-0.5794,-0.0682,0.0629
98,0.0,0.0,0.0,0.0,0.0,0.0,0.0734,-0.9782,0.2425,0.8094,-0.5798,-0.0692,0.0629
99,0.0,0.0,0.0,0.0,0.0,0.0,0.0611,-0.9968,0.2473,0.8091,-0.5800,-0.0696,0.0633
100,0.0,0.0,0.0,0.0,0.0,0.0,0.0602,-0.9958,0.2508,0.8093,-0.5798,-0.0696,0.0639
101,0.0,0.0,0.0,0.0,0.0,0.0,0.0557,-0.9851,0.2488,0.8096,-0.5793,-0.0693,0.0646
102,0.0,0.0,0.0,0.0,0.0,0.0,0.0562,-0.9792,0.2498,0.8097,-0.5791,-0.0693,0.0654
103,0.0,0.0,0.0,0.0,0.0,0.0,0.0675,-0.9778,0.2552,0.8101,-0.5783,-0.0694,0.0662
104,0.0,0.0,0.0,0.0,0.0,0.0,0.0636,-0.9763,0.2581,0.8107,-0.5775,-0.0693,0.0668
105,0.0,0.0,0.0,0.0,0.0,0.0,0.0611,-0.9719,0.2620,0.8111,-0.5769,-0.0691,0.0673
106,0.0,0.0,0.0,0.0,0.0,0.0,0.0611,-0.9670,0.2630,0.8117,-0.5760,-0.0688,0.0678
107,0.0,0.0,0.0,0.0,0.0,0.0,0.0597,-0.9612,0.2644,0.8125,-0.5749,-0.0685,0.0683
108,0.0,0.0,0.0,0.0,0.0,0.0,0.0601,-0.9563,0.2669,0.8131,-0.5740,-0.0683,0.0687
109,0.0,0.0,0.0,0.0,0.0,0.0,0.0606,-0.9553,0.2684,0.8136,-0.5733,-0.0684,0.0690
110,0.0,0.0,0.0,0.0,0.0,0.0,0.0601,-0.9549,0.2693,0.8141,-0.5725,-0.0683,0.0692
111,0.0,0.0,0.0,0.0,0.0,0.0,0.0621,-0.9549,0.2688,0.8146,-0.5718,-0.0684,0.0693
112,0.0,0.0,0.0,0.0,0.0,0.0,0.0631,-0.9534,0.2693,0.8148,-0.5715,-0.0687,0.0694
113,0.0,0.0,0.0,0.0,0.0,0.0,0.0636,-0.9568,0.2698,0.8149,-0.5712,-0.0689,0.0694
114,0.0,0.0,0.0,0.0,0.0,0.0,0.0641,-0.9602,0.2713,0.8151,-0.5710,-0.0690,0.0694
115,0.0,0.0,0.0,0.0,0.0,0.0,0.0655,-0.9627,0.2723,0.8152,-0.5708,-0.0692,0.0695
116,0.0,0.0,0.0,0.0,0.0,0.0,0.0655,-0.9627,0.2708,0.8151,-0.5709,-0.0695,0.0694
117,0.0,0.0,0.0,0.0,0.0,0.0,0.0665,-0.9641,0.2698,0.8152,-0.5707,-0.0696,0.0692
118,0.0,0.0,0.0,0.0,0.0,0.0,0.0651,-0.9680,0.2693,0.8152,-0.5708,-0.0697,0.0691
119,0.0,0.0,0.0,0.0,0.0,0.0,0.0621,-0.9685,0.2688,0.8151,-0.5710,-0.0698,0.0689
120,0.0,0.0,0.0,0.0,0.0,0.0,0.0592,-0.9680,0.2679,0.8152,-0.5709,-0.0695,0.0688
121,0.0,0.0,0.0,0.0,0.0,0.0,0.0577,-0.9661,0.2659,0.8153,-0.5707,-0.0691,0.0687
122,0.0,0.0,0.0,0.0,0.0,0.0,0.0548,-0.9612,0.2615,0.8152,-0.5709,-0.0689,0.0684
123,0.0,0.0,0.0,0.0,0.0,0.0,0.0532,-0.9392,0.2459,0.8150,-0.5713,-0.0688,0.0682
124,0.0,0.0,0.0,0.0,0.0,0.0,0.0567,-0.9285,0.2341,0.8144,-0.5721,-0.0695,0.0679
125,0.0,0.0,0.0,0.0,0.0,0.0,0.0607,-0.9934,0.2605,0.8138,-0.5728,-0.0705,0.0678
126,0.0,0.0,0.0,0.0,0.0,0.0,0.0655,-0.9719,0.2508,0.8132,-0.5737,-0.0716,0.0674
127,0.0,0.0,0.0,0.0,0.0,0.0,0.0513,-0.9826,0.2537,0.8124,-0.5746,-0.0722,0.0675
128,0.0,0.0,0.0,0.0,0.0,0.0,0.0582,-0.9861,0.2547,0.8120,-0.5751,-0.0726,0.0679
129,0.0,0.0,0.0,0.0,0.0,0.0,0.0606,-0.9714,0.2498,0.8116,-0.5756,-0.0732,0.0683
130,0.0,0.0,0.0,0.0,0.0,0.0,0.0675,-0.9734,0.2503,0.8113,-0.5759,-0.0740,0.0688
131,0.0,0.0,0.0,0.0,0.0,0.0,0.0685,-0.9836,0.2552,0.8110,-0.5761,-0.0746,0.0692
132,0.0,0.0,0.0,0.0,0.0,0.0,0.0675,-0.9846,0.2586,0.8109,-0.5761,-0.0750,0.0697
133,0.0,0.0,0.0,0.0,0.0,0.0,0.0690,-0.9836,0.2615,0.8111,-0.5759,-0.0753,0.0701
134,0.0,0.0,0.0,0.0,0.0,0.0,0.0685,-0.9773,0.2645,0.8115,-0.5751,-0.0753,0.0706
135,0.0,0.0,0.0,0.0,0.0,0.0,0.0675,-0.9719,0.2674,0.8122,-0.5741,-0.0751,0.0710
136,0.0,0.0,0.0,0.0,0.0,0.0,0.0665,-0.9661,0.2679,0.8130,-0.5730,-0.0750,0.0716
137,0.0,0.0,0.0,0.0,0.0,0.0,0.0670,-0.9588,0.2684,0.8136,-0.5721,-0.0751,0.0718
138,0.0,0.0,0.0,0.0,0.0,0.0,0.0670,-0.9558,0.2713,0.8141,-0.5713,-0.0751,0.0719
139,0.0,0.0,0.0,0.0,0.0,0.0,0.0675,-0.9558,0.2713,0.8147,-0.5705,-0.0752,0.0721
140,0.0,0.0,0.0,0.0,0.0,0.0,0.0665,-0.9534,0.2728,0.8150,-0.5700,-0.0754,0.0722
141,0.0,0.0,0.0,0.0,0.0,0.0,0.0695,-0.9593,0.2762,0.8151,-0.5697,-0.0757,0.0723
142,0.0,0.0,0.0,0.0,0.0,0.0,0.0670,-0.9583,0.2757,0.8153,-0.5694,-0.0760,0.0722
143,0.0,0.0,0.0,0.0,0.0,0.0,0.0700,-0.9573,0.2747,0.8155,-0.5691,-0.0762,0.0723
144,0.0,0.0,0.0,0.0,0.0,0.0,0.0704,-0.9593,0.2762,0.8157,-0.5688,-0.0763,0.0725
145,0.0,0.0,0.0,0.0,0.0,0.0,0.0690,-0.9637,0.2733,0.8157,-0.5688,-0.0764,0.0726
146,0.0,0.0,0.0,0.0,0.0,0.0,0.0670,-0.9671,0.2718,0.8158,-0.5687,-0.0762,0.0729
147,0.0,0.0,0.0,0.0,0.0,0.0,0.0660,-0.9685,0.2718,0.8158,-0.5686,-0.0759,0.0732
148,0.0,0.0,0.0,0.0,0.0,0.0,0.0631,-0.9661,0.2684,0.8158,-0.5687,-0.0756,0.0734
149,0.0,0.0,0.0,0.0,0.0,0.0,0.0606,-0.9592,0.2649,0.8161,-0.5683,-0.0751,0.0736
150,0.0,0.0,0.0,0.0,0.0,0.0,0.0596,-0.9465,0.2537,0.8160,-0.5684,-0.0748,0.0739
151,0.0,0.0,0.0,0.0,0.0,0.0,0.0620,-0.8933,0.2249,0.8153,-0.5694,-0.0756,0.0740
152,0.0,0.0,0.0,0.0,0.0,0.0,0.0895,-0.9841,0.2630,0.8146,-0.5701,-0.0775,0.0739
153,0.0,0.0,0.0,0.0,0.0,0.0,0.0866,-0.9514,0.2464,0.8138,-0.5711,-0.0790,0.0735
154,0.0,0.0,0.0,0.0,0.0,0.0,0.0690,-0.9768,0.2537,0.8129,-0.5722,-0.0800,0.0733
155,0.0,0.0,0.0,0.0,0.0,0.0,0.0665,-0.9948,0.2606,0.8121,-0.5733,-0.0806,0.0734
156,0.0,0.0,0.0,0.0,0.0,0.0,0.0543,-0.9763,0.2459,0.8114,-0.5742,-0.0806,0.0736
157,0.0,0.0,0.0,0.0,0.0,0.0,0.0645,-0.9729,0.2415,0.8107,-0.5750,-0.0809,0.0739
158,0.0,0.0,0.0,0.0,0.0,0.0,0.0670,-0.9846,0.2454,0.8102,-0.5757,-0.0811,0.0745
159,0.0,0.0,0.0,0.0,0.0,0.0,0.0611,-0.9856,0.2459,0.8098,-0.5762,-0.0810,0.0752
160,0.0,0.0,0.0,0.0,0.0,0.0,0.0572,-0.9895,0.2488,0.8094,-0.5767,-0.0806,0.0758
161,0.0,0.0,0.0,0.0,0.0,0.0,0.0509,-0.9895,0.2512,0.8093,-0.5769,-0.0797,0.0766
162,0.0,0.0,0.0,0.0,0.0,0.0,0.0445,-0.9875,0.2551,0.8094,-0.5768,-0.0788,0.0776
163,0.0,0.0,0.0,0.0,0.0,0.0,0.0435,-0.9807,0.2551,0.8095,-0.5766,-0.0779,0.0786
164,0.0,0.0,0.0,0.0,0.0,0.0,0.0435,-0.9690,0.2537,0.8097,-0.5763,-0.0772,0.0797
165,0.0,0.0,0.0,0.0,0.0,0.0,0.0430,-0.9573,0.2527,0.8098,-0.5760,-0.0768,0.0808
166,0.0,0.0,0.0,0.0,0.0,0.0,0.0459,-0.9607,0.2581,0.8100,-0.5756,-0.0768,0.0818
167,0.0,0.0,0.0,0.0,0.0,0.0,0.0509,-0.9665,0.2630,0.8103,-0.5749,-0.0769,0.0829
168,0.0,0.0,0.0,0.0,0.0,0.0,0.0597,-0.9622,0.2620,0.8105,-0.5745,-0.0775,0.0839
169,0.0,0.0,0.0,0.0,0.0,0.0,0.0670,-0.9534,0.2576,0.8105,-0.5742,-0.0785,0.0847
170,0.0,0.0,0.0,0.0,0.0,0.0,0.0714,-0.9446,0.2532,0.8105,-0.5740,-0.0795,0.0852
171,0.0,0.0,0.0,0.0,0.0,0.0,0.0729,-0.9480,0.2522,0.8102,-0.5742,-0.0807,0.0855
172,0.0,0.0,0.0,0.0,0.0,0.0,0.0689,-0.9568,0.2513,0.8098,-0.5746,-0.0819,0.0856
173,0.0,0.0,0.0,0.0,0.0,0.0,0.0714,-0.9646,0.2513,0.8092,-0.5753,-0.0832,0.0856
174,0.0,0.0,0.0,0.0,0.0,0.0,0.0704,-0.9739,0.2527,0.8087,-0.5758,-0.0842,0.0855
175,0.0,0.0,0.0,0.0,0.0,0.0,0.0700,-0.9831,0.2557,0.8085,-0.5761,-0.0849,0.0854
176,0.0,0.0,0.0,0.0,0.0,0.0,0.0714,-0.9783,0.2508,0.8083,-0.5763,-0.0855,0.0852
177,0.0,0.0,0.0,0.0,0.0,0.0,0.0709,-0.9670,0.2434,0.8078,-0.5769,-0.0862,0.0848
178,0.0,0.0,0.0,0.0,0.0,0.0,0.0694,-0.9660,0.2415,0.8073,-0.5775,-0.0869,0.0845
179,0.0,0.0,0.0,0.0,0.0,0.0,0.0675,-0.9670,0.2390,0.8067,-0.5783,-0.0874,0.0841
180,0.0,0.0,0.0,0.0,0.0,0.0,0.0626,-0.9729,0.2415,0.8062,-0.5790,-0.0877,0.0837
181,0.0,0.0,0.0,0.0,0.0,0.0,0.0557,-0.9787,0.2420,0.8058,-0.5797,-0.0876,0.0834
182,0.0,0.0,0.0,0.0,0.0,0.0,0.0538,-0.9816,0.2415,0.8055,-0.5802,-0.0875,0.0832
183,0.0,0.0,0.0,0.0,0.0,0.0,0.0518,-0.9704,0.2366,0.8051,-0.5807,-0.0875,0.0830
184,0.0,0.0,0.0,0.0,0.0,0.0,0.0528,-0.9704,0.2376,0.8047,-0.5812,-0.0877,0.0829
185,0.0,0.0,0.0,0.0,0.0,0.0,0.0484,-0.9811,0.2449,0.8044,-0.5816,-0.0878,0.0833
186,0.0,0.0,0.0,0.0,0.0,0.0,0.0469,-0.9880,0.2463,0.8043,-0.5817,-0.0875,0.0839
187,0.0,0.0,0.0,0.0,0.0,0.0,0.0464,-0.9924,0.2459,0.8043,-0.5817,-0.0874,0.0847
188,0.0,0.0,0.0,0.0,0.0,0.0,0.0459,-0.9831,0.2395,0.8041,-0.5818,-0.0871,0.0859
189,0.0,0.0,0.0,0.0,0.0,0.0,0.0626,-0.9836,0.2381,0.8041,-0.5815,-0.0873,0.0873
190,0.0,0.0,0.0,0.0,0.0,0.0,0.0655,-0.9875,0.2405,0.8041,-0.5813,-0.0876,0.0886
191,0.0,0.0,0.0,0.0,0.0,0.0,0.0675,-0.9851,0.2390,0.8042,-0.5810,-0.0878,0.0898
192,0.0,0.0,0.0,0.0,0.0,0.0,0.0630,-0.9621,0.2312,0.8043,-0.5807,-0.0877,0.0909
193,0.0,0.0,0.0,0.0,0.0,0.0,0.0577,-0.9660,0.2307,0.8044,-0.5805,-0.0874,0.0917
194,0.0,0.0,0.0,0.0,0.0,0.0,0.0528,-0.9645,0.2302,0.8045,-0.5802,-0.0870,0.0923
195,0.0,0.0,0.0,0.0,0.0,0.0,0.0440,-0.9694,0.2302,0.8045,-0.5802,-0.0867,0.0928
196,0.0,0.0,0.0,0.0,0.0,0.0,0.0391,-0.9782,0.2351,0.8044,-0.5803,-0.0865,0.0934
197,0.0,0.0,0.0,0.0,0.0,0.0,0.0410,-0.9758,0.2317,0.8044,-0.5803,-0.0864,0.0937
198,0.0,0.0,0.0,0.0,0.0,0.0,0.0449,-0.9572,0.2234,0.8043,-0.5802,-0.0867,0.0939
199,0.0,0.0,0.0,0.0,0.0,0.0,0.0503,-0.9738,0.2288,0.8041,-0.5805,-0.0875,0.0943
200,0.0,0.0,0.0,0.0,0.0,0.0,0.0542,-0.9714,0.2288,0.8038,-0.5806,-0.0883,0.0946
201,0.0,0.0,0.0,0.0,0.0,0.0,0.0601,-0.9626,0.2234,0.8036,-0.5807,-0.0893,0.0947
202,0.0,0.0,0.0,0.0,0.0,0.0,0.0655,-0.9767,0.2268,0.8034,-0.5810,-0.0902,0.0947
203,0.0,0.0,0.0,0.0,0.0,0.0,0.0665,-0.9787,0.2283,0.8031,-0.5812,-0.0909,0.0946
204,0.0,0.0,0.0,0.0,0.0,0.0,0.0655,-0.9797,0.2263,0.8028,-0.5816,-0.0915,0.0944
205,0.0,0.0,0.0,0.0,0.0,0.0,0.0655,-0.9836,0.2273,0.8025,-0.5820,-0.0920,0.0942
206,0.0,0.0,0.0,0.0,0.0,0.0,0.0631,-0.9850,0.2307,0.8022,-0.5823,-0.0923,0.0939
207,0.0,0.0,0.0,0.0,0.0,0.0,0.0626,-0.9909,0.2346,0.8021,-0.5825,-0.0925,0.0937
208,0.0,0.0,0.0,0.0,0.0,0.0,0.0562,-0.9865,0.2341,0.8022,-0.5824,-0.0924,0.0935
209,0.0,0.0,0.0,0.0,0.0,0.0,0.0562,-0.9899,0.2400,0.8027,-0.5817,-0.0925,0.0937
210,0.0,0.0,0.0,0.0,0.0,0.0,0.0611,-0.9997,0.2478,0.8034,-0.5807,-0.0924,0.0938
211,0.0,0.0,0.0,0.0,0.0,0.0,0.0616,-0.9797,0.2444,0.8042,-0.5797,-0.0921,0.0939
212,0.0,0.0,0.0,0.0,0.0,0.0,0.0645,-0.9665,0.2415,0.8049,-0.5787,-0.0918,0.0940
213,0.0,0.0,0.0,0.0,0.0,0.0,0.0670,-0.9577,0.2395,0.8054,-0.5780,-0.0915,0.0940
214,0.0,0.0,0.0,0.0,0.0,0.0,0.0689,-0.9553,0.2400,0.8056,-0.5778,-0.0914,0.0937
215,0.0,0.0,0.0,0.0,0.0,0.0,0.0704,-0.9592,0.2420,0.8057,-0.5778,-0.0913,0.0932
216,0.0,0.0,0.0,0.0,0.0,0.0,0.0728,-0.9543,0.2400,0.8058,-0.5778,-0.0912,0.0927
217,0.0,0.0,0.0,0.0,0.0,0.0,0.0645,-0.9494,0.2356,0.8056,-0.5781,-0.0909,0.0922
218,0.0,0.0,0.0,0.0,0.0,0.0,0.0611,-0.9626,0.2366,0.8052,-0.5788,-0.0908,0.0917
219,0.0,0.0,0.0,0.0,0.0,0.0,0.0640,-0.9748,0.2390,0.8048,-0.5795,-0.0908,0.0910
220,0.0,0.0,0.0,0.0,0.0,0.0,0.0640,-0.9694,0.2366,0.8045,-0.5799,-0.0908,0.0904
221,0.0,0.0,0.0,0.0,0.0,0.0,0.0636,-0.9753,0.2356,0.8044,-0.5803,-0.0909,0.0897
222,0.0,0.0,0.0,0.0,0.0,0.0,0.0670,-0.9777,0.2342,0.8040,-0.5808,-0.0910,0.0890
223,0.0,0.0,0.0,0.0,0.0,0.0,0.0714,-0.9841,0.2376,0.8037,-0.5813,-0.0913,0.0883
224,0.0,0.0,0.0,0.0,0.0,0.0,0.0699,-0.9860,0.2381,0.8036,-0.5816,-0.0914,0.0877
225,0.0,0.0,0.0,0.0,0.0,0.0,0.0655,-0.9821,0.2361,0.8036,-0.5817,-0.0911,0.0872
226,0.0,0.0,0.0,0.0,0.0,0.0,0.0665,-0.9812,0.2381,0.8038,-0.5815,-0.0907,0.0868
227,0.0,0.0,0.0,0.0,0.0,0.0,0.0660,-0.9836,0.2400,0.8040,-0.5814,-0.0903,0.0863
228,0.0,0.0,0.0,0.0,0.0,0.0,0.0675,-0.9748,0.2381,0.8041,-0.5814,-0.0898,0.0858
229,0.0,0.0,0.0,0.0,0.0,0.0,0.0645,-0.9651,0.2332,0.8040,-0.5816,-0.0894,0.0854
230,0.0,0.0,0.0,0.0,0.0,0.0,0.0640,-0.9680,0.2337,0.8038,-0.5821,-0.0891,0.0849
231,0.0,0.0,0.0,0.0,0.0,0.0,0.0596,-0.9690,0.2346,0.8036,-0.5824,-0.0887,0.0845
232,0.0,0.0,0.0,0.0,0.0,0.0,0.0562,-0.9685,0.2332,0.8033,-0.5830,-0.0883,0.0841
233,0.0,0.0,0.0,0.0,0.0,0.0,0.0552,-0.9689,0.2327,0.8030,-0.5835,-0.0880,0.0837
234,0.0,0.0,0.0,0.0,0.0,0.0,0.0479,-0.9714,0.2317,0.8028,-0.5838,-0.0872,0.0834
235,0.0,0.0,0.0,0.0,0.0,0.0,0.0513,-0.9709,0.2297,0.8026,-0.5842,-0.0868,0.0834
236,0.0,0.0,0.0,0.0,0.0,0.0,0.0464,-0.9728,0.2297,0.8023,-0.5847,-0.0863,0.0834
237,0.0,0.0,0.0,0.0,0.0,0.0,0.0459,-0.9782,0.2312,0.8019,-0.5853,-0.0860,0.0835
238,0.0,0.0,0.0,0.0,0.0,0.0,0.0464,-0.9811,0.2322,0.8016,-0.5857,-0.0858,0.0836
239,0.0,0.0,0.0,0.0,0.0,0.0,0.0469,-0.9816,0.2336,0.8015,-0.5859,-0.0856,0.0839
240,0.0,0.0,0.0,0.0,0.0,0.0,0.0464,-0.9806,0.2331,0.8014,-0.5860,-0.0852,0.0843
241,0.0,0.0,0.0,0.0,0.0,0.0,0.0454,-0.9802,0.2331,0.8015,-0.5859,-0.0849,0.0846
242,0.0,0.0,0.0,0.0,0.0,0.0,0.0474,-0.9772,0.2331,0.8016,-0.5858,-0.0847,0.0849
243,0.0,0.0,0.0,0.0,0.0,0.0,0.0474,-0.9767,0.2322,0.8018,-0.5855,-0.0845,0.0851
244,0.0,0.0,0.0,0.0,0.0,0.0,0.0498,-0.9699,0.2292,0.8019,-0.5853,-0.0844,0.0852
245,0.0,0.0,0.0,0.0,0.0,0.0,0.0527,-0.9460,0.2224,0.8017,-0.5854,-0.0849,0.0851
246,0.0,0.0,0.0,0.0,0.0,0.0,0.0479,-0.9602,0.2287,0.8015,-0.5858,-0.0856,0.0849
247,0.0,0.0,0.0,0.0,0.0,0.0,0.0469,-0.9909,0.2410,0.8013,-0.5859,-0.0861,0.0848
248,0.0,0.0,0.0,0.0,0.0,0.0,0.0498,-0.9723,0.2278,0.8012,-0.5860,-0.0866,0.0849
249,0.0,0.0,0.0,0.0,0.0,0.0,0.0626,-0.9787,0.2263,0.8010,-0.5861,-0.0876,0.0850
250,0.0,0.0,0.0,0.0,0.0,0.0,0.0680,-0.9919,0.2312,0.8010,-0.5860,-0.0885,0.0853
251,0.0,0.0,0.0,0.0,0.0,0.0,0.0694,-0.9865,0.2303,0.8010,-0.5857,-0.0893,0.0857
252,0.0,0.0,0.0,0.0,0.0,0.0,0.0728,-0.9607,0.2215,0.8011,-0.5855,-0.0901,0.0860
253,0.0,0.0,0.0,0.0,0.0,0.0,0.0748,-0.9675,0.2220,0.8009,-0.5855,-0.0910,0.0864
254,0.0,0.0,0.0,0.0,0.0,0.0,0.0773,-0.9899,0.2298,0.8010,-0.5852,-0.0916,0.0869
255,0.0,0.0,0.0,0.0,0.0,0.0,0.0777,-0.9748,0.2215,0.8010,-0.5850,-0.0923,0.0874
256,0.0,0.0,0.0,0.0,0.0,0.0,0.0846,-0.9631,0.2166,0.8006,-0.5854,-0.0935,0.0875
257,0.0,0.0,0.0,0.0,0.0,0.0,0.0831,-0.9836,0.2239,0.8000,-0.5861,-0.0944,0.0874
258,0.0,0.0,0.0,0.0,0.0,0.0,0.0866,-0.9973,0.2278,0.7996,-0.5865,-0.0951,0.0871
259,0.0,0.0,0.0,0.0,0.0,0.0,0.0905,-0.9865,0.2225,0.7994,-0.5868,-0.0956,0.0867
260,0.0,0.0,0.0,0.0,0.0,0.0,0.0880,-0.9704,0.2156,0.7993,-0.5869,-0.0958,0.0861
261,0.0,0.0,0.0,0.0,0.0,0.0,0.0855,-0.9655,0.2107,0.7991,-0.5872,-0.0959,0.0858
262,0.0,0.0,0.0,0.0,0.0,0.0,0.0821,-0.9670,0.2102,0.7988,-0.5877,-0.0960,0.0854
263,0.0,0.0,0.0,0.0,0.0,0.0,0.0777,-0.9841,0.2146,0.7985,-0.5882,-0.0961,0.0850
264,0.0,0.0,0.0,0.0,0.0,0.0,0.0768,-1.0104,0.2254,0.7983,-0.5884,-0.0958,0.0849
265,0.0,0.0,0.0,0.0,0.0,0.0,0.0787,-0.9904,0.2166,0.7985,-0.5883,-0.0954,0.0848
266,0.0,0.0,0.0,0.0,0.0,0.0,0.0767,-0.9655,0.2029,0.7986,-0.5883,-0.0950,0.0846
267,0.0,0.0,0.0,0.0,0.0,0.0,0.0767,-0.9318,0.1912,0.7983,-0.5887,-0.0950,0.0845
268,0.0,0.0,0.0,0.0,0.0,0.0,0.0762,-0.9743,0.2058,0.7977,-0.5895,-0.0954,0.0844
269,0.0,0.0,0.0,0.0,0.0,0.0,0.0665,-1.0192,0.2171,0.7971,-0.5903,-0.0952,0.0843
270,0.0,0.0,0.0,0.0,0.0,0.0,0.0650,-0.9879,0.2087,0.7967,-0.5909,-0.0947,0.0844
271,0.0,0.0,0.0,0.0,0.0,0.0,0.0675,-0.9977,0.2190,0.7967,-0.5910,-0.0942,0.0846
272,0.0,0.0,0.0,0.0,0.0,0.0,0.0616,-0.9972,0.2224,0.7969,-0.5908,-0.0932,0.0846
273,0.0,0.0,0.0,0.0,0.0,0.0,0.0650,-0.9836,0.2214,0.7974,-0.5904,-0.0922,0.0847
274,0.0,0.0,0.0,0.0,0.0,0.0,0.0615,-0.9592,0.2092,0.7976,-0.5902,-0.0912,0.0848
275,0.0,0.0,0.0,0.0,0.0,0.0,0.0547,-0.9606,0.2087,0.7976,-0.5903,-0.0904,0.0849
276,0.0,0.0,0.0,0.0,0.0,0.0,0.0503,-0.9753,0.2146,0.7976,-0.5904,-0.0896,0.0848
277,0.0,0.0,0.0,0.0,0.0,0.0,0.0454,-0.9874,0.2195,0.7975,-0.5906,-0.0889,0.0847
278,0.0,0.0,0.0,0.0,0.0,0.0,0.0464,-0.9909,0.2204,0.7976,-0.5907,-0.0883,0.0846
279,0.0,0.0,0.0,0.0,0.0,0.0,0.0479,-0.9879,0.2185,0.7979,-0.5904,-0.0875,0.0847
280,0.0,0.0,0.0,0.0,0.0,0.0,0.0537,-0.9743,0.2136,0.7979,-0.5903,-0.0872,0.0850
281,0.0,0.0,0.0,0.0,0.0,0.0,0.0552,-0.9757,0.2136,0.7979,-0.5904,-0.0871,0.0851
282,0.0,0.0,0.0,0.0,0.0,0.0,0.0591,-0.9787,0.2136,0.7981,-0.5901,-0.0871,0.0852
283,0.0,0.0,0.0,0.0,0.0,0.0,0.0606,-0.9816,0.2141,0.7980,-0.5901,-0.0872,0.0853
284,0.0,0.0,0.0,0.0,0.0,0.0,0.0626,-0.9850,0.2136,0.7979,-0.5903,-0.0874,0.0854
285,0.0,0.0,0.0,0.0,0.0,0.0,0.0684,-0.9880,0.2136,0.7979,-0.5902,-0.0876,0.0854
286,0.0,0.0,0.0,0.0,0.0,0.0,0.0650,-0.9884,0.2131,0.7981,-0.5900,-0.0876,0.0853
287,0.0,0.0,0.0,0.0,0.0,0.0,0.0665,-0.9889,0.2131,0.7982,-0.5898,-0.0876,0.0852
288,0.0,0.0,0.0,0.0,0.0,0.0,0.0601,-0.9845,0.2131,0.7984,-0.5897,-0.0873,0.0852
289,0.0,0.0,0.0,0.0,0.0,0.0,0.0611,-0.9845,0.2136,0.7985,-0.5895,-0.0872,0.0853
290,0.0,0.0,0.0,0.0,0.0,0.0,0.0630,-0.9816,0.2141,0.7989,-0.5890,-0.0869,0.0853
291,0.0,0.0,0.0,0.0,0.0,0.0,0.0616,-0.9840,0.2180,0.7994,-0.5884,-0.0864,0.0854
292,0.0,0.0,0.0,0.0,0.0,0.0,0.0606,-0.9811,0.2205,0.7998,-0.5879,-0.0860,0.0855
293,0.0,0.0,0.0,0.0,0.0,0.0,0.0640,-0.9723,0.2185,0.8003,-0.5873,-0.0856,0.0856
294,0.0,0.0,0.0,0.0,0.0,0.0,0.0591,-0.9704,0.2195,0.8008,-0.5867,-0.0851,0.0855
295,0.0,0.0,0.0,0.0,0.0,0.0,0.0533,-0.9733,0.2239,0.8011,-0.5863,-0.0846,0.0853
296,0.0,0.0,0.0,0.0,0.0,0.0,0.0557,-0.9675,0.2229,0.8015,-0.5859,-0.0842,0.0852
297,0.0,0.0,0.0,0.0,0.0,0.0,0.0547,-0.9680,0.2239,0.8018,-0.5856,-0.0838,0.0852
298,0.0,0.0,0.0,0.0,0.0,0.0,0.0528,-0.9694,0.2263,0.8020,-0.5853,-0.0836,0.0850
299,0.0,0.0,0.0,0.0,0.0,0.0,0.0537,-0.9684,0.2253,0.8020,-0.5853,-0.0835,0.0849
300,0.0,0.0,0.0,0.0,0.0,0.0,0.0542,-0.9733,0.2263,0.8018,-0.5856,-0.0836,0.0848
301,0.0,0.0,0.0,0.0,0.0,0.0,0.0552,-0.9753,0.2253,0.8015,-0.5860,-0.0838,0.0847
302,0.0,0.0,0.0,0.0,0.0,0.0,0.0586,-0.9782,0.2229,0.8013,-0.5863,-0.0841,0.0846
303,0.0,0.0,0.0,0.0,0.0,0.0,0.0572,-0.9748,0.2165,0.8010,-0.5866,-0.0842,0.0845
304,0.0,0.0,0.0,0.0,0.0,0.0,0.0562,-0.9831,0.2190,0.8006,-0.5871,-0.0842,0.0845
305,0.0,0.0,0.0,0.0,0.0,0.0,0.0547,-0.9870,0.2185,0.8002,-0.5877,-0.0841,0.0846
306,0.0,0.0,0.0,0.0,0.0,0.0,0.0533,-0.9977,0.2219,0.8001,-0.5880,-0.0837,0.0847
307,0.0,0.0,0.0,0.0,0.0,0.0,0.0474,-0.9953,0.2204,0.8001,-0.5880,-0.0829,0.0851
308,0.0,0.0,0.0,0.0,0.0,0.0,0.0454,-0.9894,0.2190,0.8000,-0.5882,-0.0821,0.0856
309,0.0,0.0,0.0,0.0,0.0,0.0,0.0440,-0.9884,0.2209,0.7999,-0.5883,-0.0813,0.0862
310,0.0,0.0,0.0,0.0,0.0,0.0,0.0425,-0.9894,0.2258,0.8003,-0.5878,-0.0804,0.0871
311,0.0,0.0,0.0,0.0,0.0,0.0,0.0386,-0.9919,0.2326,0.8009,-0.5869,-0.0794,0.0879
312,0.0,0.0,0.0,0.0,0.0,0.0,0.0371,-0.9826,0.2322,0.8018,-0.5857,-0.0787,0.0886
313,0.0,0.0,0.0,0.0,0.0,0.0,0.0469,-0.9641,0.2312,0.8024,-0.5848,-0.0787,0.0895
314,0.0,0.0,0.0,0.0,0.0,0.0,0.0547,-0.9592,0.2356,0.8029,-0.5839,-0.0792,0.0903
315,0.0,0.0,0.0,0.0,0.0,0.0,0.0635,-0.9548,0.2366,0.8034,-0.5830,-0.0801,0.0909
316,0.0,0.0,0.0,0.0,0.0,0.0,0.0645,-0.9582,0.2410,0.8038,-0.5823,-0.0809,0.0913
317,0.0,0.0,0.0,0.0,0.0,0.0,0.0635,-0.9568,0.2410,0.8041,-0.5817,-0.0815,0.0916
318,0.0,0.0,0.0,0.0,0.0,0.0,0.0611,-0.9597,0.2410,0.8042,-0.5814,-0.0822,0.0916
319,0.0,0.0,0.0,0.0,0.0,0.0,0.0601,-0.9651,0.2410,0.8042,-0.5815,-0.0829,0.0915
320,0.0,0.0,0.0,0.0,0.0,0.0,0.0538,-0.9704,0.2415,0.8042,-0.5814,-0.0833,0.0913
321,0.0,0.0,0.0,0.0,0.0,0.0,0.0508,-0.9641,0.2410,0.8043,-0.5812,-0.0838,0.0911
322,0.0,0.0,0.0,0.0,0.0,0.0,0.0513,-0.9651,0.2405,0.8041,-0.5814,-0.0844,0.0908
323,0.0,0.0,0.0,0.0,0.0,0.0,0.0518,-0.9631,0.2400,0.8039,-0.5817,-0.0850,0.0904
324,0.0,0.0,0.0,0.0,0.0,0.0,0.0587,-0.9655,0.2390,0.8036,-0.5820,-0.0858,0.0901
325,0.0,0.0,0.0,0.0,0.0,0.0,0.0636,-0.9909,0.2444,0.8034,-0.5823,-0.0866,0.0896
326,0.0,0.0,0.0,0.0,0.0,0.0,0.0567,-0.9670,0.2361,0.8033,-0.5824,-0.0868,0.0892
327,0.0,0.0,0.0,0.0,0.0,0.0,0.0611,-0.9792,0.2361,0.8031,-0.5827,-0.0871,0.0889
328,0.0,0.0,0.0,0.0,0.0,0.0,0.0611,-0.9855,0.2346,0.8030,-0.5829,-0.0874,0.0886
329,0.0,0.0,0.0,0.0,0.0,0.0,0.0591,-0.9748,0.2278,0.8029,-0.5831,-0.0876,0.0881
330,0.0,0.0,0.0,0.0,0.0,0.0,0.0537,-0.9748,0.2249,0.8025,-0.5835,-0.0877,0.0879
331,0.0,0.0,0.0,0.0,0.0,0.0,0.0523,-0.9533,0.2209,0.8022,-0.5840,-0.0878,0.0877
332,0.0,0.0,0.0,0.0,0.0,0.0,0.0558,-1.0119,0.2381,0.8022,-0.5839,-0.0880,0.0876
333,0.0,0.0,0.0,0.0,0.0,0.0,0.0450,-1.0002,0.2346,0.8026,-0.5835,-0.0875,0.0876
334,0.0,0.0,0.0,0.0,0.0,0.0,0.0552,-0.9558,0.2224,0.8027,-0.5833,-0.0876,0.0879
335,0.0,0.0,0.0,0.0,0.0,0.0,0.0596,-0.9811,0.2341,0.8029,-0.5829,-0.0879,0.0882
336,0.0,0.0,0.0,0.0,0.0,0.0,0.0636,-0.9787,0.2386,0.8032,-0.5825,-0.0881,0.0885
337,0.0,0.0,0.0,0.0,0.0,0.0,0.0670,-0.9792,0.2390,0.8034,-0.5821,-0.0884,0.0888
338,0.0,0.0,0.0,0.0,0.0,0.0,0.0719,-0.9699,0.2376,0.8037,-0.5815,-0.0887,0.0890
339,0.0,0.0,0.0,0.0,0.0,0.0,0.0748,-0.9748,0.2410,0.8040,-0.5811,-0.0891,0.0893
340,0.0,0.0,0.0,0.0,0.0,0.0,0.0743,-0.9714,0.2415,0.8041,-0.5809,-0.0894,0.0894
341,0.0,0.0,0.0,0.0,0.0,0.0,0.0748,-0.9714,0.2420,0.8040,-0.5809,-0.0896,0.0895
342,0.0,0.0,0.0,0.0,0.0,0.0,0.0738,-0.9563,0.2371,0.8042,-0.5808,-0.0897,0.0894
343,0.0,0.0,0.0,0.0,0.0,0.0,0.0704,-0.9607,0.2390,0.8041,-0.5809,-0.0899,0.0894
344,0.0,0.0,0.0,0.0,0.0,0.0,0.0699,-0.9890,0.2459,0.8040,-0.5810,-0.0899,0.0892
345,0.0,0.0,0.0,0.0,0.0,0.0,0.0552,-0.9719,0.2380,0.8042,-0.5808,-0.0893,0.0892
346,0.0,0.0,0.0,0.0,0.0,0.0,0.0616,-0.9670,0.2337,0.8044,-0.5806,-0.0889,0.0892
347,0.0,0.0,0.0,0.0,0.0,0.0,0.0572,-0.9782,0.2366,0.8043,-0.5808,-0.0886,0.0893
348,0.0,0.0,0.0,0.0,0.0,0.0,0.0592,-0.9811,0.2356,0.8041,-0.5811,-0.0884,0.0894
349,0.0,0.0,0.0,0.0,0.0,0.0,0.0675,-0.9787,0.2371,0.8040,-0.5812,-0.0885,0.0896
350,0.0,0.0,0.0,0.0,0.0,0.0,0.0689,-0.9743,0.2356,0.8041,-0.5810,-0.0885,0.0897
351,0.0,0.0,0.0,0.0,0.0,0.0,0.0704,-0.9694,0.2342,0.8041,-0.5809,-0.0885,0.0896
352,0.0,0.0,0.0,0.0,0.0,0.0,0.0694,-0.9655,0.2332,0.8041,-0.5810,-0.0886,0.0893
353,0.0,0.0,0.0,0.0,0.0,0.0,0.0640,-0.9616,0.2317,0.8041,-0.5810,-0.0885,0.0889
354,0.0,0.0,0.0,0.0,0.0,0.0,0.0591,-0.9641,0.2327,0.8042,-0.5811,-0.0882,0.0888
355,0.0,0.0,0.0,0.0,0.0,0.0,0.0567,-0.9699,0.2346,0.8040,-0.5813,-0.0880,0.0887
356,0.0,0.0,0.0,0.0,0.0,0.0,0.0538,-0.9738,0.2356,0.8040,-0.5814,-0.0877,0.0887
357,0.0,0.0,0.0,0.0,0.0,0.0,0.0577,-0.9758,0.2351,0.8040,-0.5814,-0.0875,0.0887
358,0.0,0.0,0.0,0.0,0.0,0.0,0.0572,-0.9728,0.2312,0.8037,-0.5818,-0.0875,0.0887
359,0.0,0.0,0.0,0.0,0.0,0.0,0.0577,-0.9767,0.2322,0.8035,-0.5821,-0.0877,0.0887
360,0.0,0.0,0.0,0.0,0.0,0.0,0.0582,-0.9777,0.2376,0.8033,-0.5823,-0.0877,0.0890
361,0.0,0.0,0.0,0.0,0.0,0.0,0.0567,-0.9802,0.2371,0.8030,-0.5827,-0.0878,0.0892
362,0.0,0.0,0.0,0.0,0.0,0.0,0.0557,-0.9890,0.2424,0.8029,-0.5828,-0.0878,0.0894
363,0.0,0.0,0.0,0.0,0.0,0.0,0.0542,-0.9704,0.2361,0.8031,-0.5825,-0.0875,0.0896
364,0.0,0.0,0.0,0.0,0.0,0.0,0.0557,-0.9626,0.2341,0.8033,-0.5823,-0.0874,0.0898
365,0.0,0.0,0.0,0.0,0.0,0.0,0.0587,-0.9738,0.2420,0.8032,-0.5823,-0.0876,0.0899
366,0.0,0.0,0.0,0.0,0.0,0.0,0.0626,-0.9914,0.2473,0.8032,-0.5823,-0.0877,0.0901
367,0.0,0.0,0.0,0.0,0.0,0.0,0.0582,-0.9860,0.2429,0.8034,-0.5821,-0.0875,0.0903
368,0.0,0.0,0.0,0.0,0.0,0.0,0.0626,-0.9899,0.2434,0.8036,-0.5818,-0.0873,0.0904
369,0.0,0.0,0.0,0.0,0.0,0.0,0.0611,-0.9802,0.2405,0.8039,-0.5813,-0.0868,0.0905
370,0.0,0.0,0.0,0.0,0.0,0.0,0.0562,-0.9709,0.2356,0.8042,-0.5810,-0.0862,0.0906
371,0.0,0.0,0.0,0.0,0.0,0.0,0.0547,-0.9611,0.2322,0.8046,-0.5806,-0.0856,0.0907
372,0.0,0.0,0.0,0.0,0.0,0.0,0.0557,-0.9592,0.2317,0.8048,-0.5803,-0.0853,0.0906
373,0.0,0.0,0.0,0.0,0.0,0.0,0.0498,-0.9665,0.2312,0.8047,-0.5806,-0.0850,0.0905
374,0.0,0.0,0.0,0.0,0.0,0.0,0.0518,-0.9675,0.2317,0.8044,-0.5810,-0.0850,0.0904
375,0.0,0.0,0.0,0.0,0.0,0.0,0.0440,-0.9743,0.2341,0.8042,-0.5813,-0.0849,0.0904
376,0.0,0.0,0.0,0.0,0.0,0.0,0.0420,-0.9787,0.2356,0.8040,-0.5815,-0.0846,0.0905
377,0.0,0.0,0.0,0.0,0.0,0.0,0.0469,-0.9807,0.2385,0.8041,-0.5815,-0.0845,0.0908
378,0.0,0.0,0.0,0.0,0.0,0.0,0.0489,-0.9680,0.2341,0.8040,-0.5815,-0.0847,0.0910
379,0.0,0.0,0.0,0.0,0.0,0.0,0.0537,-0.9592,0.2302,0.8037,-0.5818,-0.0854,0.0913
380,0.0,0.0,0.0,0.0,0.0,0.0,0.0567,-0.9567,0.2297,0.8034,-0.5821,-0.0860,0.0915
381,0.0,0.0,0.0,0.0,0.0,0.0,0.0552,-0.9611,0.2327,0.8030,-0.5824,-0.0868,0.0917
382,0.0,0.0,0.0,0.0,0.0,0.0,0.0557,-0.9680,0.2346,0.8025,-0.5830,-0.0877,0.0917
383,0.0,0.0,0.0,0.0,0.0,0.0,0.0567,-0.9748,0.2337,0.8020,-0.5836,-0.0883,0.0917
384,0.0,0.0,0.0,0.0,0.0,0.0,0.0572,-0.9753,0.2302,0.8016,-0.5841,-0.0890,0.0916
385,0.0,0.0,0.0,0.0,0.0,0.0,0.0587,-0.9811,0.2278,0.8010,-0.5848,-0.0897,0.0915
386,0.0,0.0,0.0,0.0,0.0,0.0,0.0596,-0.9855,0.2268,0.8006,-0.5854,-0.0901,0.0914
387,0.0,0.0,0.0,0.0,0.0,0.0,0.0567,-0.9938,0.2268,0.8003,-0.5857,-0.0903,0.0911
388,0.0,0.0,0.0,0.0,0.0,0.0,0.0572,-0.9889,0.2244,0.8000,-0.5861,-0.0905,0.0909
389,0.0,0.0,0.0,0.0,0.0,0.0,0.0474,-0.9972,0.2307,0.7999,-0.5863,-0.0901,0.0910
390,0.0,0.0,0.0,0.0,0.0,0.0,0.0533,-0.9938,0.2268,0.8000,-0.5862,-0.0899,0.0911
391,0.0,0.0,0.0,0.0,0.0,0.0,0.0488,-0.9665,0.2185,0.8002,-0.5860,-0.0896,0.0913
392,0.0,0.0,0.0,0.0,0.0,0.0,0.0469,-0.9670,0.2204,0.8004,-0.5856,-0.0894,0.0916
393,0.0,0.0,0.0,0.0,0.0,0.0,0.0479,-0.9719,0.2268,0.8005,-0.5855,-0.0896,0.0918
394,0.0,0.0,0.0,0.0,0.0,0.0,0.0557,-0.9758,0.2327,0.8006,-0.5851,-0.0900,0.0920
395,0.0,0.0,0.0,0.0,0.0,0.0,0.0601,-0.9699,0.2312,0.8009,-0.5847,-0.0906,0.0920
396,0.0,0.0,0.0,0.0,0.0,0.0,0.0645,-0.9655,0.2312,0.8010,-0.5845,-0.0915,0.0920
397,0.0,0.0,0.0,0.0,0.0,0.0,0.0689,-0.9782,0.2332,0.8010,-0.5842,-0.0924,0.0920
398,0.0,0.0,0.0,0.0,0.0,0.0,0.0719,-0.9753,0.2322,0.8013,-0.5837,-0.0931,0.0920
399,0.0,0.0,0.0,0.0,0.0,0.0,0.0743,-0.9641,0.2288,0.8015,-0.5834,-0.0938,0.0918
400,0.0,0.0,0.0,0.0,0.0,0.0,0.0645,-0.9670,0.2273,0.8015,-0.5833,-0.0942,0.0916
401,0.0,0.0,0.0,0.0,0.0,0.0,0.0631,-0.9733,0.2288,0.8015,-0.5833,-0.0946,0.0916
402,0.0,0.0,0.0,0.0,0.0,0.0,0.0616,-0.9816,0.2302,0.8013,-0.5835,-0.0951,0.0916
403,0.0,0.0,0.0,0.0,0.0,0.0,0.0626,-0.9870,0.2268,0.8010,-0.5838,-0.0956,0.0917
404,0.0,0.0,0.0,0.0,0.0,0.0,0.0738,-0.9870,0.2268,0.8008,-0.5839,-0.0965,0.0918
405,0.0,0.0,0.0,0.0,0.0,0.0,0.0797,-0.9782,0.2259,0.8007,-0.5840,-0.0973,0.0918
406,0.0,0.0,0.0,0.0,0.0,0.0,0.0748,-0.9680,0.2210,0.8006,-0.5840,-0.0978,0.0919
407,0.0,0.0,0.0,0.0,0.0,0.0,0.0753,-0.9519,0.2122,0.8003,-0.5843,-0.0984,0.0919
408,0.0,0.0,0.0,0.0,0.0,0.0,0.0753,-0.9597,0.2107,0.7999,-0.5847,-0.0993,0.0919
409,0.0,0.0,0.0,0.0,0.0,0.0,0.0723,-0.9802,0.2156,0.7994,-0.5852,-0.1000,0.0921
410,0.0,0.0,0.0,0.0,0.0,0.0,0.0792,-0.9919,0.2220,0.7990,-0.5856,-0.1008,0.0922
411,0.0,0.0,0.0,0.0,0.0,0.0,0.0807,-0.9914,0.2239,0.7989,-0.5857,-0.1015,0.0923
412,0.0,0.0,0.0,0.0,0.0,0.0,0.0778,-0.9909,0.2244,0.7987,-0.5857,-0.1019,0.0925
413,0.0,0.0,0.0,0.0,0.0,0.0,0.0802,-0.9894,0.2269,0.7988,-0.5856,-0.1022,0.0927
414,0.0,0.0,0.0,0.0,0.0,0.0,0.0836,-0.9841,0.2264,0.7988,-0.5854,-0.1024,0.0928
415,0.0,0.0,0.0,0.0,0.0,0.0,0.0807,-0.9772,0.2205,0.7989,-0.5854,-0.1026,0.0927
416,0.0,0.0,0.0,0.0,0.0,0.0,0.0816,-0.9689,0.2190,0.7988,-0.5855,-0.1029,0.0927
417,0.0,0.0,0.0,0.0,0.0,0.0,0.0816,-0.9685,0.2195,0.7987,-0.5855,-0.1031,0.0926
418,0.0,0.0,0.0,0.0,0.0,0.0,0.0767,-0.9665,0.2161,0.7987,-0.5856,-0.1030,0.0926
419,0.0,0.0,0.0,0.0,0.0,0.0,0.0782,-0.9772,0.2220,0.7985,-0.5858,-0.1031,0.0926
420,0.0,0.0,0.0,0.0,0.0,0.0,0.0827,-0.9885,0.2283,0.7985,-0.5858,-0.1032,0.0927
421,0.0,0.0,0.0,0.0,0.0,0.0,0.0826,-0.9851,0.2239,0.7984,-0.5859,-0.1031,0.0925
422,0.0,0.0,0.0,0.0,0.0,0.0,0.0816,-0.9694,0.2185,0.7984,-0.5861,-0.1030,0.0922
423,0.0,0.0,0.0,0.0,0.0,0.0,0.0821,-0.9728,0.2161,0.7983,-0.5863,-0.1028,0.0920
424,0.0,0.0,0.0,0.0,0.0,0.0,0.0782,-0.9763,0.2176,0.7983,-0.5864,-0.1025,0.0917
425,0.0,0.0,0.0,0.0,0.0,0.0,0.0748,-0.9758,0.2176,0.7984,-0.5864,-0.1020,0.0913
426,0.0,0.0,0.0,0.0,0.0,0.0,0.0743,-0.9767,0.2171,0.7982,-0.5867,-0.1016,0.0909
427,0.0,0.0,0.0,0.0,0.0,0.0,0.0728,-0.9797,0.2185,0.7981,-0.5871,-0.1012,0.0906
428,0.0,0.0,0.0,0.0,0.0,0.0,0.0635,-0.9782,0.2151,0.7980,-0.5874,-0.1004,0.0904
429,0.0,0.0,0.0,0.0,0.0,0.0,0.0640,-0.9826,0.2141,0.7977,-0.5878,-0.0997,0.0901
430,0.0,0.0,0.0,0.0,0.0,0.0,0.0640,-0.9723,0.2102,0.7974,-0.5883,-0.0993,0.0899
431,0.0,0.0,0.0,0.0,0.0,0.0,0.0635,-0.9816,0.2146,0.7972,-0.5887,-0.0989,0.0897
432,0.0,0.0,0.0,0.0,0.0,0.0,0.0601,-0.9772,0.2131,0.7972,-0.5889,-0.0985,0.0895
433,0.0,0.0,0.0,0.0,0.0,0.0,0.0660,-0.9723,0.2107,0.7970,-0.5891,-0.0983,0.0893
434,0.0,0.0,0.0,0.0,0.0,0.0,0.0611,-0.9816,0.2141,0.7969,-0.5894,-0.0982,0.0891
435,0.0,0.0,0.0,0.0,0.0,0.0,0.0601,-0.9865,0.2175,0.7970,-0.5893,-0.0978,0.0891
436,0.0,0.0,0.0,0.0,0.0,0.0,0.0616,-0.9875,0.2170,0.7970,-0.5893,-0.0976,0.0891
437,0.0,0.0,0.0,0.0,0.0,0.0,0.0631,-0.9894,0.2190,0.7972,-0.5891,-0.0975,0.0891
438,0.0,0.0,0.0,0.0,0.0,0.0,0.0650,-0.9811,0.2161,0.7975,-0.5887,-0.0974,0.0892
439,0.0,0.0,0.0,0.0,0.0,0.0,0.0679,-0.9762,0.2141,0.7976,-0.5885,-0.0976,0.0893
440,0.0,0.0,0.0,0.0,0.0,0.0,0.0704,-0.9787,0.2166,0.7976,-0.5884,-0.0980,0.0895
441,0.0,0.0,0.0,0.0,0.0,0.0,0.0724,-0.9782,0.2195,0.7977,-0.5882,-0.0984,0.0897
442,0.0,0.0,0.0,0.0,0.0,0.0,0.0738,-0.9953,0.2283,0.7978,-0.5879,-0.0988,0.0900
443,0.0,0.0,0.0,0.0,0.0,0.0,0.0797,-1.0090,0.2337,0.7982,-0.5873,-0.0990,0.0902
444,0.0,0.0,0.0,0.0,0.0,0.0,0.0822,-0.9855,0.2239,0.7987,-0.5866,-0.0991,0.0904
445,0.0,0.0,0.0,0.0,0.0,0.0,0.0826,-0.9660,0.2220,0.7992,-0.5859,-0.0992,0.0906
446,0.0,0.0,0.0,0.0,0.0,0.0,0.0782,-0.9636,0.2234,0.7998,-0.5851,-0.0989,0.0908
447,0.0,0.0,0.0,0.0,0.0,0.0,0.0797,-0.9533,0.2190,0.8001,-0.5846,-0.0990,0.0909
448,0.0,0.0,0.0,0.0,0.0,0.0,0.0807,-0.9558,0.2195,0.8002,-0.5844,-0.0992,0.0909
449,0.0,0.0,0.0,0.0,0.0,0.0,0.0802,-0.9650,0.2205,0.8002,-0.5844,-0.0992,0.0910
450,0.0,0.0,0.0,0.0,0.0,0.0,0.0841,-0.9729,0.2195,0.8003,-0.5843,-0.0992,0.0910
451,0.0,0.0,0.0,0.0,0.0,0.0,0.0841,-0.9650,0.2132,0.7999,-0.5847,-0.0993,0.0910
452,0.0,0.0,0.0,0.0,0.0,0.0,0.0841,-0.9616,0.2127,0.7994,-0.5854,-0.0997,0.0909
453,0.0,0.0,0.0,0.0,0.0,0.0,0.0787,-0.9836,0.2234,0.7991,-0.5859,-0.0996,0.0907
454,0.0,0.0,0.0,0.0,0.0,0.0,0.0714,-0.9855,0.2263,0.7989,-0.5862,-0.0992,0.0905
455,0.0,0.0,0.0,0.0,0.0,0.0,0.0670,-0.9880,0.2254,0.7987,-0.5867,-0.0987,0.0904
456,0.0,0.0,0.0,0.0,0.0,0.0,0.0650,-0.9928,0.2254,0.7986,-0.5870,-0.0980,0.0901
457,0.0,0.0,0.0,0.0,0.0,0.0,0.0694,-0.9792,0.2190,0.7986,-0.5872,-0.0972,0.0898
458,0.0,0.0,0.0,0.0,0.0,0.0,0.0689,-0.9806,0.2171,0.7985,-0.5874,-0.0966,0.0897
459,0.0,0.0,0.0,0.0,0.0,0.0,0.0640,-0.9816,0.2180,0.7987,-0.5873,-0.0957,0.0894
460,0.0,0.0,0.0,0.0,0.0,0.0,0.0606,-0.9841,0.2205,0.7989,-0.5872,-0.0949,0.0893
461,0.0,0.0,0.0,0.0,0.0,0.0,0.0582,-0.9904,0.2253,0.7992,-0.5870,-0.0939,0.0892
462,0.0,0.0,0.0,0.0,0.0,0.0,0.0547,-0.9875,0.2249,0.7996,-0.5865,-0.0928,0.0891
463,0.0,0.0,0.0,0.0,0.0,0.0,0.0537,-0.9772,0.2234,0.8001,-0.5860,-0.0918,0.0892
464,0.0,0.0,0.0,0.0,0.0,0.0,0.0542,-0.9758,0.2234,0.8005,-0.5857,-0.0910,0.0893
465,0.0,0.0,0.0,0.0,0.0,0.0,0.0557,-0.9787,0.2249,0.8010,-0.5851,-0.0903,0.0893
466,0.0,0.0,0.0,0.0,0.0,0.0,0.0577,-0.9767,0.2278,0.8017,-0.5842,-0.0897,0.0891
467,0.0,0.0,0.0,0.0,0.0,0.0,0.0572,-0.9685,0.2293,0.8022,-0.5836,-0.0893,0.0890
468,0.0,0.0,0.0,0.0,0.0,0.0,0.0635,-0.9670,0.2312,0.8027,-0.5829,-0.0893,0.0890
469,0.0,0.0,0.0,0.0,0.0,0.0,0.0650,-0.9631,0.2298,0.8029,-0.5826,-0.0895,0.0888
470,0.0,0.0,0.0,0.0,0.0,0.0,0.0674,-0.9582,0.2298,0.8030,-0.5824,-0.0899,0.0886
471,0.0,0.0,0.0,0.0,0.0,0.0,0.0689,-0.9631,0.2312,0.8030,-0.5823,-0.0904,0.0884
472,0.0,0.0,0.0,0.0,0.0,0.0,0.0704,-0.9646,0.2322,0.8031,-0.5823,-0.0909,0.0883
473,0.0,0.0,0.0,0.0,0.0,0.0,0.0709,-0.9655,0.2303,0.8031,-0.5822,-0.0914,0.0883
474,0.0,0.0,0.0,0.0,0.0,0.0,0.0743,-0.9748,0.2322,0.8030,-0.5822,-0.0921,0.0882
475,0.0,0.0,0.0,0.0,0.0,0.0,0.0709,-0.9733,0.2307,0.8029,-0.5823,-0.0926,0.0881
476,0.0,0.0,0.0,0.0,0.0,0.0,0.0738,-0.9738,0.2293,0.8025,-0.5826,-0.0932,0.0881
477,0.0,0.0,0.0,0.0,0.0,0.0,0.0733,-0.9709,0.2259,0.8023,-0.5829,-0.0937,0.0882
478,0.0,0.0,0.0,0.0,0.0,0.0,0.0743,-0.9680,0.2234,0.8019,-0.5834,-0.0943,0.0884
479,0.0,0.0,0.0,0.0,0.0,0.0,0.0753,-0.9733,0.2234,0.8015,-0.5838,-0.0948,0.0886
480,0.0,0.0,0.0,0.0,0.0,0.0,0.0773,-0.9792,0.2239,0.8013,-0.5839,-0.0953,0.0888
481,0.0,0.0,0.0,0.0,0.0,0.0,0.0753,-0.9816,0.2229,0.8009,-0.5843,-0.0957,0.0889
482,0.0,0.0,0.0,0.0,0.0,0.0,0.0753,-0.9831,0.2229,0.8006,-0.5847,-0.0962,0.0888
483,0.0,0.0,0.0,0.0,0.0,0.0,0.0694,-0.9933,0.2263,0.8005,-0.5848,-0.0962,0.0889
484,0.0,0.0,0.0,0.0,0.0,0.0,0.0738,-0.9860,0.2224,0.8005,-0.5848,-0.0963,0.0892
485,0.0,0.0,0.0,0.0,0.0,0.0,0.0719,-0.9772,0.2195,0.8004,-0.5849,-0.0964,0.0893
486,0.0,0.0,0.0,0.0,0.0,0.0,0.0645,-0.9714,0.2200,0.8003,-0.5850,-0.0963,0.0895
487,0.0,0.0,0.0,0.0,0.0,0.0,0.0674,-0.9699,0.2205,0.8002,-0.5851,-0.0963,0.0898
488,0.0,0.0,0.0,0.0,0.0,0.0,0.0635,-0.9777,0.2254,0.8001,-0.5852,-0.0963,0.0901
489,0.0,0.0,0.0,0.0,0.0,0.0,0.0621,-0.9836,0.2273,0.8000,-0.5853,-0.0964,0.0905
490,0.0,0.0,0.0,0.0,0.0,0.0,0.0719,-0.9660,0.2215,0.8002,-0.5849,-0.0968,0.0908
491,0.0,0.0,0.0,0.0,0.0,0.0,0.0729,-0.9841,0.2278,0.8003,-0.5846,-0.0971,0.0911
492,0.0,0.0,0.0,0.0,0.0,0.0,0.0802,-0.9934,0.2298,0.8004,-0.5844,-0.0975,0.0913
493,0.0,0.0,0.0,0.0,0.0,0.0,0.0797,-0.9890,0.2317,0.8007,-0.5840,-0.0978,0.0914
494,0.0,0.0,0.0,0.0,0.0,0.0,0.0758,-0.9709,0.2264,0.8008,-0.5837,-0.0979,0.0915
495,0.0,0.0,0.0,0.0,0.0,0.0,0.0743,-0.9675,0.2239,0.8010,-0.5835,-0.0979,0.0917
496,0.0,0.0,0.0,0.0,0.0,0.0,0.0748,-0.9665,0.2244,0.8012,-0.5831,-0.0978,0.0919
497,0.0,0.0,0.0,0.0,0.0,0.0,0.0743,-0.9665,0.2249,0.8012,-0.5831,-0.0979,0.0920
498,0.0,0.0,0.0,0.0,0.0,0.0,0.0694,-0.9689,0.2263,0.8009,-0.5835,-0.0979,0.0922
499,0.0,0.0,0.0,0.0,0.0,0.0,0.0743,-0.9753,0.2298,0.8006,-0.5838,-0.0980,0.0926
500,0.0,0.0,0.0,0.0,0.0,0.0,0.0719,-0.9758,0.2298,0.8004,-0.5840,-0.0980,0.0927
501,0.0,0.0,0.0,0.0,0.0,0.0,0.0660,-0.9792,0.2322,0.8006,-0.5839,-0.0975,0.0929
502,0.0,0.0,0.0,0.0,0.0,0.0,0.0689,-0.9763,0.2288,0.8008,-0.5836,-0.0970,0.0931
503,0.0,0.0,0.0,0.0,0.0,0.0,0.0660,-0.9753,0.2268,0.8009,-0.5836,-0.0966,0.0932
504,0.0,0.0,0.0,0.0,0.0,0.0,0.0626,-0.9763,0.2273,0.8011,-0.5834,-0.0960,0.0933
505,0.0,0.0,0.0,0.0,0.0,0.0,0.0567,-0.9582,0.2185,0.8011,-0.5835,-0.0954,0.0934
506,0.0,0.0,0.0,0.0,0.0,0.0,0.0601,-0.9909,0.2317,0.8011,-0.5835,-0.0952,0.0936
507,0.0,0.0,0.0,0.0,0.0,0.0,0.0577,-0.9870,0.2293,0.8010,-0.5837,-0.0948,0.0935
508,0.0,0.0,0.0,0.0,0.0,0.0,0.0567,-0.9860,0.2288,0.8009,-0.5839,-0.0944,0.0935
509,0.0,0.0,0.0,0.0,0.0,0.0,0.0547,-0.9826,0.2273,0.8009,-0.5840,-0.0939,0.0937
510,0.0,0.0,0.0,0.0,0.0,0.0,0.0552,-0.9787,0.2258,0.8011,-0.5838,-0.0934,0.0938
511,0.0,0.0,0.0,0.0,0.0,0.0,0.0557,-0.9723,0.2249,0.8012,-0.5835,-0.0932,0.0940
512,0.0,0.0,0.0,0.0,0.0,0.0,0.0557,-0.9670,0.2224,0.8013,-0.5834,-0.0932,0.0940
513,0.0,0.0,0.0,0.0,0.0,0.0,0.0591,-0.9626,0.2214,0.8014,-0.5833,-0.0932,0.0941
514,0.0,0.0,0.0,0.0,0.0,0.0,0.0626,-0.9684,0.2224,0.8012,-0.5835,-0.0936,0.0941
515,0.0,0.0,0.0,0.0,0.0,0.0,0.0626,-0.9699,0.2224,0.8009,-0.5838,-0.0941,0.0942
516,0.0,0.0,0.0,0.0,0.0,0.0,0.0655,-0.9694,0.2195,0.8007,-0.5841,-0.0947,0.0941
517,0.0,0.0,0.0,0.0,0.0,0.0,0.0670,-0.9738,0.2205,0.8005,-0.5842,-0.0951,0.0941
518,0.0,0.0,0.0,0.0,0.0,0.0,0.0694,-0.9772,0.2210,0.8003,-0.5845,-0.0957,0.0940
519,0.0,0.0,0.0,0.0,0.0,0.0,0.0728,-0.9811,0.2215,0.7999,-0.5849,-0.0963,0.0938
520,0.0,0.0,0.0,0.0,0.0,0.0,0.0738,-0.9719,0.2190,0.7997,-0.5851,-0.0969,0.0937
521,0.0,0.0,0.0,0.0,0.0,0.0,0.0777,-0.9831,0.2180,0.7996,-0.5852,-0.0976,0.0936
522,0.0,0.0,0.0,0.0,0.0,0.0,0.0773,-0.9943,0.2210,0.7994,-0.5854,-0.0980,0.0934
523,0.0,0.0,0.0,0.0,0.0,0.0,0.0758,-0.9928,0.2215,0.7993,-0.5854,-0.0983,0.0932
524,0.0,0.0,0.0,0.0,0.0,0.0,0.0758,-0.9914,0.2234,0.7995,-0.5853,-0.0983,0.0932
525,0.0,0.0,0.0,0.0,0.0,0.0,0.0743,-0.9811,0.2210,0.7996,-0.5851,-0.0981,0.0932
526,0.0,0.0,0.0,0.0,0.0,0.0,0.0699,-0.9855,0.2219,0.7998,-0.5848,-0.0977,0.0934
527,0.0,0.0,0.0,0.0,0.0,0.0,0.0684,-0.9772,0.2219,0.8000,-0.5847,-0.0973,0.0935
528,0.0,0.0,0.0,0.0,0.0,0.0,0.0694,-0.9763,0.2219,0.8002,-0.5845,-0.0969,0.0936
529,0.0,0.0,0.0,0.0,0.0,0.0,0.0635,-0.9763,0.2229,0.8004,-0.5842,-0.0963,0.0937
530,0.0,0.0,0.0,0.0,0.0,0.0,0.0596,-0.9704,0.2244,0.8006,-0.5841,-0.0956,0.0938
531,0.0,0.0,0.0,0.0,0.0,0.0,0.0645,-0.9680,0.2268,0.8006,-0.5840,-0.0953,0.0939
532,0.0,0.0,0.0,0.0,0.0,0.0,0.0650,-0.9665,0.2298,0.8009,-0.5837,-0.0949,0.0939
533,0.0,0.0,0.0,0.0,0.0,0.0,0.0621,-0.9607,0.2288,0.8011,-0.5835,-0.0945,0.0938
534,0.0,0.0,0.0,0.0,0.0,0.0,0.0650,-0.9592,0.2244,0.8011,-0.5836,-0.0944,0.0935
535,0.0,0.0,0.0,0.0,0.0,0.0,0.0621,-0.9704,0.2268,0.8009,-0.5840,-0.0944,0.0930
536,0.0,0.0,0.0,0.0,0.0,0.0,0.0616,-0.9738,0.2273,0.8006,-0.5845,-0.0944,0.0927
537,0.0,0.0,0.0,0.0,0.0,0.0,0.0616,-0.9748,0.2258,0.8003,-0.5848,-0.0943,0.0923
538,0.0,0.0,0.0,0.0,0.0,0.0,0.0557,-0.9811,0.2244,0.8002,-0.5852,-0.0941,0.0920
539,0.0,0.0,0.0,0.0,0.0,0.0,0.0596,-0.9772,0.2224,0.8001,-0.5854,-0.0940,0.0918
540,0.0,0.0,0.0,0.0,0.0,0.0,0.0611,-0.9782,0.2239,0.8001,-0.5854,-0.0939,0.0915
541,0.0,0.0,0.0,0.0,0.0,0.0,0.0611,-0.9733,0.2219,0.8001,-0.5854,-0.0939,0.0912
542,0.0,0.0,0.0,0.0,0.0,0.0,0.0586,-0.9577,0.2156,0.8001,-0.5855,-0.0938,0.0907
543,0.0,0.0,0.0,0.0,0.0,0.0,0.0498,-0.9660,0.2160,0.7997,-0.5861,-0.0938,0.0905
544,0.0,0.0,0.0,0.0,0.0,0.0,0.0488,-0.9655,0.2126,0.7993,-0.5867,-0.0940,0.0904
545,0.0,0.0,0.0,0.0,0.0,0.0,0.0621,-0.9699,0.2175,0.7986,-0.5874,-0.0948,0.0903
546,0.0,0.0,0.0,0.0,0.0,0.0,0.0645,-0.9933,0.2278,0.7982,-0.5879,-0.0957,0.0901
547,0.0,0.0,0.0,0.0,0.0,0.0,0.0650,-0.9870,0.2268,0.7980,-0.5880,-0.0962,0.0900
548,0.0,0.0,0.0,0.0,0.0,0.0,0.0728,-0.9763,0.2200,0.7977,-0.5883,-0.0971,0.0898
549,0.0,0.0,0.0,0.0,0.0,0.0,0.0748,-0.9802,0.2185,0.7975,-0.5885,-0.0978,0.0897
550,0.0,0.0,0.0,0.0,0.0,0.0,0.0753,-0.9875,0.2200,0.7973,-0.5887,-0.0984,0.0897
551,0.0,0.0,0.0,0.0,0.0,0.0,0.0782,-0.9875,0.2195,0.7970,-0.5890,-0.0990,0.0894
552,0.0,0.0,0.0,0.0,0.0,0.0,0.0777,-0.9845,0.2146,0.7968,-0.5892,-0.0994,0.0894
553,0.0,0.0,0.0,0.0,0.0,0.0,0.0792,-0.9792,0.2112,0.7967,-0.5894,-0.0997,0.0894
554,0.0,0.0,0.0,0.0,0.0,0.0,0.0826,-0.9841,0.2137,0.7965,-0.5895,-0.1000,0.0892
555,0.0,0.0,0.0,0.0,0.0,0.0,0.0797,-0.9914,0.2151,0.7965,-0.5897,-0.1000,0.0891
556,0.0,0.0,0.0,0.0,0.0,0.0,0.0767,-0.9675,0.2039,0.7962,-0.5900,-0.1000,0.0892
557,0.0,0.0,0.0,0.0,0.0,0.0,0.0709,-0.9762,0.2088,0.7958,-0.5905,-0.0998,0.0893
558,0.0,0.0,0.0,0.0,0.0,0.0,0.0719,-0.9836,0.2102,0.7957,-0.5907,-0.0996,0.0894
559,0.0,0.0,0.0,0.0,0.0,0.0,0.0694,-0.9933,0.2117,0.7957,-0.5908,-0.0993,0.0894
560,0.0,0.0,0.0,0.0,0.0,0.0,0.0748,-1.0026,0.2156,0.7957,-0.5908,-0.0991,0.0895
561,0.0,0.0,0.0,0.0,0.0,0.0,0.0802,-0.9767,0.2063,0.7958,-0.5906,-0.0990,0.0896
562,0.0,0.0,0.0,0.0,0.0,0.0,0.0772,-0.9636,0.2034,0.7958,-0.5907,-0.0989,0.0896
563,0.0,0.0,0.0,0.0,0.0,0.0,0.0738,-0.9855,0.2092,0.7957,-0.5909,-0.0989,0.0893
564,0.0,0.0,0.0,0.0,0.0,0.0,0.0714,-0.9977,0.2107,0.7958,-0.5907,-0.0985,0.0892
565,0.0,0.0,0.0,0.0,0.0,0.0,0.0719,-0.9855,0.2078,0.7960,-0.5905,-0.0983,0.0891
566,0.0,0.0,0.0,0.0,0.0,0.0,0.0728,-0.9675,0.2004,0.7960,-0.5906,-0.0983,0.0889
567,0.0,0.0,0.0,0.0,0.0,0.0,0.0738,-0.9762,0.2039,0.7961,-0.5905,-0.0983,0.0888
568,0.0,0.0,0.0,0.0,0.0,0.0,0.0743,-0.9792,0.2068,0.7962,-0.5904,-0.0983,0.0888
569,0.0,0.0,0.0,0.0,0.0,0.0,0.0743,-0.9782,0.2063,0.7961,-0.5904,-0.0983,0.0890
570,0.0,0.0,0.0,0.0,0.0,0.0,0.0763,-0.9845,0.2097,0.7959,-0.5907,-0.0985,0.0890
571,0.0,0.0,0.0,0.0,0.0,0.0,0.0743,-0.9860,0.2112,0.7959,-0.5906,-0.0984,0.0891
572,0.0,0.0,0.0,0.0,0.0,0.0,0.0807,-0.9802,0.2097,0.7961,-0.5904,-0.0984,0.0892
573,0.0,0.0,0.0,0.0,0.0,0.0,0.0787,-0.9777,0.2088,0.7961,-0.5903,-0.0984,0.0894
574,0.0,0.0,0.0,0.0,0.0,0.0,0.0777,-0.9767,0.2117,0.7962,-0.5902,-0.0983,0.0894
575,0.0,0.0,0.0,0.0,0.0,0.0,0.0738,-0.9733,0.2107,0.7963,-0.5902,-0.0980,0.0895
576,0.0,0.0,0.0,0.0,0.0,0.0,0.0723,-0.9762,0.2097,0.7961,-0.5904,-0.0978,0.0897
577,0.0,0.0,0.0,0.0,0.0,0.0,0.0640,-0.9909,0.2166,0.7962,-0.5904,-0.0973,0.0897
578,0.0,0.0,0.0,0.0,0.0,0.0,0.0601,-0.9894,0.2151,0.7963,-0.5903,-0.0965,0.0897
579,0.0,0.0,0.0,0.0,0.0,0.0,0.0601,-0.9855,0.2117,0.7964,-0.5904,-0.0959,0.0898
580,0.0,0.0,0.0,0.0,0.0,0.0,0.0616,-0.9821,0.2107,0.7964,-0.5904,-0.0954,0.0898
581,0.0,0.0,0.0,0.0,0.0,0.0,0.0606,-0.9723,0.2082,0.7965,-0.5904,-0.0949,0.0900
582,0.0,0.0,0.0,0.0,0.0,0.0,0.0615,-0.9611,0.2024,0.7966,-0.5903,-0.0946,0.0901
583,0.0,0.0,0.0,0.0,0.0,0.0,0.0620,-0.9552,0.1990,0.7963,-0.5906,-0.0946,0.0902
584,0.0,0.0,0.0,0.0,0.0,0.0,0.0596,-0.9587,0.1999,0.7957,-0.5913,-0.0948,0.0902
585,0.0,0.0,0.0,0.0,0.0,0.0,0.0611,-0.9865,0.2146,0.7954,-0.5918,-0.0950,0.0904
586,0.0,0.0,0.0,0.0,0.0,0.0,0.0616,-1.0119,0.2268,0.7954,-0.5918,-0.0949,0.0904
587,0.0,0.0,0.0,0.0,0.0,0.0,0.0631,-1.0123,0.2234,0.7955,-0.5916,-0.0946,0.0906
588,0.0,0.0,0.0,0.0,0.0,0.0,0.0670,-0.9792,0.2092,0.7958,-0.5913,-0.0942,0.0906
589,0.0,0.0,0.0,0.0,0.0,0.0,0.0650,-0.9596,0.2043,0.7961,-0.5909,-0.0937,0.0907
590,0.0,0.0,0.0,0.0,0.0,0.0,0.0606,-0.9938,0.2141,0.7962,-0.5909,-0.0932,0.0907
591,0.0,0.0,0.0,0.0,0.0,0.0,0.0557,-0.9806,0.2107,0.7961,-0.5911,-0.0929,0.0906
592,0.0,0.0,0.0,0.0,0.0,0.0,0.0606,-0.9884,0.2151,0.7961,-0.5911,-0.0927,0.0908
593,0.0,0.0,0.0,0.0,0.0,0.0,0.0577,-0.9821,0.2126,0.7964,-0.5908,-0.0921,0.0909
594,0.0,0.0,0.0,0.0,0.0,0.0,0.0567,-0.9748,0.2112,0.7967,-0.5904,-0.0915,0.0911
595,0.0,0.0,0.0,0.0,0.0,0.0,0.0562,-0.9650,0.2092,0.7968,-0.5903,-0.0912,0.0911
596,0.0,0.0,0.0,0.0,0.0,0.0,0.0591,-0.9709,0.2117,0.7968,-0.5904,-0.0911,0.0912
597,0.0,0.0,0.0,0.0,0.0,0.0,0.0552,-0.9762,0.2161,0.7968,-0.5903,-0.0908,0.0914
598,0.0,0.0,0.0,0.0,0.0,0.0,0.0562,-0.9777,0.2170,0.7970,-0.5901,-0.0906,0.0915
599,0.0,0.0,0.0,0.0,0.0,0.0,0.0537,-0.9738,0.2126,0.7967,-0.5905,-0.0905,0.0915
600,0.0,0.0,0.0,0.0,0.0,0.0,0.0523,-0.9738,0.2107,0.7966,-0.5907,-0.0902,0.0915
601,0.0,0.0,0.0,0.0,0.0,0.0,0.0508,-0.9806,0.2117,0.7965,-0.5908,-0.0900,0.0915
602,0.0,0.0,0.0,0.0,0.0,0.0,0.0488,-0.9855,0.2092,0.7963,-0.5912,-0.0900,0.0915
603,0.0,0.0,0.0,0.0,0.0,0.0,0.0483,-0.9821,0.2082,0.7962,-0.5913,-0.0900,0.0916
604,0.0,0.0,0.0,0.0,0.0,0.0,0.0528,-0.9870,0.2092,0.7962,-0.5911,-0.0901,0.0918
605,0.0,0.0,0.0,0.0,0.0,0.0,0.0576,-0.9787,0.2038,0.7964,-0.5909,-0.0901,0.0920
606,0.0,0.0,0.0,0.0,0.0,0.0,0.0601,-0.9650,0.1975,0.7963,-0.5909,-0.0905,0.0920
607,0.0,0.0,0.0,0.0,0.0,0.0,0.0586,-0.9748,0.2029,0.7958,-0.5915,-0.0912,0.0921
608,0.0,0.0,0.0,0.0,0.0,0.0,0.0591,-0.9923,0.2078,0.7956,-0.5916,-0.0918,0.0922
609,0.0,0.0,0.0,0.0,0.0,0.0,0.0552,-1.0011,0.2141,0.7959,-0.5912,-0.0919,0.0923
610,0.0,0.0,0.0,0.0,0.0,0.0,0.0621,-1.0109,0.2214,0.7964,-0.5906,-0.0921,0.0924
611,0.0,0.0,0.0,0.0,0.0,0.0,0.0616,-0.9757,0.2043,0.7966,-0.5902,-0.0920,0.0926
612,0.0,0.0,0.0,0.0,0.0,0.0,0.0640,-0.9713,0.2009,0.7968,-0.5898,-0.0922,0.0928
613,0.0,0.0,0.0,0.0,0.0,0.0,0.0670,-0.9870,0.2092,0.7971,-0.5894,-0.0925,0.0930
614,0.0,0.0,0.0,0.0,0.0,0.0,0.0694,-0.9855,0.2141,0.7972,-0.5892,-0.0930,0.0932
615,0.0,0.0,0.0,0.0,0.0,0.0,0.0670,-0.9826,0.2190,0.7974,-0.5888,-0.0933,0.0932
616,0.0,0.0,0.0,0.0,0.0,0.0,0.0674,-0.9611,0.2141,0.7976,-0.5885,-0.0935,0.0932
617,0.0,0.0,0.0,0.0,0.0,0.0,0.0723,-0.9426,0.2083,0.7976,-0.5885,-0.0941,0.0932
618,0.0,0.0,0.0,0.0,0.0,0.0,0.0630,-0.9558,0.2107,0.7973,-0.5888,-0.0946,0.0930
619,0.0,0.0,0.0,0.0,0.0,0.0,0.0645,-0.9631,0.2107,0.7970,-0.5892,-0.0953,0.0929
620,0.0,0.0,0.0,0.0,0.0,0.0,0.0665,-0.9777,0.2146,0.7965,-0.5897,-0.0960,0.0928
621,0.0,0.0,0.0,0.0,0.0,0.0,0.0689,-0.9875,0.2205,0.7962,-0.5901,-0.0967,0.0926
622,0.0,0.0,0.0,0.0,0.0,0.0,0.0714,-0.9914,0.2239,0.7961,-0.5901,-0.0972,0.0925
623,0.0,0.0,0.0,0.0,0.0,0.0,0.0753,-0.9846,0.2229,0.7961,-0.5901,-0.0977,0.0923
624,0.0,0.0,0.0,0.0,0.0,0.0,0.0689,-0.9802,0.2171,0.7961,-0.5901,-0.0980,0.0920
625,0.0,0.0,0.0,0.0,0.0,0.0,0.0699,-0.9865,0.2136,0.7960,-0.5901,-0.0981,0.0918
626,0.0,0.0,0.0,0.0,0.0,0.0,0.0689,-0.9757,0.2039,0.7959,-0.5903,-0.0982,0.0917
627,0.0,0.0,0.0,0.0,0.0,0.0,0.0782,-0.9758,0.2058,0.7957,-0.5906,-0.0987,0.0916
628,0.0,0.0,0.0,0.0,0.0,0.0,0.0670,-0.9904,0.2092,0.7954,-0.5909,-0.0988,0.0914
629,0.0,0.0,0.0,0.0,0.0,0.0,0.0684,-0.9982,0.2122,0.7953,-0.5911,-0.0988,0.0914
630,0.0,0.0,0.0,0.0,0.0,0.0,0.0670,-1.0021,0.2146,0.7952,-0.5912,-0.0986,0.0918
631,0.0,0.0,0.0,0.0,0.0,0.0,0.0733,-0.9753,0.2078,0.7954,-0.5909,-0.0985,0.0921
632,0.0,0.0,0.0,0.0,0.0,0.0,0.0802,-0.9689,0.2034,0.7954,-0.5908,-0.0988,0.0922
633,0.0,0.0,0.0,0.0,0.0,0.0,0.0782,-0.9719,0.2053,0.7955,-0.5906,-0.0990,0.0922
634,0.0,0.0,0.0,0.0,0.0,0.0,0.0762,-0.9719,0.2068,0.7955,-0.5906,-0.0991,0.0923
635,0.0,0.0,0.0,0.0,0.0,0.0,0.0748,-0.9792,0.2073,0.7953,-0.5909,-0.0992,0.0923
636,0.0,0.0,0.0,0.0,0.0,0.0,0.0753,-0.9811,0.2058,0.7951,-0.5911,-0.0993,0.0921
637,0.0,0.0,0.0,0.0,0.0,0.0,0.0699,-0.9855,0.2068,0.7949,-0.5915,-0.0992,0.0920
638,0.0,0.0,0.0,0.0,0.0,0.0,0.0699,-0.9865,0.2073,0.7947,-0.5917,-0.0991,0.0920
639,0.0,0.0,0.0,0.0,0.0,0.0,0.0674,-0.9787,0.2048,0.7949,-0.5915,-0.0988,0.0920
640,0.0,0.0,0.0,0.0,0.0,0.0,0.0650,-0.9709,0.2019,0.7949,-0.5916,-0.0986,0.0919
641,0.0,0.0,0.0,0.0,0.0,0.0,0.0620,-0.9718,0.2034,0.7946,-0.5919,-0.0985,0.0919
642,0.0,0.0,0.0,0.0,0.0,0.0,0.0591,-0.9762,0.2053,0.7943,-0.5923,-0.0984,0.0920
643,0.0,0.0,0.0,0.0,0.0,0.0,0.0596,-0.9811,0.2063,0.7940,-0.5928,-0.0984,0.0921
644,0.0,0.0,0.0,0.0,0.0,0.0,0.0577,-0.9923,0.2092,0.7940,-0.5928,-0.0983,0.0922
645,0.0,0.0,0.0,0.0,0.0,0.0,0.0606,-0.9957,0.2107,0.7941,-0.5927,-0.0982,0.0924
646,0.0,0.0,0.0,0.0,0.0,0.0,0.0670,-1.0031,0.2127,0.7940,-0.5927,-0.0983,0.0926
647,0.0,0.0,0.0,0.0,0.0,0.0,0.0636,-1.0070,0.2151,0.7942,-0.5925,-0.0980,0.0929
648,0.0,0.0,0.0,0.0,0.0,0.0,0.0689,-0.9943,0.2097,0.7945,-0.5920,-0.0978,0.0932
649,0.0,0.0,0.0,0.0,0.0,0.0,0.0704,-0.9967,0.2146,0.7951,-0.5913,-0.0974,0.0936
650,0.0,0.0,0.0,0.0,0.0,0.0,0.0684,-0.9928,0.2151,0.7957,-0.5904,-0.0969,0.0939
651,0.0,0.0,0.0,0.0,0.0,0.0,0.0694,-0.9782,0.2092,0.7965,-0.5894,-0.0965,0.0940
652,0.0,0.0,0.0,0.0,0.0,0.0,0.0645,-0.9616,0.2048,0.7972,-0.5885,-0.0962,0.0941
653,0.0,0.0,0.0,0.0,0.0,0.0,0.0620,-0.9601,0.2082,0.7977,-0.5878,-0.0961,0.0942
654,0.0,0.0,0.0,0.0,0.0,0.0,0.0660,-0.9680,0.2156,0.7982,-0.5871,-0.0963,0.0943
655,0.0,0.0,0.0,0.0,0.0,0.0,0.0655,-0.9645,0.2180,0.7987,-0.5864,-0.0968,0.0944
656,0.0,0.0,0.0,0.0,0.0,0.0,0.0689,-0.9489,0.2146,0.7992,-0.5856,-0.0975,0.0945
657,0.0,0.0,0.0,0.0,0.0,0.0,0.0684,-0.9621,0.2219,0.7993,-0.5852,-0.0983,0.0948
658,0.0,0.0,0.0,0.0,0.0,0.0,0.0694,-0.9665,0.2273,0.7993,-0.5850,-0.0991,0.0953
659,0.0,0.0,0.0,0.0,0.0,0.0,0.0768,-0.9680,0.2268,0.7992,-0.5849,-0.1000,0.0961
660,0.0,0.0,0.0,0.0,0.0,0.0,0.0836,-0.9734,0.2264,0.7991,-0.5848,-0.1008,0.0970
661,0.0,0.0,0.0,0.0,0.0,0.0,0.0865,-0.9680,0.2220,0.7988,-0.5849,-0.1017,0.0976
662,0.0,0.0,0.0,0.0,0.0,0.0,0.0890,-0.9621,0.2156,0.7985,-0.5851,-0.1026,0.0980
663,0.0,0.0,0.0,0.0,0.0,0.0,0.0914,-0.9772,0.2176,0.7980,-0.5855,-0.1034,0.0983
664,0.0,0.0,0.0,0.0,0.0,0.0,0.0910,-0.9899,0.2171,0.7973,-0.5864,-0.1040,0.0984
665,0.0,0.0,0.0,0.0,0.0,0.0,0.0870,-0.9948,0.2132,0.7968,-0.5870,-0.1044,0.0982
666,0.0,0.0,0.0,0.0,0.0,0.0,0.0787,-0.9982,0.2112,0.7963,-0.5877,-0.1041,0.0977
667,0.0,0.0,0.0,0.0,0.0,0.0,0.0650,-1.0026,0.2107,0.7960,-0.5884,-0.1032,0.0972
668,0.0,0.0,0.0,0.0,0.0,0.0,0.0562,-1.0133,0.2175,0.7964,-0.5883,-0.1017,0.0967
669,0.0,0.0,0.0,0.0,0.0,0.0,0.0357,-1.0050,0.2180,0.7971,-0.5878,-0.0997,0.0962
670,0.0,0.0,0.0,0.0,0.0,0.0,0.0351,-0.9889,0.2175,0.7977,-0.5873,-0.0979,0.0958
671,0.0,0.0,0.0,0.0,0.0,0.0,0.0386,-0.9752,0.2194,0.7985,-0.5865,-0.0964,0.0955
672,0.0,0.0,0.0,0.0,0.0,0.0,0.0400,-0.9635,0.2185,0.7993,-0.5856,-0.0951,0.0954
673,0.0,0.0,0.0,0.0,0.0,0.0,0.0483,-0.9592,0.2200,0.8001,-0.5847,-0.0944,0.0953
674,0.0,0.0,0.0,0.0,0.0,0.0,0.0518,-0.9543,0.2185,0.8006,-0.5841,-0.0940,0.0952
675,0.0,0.0,0.0,0.0,0.0,0.0,0.0532,-0.9577,0.2209,0.8008,-0.5838,-0.0941,0.0949
676,0.0,0.0,0.0,0.0,0.0,0.0,0.0547,-0.9636,0.2273,0.8011,-0.5834,-0.0943,0.0947
677,0.0,0.0,0.0,0.0,0.0,0.0,0.0606,-0.9719,0.2307,0.8015,-0.5829,-0.0948,0.0945
678,0.0,0.0,0.0,0.0,0.0,0.0,0.0670,-0.9694,0.2273,0.8016,-0.5826,-0.0955,0.0942
679,0.0,0.0,0.0,0.0,0.0,0.0,0.0738,-0.9670,0.2254,0.8018,-0.5822,-0.0965,0.0939
680,0.0,0.0,0.0,0.0,0.0,0.0,0.0802,-0.9694,0.2239,0.8018,-0.5820,-0.0978,0.0937
681,0.0,0.0,0.0,0.0,0.0,0.0,0.0963,-0.9704,0.2205,0.8016,-0.5821,-0.0994,0.0935
682,0.0,0.0,0.0,0.0,0.0,0.0,0.0949,-0.9631,0.2230,0.8014,-0.5821,-0.1007,0.0932
683,0.0,0.0,0.0,0.0,0.0,0.0,0.0973,-0.9821,0.2283,0.8013,-0.5822,-0.1018,0.0930
684,0.0,0.0,0.0,0.0,0.0,0.0,0.0983,-0.9680,0.2200,0.8009,-0.5826,-0.1027,0.0928
685,0.0,0.0,0.0,0.0,0.0,0.0,0.1007,-0.9690,0.2196,0.8004,-0.5832,-0.1036,0.0928
686,0.0,0.0,0.0,0.0,0.0,0.0,0.0905,-0.9948,0.2274,0.8000,-0.5836,-0.1039,0.0928
687,0.0,0.0,0.0,0.0,0.0,0.0,0.0866,-1.0051,0.2342,0.8001,-0.5835,-0.1036,0.0930
688,0.0,0.0,0.0,0.0,0.0,0.0,0.0851,-1.0031,0.2347,0.8002,-0.5834,-0.1031,0.0934
689,0.0,0.0,0.0,0.0,0.0,0.0,0.0817,-0.9821,0.2288,0.8002,-0.5835,-0.1023,0.0939
690,0.0,0.0,0.0,0.0,0.0,0.0,0.0875,-0.9558,0.2210,0.8002,-0.5835,-0.1017,0.0943
691,0.0,0.0,0.0,0.0,0.0,0.0,0.0811,-0.9504,0.2185,0.7999,-0.5840,-0.1011,0.0946
692,0.0,0.0,0.0,0.0,0.0,0.0,0.0645,-0.9626,0.2190,0.7995,-0.5848,-0.0996,0.0947
693,0.0,0.0,0.0,0.0,0.0,0.0,0.0699,-0.9572,0.2171,0.7988,-0.5857,-0.0990,0.0950
694,0.0,0.0,0.0,0.0,0.0,0.0,0.0582,-0.9787,0.2258,0.7980,-0.5869,-0.0983,0.0952
695,0.0,0.0,0.0,0.0,0.0,0.0,0.0479,-0.9943,0.2268,0.7973,-0.5880,-0.0972,0.0953
696,0.0,0.0,0.0,0.0,0.0,0.0,0.0606,-0.9943,0.2234,0.7972,-0.5882,-0.0968,0.0955
697,0.0,0.0,0.0,0.0,0.0,0.0,0.0415,-0.9796,0.2204,0.7973,-0.5881,-0.0961,0.0955
698,0.0,0.0,0.0,0.0,0.0,0.0,0.0449,-0.9640,0.2126,0.7974,-0.5881,-0.0956,0.0956
699,0.0,0.0,0.0,0.0,0.0,0.0,0.0522,-0.9562,0.2092,0.7974,-0.5881,-0.0953,0.0960
700,0.0,0.0,0.0,0.0,0.0,0.0,0.0522,-0.9611,0.2117,0.7970,-0.5886,-0.0953,0.0962
701,0.0,0.0,0.0,0.0,0.0,0.0,0.0449,-0.9723,0.2146,0.7967,-0.5890,-0.0951,0.0965
702,0.0,0.0,0.0,0.0,0.0,0.0,0.0459,-0.9713,0.2131,0.7963,-0.5894,-0.0951,0.0969
703,0.0,0.0,0.0,0.0,0.0,0.0,0.0440,-0.9850,0.2170,0.7958,-0.5900,-0.0954,0.0974
704,0.0,0.0,0.0,0.0,0.0,0.0,0.0489,-0.9977,0.2214,0.7953,-0.5905,-0.0958,0.0979
705,0.0,0.0,0.0,0.0,0.0,0.0,0.0557,-1.0045,0.2229,0.7952,-0.5905,-0.0963,0.0984
706,0.0,0.0,0.0,0.0,0.0,0.0,0.0548,-1.0031,0.2234,0.7953,-0.5903,-0.0964,0.0990
707,0.0,0.0,0.0,0.0,0.0,0.0,0.0641,-1.0036,0.2215,0.7954,-0.5900,-0.0966,0.0994
708,0.0,0.0,0.0,0.0,0.0,0.0,0.0684,-0.9889,0.2107,0.7952,-0.5901,-0.0969,0.0997
709,0.0,0.0,0.0,0.0,0.0,0.0,0.0679,-0.9640,0.1995,0.7951,-0.5903,-0.0971,0.0997
710,0.0,0.0,0.0,0.0,0.0,0.0,0.0601,-0.9899,0.2087,0.7951,-0.5903,-0.0969,0.0996
711,0.0,0.0,0.0,0.0,0.0,0.0,0.0552,-0.9831,0.2073,0.7953,-0.5902,-0.0962,0.0994
712,0.0,0.0,0.0,0.0,0.0,0.0,0.0542,-0.9835,0.2107,0.7954,-0.5903,-0.0957,0.0990
713,0.0,0.0,0.0,0.0,0.0,0.0,0.0459,-0.9894,0.2141,0.7956,-0.5902,-0.0950,0.0986
714,0.0,0.0,0.0,0.0,0.0,0.0,0.0440,-0.9982,0.2234,0.7960,-0.5898,-0.0940,0.0983
715,0.0,0.0,0.0,0.0,0.0,0.0,0.0367,-1.0104,0.2336,0.7968,-0.5890,-0.0926,0.0982
716,0.0,0.0,0.0,0.0,0.0,0.0,0.0362,-1.0162,0.2405,0.7980,-0.5875,-0.0910,0.0985
717,0.0,0.0,0.0,0.0,0.0,0.0,0.0421,-1.0133,0.2395,0.7995,-0.5856,-0.0894,0.0992
718,0.0,0.0,0.0,0.0,0.0,0.0,0.0513,-0.9553,0.2224,0.8009,-0.5837,-0.0884,0.0998
719,0.0,0.0,0.0,0.0,0.0,0.0,0.0513,-0.9641,0.2273,0.8019,-0.5824,-0.0878,0.1006
720,0.0,0.0,0.0,0.0,0.0,0.0,0.0542,-0.9631,0.2273,0.8027,-0.5812,-0.0873,0.1015
721,0.0,0.0,0.0,0.0,0.0,0.0,0.0581,-0.9397,0.2200,0.8033,-0.5802,-0.0871,0.1024
722,0.0,0.0,0.0,0.0,0.0,0.0,0.0591,-0.9343,0.2190,0.8038,-0.5795,-0.0872,0.1029
723,0.0,0.0,0.0,0.0,0.0,0.0,0.0532,-0.9372,0.2214,0.8040,-0.5791,-0.0873,0.1033
724,0.0,0.0,0.0,0.0,0.0,0.0,0.0581,-0.9411,0.2239,0.8039,-0.5791,-0.0880,0.1036
725,0.0,0.0,0.0,0.0,0.0,0.0,0.0557,-0.9572,0.2307,0.8035,-0.5795,-0.0887,0.1036
726,0.0,0.0,0.0,0.0,0.0,0.0,0.0513,-0.9719,0.2361,0.8030,-0.5801,-0.0891,0.1035
727,0.0,0.0,0.0,0.0,0.0,0.0,0.0484,-0.9733,0.2336,0.8027,-0.5805,-0.0894,0.1031
728,0.0,0.0,0.0,0.0,0.0,0.0,0.0435,-0.9792,0.2351,0.8025,-0.5809,-0.0895,0.1025
729,0.0,0.0,0.0,0.0,0.0,0.0,0.0401,-0.9963,0.2424,0.8022,-0.5814,-0.0894,0.1019
730,0.0,0.0,0.0,0.0,0.0,0.0,0.0337,-0.9958,0.2434,0.8022,-0.5817,-0.0891,0.1013
731,0.0,0.0,0.0,0.0,0.0,0.0,0.0317,-0.9860,0.2380,0.8022,-0.5818,-0.0886,0.1007
732,0.0,0.0,0.0,0.0,0.0,0.0,0.0337,-0.9865,0.2395,0.8023,-0.5817,-0.0882,0.1005
733,0.0,0.0,0.0,0.0,0.0,0.0,0.0371,-0.9821,0.2419,0.8026,-0.5815,-0.0879,0.1003
734,0.0,0.0,0.0,0.0,0.0,0.0,0.0396,-0.9748,0.2400,0.8027,-0.5812,-0.0878,0.1002
735,0.0,0.0,0.0,0.0,0.0,0.0,0.0435,-0.9724,0.2400,0.8030,-0.5809,-0.0878,0.1001
736,0.0,0.0,0.0,0.0,0.0,0.0,0.0469,-0.9655,0.2395,0.8032,-0.5807,-0.0879,0.1002
737,0.0,0.0,0.0,0.0,0.0,0.0,0.0484,-0.9670,0.2380,0.8033,-0.5804,-0.0881,0.1004
738,0.0,0.0,0.0,0.0,0.0,0.0,0.0552,-0.9568,0.2356,0.8034,-0.5802,-0.0885,0.1005
739,0.0,0.0,0.0,0.0,0.0,0.0,0.0616,-0.9587,0.2356,0.8032,-0.5803,-0.0894,0.1006
740,0.0,0.0,0.0,0.0,0.0,0.0,0.0640,-0.9699,0.2371,0.8030,-0.5805,-0.0901,0.1006
741,0.0,0.0,0.0,0.0,0.0,0.0,0.0645,-0.9680,0.2342,0.8027,-0.5808,-0.0908,0.1005
742,0.0,0.0,0.0,0.0,0.0,0.0,0.0684,-0.9665,0.2322,0.8025,-0.5810,-0.0914,0.1003
743,0.0,0.0,0.0,0.0,0.0,0.0,0.0660,-0.9704,0.2298,0.8023,-0.5812,-0.0917,0.1002
744,0.0,0.0,0.0,0.0,0.0,0.0,0.0616,-0.9816,0.2307,0.8021,-0.5816,-0.0918,0.1000
745,0.0,0.0,0.0,0.0,0.0,0.0,0.0577,-0.9855,0.2317,0.8018,-0.5820,-0.0918,0.0998
746,0.0,0.0,0.0,0.0,0.0,0.0,0.0489,-0.9860,0.2302,0.8015,-0.5826,-0.0915,0.0996
747,0.0,0.0,0.0,0.0,0.0,0.0,0.0454,-0.9875,0.2312,0.8012,-0.5830,-0.0912,0.0993
748,0.0,0.0,0.0,0.0,0.0,0.0,0.0494,-0.9894,0.2351,0.8010,-0.5833,-0.0910,0.0990
749,0.0,0.0,0.0,0.0,0.0,0.0,0.0469,-0.9924,0.2375,0.8011,-0.5833,-0.0908,0.0988
750,0.0,0.0,0.0,0.0,0.0,0.0,0.0449,-0.9650,0.2312,0.8012,-0.5832,-0.0904,0.0988
751,0.0,0.0,0.0,0.0,0.0,0.0,0.0386,-0.9626,0.2317,0.8013,-0.5832,-0.0899,0.0989
752,0.0,0.0,0.0,0.0,0.0,0.0,0.0430,-0.9597,0.2302,0.8012,-0.5833,-0.0896,0.0991
753,0.0,0.0,0.0,0.0,0.0,0.0,0.0518,-0.9582,0.2292,0.8009,-0.5837,-0.0899,0.0992
754,0.0,0.0,0.0,0.0,0.0,0.0,0.0493,-0.9602,0.2283,0.8007,-0.5839,-0.0901,0.0991
755,0.0,0.0,0.0,0.0,0.0,0.0,0.0537,-0.9650,0.2302,0.8005,-0.5841,-0.0905,0.0990
756,0.0,0.0,0.0,0.0,0.0,0.0,0.0533,-0.9719,0.2317,0.8001,-0.5847,-0.0908,0.0987
757,0.0,0.0,0.0,0.0,0.0,0.0,0.0503,-0.9763,0.2317,0.7996,-0.5853,-0.0910,0.0986
758,0.0,0.0,0.0,0.0,0.0,0.0,0.0518,-0.9885,0.2336,0.7993,-0.5858,-0.0912,0.0983
759,0.0,0.0,0.0,0.0,0.0,0.0,0.0499,-0.9909,0.2312,0.7991,-0.5861,-0.0912,0.0978
760,0.0,0.0,0.0,0.0,0.0,0.0,0.0508,-0.9797,0.2234,0.7989,-0.5865,-0.0910,0.0975
761,0.0,0.0,0.0,0.0,0.0,0.0,0.0513,-0.9792,0.2190,0.7986,-0.5869,-0.0909,0.0973
762,0.0,0.0,0.0,0.0,0.0,0.0,0.0518,-0.9889,0.2185,0.7983,-0.5873,-0.0908,0.0972
763,0.0,0.0,0.0,0.0,0.0,0.0,0.0518,-0.9967,0.2190,0.7980,-0.5878,-0.0906,0.0972
764,0.0,0.0,0.0,0.0,0.0,0.0,0.0523,-1.0011,0.2200,0.7981,-0.5878,-0.0901,0.0973
765,0.0,0.0,0.0,0.0,0.0,0.0,0.0503,-0.9923,0.2180,0.7982,-0.5876,-0.0894,0.0975
766,0.0,0.0,0.0,0.0,0.0,0.0,0.0498,-0.9811,0.2151,0.7982,-0.5877,-0.0890,0.0976
767,0.0,0.0,0.0,0.0,0.0,0.0,0.0508,-0.9748,0.2141,0.7982,-0.5878,-0.0886,0.0976
768,0.0,0.0,0.0,0.0,0.0,0.0,0.0454,-0.9679,0.2151,0.7982,-0.5879,-0.0882,0.0977
769,0.0,0.0,0.0,0.0,0.0,0.0,0.0425,-0.9640,0.2165,0.7982,-0.5879,-0.0878,0.0976
770,0.0,0.0,0.0,0.0,0.0,0.0,0.0405,-0.9684,0.2209,0.7984,-0.5877,-0.0874,0.0975
771,0.0,0.0,0.0,0.0,0.0,0.0,0.0400,-0.9699,0.2224,0.7983,-0.5879,-0.0872,0.0974
772,0.0,0.0,0.0,0.0,0.0,0.0,0.0410,-0.9767,0.2283,0.7982,-0.5880,-0.0873,0.0973
773,0.0,0.0,0.0,0.0,0.0,0.0,0.0420,-0.9723,0.2258,0.7982,-0.5880,-0.0873,0.0973
774,0.0,0.0,0.0,0.0,0.0,0.0,0.0503,-0.9797,0.2258,0.7981,-0.5881,-0.0877,0.0971
775,0.0,0.0,0.0,0.0,0.0,0.0,0.0420,-0.9718,0.2195,0.7981,-0.5882,-0.0878,0.0968
776,0.0,0.0,0.0,0.0,0.0,0.0,0.0474,-0.9670,0.2136,0.7979,-0.5884,-0.0882,0.0967
777,0.0,0.0,0.0,0.0,0.0,0.0,0.0528,-0.9738,0.2146,0.7974,-0.5890,-0.0892,0.0965
778,0.0,0.0,0.0,0.0,0.0,0.0,0.0498,-0.9855,0.2180,0.7970,-0.5895,-0.0898,0.0964
779,0.0,0.0,0.0,0.0,0.0,0.0,0.0518,-0.9919,0.2234,0.7968,-0.5896,-0.0904,0.0962
780,0.0,0.0,0.0,0.0,0.0,0.0,0.0538,-1.0006,0.2312,0.7969,-0.5895,-0.0908,0.0961
781,0.0,0.0,0.0,0.0,0.0,0.0,0.0523,-0.9748,0.2161,0.7968,-0.5896,-0.0910,0.0960
782,0.0,0.0,0.0,0.0,0.0,0.0,0.0488,-0.9777,0.2151,0.7967,-0.5897,-0.0911,0.0959
783,0.0,0.0,0.0,0.0,0.0,0.0,0.0459,-0.9845,0.2160,0.7967,-0.5897,-0.0910,0.0961
784,0.0,0.0,0.0,0.0,0.0,0.0,0.0484,-0.9806,0.2151,0.7965,-0.5899,-0.0913,0.0963
785,0.0,0.0,0.0,0.0,0.0,0.0,0.0552,-1.0016,0.2229,0.7966,-0.5897,-0.0917,0.0964
786,0.0,0.0,0.0,0.0,0.0,0.0,0.0606,-0.9948,0.2210,0.7969,-0.5893,-0.0919,0.0966
787,0.0,0.0,0.0,0.0,0.0,0.0,0.0650,-0.9777,0.2141,0.7971,-0.5889,-0.0922,0.0967
788,0.0,0.0,0.0,0.0,0.0,0.0,0.0625,-0.9675,0.2097,0.7972,-0.5887,-0.0923,0.0967
789,0.0,0.0,0.0,0.0,0.0,0.0,0.0606,-0.9655,0.2092,0.7971,-0.5888,-0.0925,0.0967
790,0.0,0.0,0.0,0.0,0.0,0.0,0.0581,-0.9743,0.2122,0.7971,-0.5887,-0.0927,0.0967
791,0.0,0.0,0.0,0.0,0.0,0.0,0.0586,-0.9787,0.2117,0.7971,-0.5887,-0.0930,0.0966
792,0.0,0.0,0.0,0.0,0.0,0.0,0.0586,-0.9796,0.2112,0.7969,-0.5890,-0.0933,0.0966
793,0.0,0.0,0.0,0.0,0.0,0.0,0.0601,-0.9811,0.2107,0.7968,-0.5891,-0.0935,0.0964
794,0.0,0.0,0.0,0.0,0.0,0.0,0.0606,-0.9748,0.2073,0.7966,-0.5894,-0.0936,0.0963
795,0.0,0.0,0.0,0.0,0.0,0.0,0.0616,-0.9728,0.2058,0.7966,-0.5895,-0.0937,0.0961
796,0.0,0.0,0.0,0.0,0.0,0.0,0.0611,-0.9743,0.2043,0.7963,-0.5898,-0.0941,0.0957
797,0.0,0.0,0.0,0.0,0.0,0.0,0.0601,-0.9777,0.2063,0.7959,-0.5903,-0.0944,0.0954
798,0.0,0.0,0.0,0.0,0.0,0.0,0.0571,-0.9743,0.2029,0.7956,-0.5909,-0.0947,0.0949
799,0.0,0.0,0.0,0.0,0.0,0.0,0.0562,-0.9826,0.2063,0.7954,-0.5912,-0.0949,0.0944
800,0.0,0.0,0.0,0.0,0.0,0.0,0.0562,-0.9806,0.2068,0.7952,-0.5914,-0.0950,0.0940
801,0.0,0.0,0.0,0.0,0.0,0.0,0.0611,-0.9899,0.2131,0.7950,-0.5917,-0.0952,0.0938
802,0.0,0.0,0.0,0.0,0.0,0.0,0.0635,-0.9938,0.2151,0.7950,-0.5917,-0.0952,0.0936
803,0.0,0.0,0.0,0.0,0.0,0.0,0.0596,-0.9865,0.2117,0.7949,-0.5919,-0.0951,0.0936
804,0.0,0.0,0.0,0.0,0.0,0.0,0.0587,-0.9962,0.2190,0.7949,-0.5919,-0.0949,0.0937
805,0.0,0.0,0.0,0.0,0.0,0.0,0.0616,-1.0002,0.2234,0.7951,-0.5916,-0.0946,0.0939
806,0.0,0.0,0.0,0.0,0.0,0.0,0.0572,-0.9909,0.2209,0.7956,-0.5910,-0.0939,0.0942
807,0.0,0.0,0.0,0.0,0.0,0.0,0.0586,-0.9860,0.2190,0.7961,-0.5904,-0.0932,0.0946
808,0.0,0.0,0.0,0.0,0.0,0.0,0.0547,-0.9879,0.2209,0.7966,-0.5898,-0.0925,0.0950
809,0.0,0.0,0.0,0.0,0.0,0.0,0.0591,-0.9797,0.2170,0.7969,-0.5894,-0.0921,0.0956
810,0.0,0.0,0.0,0.0,0.0,0.0,0.0581,-0.9333,0.2024,0.7970,-0.5891,-0.0919,0.0961
811,0.0,0.0,0.0,0.0,0.0,0.0,0.0635,-0.9680,0.2146,0.7968,-0.5892,-0.0923,0.0965
812,0.0,0.0,0.0,0.0,0.0,0.0,0.0670,-0.9958,0.2259,0.7966,-0.5895,-0.0925,0.0967
813,0.0,0.0,0.0,0.0,0.0,0.0,0.0611,-0.9919,0.2229,0.7965,-0.5897,-0.0922,0.0968
814,0.0,0.0,0.0,0.0,0.0,0.0,0.0582,-0.9943,0.2205,0.7966,-0.5896,-0.0915,0.0969
815,0.0,0.0,0.0,0.0,0.0,0.0,0.0557,-0.9850,0.2165,0.7969,-0.5894,-0.0906,0.0968
816,0.0,0.0,0.0,0.0,0.0,0.0,0.0479,-0.9865,0.2180,0.7974,-0.5889,-0.0895,0.0967
817,0.0,0.0,0.0,0.0,0.0,0.0,0.0430,-0.9913,0.2199,0.7979,-0.5884,-0.0882,0.0966
818,0.0,0.0,0.0,0.0,0.0,0.0,0.0386,-0.9918,0.2234,0.7984,-0.5880,-0.0868,0.0965
819,0.0,0.0,0.0,0.0,0.0,0.0,0.0342,-0.9840,0.2243,0.7988,-0.5877,-0.0855,0.0964
820,0.0,0.0,0.0,0.0,0.0,0.0,0.0327,-0.9621,0.2175,0.7993,-0.5872,-0.0843,0.0962
821,0.0,0.0,0.0,0.0,0.0,0.0,0.0322,-0.9416,0.2097,0.7994,-0.5871,-0.0836,0.0962
822,0.0,0.0,0.0,0.0,0.0,0.0,0.0307,-0.9601,0.2170,0.7995,-0.5871,-0.0833,0.0961
823,0.0,0.0,0.0,0.0,0.0,0.0,0.0317,-0.9543,0.2141,0.7995,-0.5871,-0.0832,0.0960
824,0.0,0.0,0.0,0.0,0.0,0.0,0.0366,-0.9601,0.2155,0.7991,-0.5876,-0.0838,0.0958
825,0.0,0.0,0.0,0.0,0.0,0.0,0.0395,-0.9709,0.2204,0.7989,-0.5878,-0.0844,0.0958
826,0.0,0.0,0.0,0.0,0.0,0.0,0.0503,-0.9743,0.2234,0.7987,-0.5879,-0.0854,0.0956
827,0.0,0.0,0.0,0.0,0.0,0.0,0.0552,-0.9772,0.2249,0.7985,-0.5880,-0.0866,0.0953
828,0.0,0.0,0.0,0.0,0.0,0.0,0.0626,-0.9865,0.2302,0.7986,-0.5878,-0.0876,0.0950
829,0.0,0.0,0.0,0.0,0.0,0.0,0.0685,-0.9831,0.2283,0.7986,-0.5877,-0.0887,0.0946
830,0.0,0.0,0.0,0.0,0.0,0.0,0.0596,-0.9719,0.2205,0.7985,-0.5878,-0.0894,0.0940
831,0.0,0.0,0.0,0.0,0.0,0.0,0.0611,-0.9631,0.2175,0.7983,-0.5881,-0.0900,0.0938
832,0.0,0.0,0.0,0.0,0.0,0.0,0.0601,-0.9699,0.2180,0.7981,-0.5883,-0.0906,0.0934
833,0.0,0.0,0.0,0.0,0.0,0.0,0.0581,-0.9743,0.2170,0.7977,-0.5888,-0.0911,0.0932
834,0.0,0.0,0.0,0.0,0.0,0.0,0.0611,-0.9792,0.2190,0.7973,-0.5892,-0.0917,0.0930
835,0.0,0.0,0.0,0.0,0.0,0.0,0.0640,-0.9928,0.2224,0.7972,-0.5894,-0.0920,0.0929
836,0.0,0.0,0.0,0.0,0.0,0.0,0.0606,-0.9880,0.2190,0.7970,-0.5896,-0.0921,0.0928
837,0.0,0.0,0.0,0.0,0.0,0.0,0.0631,-0.9899,0.2175,0.7968,-0.5899,-0.0923,0.0927
838,0.0,0.0,0.0,0.0,0.0,0.0,0.0596,-0.9909,0.2166,0.7969,-0.5898,-0.0921,0.0925
839,0.0,0.0,0.0,0.0,0.0,0.0,0.0572,-0.9845,0.2161,0.7971,-0.5896,-0.0917,0.0923
840,0.0,0.0,0.0,0.0,0.0,0.0,0.0567,-0.9801,0.2156,0.7971,-0.5897,-0.0915,0.0921
841,0.0,0.0,0.0,0.0,0.0,0.0,0.0542,-0.9816,0.2170,0.7971,-0.5898,-0.0913,0.0919
842,0.0,0.0,0.0,0.0,0.0,0.0,0.0498,-0.9782,0.2185,0.7971,-0.5899,-0.0911,0.0918
843,0.0,0.0,0.0,0.0,0.0,0.0,0.0464,-0.9894,0.2244,0.7973,-0.5897,-0.0908,0.0917
844,0.0,0.0,0.0,0.0,0.0,0.0,0.0459,-0.9718,0.2195,0.7977,-0.5892,-0.0903,0.0917
845,0.0,0.0,0.0,0.0,0.0,0.0,0.0518,-0.9640,0.2185,0.7979,-0.5888,-0.0904,0.0920
846,0.0,0.0,0.0,0.0,0.0,0.0,0.0538,-0.9826,0.2244,0.7980,-0.5886,-0.0905,0.0923
847,0.0,0.0,0.0,0.0,0.0,0.0,0.0547,-0.9787,0.2205,0.7981,-0.5884,-0.0907,0.0926
848,0.0,0.0,0.0,0.0,0.0,0.0,0.0621,-0.9772,0.2190,0.7983,-0.5881,-0.0913,0.0929
849,0.0,0.0,0.0,0.0,0.0,0.0,0.0655,-0.9728,0.2175,0.7983,-0.5879,-0.0920,0.0932
850,0.0,0.0,0.0,0.0,0.0,0.0,0.0655,-0.9689,0.2166,0.7982,-0.5879,-0.0926,0.0934
851,0.0,0.0,0.0,0.0,0.0,0.0,0.0714,-0.9743,0.2175,0.7981,-0.5879,-0.0933,0.0935
852,0.0,0.0,0.0,0.0,0.0,0.0,0.0733,-0.9758,0.2161,0.7978,-0.5881,-0.0942,0.0935
853,0.0,0.0,0.0,0.0,0.0,0.0,0.0723,-0.9772,0.2156,0.7977,-0.5881,-0.0949,0.0936
854,0.0,0.0,0.0,0.0,0.0,0.0,0.0714,-0.9753,0.2151,0.7976,-0.5882,-0.0953,0.0936
855,0.0,0.0,0.0,0.0,0.0,0.0,0.0694,-0.9782,0.2127,0.7972,-0.5887,-0.0959,0.0935
856,0.0,0.0,0.0,0.0,0.0,0.0,0.0665,-0.9806,0.2092,0.7967,-0.5893,-0.0963,0.0934
857,0.0,0.0,0.0,0.0,0.0,0.0,0.0640,-0.9718,0.2053,0.7963,-0.5898,-0.0966,0.0933
858,0.0,0.0,0.0,0.0,0.0,0.0,0.0630,-0.9840,0.2063,0.7957,-0.5905,-0.0969,0.0932
859,0.0,0.0,0.0,0.0,0.0,0.0,0.0621,-0.9904,0.2053,0.7953,-0.5911,-0.0971,0.0931
860,0.0,0.0,0.0,0.0,0.0,0.0,0.0596,-0.9865,0.2029,0.7949,-0.5917,-0.0971,0.0933
861,0.0,0.0,0.0,0.0,0.0,0.0,0.0684,-0.9796,0.1995,0.7945,-0.5921,-0.0974,0.0935
862,0.0,0.0,0.0,0.0,0.0,0.0,0.0659,-0.9684,0.1955,0.7942,-0.5925,-0.0976,0.0935
863,0.0,0.0,0.0,0.0,0.0,0.0,0.0625,-0.9718,0.1970,0.7935,-0.5932,-0.0981,0.0935
864,0.0,0.0,0.0,0.0,0.0,0.0,0.0665,-0.9889,0.2024,0.7930,-0.5938,-0.0986,0.0935
865,0.0,0.0,0.0,0.0,0.0,0.0,0.0630,-0.9909,0.2039,0.7928,-0.5941,-0.0987,0.0934
866,0.0,0.0,0.0,0.0,0.0,0.0,0.0630,-0.9933,0.2078,0.7925,-0.5945,-0.0988,0.0933
867,0.0,0.0,0.0,0.0,0.0,0.0,0.0650,-0.9923,0.2087,0.7924,-0.5946,-0.0990,0.0931
868,0.0,0.0,0.0,0.0,0.0,0.0,0.0601,-0.9904,0.2073,0.7924,-0.5947,-0.0990,0.0929
869,0.0,0.0,0.0,0.0,0.0,0.0,0.0620,-0.9782,0.2019,0.7924,-0.5948,-0.0990,0.0928
870,0.0,0.0,0.0,0.0,0.0,0.0,0.0699,-0.9704,0.1975,0.7922,-0.5949,-0.0993,0.0927
871,0.0,0.0,0.0,0.0,0.0,0.0,0.0718,-0.9709,0.1965,0.7921,-0.5951,-0.0998,0.0927
872,0.0,0.0,0.0,0.0,0.0,0.0,0.0718,-0.9772,0.1990,0.7918,-0.5953,-0.1004,0.0924
873,0.0,0.0,0.0,0.0,0.0,0.0,0.0684,-0.9870,0.2004,0.7917,-0.5954,-0.1007,0.0923
874,0.0,0.0,0.0,0.0,0.0,0.0,0.0694,-1.0050,0.2044,0.7916,-0.5956,-0.1009,0.0922
875,0.0,0.0,0.0,0.0,0.0,0.0,0.0714,-0.9982,0.2048,0.7917,-0.5954,-0.1008,0.0921
876,0.0,0.0,0.0,0.0,0.0,0.0,0.0816,-0.9777,0.1936,0.7917,-0.5954,-0.1012,0.0921
877,0.0,0.0,0.0,0.0,0.0,0.0,0.0851,-0.9806,0.1941,0.7915,-0.5956,-0.1018,0.0918
878,0.0,0.0,0.0,0.0,0.0,0.0,0.0826,-0.9787,0.1936,0.7915,-0.5956,-0.1020,0.0915
879,0.0,0.0,0.0,0.0,0.0,0.0,0.0826,-0.9884,0.1951,0.7914,-0.5958,-0.1020,0.0913
880,0.0,0.0,0.0,0.0,0.0,0.0,0.0758,-1.0074,0.1980,0.7914,-0.5959,-0.1016,0.0912
881,0.0,0.0,0.0,0.0,0.0,0.0,0.0762,-0.9918,0.1912,0.7914,-0.5959,-0.1011,0.0912
882,0.0,0.0,0.0,0.0,0.0,0.0,0.0738,-0.9840,0.1882,0.7915,-0.5959,-0.1006,0.0912
883,0.0,0.0,0.0,0.0,0.0,0.0,0.0713,-0.9806,0.1882,0.7917,-0.5957,-0.1001,0.0911
884,0.0,0.0,0.0,0.0,0.0,0.0,0.0709,-0.9835,0.1926,0.7917,-0.5958,-0.0997,0.0910
885,0.0,0.0,0.0,0.0,0.0,0.0,0.0679,-0.9830,0.1956,0.7917,-0.5959,-0.0992,0.0909
886,0.0,0.0,0.0,0.0,0.0,0.0,0.0684,-0.9909,0.2014,0.7919,-0.5957,-0.0987,0.0909
887,0.0,0.0,0.0,0.0,0.0,0.0,0.0709,-0.9923,0.2039,0.7922,-0.5954,-0.0981,0.0910
888,0.0,0.0,0.0,0.0,0.0,0.0,0.0640,-0.9884,0.2043,0.7926,-0.5950,-0.0975,0.0909
889,0.0,0.0,0.0,0.0,0.0,0.0,0.0591,-0.9806,0.2009,0.7931,-0.5944,-0.0966,0.0908
890,0.0,0.0,0.0,0.0,0.0,0.0,0.0586,-0.9787,0.2024,0.7935,-0.5941,-0.0959,0.0907
891,0.0,0.0,0.0,0.0,0.0,0.0,0.0537,-0.9791,0.2073,0.7939,-0.5937,-0.0952,0.0908
892,0.0,0.0,0.0,0.0,0.0,0.0,0.0567,-0.9796,0.2131,0.7944,-0.5930,-0.0946,0.0910
893,0.0,0.0,0.0,0.0,0.0,0.0,0.0586,-0.9714,0.2136,0.7947,-0.5926,-0.0944,0.0912
894,0.0,0.0,0.0,0.0,0.0,0.0,0.0601,-0.9787,0.2195,0.7950,-0.5922,-0.0942,0.0914
895,0.0,0.0,0.0,0.0,0.0,0.0,0.0615,-0.9514,0.2068,0.7953,-0.5919,-0.0941,0.0915
896,0.0,0.0,0.0,0.0,0.0,0.0,0.0522,-0.9592,0.2121,0.7955,-0.5916,-0.0940,0.0916
897,0.0,0.0,0.0,0.0,0.0,0.0,0.0616,-0.9875,0.2234,0.7957,-0.5912,-0.0941,0.0919
898,0.0,0.0,0.0,0.0,0.0,0.0,0.0694,-0.9836,0.2215,0.7959,-0.5910,-0.0945,0.0919
899,0.0,0.0,0.0,0.0,0.0,0.0,0.0728,-0.9431,0.2078,0.7959,-0.5908,-0.0952,0.0918
900,0.0,0.0,0.0,0.0,0.0,0.0,0.0752,-0.9299,0.1970,0.7955,-0.5912,-0.0963,0.0917
901,0.0,0.0,0.0,0.0,0.0,0.0,0.0816,-0.9182,0.1902,0.7946,-0.5922,-0.0980,0.0911
902,0.0,0.0,0.0,0.0,0.0,0.0,0.0679,-0.9767,0.2083,0.7934,-0.5937,-0.0996,0.0906
903,0.0,0.0,0.0,0.0,0.0,0.0,0.0631,-1.0153,0.2146,0.7925,-0.5947,-0.1005,0.0903
904,0.0,0.0,0.0,0.0,0.0,0.0,0.0719,-1.0104,0.2097,0.7919,-0.5955,-0.1011,0.0902
905,0.0,0.0,0.0,0.0,0.0,0.0,0.0694,-1.0118,0.2063,0.7913,-0.5961,-0.1015,0.0903
906,0.0,0.0,0.0,0.0,0.0,0.0,0.0704,-1.0084,0.2053,0.7912,-0.5962,-0.1015,0.0904
907,0.0,0.0,0.0,0.0,0.0,0.0,0.0773,-1.0031,0.2068,0.7913,-0.5962,-0.1017,0.0904
908,0.0,0.0,0.0,0.0,0.0,0.0,0.0797,-1.0153,0.2161,0.7915,-0.5959,-0.1017,0.0904
909,0.0,0.0,0.0,0.0,0.0,0.0,0.0723,-0.9831,0.2078,0.7919,-0.5953,-0.1011,0.0903
910,0.0,0.0,0.0,0.0,0.0,0.0,0.0650,-0.9796,0.2043,0.7924,-0.5949,-0.1003,0.0902
911,0.0,0.0,0.0,0.0,0.0,0.0,0.0606,-0.9835,0.2038,0.7929,-0.5943,-0.0994,0.0903
912,0.0,0.0,0.0,0.0,0.0,0.0,0.0552,-0.9830,0.2019,0.7934,-0.5939,-0.0985,0.0903
913,0.0,0.0,0.0,0.0,0.0,0.0,0.0640,-0.9899,0.2058,0.7938,-0.5934,-0.0980,0.0904
914,0.0,0.0,0.0,0.0,0.0,0.0,0.0621,-0.9894,0.2058,0.7942,-0.5929,-0.0974,0.0905
915,0.0,0.0,0.0,0.0,0.0,0.0,0.0601,-0.9826,0.2019,0.7947,-0.5924,-0.0969,0.0907
916,0.0,0.0,0.0,0.0,0.0,0.0,0.0664,-0.9713,0.1970,0.7949,-0.5920,-0.0966,0.0909
917,0.0,0.0,0.0,0.0,0.0,0.0,0.0674,-0.9660,0.1936,0.7951,-0.5918,-0.0964,0.0911
918,0.0,0.0,0.0,0.0,0.0,0.0,0.0659,-0.9723,0.1951,0.7952,-0.5917,-0.0963,0.0912
919,0.0,0.0,0.0,0.0,0.0,0.0,0.0650,-0.9865,0.1990,0.7953,-0.5916,-0.0962,0.0911
920,0.0,0.0,0.0,0.0,0.0,0.0,0.0655,-0.9865,0.1985,0.7956,-0.5912,-0.0960,0.0910
921,0.0,0.0,0.0,0.0,0.0,0.0,0.0669,-0.9816,0.1975,0.7959,-0.5907,-0.0960,0.0909
922,0.0,0.0,0.0,0.0,0.0,0.0,0.0689,-0.9865,0.2004,0.7962,-0.5904,-0.0962,0.0908
923,0.0,0.0,0.0,0.0,0.0,0.0,0.0714,-0.9870,0.2034,0.7965,-0.5900,-0.0965,0.0908
924,0.0,0.0,0.0,0.0,0.0,0.0,0.0748,-0.9836,0.2068,0.7970,-0.5893,-0.0969,0.0908
925,0.0,0.0,0.0,0.0,0.0,0.0,0.0777,-0.9787,0.2078,0.7975,-0.5885,-0.0973,0.0909
926,0.0,0.0,0.0,0.0,0.0,0.0,0.0772,-0.9782,0.2097,0.7980,-0.5877,-0.0976,0.0910
927,0.0,0.0,0.0,0.0,0.0,0.0,0.0841,-0.9738,0.2117,0.7984,-0.5870,-0.0981,0.0913
928,0.0,0.0,0.0,0.0,0.0,0.0,0.0875,-0.9724,0.2137,0.7989,-0.5862,-0.0987,0.0915
929,0.0,0.0,0.0,0.0,0.0,0.0,0.0822,-0.9846,0.2220,0.7993,-0.5856,-0.0990,0.0918
930,0.0,0.0,0.0,0.0,0.0,0.0,0.0866,-0.9836,0.2249,0.7997,-0.5849,-0.0993,0.0920
931,0.0,0.0,0.0,0.0,0.0,0.0,0.0875,-0.9699,0.2205,0.8000,-0.5845,-0.0996,0.0924
932,0.0,0.0,0.0,0.0,0.0,0.0,0.0880,-0.9768,0.2225,0.8001,-0.5841,-0.1001,0.0926
933,0.0,0.0,0.0,0.0,0.0,0.0,0.0885,-0.9851,0.2254,0.8003,-0.5839,-0.1004,0.0926
934,0.0,0.0,0.0,0.0,0.0,0.0,0.0861,-0.9826,0.2254,0.8004,-0.5836,-0.1003,0.0928
935,0.0,0.0,0.0,0.0,0.0,0.0,0.0836,-0.9836,0.2254,0.8006,-0.5834,-0.1002,0.0927
936,0.0,0.0,0.0,0.0,0.0,0.0,0.0812,-0.9763,0.2239,0.8009,-0.5831,-0.1000,0.0924
937,0.0,0.0,0.0,0.0,0.0,0.0,0.0782,-0.9743,0.2249,0.8013,-0.5827,-0.0996,0.0922
938,0.0,0.0,0.0,0.0,0.0,0.0,0.0719,-0.9689,0.2244,0.8016,-0.5824,-0.0990,0.0919
939,0.0,0.0,0.0,0.0,0.0,0.0,0.0728,-0.9690,0.2283,0.8018,-0.5822,-0.0986,0.0915
940,0.0,0.0,0.0,0.0,0.0,0.0,0.0763,-0.9782,0.2376,0.8020,-0.5820,-0.0981,0.0913
941,0.0,0.0,0.0,0.0,0.0,0.0,0.0729,-0.9792,0.2361,0.8024,-0.5817,-0.0973,0.0909
942,0.0,0.0,0.0,0.0,0.0,0.0,0.0650,-0.9709,0.2307,0.8029,-0.5813,-0.0962,0.0904
943,0.0,0.0,0.0,0.0,0.0,0.0,0.0562,-0.9797,0.2361,0.8034,-0.5809,-0.0949,0.0902
944,0.0,0.0,0.0,0.0,0.0,0.0,0.0543,-0.9831,0.2395,0.8039,-0.5804,-0.0936,0.0900
945,0.0,0.0,0.0,0.0,0.0,0.0,0.0547,-0.9636,0.2366,0.8046,-0.5797,-0.0924,0.0899
946,0.0,0.0,0.0,0.0,0.0,0.0,0.0543,-0.9758,0.2429,0.8052,-0.5790,-0.0914,0.0897
947,0.0,0.0,0.0,0.0,0.0,0.0,0.0552,-0.9660,0.2429,0.8058,-0.5784,-0.0908,0.0894
948,0.0,0.0,0.0,0.0,0.0,0.0,0.0567,-0.9675,0.2449,0.8064,-0.5776,-0.0903,0.0893
949,0.0,0.0,0.0,0.0,0.0,0.0,0.0645,-0.9519,0.2410,0.8070,-0.5769,-0.0901,0.0891
950,0.0,0.0,0.0,0.0,0.0,0.0,0.0665,-0.9524,0.2425,0.8075,-0.5762,-0.0901,0.0890
951,0.0,0.0,0.0,0.0,0.0,0.0,0.0670,-0.9592,0.2474,0.8079,-0.5756,-0.0902,0.0889
952,0.0,0.0,0.0,0.0,0.0,0.0,0.0714,-0.9568,0.2488,0.8080,-0.5753,-0.0906,0.0886
953,0.0,0.0,0.0,0.0,0.0,0.0,0.0738,-0.9651,0.2518,0.8081,-0.5752,-0.0911,0.0883
954,0.0,0.0,0.0,0.0,0.0,0.0,0.0753,-0.9690,0.2523,0.8084,-0.5748,-0.0914,0.0880
955,0.0,0.0,0.0,0.0,0.0,0.0,0.0733,-0.9568,0.2474,0.8085,-0.5746,-0.0917,0.0878
956,0.0,0.0,0.0,0.0,0.0,0.0,0.0743,-0.9534,0.2425,0.8084,-0.5748,-0.0920,0.0876
957,0.0,0.0,0.0,0.0,0.0,0.0,0.0728,-0.9612,0.2400,0.8081,-0.5752,-0.0924,0.0874
958,0.0,0.0,0.0,0.0,0.0,0.0,0.0738,-0.9724,0.2410,0.8077,-0.5757,-0.0929,0.0872
959,0.0,0.0,0.0,0.0,0.0,0.0,0.0763,-0.9768,0.2435,0.8073,-0.5762,-0.0934,0.0872
960,0.0,0.0,0.0,0.0,0.0,0.0,0.0734,-0.9724,0.2439,0.8070,-0.5765,-0.0937,0.0874
961,0.0,0.0,0.0,0.0,0.0,0.0,0.0768,-0.9812,0.2454,0.8067,-0.5768,-0.0940,0.0875
962,0.0,0.0,0.0,0.0,0.0,0.0,0.0738,-0.9753,0.2410,0.8064,-0.5772,-0.0941,0.0875
963,0.0,0.0,0.0,0.0,0.0,0.0,0.0728,-0.9587,0.2312,0.8061,-0.5776,-0.0944,0.0876
964,0.0,0.0,0.0,0.0,0.0,0.0,0.0782,-0.9621,0.2312,0.8056,-0.5782,-0.0949,0.0876
965,0.0,0.0,0.0,0.0,0.0,0.0,0.0773,-0.9719,0.2342,0.8052,-0.5787,-0.0954,0.0873
966,0.0,0.0,0.0,0.0,0.0,0.0,0.0729,-0.9704,0.2342,0.8049,-0.5791,-0.0957,0.0870
967,0.0,0.0,0.0,0.0,0.0,0.0,0.0729,-0.9797,0.2337,0.8045,-0.5796,-0.0959,0.0871
968,0.0,0.0,0.0,0.0,0.0,0.0,0.0768,-0.9865,0.2347,0.8044,-0.5798,-0.0961,0.0870
969,0.0,0.0,0.0,0.0,0.0,0.0,0.0743,-0.9543,0.2234,0.8041,-0.5802,-0.0964,0.0870
970,0.0,0.0,0.0,0.0,0.0,0.0,0.0728,-0.9694,0.2244,0.8035,-0.5809,-0.0968,0.0870
971,0.0,0.0,0.0,0.0,0.0,0.0,0.0734,-0.9860,0.2303,0.8030,-0.5814,-0.0973,0.0870
972,0.0,0.0,0.0,0.0,0.0,0.0,0.0768,-0.9943,0.2337,0.8028,-0.5816,-0.0977,0.0871
973,0.0,0.0,0.0,0.0,0.0,0.0,0.0773,-0.9904,0.2322,0.8027,-0.5818,-0.0980,0.0872
974,0.0,0.0,0.0,0.0,0.0,0.0,0.0817,-0.9782,0.2283,0.8025,-0.5820,-0.0985,0.0874
975,0.0,0.0,0.0,0.0,0.0,0.0,0.0861,-0.9831,0.2332,0.8024,-0.5820,-0.0990,0.0877
976,0.0,0.0,0.0,0.0,0.0,0.0,0.0841,-0.9812,0.2361,0.8026,-0.5816,-0.0990,0.0881
977,0.0,0.0,0.0,0.0,0.0,0.0,0.0807,-0.9738,0.2327,0.8027,-0.5813,-0.0989,0.0887
978,0.0,0.0,0.0,0.0,0.0,0.0,0.0836,-0.9704,0.2317,0.8027,-0.5813,-0.0990,0.0890
979,0.0,0.0,0.0,0.0,0.0,0.0,0.0870,-0.9695,0.2317,0.8026,-0.5814,-0.0991,0.0895
980,0.0,0.0,0.0,0.0,0.0,0.0,0.0890,-0.9729,0.2327,0.8023,-0.5817,-0.0994,0.0899
981,0.0,0.0,0.0,0.0,0.0,0.0,0.0851,-0.9670,0.2293,0.8019,-0.5821,-0.0995,0.0903
982,0.0,0.0,0.0,0.0,0.0,0.0,0.0856,-0.9568,0.2205,0.8016,-0.5825,-0.0995,0.0908
983,0.0,0.0,0.0,0.0,0.0,0.0,0.0841,-0.9646,0.2215,0.8011,-0.5831,-0.0995,0.0912
984,0.0,0.0,0.0,0.0,0.0,0.0,0.0802,-0.9665,0.2205,0.8005,-0.5839,-0.0995,0.0914
985,0.0,0.0,0.0,0.0,0.0,0.0,0.0753,-0.9772,0.2195,0.7999,-0.5848,-0.0994,0.0916
986,0.0,0.0,0.0,0.0,0.0,0.0,0.0733,-0.9797,0.2190,0.7994,-0.5854,-0.0992,0.0917
987,0.0,0.0,0.0,0.0,0.0,0.0,0.0665,-0.9826,0.2175,0.7989,-0.5862,-0.0988,0.0919
988,0.0,0.0,0.0,0.0,0.0,0.0,0.0655,-0.9841,0.2171,0.7984,-0.5869,-0.0984,0.0922
989,0.0,0.0,0.0,0.0,0.0,0.0,0.0596,-0.9801,0.2151,0.7980,-0.5874,-0.0979,0.0922
990,0.0,0.0,0.0,0.0,0.0,0.0,0.0547,-0.9733,0.2121,0.7978,-0.5878,-0.0975,0.0922
991,0.0,0.0,0.0,0.0,0.0,0.0,0.0518,-0.9738,0.2117,0.7976,-0.5882,-0.0973,0.0923
992,0.0,0.0,0.0,0.0,0.0,0.0,0.0523,-0.9767,0.2141,0.7973,-0.5884,-0.0972,0.0925
993,0.0,0.0,0.0,0.0,0.0,0.0,0.0528,-0.9806,0.2161,0.7971,-0.5888,-0.0974,0.0926
994,0.0,0.0,0.0,0.0,0.0,0.0,0.0528,-0.9762,0.2161,0.7967,-0.5891,-0.0978,0.0926
995,0.0,0.0,0.0,0.0,0.0,0.0,0.0577,-0.9787,0.2190,0.7965,-0.5892,-0.0984,0.0931
996,0.0,0.0,0.0,0.0,0.0,0.0,0.0582,-0.9836,0.2200,0.7963,-0.5894,-0.0989,0.0936
997,0.0,0.0,0.0,0.0,0.0,0.0,0.0616,-0.9836,0.2180,0.7961,-0.5895,-0.0996,0.0941
998,0.0,0.0,0.0,0.0,0.0,0.0,0.0670,-0.9811,0.2185,0.7960,-0.5894,-0.1002,0.0948
999,0.0,0.0,0.0,0.0,0.0,0.0,0.0679,-0.9767,0.2151,0.7959,-0.5893,-0.1009,0.0954
1000,0.0,0.0,0.0,0.0,0.0,0.0,0.0723,-0.9758,0.2136,0.7957,-0.5893,-0.1017,0.0960
1001,0.0,0.0,0.0,0.0,0.0,0.0,0.0685,-0.9919,0.2215,0.7955,-0.5893,-0.1023,0.0966
1002,0.0,0.0,0.0,0.0,0.0,0.0,0.0675,-1.0050,0.2254,0.7955,-0.5892,-0.1026,0.0973
1003,0.0,0.0,0.0,0.0,0.0,0.0,0.0704,-1.0216,0.2298,0.7959,-0.5886,-0.1026,0.0978
1004,0.0,0.0,0.0,0.0,0.0,0.0,0.0758,-1.0099,0.2264,0.7966,-0.5877,-0.1024,0.0982
1005,0.0,0.0,0.0,0.0,0.0,0.0,0.0743,-0.9689,0.2132,0.7974,-0.5866,-0.1019,0.0984
1006,0.0,0.0,0.0,0.0,0.0,0.0,0.0689,-0.9650,0.2141,0.7980,-0.5859,-0.1014,0.0987
1007,0.0,0.0,0.0,0.0,0.0,0.0,0.0640,-0.9831,0.2254,0.7985,-0.5852,-0.1010,0.0987
1008,0.0,0.0,0.0,0.0,0.0,0.0,0.0616,-0.9880,0.2307,0.7991,-0.5845,-0.1005,0.0987
1009,0.0,0.0,0.0,0.0,0.0,0.0,0.0572,-0.9821,0.2307,0.7999,-0.5836,-0.0997,0.0988
1010,0.0,0.0,0.0,0.0,0.0,0.0,0.0577,-0.9597,0.2283,0.8006,-0.5826,-0.0989,0.0991
1011,0.0,0.0,0.0,0.0,0.0,0.0,0.0596,-0.9592,0.2312,0.8012,-0.5819,-0.0983,0.0995
1012,0.0,0.0,0.0,0.0,0.0,0.0,0.0596,-0.9626,0.2351,0.8017,-0.5812,-0.0979,0.0998
1013,0.0,0.0,0.0,0.0,0.0,0.0,0.0606,-0.9587,0.2371,0.8022,-0.5806,-0.0976,0.0999
1014,0.0,0.0,0.0,0.0,0.0,0.0,0.0591,-0.9616,0.2395,0.8025,-0.5801,-0.0974,0.0999
1015,0.0,0.0,0.0,0.0,0.0,0.0,0.0601,-0.9665,0.2385,0.8029,-0.5796,-0.0971,0.1002
1016,0.0,0.0,0.0,0.0,0.0,0.0,0.0631,-0.9651,0.2361,0.8030,-0.5794,-0.0970,0.1003
1017,0.0,0.0,0.0,0.0,0.0,0.0,0.0606,-0.9651,0.2346,0.8029,-0.5795,-0.0971,0.1004
1018,0.0,0.0,0.0,0.0,0.0,0.0,0.0631,-0.9719,0.2381,0.8030,-0.5794,-0.0971,0.1004
1019,0.0,0.0,0.0,0.0,0.0,0.0,0.0655,-0.9738,0.2371,0.8030,-0.5794,-0.0972,0.1005
1020,0.0,0.0,0.0,0.0,0.0,0.0,0.0660,-0.9704,0.2356,0.8029,-0.5795,-0.0974,0.1003
1021,0.0,0.0,0.0,0.0,0.0,0.0,0.0665,-0.9768,0.2361,0.8029,-0.5795,-0.0975,0.1002
1022,0.0,0.0,0.0,0.0,0.0,0.0,0.0680,-0.9753,0.2342,0.8029,-0.5795,-0.0977,0.1001
1023,0.0,0.0,0.0,0.0,0.0,0.0,0.0665,-0.9709,0.2317,0.8028,-0.5796,-0.0977,0.0999
1024,0.0,0.0,0.0,0.0,0.0,0.0,0.0675,-0.9724,0.2288,0.8027,-0.5798,-0.0979,0.0998
1025,0.0,0.0,0.0,0.0,0.0,0.0,0.0660,-0.9699,0.2268,0.8025,-0.5801,-0.0981,0.0997
1026,0.0,0.0,0.0,0.0,0.0,0.0,0.0640,-0.9758,0.2288,0.8023,-0.5804,-0.0982,0.0995
1027,0.0,0.0,0.0,0.0,0.0,0.0,0.0684,-0.9748,0.2259,0.8021,-0.5807,-0.0985,0.0991
1028,0.0,0.0,0.0,0.0,0.0,0.0,0.0679,-0.9763,0.2244,0.8019,-0.5809,-0.0988,0.0987
1029,0.0,0.0,0.0,0.0,0.0,0.0,0.0679,-0.9738,0.2249,0.8018,-0.5810,-0.0989,0.0983
1030,0.0,0.0,0.0,0.0,0.0,0.0,0.0684,-0.9675,0.2224,0.8017,-0.5812,-0.0992,0.0979
1031,0.0,0.0,0.0,0.0,0.0,0.0,0.0684,-0.9650,0.2190,0.8014,-0.5816,-0.0997,0.0975
1032,0.0,0.0,0.0,0.0,0.0,0.0,0.0699,-0.9689,0.2195,0.8012,-0.5819,-0.1001,0.0972
1033,0.0,0.0,0.0,0.0,0.0,0.0,0.0699,-0.9763,0.2224,0.8010,-0.5821,-0.1005,0.0971
1034,0.0,0.0,0.0,0.0,0.0,0.0,0.0719,-0.9816,0.2239,0.8006,-0.5826,-0.1011,0.0969
1035,0.0,0.0,0.0,0.0,0.0,0.0,0.0758,-0.9821,0.2234,0.8002,-0.5830,-0.1018,0.0968
1036,0.0,0.0,0.0,0.0,0.0,0.0,0.0792,-0.9850,0.2229,0.7999,-0.5834,-0.1024,0.0967
1037,0.0,0.0,0.0,0.0,0.0,0.0,0.0807,-0.9846,0.2210,0.7996,-0.5837,-0.1029,0.0969
1038,0.0,0.0,0.0,0.0,0.0,0.0,0.0817,-0.9821,0.2200,0.7993,-0.5840,-0.1034,0.0967
1039,0.0,0.0,0.0,0.0,0.0,0.0,0.0831,-0.9807,0.2205,0.7991,-0.5842,-0.1037,0.0966
1040,0.0,0.0,0.0,0.0,0.0,0.0,0.0831,-0.9733,0.2171,0.7990,-0.5843,-0.1040,0.0964
1041,0.0,0.0,0.0,0.0,0.0,0.0,0.0846,-0.9611,0.2137,0.7988,-0.5846,-0.1045,0.0962
1042,0.0,0.0,0.0,0.0,0.0,0.0,0.0782,-0.9890,0.2244,0.7984,-0.5851,-0.1048,0.0959
1043,0.0,0.0,0.0,0.0,0.0,0.0,0.0660,-1.0070,0.2337,0.7984,-0.5853,-0.1044,0.0956
1044,0.0,0.0,0.0,0.0,0.0,0.0,0.0631,-0.9880,0.2263,0.7985,-0.5853,-0.1038,0.0955
1045,0.0,0.0,0.0,0.0,0.0,0.0,0.0655,-0.9728,0.2219,0.7986,-0.5852,-0.1032,0.0955
1046,0.0,0.0,0.0,0.0,0.0,0.0,0.0650,-0.9728,0.2239,0.7986,-0.5852,-0.1028,0.0956
1047,0.0,0.0,0.0,0.0,0.0,0.0,0.0621,-0.9709,0.2249,0.7987,-0.5852,-0.1024,0.0957
1048,0.0,0.0,0.0,0.0,0.0,0.0,0.0591,-0.9763,0.2263,0.7987,-0.5852,-0.1022,0.0957
1049,0.0,0.0,0.0,0.0,0.0,0.0,0.0587,-0.9797,0.2293,0.7987,-0.5852,-0.1020,0.0960
1050,0.0,0.0,0.0,0.0,0.0,0.0,0.0586,-0.9724,0.2273,0.7988,-0.5850,-0.1018,0.0963
1051,0.0,0.0,0.0,0.0,0.0,0.0,0.0611,-0.9689,0.2273,0.7990,-0.5847,-0.1018,0.0969
1052,0.0,0.0,0.0,0.0,0.0,0.0,0.0635,-0.9704,0.2283,0.7992,-0.5844,-0.1019,0.0975
1053,0.0,0.0,0.0,0.0,0.0,0.0,0.0675,-0.9724,0.2298,0.7991,-0.5842,-0.1023,0.0982
1054,0.0,0.0,0.0,0.0,0.0,0.0,0.0660,-0.9743,0.2298,0.7990,-0.5841,-0.1028,0.0990
1055,0.0,0.0,0.0,0.0,0.0,0.0,0.0748,-0.9680,0.2283,0.7992,-0.5837,-0.1034,0.0997
1056,0.0,0.0,0.0,0.0,0.0,0.0,0.0763,-0.9704,0.2288,0.7992,-0.5833,-0.1041,0.1004
1057,0.0,0.0,0.0,0.0,0.0,0.0,0.0812,-0.9694,0.2273,0.7993,-0.5830,-0.1050,0.1012
1058,0.0,0.0,0.0,0.0,0.0,0.0,0.0836,-0.9699,0.2264,0.7994,-0.5826,-0.1058,0.1017
1059,0.0,0.0,0.0,0.0,0.0,0.0,0.0875,-0.9670,0.2244,0.7991,-0.5828,-0.1068,0.1022
1060,0.0,0.0,0.0,0.0,0.0,0.0,0.0846,-0.9763,0.2288,0.7990,-0.5827,-0.1075,0.1027
1061,0.0,0.0,0.0,0.0,0.0,0.0,0.0841,-0.9738,0.2278,0.7992,-0.5823,-0.1079,0.1030
1062,0.0,0.0,0.0,0.0,0.0,0.0,0.0797,-0.9748,0.2273,0.7990,-0.5824,-0.1083,0.1032
1063,0.0,0.0,0.0,0.0,0.0,0.0,0.0782,-0.9763,0.2273,0.7988,-0.5826,-0.1086,0.1035
1064,0.0,0.0,0.0,0.0,0.0,0.0,0.0763,-0.9792,0.2278,0.7985,-0.5830,-0.1089,0.1036
1065,0.0,0.0,0.0,0.0,0.0,0.0,0.0748,-0.9763,0.2259,0.7981,-0.5834,-0.1090,0.1038
1066,0.0,0.0,0.0,0.0,0.0,0.0,0.0817,-0.9768,0.2278,0.7980,-0.5836,-0.1091,0.1038
1067,0.0,0.0,0.0,0.0,0.0,0.0,0.0782,-0.9685,0.2244,0.7979,-0.5837,-0.1092,0.1037
1068,0.0,0.0,0.0,0.0,0.0,0.0,0.0714,-0.9685,0.2210,0.7977,-0.5840,-0.1092,0.1035
1069,0.0,0.0,0.0,0.0,0.0,0.0,0.0753,-0.9724,0.2215,0.7976,-0.5842,-0.1091,0.1032
1070,0.0,0.0,0.0,0.0,0.0,0.0,0.0709,-0.9777,0.2229,0.7975,-0.5844,-0.1088,0.1030
1071,0.0,0.0,0.0,0.0,0.0,0.0,0.0689,-0.9709,0.2200,0.7973,-0.5848,-0.1086,0.1027
1072,0.0,0.0,0.0,0.0,0.0,0.0,0.0699,-0.9631,0.2156,0.7969,-0.5853,-0.1086,0.1023
1073,0.0,0.0,0.0,0.0,0.0,0.0,0.0664,-0.9587,0.2092,0.7965,-0.5860,-0.1085,0.1019
1074,0.0,0.0,0.0,0.0,0.0,0.0,0.0669,-0.9611,0.2078,0.7958,-0.5870,-0.1087,0.1017
1075,0.0,0.0,0.0,0.0,0.0,0.0,0.0669,-0.9689,0.2102,0.7952,-0.5879,-0.1088,0.1014
1076,0.0,0.0,0.0,0.0,0.0,0.0,0.0679,-0.9723,0.2087,0.7945,-0.5888,-0.1092,0.1011
1077,0.0,0.0,0.0,0.0,0.0,0.0,0.0723,-0.9792,0.2102,0.7936,-0.5900,-0.1098,0.1007
1078,0.0,0.0,0.0,0.0,0.0,0.0,0.0822,-1.0094,0.2190,0.7928,-0.5909,-0.1103,0.1003
1079,0.0,0.0,0.0,0.0,0.0,0.0,0.0846,-0.9972,0.2127,0.7923,-0.5916,-0.1107,0.0999
1080,0.0,0.0,0.0,0.0,0.0,0.0,0.0880,-0.9806,0.2010,0.7919,-0.5922,-0.1108,0.0992
1081,0.0,0.0,0.0,0.0,0.0,0.0,0.0885,-0.9801,0.1971,0.7915,-0.5929,-0.1109,0.0985
1082,0.0,0.0,0.0,0.0,0.0,0.0,0.0841,-0.9806,0.1946,0.7910,-0.5936,-0.1108,0.0978
1083,0.0,0.0,0.0,0.0,0.0,0.0,0.0841,-0.9855,0.1922,0.7906,-0.5944,-0.1106,0.0971
1084,0.0,0.0,0.0,0.0,0.0,0.0,0.0836,-0.9874,0.1926,0.7901,-0.5952,-0.1105,0.0963
1085,0.0,0.0,0.0,0.0,0.0,0.0,0.0831,-0.9801,0.1892,0.7894,-0.5963,-0.1105,0.0954
1086,0.0,0.0,0.0,0.0,0.0,0.0,0.0792,-0.9860,0.1897,0.7889,-0.5971,-0.1103,0.0944
1087,0.0,0.0,0.0,0.0,0.0,0.0,0.0782,-0.9791,0.1858,0.7883,-0.5981,-0.1101,0.0934
1088,0.0,0.0,0.0,0.0,0.0,0.0,0.0753,-0.9952,0.1902,0.7877,-0.5991,-0.1099,0.0924
1089,0.0,0.0,0.0,0.0,0.0,0.0,0.0694,-1.0016,0.1926,0.7874,-0.5998,-0.1092,0.0916
1090,0.0,0.0,0.0,0.0,0.0,0.0,0.0689,-1.0006,0.1912,0.7872,-0.6003,-0.1084,0.0909
1091,0.0,0.0,0.0,0.0,0.0,0.0,0.0645,-1.0060,0.1960,0.7871,-0.6006,-0.1076,0.0903
1092,0.0,0.0,0.0,0.0,0.0,0.0,0.0635,-1.0011,0.1951,0.7875,-0.6004,-0.1066,0.0897
1093,0.0,0.0,0.0,0.0,0.0,0.0,0.0674,-0.9894,0.1926,0.7879,-0.6001,-0.1058,0.0893
1094,0.0,0.0,0.0,0.0,0.0,0.0,0.0650,-0.9826,0.1941,0.7883,-0.5997,-0.1050,0.0890
1095,0.0,0.0,0.0,0.0,0.0,0.0,0.0694,-0.9738,0.1970,0.7888,-0.5992,-0.1046,0.0887
1096,0.0,0.0,0.0,0.0,0.0,0.0,0.0684,-0.9674,0.1951,0.7890,-0.5990,-0.1045,0.0886
1097,0.0,0.0,0.0,0.0,0.0,0.0,0.0694,-0.9679,0.1960,0.7893,-0.5986,-0.1044,0.0883
1098,0.0,0.0,0.0,0.0,0.0,0.0,0.0723,-0.9733,0.1965,0.7895,-0.5983,-0.1045,0.0881
1099,0.0,0.0,0.0,0.0,0.0,0.0,0.0762,-0.9796,0.1990,0.7896,-0.5982,-0.1047,0.0882
1100,0.0,0.0,0.0,0.0,0.0,0.0,0.0792,-0.9962,0.2044,0.7898,-0.5978,-0.1047,0.0885
1101,0.0,0.0,0.0,0.0,0.0,0.0,0.0787,-0.9972,0.2049,0.7902,-0.5973,-0.1047,0.0888
1102,0.0,0.0,0.0,0.0,0.0,0.0,0.0865,-0.9709,0.1951,0.7906,-0.5967,-0.1049,0.0891
1103,0.0,0.0,0.0,0.0,0.0,0.0,0.0919,-0.9850,0.1995,0.7908,-0.5963,-0.1054,0.0894
1104,0.0,0.0,0.0,0.0,0.0,0.0,0.0900,-1.0041,0.2039,0.7911,-0.5958,-0.1056,0.0898
1105,0.0,0.0,0.0,0.0,0.0,0.0,0.0919,-0.9899,0.1990,0.7915,-0.5952,-0.1055,0.0903
1106,0.0,0.0,0.0,0.0,0.0,0.0,0.0880,-0.9919,0.2019,0.7918,-0.5947,-0.1052,0.0907
1107,0.0,0.0,0.0,0.0,0.0,0.0,0.0870,-0.9923,0.2054,0.7922,-0.5943,-0.1047,0.0912
1108,0.0,0.0,0.0,0.0,0.0,0.0,0.0821,-0.9923,0.2083,0.7928,-0.5936,-0.1040,0.0915
1109,0.0,0.0,0.0,0.0,0.0,0.0,0.0787,-0.9841,0.2093,0.7934,-0.5928,-0.1032,0.0917
1110,0.0,0.0,0.0,0.0,0.0,0.0,0.0748,-0.9670,0.2053,0.7939,-0.5923,-0.1025,0.0918
1111,0.0,0.0,0.0,0.0,0.0,0.0,0.0689,-0.9640,0.2019,0.7942,-0.5920,-0.1018,0.0920
1112,0.0,0.0,0.0,0.0,0.0,0.0,0.0718,-0.9611,0.2004,0.7944,-0.5918,-0.1013,0.0919
1113,0.0,0.0,0.0,0.0,0.0,0.0,0.0709,-0.9655,0.2044,0.7946,-0.5917,-0.1008,0.0917
1114,0.0,0.0,0.0,0.0,0.0,0.0,0.0694,-0.9719,0.2102,0.7948,-0.5915,-0.1003,0.0915
1115,0.0,0.0,0.0,0.0,0.0,0.0,0.0606,-0.9904,0.2175,0.7953,-0.5910,-0.0994,0.0914
1116,0.0,0.0,0.0,0.0,0.0,0.0,0.0611,-1.0163,0.2283,0.7959,-0.5903,-0.0986,0.0915
1117,0.0,0.0,0.0,0.0,0.0,0.0,0.0636,-1.0221,0.2312,0.7967,-0.5894,-0.0978,0.0916
1118,0.0,0.0,0.0,0.0,0.0,0.0,0.0709,-1.0060,0.2278,0.7979,-0.5878,-0.0969,0.0919
1119,0.0,0.0,0.0,0.0,0.0,0.0,0.0778,-0.9875,0.2239,0.7994,-0.5858,-0.0962,0.0922
1120,0.0,0.0,0.0,0.0,0.0,0.0,0.0802,-0.9636,0.2185,0.8006,-0.5842,-0.0958,0.0926
1121,0.0,0.0,0.0,0.0,0.0,0.0,0.0748,-0.9846,0.2312,0.8017,-0.5826,-0.0953,0.0932
1122,0.0,0.0,0.0,0.0,0.0,0.0,0.0734,-0.9895,0.2405,0.8031,-0.5807,-0.0943,0.0939
1123,0.0,0.0,0.0,0.0,0.0,0.0,0.0719,-0.9568,0.2366,0.8043,-0.5791,-0.0936,0.0947
1124,0.0,0.0,0.0,0.0,0.0,0.0,0.0689,-0.9460,0.2371,0.8052,-0.5778,-0.0931,0.0954
1125,0.0,0.0,0.0,0.0,0.0,0.0,0.0689,-0.9319,0.2366,0.8058,-0.5769,-0.0930,0.0960
1126,0.0,0.0,0.0,0.0,0.0,0.0,0.0665,-0.9329,0.2376,0.8062,-0.5762,-0.0929,0.0967
1127,0.0,0.0,0.0,0.0,0.0,0.0,0.0625,-0.9377,0.2381,0.8064,-0.5759,-0.0929,0.0973
1128,0.0,0.0,0.0,0.0,0.0,0.0,0.0655,-0.9436,0.2385,0.8065,-0.5757,-0.0931,0.0978
1129,0.0,0.0,0.0,0.0,0.0,0.0,0.0616,-0.9529,0.2420,0.8064,-0.5757,-0.0933,0.0981
1130,0.0,0.0,0.0,0.0,0.0,0.0,0.0645,-0.9670,0.2469,0.8061,-0.5760,-0.0938,0.0982
1131,0.0,0.0,0.0,0.0,0.0,0.0,0.0641,-0.9724,0.2464,0.8056,-0.5765,-0.0944,0.0983
1132,0.0,0.0,0.0,0.0,0.0,0.0,0.0601,-0.9743,0.2420,0.8052,-0.5770,-0.0947,0.0985
1133,0.0,0.0,0.0,0.0,0.0,0.0,0.0542,-0.9685,0.2341,0.8047,-0.5777,-0.0949,0.0987
1134,0.0,0.0,0.0,0.0,0.0,0.0,0.0538,-0.9743,0.2336,0.8041,-0.5784,-0.0952,0.0990
1135,0.0,0.0,0.0,0.0,0.0,0.0,0.0528,-0.9836,0.2376,0.8037,-0.5789,-0.0953,0.0994
1136,0.0,0.0,0.0,0.0,0.0,0.0,0.0543,-0.9885,0.2395,0.8034,-0.5791,-0.0954,0.1000
1137,0.0,0.0,0.0,0.0,0.0,0.0,0.0577,-0.9958,0.2420,0.8033,-0.5792,-0.0957,0.1005
1138,0.0,0.0,0.0,0.0,0.0,0.0,0.0670,-0.9987,0.2410,0.8032,-0.5791,-0.0961,0.1008
1139,0.0,0.0,0.0,0.0,0.0,0.0,0.0767,-0.9421,0.2200,0.8031,-0.5792,-0.0969,0.1009
1140,0.0,0.0,0.0,0.0,0.0,0.0,0.0816,-0.9382,0.2180,0.8028,-0.5795,-0.0979,0.1009
1141,0.0,0.0,0.0,0.0,0.0,0.0,0.0773,-0.9802,0.2303,0.8021,-0.5803,-0.0984,0.1007
1142,0.0,0.0,0.0,0.0,0.0,0.0,0.0758,-0.9753,0.2273,0.8017,-0.5809,-0.0985,0.1004
1143,0.0,0.0,0.0,0.0,0.0,0.0,0.0714,-0.9709,0.2254,0.8013,-0.5815,-0.0984,0.0999
1144,0.0,0.0,0.0,0.0,0.0,0.0,0.0635,-0.9777,0.2263,0.8008,-0.5824,-0.0981,0.0994
1145,0.0,0.0,0.0,0.0,0.0,0.0,0.0537,-0.9728,0.2258,0.8004,-0.5832,-0.0976,0.0987
1146,0.0,0.0,0.0,0.0,0.0,0.0,0.0498,-0.9826,0.2307,0.8002,-0.5837,-0.0969,0.0980
1147,0.0,0.0,0.0,0.0,0.0,0.0,0.0459,-0.9865,0.2302,0.8002,-0.5839,-0.0961,0.0978
1148,0.0,0.0,0.0,0.0,0.0,0.0,0.0440,-0.9865,0.2302,0.7999,-0.5843,-0.0955,0.0976
1149,0.0,0.0,0.0,0.0,0.0,0.0,0.0543,-0.9811,0.2293,0.7997,-0.5847,-0.0954,0.0975
1150,0.0,0.0,0.0,0.0,0.0,0.0,0.0606,-0.9738,0.2258,0.7995,-0.5850,-0.0954,0.0975
1151,0.0,0.0,0.0,0.0,0.0,0.0,0.0626,-0.9680,0.2219,0.7992,-0.5854,-0.0955,0.0974
1152,0.0,0.0,0.0,0.0,0.0,0.0,0.0645,-0.9558,0.2136,0.7987,-0.5860,-0.0958,0.0972
1153,0.0,0.0,0.0,0.0,0.0,0.0,0.0659,-0.9504,0.2078,0.7980,-0.5870,-0.0962,0.0969
1154,0.0,0.0,0.0,0.0,0.0,0.0,0.0606,-0.9523,0.2029,0.7972,-0.5881,-0.0965,0.0964
1155,0.0,0.0,0.0,0.0,0.0,0.0,0.0571,-0.9543,0.1985,0.7963,-0.5894,-0.0969,0.0956
1156,0.0,0.0,0.0,0.0,0.0,0.0,0.0571,-0.9704,0.1990,0.7950,-0.5912,-0.0976,0.0947
1157,0.0,0.0,0.0,0.0,0.0,0.0,0.0533,-0.9987,0.2107,0.7937,-0.5930,-0.0980,0.0939
1158,0.0,0.0,0.0,0.0,0.0,0.0,0.0523,-1.0045,0.2117,0.7928,-0.5943,-0.0980,0.0932
1159,0.0,0.0,0.0,0.0,0.0,0.0,0.0503,-0.9840,0.1980,0.7920,-0.5955,-0.0979,0.0924
1160,0.0,0.0,0.0,0.0,0.0,0.0,0.0503,-0.9938,0.2014,0.7912,-0.5967,-0.0978,0.0915
1161,0.0,0.0,0.0,0.0,0.0,0.0,0.0508,-0.9986,0.2009,0.7904,-0.5979,-0.0977,0.0909
1162,0.0,0.0,0.0,0.0,0.0,0.0,0.0513,-1.0001,0.1985,0.7898,-0.5988,-0.0976,0.0903
1163,0.0,0.0,0.0,0.0,0.0,0.0,0.0532,-0.9913,0.1926,0.7894,-0.5994,-0.0975,0.0898
1164,0.0,0.0,0.0,0.0,0.0,0.0,0.0576,-0.9791,0.1887,0.7889,-0.6000,-0.0975,0.0895
1165,0.0,0.0,0.0,0.0,0.0,0.0,0.0610,-0.9743,0.1902,0.7886,-0.6005,-0.0977,0.0893
1166,0.0,0.0,0.0,0.0,0.0,0.0,0.0576,-0.9552,0.1833,0.7881,-0.6012,-0.0979,0.0890
1167,0.0,0.0,0.0,0.0,0.0,0.0,0.0625,-0.9752,0.1882,0.7873,-0.6021,-0.0985,0.0887
1168,0.0,0.0,0.0,0.0,0.0,0.0,0.0650,-0.9791,0.1867,0.7864,-0.6032,-0.0993,0.0885
1169,0.0,0.0,0.0,0.0,0.0,0.0,0.0694,-0.9738,0.1814,0.7854,-0.6044,-0.1003,0.0882
1170,0.0,0.0,0.0,0.0,0.0,0.0,0.0723,-0.9777,0.1765,0.7843,-0.6057,-0.1013,0.0880
1171,0.0,0.0,0.0,0.0,0.0,0.0,0.0733,-0.9864,0.1745,0.7834,-0.6068,-0.1022,0.0879
1172,0.0,0.0,0.0,0.0,0.0,0.0,0.0748,-0.9918,0.1731,0.7824,-0.6078,-0.1032,0.0876
1173,0.0,0.0,0.0,0.0,0.0,0.0,0.0762,-0.9981,0.1702,0.7814,-0.6090,-0.1041,0.0873
1174,0.0,0.0,0.0,0.0,0.0,0.0,0.0777,-1.0035,0.1697,0.7806,-0.6100,-0.1050,0.0869
1175,0.0,0.0,0.0,0.0,0.0,0.0,0.0792,-1.0050,0.1687,0.7800,-0.6107,-0.1055,0.0865
1176,0.0,0.0,0.0,0.0,0.0,0.0,0.0782,-1.0123,0.1697,0.7795,-0.6113,-0.1058,0.0861
1177,0.0,0.0,0.0,0.0,0.0,0.0,0.0762,-1.0103,0.1687,0.7794,-0.6116,-0.1057,0.0857
1178,0.0,0.0,0.0,0.0,0.0,0.0,0.0757,-1.0045,0.1682,0.7795,-0.6116,-0.1054,0.0854
1179,0.0,0.0,0.0,0.0,0.0,0.0,0.0767,-1.0142,0.1731,0.7796,-0.6115,-0.1051,0.0852
1180,0.0,0.0,0.0,0.0,0.0,0.0,0.0772,-1.0133,0.1755,0.7799,-0.6113,-0.1047,0.0850
1181,0.0,0.0,0.0,0.0,0.0,0.0,0.0728,-1.0079,0.1785,0.7805,-0.6106,-0.1039,0.0847
1182,0.0,0.0,0.0,0.0,0.0,0.0,0.0713,-1.0001,0.1780,0.7813,-0.6098,-0.1030,0.0845
1183,0.0,0.0,0.0,0.0,0.0,0.0,0.0689,-0.9835,0.1755,0.7822,-0.6088,-0.1022,0.0843
1184,0.0,0.0,0.0,0.0,0.0,0.0,0.0669,-0.9801,0.1765,0.7830,-0.6080,-0.1014,0.0841
1185,0.0,0.0,0.0,0.0,0.0,0.0,0.0664,-0.9767,0.1789,0.7836,-0.6072,-0.1007,0.0841
1186,0.0,0.0,0.0,0.0,0.0,0.0,0.0654,-0.9777,0.1799,0.7841,-0.6066,-0.1002,0.0842
1187,0.0,0.0,0.0,0.0,0.0,0.0,0.0650,-0.9894,0.1824,0.7846,-0.6061,-0.0997,0.0844
1188,0.0,0.0,0.0,0.0,0.0,0.0,0.0679,-0.9957,0.1819,0.7852,-0.6054,-0.0992,0.0844
1189,0.0,0.0,0.0,0.0,0.0,0.0,0.0733,-0.9786,0.1726,0.7859,-0.6045,-0.0988,0.0848
1190,0.0,0.0,0.0,0.0,0.0,0.0,0.0811,-0.9762,0.1716,0.7864,-0.6039,-0.0987,0.0850
1191,0.0,0.0,0.0,0.0,0.0,0.0,0.0816,-0.9777,0.1721,0.7867,-0.6034,-0.0989,0.0851
1192,0.0,0.0,0.0,0.0,0.0,0.0,0.0816,-0.9806,0.1765,0.7870,-0.6030,-0.0990,0.0851
1193,0.0,0.0,0.0,0.0,0.0,0.0,0.0792,-0.9894,0.1814,0.7872,-0.6027,-0.0991,0.0850
1194,0.0,0.0,0.0,0.0,0.0,0.0,0.0762,-0.9786,0.1775,0.7875,-0.6024,-0.0990,0.0849
1195,0.0,0.0,0.0,0.0,0.0,0.0,0.0733,-0.9777,0.1770,0.7878,-0.6021,-0.0988,0.0849
1196,0.0,0.0,0.0,0.0,0.0,0.0,0.0738,-0.9864,0.1824,0.7879,-0.6019,-0.0987,0.0850
1197,0.0,0.0,0.0,0.0,0.0,0.0,0.0689,-0.9884,0.1848,0.7880,-0.6018,-0.0984,0.0851
1198,0.0,0.0,0.0,0.0,0.0,0.0,0.0669,-0.9918,0.1868,0.7882,-0.6015,-0.0980,0.0853
1199,0.0,0.0,0.0,0.0,0.0,0.0,0.0670,-1.0030,0.1916,0.7886,-0.6010,-0.0976,0.0856
1200,0.0,0.0,0.0,0.0,0.0,0.0,0.0699,-1.0026,0.1965,0.7893,-0.6002,-0.0969,0.0860
1201,0.0,0.0,0.0,0.0,0.0,0.0,0.0670,-1.0001,0.1985,0.7900,-0.5993,-0.0962,0.0864
1202,0.0,0.0,0.0,0.0,0.0,0.0,0.0621,-1.0045,0.2048,0.7910,-0.5981,-0.0952,0.0868
1203,0.0,0.0,0.0,0.0,0.0,0.0,0.0611,-0.9894,0.2019,0.7921,-0.5968,-0.0940,0.0873
1204,0.0,0.0,0.0,0.0,0.0,0.0,0.0620,-0.9694,0.1965,0.7930,-0.5956,-0.0931,0.0878
1205,0.0,0.0,0.0,0.0,0.0,0.0,0.0620,-0.9650,0.1985,0.7938,-0.5946,-0.0925,0.0884
1206,0.0,0.0,0.0,0.0,0.0,0.0,0.0615,-0.9626,0.1980,0.7944,-0.5938,-0.0921,0.0888
1207,0.0,0.0,0.0,0.0,0.0,0.0,0.0650,-0.9626,0.1985,0.7949,-0.5930,-0.0921,0.0892
1208,0.0,0.0,0.0,0.0,0.0,0.0,0.0664,-0.9621,0.1975,0.7952,-0.5926,-0.0923,0.0894
1209,0.0,0.0,0.0,0.0,0.0,0.0,0.0679,-0.9704,0.1999,0.7953,-0.5924,-0.0927,0.0896
1210,0.0,0.0,0.0,0.0,0.0,0.0,0.0713,-0.9723,0.1975,0.7953,-0.5921,-0.0934,0.0899
1211,0.0,0.0,0.0,0.0,0.0,0.0,0.0743,-0.9738,0.1936,0.7953,-0.5920,-0.0942,0.0899
1212,0.0,0.0,0.0,0.0,0.0,0.0,0.0718,-0.9865,0.1941,0.7951,-0.5922,-0.0950,0.0900
1213,0.0,0.0,0.0,0.0,0.0,0.0,0.0836,-0.9865,0.1922,0.7950,-0.5922,-0.0959,0.0900
1214,0.0,0.0,0.0,0.0,0.0,0.0,0.0841,-0.9928,0.2005,0.7951,-0.5919,-0.0967,0.0901
1215,0.0,0.0,0.0,0.0,0.0,0.0,0.0807,-0.9972,0.2093,0.7953,-0.5916,-0.0972,0.0902
1216,0.0,0.0,0.0,0.0,0.0,0.0,0.0802,-0.9923,0.2093,0.7956,-0.5911,-0.0973,0.0903
1217,0.0,0.0,0.0,0.0,0.0,0.0,0.0792,-0.9772,0.2029,0.7960,-0.5905,-0.0974,0.0904
1218,0.0,0.0,0.0,0.0,0.0,0.0,0.0753,-0.9704,0.2004,0.7963,-0.5901,-0.0974,0.0905
1219,0.0,0.0,0.0,0.0,0.0,0.0,0.0738,-0.9762,0.2044,0.7965,-0.5899,-0.0975,0.0906
1220,0.0,0.0,0.0,0.0,0.0,0.0,0.0723,-0.9738,0.2068,0.7966,-0.5896,-0.0976,0.0907
1221,0.0,0.0,0.0,0.0,0.0,0.0,0.0694,-0.9694,0.2073,0.7967,-0.5895,-0.0977,0.0910
1222,0.0,0.0,0.0,0.0,0.0,0.0,0.0718,-0.9709,0.2088,0.7968,-0.5892,-0.0979,0.0912
1223,0.0,0.0,0.0,0.0,0.0,0.0,0.0728,-0.9709,0.2107,0.7968,-0.5892,-0.0983,0.0913
1224,0.0,0.0,0.0,0.0,0.0,0.0,0.0704,-0.9748,0.2117,0.7966,-0.5894,-0.0988,0.0915
1225,0.0,0.0,0.0,0.0,0.0,0.0,0.0704,-0.9689,0.2107,0.7965,-0.5894,-0.0992,0.0916
1226,0.0,0.0,0.0,0.0,0.0,0.0,0.0758,-0.9689,0.2092,0.7963,-0.5895,-0.0999,0.0917
1227,0.0,0.0,0.0,0.0,0.0,0.0,0.0763,-0.9772,0.2102,0.7960,-0.5898,-0.1006,0.0919
1228,0.0,0.0,0.0,0.0,0.0,0.0,0.0767,-0.9699,0.2078,0.7957,-0.5900,-0.1012,0.0921
1229,0.0,0.0,0.0,0.0,0.0,0.0,0.0811,-0.9743,0.2073,0.7955,-0.5902,-0.1020,0.0922
1230,0.0,0.0,0.0,0.0,0.0,0.0,0.0836,-0.9787,0.2058,0.7953,-0.5903,-0.1028,0.0923
1231,0.0,0.0,0.0,0.0,0.0,0.0,0.0807,-0.9753,0.2049,0.7949,-0.5906,-0.1037,0.0923
1232,0.0,0.0,0.0,0.0,0.0,0.0,0.0817,-0.9889,0.2097,0.7945,-0.5910,-0.1044,0.0923
1233,0.0,0.0,0.0,0.0,0.0,0.0,0.0778,-1.0158,0.2215,0.7945,-0.5911,-0.1045,0.0922
1234,0.0,0.0,0.0,0.0,0.0,0.0,0.0777,-0.9875,0.2127,0.7945,-0.5910,-0.1045,0.0923
1235,0.0,0.0,0.0,0.0,0.0,0.0,0.0846,-0.9743,0.2039,0.7946,-0.5909,-0.1046,0.0923
1236,0.0,0.0,0.0,0.0,0.0,0.0,0.0802,-0.9870,0.2068,0.7947,-0.5908,-0.1044,0.0923
1237,0.0,0.0,0.0,0.0,0.0,0.0,0.0802,-0.9845,0.2039,0.7946,-0.5909,-0.1044,0.0922
1238,0.0,0.0,0.0,0.0,0.0,0.0,0.0792,-0.9816,0.2005,0.7945,-0.5910,-0.1044,0.0922
1239,0.0,0.0,0.0,0.0,0.0,0.0,0.0787,-0.9777,0.1990,0.7946,-0.5910,-0.1043,0.0922
1240,0.0,0.0,0.0,0.0,0.0,0.0,0.0709,-0.9796,0.2004,0.7946,-0.5910,-0.1039,0.0922
1241,0.0,0.0,0.0,0.0,0.0,0.0,0.0660,-0.9831,0.2024,0.7946,-0.5911,-0.1035,0.0923
1242,0.0,0.0,0.0,0.0,0.0,0.0,0.0674,-0.9816,0.2004,0.7945,-0.5912,-0.1032,0.0926
1243,0.0,0.0,0.0,0.0,0.0,0.0,0.0689,-0.9865,0.2024,0.7943,-0.5915,-0.1031,0.0928
1244,0.0,0.0,0.0,0.0,0.0,0.0,0.0645,-0.9767,0.1995,0.7942,-0.5916,-0.1028,0.0932
1245,0.0,0.0,0.0,0.0,0.0,0.0,0.0748,-0.9718,0.2014,0.7943,-0.5913,-0.1029,0.0936
1246,0.0,0.0,0.0,0.0,0.0,0.0,0.0694,-0.9831,0.2102,0.7945,-0.5911,-0.1029,0.0941
1247,0.0,0.0,0.0,0.0,0.0,0.0,0.0601,-0.9884,0.2112,0.7947,-0.5907,-0.1025,0.0945
1248,0.0,0.0,0.0,0.0,0.0,0.0,0.0655,-0.9826,0.2097,0.7949,-0.5905,-0.1024,0.0951
1249,0.0,0.0,0.0,0.0,0.0,0.0,0.0743,-0.9801,0.2107,0.7949,-0.5903,-0.1027,0.0957
1250,0.0,0.0,0.0,0.0,0.0,0.0,0.0748,-0.9787,0.2102,0.7953,-0.5897,-0.1030,0.0959
1251,0.0,0.0,0.0,0.0,0.0,0.0,0.0806,-0.9684,0.2073,0.7955,-0.5892,-0.1035,0.0961
1252,0.0,0.0,0.0,0.0,0.0,0.0,0.0875,-0.9631,0.2034,0.7954,-0.5892,-0.1044,0.0961
1253,0.0,0.0,0.0,0.0,0.0,0.0,0.0880,-0.9665,0.2000,0.7951,-0.5895,-0.1052,0.0960
1254,0.0,0.0,0.0,0.0,0.0,0.0,0.0880,-0.9723,0.1990,0.7947,-0.5900,-0.1059,0.0958
1255,0.0,0.0,0.0,0.0,0.0,0.0,0.0851,-0.9884,0.2029,0.7943,-0.5905,-0.1063,0.0954
1256,0.0,0.0,0.0,0.0,0.0,0.0,0.0772,-0.9977,0.2049,0.7942,-0.5908,-0.1062,0.0950
1257,0.0,0.0,0.0,0.0,0.0,0.0,0.0729,-1.0070,0.2053,0.7940,-0.5911,-0.1058,0.0946
1258,0.0,0.0,0.0,0.0,0.0,0.0,0.0734,-1.0167,0.2058,0.7941,-0.5911,-0.1053,0.0944
1259,0.0,0.0,0.0,0.0,0.0,0.0,0.0807,-1.0177,0.2078,0.7946,-0.5906,-0.1044,0.0943
1260,0.0,0.0,0.0,0.0,0.0,0.0,0.0846,-1.0192,0.2122,0.7952,-0.5900,-0.1034,0.0942
1261,0.0,0.0,0.0,0.0,0.0,0.0,0.0851,-1.0050,0.2112,0.7962,-0.5889,-0.1021,0.0941
1262,0.0,0.0,0.0,0.0,0.0,0.0,0.0772,-0.9811,0.2083,0.7971,-0.5879,-0.1007,0.0940
1263,0.0,0.0,0.0,0.0,0.0,0.0,0.0630,-0.9704,0.2107,0.7981,-0.5869,-0.0989,0.0940
1264,0.0,0.0,0.0,0.0,0.0,0.0,0.0635,-0.9431,0.2038,0.7991,-0.5858,-0.0973,0.0940
1265,0.0,0.0,0.0,0.0,0.0,0.0,0.0679,-0.9406,0.2053,0.7995,-0.5854,-0.0966,0.0939
1266,0.0,0.0,0.0,0.0,0.0,0.0,0.0601,-0.9587,0.2102,0.7996,-0.5853,-0.0960,0.0937
1267,0.0,0.0,0.0,0.0,0.0,0.0,0.0581,-0.9582,0.2112,0.7999,-0.5851,-0.0955,0.0936
1268,0.0,0.0,0.0,0.0,0.0,0.0,0.0610,-0.9504,0.2082,0.7999,-0.5851,-0.0955,0.0933
1269,0.0,0.0,0.0,0.0,0.0,0.0,0.0704,-0.9509,0.2092,0.7995,-0.5855,-0.0962,0.0930
1270,0.0,0.0,0.0,0.0,0.0,0.0,0.0704,-0.9538,0.2112,0.7991,-0.5860,-0.0970,0.0926
1271,0.0,0.0,0.0,0.0,0.0,0.0,0.0675,-0.9782,0.2205,0.7987,-0.5866,-0.0977,0.0923
1272,0.0,0.0,0.0,0.0,0.0,0.0,0.0694,-0.9992,0.2293,0.7984,-0.5869,-0.0982,0.0920
1273,0.0,0.0,0.0,0.0,0.0,0.0,0.0743,-0.9850,0.2205,0.7982,-0.5871,-0.0988,0.0918
1274,0.0,0.0,0.0,0.0,0.0,0.0,0.0728,-0.9806,0.2141,0.7980,-0.5873,-0.0993,0.0917
1275,0.0,0.0,0.0,0.0,0.0,0.0,0.0758,-0.9709,0.2097,0.7978,-0.5875,-0.0999,0.0917
1276,0.0,0.0,0.0,0.0,0.0,0.0,0.0753,-0.9714,0.2117,0.7977,-0.5876,-0.1005,0.0917
1277,0.0,0.0,0.0,0.0,0.0,0.0,0.0792,-0.9821,0.2185,0.7976,-0.5875,-0.1013,0.0917
1278,0.0,0.0,0.0,0.0,0.0,0.0,0.0851,-0.9816,0.2185,0.7976,-0.5875,-0.1022,0.0915
1279,0.0,0.0,0.0,0.0,0.0,0.0,0.0831,-0.9846,0.2195,0.7976,-0.5873,-0.1026,0.0914
1280,0.0,0.0,0.0,0.0,0.0,0.0,0.0826,-0.9885,0.2200,0.7977,-0.5871,-0.1030,0.0914
1281,0.0,0.0,0.0,0.0,0.0,0.0,0.0860,-0.9704,0.2102,0.7976,-0.5872,-0.1035,0.0913
1282,0.0,0.0,0.0,0.0,0.0,0.0,0.0870,-0.9807,0.2122,0.7975,-0.5873,-0.1041,0.0911
1283,0.0,0.0,0.0,0.0,0.0,0.0,0.0865,-0.9816,0.2137,0.7972,-0.5875,-0.1045,0.0911
1284,0.0,0.0,0.0,0.0,0.0,0.0,0.0875,-0.9772,0.2137,0.7971,-0.5876,-0.1049,0.0911
1285,0.0,0.0,0.0,0.0,0.0,0.0,0.0861,-0.9777,0.2132,0.7970,-0.5877,-0.1051,0.0910
1286,0.0,0.0,0.0,0.0,0.0,0.0,0.0870,-0.9797,0.2117,0.7968,-0.5879,-0.1054,0.0910
1287,0.0,0.0,0.0,0.0,0.0,0.0,0.0856,-0.9811,0.2132,0.7967,-0.5882,-0.1055,0.0910
1288,0.0,0.0,0.0,0.0,0.0,0.0,0.0851,-0.9816,0.2122,0.7964,-0.5885,-0.1057,0.0909
1289,0.0,0.0,0.0,0.0,0.0,0.0,0.0841,-0.9826,0.2127,0.7962,-0.5887,-0.1058,0.0909
1290,0.0,0.0,0.0,0.0,0.0,0.0,0.0817,-0.9836,0.2137,0.7960,-0.5890,-0.1057,0.0910
1291,0.0,0.0,0.0,0.0,0.0,0.0,0.0802,-0.9792,0.2127,0.7959,-0.5892,-0.1055,0.0910
1292,0.0,0.0,0.0,0.0,0.0,0.0,0.0758,-0.9758,0.2122,0.7960,-0.5892,-0.1051,0.0908
1293,0.0,0.0,0.0,0.0,0.0,0.0,0.0723,-0.9743,0.2122,0.7959,-0.5894,-0.1049,0.0907
1294,0.0,0.0,0.0,0.0,0.0,0.0,0.0709,-0.9806,0.2156,0.7958,-0.5895,-0.1047,0.0907
1295,0.0,0.0,0.0,0.0,0.0,0.0,0.0763,-0.9797,0.2171,0.7959,-0.5894,-0.1048,0.0907
1296,0.0,0.0,0.0,0.0,0.0,0.0,0.0738,-0.9904,0.2224,0.7960,-0.5893,-0.1046,0.0908
1297,0.0,0.0,0.0,0.0,0.0,0.0,0.0719,-0.9767,0.2180,0.7962,-0.5890,-0.1043,0.0911
1298,0.0,0.0,0.0,0.0,0.0,0.0,0.0763,-0.9836,0.2200,0.7964,-0.5887,-0.1042,0.0912
1299,0.0,0.0,0.0,0.0,0.0,0.0,0.0792,-0.9943,0.2234,0.7968,-0.5882,-0.1040,0.0915
1300,0.0,0.0,0.0,0.0,0.0,0.0,0.0787,-0.9836,0.2181,0.7972,-0.5876,-0.1036,0.0918
1301,0.0,0.0,0.0,0.0,0.0,0.0,0.0713,-0.9660,0.2117,0.7977,-0.5870,-0.1032,0.0921
1302,0.0,0.0,0.0,0.0,0.0,0.0,0.0787,-0.9855,0.2185,0.7980,-0.5865,-0.1031,0.0925
1303,0.0,0.0,0.0,0.0,0.0,0.0,0.0841,-0.9836,0.2171,0.7983,-0.5860,-0.1031,0.0927
1304,0.0,0.0,0.0,0.0,0.0,0.0,0.0807,-0.9802,0.2161,0.7987,-0.5856,-0.1029,0.0929
1305,0.0,0.0,0.0,0.0,0.0,0.0,0.0812,-0.9850,0.2200,0.7990,-0.5852,-0.1026,0.0932
1306,0.0,0.0,0.0,0.0,0.0,0.0,0.0787,-0.9831,0.2200,0.7993,-0.5848,-0.1022,0.0934
1307,0.0,0.0,0.0,0.0,0.0,0.0,0.0733,-0.9763,0.2166,0.7995,-0.5845,-0.1017,0.0937
1308,0.0,0.0,0.0,0.0,0.0,0.0,0.0709,-0.9772,0.2205,0.7997,-0.5842,-0.1013,0.0939
1309,0.0,0.0,0.0,0.0,0.0,0.0,0.0748,-0.9865,0.2303,0.8002,-0.5837,-0.1010,0.0942
1310,0.0,0.0,0.0,0.0,0.0,0.0,0.0792,-0.9734,0.2298,0.8007,-0.5830,-0.1005,0.0944
1311,0.0,0.0,0.0,0.0,0.0,0.0,0.0807,-0.9660,0.2298,0.8013,-0.5822,-0.1001,0.0946
1312,0.0,0.0,0.0,0.0,0.0,0.0,0.0728,-0.9665,0.2312,0.8018,-0.5816,-0.0994,0.0948
1313,0.0,0.0,0.0,0.0,0.0,0.0,0.0714,-0.9641,0.2327,0.8021,-0.5812,-0.0988,0.0951
1314,0.0,0.0,0.0,0.0,0.0,0.0,0.0699,-0.9607,0.2312,0.8024,-0.5809,-0.0983,0.0952
1315,0.0,0.0,0.0,0.0,0.0,0.0,0.0679,-0.9621,0.2307,0.8025,-0.5808,-0.0978,0.0953
1316,0.0,0.0,0.0,0.0,0.0,0.0,0.0670,-0.9646,0.2322,0.8025,-0.5809,-0.0974,0.0954
1317,0.0,0.0,0.0,0.0,0.0,0.0,0.0616,-0.9685,0.2312,0.8025,-0.5810,-0.0968,0.0954
1318,0.0,0.0,0.0,0.0,0.0,0.0,0.0586,-0.9680,0.2293,0.8026,-0.5809,-0.0962,0.0955
1319,0.0,0.0,0.0,0.0,0.0,0.0,0.0552,-0.9738,0.2307,0.8025,-0.5811,-0.0957,0.0958
1320,0.0,0.0,0.0,0.0,0.0,0.0,0.0547,-0.9777,0.2332,0.8023,-0.5814,-0.0953,0.0961
1321,0.0,0.0,0.0,0.0,0.0,0.0,0.0542,-0.9724,0.2332,0.8023,-0.5814,-0.0949,0.0963
1322,0.0,0.0,0.0,0.0,0.0,0.0,0.0518,-0.9738,0.2332,0.8023,-0.5815,-0.0945,0.0963
1323,0.0,0.0,0.0,0.0,0.0,0.0,0.0484,-0.9758,0.2297,0.8022,-0.5816,-0.0943,0.0965
1324,0.0,0.0,0.0,0.0,0.0,0.0,0.0533,-0.9797,0.2292,0.8023,-0.5815,-0.0942,0.0966
1325,0.0,0.0,0.0,0.0,0.0,0.0,0.0543,-0.9821,0.2302,0.8026,-0.5811,-0.0941,0.0968
1326,0.0,0.0,0.0,0.0,0.0,0.0,0.0513,-0.9670,0.2273,0.8026,-0.5809,-0.0942,0.0971
1327,0.0,0.0,0.0,0.0,0.0,0.0,0.0494,-0.9763,0.2302,0.8026,-0.5809,-0.0944,0.0974
1328,0.0,0.0,0.0,0.0,0.0,0.0,0.0606,-0.9587,0.2273,0.8025,-0.5808,-0.0952,0.0978
1329,0.0,0.0,0.0,0.0,0.0,0.0,0.0572,-0.9782,0.2346,0.8024,-0.5808,-0.0960,0.0982
1330,0.0,0.0,0.0,0.0,0.0,0.0,0.0650,-0.9660,0.2317,0.8025,-0.5804,-0.0967,0.0986
1331,0.0,0.0,0.0,0.0,0.0,0.0,0.0738,-0.9753,0.2337,0.8026,-0.5801,-0.0979,0.0990
1332,0.0,0.0,0.0,0.0,0.0,0.0,0.0753,-0.9714,0.2298,0.8024,-0.5800,-0.0992,0.0993
1333,0.0,0.0,0.0,0.0,0.0,0.0,0.0772,-0.9636,0.2268,0.8022,-0.5800,-0.1006,0.0996
1334,0.0,0.0,0.0,0.0,0.0,0.0,0.0807,-0.9719,0.2303,0.8023,-0.5797,-0.1018,0.0998
1335,0.0,0.0,0.0,0.0,0.0,0.0,0.0865,-0.9656,0.2293,0.8022,-0.5795,-0.1033,0.0997
1336,0.0,0.0,0.0,0.0,0.0,0.0,0.0875,-0.9660,0.2303,0.8020,-0.5795,-0.1047,0.0996
1337,0.0,0.0,0.0,0.0,0.0,0.0,0.0885,-0.9631,0.2278,0.8018,-0.5796,-0.1061,0.0995
1338,0.0,0.0,0.0,0.0,0.0,0.0,0.0914,-0.9548,0.2220,0.8015,-0.5798,-0.1076,0.0994
1339,0.0,0.0,0.0,0.0,0.0,0.0,0.0885,-0.9631,0.2225,0.8010,-0.5802,-0.1090,0.0991
1340,0.0,0.0,0.0,0.0,0.0,0.0,0.0934,-0.9714,0.2239,0.8005,-0.5807,-0.1105,0.0988
1341,0.0,0.0,0.0,0.0,0.0,0.0,0.0954,-0.9758,0.2225,0.7999,-0.5813,-0.1121,0.0985
1342,0.0,0.0,0.0,0.0,0.0,0.0,0.0919,-0.9802,0.2230,0.7992,-0.5820,-0.1133,0.0982
1343,0.0,0.0,0.0,0.0,0.0,0.0,0.0954,-0.9797,0.2225,0.7986,-0.5827,-0.1145,0.0980
1344,0.0,0.0,0.0,0.0,0.0,0.0,0.0949,-0.9797,0.2215,0.7981,-0.5832,-0.1155,0.0978
1345,0.0,0.0,0.0,0.0,0.0,0.0,0.0944,-1.0021,0.2274,0.7977,-0.5837,-0.1161,0.0977
1346,0.0,0.0,0.0,0.0,0.0,0.0,0.0910,-1.0182,0.2298,0.7974,-0.5840,-0.1162,0.0978
1347,0.0,0.0,0.0,0.0,0.0,0.0,0.0925,-1.0202,0.2274,0.7975,-0.5839,-0.1158,0.0980
1348,0.0,0.0,0.0,0.0,0.0,0.0,0.1042,-1.0012,0.2186,0.7978,-0.5835,-0.1154,0.0983
1349,0.0,0.0,0.0,0.0,0.0,0.0,0.1066,-0.9836,0.2122,0.7981,-0.5832,-0.1151,0.0985
1350,0.0,0.0,0.0,0.0,0.0,0.0,0.1066,-0.9699,0.2093,0.7982,-0.5831,-0.1148,0.0988
1351,0.0,0.0,0.0,0.0,0.0,0.0,0.1066,-0.9724,0.2127,0.7985,-0.5828,-0.1143,0.0989
1352,0.0,0.0,0.0,0.0,0.0,0.0,0.1017,-0.9655,0.2127,0.7988,-0.5824,-0.1135,0.0988
1353,0.0,0.0,0.0,0.0,0.0,0.0,0.0968,-0.9558,0.2132,0.7989,-0.5824,-0.1129,0.0985
1354,0.0,0.0,0.0,0.0,0.0,0.0,0.0934,-0.9494,0.2122,0.7989,-0.5827,-0.1123,0.0981
1355,0.0,0.0,0.0,0.0,0.0,0.0,0.0880,-0.9382,0.2058,0.7986,-0.5833,-0.1117,0.0977
1356,0.0,0.0,0.0,0.0,0.0,0.0,0.0831,-0.9494,0.2088,0.7980,-0.5843,-0.1112,0.0970
1357,0.0,0.0,0.0,0.0,0.0,0.0,0.0738,-0.9641,0.2107,0.7974,-0.5855,-0.1106,0.0961
1358,0.0,0.0,0.0,0.0,0.0,0.0,0.0679,-0.9758,0.2122,0.7967,-0.5866,-0.1100,0.0953
1359,0.0,0.0,0.0,0.0,0.0,0.0,0.0621,-0.9855,0.2166,0.7962,-0.5875,-0.1091,0.0947
1360,0.0,0.0,0.0,0.0,0.0,0.0,0.0557,-0.9889,0.2170,0.7957,-0.5884,-0.1083,0.0942
1361,0.0,0.0,0.0,0.0,0.0,0.0,0.0582,-0.9987,0.2190,0.7952,-0.5892,-0.1078,0.0938
1362,0.0,0.0,0.0,0.0,0.0,0.0,0.0655,-0.9987,0.2161,0.7949,-0.5897,-0.1074,0.0937
1363,0.0,0.0,0.0,0.0,0.0,0.0,0.0616,-0.9909,0.2146,0.7950,-0.5897,-0.1067,0.0936
1364,0.0,0.0,0.0,0.0,0.0,0.0,0.0601,-0.9840,0.2156,0.7951,-0.5897,-0.1061,0.0937
1365,0.0,0.0,0.0,0.0,0.0,0.0,0.0660,-0.9845,0.2200,0.7952,-0.5896,-0.1059,0.0938
1366,0.0,0.0,0.0,0.0,0.0,0.0,0.0689,-0.9792,0.2195,0.7955,-0.5892,-0.1058,0.0939
1367,0.0,0.0,0.0,0.0,0.0,0.0,0.0689,-0.9821,0.2249,0.7958,-0.5888,-0.1057,0.0941
1368,0.0,0.0,0.0,0.0,0.0,0.0,0.0699,-0.9782,0.2263,0.7962,-0.5883,-0.1056,0.0942
1369,0.0,0.0,0.0,0.0,0.0,0.0,0.0714,-0.9689,0.2205,0.7965,-0.5878,-0.1056,0.0943
1370,0.0,0.0,0.0,0.0,0.0,0.0,0.0709,-0.9675,0.2166,0.7968,-0.5875,-0.1057,0.0944
1371,0.0,0.0,0.0,0.0,0.0,0.0,0.0709,-0.9665,0.2141,0.7968,-0.5873,-0.1058,0.0947
1372,0.0,0.0,0.0,0.0,0.0,0.0,0.0748,-0.9728,0.2151,0.7968,-0.5872,-0.1063,0.0949
1373,0.0,0.0,0.0,0.0,0.0,0.0,0.0802,-0.9763,0.2190,0.7967,-0.5872,-0.1070,0.0951
1374,0.0,0.0,0.0,0.0,0.0,0.0,0.0861,-0.9758,0.2156,0.7966,-0.5872,-0.1078,0.0952
1375,0.0,0.0,0.0,0.0,0.0,0.0,0.0851,-0.9792,0.2166,0.7965,-0.5871,-0.1084,0.0956
1376,0.0,0.0,0.0,0.0,0.0,0.0,0.0875,-0.9748,0.2132,0.7962,-0.5874,-0.1090,0.0960
1377,0.0,0.0,0.0,0.0,0.0,0.0,0.0875,-0.9611,0.2039,0.7956,-0.5879,-0.1097,0.0962
1378,0.0,0.0,0.0,0.0,0.0,0.0,0.0914,-0.9606,0.1995,0.7952,-0.5884,-0.1104,0.0962
1379,0.0,0.0,0.0,0.0,0.0,0.0,0.0914,-0.9611,0.1961,0.7946,-0.5891,-0.1112,0.0960
1380,0.0,0.0,0.0,0.0,0.0,0.0,0.0919,-0.9631,0.1912,0.7937,-0.5901,-0.1122,0.0957
1381,0.0,0.0,0.0,0.0,0.0,0.0,0.0919,-0.9728,0.1887,0.7928,-0.5912,-0.1131,0.0954
1382,0.0,0.0,0.0,0.0,0.0,0.0,0.0929,-0.9801,0.1844,0.7918,-0.5925,-0.1140,0.0949
1383,0.0,0.0,0.0,0.0,0.0,0.0,0.0855,-0.9913,0.1843,0.7908,-0.5939,-0.1146,0.0942
1384,0.0,0.0,0.0,0.0,0.0,0.0,0.0870,-1.0006,0.1873,0.7900,-0.5949,-0.1151,0.0937
1385,0.0,0.0,0.0,0.0,0.0,0.0,0.0841,-1.0055,0.1892,0.7893,-0.5958,-0.1154,0.0934
1386,0.0,0.0,0.0,0.0,0.0,0.0,0.0821,-0.9938,0.1834,0.7887,-0.5966,-0.1155,0.0931
1387,0.0,0.0,0.0,0.0,0.0,0.0,0.0801,-0.9840,0.1785,0.7882,-0.5973,-0.1156,0.0929
1388,0.0,0.0,0.0,0.0,0.0,0.0,0.0772,-0.9952,0.1829,0.7875,-0.5981,-0.1158,0.0927
1389,0.0,0.0,0.0,0.0,0.0,0.0,0.0802,-0.9947,0.1843,0.7871,-0.5988,-0.1160,0.0926
1390,0.0,0.0,0.0,0.0,0.0,0.0,0.0806,-0.9923,0.1863,0.7869,-0.5990,-0.1160,0.0925
1391,0.0,0.0,0.0,0.0,0.0,0.0,0.0851,-0.9957,0.1887,0.7867,-0.5992,-0.1161,0.0924
1392,0.0,0.0,0.0,0.0,0.0,0.0,0.0870,-0.9987,0.1887,0.7867,-0.5992,-0.1162,0.0924
1393,0.0,0.0,0.0,0.0,0.0,0.0,0.0899,-0.9889,0.1853,0.7867,-0.5992,-0.1164,0.0923
1394,0.0,0.0,0.0,0.0,0.0,0.0,0.0958,-0.9821,0.1863,0.7869,-0.5989,-0.1167,0.0921
1395,0.0,0.0,0.0,0.0,0.0,0.0,0.0880,-0.9987,0.1961,0.7872,-0.5986,-0.1166,0.0920
1396,0.0,0.0,0.0,0.0,0.0,0.0,0.0866,-1.0114,0.1995,0.7876,-0.5981,-0.1163,0.0920
1397,0.0,0.0,0.0,0.0,0.0,0.0,0.0904,-0.9879,0.1863,0.7878,-0.5978,-0.1160,0.0920
1398,0.0,0.0,0.0,0.0,0.0,0.0,0.0851,-0.9928,0.1863,0.7881,-0.5976,-0.1155,0.0921
1399,0.0,0.0,0.0,0.0,0.0,0.0,0.0880,-0.9816,0.1848,0.7884,-0.5972,-0.1150,0.0925
1400,0.0,0.0,0.0,0.0,0.0,0.0,0.0885,-0.9865,0.1868,0.7886,-0.5969,-0.1146,0.0930
1401,0.0,0.0,0.0,0.0,0.0,0.0,0.0919,-0.9865,0.1878,0.7888,-0.5967,-0.1142,0.0933
1402,0.0,0.0,0.0,0.0,0.0,0.0,0.0924,-0.9840,0.1888,0.7890,-0.5965,-0.1140,0.0935
1403,0.0,0.0,0.0,0.0,0.0,0.0,0.0939,-0.9811,0.1888,0.7894,-0.5960,-0.1137,0.0936
1404,0.0,0.0,0.0,0.0,0.0,0.0,0.0924,-0.9806,0.1917,0.7899,-0.5953,-0.1132,0.0938
1405,0.0,0.0,0.0,0.0,0.0,0.0,0.0841,-0.9855,0.1956,0.7905,-0.5947,-0.1125,0.0938
1406,0.0,0.0,0.0,0.0,0.0,0.0,0.0841,-0.9836,0.1966,0.7909,-0.5942,-0.1121,0.0939
1407,0.0,0.0,0.0,0.0,0.0,0.0,0.0816,-0.9787,0.1931,0.7913,-0.5938,-0.1117,0.0938
1408,0.0,0.0,0.0,0.0,0.0,0.0,0.0885,-0.9704,0.1917,0.7917,-0.5933,-0.1115,0.0938
1409,0.0,0.0,0.0,0.0,0.0,0.0,0.0909,-0.9738,0.1941,0.7919,-0.5930,-0.1116,0.0939
1410,0.0,0.0,0.0,0.0,0.0,0.0,0.0904,-0.9728,0.1917,0.7919,-0.5930,-0.1117,0.0939
1411,0.0,0.0,0.0,0.0,0.0,0.0,0.0914,-0.9694,0.1907,0.7919,-0.5929,-0.1120,0.0938
1412,0.0,0.0,0.0,0.0,0.0,0.0,0.0909,-0.9626,0.1897,0.7920,-0.5928,-0.1123,0.0936
1413,0.0,0.0,0.0,0.0,0.0,0.0,0.0978,-0.9670,0.1941,0.7918,-0.5929,-0.1131,0.0934
1414,0.0,0.0,0.0,0.0,0.0,0.0,0.0983,-0.9802,0.2024,0.7918,-0.5928,-0.1137,0.0933
1415,0.0,0.0,0.0,0.0,0.0,0.0,0.0914,-0.9865,0.2073,0.7919,-0.5926,-0.1140,0.0931
1416,0.0,0.0,0.0,0.0,0.0,0.0,0.0905,-0.9870,0.2088,0.7923,-0.5922,-0.1139,0.0932
1417,0.0,0.0,0.0,0.0,0.0,0.0,0.0929,-0.9850,0.2098,0.7925,-0.5918,-0.1139,0.0932
1418,0.0,0.0,0.0,0.0,0.0,0.0,0.0909,-0.9782,0.2054,0.7927,-0.5916,-0.1137,0.0934
1419,0.0,0.0,0.0,0.0,0.0,0.0,0.0934,-0.9719,0.2005,0.7926,-0.5916,-0.1137,0.0936
1420,0.0,0.0,0.0,0.0,0.0,0.0,0.0934,-0.9841,0.2024,0.7924,-0.5918,-0.1139,0.0938
1421,0.0,0.0,0.0,0.0,0.0,0.0,0.0924,-0.9767,0.2000,0.7923,-0.5920,-0.1139,0.0939
1422,0.0,0.0,0.0,0.0,0.0,0.0,0.0899,-0.9655,0.1956,0.7921,-0.5923,-0.1141,0.0939
1423,0.0,0.0,0.0,0.0,0.0,0.0,0.0895,-0.9748,0.1971,0.7918,-0.5926,-0.1144,0.0938
1424,0.0,0.0,0.0,0.0,0.0,0.0,0.0826,-0.9660,0.1941,0.7914,-0.5931,-0.1144,0.0937
1425,0.0,0.0,0.0,0.0,0.0,0.0,0.0851,-0.9757,0.1975,0.7910,-0.5936,-0.1147,0.0936
1426,0.0,0.0,0.0,0.0,0.0,0.0,0.0860,-0.9904,0.2014,0.7908,-0.5939,-0.1148,0.0936
1427,0.0,0.0,0.0,0.0,0.0,0.0,0.0904,-0.9870,0.1980,0.7907,-0.5941,-0.1149,0.0935
1428,0.0,0.0,0.0,0.0,0.0,0.0,0.0934,-0.9709,0.1873,0.7903,-0.5945,-0.1153,0.0934
1429,0.0,0.0,0.0,0.0,0.0,0.0,0.1012,-0.9694,0.1809,0.7897,-0.5952,-0.1160,0.0933
1430,0.0,0.0,0.0,0.0,0.0,0.0,0.1017,-0.9840,0.1819,0.7891,-0.5958,-0.1165,0.0932
1431,0.0,0.0,0.0,0.0,0.0,0.0,0.0992,-0.9879,0.1829,0.7886,-0.5965,-0.1169,0.0930
1432,0.0,0.0,0.0,0.0,0.0,0.0,0.0978,-0.9904,0.1834,0.7880,-0.5972,-0.1172,0.0928
1433,0.0,0.0,0.0,0.0,0.0,0.0,0.0958,-0.9899,0.1809,0.7877,-0.5976,-0.1173,0.0925
1434,0.0,0.0,0.0,0.0,0.0,0.0,0.0973,-0.9840,0.1756,0.7872,-0.5983,-0.1175,0.0922
1435,0.0,0.0,0.0,0.0,0.0,0.0,0.0973,-0.9816,0.1741,0.7866,-0.5992,-0.1177,0.0918
1436,0.0,0.0,0.0,0.0,0.0,0.0,0.0958,-0.9850,0.1751,0.7862,-0.5997,-0.1176,0.0916
1437,0.0,0.0,0.0,0.0,0.0,0.0,0.0924,-0.9869,0.1746,0.7857,-0.6004,-0.1175,0.0914
1438,0.0,0.0,0.0,0.0,0.0,0.0,0.0831,-0.9903,0.1775,0.7853,-0.6011,-0.1168,0.0912
1439,0.0,0.0,0.0,0.0,0.0,0.0,0.0929,-0.9908,0.1775,0.7849,-0.6018,-0.1161,0.0912
1440,0.0,0.0,0.0,0.0,0.0,0.0,0.0919,-0.9943,0.1775,0.7847,-0.6021,-0.1156,0.0915
1441,0.0,0.0,0.0,0.0,0.0,0.0,0.0880,-0.9972,0.1790,0.7846,-0.6023,-0.1150,0.0916
1442,0.0,0.0,0.0,0.0,0.0,0.0,0.0904,-0.9972,0.1775,0.7845,-0.6025,-0.1148,0.0916
1443,0.0,0.0,0.0,0.0,0.0,0.0,0.0953,-0.9996,0.1785,0.7844,-0.6026,-0.1148,0.0915
1444,0.0,0.0,0.0,0.0,0.0,0.0,0.0875,-0.9986,0.1785,0.7846,-0.6025,-0.1143,0.0912
1445,0.0,0.0,0.0,0.0,0.0,0.0,0.0816,-0.9938,0.1780,0.7849,-0.6023,-0.1134,0.0910
1446,0.0,0.0,0.0,0.0,0.0,0.0,0.0757,-0.9972,0.1809,0.7853,-0.6020,-0.1122,0.0908
1447,0.0,0.0,0.0,0.0,0.0,0.0,0.0699,-1.0011,0.1838,0.7859,-0.6016,-0.1107,0.0906
1448,0.0,0.0,0.0,0.0,0.0,0.0,0.0674,-0.9977,0.1833,0.7867,-0.6009,-0.1092,0.0905
1449,0.0,0.0,0.0,0.0,0.0,0.0,0.0655,-0.9894,0.1828,0.7874,-0.6002,-0.1077,0.0906
1450,0.0,0.0,0.0,0.0,0.0,0.0,0.0650,-0.9816,0.1838,0.7882,-0.5993,-0.1062,0.0909
1451,0.0,0.0,0.0,0.0,0.0,0.0,0.0640,-0.9869,0.1882,0.7890,-0.5984,-0.1048,0.0914
1452,0.0,0.0,0.0,0.0,0.0,0.0,0.0630,-0.9913,0.1907,0.7897,-0.5977,-0.1037,0.0919
1453,0.0,0.0,0.0,0.0,0.0,0.0,0.0616,-0.9967,0.1970,0.7906,-0.5965,-0.1027,0.0925
1454,0.0,0.0,0.0,0.0,0.0,0.0,0.0621,-1.0011,0.2043,0.7918,-0.5950,-0.1018,0.0932
1455,0.0,0.0,0.0,0.0,0.0,0.0,0.0631,-0.9972,0.2122,0.7931,-0.5933,-0.1011,0.0940
1456,0.0,0.0,0.0,0.0,0.0,0.0,0.0665,-0.9948,0.2171,0.7946,-0.5912,-0.1006,0.0949
1457,0.0,0.0,0.0,0.0,0.0,0.0,0.0699,-0.9904,0.2224,0.7962,-0.5889,-0.1002,0.0960
1458,0.0,0.0,0.0,0.0,0.0,0.0,0.0758,-0.9899,0.2298,0.7980,-0.5864,-0.1000,0.0969
1459,0.0,0.0,0.0,0.0,0.0,0.0,0.0797,-0.9880,0.2347,0.7998,-0.5838,-0.0998,0.0977
1460,0.0,0.0,0.0,0.0,0.0,0.0,0.0846,-0.9724,0.2332,0.8014,-0.5814,-0.0998,0.0983
1461,0.0,0.0,0.0,0.0,0.0,0.0,0.0860,-0.9538,0.2288,0.8029,-0.5793,-0.0998,0.0988
1462,0.0,0.0,0.0,0.0,0.0,0.0,0.0865,-0.9377,0.2229,0.8041,-0.5777,-0.0998,0.0991
1463,0.0,0.0,0.0,0.0,0.0,0.0,0.0860,-0.9348,0.2225,0.8048,-0.5766,-0.1001,0.0992
1464,0.0,0.0,0.0,0.0,0.0,0.0,0.0821,-0.9397,0.2254,0.8052,-0.5759,-0.1004,0.0992
1465,0.0,0.0,0.0,0.0,0.0,0.0,0.0782,-0.9558,0.2347,0.8056,-0.5754,-0.1005,0.0991
1466,0.0,0.0,0.0,0.0,0.0,0.0,0.0758,-0.9753,0.2425,0.8062,-0.5746,-0.1004,0.0990
1467,0.0,0.0,0.0,0.0,0.0,0.0,0.0729,-0.9817,0.2474,0.8070,-0.5736,-0.1001,0.0990
1468,0.0,0.0,0.0,0.0,0.0,0.0,0.0714,-0.9787,0.2537,0.8080,-0.5721,-0.0999,0.0989
1469,0.0,0.0,0.0,0.0,0.0,0.0,0.0719,-0.9705,0.2547,0.8090,-0.5708,-0.0997,0.0990
1470,0.0,0.0,0.0,0.0,0.0,0.0,0.0773,-0.9671,0.2591,0.8096,-0.5698,-0.0997,0.0992
1471,0.0,0.0,0.0,0.0,0.0,0.0,0.0817,-0.9700,0.2650,0.8107,-0.5683,-0.0996,0.0995
1472,0.0,0.0,0.0,0.0,0.0,0.0,0.0841,-0.9593,0.2669,0.8121,-0.5663,-0.0995,0.0996
1473,0.0,0.0,0.0,0.0,0.0,0.0,0.0812,-0.9451,0.2630,0.8131,-0.5649,-0.0996,0.0997
1474,0.0,0.0,0.0,0.0,0.0,0.0,0.0787,-0.9456,0.2659,0.8135,-0.5642,-0.0997,0.0996
1475,0.0,0.0,0.0,0.0,0.0,0.0,0.0787,-0.9432,0.2659,0.8137,-0.5639,-0.1000,0.0996
1476,0.0,0.0,0.0,0.0,0.0,0.0,0.0783,-0.9456,0.2655,0.8137,-0.5639,-0.1001,0.0997
1477,0.0,0.0,0.0,0.0,0.0,0.0,0.0773,-0.9490,0.2659,0.8136,-0.5640,-0.1002,0.0998
1478,0.0,0.0,0.0,0.0,0.0,0.0,0.0778,-0.9495,0.2601,0.8132,-0.5644,-0.1004,0.0999
1479,0.0,0.0,0.0,0.0,0.0,0.0,0.0787,-0.9461,0.2571,0.8126,-0.5653,-0.1008,0.1000
1480,0.0,0.0,0.0,0.0,0.0,0.0,0.0817,-0.9490,0.2567,0.8117,-0.5665,-0.1014,0.1001
1481,0.0,0.0,0.0,0.0,0.0,0.0,0.0778,-0.9612,0.2557,0.8108,-0.5677,-0.1018,0.1001
1482,0.0,0.0,0.0,0.0,0.0,0.0,0.0783,-0.9636,0.2518,0.8096,-0.5693,-0.1022,0.0999
1483,0.0,0.0,0.0,0.0,0.0,0.0,0.0831,-0.9670,0.2493,0.8083,-0.5710,-0.1030,0.0996
1484,0.0,0.0,0.0,0.0,0.0,0.0,0.0773,-0.9695,0.2479,0.8076,-0.5720,-0.1031,0.0993
1485,0.0,0.0,0.0,0.0,0.0,0.0,0.0738,-0.9670,0.2439,0.8068,-0.5732,-0.1034,0.0991
1486,0.0,0.0,0.0,0.0,0.0,0.0,0.0748,-0.9646,0.2425,0.8060,-0.5742,-0.1040,0.0988
1487,0.0,0.0,0.0,0.0,0.0,0.0,0.0758,-0.9660,0.2395,0.8053,-0.5752,-0.1046,0.0984
1488,0.0,0.0,0.0,0.0,0.0,0.0,0.0792,-0.9621,0.2361,0.8044,-0.5764,-0.1053,0.0979
1489,0.0,0.0,0.0,0.0,0.0,0.0,0.0831,-0.9661,0.2366,0.8036,-0.5775,-0.1062,0.0975
1490,0.0,0.0,0.0,0.0,0.0,0.0,0.0797,-0.9807,0.2400,0.8027,-0.5787,-0.1068,0.0969
1491,0.0,0.0,0.0,0.0,0.0,0.0,0.0675,-0.9807,0.2332,0.8022,-0.5795,-0.1067,0.0964
1492,0.0,0.0,0.0,0.0,0.0,0.0,0.0665,-0.9841,0.2312,0.8017,-0.5802,-0.1065,0.0961
1493,0.0,0.0,0.0,0.0,0.0,0.0,0.0670,-0.9938,0.2356,0.8013,-0.5808,-0.1063,0.0960
1494,0.0,0.0,0.0,0.0,0.0,0.0,0.0724,-1.0002,0.2425,0.8013,-0.5809,-0.1061,0.0960
1495,0.0,0.0,0.0,0.0,0.0,0.0,0.0793,-1.0002,0.2498,0.8016,-0.5805,-0.1058,0.0962
1496,0.0,0.0,0.0,0.0,0.0,0.0,0.0753,-0.9646,0.2337,0.8019,-0.5802,-0.1054,0.0963
1497,0.0,0.0,0.0,0.0,0.0,0.0,0.0768,-0.9680,0.2293,0.8017,-0.5803,-0.1055,0.0965
1498,0.0,0.0,0.0,0.0,0.0,0.0,0.0768,-0.9992,0.2449,0.8017,-0.5804,-0.1054,0.0965
1499,0.0,0.0,0.0,0.0,0.0,0.0,0.0797,-0.9943,0.2435,0.8019,-0.5802,-0.1051,0.0967
1500,0.0,0.0,0.0,0.0,0.0,0.0,0.0802,-0.9919,0.2396,0.8022,-0.5798,-0.1045,0.0970
1501,0.0,0.0,0.0,0.0,0.0,0.0,0.0787,-0.9641,0.2293,0.8026,-0.5793,-0.1039,0.0972
1502,0.0,0.0,0.0,0.0,0.0,0.0,0.0796,-0.9192,0.2122,0.8027,-0.5791,-0.1040,0.0972
1503,0.0,0.0,0.0,0.0,0.0,0.0,0.0845,-0.9021,0.2093,0.8024,-0.5794,-0.1048,0.0969
1504,0.0,0.0,0.0,0.0,0.0,0.0,0.0699,-0.9948,0.2347,0.8019,-0.5801,-0.1052,0.0968
1505,0.0,0.0,0.0,0.0,0.0,0.0,0.0739,-0.9968,0.2351,0.8018,-0.5802,-0.1054,0.0969
1506,0.0,0.0,0.0,0.0,0.0,0.0,0.0826,-0.9787,0.2288,0.8019,-0.5800,-0.1057,0.0970
1507,0.0,0.0,0.0,0.0,0.0,0.0,0.0792,-0.9841,0.2337,0.8020,-0.5798,-0.1059,0.0972
1508,0.0,0.0,0.0,0.0,0.0,0.0,0.0920,-1.0090,0.2494,0.8027,-0.5787,-0.1062,0.0977
1509,0.0,0.0,0.0,0.0,0.0,0.0,0.0836,-0.9782,0.2386,0.8036,-0.5774,-0.1059,0.0983
1510,0.0,0.0,0.0,0.0,0.0,0.0,0.0768,-0.9592,0.2308,0.8042,-0.5766,-0.1054,0.0987
1511,0.0,0.0,0.0,0.0,0.0,0.0,0.0797,-0.9573,0.2317,0.8046,-0.5760,-0.1050,0.0989
1512,0.0,0.0,0.0,0.0,0.0,0.0,0.0748,-0.9509,0.2298,0.8046,-0.5761,-0.1048,0.0990
1513,0.0,0.0,0.0,0.0,0.0,0.0,0.0743,-0.9431,0.2273,0.8042,-0.5766,-0.1049,0.0990
1514,0.0,0.0,0.0,0.0,0.0,0.0,0.0836,-0.9529,0.2303,0.8035,-0.5775,-0.1058,0.0989
1515,0.0,0.0,0.0,0.0,0.0,0.0,0.0826,-0.9558,0.2303,0.8026,-0.5786,-0.1067,0.0985
1516,0.0,0.0,0.0,0.0,0.0,0.0,0.0836,-0.9587,0.2278,0.8016,-0.5799,-0.1076,0.0980
1517,0.0,0.0,0.0,0.0,0.0,0.0,0.0802,-0.9968,0.2381,0.8006,-0.5812,-0.1083,0.0976
1518,0.0,0.0,0.0,0.0,0.0,0.0,0.0866,-1.0158,0.2415,0.7998,-0.5823,-0.1088,0.0971
1519,0.0,0.0,0.0,0.0,0.0,0.0,0.0915,-0.9934,0.2278,0.7991,-0.5833,-0.1090,0.0965
1520,0.0,0.0,0.0,0.0,0.0,0.0,0.0850,-0.9323,0.2019,0.7985,-0.5842,-0.1090,0.0960
1521,0.0,0.0,0.0,0.0,0.0,0.0,0.0914,-0.9777,0.2171,0.7975,-0.5855,-0.1094,0.0956
1522,0.0,0.0,0.0,0.0,0.0,0.0,0.0856,-1.0299,0.2313,0.7966,-0.5868,-0.1093,0.0954
1523,0.0,0.0,0.0,0.0,0.0,0.0,0.0831,-1.0002,0.2225,0.7962,-0.5876,-0.1086,0.0953
1524,0.0,0.0,0.0,0.0,0.0,0.0,0.0767,-0.9748,0.2156,0.7958,-0.5882,-0.1077,0.0953
1525,0.0,0.0,0.0,0.0,0.0,0.0,0.0748,-0.9548,0.2136,0.7955,-0.5888,-0.1069,0.0954
1526,0.0,0.0,0.0,0.0,0.0,0.0,0.0718,-0.9460,0.2102,0.7951,-0.5895,-0.1062,0.0956
1527,0.0,0.0,0.0,0.0,0.0,0.0,0.0669,-0.9523,0.2039,0.7943,-0.5905,-0.1058,0.0955
1528,0.0,0.0,0.0,0.0,0.0,0.0,0.0655,-0.9728,0.2024,0.7934,-0.5918,-0.1056,0.0954
1529,0.0,0.0,0.0,0.0,0.0,0.0,0.0660,-0.9840,0.2019,0.7925,-0.5931,-0.1055,0.0952
1530,0.0,0.0,0.0,0.0,0.0,0.0,0.0660,-0.9913,0.2024,0.7917,-0.5942,-0.1055,0.0951
1531,0.0,0.0,0.0,0.0,0.0,0.0,0.0640,-1.0030,0.2019,0.7912,-0.5948,-0.1054,0.0949
1532,0.0,0.0,0.0,0.0,0.0,0.0,0.0650,-0.9996,0.1980,0.7908,-0.5954,-0.1052,0.0947
1533,0.0,0.0,0.0,0.0,0.0,0.0,0.0679,-0.9938,0.1946,0.7907,-0.5957,-0.1051,0.0945
1534,0.0,0.0,0.0,0.0,0.0,0.0,0.0684,-0.9947,0.1936,0.7906,-0.5959,-0.1050,0.0941
1535,0.0,0.0,0.0,0.0,0.0,0.0,0.0669,-0.9938,0.1936,0.7906,-0.5960,-0.1049,0.0939
1536,0.0,0.0,0.0,0.0,0.0,0.0,0.0694,-0.9943,0.1965,0.7906,-0.5959,-0.1049,0.0937
1537,0.0,0.0,0.0,0.0,0.0,0.0,0.0714,-0.9909,0.2000,0.7907,-0.5958,-0.1049,0.0936
1538,0.0,0.0,0.0,0.0,0.0,0.0,0.0679,-0.9879,0.2014,0.7909,-0.5956,-0.1046,0.0934
1539,0.0,0.0,0.0,0.0,0.0,0.0,0.0674,-0.9801,0.2019,0.7911,-0.5954,-0.1044,0.0933
1540,0.0,0.0,0.0,0.0,0.0,0.0,0.0718,-0.9777,0.2039,0.7914,-0.5951,-0.1041,0.0933
1541,0.0,0.0,0.0,0.0,0.0,0.0,0.0704,-0.9738,0.2019,0.7918,-0.5947,-0.1038,0.0933
1542,0.0,0.0,0.0,0.0,0.0,0.0,0.0713,-0.9753,0.2019,0.7917,-0.5947,-0.1039,0.0935
1543,0.0,0.0,0.0,0.0,0.0,0.0,0.0694,-0.9982,0.2122,0.7920,-0.5943,-0.1037,0.0938
1544,0.0,0.0,0.0,0.0,0.0,0.0,0.0724,-0.9909,0.2127,0.7926,-0.5936,-0.1032,0.0940
1545,0.0,0.0,0.0,0.0,0.0,0.0,0.0753,-0.9704,0.2039,0.7930,-0.5930,-0.1031,0.0941
1546,0.0,0.0,0.0,0.0,0.0,0.0,0.0723,-0.9855,0.2107,0.7935,-0.5923,-0.1029,0.0944
1547,0.0,0.0,0.0,0.0,0.0,0.0,0.0714,-0.9787,0.2097,0.7938,-0.5920,-0.1026,0.0946
1548,0.0,0.0,0.0,0.0,0.0,0.0,0.0713,-0.9684,0.2068,0.7939,-0.5918,-0.1024,0.0947
1549,0.0,0.0,0.0,0.0,0.0,0.0,0.0679,-0.9723,0.2063,0.7941,-0.5915,-0.1022,0.0948
1550,0.0,0.0,0.0,0.0,0.0,0.0,0.0665,-0.9757,0.2083,0.7943,-0.5914,-0.1020,0.0948
1551,0.0,0.0,0.0,0.0,0.0,0.0,0.0684,-0.9753,0.2087,0.7944,-0.5913,-0.1020,0.0948
1552,0.0,0.0,0.0,0.0,0.0,0.0,0.0655,-0.9728,0.2063,0.7944,-0.5912,-0.1020,0.0948
1553,0.0,0.0,0.0,0.0,0.0,0.0,0.0650,-0.9684,0.2053,0.7944,-0.5912,-0.1021,0.0948
1554,0.0,0.0,0.0,0.0,0.0,0.0,0.0655,-0.9772,0.2092,0.7944,-0.5912,-0.1022,0.0947
1555,0.0,0.0,0.0,0.0,0.0,0.0,0.0655,-0.9899,0.2141,0.7945,-0.5910,-0.1022,0.0948
1556,0.0,0.0,0.0,0.0,0.0,0.0,0.0714,-0.9928,0.2195,0.7948,-0.5906,-0.1023,0.0949
1557,0.0,0.0,0.0,0.0,0.0,0.0,0.0718,-0.9714,0.2122,0.7953,-0.5899,-0.1023,0.0948
1558,0.0,0.0,0.0,0.0,0.0,0.0,0.0738,-0.9533,0.2053,0.7954,-0.5898,-0.1026,0.0948
1559,0.0,0.0,0.0,0.0,0.0,0.0,0.0723,-0.9655,0.2078,0.7952,-0.5900,-0.1030,0.0949
1560,0.0,0.0,0.0,0.0,0.0,0.0,0.0714,-0.9958,0.2171,0.7950,-0.5902,-0.1032,0.0949
1561,0.0,0.0,0.0,0.0,0.0,0.0,0.0704,-0.9860,0.2141,0.7950,-0.5902,-0.1033,0.0950
1562,0.0,0.0,0.0,0.0,0.0,0.0,0.0738,-0.9699,0.2053,0.7948,-0.5903,-0.1035,0.0951
1563,0.0,0.0,0.0,0.0,0.0,0.0,0.0733,-0.9748,0.2044,0.7947,-0.5904,-0.1036,0.0953
1564,0.0,0.0,0.0,0.0,0.0,0.0,0.0748,-0.9718,0.2034,0.7944,-0.5908,-0.1040,0.0954
1565,0.0,0.0,0.0,0.0,0.0,0.0,0.0758,-0.9826,0.2078,0.7941,-0.5910,-0.1044,0.0954
1566,0.0,0.0,0.0,0.0,0.0,0.0,0.0762,-0.9762,0.2034,0.7939,-0.5913,-0.1047,0.0954
1567,0.0,0.0,0.0,0.0,0.0,0.0,0.0787,-0.9801,0.2039,0.7934,-0.5919,-0.1053,0.0953
1568,0.0,0.0,0.0,0.0,0.0,0.0,0.0782,-0.9860,0.2063,0.7933,-0.5920,-0.1057,0.0950
1569,0.0,0.0,0.0,0.0,0.0,0.0,0.0816,-0.9679,0.2009,0.7933,-0.5920,-0.1061,0.0947
1570,0.0,0.0,0.0,0.0,0.0,0.0,0.0782,-0.9880,0.2097,0.7931,-0.5922,-0.1064,0.0943
1571,0.0,0.0,0.0,0.0,0.0,0.0,0.0763,-0.9967,0.2132,0.7931,-0.5923,-0.1065,0.0939
1572,0.0,0.0,0.0,0.0,0.0,0.0,0.0743,-0.9879,0.2092,0.7934,-0.5921,-0.1064,0.0934
1573,0.0,0.0,0.0,0.0,0.0,0.0,0.0699,-0.9836,0.2063,0.7936,-0.5919,-0.1060,0.0933
1574,0.0,0.0,0.0,0.0,0.0,0.0,0.0758,-0.9772,0.2019,0.7935,-0.5920,-0.1060,0.0933
1575,0.0,0.0,0.0,0.0,0.0,0.0,0.0694,-0.9787,0.2009,0.7935,-0.5920,-0.1056,0.0934
1576,0.0,0.0,0.0,0.0,0.0,0.0,0.0787,-0.9958,0.2068,0.7935,-0.5919,-0.1056,0.0936
1577,0.0,0.0,0.0,0.0,0.0,0.0,0.0860,-0.9748,0.1995,0.7935,-0.5919,-0.1059,0.0937
1578,0.0,0.0,0.0,0.0,0.0,0.0,0.0850,-0.9689,0.1975,0.7933,-0.5921,-0.1062,0.0938
1579,0.0,0.0,0.0,0.0,0.0,0.0,0.0865,-0.9841,0.2039,0.7931,-0.5923,-0.1065,0.0938
