,Position_X,Position_Y,Position_Z,Velocity_X,Velocity_Y,Velocity_Z,Acceleration_X,Acceleration_Y,Acceleration_Z,Quaterion_0,Quaterion_1,Quaterion_2,Quaterion_3
90,0.0,0.0,0.0,0.0,0.0,0.0,0.1585,-0.9797,0.1288,0.7718,-0.6197,0.0215,-0.1410
91,0.0,0.0,0.0,0.0,0.0,0.0,0.1502,-0.9819,0.1253,0.7716,-0.6199,0.0211,-0.1407
92,0.0,0.0,0.0,0.0,0.0,0.0,0.1619,-0.9797,0.1268,0.7716,-0.6201,0.0206,-0.1403
93,0.0,0.0,0.0,0.0,0.0,0.0,0.1633,-0.9786,0.1235,0.7714,-0.6204,0.0199,-0.1398
94,0.0,0.0,0.0,0.0,0.0,0.0,0.1819,-0.9620,0.1056,0.7706,-0.6216,0.0184,-0.1398
95,0.0,0.0,0.0,0.0,0.0,0.0,0.1848,-0.9657,0.1133,0.7701,-0.6221,0.0168,-0.1401
96,0.0,0.0,0.0,0.0,0.0,0.0,0.1774,-0.9895,0.1246,0.7701,-0.6221,0.0155,-0.1403
97,0.0,0.0,0.0,0.0,0.0,0.0,0.1754,-0.9945,0.1162,0.7698,-0.6225,0.0145,-0.1407
98,0.0,0.0,0.0,0.0,0.0,0.0,0.1520,-0.9952,0.1258,0.7697,-0.6226,0.0145,-0.1403
99,0.0,0.0,0.0,0.0,0.0,0.0,0.1651,-1.0045,0.1241,0.7698,-0.6226,0.0147,-0.1398
100,0.0,0.0,0.0,0.0,0.0,0.0,0.1613,-0.9888,0.1241,0.7701,-0.6224,0.0148,-0.1394
101,0.0,0.0,0.0,0.0,0.0,0.0,0.1618,-0.9899,0.1270,0.7702,-0.6224,0.0145,-0.1386
102,0.0,0.0,0.0,0.0,0.0,0.0,0.1687,-0.9900,0.1285,0.7703,-0.6225,0.0140,-0.1377
103,0.0,0.0,0.0,0.0,0.0,0.0,0.1609,-0.9837,0.1306,0.7705,-0.6225,0.0137,-0.1368
104,0.0,0.0,0.0,0.0,0.0,0.0,0.1614,-0.9872,0.1339,0.7708,-0.6223,0.0136,-0.1359
105,0.0,0.0,0.0,0.0,0.0,0.0,0.1614,-0.9819,0.1355,0.7711,-0.6221,0.0138,-0.1350
106,0.0,0.0,0.0,0.0,0.0,0.0,0.1590,-0.9746,0.1362,0.7710,-0.6224,0.0132,-0.1343
107,0.0,0.0,0.0,0.0,0.0,0.0,0.1585,-0.9761,0.1366,0.7712,-0.6223,0.0128,-0.1339
108,0.0,0.0,0.0,0.0,0.0,0.0,0.1581,-0.9747,0.1381,0.7717,-0.6216,0.0131,-0.1338
109,0.0,0.0,0.0,0.0,0.0,0.0,0.1586,-0.9728,0.1401,0.7721,-0.6211,0.0132,-0.1337
110,0.0,0.0,0.0,0.0,0.0,0.0,0.1576,-0.9733,0.1411,0.7726,-0.6205,0.0134,-0.1338
111,0.0,0.0,0.0,0.0,0.0,0.0,0.1571,-0.9728,0.1411,0.7728,-0.6203,0.0133,-0.1337
112,0.0,0.0,0.0,0.0,0.0,0.0,0.1576,-0.9748,0.1410,0.7727,-0.6205,0.0128,-0.1335
113,0.0,0.0,0.0,0.0,0.0,0.0,0.1581,-0.9777,0.1424,0.7730,-0.6201,0.0129,-0.1335
114,0.0,0.0,0.0,0.0,0.0,0.0,0.1595,-0.9807,0.1423,0.7732,-0.6198,0.0129,-0.1336
115,0.0,0.0,0.0,0.0,0.0,0.0,0.1600,-0.9807,0.1418,0.7732,-0.6198,0.0127,-0.1336
116,0.0,0.0,0.0,0.0,0.0,0.0,0.1600,-0.9806,0.1404,0.7735,-0.6194,0.0131,-0.1338
117,0.0,0.0,0.0,0.0,0.0,0.0,0.1609,-0.9830,0.1389,0.7737,-0.6191,0.0133,-0.1339
118,0.0,0.0,0.0,0.0,0.0,0.0,0.1590,-0.9840,0.1388,0.7736,-0.6192,0.0133,-0.1339
119,0.0,0.0,0.0,0.0,0.0,0.0,0.1556,-0.9844,0.1378,0.7737,-0.6191,0.0136,-0.1340
120,0.0,0.0,0.0,0.0,0.0,0.0,0.1556,-0.9838,0.1354,0.7738,-0.6190,0.0140,-0.1340
121,0.0,0.0,0.0,0.0,0.0,0.0,0.1570,-0.9779,0.1332,0.7735,-0.6193,0.0140,-0.1340
122,0.0,0.0,0.0,0.0,0.0,0.0,0.1747,-0.9533,0.1107,0.7724,-0.6206,0.0128,-0.1343
123,0.0,0.0,0.0,0.0,0.0,0.0,0.1615,-0.9580,0.1202,0.7719,-0.6210,0.0121,-0.1352
124,0.0,0.0,0.0,0.0,0.0,0.0,0.1657,-0.9937,0.1371,0.7722,-0.6206,0.0116,-0.1357
125,0.0,0.0,0.0,0.0,0.0,0.0,0.1618,-0.9990,0.1228,0.7721,-0.6206,0.0113,-0.1368
126,0.0,0.0,0.0,0.0,0.0,0.0,0.1351,-0.9757,0.1307,0.7720,-0.6207,0.0115,-0.1365
127,0.0,0.0,0.0,0.0,0.0,0.0,0.1681,-0.9958,0.1268,0.7720,-0.6208,0.0115,-0.1359
128,0.0,0.0,0.0,0.0,0.0,0.0,0.1726,-0.9806,0.1234,0.7720,-0.6208,0.0110,-0.1359
129,0.0,0.0,0.0,0.0,0.0,0.0,0.1682,-0.9832,0.1292,0.7719,-0.6210,0.0101,-0.1357
130,0.0,0.0,0.0,0.0,0.0,0.0,0.1662,-0.9876,0.1305,0.7719,-0.6211,0.0095,-0.1352
131,0.0,0.0,0.0,0.0,0.0,0.0,0.1667,-1.0045,0.1372,0.7718,-0.6215,0.0091,-0.1344
132,0.0,0.0,0.0,0.0,0.0,0.0,0.1672,-0.9928,0.1371,0.7718,-0.6216,0.0088,-0.1336
133,0.0,0.0,0.0,0.0,0.0,0.0,0.1658,-0.9855,0.1383,0.7721,-0.6214,0.0085,-0.1328
134,0.0,0.0,0.0,0.0,0.0,0.0,0.1658,-0.9860,0.1407,0.7728,-0.6207,0.0085,-0.1322
135,0.0,0.0,0.0,0.0,0.0,0.0,0.1658,-0.9832,0.1423,0.7741,-0.6190,0.0095,-0.1321
136,0.0,0.0,0.0,0.0,0.0,0.0,0.1634,-0.9773,0.1434,0.7745,-0.6185,0.0095,-0.1318
137,0.0,0.0,0.0,0.0,0.0,0.0,0.1630,-0.9730,0.1445,0.7745,-0.6187,0.0088,-0.1313
138,0.0,0.0,0.0,0.0,0.0,0.0,0.1591,-0.9730,0.1450,0.7746,-0.6187,0.0083,-0.1310
139,0.0,0.0,0.0,0.0,0.0,0.0,0.1562,-0.9731,0.1484,0.7747,-0.6186,0.0080,-0.1308
140,0.0,0.0,0.0,0.0,0.0,0.0,0.1615,-0.9780,0.1502,0.7751,-0.6181,0.0080,-0.1307
141,0.0,0.0,0.0,0.0,0.0,0.0,0.1542,-0.9754,0.1473,0.7756,-0.6175,0.0084,-0.1307
142,0.0,0.0,0.0,0.0,0.0,0.0,0.1571,-0.9731,0.1479,0.7759,-0.6172,0.0085,-0.1305
143,0.0,0.0,0.0,0.0,0.0,0.0,0.1591,-0.9745,0.1464,0.7761,-0.6169,0.0086,-0.1304
144,0.0,0.0,0.0,0.0,0.0,0.0,0.1571,-0.9798,0.1457,0.7764,-0.6166,0.0091,-0.1302
145,0.0,0.0,0.0,0.0,0.0,0.0,0.1576,-0.9827,0.1447,0.7768,-0.6160,0.0099,-0.1301
146,0.0,0.0,0.0,0.0,0.0,0.0,0.1585,-0.9831,0.1427,0.7770,-0.6158,0.0104,-0.1299
147,0.0,0.0,0.0,0.0,0.0,0.0,0.1575,-0.9825,0.1403,0.7767,-0.6163,0.0103,-0.1294
148,0.0,0.0,0.0,0.0,0.0,0.0,0.1581,-0.9756,0.1371,0.7765,-0.6167,0.0103,-0.1290
149,0.0,0.0,0.0,0.0,0.0,0.0,0.1664,-0.9570,0.1183,0.7762,-0.6170,0.0103,-0.1291
150,0.0,0.0,0.0,0.0,0.0,0.0,0.1977,-0.9471,0.1232,0.7760,-0.6171,0.0091,-0.1300
151,0.0,0.0,0.0,0.0,0.0,0.0,0.1922,-0.9839,0.1428,0.7762,-0.6167,0.0078,-0.1309
152,0.0,0.0,0.0,0.0,0.0,0.0,0.1775,-0.9693,0.1209,0.7757,-0.6171,0.0064,-0.1321
153,0.0,0.0,0.0,0.0,0.0,0.0,0.1556,-0.9790,0.1365,0.7755,-0.6173,0.0061,-0.1324
154,0.0,0.0,0.0,0.0,0.0,0.0,0.1579,-1.0037,0.1319,0.7754,-0.6174,0.0063,-0.1322
155,0.0,0.0,0.0,0.0,0.0,0.0,0.1608,-0.9856,0.1169,0.7746,-0.6185,0.0062,-0.1323
156,0.0,0.0,0.0,0.0,0.0,0.0,0.1770,-0.9786,0.1216,0.7740,-0.6192,0.0054,-0.1325
157,0.0,0.0,0.0,0.0,0.0,0.0,0.1658,-0.9789,0.1181,0.7738,-0.6194,0.0052,-0.1324
158,0.0,0.0,0.0,0.0,0.0,0.0,0.1554,-0.9970,0.1214,0.7736,-0.6197,0.0057,-0.1321
159,0.0,0.0,0.0,0.0,0.0,0.0,0.1569,-0.9966,0.1243,0.7733,-0.6202,0.0061,-0.1314
160,0.0,0.0,0.0,0.0,0.0,0.0,0.1496,-0.9927,0.1269,0.7730,-0.6209,0.0064,-0.1302
161,0.0,0.0,0.0,0.0,0.0,0.0,0.1467,-0.9951,0.1268,0.7728,-0.6213,0.0068,-0.1290
162,0.0,0.0,0.0,0.0,0.0,0.0,0.1540,-0.9953,0.1287,0.7729,-0.6215,0.0073,-0.1279
163,0.0,0.0,0.0,0.0,0.0,0.0,0.1526,-0.9869,0.1275,0.7731,-0.6214,0.0077,-0.1268
164,0.0,0.0,0.0,0.0,0.0,0.0,0.1493,-0.9738,0.1299,0.7734,-0.6212,0.0081,-0.1259
165,0.0,0.0,0.0,0.0,0.0,0.0,0.1502,-0.9779,0.1351,0.7737,-0.6211,0.0079,-0.1249
166,0.0,0.0,0.0,0.0,0.0,0.0,0.1560,-0.9893,0.1386,0.7738,-0.6211,0.0071,-0.1239
167,0.0,0.0,0.0,0.0,0.0,0.0,0.1643,-0.9844,0.1369,0.7741,-0.6209,0.0064,-0.1232
168,0.0,0.0,0.0,0.0,0.0,0.0,0.1698,-0.9677,0.1321,0.7742,-0.6210,0.0054,-0.1228
169,0.0,0.0,0.0,0.0,0.0,0.0,0.1796,-0.9594,0.1305,0.7742,-0.6210,0.0042,-0.1227
170,0.0,0.0,0.0,0.0,0.0,0.0,0.1747,-0.9623,0.1303,0.7744,-0.6206,0.0034,-0.1231
171,0.0,0.0,0.0,0.0,0.0,0.0,0.1688,-0.9715,0.1300,0.7743,-0.6207,0.0025,-0.1234
172,0.0,0.0,0.0,0.0,0.0,0.0,0.1741,-0.9790,0.1322,0.7739,-0.6211,0.0013,-0.1236
173,0.0,0.0,0.0,0.0,0.0,0.0,0.1707,-0.9878,0.1349,0.7736,-0.6214,0.0005,-0.1239
174,0.0,0.0,0.0,0.0,0.0,0.0,0.1726,-0.9927,0.1347,0.7735,-0.6214,-0.0001,-0.1244
175,0.0,0.0,0.0,0.0,0.0,0.0,0.1789,-0.9862,0.1281,0.7736,-0.6212,-0.0005,-0.1250
176,0.0,0.0,0.0,0.0,0.0,0.0,0.1756,-0.9762,0.1231,0.7733,-0.6215,-0.0011,-0.1257
177,0.0,0.0,0.0,0.0,0.0,0.0,0.1741,-0.9731,0.1179,0.7728,-0.6219,-0.0016,-0.1263
178,0.0,0.0,0.0,0.0,0.0,0.0,0.1751,-0.9741,0.1178,0.7724,-0.6224,-0.0021,-0.1269
179,0.0,0.0,0.0,0.0,0.0,0.0,0.1667,-0.9834,0.1214,0.7718,-0.6229,-0.0023,-0.1276
180,0.0,0.0,0.0,0.0,0.0,0.0,0.1638,-0.9898,0.1231,0.7718,-0.6229,-0.0017,-0.1281
181,0.0,0.0,0.0,0.0,0.0,0.0,0.1647,-0.9921,0.1182,0.7717,-0.6229,-0.0012,-0.1285
182,0.0,0.0,0.0,0.0,0.0,0.0,0.1628,-0.9798,0.1176,0.7715,-0.6230,-0.0011,-0.1291
183,0.0,0.0,0.0,0.0,0.0,0.0,0.1546,-0.9730,0.1202,0.7713,-0.6232,-0.0009,-0.1294
184,0.0,0.0,0.0,0.0,0.0,0.0,0.1453,-0.9839,0.1252,0.7711,-0.6235,-0.0005,-0.1291
185,0.0,0.0,0.0,0.0,0.0,0.0,0.1477,-0.9912,0.1245,0.7711,-0.6236,-0.0000,-0.1285
186,0.0,0.0,0.0,0.0,0.0,0.0,0.1432,-0.9964,0.1228,0.7711,-0.6238,0.0006,-0.1276
187,0.0,0.0,0.0,0.0,0.0,0.0,0.1618,-0.9946,0.1230,0.7710,-0.6241,0.0009,-0.1266
188,0.0,0.0,0.0,0.0,0.0,0.0,0.1862,-0.9949,0.1245,0.7710,-0.6243,0.0001,-0.1254
189,0.0,0.0,0.0,0.0,0.0,0.0,0.1662,-0.9947,0.1225,0.7711,-0.6245,-0.0004,-0.1241
190,0.0,0.0,0.0,0.0,0.0,0.0,0.1726,-0.9838,0.1166,0.7713,-0.6245,-0.0008,-0.1229
191,0.0,0.0,0.0,0.0,0.0,0.0,0.1746,-0.9629,0.1065,0.7714,-0.6246,-0.0013,-0.1218
192,0.0,0.0,0.0,0.0,0.0,0.0,0.1755,-0.9782,0.1104,0.7714,-0.6248,-0.0020,-0.1208
193,0.0,0.0,0.0,0.0,0.0,0.0,0.1726,-0.9797,0.1113,0.7714,-0.6249,-0.0028,-0.1204
194,0.0,0.0,0.0,0.0,0.0,0.0,0.1609,-0.9767,0.1124,0.7716,-0.6247,-0.0030,-0.1203
195,0.0,0.0,0.0,0.0,0.0,0.0,0.1564,-0.9891,0.1202,0.7722,-0.6239,-0.0028,-0.1203
196,0.0,0.0,0.0,0.0,0.0,0.0,0.1667,-0.9793,0.1152,0.7727,-0.6233,-0.0032,-0.1202
197,0.0,0.0,0.0,0.0,0.0,0.0,0.1687,-0.9660,0.1122,0.7727,-0.6233,-0.0042,-0.1201
198,0.0,0.0,0.0,0.0,0.0,0.0,0.1755,-0.9863,0.1194,0.7730,-0.6230,-0.0052,-0.1201
199,0.0,0.0,0.0,0.0,0.0,0.0,0.1765,-0.9784,0.1148,0.7733,-0.6225,-0.0060,-0.1203
200,0.0,0.0,0.0,0.0,0.0,0.0,0.1804,-0.9686,0.1127,0.7733,-0.6224,-0.0068,-0.1204
201,0.0,0.0,0.0,0.0,0.0,0.0,0.1862,-0.9805,0.1187,0.7730,-0.6228,-0.0079,-0.1205
202,0.0,0.0,0.0,0.0,0.0,0.0,0.1809,-0.9800,0.1182,0.7727,-0.6232,-0.0085,-0.1205
203,0.0,0.0,0.0,0.0,0.0,0.0,0.1804,-0.9839,0.1195,0.7723,-0.6236,-0.0088,-0.1205
204,0.0,0.0,0.0,0.0,0.0,0.0,0.1872,-0.9864,0.1199,0.7720,-0.6240,-0.0093,-0.1204
205,0.0,0.0,0.0,0.0,0.0,0.0,0.1828,-0.9870,0.1213,0.7716,-0.6246,-0.0102,-0.1201
206,0.0,0.0,0.0,0.0,0.0,0.0,0.1662,-0.9957,0.1249,0.7713,-0.6250,-0.0100,-0.1199
207,0.0,0.0,0.0,0.0,0.0,0.0,0.1701,-0.9929,0.1274,0.7716,-0.6247,-0.0093,-0.1198
208,0.0,0.0,0.0,0.0,0.0,0.0,0.1657,-0.9989,0.1321,0.7721,-0.6241,-0.0084,-0.1195
209,0.0,0.0,0.0,0.0,0.0,0.0,0.1662,-1.0033,0.1329,0.7723,-0.6239,-0.0079,-0.1191
210,0.0,0.0,0.0,0.0,0.0,0.0,0.1682,-0.9802,0.1268,0.7725,-0.6237,-0.0076,-0.1189
211,0.0,0.0,0.0,0.0,0.0,0.0,0.1673,-0.9660,0.1244,0.7729,-0.6233,-0.0070,-0.1187
212,0.0,0.0,0.0,0.0,0.0,0.0,0.1771,-0.9611,0.1241,0.7733,-0.6228,-0.0065,-0.1186
213,0.0,0.0,0.0,0.0,0.0,0.0,0.1781,-0.9647,0.1269,0.7740,-0.6219,-0.0059,-0.1189
214,0.0,0.0,0.0,0.0,0.0,0.0,0.1761,-0.9662,0.1293,0.7741,-0.6216,-0.0057,-0.1193
215,0.0,0.0,0.0,0.0,0.0,0.0,0.1800,-0.9617,0.1241,0.7742,-0.6214,-0.0056,-0.1200
216,0.0,0.0,0.0,0.0,0.0,0.0,0.1751,-0.9620,0.1211,0.7743,-0.6212,-0.0054,-0.1210
217,0.0,0.0,0.0,0.0,0.0,0.0,0.1702,-0.9788,0.1279,0.7741,-0.6212,-0.0053,-0.1215
218,0.0,0.0,0.0,0.0,0.0,0.0,0.1750,-0.9886,0.1295,0.7739,-0.6213,-0.0052,-0.1222
219,0.0,0.0,0.0,0.0,0.0,0.0,0.1760,-0.9807,0.1259,0.7734,-0.6219,-0.0056,-0.1230
220,0.0,0.0,0.0,0.0,0.0,0.0,0.1770,-0.9793,0.1264,0.7732,-0.6219,-0.0056,-0.1240
221,0.0,0.0,0.0,0.0,0.0,0.0,0.1809,-0.9838,0.1292,0.7729,-0.6221,-0.0057,-0.1248
222,0.0,0.0,0.0,0.0,0.0,0.0,0.1814,-0.9883,0.1315,0.7731,-0.6216,-0.0054,-0.1257
223,0.0,0.0,0.0,0.0,0.0,0.0,0.1755,-0.9858,0.1311,0.7735,-0.6210,-0.0047,-0.1269
224,0.0,0.0,0.0,0.0,0.0,0.0,0.1721,-0.9814,0.1317,0.7733,-0.6211,-0.0044,-0.1275
225,0.0,0.0,0.0,0.0,0.0,0.0,0.1760,-0.9843,0.1306,0.7735,-0.6208,-0.0040,-0.1278
226,0.0,0.0,0.0,0.0,0.0,0.0,0.1692,-0.9886,0.1295,0.7739,-0.6201,-0.0027,-0.1283
227,0.0,0.0,0.0,0.0,0.0,0.0,0.1819,-0.9745,0.1280,0.7741,-0.6198,-0.0018,-0.1291
228,0.0,0.0,0.0,0.0,0.0,0.0,0.1761,-0.9695,0.1258,0.7743,-0.6194,-0.0011,-0.1298
229,0.0,0.0,0.0,0.0,0.0,0.0,0.1770,-0.9769,0.1270,0.7746,-0.6188,-0.0002,-0.1306
230,0.0,0.0,0.0,0.0,0.0,0.0,0.1736,-0.9749,0.1285,0.7743,-0.6190,0.0001,-0.1314
231,0.0,0.0,0.0,0.0,0.0,0.0,0.1761,-0.9720,0.1291,0.7742,-0.6190,0.0004,-0.1322
232,0.0,0.0,0.0,0.0,0.0,0.0,0.1629,-0.9742,0.1251,0.7743,-0.6187,0.0012,-0.1330
233,0.0,0.0,0.0,0.0,0.0,0.0,0.1624,-0.9738,0.1270,0.7743,-0.6185,0.0024,-0.1339
234,0.0,0.0,0.0,0.0,0.0,0.0,0.1707,-0.9768,0.1265,0.7741,-0.6186,0.0027,-0.1345
235,0.0,0.0,0.0,0.0,0.0,0.0,0.1643,-0.9831,0.1267,0.7738,-0.6189,0.0031,-0.1349
236,0.0,0.0,0.0,0.0,0.0,0.0,0.1653,-0.9841,0.1277,0.7742,-0.6183,0.0040,-0.1354
237,0.0,0.0,0.0,0.0,0.0,0.0,0.1667,-0.9896,0.1319,0.7742,-0.6181,0.0045,-0.1358
238,0.0,0.0,0.0,0.0,0.0,0.0,0.1653,-0.9881,0.1309,0.7739,-0.6186,0.0045,-0.1357
239,0.0,0.0,0.0,0.0,0.0,0.0,0.1624,-0.9847,0.1310,0.7737,-0.6188,0.0046,-0.1358
240,0.0,0.0,0.0,0.0,0.0,0.0,0.1653,-0.9853,0.1325,0.7735,-0.6190,0.0047,-0.1359
241,0.0,0.0,0.0,0.0,0.0,0.0,0.1687,-0.9857,0.1296,0.7737,-0.6189,0.0049,-0.1358
242,0.0,0.0,0.0,0.0,0.0,0.0,0.1687,-0.9842,0.1282,0.7741,-0.6184,0.0054,-0.1357
243,0.0,0.0,0.0,0.0,0.0,0.0,0.1814,-0.9735,0.1261,0.7739,-0.6186,0.0048,-0.1353
244,0.0,0.0,0.0,0.0,0.0,0.0,0.1834,-0.9630,0.1187,0.7732,-0.6197,0.0029,-0.1347
245,0.0,0.0,0.0,0.0,0.0,0.0,0.1672,-0.9900,0.1290,0.7723,-0.6210,0.0011,-0.1341
246,0.0,0.0,0.0,0.0,0.0,0.0,0.1613,-1.0027,0.1314,0.7713,-0.6223,-0.0006,-0.1334
247,0.0,0.0,0.0,0.0,0.0,0.0,0.1668,-0.9735,0.1183,0.7702,-0.6240,-0.0030,-0.1321
248,0.0,0.0,0.0,0.0,0.0,0.0,0.1755,-0.9755,0.1168,0.7689,-0.6259,-0.0057,-0.1309
249,0.0,0.0,0.0,0.0,0.0,0.0,0.1779,-0.9845,0.1219,0.7682,-0.6268,-0.0072,-0.1303
250,0.0,0.0,0.0,0.0,0.0,0.0,0.1789,-0.9755,0.1159,0.7682,-0.6268,-0.0078,-0.1300
251,0.0,0.0,0.0,0.0,0.0,0.0,0.1839,-0.9546,0.1034,0.7682,-0.6269,-0.0080,-0.1299
252,0.0,0.0,0.0,0.0,0.0,0.0,0.1877,-0.9661,0.1089,0.7681,-0.6270,-0.0083,-0.1294
253,0.0,0.0,0.0,0.0,0.0,0.0,0.1930,-0.9931,0.1139,0.7683,-0.6268,-0.0085,-0.1294
254,0.0,0.0,0.0,0.0,0.0,0.0,0.2028,-0.9759,0.1072,0.7683,-0.6268,-0.0091,-0.1296
255,0.0,0.0,0.0,0.0,0.0,0.0,0.2038,-0.9676,0.1075,0.7687,-0.6262,-0.0095,-0.1299
256,0.0,0.0,0.0,0.0,0.0,0.0,0.2008,-0.9937,0.1144,0.7687,-0.6262,-0.0101,-0.1300
257,0.0,0.0,0.0,0.0,0.0,0.0,0.2032,-0.9987,0.1172,0.7683,-0.6267,-0.0109,-0.1299
258,0.0,0.0,0.0,0.0,0.0,0.0,0.2067,-0.9740,0.1083,0.7679,-0.6271,-0.0117,-0.1298
259,0.0,0.0,0.0,0.0,0.0,0.0,0.1921,-0.9614,0.0994,0.7676,-0.6275,-0.0117,-0.1298
260,0.0,0.0,0.0,0.0,0.0,0.0,0.2067,-0.9669,0.1012,0.7673,-0.6279,-0.0117,-0.1302
261,0.0,0.0,0.0,0.0,0.0,0.0,0.2023,-0.9678,0.0987,0.7668,-0.6283,-0.0118,-0.1310
262,0.0,0.0,0.0,0.0,0.0,0.0,0.1876,-0.9846,0.1083,0.7668,-0.6281,-0.0108,-0.1319
263,0.0,0.0,0.0,0.0,0.0,0.0,0.1866,-1.0026,0.1214,0.7672,-0.6274,-0.0094,-0.1329
264,0.0,0.0,0.0,0.0,0.0,0.0,0.1970,-0.9749,0.1087,0.7674,-0.6270,-0.0086,-0.1337
265,0.0,0.0,0.0,0.0,0.0,0.0,0.2024,-0.9516,0.0963,0.7677,-0.6266,-0.0077,-0.1343
266,0.0,0.0,0.0,0.0,0.0,0.0,0.2171,-0.9426,0.0884,0.7673,-0.6269,-0.0082,-0.1347
267,0.0,0.0,0.0,0.0,0.0,0.0,0.2036,-1.0033,0.1088,0.7666,-0.6278,-0.0095,-0.1346
268,0.0,0.0,0.0,0.0,0.0,0.0,0.1860,-1.0222,0.1105,0.7655,-0.6292,-0.0102,-0.1344
269,0.0,0.0,0.0,0.0,0.0,0.0,0.1872,-0.9776,0.1056,0.7647,-0.6302,-0.0104,-0.1340
270,0.0,0.0,0.0,0.0,0.0,0.0,0.1779,-0.9879,0.1072,0.7645,-0.6308,-0.0100,-0.1328
271,0.0,0.0,0.0,0.0,0.0,0.0,0.1837,-0.9938,0.1075,0.7639,-0.6316,-0.0098,-0.1316
272,0.0,0.0,0.0,0.0,0.0,0.0,0.1871,-0.9824,0.1011,0.7635,-0.6323,-0.0093,-0.1311
273,0.0,0.0,0.0,0.0,0.0,0.0,0.1858,-0.9581,0.0902,0.7632,-0.6327,-0.0086,-0.1309
274,0.0,0.0,0.0,0.0,0.0,0.0,0.1803,-0.9663,0.0900,0.7632,-0.6327,-0.0077,-0.1309
275,0.0,0.0,0.0,0.0,0.0,0.0,0.1754,-0.9889,0.0951,0.7632,-0.6327,-0.0069,-0.1311
276,0.0,0.0,0.0,0.0,0.0,0.0,0.1661,-0.9972,0.0991,0.7630,-0.6329,-0.0063,-0.1312
277,0.0,0.0,0.0,0.0,0.0,0.0,0.1670,-0.9973,0.1001,0.7629,-0.6331,-0.0056,-0.1309
278,0.0,0.0,0.0,0.0,0.0,0.0,0.1710,-0.9899,0.0969,0.7630,-0.6330,-0.0046,-0.1308
279,0.0,0.0,0.0,0.0,0.0,0.0,0.1793,-0.9737,0.0926,0.7631,-0.6329,-0.0041,-0.1306
280,0.0,0.0,0.0,0.0,0.0,0.0,0.1842,-0.9826,0.0938,0.7632,-0.6329,-0.0041,-0.1303
281,0.0,0.0,0.0,0.0,0.0,0.0,0.1856,-0.9860,0.0932,0.7631,-0.6330,-0.0043,-0.1299
282,0.0,0.0,0.0,0.0,0.0,0.0,0.1793,-0.9821,0.0948,0.7630,-0.6332,-0.0041,-0.1298
283,0.0,0.0,0.0,0.0,0.0,0.0,0.1920,-0.9847,0.0967,0.7631,-0.6330,-0.0039,-0.1299
284,0.0,0.0,0.0,0.0,0.0,0.0,0.1895,-0.9900,0.0956,0.7632,-0.6330,-0.0040,-0.1299
285,0.0,0.0,0.0,0.0,0.0,0.0,0.1871,-0.9875,0.0956,0.7635,-0.6326,-0.0036,-0.1301
286,0.0,0.0,0.0,0.0,0.0,0.0,0.1861,-0.9856,0.0957,0.7636,-0.6324,-0.0034,-0.1301
287,0.0,0.0,0.0,0.0,0.0,0.0,0.1812,-0.9836,0.0962,0.7639,-0.6322,-0.0030,-0.1298
288,0.0,0.0,0.0,0.0,0.0,0.0,0.1817,-0.9831,0.0957,0.7641,-0.6320,-0.0028,-0.1294
289,0.0,0.0,0.0,0.0,0.0,0.0,0.1827,-0.9832,0.0977,0.7640,-0.6321,-0.0029,-0.1291
290,0.0,0.0,0.0,0.0,0.0,0.0,0.1808,-0.9877,0.1014,0.7644,-0.6315,-0.0006,-0.1302
291,0.0,0.0,0.0,0.0,0.0,0.0,0.1808,-0.9834,0.1030,0.7648,-0.6310,0.0001,-0.1302
292,0.0,0.0,0.0,0.0,0.0,0.0,0.1808,-0.9730,0.1004,0.7651,-0.6307,0.0005,-0.1301
293,0.0,0.0,0.0,0.0,0.0,0.0,0.1740,-0.9755,0.1027,0.7656,-0.6301,0.0013,-0.1300
294,0.0,0.0,0.0,0.0,0.0,0.0,0.1745,-0.9800,0.1055,0.7662,-0.6293,0.0019,-0.1300
295,0.0,0.0,0.0,0.0,0.0,0.0,0.1735,-0.9765,0.1047,0.7665,-0.6290,0.0021,-0.1299
296,0.0,0.0,0.0,0.0,0.0,0.0,0.1682,-0.9775,0.1056,0.7664,-0.6291,0.0022,-0.1299
297,0.0,0.0,0.0,0.0,0.0,0.0,0.1730,-0.9775,0.1061,0.7663,-0.6293,0.0020,-0.1299
298,0.0,0.0,0.0,0.0,0.0,0.0,0.1735,-0.9776,0.1066,0.7664,-0.6291,0.0022,-0.1299
299,0.0,0.0,0.0,0.0,0.0,0.0,0.1706,-0.9814,0.1045,0.7666,-0.6289,0.0023,-0.1297
300,0.0,0.0,0.0,0.0,0.0,0.0,0.1725,-0.9818,0.1025,0.7663,-0.6294,0.0017,-0.1295
301,0.0,0.0,0.0,0.0,0.0,0.0,0.1745,-0.9803,0.1002,0.7663,-0.6293,0.0017,-0.1297
302,0.0,0.0,0.0,0.0,0.0,0.0,0.1740,-0.9752,0.0945,0.7661,-0.6295,0.0017,-0.1298
303,0.0,0.0,0.0,0.0,0.0,0.0,0.1735,-0.9816,0.0962,0.7658,-0.6299,0.0015,-0.1296
304,0.0,0.0,0.0,0.0,0.0,0.0,0.1734,-0.9914,0.0969,0.7658,-0.6300,0.0016,-0.1294
305,0.0,0.0,0.0,0.0,0.0,0.0,0.1665,-0.9962,0.0962,0.7659,-0.6300,0.0021,-0.1289
306,0.0,0.0,0.0,0.0,0.0,0.0,0.1622,-0.9911,0.0930,0.7659,-0.6300,0.0029,-0.1282
307,0.0,0.0,0.0,0.0,0.0,0.0,0.1627,-0.9887,0.0940,0.7659,-0.6302,0.0036,-0.1273
308,0.0,0.0,0.0,0.0,0.0,0.0,0.1646,-0.9919,0.1012,0.7657,-0.6307,0.0038,-0.1261
309,0.0,0.0,0.0,0.0,0.0,0.0,0.1686,-0.9942,0.1104,0.7661,-0.6305,0.0038,-0.1248
310,0.0,0.0,0.0,0.0,0.0,0.0,0.1441,-1.0052,0.1095,0.7665,-0.6302,0.0044,-0.1235
311,0.0,0.0,0.0,0.0,0.0,0.0,0.1637,-0.9932,0.1099,0.7670,-0.6299,0.0045,-0.1222
312,0.0,0.0,0.0,0.0,0.0,0.0,0.1696,-0.9761,0.1085,0.7674,-0.6296,0.0038,-0.1209
313,0.0,0.0,0.0,0.0,0.0,0.0,0.1721,-0.9704,0.1102,0.7677,-0.6295,0.0027,-0.1198
314,0.0,0.0,0.0,0.0,0.0,0.0,0.1756,-0.9675,0.1113,0.7681,-0.6291,0.0018,-0.1193
315,0.0,0.0,0.0,0.0,0.0,0.0,0.1726,-0.9720,0.1140,0.7685,-0.6288,0.0009,-0.1189
316,0.0,0.0,0.0,0.0,0.0,0.0,0.1716,-0.9734,0.1135,0.7689,-0.6283,0.0003,-0.1188
317,0.0,0.0,0.0,0.0,0.0,0.0,0.1707,-0.9729,0.1140,0.7691,-0.6279,-0.0002,-0.1190
318,0.0,0.0,0.0,0.0,0.0,0.0,0.1658,-0.9764,0.1158,0.7692,-0.6277,-0.0006,-0.1192
319,0.0,0.0,0.0,0.0,0.0,0.0,0.1614,-0.9808,0.1171,0.7693,-0.6276,-0.0008,-0.1196
320,0.0,0.0,0.0,0.0,0.0,0.0,0.1575,-0.9743,0.1149,0.7691,-0.6278,-0.0010,-0.1198
321,0.0,0.0,0.0,0.0,0.0,0.0,0.1575,-0.9777,0.1152,0.7690,-0.6278,-0.0011,-0.1202
322,0.0,0.0,0.0,0.0,0.0,0.0,0.1599,-0.9763,0.1153,0.7690,-0.6277,-0.0009,-0.1208
323,0.0,0.0,0.0,0.0,0.0,0.0,0.1682,-0.9798,0.1167,0.7691,-0.6274,-0.0007,-0.1214
324,0.0,0.0,0.0,0.0,0.0,0.0,0.1700,-0.9985,0.1195,0.7696,-0.6267,-0.0001,-0.1223
325,0.0,0.0,0.0,0.0,0.0,0.0,0.1589,-0.9743,0.1129,0.7696,-0.6265,0.0003,-0.1232
326,0.0,0.0,0.0,0.0,0.0,0.0,0.1647,-0.9865,0.1140,0.7695,-0.6266,0.0005,-0.1236
327,0.0,0.0,0.0,0.0,0.0,0.0,0.1759,-0.9929,0.1119,0.7695,-0.6264,0.0006,-0.1244
328,0.0,0.0,0.0,0.0,0.0,0.0,0.1710,-0.9833,0.1039,0.7690,-0.6269,-0.0001,-0.1250
329,0.0,0.0,0.0,0.0,0.0,0.0,0.1618,-0.9831,0.1015,0.7688,-0.6271,0.0001,-0.1255
330,0.0,0.0,0.0,0.0,0.0,0.0,0.1712,-0.9619,0.1066,0.7687,-0.6271,-0.0000,-0.1259
331,0.0,0.0,0.0,0.0,0.0,0.0,0.1572,-1.0239,0.1230,0.7690,-0.6268,0.0002,-0.1257
332,0.0,0.0,0.0,0.0,0.0,0.0,0.1490,-0.9964,0.1073,0.7691,-0.6267,0.0010,-0.1255
333,0.0,0.0,0.0,0.0,0.0,0.0,0.1697,-0.9618,0.1022,0.7693,-0.6266,0.0009,-0.1250
334,0.0,0.0,0.0,0.0,0.0,0.0,0.1647,-0.9841,0.1126,0.7697,-0.6261,0.0012,-0.1247
335,0.0,0.0,0.0,0.0,0.0,0.0,0.1720,-0.9866,0.1145,0.7700,-0.6258,0.0009,-0.1243
336,0.0,0.0,0.0,0.0,0.0,0.0,0.1696,-0.9896,0.1164,0.7702,-0.6257,0.0005,-0.1241
337,0.0,0.0,0.0,0.0,0.0,0.0,0.1745,-0.9789,0.1157,0.7706,-0.6252,0.0009,-0.1240
338,0.0,0.0,0.0,0.0,0.0,0.0,0.1804,-0.9790,0.1177,0.7707,-0.6250,0.0003,-0.1238
339,0.0,0.0,0.0,0.0,0.0,0.0,0.1731,-0.9815,0.1200,0.7705,-0.6253,-0.0006,-0.1235
340,0.0,0.0,0.0,0.0,0.0,0.0,0.1750,-0.9765,0.1187,0.7706,-0.6252,-0.0005,-0.1235
341,0.0,0.0,0.0,0.0,0.0,0.0,0.1800,-0.9603,0.1134,0.7705,-0.6254,-0.0008,-0.1237
342,0.0,0.0,0.0,0.0,0.0,0.0,0.1716,-0.9766,0.1207,0.7707,-0.6250,-0.0004,-0.1240
343,0.0,0.0,0.0,0.0,0.0,0.0,0.1686,-0.9961,0.1205,0.7709,-0.6246,0.0001,-0.1244
344,0.0,0.0,0.0,0.0,0.0,0.0,0.1599,-0.9788,0.1176,0.7711,-0.6244,0.0007,-0.1249
345,0.0,0.0,0.0,0.0,0.0,0.0,0.1677,-0.9778,0.1138,0.7716,-0.6237,0.0016,-0.1251
346,0.0,0.0,0.0,0.0,0.0,0.0,0.1633,-0.9851,0.1150,0.7716,-0.6238,0.0020,-0.1249
347,0.0,0.0,0.0,0.0,0.0,0.0,0.1774,-0.9834,0.1195,0.7717,-0.6238,0.0018,-0.1243
348,0.0,0.0,0.0,0.0,0.0,0.0,0.1808,-0.9942,0.1211,0.7720,-0.6234,0.0016,-0.1240
349,0.0,0.0,0.0,0.0,0.0,0.0,0.1740,-0.9853,0.1180,0.7717,-0.6238,0.0014,-0.1240
350,0.0,0.0,0.0,0.0,0.0,0.0,0.1814,-0.9707,0.1180,0.7715,-0.6240,0.0011,-0.1240
351,0.0,0.0,0.0,0.0,0.0,0.0,0.1790,-0.9691,0.1146,0.7715,-0.6240,0.0010,-0.1242
352,0.0,0.0,0.0,0.0,0.0,0.0,0.1746,-0.9710,0.1141,0.7716,-0.6237,0.0013,-0.1248
353,0.0,0.0,0.0,0.0,0.0,0.0,0.1692,-0.9788,0.1143,0.7719,-0.6233,0.0017,-0.1254
354,0.0,0.0,0.0,0.0,0.0,0.0,0.1643,-0.9788,0.1172,0.7715,-0.6236,0.0015,-0.1258
355,0.0,0.0,0.0,0.0,0.0,0.0,0.1628,-0.9813,0.1171,0.7713,-0.6238,0.0015,-0.1261
356,0.0,0.0,0.0,0.0,0.0,0.0,0.1686,-0.9831,0.1136,0.7710,-0.6242,0.0015,-0.1263
357,0.0,0.0,0.0,0.0,0.0,0.0,0.1701,-0.9803,0.1142,0.7705,-0.6248,0.0008,-0.1263
358,0.0,0.0,0.0,0.0,0.0,0.0,0.1667,-0.9823,0.1166,0.7702,-0.6252,0.0005,-0.1264
359,0.0,0.0,0.0,0.0,0.0,0.0,0.1691,-0.9847,0.1170,0.7702,-0.6252,0.0004,-0.1264
360,0.0,0.0,0.0,0.0,0.0,0.0,0.1642,-0.9892,0.1202,0.7701,-0.6253,0.0003,-0.1263
361,0.0,0.0,0.0,0.0,0.0,0.0,0.1623,-0.9941,0.1206,0.7703,-0.6250,0.0011,-0.1263
362,0.0,0.0,0.0,0.0,0.0,0.0,0.1672,-0.9768,0.1138,0.7702,-0.6252,0.0013,-0.1264
363,0.0,0.0,0.0,0.0,0.0,0.0,0.1668,-0.9681,0.1151,0.7701,-0.6253,0.0011,-0.1262
364,0.0,0.0,0.0,0.0,0.0,0.0,0.1711,-0.9859,0.1213,0.7704,-0.6250,0.0011,-0.1261
365,0.0,0.0,0.0,0.0,0.0,0.0,0.1695,-1.0021,0.1242,0.7705,-0.6249,0.0006,-0.1260
366,0.0,0.0,0.0,0.0,0.0,0.0,0.1633,-0.9887,0.1212,0.7704,-0.6250,0.0006,-0.1256
367,0.0,0.0,0.0,0.0,0.0,0.0,0.1686,-0.9907,0.1212,0.7703,-0.6253,0.0006,-0.1249
368,0.0,0.0,0.0,0.0,0.0,0.0,0.1735,-0.9862,0.1170,0.7702,-0.6256,0.0004,-0.1243
369,0.0,0.0,0.0,0.0,0.0,0.0,0.1668,-0.9719,0.1145,0.7704,-0.6253,0.0009,-0.1241
370,0.0,0.0,0.0,0.0,0.0,0.0,0.1775,-0.9671,0.1132,0.7706,-0.6252,0.0010,-0.1241
371,0.0,0.0,0.0,0.0,0.0,0.0,0.1623,-0.9765,0.1066,0.7704,-0.6254,0.0010,-0.1239
372,0.0,0.0,0.0,0.0,0.0,0.0,0.1658,-0.9747,0.1105,0.7701,-0.6258,0.0012,-0.1240
373,0.0,0.0,0.0,0.0,0.0,0.0,0.1677,-0.9793,0.1157,0.7702,-0.6256,0.0017,-0.1242
374,0.0,0.0,0.0,0.0,0.0,0.0,0.1569,-0.9880,0.1154,0.7702,-0.6256,0.0020,-0.1244
375,0.0,0.0,0.0,0.0,0.0,0.0,0.1574,-0.9910,0.1182,0.7699,-0.6259,0.0016,-0.1244
376,0.0,0.0,0.0,0.0,0.0,0.0,0.1584,-0.9862,0.1208,0.7697,-0.6262,0.0012,-0.1242
377,0.0,0.0,0.0,0.0,0.0,0.0,0.1648,-0.9734,0.1159,0.7697,-0.6262,0.0010,-0.1242
378,0.0,0.0,0.0,0.0,0.0,0.0,0.1716,-0.9700,0.1126,0.7698,-0.6260,0.0006,-0.1242
379,0.0,0.0,0.0,0.0,0.0,0.0,0.1721,-0.9695,0.1122,0.7698,-0.6261,-0.0004,-0.1240
380,0.0,0.0,0.0,0.0,0.0,0.0,0.1687,-0.9738,0.1115,0.7692,-0.6269,-0.0018,-0.1238
381,0.0,0.0,0.0,0.0,0.0,0.0,0.1677,-0.9797,0.1142,0.7687,-0.6275,-0.0029,-0.1240
382,0.0,0.0,0.0,0.0,0.0,0.0,0.1696,-0.9845,0.1107,0.7682,-0.6280,-0.0037,-0.1242
383,0.0,0.0,0.0,0.0,0.0,0.0,0.1711,-0.9815,0.1074,0.7674,-0.6290,-0.0049,-0.1242
384,0.0,0.0,0.0,0.0,0.0,0.0,0.1730,-0.9849,0.1078,0.7669,-0.6296,-0.0055,-0.1242
385,0.0,0.0,0.0,0.0,0.0,0.0,0.1759,-0.9912,0.1047,0.7662,-0.6305,-0.0064,-0.1241
386,0.0,0.0,0.0,0.0,0.0,0.0,0.1739,-0.9975,0.1059,0.7657,-0.6311,-0.0072,-0.1238
387,0.0,0.0,0.0,0.0,0.0,0.0,0.1695,-0.9934,0.1007,0.7655,-0.6314,-0.0076,-0.1236
388,0.0,0.0,0.0,0.0,0.0,0.0,0.1519,-0.9983,0.1053,0.7654,-0.6316,-0.0070,-0.1234
389,0.0,0.0,0.0,0.0,0.0,0.0,0.1754,-0.9920,0.1013,0.7655,-0.6315,-0.0066,-0.1232
390,0.0,0.0,0.0,0.0,0.0,0.0,0.1701,-0.9712,0.0927,0.7652,-0.6319,-0.0070,-0.1229
391,0.0,0.0,0.0,0.0,0.0,0.0,0.1638,-0.9693,0.0956,0.7650,-0.6322,-0.0072,-0.1228
392,0.0,0.0,0.0,0.0,0.0,0.0,0.1667,-0.9770,0.1051,0.7656,-0.6314,-0.0067,-0.1231
393,0.0,0.0,0.0,0.0,0.0,0.0,0.1749,-0.9884,0.1101,0.7665,-0.6302,-0.0065,-0.1235
394,0.0,0.0,0.0,0.0,0.0,0.0,0.1779,-0.9845,0.1098,0.7667,-0.6299,-0.0074,-0.1238
395,0.0,0.0,0.0,0.0,0.0,0.0,0.1784,-0.9744,0.1111,0.7671,-0.6294,-0.0079,-0.1240
396,0.0,0.0,0.0,0.0,0.0,0.0,0.1784,-0.9809,0.1157,0.7680,-0.6283,-0.0077,-0.1243
397,0.0,0.0,0.0,0.0,0.0,0.0,0.1892,-0.9784,0.1139,0.7682,-0.6279,-0.0082,-0.1248
398,0.0,0.0,0.0,0.0,0.0,0.0,0.1892,-0.9690,0.1098,0.7685,-0.6274,-0.0090,-0.1254
399,0.0,0.0,0.0,0.0,0.0,0.0,0.1731,-0.9713,0.1102,0.7687,-0.6269,-0.0091,-0.1262
400,0.0,0.0,0.0,0.0,0.0,0.0,0.1833,-0.9780,0.1173,0.7691,-0.6263,-0.0095,-0.1271
401,0.0,0.0,0.0,0.0,0.0,0.0,0.1750,-0.9922,0.1197,0.7694,-0.6258,-0.0098,-0.1276
402,0.0,0.0,0.0,0.0,0.0,0.0,0.1808,-0.9894,0.1213,0.7698,-0.6252,-0.0100,-0.1281
403,0.0,0.0,0.0,0.0,0.0,0.0,0.1916,-0.9753,0.1208,0.7706,-0.6242,-0.0100,-0.1285
404,0.0,0.0,0.0,0.0,0.0,0.0,0.1912,-0.9639,0.1173,0.7711,-0.6235,-0.0103,-0.1289
405,0.0,0.0,0.0,0.0,0.0,0.0,0.1966,-0.9649,0.1158,0.7711,-0.6234,-0.0110,-0.1290
406,0.0,0.0,0.0,0.0,0.0,0.0,0.2092,-0.9688,0.1133,0.7707,-0.6238,-0.0124,-0.1290
407,0.0,0.0,0.0,0.0,0.0,0.0,0.1984,-0.9799,0.1114,0.7704,-0.6242,-0.0137,-0.1292
408,0.0,0.0,0.0,0.0,0.0,0.0,0.1960,-0.9831,0.1201,0.7699,-0.6248,-0.0146,-0.1292
409,0.0,0.0,0.0,0.0,0.0,0.0,0.2033,-0.9867,0.1219,0.7694,-0.6254,-0.0159,-0.1288
410,0.0,0.0,0.0,0.0,0.0,0.0,0.1949,-0.9908,0.1159,0.7688,-0.6267,-0.0159,-0.1261
411,0.0,0.0,0.0,0.0,0.0,0.0,0.1950,-0.9898,0.1174,0.7677,-0.6282,-0.0177,-0.1250
412,0.0,0.0,0.0,0.0,0.0,0.0,0.1993,-0.9883,0.1151,0.7669,-0.6293,-0.0196,-0.1241
413,0.0,0.0,0.0,0.0,0.0,0.0,0.1969,-0.9818,0.1119,0.7668,-0.6295,-0.0201,-0.1236
414,0.0,0.0,0.0,0.0,0.0,0.0,0.1970,-0.9665,0.1051,0.7668,-0.6296,-0.0200,-0.1234
415,0.0,0.0,0.0,0.0,0.0,0.0,0.1980,-0.9610,0.1018,0.7668,-0.6296,-0.0199,-0.1234
416,0.0,0.0,0.0,0.0,0.0,0.0,0.1950,-0.9703,0.1040,0.7668,-0.6296,-0.0196,-0.1234
417,0.0,0.0,0.0,0.0,0.0,0.0,0.1950,-0.9722,0.1020,0.7667,-0.6298,-0.0193,-0.1234
418,0.0,0.0,0.0,0.0,0.0,0.0,0.1965,-0.9788,0.1090,0.7665,-0.6300,-0.0193,-0.1235
419,0.0,0.0,0.0,0.0,0.0,0.0,0.1984,-0.9902,0.1131,0.7666,-0.6298,-0.0190,-0.1239
420,0.0,0.0,0.0,0.0,0.0,0.0,0.2008,-0.9827,0.1085,0.7669,-0.6293,-0.0184,-0.1244
421,0.0,0.0,0.0,0.0,0.0,0.0,0.1999,-0.9699,0.1045,0.7670,-0.6291,-0.0181,-0.1248
422,0.0,0.0,0.0,0.0,0.0,0.0,0.1984,-0.9723,0.1049,0.7672,-0.6289,-0.0173,-0.1253
423,0.0,0.0,0.0,0.0,0.0,0.0,0.2003,-0.9786,0.1028,0.7672,-0.6288,-0.0170,-0.1255
424,0.0,0.0,0.0,0.0,0.0,0.0,0.1945,-0.9801,0.1032,0.7668,-0.6293,-0.0168,-0.1257
425,0.0,0.0,0.0,0.0,0.0,0.0,0.2018,-0.9782,0.1033,0.7667,-0.6293,-0.0165,-0.1258
426,0.0,0.0,0.0,0.0,0.0,0.0,0.1779,-0.9802,0.0968,0.7667,-0.6293,-0.0155,-0.1260
427,0.0,0.0,0.0,0.0,0.0,0.0,0.1871,-0.9783,0.0979,0.7663,-0.6297,-0.0149,-0.1263
428,0.0,0.0,0.0,0.0,0.0,0.0,0.1861,-0.9847,0.0972,0.7660,-0.6300,-0.0143,-0.1267
429,0.0,0.0,0.0,0.0,0.0,0.0,0.1920,-0.9758,0.0946,0.7657,-0.6304,-0.0139,-0.1272
430,0.0,0.0,0.0,0.0,0.0,0.0,0.1832,-0.9822,0.0963,0.7658,-0.6301,-0.0130,-0.1276
431,0.0,0.0,0.0,0.0,0.0,0.0,0.1852,-0.9782,0.0954,0.7659,-0.6300,-0.0123,-0.1281
432,0.0,0.0,0.0,0.0,0.0,0.0,0.1915,-0.9763,0.0955,0.7659,-0.6299,-0.0120,-0.1283
433,0.0,0.0,0.0,0.0,0.0,0.0,0.1871,-0.9891,0.0985,0.7662,-0.6296,-0.0116,-0.1285
434,0.0,0.0,0.0,0.0,0.0,0.0,0.1841,-0.9940,0.1007,0.7660,-0.6297,-0.0116,-0.1286
435,0.0,0.0,0.0,0.0,0.0,0.0,0.1803,-0.9848,0.1025,0.7662,-0.6296,-0.0113,-0.1285
436,0.0,0.0,0.0,0.0,0.0,0.0,0.1866,-0.9878,0.1029,0.7662,-0.6296,-0.0114,-0.1282
437,0.0,0.0,0.0,0.0,0.0,0.0,0.1900,-0.9838,0.0996,0.7662,-0.6296,-0.0115,-0.1280
438,0.0,0.0,0.0,0.0,0.0,0.0,0.1886,-0.9760,0.0989,0.7665,-0.6293,-0.0113,-0.1278
439,0.0,0.0,0.0,0.0,0.0,0.0,0.1925,-0.9780,0.1003,0.7667,-0.6291,-0.0115,-0.1277
440,0.0,0.0,0.0,0.0,0.0,0.0,0.1925,-0.9797,0.1075,0.7673,-0.6283,-0.0113,-0.1278
441,0.0,0.0,0.0,0.0,0.0,0.0,0.1920,-0.9938,0.1187,0.7679,-0.6275,-0.0112,-0.1277
442,0.0,0.0,0.0,0.0,0.0,0.0,0.1793,-1.0029,0.1194,0.7685,-0.6268,-0.0104,-0.1278
443,0.0,0.0,0.0,0.0,0.0,0.0,0.2024,-0.9644,0.1149,0.7693,-0.6259,-0.0100,-0.1279
444,0.0,0.0,0.0,0.0,0.0,0.0,0.1981,-0.9548,0.1181,0.7700,-0.6251,-0.0101,-0.1277
445,0.0,0.0,0.0,0.0,0.0,0.0,0.1985,-0.9748,0.1199,0.7707,-0.6242,-0.0100,-0.1277
446,0.0,0.0,0.0,0.0,0.0,0.0,0.2024,-0.9675,0.1177,0.7708,-0.6241,-0.0108,-0.1276
447,0.0,0.0,0.0,0.0,0.0,0.0,0.1981,-0.9615,0.1164,0.7708,-0.6241,-0.0114,-0.1276
448,0.0,0.0,0.0,0.0,0.0,0.0,0.2005,-0.9700,0.1195,0.7710,-0.6238,-0.0115,-0.1278
449,0.0,0.0,0.0,0.0,0.0,0.0,0.2058,-0.9753,0.1179,0.7710,-0.6237,-0.0119,-0.1278
450,0.0,0.0,0.0,0.0,0.0,0.0,0.2097,-0.9683,0.1114,0.7709,-0.6239,-0.0124,-0.1278
451,0.0,0.0,0.0,0.0,0.0,0.0,0.2092,-0.9678,0.1109,0.7707,-0.6241,-0.0129,-0.1281
452,0.0,0.0,0.0,0.0,0.0,0.0,0.1964,-0.9894,0.1194,0.7700,-0.6249,-0.0134,-0.1281
453,0.0,0.0,0.0,0.0,0.0,0.0,0.1862,-0.9869,0.1185,0.7692,-0.6259,-0.0138,-0.1279
454,0.0,0.0,0.0,0.0,0.0,0.0,0.1823,-0.9863,0.1165,0.7686,-0.6268,-0.0139,-0.1275
455,0.0,0.0,0.0,0.0,0.0,0.0,0.1808,-0.9881,0.1126,0.7681,-0.6274,-0.0136,-0.1273
456,0.0,0.0,0.0,0.0,0.0,0.0,0.1955,-0.9754,0.1091,0.7679,-0.6277,-0.0132,-0.1273
457,0.0,0.0,0.0,0.0,0.0,0.0,0.1872,-0.9810,0.1051,0.7674,-0.6282,-0.0129,-0.1272
458,0.0,0.0,0.0,0.0,0.0,0.0,0.1852,-0.9815,0.1036,0.7674,-0.6283,-0.0119,-0.1273
459,0.0,0.0,0.0,0.0,0.0,0.0,0.1769,-0.9865,0.1087,0.7676,-0.6281,-0.0108,-0.1271
460,0.0,0.0,0.0,0.0,0.0,0.0,0.1749,-0.9944,0.1119,0.7675,-0.6283,-0.0100,-0.1268
461,0.0,0.0,0.0,0.0,0.0,0.0,0.1725,-0.9845,0.1093,0.7676,-0.6283,-0.0090,-0.1264
462,0.0,0.0,0.0,0.0,0.0,0.0,0.1764,-0.9820,0.1064,0.7680,-0.6278,-0.0076,-0.1263
463,0.0,0.0,0.0,0.0,0.0,0.0,0.1779,-0.9859,0.1068,0.7688,-0.6268,-0.0060,-0.1264
464,0.0,0.0,0.0,0.0,0.0,0.0,0.1789,-0.9837,0.1127,0.7691,-0.6265,-0.0054,-0.1262
465,0.0,0.0,0.0,0.0,0.0,0.0,0.1755,-0.9828,0.1166,0.7693,-0.6262,-0.0048,-0.1263
466,0.0,0.0,0.0,0.0,0.0,0.0,0.1755,-0.9756,0.1188,0.7699,-0.6254,-0.0039,-0.1265
467,0.0,0.0,0.0,0.0,0.0,0.0,0.1794,-0.9752,0.1198,0.7703,-0.6250,-0.0034,-0.1264
468,0.0,0.0,0.0,0.0,0.0,0.0,0.1814,-0.9712,0.1170,0.7705,-0.6248,-0.0034,-0.1264
469,0.0,0.0,0.0,0.0,0.0,0.0,0.1819,-0.9683,0.1176,0.7704,-0.6248,-0.0039,-0.1265
470,0.0,0.0,0.0,0.0,0.0,0.0,0.1780,-0.9709,0.1238,0.7707,-0.6245,-0.0040,-0.1267
471,0.0,0.0,0.0,0.0,0.0,0.0,0.1819,-0.9728,0.1208,0.7707,-0.6244,-0.0045,-0.1267
472,0.0,0.0,0.0,0.0,0.0,0.0,0.1878,-0.9729,0.1228,0.7708,-0.6244,-0.0053,-0.1266
473,0.0,0.0,0.0,0.0,0.0,0.0,0.1750,-0.9835,0.1209,0.7707,-0.6244,-0.0057,-0.1265
474,0.0,0.0,0.0,0.0,0.0,0.0,0.1790,-0.9761,0.1197,0.7703,-0.6250,-0.0063,-0.1265
475,0.0,0.0,0.0,0.0,0.0,0.0,0.1848,-0.9757,0.1188,0.7700,-0.6254,-0.0068,-0.1265
476,0.0,0.0,0.0,0.0,0.0,0.0,0.1877,-0.9774,0.1129,0.7696,-0.6258,-0.0076,-0.1264
477,0.0,0.0,0.0,0.0,0.0,0.0,0.1882,-0.9725,0.1112,0.7690,-0.6266,-0.0087,-0.1262
478,0.0,0.0,0.0,0.0,0.0,0.0,0.1901,-0.9784,0.1115,0.7684,-0.6274,-0.0100,-0.1260
479,0.0,0.0,0.0,0.0,0.0,0.0,0.1872,-0.9842,0.1113,0.7682,-0.6276,-0.0106,-0.1260
480,0.0,0.0,0.0,0.0,0.0,0.0,0.1886,-0.9807,0.1080,0.7683,-0.6275,-0.0107,-0.1261
481,0.0,0.0,0.0,0.0,0.0,0.0,0.1857,-0.9851,0.1093,0.7679,-0.6279,-0.0112,-0.1259
482,0.0,0.0,0.0,0.0,0.0,0.0,0.1817,-0.9959,0.1123,0.7678,-0.6281,-0.0114,-0.1257
483,0.0,0.0,0.0,0.0,0.0,0.0,0.1881,-0.9869,0.1054,0.7679,-0.6280,-0.0114,-0.1255
484,0.0,0.0,0.0,0.0,0.0,0.0,0.1799,-0.9730,0.0995,0.7678,-0.6282,-0.0110,-0.1254
485,0.0,0.0,0.0,0.0,0.0,0.0,0.1770,-0.9662,0.1016,0.7677,-0.6283,-0.0106,-0.1252
486,0.0,0.0,0.0,0.0,0.0,0.0,0.1886,-0.9757,0.1043,0.7678,-0.6283,-0.0108,-0.1250
487,0.0,0.0,0.0,0.0,0.0,0.0,0.1686,-0.9902,0.1057,0.7678,-0.6282,-0.0102,-0.1253
488,0.0,0.0,0.0,0.0,0.0,0.0,0.1818,-0.9881,0.1126,0.7682,-0.6277,-0.0093,-0.1259
489,0.0,0.0,0.0,0.0,0.0,0.0,0.1906,-0.9793,0.1100,0.7682,-0.6275,-0.0095,-0.1263
490,0.0,0.0,0.0,0.0,0.0,0.0,0.1871,-0.9921,0.1144,0.7681,-0.6276,-0.0101,-0.1263
491,0.0,0.0,0.0,0.0,0.0,0.0,0.1881,-0.9967,0.1196,0.7683,-0.6274,-0.0103,-0.1261
492,0.0,0.0,0.0,0.0,0.0,0.0,0.1828,-0.9848,0.1151,0.7685,-0.6273,-0.0099,-0.1257
493,0.0,0.0,0.0,0.0,0.0,0.0,0.1863,-0.9670,0.1084,0.7686,-0.6273,-0.0097,-0.1255
494,0.0,0.0,0.0,0.0,0.0,0.0,0.1897,-0.9705,0.1102,0.7688,-0.6271,-0.0097,-0.1251
495,0.0,0.0,0.0,0.0,0.0,0.0,0.1862,-0.9714,0.1083,0.7690,-0.6269,-0.0097,-0.1248
496,0.0,0.0,0.0,0.0,0.0,0.0,0.1804,-0.9714,0.1107,0.7690,-0.6269,-0.0097,-0.1246
497,0.0,0.0,0.0,0.0,0.0,0.0,0.1760,-0.9748,0.1115,0.7688,-0.6272,-0.0096,-0.1245
498,0.0,0.0,0.0,0.0,0.0,0.0,0.1872,-0.9775,0.1154,0.7688,-0.6271,-0.0094,-0.1246
499,0.0,0.0,0.0,0.0,0.0,0.0,0.1770,-0.9793,0.1133,0.7688,-0.6272,-0.0091,-0.1247
500,0.0,0.0,0.0,0.0,0.0,0.0,0.1755,-0.9851,0.1126,0.7691,-0.6268,-0.0082,-0.1248
501,0.0,0.0,0.0,0.0,0.0,0.0,0.1818,-0.9802,0.1104,0.7696,-0.6261,-0.0074,-0.1251
502,0.0,0.0,0.0,0.0,0.0,0.0,0.1774,-0.9772,0.1105,0.7694,-0.6264,-0.0075,-0.1250
503,0.0,0.0,0.0,0.0,0.0,0.0,0.1755,-0.9766,0.1061,0.7690,-0.6268,-0.0074,-0.1250
504,0.0,0.0,0.0,0.0,0.0,0.0,0.1755,-0.9678,0.1059,0.7694,-0.6263,-0.0067,-0.1255
505,0.0,0.0,0.0,0.0,0.0,0.0,0.1783,-1.0048,0.1154,0.7698,-0.6257,-0.0064,-0.1258
506,0.0,0.0,0.0,0.0,0.0,0.0,0.1749,-0.9983,0.1122,0.7696,-0.6260,-0.0065,-0.1258
507,0.0,0.0,0.0,0.0,0.0,0.0,0.1696,-0.9885,0.1130,0.7696,-0.6261,-0.0064,-0.1256
508,0.0,0.0,0.0,0.0,0.0,0.0,0.1711,-0.9856,0.1141,0.7696,-0.6260,-0.0060,-0.1253
509,0.0,0.0,0.0,0.0,0.0,0.0,0.1764,-0.9861,0.1121,0.7696,-0.6262,-0.0061,-0.1249
510,0.0,0.0,0.0,0.0,0.0,0.0,0.1750,-0.9786,0.1090,0.7700,-0.6257,-0.0057,-0.1249
511,0.0,0.0,0.0,0.0,0.0,0.0,0.1765,-0.9717,0.1063,0.7703,-0.6253,-0.0053,-0.1250
512,0.0,0.0,0.0,0.0,0.0,0.0,0.1814,-0.9708,0.1068,0.7697,-0.6260,-0.0060,-0.1250
513,0.0,0.0,0.0,0.0,0.0,0.0,0.1804,-0.9733,0.1096,0.7695,-0.6263,-0.0066,-0.1250
514,0.0,0.0,0.0,0.0,0.0,0.0,0.1838,-0.9773,0.1095,0.7696,-0.6260,-0.0067,-0.1254
515,0.0,0.0,0.0,0.0,0.0,0.0,0.1848,-0.9763,0.1086,0.7694,-0.6262,-0.0073,-0.1256
516,0.0,0.0,0.0,0.0,0.0,0.0,0.1872,-0.9763,0.1076,0.7691,-0.6266,-0.0081,-0.1258
517,0.0,0.0,0.0,0.0,0.0,0.0,0.1882,-0.9803,0.1109,0.7687,-0.6269,-0.0087,-0.1262
518,0.0,0.0,0.0,0.0,0.0,0.0,0.1931,-0.9770,0.1144,0.7685,-0.6271,-0.0094,-0.1266
519,0.0,0.0,0.0,0.0,0.0,0.0,0.1965,-0.9739,0.1087,0.7687,-0.6268,-0.0102,-0.1268
520,0.0,0.0,0.0,0.0,0.0,0.0,0.1925,-0.9905,0.1106,0.7687,-0.6267,-0.0105,-0.1272
521,0.0,0.0,0.0,0.0,0.0,0.0,0.1954,-0.9947,0.1158,0.7687,-0.6268,-0.0109,-0.1272
522,0.0,0.0,0.0,0.0,0.0,0.0,0.1847,-0.9872,0.1155,0.7686,-0.6269,-0.0109,-0.1268
523,0.0,0.0,0.0,0.0,0.0,0.0,0.1891,-0.9843,0.1147,0.7685,-0.6271,-0.0107,-0.1264
524,0.0,0.0,0.0,0.0,0.0,0.0,0.1896,-0.9769,0.1110,0.7685,-0.6272,-0.0106,-0.1260
525,0.0,0.0,0.0,0.0,0.0,0.0,0.1823,-0.9852,0.1122,0.7689,-0.6268,-0.0098,-0.1256
526,0.0,0.0,0.0,0.0,0.0,0.0,0.1838,-0.9788,0.1104,0.7690,-0.6268,-0.0091,-0.1252
527,0.0,0.0,0.0,0.0,0.0,0.0,0.1794,-0.9734,0.1101,0.7688,-0.6271,-0.0087,-0.1247
528,0.0,0.0,0.0,0.0,0.0,0.0,0.1716,-0.9763,0.1129,0.7694,-0.6265,-0.0071,-0.1243
529,0.0,0.0,0.0,0.0,0.0,0.0,0.1804,-0.9818,0.1142,0.7696,-0.6263,-0.0065,-0.1239
530,0.0,0.0,0.0,0.0,0.0,0.0,0.1823,-0.9775,0.1168,0.7694,-0.6267,-0.0068,-0.1235
531,0.0,0.0,0.0,0.0,0.0,0.0,0.1785,-0.9770,0.1178,0.7695,-0.6266,-0.0067,-0.1237
532,0.0,0.0,0.0,0.0,0.0,0.0,0.1751,-0.9720,0.1140,0.7695,-0.6264,-0.0064,-0.1241
533,0.0,0.0,0.0,0.0,0.0,0.0,0.1809,-0.9695,0.1117,0.7693,-0.6266,-0.0065,-0.1245
534,0.0,0.0,0.0,0.0,0.0,0.0,0.1745,-0.9784,0.1148,0.7687,-0.6272,-0.0070,-0.1250
535,0.0,0.0,0.0,0.0,0.0,0.0,0.1809,-0.9775,0.1163,0.7686,-0.6273,-0.0074,-0.1255
536,0.0,0.0,0.0,0.0,0.0,0.0,0.1657,-0.9830,0.1093,0.7689,-0.6268,-0.0066,-0.1261
537,0.0,0.0,0.0,0.0,0.0,0.0,0.1745,-0.9856,0.1126,0.7691,-0.6264,-0.0058,-0.1267
538,0.0,0.0,0.0,0.0,0.0,0.0,0.1813,-0.9832,0.1132,0.7692,-0.6262,-0.0056,-0.1274
539,0.0,0.0,0.0,0.0,0.0,0.0,0.1794,-0.9798,0.1128,0.7690,-0.6263,-0.0056,-0.1279
540,0.0,0.0,0.0,0.0,0.0,0.0,0.1799,-0.9777,0.1085,0.7687,-0.6266,-0.0058,-0.1282
541,0.0,0.0,0.0,0.0,0.0,0.0,0.1804,-0.9652,0.0997,0.7682,-0.6272,-0.0065,-0.1284
542,0.0,0.0,0.0,0.0,0.0,0.0,0.1667,-0.9749,0.1023,0.7679,-0.6275,-0.0068,-0.1286
543,0.0,0.0,0.0,0.0,0.0,0.0,0.1813,-0.9755,0.1004,0.7674,-0.6281,-0.0077,-0.1287
544,0.0,0.0,0.0,0.0,0.0,0.0,0.1872,-0.9821,0.1070,0.7665,-0.6291,-0.0097,-0.1287
545,0.0,0.0,0.0,0.0,0.0,0.0,0.1749,-0.9964,0.1157,0.7662,-0.6295,-0.0110,-0.1287
546,0.0,0.0,0.0,0.0,0.0,0.0,0.1788,-0.9905,0.1115,0.7660,-0.6298,-0.0116,-0.1286
547,0.0,0.0,0.0,0.0,0.0,0.0,0.1916,-0.9771,0.1037,0.7656,-0.6301,-0.0126,-0.1288
548,0.0,0.0,0.0,0.0,0.0,0.0,0.1916,-0.9756,0.1028,0.7654,-0.6304,-0.0137,-0.1289
549,0.0,0.0,0.0,0.0,0.0,0.0,0.1915,-0.9840,0.1059,0.7657,-0.6300,-0.0139,-0.1290
550,0.0,0.0,0.0,0.0,0.0,0.0,0.1949,-0.9869,0.1044,0.7659,-0.6297,-0.0139,-0.1293
551,0.0,0.0,0.0,0.0,0.0,0.0,0.1983,-0.9809,0.0988,0.7654,-0.6303,-0.0147,-0.1292
552,0.0,0.0,0.0,0.0,0.0,0.0,0.2028,-0.9746,0.0980,0.7651,-0.6306,-0.0154,-0.1291
553,0.0,0.0,0.0,0.0,0.0,0.0,0.2017,-0.9813,0.0954,0.7650,-0.6307,-0.0160,-0.1291
554,0.0,0.0,0.0,0.0,0.0,0.0,0.1949,-0.9822,0.0944,0.7646,-0.6313,-0.0161,-0.1291
555,0.0,0.0,0.0,0.0,0.0,0.0,0.1994,-0.9601,0.0888,0.7643,-0.6315,-0.0161,-0.1295
556,0.0,0.0,0.0,0.0,0.0,0.0,0.1930,-0.9734,0.0956,0.7646,-0.6311,-0.0150,-0.1297
557,0.0,0.0,0.0,0.0,0.0,0.0,0.1973,-0.9851,0.0948,0.7646,-0.6311,-0.0144,-0.1300
558,0.0,0.0,0.0,0.0,0.0,0.0,0.1905,-0.9907,0.1023,0.7646,-0.6310,-0.0134,-0.1305
559,0.0,0.0,0.0,0.0,0.0,0.0,0.1983,-0.9905,0.1067,0.7652,-0.6302,-0.0121,-0.1311
560,0.0,0.0,0.0,0.0,0.0,0.0,0.2121,-0.9663,0.0959,0.7655,-0.6298,-0.0120,-0.1315
561,0.0,0.0,0.0,0.0,0.0,0.0,0.2101,-0.9653,0.0955,0.7654,-0.6299,-0.0126,-0.1315
562,0.0,0.0,0.0,0.0,0.0,0.0,0.2022,-0.9968,0.1046,0.7659,-0.6292,-0.0123,-0.1317
563,0.0,0.0,0.0,0.0,0.0,0.0,0.1983,-0.9998,0.1079,0.7661,-0.6288,-0.0119,-0.1321
564,0.0,0.0,0.0,0.0,0.0,0.0,0.2009,-0.9708,0.1011,0.7660,-0.6290,-0.0121,-0.1322
565,0.0,0.0,0.0,0.0,0.0,0.0,0.2029,-0.9589,0.0976,0.7662,-0.6286,-0.0119,-0.1325
566,0.0,0.0,0.0,0.0,0.0,0.0,0.2052,-0.9767,0.1014,0.7665,-0.6282,-0.0118,-0.1326
567,0.0,0.0,0.0,0.0,0.0,0.0,0.2032,-0.9801,0.1027,0.7668,-0.6280,-0.0119,-0.1326
568,0.0,0.0,0.0,0.0,0.0,0.0,0.2043,-0.9705,0.1055,0.7669,-0.6278,-0.0117,-0.1325
569,0.0,0.0,0.0,0.0,0.0,0.0,0.1945,-0.9806,0.1046,0.7669,-0.6279,-0.0118,-0.1323
570,0.0,0.0,0.0,0.0,0.0,0.0,0.2013,-0.9793,0.1086,0.7668,-0.6281,-0.0118,-0.1321
571,0.0,0.0,0.0,0.0,0.0,0.0,0.2087,-0.9735,0.1083,0.7668,-0.6281,-0.0118,-0.1320
572,0.0,0.0,0.0,0.0,0.0,0.0,0.2048,-0.9725,0.1073,0.7667,-0.6282,-0.0117,-0.1319
573,0.0,0.0,0.0,0.0,0.0,0.0,0.2053,-0.9740,0.1083,0.7666,-0.6283,-0.0119,-0.1317
574,0.0,0.0,0.0,0.0,0.0,0.0,0.2033,-0.9734,0.1073,0.7668,-0.6281,-0.0118,-0.1318
575,0.0,0.0,0.0,0.0,0.0,0.0,0.1960,-0.9773,0.1086,0.7670,-0.6278,-0.0112,-0.1318
576,0.0,0.0,0.0,0.0,0.0,0.0,0.1886,-0.9916,0.1139,0.7674,-0.6273,-0.0102,-0.1318
577,0.0,0.0,0.0,0.0,0.0,0.0,0.1900,-0.9910,0.1101,0.7675,-0.6273,-0.0098,-0.1318
578,0.0,0.0,0.0,0.0,0.0,0.0,0.1886,-0.9832,0.1098,0.7674,-0.6274,-0.0095,-0.1317
579,0.0,0.0,0.0,0.0,0.0,0.0,0.1877,-0.9788,0.1095,0.7675,-0.6274,-0.0092,-0.1313
580,0.0,0.0,0.0,0.0,0.0,0.0,0.1940,-0.9738,0.1043,0.7672,-0.6278,-0.0096,-0.1307
581,0.0,0.0,0.0,0.0,0.0,0.0,0.1989,-0.9642,0.0964,0.7668,-0.6285,-0.0103,-0.1303
582,0.0,0.0,0.0,0.0,0.0,0.0,0.1906,-0.9625,0.0916,0.7656,-0.6299,-0.0114,-0.1300
583,0.0,0.0,0.0,0.0,0.0,0.0,0.1974,-0.9697,0.0991,0.7643,-0.6315,-0.0130,-0.1297
584,0.0,0.0,0.0,0.0,0.0,0.0,0.1900,-0.9946,0.1153,0.7639,-0.6321,-0.0139,-0.1293
585,0.0,0.0,0.0,0.0,0.0,0.0,0.1753,-1.0150,0.1175,0.7643,-0.6317,-0.0134,-0.1290
586,0.0,0.0,0.0,0.0,0.0,0.0,0.1841,-1.0001,0.1078,0.7643,-0.6317,-0.0130,-0.1289
587,0.0,0.0,0.0,0.0,0.0,0.0,0.1911,-0.9597,0.0941,0.7641,-0.6320,-0.0125,-0.1285
588,0.0,0.0,0.0,0.0,0.0,0.0,0.1951,-0.9538,0.0919,0.7638,-0.6325,-0.0125,-0.1280
589,0.0,0.0,0.0,0.0,0.0,0.0,0.1914,-1.0020,0.1044,0.7637,-0.6326,-0.0124,-0.1277
590,0.0,0.0,0.0,0.0,0.0,0.0,0.1832,-0.9873,0.1039,0.7639,-0.6325,-0.0117,-0.1278
591,0.0,0.0,0.0,0.0,0.0,0.0,0.1784,-0.9824,0.1030,0.7636,-0.6329,-0.0115,-0.1273
592,0.0,0.0,0.0,0.0,0.0,0.0,0.1827,-0.9827,0.0982,0.7633,-0.6334,-0.0115,-0.1266
593,0.0,0.0,0.0,0.0,0.0,0.0,0.1832,-0.9802,0.0954,0.7631,-0.6338,-0.0111,-0.1260
594,0.0,0.0,0.0,0.0,0.0,0.0,0.1818,-0.9664,0.0919,0.7624,-0.6348,-0.0114,-0.1254
595,0.0,0.0,0.0,0.0,0.0,0.0,0.1832,-0.9748,0.0955,0.7620,-0.6353,-0.0118,-0.1247
596,0.0,0.0,0.0,0.0,0.0,0.0,0.1783,-0.9886,0.0999,0.7620,-0.6353,-0.0114,-0.1246
597,0.0,0.0,0.0,0.0,0.0,0.0,0.1739,-0.9806,0.0958,0.7621,-0.6353,-0.0106,-0.1246
598,0.0,0.0,0.0,0.0,0.0,0.0,0.1730,-0.9726,0.0912,0.7624,-0.6349,-0.0096,-0.1247
599,0.0,0.0,0.0,0.0,0.0,0.0,0.1793,-0.9770,0.0906,0.7624,-0.6349,-0.0090,-0.1248
600,0.0,0.0,0.0,0.0,0.0,0.0,0.1749,-0.9834,0.0933,0.7623,-0.6350,-0.0089,-0.1249
601,0.0,0.0,0.0,0.0,0.0,0.0,0.1749,-0.9878,0.0922,0.7623,-0.6350,-0.0087,-0.1251
602,0.0,0.0,0.0,0.0,0.0,0.0,0.1753,-0.9883,0.0922,0.7624,-0.6348,-0.0083,-0.1254
603,0.0,0.0,0.0,0.0,0.0,0.0,0.1797,-0.9869,0.0927,0.7624,-0.6347,-0.0080,-0.1259
604,0.0,0.0,0.0,0.0,0.0,0.0,0.1881,-0.9780,0.0867,0.7625,-0.6345,-0.0081,-0.1264
605,0.0,0.0,0.0,0.0,0.0,0.0,0.1964,-0.9677,0.0832,0.7624,-0.6344,-0.0090,-0.1269
606,0.0,0.0,0.0,0.0,0.0,0.0,0.1973,-0.9826,0.0915,0.7625,-0.6343,-0.0104,-0.1271
607,0.0,0.0,0.0,0.0,0.0,0.0,0.1748,-1.0054,0.0940,0.7626,-0.6342,-0.0111,-0.1273
608,0.0,0.0,0.0,0.0,0.0,0.0,0.1734,-1.0004,0.1029,0.7626,-0.6342,-0.0111,-0.1271
609,0.0,0.0,0.0,0.0,0.0,0.0,0.1773,-0.9965,0.1031,0.7631,-0.6337,-0.0103,-0.1267
610,0.0,0.0,0.0,0.0,0.0,0.0,0.1954,-0.9681,0.0827,0.7632,-0.6336,-0.0103,-0.1265
611,0.0,0.0,0.0,0.0,0.0,0.0,0.1974,-0.9728,0.0898,0.7630,-0.6337,-0.0112,-0.1265
612,0.0,0.0,0.0,0.0,0.0,0.0,0.1905,-0.9867,0.0995,0.7632,-0.6336,-0.0119,-0.1265
613,0.0,0.0,0.0,0.0,0.0,0.0,0.1920,-0.9884,0.1044,0.7636,-0.6331,-0.0121,-0.1265
614,0.0,0.0,0.0,0.0,0.0,0.0,0.1862,-0.9792,0.1075,0.7644,-0.6320,-0.0115,-0.1267
615,0.0,0.0,0.0,0.0,0.0,0.0,0.1941,-0.9565,0.1005,0.7650,-0.6313,-0.0114,-0.1269
616,0.0,0.0,0.0,0.0,0.0,0.0,0.2024,-0.9461,0.0941,0.7648,-0.6314,-0.0127,-0.1270
617,0.0,0.0,0.0,0.0,0.0,0.0,0.1921,-0.9712,0.1005,0.7644,-0.6319,-0.0142,-0.1269
618,0.0,0.0,0.0,0.0,0.0,0.0,0.1930,-0.9791,0.1047,0.7644,-0.6320,-0.0154,-0.1270
619,0.0,0.0,0.0,0.0,0.0,0.0,0.1969,-0.9782,0.1057,0.7640,-0.6324,-0.0172,-0.1267
620,0.0,0.0,0.0,0.0,0.0,0.0,0.1735,-0.9857,0.1029,0.7633,-0.6334,-0.0185,-0.1260
621,0.0,0.0,0.0,0.0,0.0,0.0,0.1983,-0.9911,0.1106,0.7630,-0.6338,-0.0192,-0.1256
622,0.0,0.0,0.0,0.0,0.0,0.0,0.1978,-0.9859,0.1030,0.7629,-0.6339,-0.0197,-0.1255
623,0.0,0.0,0.0,0.0,0.0,0.0,0.1896,-0.9740,0.0980,0.7630,-0.6338,-0.0196,-0.1258
624,0.0,0.0,0.0,0.0,0.0,0.0,0.1881,-0.9801,0.0934,0.7627,-0.6340,-0.0195,-0.1261
625,0.0,0.0,0.0,0.0,0.0,0.0,0.2032,-0.9724,0.0904,0.7626,-0.6341,-0.0193,-0.1266
626,0.0,0.0,0.0,0.0,0.0,0.0,0.2003,-0.9767,0.0907,0.7623,-0.6344,-0.0195,-0.1269
627,0.0,0.0,0.0,0.0,0.0,0.0,0.1876,-0.9865,0.0947,0.7625,-0.6341,-0.0187,-0.1272
628,0.0,0.0,0.0,0.0,0.0,0.0,0.1871,-0.9921,0.0999,0.7632,-0.6332,-0.0173,-0.1276
629,0.0,0.0,0.0,0.0,0.0,0.0,0.1876,-0.9932,0.1027,0.7638,-0.6324,-0.0161,-0.1278
630,0.0,0.0,0.0,0.0,0.0,0.0,0.2043,-0.9692,0.0963,0.7643,-0.6319,-0.0158,-0.1278
631,0.0,0.0,0.0,0.0,0.0,0.0,0.2106,-0.9657,0.0950,0.7646,-0.6314,-0.0159,-0.1279
632,0.0,0.0,0.0,0.0,0.0,0.0,0.2052,-0.9736,0.0976,0.7651,-0.6308,-0.0155,-0.1281
633,0.0,0.0,0.0,0.0,0.0,0.0,0.2028,-0.9745,0.0966,0.7653,-0.6305,-0.0154,-0.1284
634,0.0,0.0,0.0,0.0,0.0,0.0,0.2028,-0.9781,0.1004,0.7651,-0.6307,-0.0157,-0.1284
635,0.0,0.0,0.0,0.0,0.0,0.0,0.2047,-0.9829,0.0997,0.7651,-0.6308,-0.0157,-0.1284
636,0.0,0.0,0.0,0.0,0.0,0.0,0.1973,-0.9872,0.0991,0.7650,-0.6308,-0.0157,-0.1285
637,0.0,0.0,0.0,0.0,0.0,0.0,0.1959,-0.9824,0.0997,0.7648,-0.6312,-0.0159,-0.1285
638,0.0,0.0,0.0,0.0,0.0,0.0,0.1910,-0.9753,0.0951,0.7646,-0.6314,-0.0156,-0.1285
639,0.0,0.0,0.0,0.0,0.0,0.0,0.1930,-0.9685,0.0938,0.7645,-0.6315,-0.0153,-0.1286
640,0.0,0.0,0.0,0.0,0.0,0.0,0.1901,-0.9714,0.0952,0.7641,-0.6320,-0.0155,-0.1283
641,0.0,0.0,0.0,0.0,0.0,0.0,0.1881,-0.9802,0.0954,0.7636,-0.6327,-0.0158,-0.1279
642,0.0,0.0,0.0,0.0,0.0,0.0,0.1842,-0.9871,0.0981,0.7630,-0.6335,-0.0160,-0.1275
643,0.0,0.0,0.0,0.0,0.0,0.0,0.1817,-0.9960,0.1012,0.7628,-0.6339,-0.0157,-0.1269
644,0.0,0.0,0.0,0.0,0.0,0.0,0.1909,-0.9990,0.1016,0.7627,-0.6341,-0.0156,-0.1263
645,0.0,0.0,0.0,0.0,0.0,0.0,0.1909,-1.0010,0.1030,0.7627,-0.6343,-0.0160,-0.1257
646,0.0,0.0,0.0,0.0,0.0,0.0,0.1787,-1.0003,0.1005,0.7630,-0.6340,-0.0151,-0.1252
647,0.0,0.0,0.0,0.0,0.0,0.0,0.1958,-0.9926,0.0989,0.7632,-0.6338,-0.0146,-0.1246
648,0.0,0.0,0.0,0.0,0.0,0.0,0.1881,-0.9907,0.1018,0.7636,-0.6336,-0.0143,-0.1239
649,0.0,0.0,0.0,0.0,0.0,0.0,0.1891,-0.9863,0.1030,0.7642,-0.6330,-0.0138,-0.1231
650,0.0,0.0,0.0,0.0,0.0,0.0,0.1906,-0.9730,0.0990,0.7649,-0.6322,-0.0132,-0.1225
651,0.0,0.0,0.0,0.0,0.0,0.0,0.1843,-0.9636,0.0964,0.7652,-0.6321,-0.0133,-0.1217
652,0.0,0.0,0.0,0.0,0.0,0.0,0.1877,-0.9683,0.1025,0.7657,-0.6316,-0.0133,-0.1212
653,0.0,0.0,0.0,0.0,0.0,0.0,0.1896,-0.9753,0.1086,0.7666,-0.6305,-0.0132,-0.1211
654,0.0,0.0,0.0,0.0,0.0,0.0,0.1824,-0.9689,0.1078,0.7675,-0.6293,-0.0129,-0.1210
655,0.0,0.0,0.0,0.0,0.0,0.0,0.1839,-0.9596,0.1077,0.7685,-0.6282,-0.0127,-0.1211
656,0.0,0.0,0.0,0.0,0.0,0.0,0.1751,-0.9666,0.1147,0.7691,-0.6275,-0.0130,-0.1209
657,0.0,0.0,0.0,0.0,0.0,0.0,0.1746,-0.9682,0.1161,0.7696,-0.6269,-0.0132,-0.1207
658,0.0,0.0,0.0,0.0,0.0,0.0,0.1804,-0.9697,0.1165,0.7699,-0.6265,-0.0133,-0.1205
659,0.0,0.0,0.0,0.0,0.0,0.0,0.1897,-0.9746,0.1155,0.7701,-0.6264,-0.0135,-0.1199
660,0.0,0.0,0.0,0.0,0.0,0.0,0.1951,-0.9648,0.1129,0.7701,-0.6264,-0.0140,-0.1196
661,0.0,0.0,0.0,0.0,0.0,0.0,0.2043,-0.9652,0.1081,0.7696,-0.6270,-0.0152,-0.1193
662,0.0,0.0,0.0,0.0,0.0,0.0,0.2072,-0.9848,0.1113,0.7691,-0.6277,-0.0163,-0.1194
663,0.0,0.0,0.0,0.0,0.0,0.0,0.2022,-0.9901,0.1106,0.7685,-0.6283,-0.0170,-0.1197
664,0.0,0.0,0.0,0.0,0.0,0.0,0.2027,-0.9929,0.1047,0.7682,-0.6286,-0.0168,-0.1202
665,0.0,0.0,0.0,0.0,0.0,0.0,0.1914,-0.9989,0.1001,0.7679,-0.6289,-0.0161,-0.1208
666,0.0,0.0,0.0,0.0,0.0,0.0,0.1870,-1.0030,0.1053,0.7678,-0.6289,-0.0148,-0.1216
667,0.0,0.0,0.0,0.0,0.0,0.0,0.1684,-1.0157,0.1102,0.7681,-0.6285,-0.0128,-0.1221
668,0.0,0.0,0.0,0.0,0.0,0.0,0.1504,-1.0048,0.1095,0.7687,-0.6277,-0.0100,-0.1223
669,0.0,0.0,0.0,0.0,0.0,0.0,0.1569,-0.9887,0.1086,0.7693,-0.6271,-0.0078,-0.1223
670,0.0,0.0,0.0,0.0,0.0,0.0,0.1574,-0.9784,0.1055,0.7698,-0.6264,-0.0057,-0.1222
671,0.0,0.0,0.0,0.0,0.0,0.0,0.1657,-0.9715,0.1024,0.7701,-0.6261,-0.0048,-0.1220
672,0.0,0.0,0.0,0.0,0.0,0.0,0.1726,-0.9725,0.1028,0.7699,-0.6264,-0.0051,-0.1219
673,0.0,0.0,0.0,0.0,0.0,0.0,0.1760,-0.9707,0.1058,0.7699,-0.6263,-0.0054,-0.1222
674,0.0,0.0,0.0,0.0,0.0,0.0,0.1755,-0.9734,0.1130,0.7700,-0.6261,-0.0060,-0.1227
675,0.0,0.0,0.0,0.0,0.0,0.0,0.1692,-0.9784,0.1186,0.7699,-0.6262,-0.0070,-0.1230
676,0.0,0.0,0.0,0.0,0.0,0.0,0.1702,-0.9800,0.1210,0.7702,-0.6257,-0.0077,-0.1233
677,0.0,0.0,0.0,0.0,0.0,0.0,0.1760,-0.9804,0.1172,0.7702,-0.6257,-0.0086,-0.1233
678,0.0,0.0,0.0,0.0,0.0,0.0,0.1843,-0.9696,0.1132,0.7698,-0.6263,-0.0103,-0.1229
679,0.0,0.0,0.0,0.0,0.0,0.0,0.1907,-0.9627,0.1110,0.7697,-0.6265,-0.0115,-0.1226
680,0.0,0.0,0.0,0.0,0.0,0.0,0.2024,-0.9628,0.1101,0.7699,-0.6261,-0.0122,-0.1227
681,0.0,0.0,0.0,0.0,0.0,0.0,0.1975,-0.9654,0.1148,0.7702,-0.6257,-0.0126,-0.1229
682,0.0,0.0,0.0,0.0,0.0,0.0,0.2048,-0.9774,0.1217,0.7703,-0.6256,-0.0133,-0.1229
683,0.0,0.0,0.0,0.0,0.0,0.0,0.1936,-0.9647,0.1100,0.7701,-0.6258,-0.0134,-0.1231
684,0.0,0.0,0.0,0.0,0.0,0.0,0.2087,-0.9717,0.1117,0.7698,-0.6261,-0.0135,-0.1232
685,0.0,0.0,0.0,0.0,0.0,0.0,0.1920,-0.9915,0.1227,0.7700,-0.6259,-0.0132,-0.1233
686,0.0,0.0,0.0,0.0,0.0,0.0,0.1857,-1.0038,0.1281,0.7702,-0.6257,-0.0128,-0.1232
687,0.0,0.0,0.0,0.0,0.0,0.0,0.1827,-1.0032,0.1267,0.7700,-0.6260,-0.0122,-0.1229
688,0.0,0.0,0.0,0.0,0.0,0.0,0.1839,-0.9708,0.1185,0.7701,-0.6259,-0.0108,-0.1226
689,0.0,0.0,0.0,0.0,0.0,0.0,0.1961,-0.9543,0.1069,0.7703,-0.6258,-0.0100,-0.1224
690,0.0,0.0,0.0,0.0,0.0,0.0,0.1198,-0.9741,0.0764,0.7690,-0.6274,-0.0079,-0.1221
691,0.0,0.0,0.0,0.0,0.0,0.0,0.1584,-0.9774,0.1041,0.7676,-0.6290,-0.0042,-0.1225
692,0.0,0.0,0.0,0.0,0.0,0.0,0.2494,-0.9542,0.1309,0.7676,-0.6287,-0.0039,-0.1242
693,0.0,0.0,0.0,0.0,0.0,0.0,0.1671,-0.9928,0.1124,0.7674,-0.6288,-0.0031,-0.1255
694,0.0,0.0,0.0,0.0,0.0,0.0,0.2325,-1.0045,0.1365,0.7674,-0.6287,-0.0045,-0.1262
695,0.0,0.0,0.0,0.0,0.0,0.0,0.2086,-0.9974,0.1226,0.7682,-0.6280,-0.0090,-0.1245
696,0.0,0.0,0.0,0.0,0.0,0.0,0.1207,-0.9794,0.0883,0.7686,-0.6275,-0.0090,-0.1241
697,0.0,0.0,0.0,0.0,0.0,0.0,0.1594,-0.9691,0.0903,0.7686,-0.6275,-0.0092,-0.1241
698,0.0,0.0,0.0,0.0,0.0,0.0,0.1736,-0.9609,0.0916,0.7681,-0.6281,-0.0103,-0.1241
699,0.0,0.0,0.0,0.0,0.0,0.0,0.1691,-0.9694,0.0966,0.7677,-0.6286,-0.0110,-0.1240
700,0.0,0.0,0.0,0.0,0.0,0.0,0.1686,-0.9818,0.1020,0.7670,-0.6295,-0.0118,-0.1236
701,0.0,0.0,0.0,0.0,0.0,0.0,0.1749,-0.9807,0.0997,0.7660,-0.6308,-0.0132,-0.1229
702,0.0,0.0,0.0,0.0,0.0,0.0,0.1715,-0.9945,0.1041,0.7654,-0.6316,-0.0144,-0.1223
703,0.0,0.0,0.0,0.0,0.0,0.0,0.1816,-1.0078,0.1052,0.7647,-0.6327,-0.0160,-0.1213
704,0.0,0.0,0.0,0.0,0.0,0.0,0.1816,-1.0063,0.1023,0.7640,-0.6337,-0.0176,-0.1204
705,0.0,0.0,0.0,0.0,0.0,0.0,0.1739,-0.9969,0.1016,0.7638,-0.6340,-0.0183,-0.1195
706,0.0,0.0,0.0,0.0,0.0,0.0,0.1895,-0.9973,0.0944,0.7635,-0.6345,-0.0190,-0.1186
707,0.0,0.0,0.0,0.0,0.0,0.0,0.1993,-0.9809,0.0847,0.7630,-0.6353,-0.0196,-0.1179
708,0.0,0.0,0.0,0.0,0.0,0.0,0.2004,-0.9563,0.0773,0.7625,-0.6358,-0.0202,-0.1178
709,0.0,0.0,0.0,0.0,0.0,0.0,0.1788,-0.9873,0.0907,0.7629,-0.6353,-0.0192,-0.1179
710,0.0,0.0,0.0,0.0,0.0,0.0,0.1865,-0.9902,0.0892,0.7632,-0.6350,-0.0181,-0.1182
711,0.0,0.0,0.0,0.0,0.0,0.0,0.1841,-0.9868,0.0908,0.7633,-0.6348,-0.0173,-0.1185
712,0.0,0.0,0.0,0.0,0.0,0.0,0.1729,-0.9903,0.0955,0.7637,-0.6343,-0.0162,-0.1190
713,0.0,0.0,0.0,0.0,0.0,0.0,0.1578,-0.9984,0.1073,0.7643,-0.6336,-0.0147,-0.1191
714,0.0,0.0,0.0,0.0,0.0,0.0,0.1485,-1.0065,0.1153,0.7653,-0.6325,-0.0122,-0.1190
715,0.0,0.0,0.0,0.0,0.0,0.0,0.1509,-1.0187,0.1290,0.7671,-0.6304,-0.0092,-0.1188
716,0.0,0.0,0.0,0.0,0.0,0.0,0.1656,-1.0079,0.1240,0.7688,-0.6284,-0.0068,-0.1183
717,0.0,0.0,0.0,0.0,0.0,0.0,0.1819,-0.9541,0.1030,0.7698,-0.6274,-0.0062,-0.1175
718,0.0,0.0,0.0,0.0,0.0,0.0,0.1741,-0.9714,0.1116,0.7705,-0.6267,-0.0066,-0.1160
719,0.0,0.0,0.0,0.0,0.0,0.0,0.1779,-0.9826,0.1098,0.7706,-0.6268,-0.0073,-0.1145
720,0.0,0.0,0.0,0.0,0.0,0.0,0.1873,-0.9478,0.1037,0.7706,-0.6271,-0.0078,-0.1134
721,0.0,0.0,0.0,0.0,0.0,0.0,0.1796,-0.9427,0.0999,0.7707,-0.6271,-0.0085,-0.1124
722,0.0,0.0,0.0,0.0,0.0,0.0,0.1795,-0.9554,0.1005,0.7703,-0.6278,-0.0097,-0.1119
723,0.0,0.0,0.0,0.0,0.0,0.0,0.1873,-0.9620,0.1057,0.7696,-0.6286,-0.0116,-0.1113
724,0.0,0.0,0.0,0.0,0.0,0.0,0.1716,-0.9732,0.1067,0.7689,-0.6295,-0.0132,-0.1109
725,0.0,0.0,0.0,0.0,0.0,0.0,0.1691,-0.9849,0.1083,0.7681,-0.6305,-0.0141,-0.1108
726,0.0,0.0,0.0,0.0,0.0,0.0,0.1677,-0.9779,0.1046,0.7680,-0.6306,-0.0136,-0.1114
727,0.0,0.0,0.0,0.0,0.0,0.0,0.1608,-0.9897,0.1066,0.7681,-0.6303,-0.0127,-0.1122
728,0.0,0.0,0.0,0.0,0.0,0.0,0.1597,-1.0099,0.1133,0.7679,-0.6304,-0.0123,-0.1128
729,0.0,0.0,0.0,0.0,0.0,0.0,0.1476,-1.0020,0.1139,0.7681,-0.6301,-0.0112,-0.1133
730,0.0,0.0,0.0,0.0,0.0,0.0,0.1476,-0.9917,0.1109,0.7685,-0.6297,-0.0098,-0.1135
731,0.0,0.0,0.0,0.0,0.0,0.0,0.1529,-0.9972,0.1146,0.7688,-0.6293,-0.0089,-0.1136
732,0.0,0.0,0.0,0.0,0.0,0.0,0.1520,-0.9923,0.1152,0.7693,-0.6286,-0.0079,-0.1137
733,0.0,0.0,0.0,0.0,0.0,0.0,0.1521,-0.9840,0.1140,0.7696,-0.6284,-0.0073,-0.1136
734,0.0,0.0,0.0,0.0,0.0,0.0,0.1565,-0.9782,0.1138,0.7695,-0.6285,-0.0071,-0.1133
735,0.0,0.0,0.0,0.0,0.0,0.0,0.1560,-0.9743,0.1158,0.7700,-0.6279,-0.0064,-0.1131
736,0.0,0.0,0.0,0.0,0.0,0.0,0.1609,-0.9788,0.1157,0.7703,-0.6275,-0.0060,-0.1129
737,0.0,0.0,0.0,0.0,0.0,0.0,0.1687,-0.9700,0.1136,0.7703,-0.6275,-0.0063,-0.1128
738,0.0,0.0,0.0,0.0,0.0,0.0,0.1721,-0.9720,0.1160,0.7700,-0.6280,-0.0075,-0.1125
739,0.0,0.0,0.0,0.0,0.0,0.0,0.1721,-0.9828,0.1176,0.7700,-0.6279,-0.0081,-0.1128
740,0.0,0.0,0.0,0.0,0.0,0.0,0.1716,-0.9744,0.1139,0.7702,-0.6277,-0.0083,-0.1132
741,0.0,0.0,0.0,0.0,0.0,0.0,0.1750,-0.9709,0.1102,0.7700,-0.6278,-0.0087,-0.1134
742,0.0,0.0,0.0,0.0,0.0,0.0,0.1745,-0.9806,0.1084,0.7702,-0.6274,-0.0084,-0.1142
743,0.0,0.0,0.0,0.0,0.0,0.0,0.1705,-0.9928,0.1095,0.7701,-0.6276,-0.0084,-0.1145
744,0.0,0.0,0.0,0.0,0.0,0.0,0.1647,-0.9932,0.1089,0.7696,-0.6281,-0.0084,-0.1150
745,0.0,0.0,0.0,0.0,0.0,0.0,0.1544,-0.9940,0.1060,0.7696,-0.6279,-0.0073,-0.1157
746,0.0,0.0,0.0,0.0,0.0,0.0,0.1632,-0.9943,0.1128,0.7693,-0.6281,-0.0067,-0.1163
747,0.0,0.0,0.0,0.0,0.0,0.0,0.1578,-0.9938,0.1142,0.7691,-0.6284,-0.0064,-0.1164
748,0.0,0.0,0.0,0.0,0.0,0.0,0.1524,-0.9965,0.1098,0.7696,-0.6278,-0.0050,-0.1167
749,0.0,0.0,0.0,0.0,0.0,0.0,0.1531,-0.9730,0.1052,0.7701,-0.6272,-0.0036,-0.1169
750,0.0,0.0,0.0,0.0,0.0,0.0,0.1487,-0.9700,0.1043,0.7699,-0.6274,-0.0033,-0.1166
751,0.0,0.0,0.0,0.0,0.0,0.0,0.1652,-0.9750,0.1052,0.7695,-0.6280,-0.0037,-0.1166
752,0.0,0.0,0.0,0.0,0.0,0.0,0.1701,-0.9750,0.1047,0.7698,-0.6275,-0.0035,-0.1170
753,0.0,0.0,0.0,0.0,0.0,0.0,0.1633,-0.9720,0.1043,0.7699,-0.6273,-0.0035,-0.1174
754,0.0,0.0,0.0,0.0,0.0,0.0,0.1701,-0.9765,0.1061,0.7697,-0.6273,-0.0038,-0.1180
755,0.0,0.0,0.0,0.0,0.0,0.0,0.1637,-0.9809,0.1074,0.7697,-0.6272,-0.0038,-0.1188
756,0.0,0.0,0.0,0.0,0.0,0.0,0.1632,-0.9878,0.1096,0.7698,-0.6270,-0.0036,-0.1197
757,0.0,0.0,0.0,0.0,0.0,0.0,0.1627,-0.9923,0.1119,0.7701,-0.6264,-0.0029,-0.1207
758,0.0,0.0,0.0,0.0,0.0,0.0,0.1603,-0.9873,0.1086,0.7701,-0.6262,-0.0023,-0.1218
759,0.0,0.0,0.0,0.0,0.0,0.0,0.1691,-0.9770,0.1051,0.7698,-0.6264,-0.0021,-0.1228
760,0.0,0.0,0.0,0.0,0.0,0.0,0.1788,-0.9838,0.1020,0.7699,-0.6261,-0.0020,-0.1235
761,0.0,0.0,0.0,0.0,0.0,0.0,0.1744,-0.9955,0.1036,0.7699,-0.6260,-0.0020,-0.1239
762,0.0,0.0,0.0,0.0,0.0,0.0,0.1715,-0.9976,0.1069,0.7696,-0.6263,-0.0019,-0.1240
763,0.0,0.0,0.0,0.0,0.0,0.0,0.1778,-1.0020,0.1068,0.7696,-0.6264,-0.0015,-0.1239
764,0.0,0.0,0.0,0.0,0.0,0.0,0.1763,-0.9926,0.1022,0.7694,-0.6267,-0.0012,-0.1234
765,0.0,0.0,0.0,0.0,0.0,0.0,0.1803,-0.9783,0.0988,0.7687,-0.6277,-0.0019,-0.1226
766,0.0,0.0,0.0,0.0,0.0,0.0,0.1759,-0.9774,0.1003,0.7687,-0.6279,-0.0019,-0.1222
767,0.0,0.0,0.0,0.0,0.0,0.0,0.1730,-0.9767,0.0969,0.7687,-0.6278,-0.0014,-0.1220
768,0.0,0.0,0.0,0.0,0.0,0.0,0.1711,-0.9748,0.0984,0.7681,-0.6286,-0.0020,-0.1218
769,0.0,0.0,0.0,0.0,0.0,0.0,0.1657,-0.9783,0.1012,0.7675,-0.6294,-0.0026,-0.1217
770,0.0,0.0,0.0,0.0,0.0,0.0,0.1720,-0.9800,0.1060,0.7672,-0.6298,-0.0036,-0.1217
771,0.0,0.0,0.0,0.0,0.0,0.0,0.1549,-0.9866,0.1043,0.7667,-0.6304,-0.0041,-0.1215
772,0.0,0.0,0.0,0.0,0.0,0.0,0.1667,-0.9774,0.1022,0.7661,-0.6311,-0.0045,-0.1216
773,0.0,0.0,0.0,0.0,0.0,0.0,0.1730,-0.9876,0.1019,0.7656,-0.6317,-0.0053,-0.1215
774,0.0,0.0,0.0,0.0,0.0,0.0,0.1671,-0.9801,0.0963,0.7653,-0.6320,-0.0058,-0.1217
775,0.0,0.0,0.0,0.0,0.0,0.0,0.1774,-0.9708,0.0947,0.7649,-0.6325,-0.0068,-0.1220
776,0.0,0.0,0.0,0.0,0.0,0.0,0.1803,-0.9801,0.0939,0.7643,-0.6332,-0.0079,-0.1222
777,0.0,0.0,0.0,0.0,0.0,0.0,0.1773,-0.9889,0.0951,0.7638,-0.6337,-0.0091,-0.1224
778,0.0,0.0,0.0,0.0,0.0,0.0,0.1739,-0.9984,0.1030,0.7633,-0.6343,-0.0100,-0.1223
779,0.0,0.0,0.0,0.0,0.0,0.0,0.1675,-0.9974,0.1040,0.7632,-0.6344,-0.0100,-0.1224
780,0.0,0.0,0.0,0.0,0.0,0.0,0.1745,-0.9716,0.0903,0.7630,-0.6345,-0.0103,-0.1227
781,0.0,0.0,0.0,0.0,0.0,0.0,0.1710,-0.9790,0.0920,0.7631,-0.6344,-0.0101,-0.1228
782,0.0,0.0,0.0,0.0,0.0,0.0,0.1676,-0.9794,0.0919,0.7632,-0.6342,-0.0095,-0.1231
783,0.0,0.0,0.0,0.0,0.0,0.0,0.1759,-0.9880,0.0980,0.7634,-0.6339,-0.0092,-0.1234
784,0.0,0.0,0.0,0.0,0.0,0.0,0.1792,-1.0073,0.1056,0.7642,-0.6329,-0.0082,-0.1240
785,0.0,0.0,0.0,0.0,0.0,0.0,0.1822,-0.9863,0.1029,0.7651,-0.6317,-0.0071,-0.1247
786,0.0,0.0,0.0,0.0,0.0,0.0,0.1901,-0.9642,0.0959,0.7658,-0.6308,-0.0066,-0.1251
787,0.0,0.0,0.0,0.0,0.0,0.0,0.1847,-0.9689,0.0923,0.7662,-0.6303,-0.0063,-0.1251
788,0.0,0.0,0.0,0.0,0.0,0.0,0.1945,-0.9769,0.0965,0.7660,-0.6306,-0.0069,-0.1248
789,0.0,0.0,0.0,0.0,0.0,0.0,0.1891,-0.9843,0.1006,0.7657,-0.6309,-0.0078,-0.1247
790,0.0,0.0,0.0,0.0,0.0,0.0,0.1857,-0.9809,0.1007,0.7657,-0.6309,-0.0082,-0.1247
791,0.0,0.0,0.0,0.0,0.0,0.0,0.1862,-0.9793,0.0983,0.7656,-0.6311,-0.0085,-0.1246
792,0.0,0.0,0.0,0.0,0.0,0.0,0.1886,-0.9788,0.0978,0.7656,-0.6311,-0.0086,-0.1246
793,0.0,0.0,0.0,0.0,0.0,0.0,0.1940,-0.9754,0.0946,0.7657,-0.6309,-0.0085,-0.1249
794,0.0,0.0,0.0,0.0,0.0,0.0,0.1959,-0.9754,0.0941,0.7654,-0.6312,-0.0090,-0.1249
795,0.0,0.0,0.0,0.0,0.0,0.0,0.1905,-0.9768,0.0940,0.7652,-0.6315,-0.0094,-0.1253
796,0.0,0.0,0.0,0.0,0.0,0.0,0.1925,-0.9802,0.0939,0.7649,-0.6318,-0.0098,-0.1256
797,0.0,0.0,0.0,0.0,0.0,0.0,0.1900,-0.9787,0.0925,0.7644,-0.6324,-0.0105,-0.1256
798,0.0,0.0,0.0,0.0,0.0,0.0,0.1861,-0.9841,0.0948,0.7642,-0.6325,-0.0108,-0.1258
799,0.0,0.0,0.0,0.0,0.0,0.0,0.1861,-0.9830,0.0909,0.7638,-0.6330,-0.0116,-0.1256
800,0.0,0.0,0.0,0.0,0.0,0.0,0.1827,-0.9890,0.0980,0.7632,-0.6338,-0.0124,-0.1253
801,0.0,0.0,0.0,0.0,0.0,0.0,0.1812,-0.9861,0.0986,0.7635,-0.6332,-0.0100,-0.1265
802,0.0,0.0,0.0,0.0,0.0,0.0,0.1827,-0.9870,0.0961,0.7637,-0.6330,-0.0095,-0.1263
803,0.0,0.0,0.0,0.0,0.0,0.0,0.1846,-0.9947,0.1051,0.7636,-0.6333,-0.0095,-0.1257
804,0.0,0.0,0.0,0.0,0.0,0.0,0.1675,-0.9964,0.1021,0.7639,-0.6330,-0.0087,-0.1252
805,0.0,0.0,0.0,0.0,0.0,0.0,0.1715,-0.9856,0.1005,0.7639,-0.6331,-0.0078,-0.1247
806,0.0,0.0,0.0,0.0,0.0,0.0,0.1759,-0.9824,0.1040,0.7642,-0.6329,-0.0068,-0.1241
807,0.0,0.0,0.0,0.0,0.0,0.0,0.1739,-0.9852,0.1010,0.7647,-0.6324,-0.0059,-0.1233
808,0.0,0.0,0.0,0.0,0.0,0.0,0.1847,-0.9776,0.0925,0.7650,-0.6321,-0.0054,-0.1229
809,0.0,0.0,0.0,0.0,0.0,0.0,0.1888,-0.9408,0.0830,0.7649,-0.6324,-0.0057,-0.1227
810,0.0,0.0,0.0,0.0,0.0,0.0,0.1930,-0.9878,0.1029,0.7649,-0.6324,-0.0062,-0.1222
811,0.0,0.0,0.0,0.0,0.0,0.0,0.1846,-1.0030,0.1073,0.7648,-0.6326,-0.0067,-0.1221
812,0.0,0.0,0.0,0.0,0.0,0.0,0.1700,-0.9867,0.1048,0.7648,-0.6326,-0.0063,-0.1220
813,0.0,0.0,0.0,0.0,0.0,0.0,0.1764,-0.9906,0.1018,0.7655,-0.6318,-0.0046,-0.1219
814,0.0,0.0,0.0,0.0,0.0,0.0,0.1817,-0.9880,0.0970,0.7662,-0.6310,-0.0029,-0.1219
815,0.0,0.0,0.0,0.0,0.0,0.0,0.1710,-0.9924,0.1003,0.7664,-0.6307,-0.0019,-0.1220
816,0.0,0.0,0.0,0.0,0.0,0.0,0.1641,-0.9925,0.1027,0.7670,-0.6299,-0.0002,-0.1223
817,0.0,0.0,0.0,0.0,0.0,0.0,0.1612,-0.9934,0.1031,0.7676,-0.6291,0.0017,-0.1226
818,0.0,0.0,0.0,0.0,0.0,0.0,0.1613,-0.9896,0.1061,0.7685,-0.6279,0.0033,-0.1230
819,0.0,0.0,0.0,0.0,0.0,0.0,0.1643,-0.9669,0.0967,0.7691,-0.6272,0.0042,-0.1232
820,0.0,0.0,0.0,0.0,0.0,0.0,0.1653,-0.9544,0.0888,0.7687,-0.6277,0.0038,-0.1230
821,0.0,0.0,0.0,0.0,0.0,0.0,0.1662,-0.9777,0.0993,0.7684,-0.6281,0.0031,-0.1231
822,0.0,0.0,0.0,0.0,0.0,0.0,0.1676,-0.9777,0.0988,0.7677,-0.6288,0.0020,-0.1234
823,0.0,0.0,0.0,0.0,0.0,0.0,0.1676,-0.9773,0.1017,0.7671,-0.6296,0.0007,-0.1233
824,0.0,0.0,0.0,0.0,0.0,0.0,0.1701,-0.9848,0.1063,0.7664,-0.6305,-0.0013,-0.1231
825,0.0,0.0,0.0,0.0,0.0,0.0,0.1725,-0.9815,0.1084,0.7659,-0.6310,-0.0030,-0.1232
826,0.0,0.0,0.0,0.0,0.0,0.0,0.1721,-0.9797,0.1109,0.7659,-0.6310,-0.0039,-0.1231
827,0.0,0.0,0.0,0.0,0.0,0.0,0.1822,-0.9914,0.1100,0.7660,-0.6310,-0.0048,-0.1230
828,0.0,0.0,0.0,0.0,0.0,0.0,0.1803,-0.9810,0.1050,0.7661,-0.6308,-0.0052,-0.1234
829,0.0,0.0,0.0,0.0,0.0,0.0,0.1716,-0.9603,0.1008,0.7662,-0.6305,-0.0052,-0.1241
830,0.0,0.0,0.0,0.0,0.0,0.0,0.1809,-0.9662,0.0997,0.7661,-0.6306,-0.0059,-0.1242
831,0.0,0.0,0.0,0.0,0.0,0.0,0.1789,-0.9763,0.0984,0.7658,-0.6308,-0.0064,-0.1247
832,0.0,0.0,0.0,0.0,0.0,0.0,0.1774,-0.9778,0.0974,0.7661,-0.6304,-0.0062,-0.1255
833,0.0,0.0,0.0,0.0,0.0,0.0,0.1803,-0.9838,0.1011,0.7659,-0.6305,-0.0066,-0.1260
834,0.0,0.0,0.0,0.0,0.0,0.0,0.1778,-0.9950,0.1026,0.7653,-0.6311,-0.0070,-0.1264
835,0.0,0.0,0.0,0.0,0.0,0.0,0.1798,-0.9886,0.0999,0.7649,-0.6315,-0.0069,-0.1270
836,0.0,0.0,0.0,0.0,0.0,0.0,0.1861,-0.9858,0.1020,0.7646,-0.6317,-0.0068,-0.1274
837,0.0,0.0,0.0,0.0,0.0,0.0,0.1793,-0.9891,0.0999,0.7647,-0.6315,-0.0061,-0.1280
838,0.0,0.0,0.0,0.0,0.0,0.0,0.1837,-0.9857,0.0991,0.7650,-0.6311,-0.0055,-0.1287
839,0.0,0.0,0.0,0.0,0.0,0.0,0.1813,-0.9823,0.1011,0.7651,-0.6308,-0.0052,-0.1293
840,0.0,0.0,0.0,0.0,0.0,0.0,0.1774,-0.9824,0.1050,0.7657,-0.6299,-0.0044,-0.1299
841,0.0,0.0,0.0,0.0,0.0,0.0,0.1720,-0.9836,0.1107,0.7666,-0.6287,-0.0034,-0.1305
842,0.0,0.0,0.0,0.0,0.0,0.0,0.1744,-0.9962,0.1084,0.7672,-0.6279,-0.0032,-0.1309
843,0.0,0.0,0.0,0.0,0.0,0.0,0.1696,-0.9770,0.1041,0.7672,-0.6279,-0.0034,-0.1308
844,0.0,0.0,0.0,0.0,0.0,0.0,0.1717,-0.9650,0.1099,0.7675,-0.6277,-0.0030,-0.1305
845,0.0,0.0,0.0,0.0,0.0,0.0,0.1881,-0.9925,0.1125,0.7676,-0.6275,-0.0038,-0.1303
846,0.0,0.0,0.0,0.0,0.0,0.0,0.1774,-0.9876,0.1140,0.7675,-0.6278,-0.0046,-0.1299
847,0.0,0.0,0.0,0.0,0.0,0.0,0.1853,-0.9701,0.1122,0.7677,-0.6275,-0.0050,-0.1294
848,0.0,0.0,0.0,0.0,0.0,0.0,0.1911,-0.9743,0.1072,0.7677,-0.6276,-0.0059,-0.1289
849,0.0,0.0,0.0,0.0,0.0,0.0,0.1930,-0.9763,0.1077,0.7679,-0.6275,-0.0064,-0.1285
850,0.0,0.0,0.0,0.0,0.0,0.0,0.1940,-0.9773,0.1086,0.7681,-0.6274,-0.0069,-0.1282
851,0.0,0.0,0.0,0.0,0.0,0.0,0.1906,-0.9743,0.1063,0.7676,-0.6281,-0.0081,-0.1276
852,0.0,0.0,0.0,0.0,0.0,0.0,0.1926,-0.9747,0.1033,0.7673,-0.6286,-0.0089,-0.1270
853,0.0,0.0,0.0,0.0,0.0,0.0,0.1969,-0.9815,0.1012,0.7666,-0.6295,-0.0102,-0.1262
854,0.0,0.0,0.0,0.0,0.0,0.0,0.1915,-0.9799,0.0993,0.7661,-0.6301,-0.0111,-0.1259
855,0.0,0.0,0.0,0.0,0.0,0.0,0.1857,-0.9729,0.0951,0.7662,-0.6301,-0.0107,-0.1259
856,0.0,0.0,0.0,0.0,0.0,0.0,0.1852,-0.9722,0.0908,0.7658,-0.6306,-0.0109,-0.1257
857,0.0,0.0,0.0,0.0,0.0,0.0,0.1842,-0.9839,0.0914,0.7653,-0.6312,-0.0110,-0.1252
858,0.0,0.0,0.0,0.0,0.0,0.0,0.1861,-0.9888,0.0907,0.7654,-0.6311,-0.0102,-0.1255
859,0.0,0.0,0.0,0.0,0.0,0.0,0.1871,-0.9819,0.0890,0.7651,-0.6314,-0.0099,-0.1256
860,0.0,0.0,0.0,0.0,0.0,0.0,0.1978,-0.9771,0.0868,0.7647,-0.6319,-0.0100,-0.1258
861,0.0,0.0,0.0,0.0,0.0,0.0,0.1974,-0.9671,0.0808,0.7646,-0.6320,-0.0104,-0.1260
862,0.0,0.0,0.0,0.0,0.0,0.0,0.1885,-0.9789,0.0852,0.7642,-0.6323,-0.0110,-0.1265
863,0.0,0.0,0.0,0.0,0.0,0.0,0.1953,-0.9923,0.0916,0.7640,-0.6325,-0.0115,-0.1271
864,0.0,0.0,0.0,0.0,0.0,0.0,0.1836,-0.9884,0.0927,0.7639,-0.6326,-0.0113,-0.1275
865,0.0,0.0,0.0,0.0,0.0,0.0,0.1866,-0.9909,0.0945,0.7637,-0.6327,-0.0112,-0.1277
866,0.0,0.0,0.0,0.0,0.0,0.0,0.1871,-0.9879,0.0917,0.7634,-0.6331,-0.0114,-0.1277
867,0.0,0.0,0.0,0.0,0.0,0.0,0.1817,-0.9874,0.0927,0.7635,-0.6329,-0.0111,-0.1279
868,0.0,0.0,0.0,0.0,0.0,0.0,0.1934,-0.9800,0.0876,0.7638,-0.6326,-0.0107,-0.1281
869,0.0,0.0,0.0,0.0,0.0,0.0,0.2023,-0.9702,0.0836,0.7636,-0.6326,-0.0115,-0.1284
870,0.0,0.0,0.0,0.0,0.0,0.0,0.2008,-0.9643,0.0828,0.7635,-0.6327,-0.0122,-0.1290
871,0.0,0.0,0.0,0.0,0.0,0.0,0.1978,-0.9746,0.0854,0.7635,-0.6325,-0.0125,-0.1296
872,0.0,0.0,0.0,0.0,0.0,0.0,0.1934,-0.9869,0.0908,0.7635,-0.6324,-0.0126,-0.1302
873,0.0,0.0,0.0,0.0,0.0,0.0,0.1909,-0.9964,0.0983,0.7636,-0.6322,-0.0123,-0.1307
874,0.0,0.0,0.0,0.0,0.0,0.0,0.1993,-0.9852,0.0953,0.7638,-0.6319,-0.0121,-0.1311
875,0.0,0.0,0.0,0.0,0.0,0.0,0.2223,-0.9657,0.0916,0.7644,-0.6310,-0.0121,-0.1318
876,0.0,0.0,0.0,0.0,0.0,0.0,0.2091,-0.9754,0.0912,0.7646,-0.6306,-0.0124,-0.1324
877,0.0,0.0,0.0,0.0,0.0,0.0,0.2169,-0.9720,0.0914,0.7646,-0.6306,-0.0130,-0.1328
878,0.0,0.0,0.0,0.0,0.0,0.0,0.2115,-0.9882,0.0947,0.7645,-0.6307,-0.0134,-0.1327
879,0.0,0.0,0.0,0.0,0.0,0.0,0.2021,-0.9969,0.0964,0.7642,-0.6311,-0.0133,-0.1323
880,0.0,0.0,0.0,0.0,0.0,0.0,0.2125,-0.9762,0.0869,0.7638,-0.6316,-0.0132,-0.1320
881,0.0,0.0,0.0,0.0,0.0,0.0,0.2110,-0.9767,0.0878,0.7638,-0.6318,-0.0132,-0.1317
882,0.0,0.0,0.0,0.0,0.0,0.0,0.2086,-0.9771,0.0868,0.7637,-0.6320,-0.0133,-0.1314
883,0.0,0.0,0.0,0.0,0.0,0.0,0.2042,-0.9801,0.0891,0.7632,-0.6326,-0.0136,-0.1308
884,0.0,0.0,0.0,0.0,0.0,0.0,0.1988,-0.9812,0.0920,0.7629,-0.6332,-0.0140,-0.1301
885,0.0,0.0,0.0,0.0,0.0,0.0,0.1973,-0.9847,0.0953,0.7627,-0.6335,-0.0141,-0.1295
886,0.0,0.0,0.0,0.0,0.0,0.0,0.1997,-0.9886,0.0942,0.7625,-0.6338,-0.0140,-0.1291
887,0.0,0.0,0.0,0.0,0.0,0.0,0.1919,-0.9875,0.0927,0.7623,-0.6342,-0.0139,-0.1285
888,0.0,0.0,0.0,0.0,0.0,0.0,0.1920,-0.9777,0.0916,0.7623,-0.6343,-0.0139,-0.1279
889,0.0,0.0,0.0,0.0,0.0,0.0,0.1857,-0.9761,0.0892,0.7625,-0.6342,-0.0136,-0.1272
890,0.0,0.0,0.0,0.0,0.0,0.0,0.1871,-0.9826,0.0934,0.7629,-0.6339,-0.0131,-0.1268
891,0.0,0.0,0.0,0.0,0.0,0.0,0.1920,-0.9814,0.1002,0.7632,-0.6335,-0.0133,-0.1265
892,0.0,0.0,0.0,0.0,0.0,0.0,0.1803,-0.9749,0.0989,0.7635,-0.6333,-0.0137,-0.1260
893,0.0,0.0,0.0,0.0,0.0,0.0,0.1754,-0.9788,0.0993,0.7635,-0.6333,-0.0135,-0.1259
894,0.0,0.0,0.0,0.0,0.0,0.0,0.1946,-0.9497,0.0862,0.7636,-0.6331,-0.0134,-0.1263
895,0.0,0.0,0.0,0.0,0.0,0.0,0.1770,-0.9691,0.1005,0.7643,-0.6322,-0.0126,-0.1266
896,0.0,0.0,0.0,0.0,0.0,0.0,0.1900,-0.9983,0.1089,0.7650,-0.6312,-0.0118,-0.1273
897,0.0,0.0,0.0,0.0,0.0,0.0,0.1935,-0.9776,0.1028,0.7655,-0.6303,-0.0107,-0.1284
898,0.0,0.0,0.0,0.0,0.0,0.0,0.1991,-0.9324,0.0926,0.7657,-0.6299,-0.0103,-0.1297
899,0.0,0.0,0.0,0.0,0.0,0.0,0.2249,-0.9338,0.0849,0.7651,-0.6303,-0.0120,-0.1309
900,0.0,0.0,0.0,0.0,0.0,0.0,0.2268,-0.9445,0.0840,0.7641,-0.6313,-0.0151,-0.1322
901,0.0,0.0,0.0,0.0,0.0,0.0,0.1876,-0.9958,0.1090,0.7634,-0.6319,-0.0168,-0.1331
902,0.0,0.0,0.0,0.0,0.0,0.0,0.1821,-1.0129,0.1108,0.7626,-0.6328,-0.0178,-0.1334
903,0.0,0.0,0.0,0.0,0.0,0.0,0.1915,-0.9877,0.0986,0.7618,-0.6337,-0.0186,-0.1331
904,0.0,0.0,0.0,0.0,0.0,0.0,0.2026,-0.9959,0.0954,0.7616,-0.6341,-0.0192,-0.1326
905,0.0,0.0,0.0,0.0,0.0,0.0,0.2065,-1.0073,0.0975,0.7615,-0.6343,-0.0194,-0.1321
906,0.0,0.0,0.0,0.0,0.0,0.0,0.2017,-0.9887,0.0986,0.7614,-0.6345,-0.0194,-0.1317
907,0.0,0.0,0.0,0.0,0.0,0.0,0.2027,-0.9987,0.1055,0.7619,-0.6340,-0.0187,-0.1312
908,0.0,0.0,0.0,0.0,0.0,0.0,0.1988,-0.9771,0.0882,0.7625,-0.6334,-0.0176,-0.1309
909,0.0,0.0,0.0,0.0,0.0,0.0,0.1910,-0.9796,0.0901,0.7626,-0.6335,-0.0184,-0.1294
910,0.0,0.0,0.0,0.0,0.0,0.0,0.1881,-0.9786,0.0901,0.7631,-0.6330,-0.0173,-0.1293
911,0.0,0.0,0.0,0.0,0.0,0.0,0.1895,-0.9811,0.0920,0.7634,-0.6327,-0.0165,-0.1289
912,0.0,0.0,0.0,0.0,0.0,0.0,0.1978,-0.9959,0.0954,0.7635,-0.6327,-0.0162,-0.1285
913,0.0,0.0,0.0,0.0,0.0,0.0,0.1895,-0.9855,0.0942,0.7637,-0.6324,-0.0155,-0.1285
914,0.0,0.0,0.0,0.0,0.0,0.0,0.1915,-0.9723,0.0908,0.7638,-0.6325,-0.0152,-0.1279
915,0.0,0.0,0.0,0.0,0.0,0.0,0.1984,-0.9687,0.0851,0.7639,-0.6325,-0.0149,-0.1275
916,0.0,0.0,0.0,0.0,0.0,0.0,0.2003,-0.9638,0.0833,0.7637,-0.6327,-0.0151,-0.1275
917,0.0,0.0,0.0,0.0,0.0,0.0,0.1988,-0.9742,0.0874,0.7637,-0.6328,-0.0154,-0.1273
918,0.0,0.0,0.0,0.0,0.0,0.0,0.1983,-0.9890,0.0922,0.7638,-0.6326,-0.0152,-0.1272
919,0.0,0.0,0.0,0.0,0.0,0.0,0.2012,-0.9851,0.0929,0.7641,-0.6322,-0.0151,-0.1272
920,0.0,0.0,0.0,0.0,0.0,0.0,0.2008,-0.9802,0.0925,0.7644,-0.6318,-0.0150,-0.1274
921,0.0,0.0,0.0,0.0,0.0,0.0,0.1988,-0.9818,0.0963,0.7649,-0.6312,-0.0146,-0.1275
922,0.0,0.0,0.0,0.0,0.0,0.0,0.2023,-0.9816,0.1032,0.7653,-0.6307,-0.0147,-0.1276
923,0.0,0.0,0.0,0.0,0.0,0.0,0.2028,-0.9798,0.1081,0.7660,-0.6298,-0.0148,-0.1278
924,0.0,0.0,0.0,0.0,0.0,0.0,0.1989,-0.9778,0.1062,0.7666,-0.6291,-0.0149,-0.1278
925,0.0,0.0,0.0,0.0,0.0,0.0,0.1974,-0.9764,0.1091,0.7671,-0.6284,-0.0148,-0.1279
926,0.0,0.0,0.0,0.0,0.0,0.0,0.2131,-0.9669,0.1139,0.7678,-0.6276,-0.0151,-0.1281
927,0.0,0.0,0.0,0.0,0.0,0.0,0.2043,-0.9689,0.1157,0.7684,-0.6269,-0.0156,-0.1278
928,0.0,0.0,0.0,0.0,0.0,0.0,0.1979,-0.9852,0.1249,0.7696,-0.6255,-0.0150,-0.1275
929,0.0,0.0,0.0,0.0,0.0,0.0,0.2028,-0.9833,0.1235,0.7702,-0.6247,-0.0149,-0.1274
930,0.0,0.0,0.0,0.0,0.0,0.0,0.2063,-0.9656,0.1192,0.7705,-0.6244,-0.0152,-0.1271
931,0.0,0.0,0.0,0.0,0.0,0.0,0.2063,-0.9745,0.1218,0.7709,-0.6240,-0.0153,-0.1269
932,0.0,0.0,0.0,0.0,0.0,0.0,0.2092,-0.9878,0.1253,0.7711,-0.6238,-0.0157,-0.1268
933,0.0,0.0,0.0,0.0,0.0,0.0,0.2038,-0.9834,0.1254,0.7713,-0.6235,-0.0158,-0.1267
934,0.0,0.0,0.0,0.0,0.0,0.0,0.1999,-0.9804,0.1241,0.7719,-0.6228,-0.0151,-0.1267
935,0.0,0.0,0.0,0.0,0.0,0.0,0.2024,-0.9774,0.1222,0.7723,-0.6223,-0.0147,-0.1269
936,0.0,0.0,0.0,0.0,0.0,0.0,0.1985,-0.9754,0.1227,0.7726,-0.6219,-0.0143,-0.1270
937,0.0,0.0,0.0,0.0,0.0,0.0,0.1888,-0.9694,0.1205,0.7726,-0.6219,-0.0138,-0.1272
938,0.0,0.0,0.0,0.0,0.0,0.0,0.1912,-0.9744,0.1242,0.7726,-0.6219,-0.0136,-0.1269
939,0.0,0.0,0.0,0.0,0.0,0.0,0.1901,-0.9867,0.1277,0.7724,-0.6222,-0.0136,-0.1266
940,0.0,0.0,0.0,0.0,0.0,0.0,0.1823,-0.9821,0.1220,0.7724,-0.6223,-0.0132,-0.1265
941,0.0,0.0,0.0,0.0,0.0,0.0,0.1731,-0.9676,0.1146,0.7722,-0.6226,-0.0125,-0.1261
942,0.0,0.0,0.0,0.0,0.0,0.0,0.1672,-0.9831,0.1253,0.7724,-0.6225,-0.0114,-0.1256
943,0.0,0.0,0.0,0.0,0.0,0.0,0.1716,-0.9870,0.1262,0.7729,-0.6219,-0.0100,-0.1253
944,0.0,0.0,0.0,0.0,0.0,0.0,0.1751,-0.9782,0.1245,0.7732,-0.6217,-0.0090,-0.1251
945,0.0,0.0,0.0,0.0,0.0,0.0,0.1692,-0.9799,0.1312,0.7738,-0.6209,-0.0076,-0.1252
946,0.0,0.0,0.0,0.0,0.0,0.0,0.1692,-0.9793,0.1293,0.7742,-0.6204,-0.0070,-0.1252
947,0.0,0.0,0.0,0.0,0.0,0.0,0.1673,-0.9729,0.1280,0.7744,-0.6201,-0.0060,-0.1254
948,0.0,0.0,0.0,0.0,0.0,0.0,0.1830,-0.9584,0.1281,0.7751,-0.6192,-0.0051,-0.1259
949,0.0,0.0,0.0,0.0,0.0,0.0,0.1791,-0.9653,0.1303,0.7753,-0.6188,-0.0052,-0.1263
950,0.0,0.0,0.0,0.0,0.0,0.0,0.1790,-0.9748,0.1363,0.7755,-0.6184,-0.0053,-0.1266
951,0.0,0.0,0.0,0.0,0.0,0.0,0.1796,-0.9705,0.1393,0.7758,-0.6180,-0.0053,-0.1272
952,0.0,0.0,0.0,0.0,0.0,0.0,0.1786,-0.9749,0.1406,0.7758,-0.6179,-0.0058,-0.1278
953,0.0,0.0,0.0,0.0,0.0,0.0,0.1761,-0.9763,0.1401,0.7759,-0.6177,-0.0059,-0.1281
954,0.0,0.0,0.0,0.0,0.0,0.0,0.1796,-0.9645,0.1356,0.7757,-0.6179,-0.0063,-0.1282
955,0.0,0.0,0.0,0.0,0.0,0.0,0.1825,-0.9620,0.1318,0.7755,-0.6182,-0.0068,-0.1283
956,0.0,0.0,0.0,0.0,0.0,0.0,0.1834,-0.9678,0.1307,0.7753,-0.6183,-0.0072,-0.1284
957,0.0,0.0,0.0,0.0,0.0,0.0,0.1883,-0.9801,0.1332,0.7751,-0.6186,-0.0080,-0.1288
958,0.0,0.0,0.0,0.0,0.0,0.0,0.1843,-0.9800,0.1313,0.7748,-0.6188,-0.0087,-0.1289
959,0.0,0.0,0.0,0.0,0.0,0.0,0.1805,-0.9741,0.1319,0.7749,-0.6187,-0.0085,-0.1290
960,0.0,0.0,0.0,0.0,0.0,0.0,0.1921,-0.9866,0.1360,0.7752,-0.6183,-0.0086,-0.1293
961,0.0,0.0,0.0,0.0,0.0,0.0,0.1770,-0.9818,0.1273,0.7751,-0.6184,-0.0086,-0.1295
962,0.0,0.0,0.0,0.0,0.0,0.0,0.1956,-0.9617,0.1227,0.7750,-0.6184,-0.0087,-0.1298
963,0.0,0.0,0.0,0.0,0.0,0.0,0.1966,-0.9715,0.1233,0.7747,-0.6187,-0.0093,-0.1301
964,0.0,0.0,0.0,0.0,0.0,0.0,0.1892,-0.9779,0.1251,0.7742,-0.6192,-0.0101,-0.1306
965,0.0,0.0,0.0,0.0,0.0,0.0,0.1848,-0.9749,0.1237,0.7737,-0.6197,-0.0106,-0.1310
966,0.0,0.0,0.0,0.0,0.0,0.0,0.1867,-0.9848,0.1287,0.7736,-0.6198,-0.0106,-0.1314
967,0.0,0.0,0.0,0.0,0.0,0.0,0.1911,-0.9818,0.1254,0.7735,-0.6198,-0.0104,-0.1321
968,0.0,0.0,0.0,0.0,0.0,0.0,0.1937,-0.9542,0.1161,0.7731,-0.6202,-0.0109,-0.1324
969,0.0,0.0,0.0,0.0,0.0,0.0,0.1951,-0.9753,0.1213,0.7732,-0.6201,-0.0112,-0.1327
970,0.0,0.0,0.0,0.0,0.0,0.0,0.1940,-0.9976,0.1308,0.7730,-0.6202,-0.0117,-0.1329
971,0.0,0.0,0.0,0.0,0.0,0.0,0.1887,-0.9937,0.1323,0.7728,-0.6205,-0.0124,-0.1328
972,0.0,0.0,0.0,0.0,0.0,0.0,0.1921,-0.9824,0.1283,0.7729,-0.6203,-0.0124,-0.1329
973,0.0,0.0,0.0,0.0,0.0,0.0,0.2014,-0.9731,0.1267,0.7730,-0.6203,-0.0127,-0.1325
974,0.0,0.0,0.0,0.0,0.0,0.0,0.2000,-0.9796,0.1299,0.7730,-0.6204,-0.0132,-0.1318
975,0.0,0.0,0.0,0.0,0.0,0.0,0.1926,-0.9819,0.1293,0.7729,-0.6206,-0.0137,-0.1312
976,0.0,0.0,0.0,0.0,0.0,0.0,0.1946,-0.9736,0.1286,0.7726,-0.6212,-0.0142,-0.1303
977,0.0,0.0,0.0,0.0,0.0,0.0,0.1980,-0.9726,0.1262,0.7722,-0.6218,-0.0149,-0.1294
978,0.0,0.0,0.0,0.0,0.0,0.0,0.2000,-0.9711,0.1253,0.7719,-0.6225,-0.0156,-0.1284
979,0.0,0.0,0.0,0.0,0.0,0.0,0.1956,-0.9702,0.1263,0.7719,-0.6226,-0.0156,-0.1279
980,0.0,0.0,0.0,0.0,0.0,0.0,0.1966,-0.9612,0.1198,0.7718,-0.6228,-0.0154,-0.1275
981,0.0,0.0,0.0,0.0,0.0,0.0,0.2044,-0.9586,0.1141,0.7713,-0.6234,-0.0158,-0.1271
982,0.0,0.0,0.0,0.0,0.0,0.0,0.2019,-0.9658,0.1129,0.7708,-0.6240,-0.0161,-0.1270
983,0.0,0.0,0.0,0.0,0.0,0.0,0.1989,-0.9706,0.1108,0.7703,-0.6247,-0.0164,-0.1269
984,0.0,0.0,0.0,0.0,0.0,0.0,0.1984,-0.9805,0.1139,0.7696,-0.6257,-0.0168,-0.1267
985,0.0,0.0,0.0,0.0,0.0,0.0,0.1955,-0.9832,0.1099,0.7688,-0.6266,-0.0174,-0.1264
986,0.0,0.0,0.0,0.0,0.0,0.0,0.1857,-0.9854,0.1059,0.7680,-0.6276,-0.0175,-0.1263
987,0.0,0.0,0.0,0.0,0.0,0.0,0.1939,-0.9875,0.1058,0.7674,-0.6284,-0.0176,-0.1263
988,0.0,0.0,0.0,0.0,0.0,0.0,0.1881,-0.9844,0.1025,0.7668,-0.6291,-0.0177,-0.1263
989,0.0,0.0,0.0,0.0,0.0,0.0,0.1852,-0.9779,0.1003,0.7663,-0.6297,-0.0176,-0.1264
990,0.0,0.0,0.0,0.0,0.0,0.0,0.1837,-0.9799,0.1022,0.7660,-0.6300,-0.0176,-0.1268
991,0.0,0.0,0.0,0.0,0.0,0.0,0.1822,-0.9848,0.1035,0.7656,-0.6304,-0.0179,-0.1271
992,0.0,0.0,0.0,0.0,0.0,0.0,0.1798,-0.9848,0.1025,0.7653,-0.6307,-0.0181,-0.1274
993,0.0,0.0,0.0,0.0,0.0,0.0,0.1784,-0.9755,0.1033,0.7648,-0.6312,-0.0187,-0.1274
994,0.0,0.0,0.0,0.0,0.0,0.0,0.1789,-0.9800,0.1051,0.7645,-0.6317,-0.0192,-0.1272
995,0.0,0.0,0.0,0.0,0.0,0.0,0.1818,-0.9860,0.1073,0.7642,-0.6321,-0.0198,-0.1268
996,0.0,0.0,0.0,0.0,0.0,0.0,0.1916,-0.9817,0.1089,0.7640,-0.6324,-0.0208,-0.1264
997,0.0,0.0,0.0,0.0,0.0,0.0,0.1827,-0.9828,0.1021,0.7641,-0.6324,-0.0212,-0.1260
998,0.0,0.0,0.0,0.0,0.0,0.0,0.1945,-0.9741,0.1004,0.7639,-0.6326,-0.0220,-0.1256
999,0.0,0.0,0.0,0.0,0.0,0.0,0.1960,-0.9752,0.1028,0.7640,-0.6326,-0.0228,-0.1253
1000,0.0,0.0,0.0,0.0,0.0,0.0,0.1881,-0.9928,0.1076,0.7645,-0.6319,-0.0225,-0.1250
1001,0.0,0.0,0.0,0.0,0.0,0.0,0.1861,-1.0058,0.1154,0.7652,-0.6313,-0.0221,-0.1244
1002,0.0,0.0,0.0,0.0,0.0,0.0,0.1870,-1.0137,0.1191,0.7661,-0.6303,-0.0211,-0.1238
1003,0.0,0.0,0.0,0.0,0.0,0.0,0.1949,-0.9921,0.1125,0.7671,-0.6293,-0.0201,-0.1235
1004,0.0,0.0,0.0,0.0,0.0,0.0,0.2048,-0.9605,0.1009,0.7675,-0.6287,-0.0198,-0.1233
1005,0.0,0.0,0.0,0.0,0.0,0.0,0.1979,-0.9808,0.1085,0.7683,-0.6279,-0.0193,-0.1229
1006,0.0,0.0,0.0,0.0,0.0,0.0,0.1900,-1.0005,0.1171,0.7692,-0.6269,-0.0187,-0.1225
1007,0.0,0.0,0.0,0.0,0.0,0.0,0.1759,-0.9927,0.1207,0.7695,-0.6266,-0.0184,-0.1219
1008,0.0,0.0,0.0,0.0,0.0,0.0,0.1721,-0.9760,0.1187,0.7698,-0.6265,-0.0176,-0.1212
1009,0.0,0.0,0.0,0.0,0.0,0.0,0.1800,-0.9613,0.1149,0.7704,-0.6258,-0.0168,-0.1208
1010,0.0,0.0,0.0,0.0,0.0,0.0,0.1761,-0.9673,0.1190,0.7708,-0.6254,-0.0163,-0.1201
1011,0.0,0.0,0.0,0.0,0.0,0.0,0.1741,-0.9718,0.1237,0.7709,-0.6254,-0.0163,-0.1196
1012,0.0,0.0,0.0,0.0,0.0,0.0,0.1805,-0.9676,0.1253,0.7713,-0.6250,-0.0164,-0.1191
1013,0.0,0.0,0.0,0.0,0.0,0.0,0.1648,-0.9723,0.1237,0.7717,-0.6246,-0.0157,-0.1188
1014,0.0,0.0,0.0,0.0,0.0,0.0,0.1785,-0.9745,0.1280,0.7722,-0.6240,-0.0151,-0.1188
1015,0.0,0.0,0.0,0.0,0.0,0.0,0.1809,-0.9763,0.1246,0.7727,-0.6234,-0.0148,-0.1188
1016,0.0,0.0,0.0,0.0,0.0,0.0,0.1795,-0.9734,0.1252,0.7727,-0.6233,-0.0148,-0.1189
1017,0.0,0.0,0.0,0.0,0.0,0.0,0.1804,-0.9784,0.1269,0.7729,-0.6231,-0.0148,-0.1190
1018,0.0,0.0,0.0,0.0,0.0,0.0,0.1829,-0.9798,0.1259,0.7730,-0.6230,-0.0148,-0.1191
1019,0.0,0.0,0.0,0.0,0.0,0.0,0.1834,-0.9744,0.1251,0.7730,-0.6229,-0.0151,-0.1195
1020,0.0,0.0,0.0,0.0,0.0,0.0,0.1824,-0.9799,0.1284,0.7731,-0.6227,-0.0150,-0.1199
1021,0.0,0.0,0.0,0.0,0.0,0.0,0.1853,-0.9793,0.1265,0.7733,-0.6224,-0.0147,-0.1203
1022,0.0,0.0,0.0,0.0,0.0,0.0,0.1843,-0.9739,0.1232,0.7736,-0.6219,-0.0143,-0.1205
1023,0.0,0.0,0.0,0.0,0.0,0.0,0.1897,-0.9729,0.1223,0.7737,-0.6218,-0.0143,-0.1209
1024,0.0,0.0,0.0,0.0,0.0,0.0,0.1892,-0.9729,0.1213,0.7736,-0.6218,-0.0145,-0.1214
1025,0.0,0.0,0.0,0.0,0.0,0.0,0.1858,-0.9779,0.1260,0.7737,-0.6216,-0.0144,-0.1220
1026,0.0,0.0,0.0,0.0,0.0,0.0,0.1892,-0.9773,0.1231,0.7735,-0.6217,-0.0146,-0.1225
1027,0.0,0.0,0.0,0.0,0.0,0.0,0.1902,-0.9778,0.1231,0.7737,-0.6214,-0.0144,-0.1229
1028,0.0,0.0,0.0,0.0,0.0,0.0,0.1907,-0.9759,0.1237,0.7742,-0.6206,-0.0136,-0.1236
1029,0.0,0.0,0.0,0.0,0.0,0.0,0.1922,-0.9724,0.1223,0.7747,-0.6199,-0.0130,-0.1243
1030,0.0,0.0,0.0,0.0,0.0,0.0,0.1946,-0.9714,0.1204,0.7744,-0.6201,-0.0136,-0.1248
1031,0.0,0.0,0.0,0.0,0.0,0.0,0.1902,-0.9734,0.1218,0.7739,-0.6207,-0.0146,-0.1251
1032,0.0,0.0,0.0,0.0,0.0,0.0,0.1946,-0.9789,0.1265,0.7738,-0.6206,-0.0151,-0.1257
1033,0.0,0.0,0.0,0.0,0.0,0.0,0.1936,-0.9823,0.1245,0.7737,-0.6206,-0.0157,-0.1260
1034,0.0,0.0,0.0,0.0,0.0,0.0,0.1956,-0.9780,0.1261,0.7735,-0.6209,-0.0162,-0.1259
1035,0.0,0.0,0.0,0.0,0.0,0.0,0.2004,-0.9824,0.1279,0.7733,-0.6212,-0.0168,-0.1259
1036,0.0,0.0,0.0,0.0,0.0,0.0,0.2029,-0.9804,0.1255,0.7734,-0.6211,-0.0171,-0.1259
1037,0.0,0.0,0.0,0.0,0.0,0.0,0.2038,-0.9784,0.1217,0.7735,-0.6209,-0.0174,-0.1259
1038,0.0,0.0,0.0,0.0,0.0,0.0,0.2068,-0.9769,0.1213,0.7735,-0.6210,-0.0176,-0.1258
1039,0.0,0.0,0.0,0.0,0.0,0.0,0.2097,-0.9690,0.1186,0.7732,-0.6213,-0.0181,-0.1259
1040,0.0,0.0,0.0,0.0,0.0,0.0,0.2122,-0.9661,0.1168,0.7727,-0.6219,-0.0191,-0.1260
1041,0.0,0.0,0.0,0.0,0.0,0.0,0.1925,-0.9951,0.1274,0.7726,-0.6220,-0.0193,-0.1260
1042,0.0,0.0,0.0,0.0,0.0,0.0,0.1749,-1.0037,0.1290,0.7726,-0.6220,-0.0185,-0.1261
1043,0.0,0.0,0.0,0.0,0.0,0.0,0.1809,-0.9771,0.1197,0.7725,-0.6222,-0.0177,-0.1259
1044,0.0,0.0,0.0,0.0,0.0,0.0,0.1887,-0.9678,0.1166,0.7726,-0.6220,-0.0169,-0.1258
1045,0.0,0.0,0.0,0.0,0.0,0.0,0.1872,-0.9752,0.1179,0.7728,-0.6218,-0.0163,-0.1258
1046,0.0,0.0,0.0,0.0,0.0,0.0,0.1829,-0.9762,0.1212,0.7729,-0.6217,-0.0160,-0.1259
1047,0.0,0.0,0.0,0.0,0.0,0.0,0.1775,-0.9822,0.1254,0.7732,-0.6213,-0.0154,-0.1258
1048,0.0,0.0,0.0,0.0,0.0,0.0,0.1760,-0.9822,0.1268,0.7734,-0.6211,-0.0150,-0.1258
1049,0.0,0.0,0.0,0.0,0.0,0.0,0.1809,-0.9729,0.1237,0.7736,-0.6209,-0.0149,-0.1257
1050,0.0,0.0,0.0,0.0,0.0,0.0,0.1814,-0.9739,0.1247,0.7742,-0.6202,-0.0145,-0.1253
1051,0.0,0.0,0.0,0.0,0.0,0.0,0.1892,-0.9746,0.1290,0.7745,-0.6200,-0.0149,-0.1248
1052,0.0,0.0,0.0,0.0,0.0,0.0,0.1819,-0.9799,0.1279,0.7743,-0.6204,-0.0160,-0.1238
1053,0.0,0.0,0.0,0.0,0.0,0.0,0.1868,-0.9750,0.1285,0.7744,-0.6204,-0.0165,-0.1232
1054,0.0,0.0,0.0,0.0,0.0,0.0,0.1966,-0.9707,0.1282,0.7748,-0.6200,-0.0171,-0.1226
1055,0.0,0.0,0.0,0.0,0.0,0.0,0.1966,-0.9756,0.1276,0.7747,-0.6202,-0.0184,-0.1218
1056,0.0,0.0,0.0,0.0,0.0,0.0,0.2000,-0.9736,0.1267,0.7745,-0.6206,-0.0200,-0.1210
1057,0.0,0.0,0.0,0.0,0.0,0.0,0.2044,-0.9697,0.1244,0.7740,-0.6213,-0.0216,-0.1202
1058,0.0,0.0,0.0,0.0,0.0,0.0,0.2063,-0.9701,0.1229,0.7734,-0.6221,-0.0235,-0.1195
1059,0.0,0.0,0.0,0.0,0.0,0.0,0.2009,-0.9760,0.1247,0.7729,-0.6228,-0.0249,-0.1190
1060,0.0,0.0,0.0,0.0,0.0,0.0,0.2004,-0.9754,0.1208,0.7725,-0.6234,-0.0260,-0.1183
1061,0.0,0.0,0.0,0.0,0.0,0.0,0.1955,-0.9763,0.1212,0.7718,-0.6244,-0.0271,-0.1175
1062,0.0,0.0,0.0,0.0,0.0,0.0,0.1960,-0.9812,0.1221,0.7712,-0.6251,-0.0279,-0.1170
1063,0.0,0.0,0.0,0.0,0.0,0.0,0.1882,-0.9849,0.1166,0.7707,-0.6258,-0.0284,-0.1165
1064,0.0,0.0,0.0,0.0,0.0,0.0,0.1960,-0.9786,0.1173,0.7701,-0.6266,-0.0290,-0.1161
1065,0.0,0.0,0.0,0.0,0.0,0.0,0.2048,-0.9758,0.1179,0.7697,-0.6271,-0.0297,-0.1159
1066,0.0,0.0,0.0,0.0,0.0,0.0,0.1931,-0.9704,0.1064,0.7689,-0.6281,-0.0306,-0.1155
1067,0.0,0.0,0.0,0.0,0.0,0.0,0.1916,-0.9699,0.1054,0.7683,-0.6288,-0.0309,-0.1155
1068,0.0,0.0,0.0,0.0,0.0,0.0,0.1960,-0.9742,0.1034,0.7680,-0.6292,-0.0308,-0.1155
1069,0.0,0.0,0.0,0.0,0.0,0.0,0.1881,-0.9801,0.1061,0.7675,-0.6297,-0.0308,-0.1157
1070,0.0,0.0,0.0,0.0,0.0,0.0,0.1886,-0.9741,0.1029,0.7674,-0.6298,-0.0302,-0.1161
1071,0.0,0.0,0.0,0.0,0.0,0.0,0.1901,-0.9646,0.0959,0.7672,-0.6301,-0.0298,-0.1165
1072,0.0,0.0,0.0,0.0,0.0,0.0,0.1931,-0.9586,0.0907,0.7668,-0.6305,-0.0295,-0.1171
1073,0.0,0.0,0.0,0.0,0.0,0.0,0.1950,-0.9621,0.0916,0.7663,-0.6309,-0.0295,-0.1179
1074,0.0,0.0,0.0,0.0,0.0,0.0,0.1930,-0.9747,0.0907,0.7653,-0.6319,-0.0299,-0.1185
1075,0.0,0.0,0.0,0.0,0.0,0.0,0.1969,-0.9787,0.0906,0.7647,-0.6324,-0.0297,-0.1197
1076,0.0,0.0,0.0,0.0,0.0,0.0,0.1983,-0.9819,0.0988,0.7644,-0.6326,-0.0295,-0.1212
1077,0.0,0.0,0.0,0.0,0.0,0.0,0.1992,-1.0027,0.1088,0.7646,-0.6320,-0.0283,-0.1228
1078,0.0,0.0,0.0,0.0,0.0,0.0,0.2081,-0.9810,0.0998,0.7649,-0.6314,-0.0272,-0.1243
1079,0.0,0.0,0.0,0.0,0.0,0.0,0.2208,-0.9677,0.0930,0.7649,-0.6312,-0.0270,-0.1254
1080,0.0,0.0,0.0,0.0,0.0,0.0,0.2193,-0.9769,0.0922,0.7651,-0.6308,-0.0264,-0.1267
1081,0.0,0.0,0.0,0.0,0.0,0.0,0.2203,-0.9794,0.0931,0.7650,-0.6307,-0.0261,-0.1278
1082,0.0,0.0,0.0,0.0,0.0,0.0,0.2208,-0.9824,0.0945,0.7646,-0.6309,-0.0261,-0.1289
1083,0.0,0.0,0.0,0.0,0.0,0.0,0.2193,-0.9814,0.0955,0.7643,-0.6311,-0.0257,-0.1301
1084,0.0,0.0,0.0,0.0,0.0,0.0,0.2271,-0.9726,0.0914,0.7636,-0.6317,-0.0261,-0.1309
1085,0.0,0.0,0.0,0.0,0.0,0.0,0.2076,-0.9796,0.0872,0.7633,-0.6319,-0.0255,-0.1318
1086,0.0,0.0,0.0,0.0,0.0,0.0,0.2179,-0.9738,0.0860,0.7631,-0.6320,-0.0248,-0.1328
1087,0.0,0.0,0.0,0.0,0.0,0.0,0.2129,-0.9914,0.0898,0.7626,-0.6324,-0.0243,-0.1335
1088,0.0,0.0,0.0,0.0,0.0,0.0,0.2075,-0.9982,0.0891,0.7621,-0.6331,-0.0239,-0.1339
1089,0.0,0.0,0.0,0.0,0.0,0.0,0.2051,-0.9933,0.0892,0.7613,-0.6340,-0.0237,-0.1340
1090,0.0,0.0,0.0,0.0,0.0,0.0,0.1997,-1.0001,0.0909,0.7611,-0.6342,-0.0229,-0.1340
1091,0.0,0.0,0.0,0.0,0.0,0.0,0.2021,-0.9932,0.0877,0.7611,-0.6343,-0.0222,-0.1340
1092,0.0,0.0,0.0,0.0,0.0,0.0,0.2007,-0.9804,0.0847,0.7609,-0.6345,-0.0217,-0.1338
1093,0.0,0.0,0.0,0.0,0.0,0.0,0.1998,-0.9731,0.0855,0.7609,-0.6345,-0.0210,-0.1337
1094,0.0,0.0,0.0,0.0,0.0,0.0,0.2052,-0.9722,0.0855,0.7608,-0.6347,-0.0210,-0.1335
1095,0.0,0.0,0.0,0.0,0.0,0.0,0.2018,-0.9652,0.0828,0.7605,-0.6352,-0.0215,-0.1332
1096,0.0,0.0,0.0,0.0,0.0,0.0,0.1999,-0.9628,0.0843,0.7605,-0.6352,-0.0215,-0.1333
1097,0.0,0.0,0.0,0.0,0.0,0.0,0.2018,-0.9673,0.0857,0.7609,-0.6347,-0.0210,-0.1335
1098,0.0,0.0,0.0,0.0,0.0,0.0,0.2027,-0.9718,0.0884,0.7613,-0.6341,-0.0205,-0.1337
1099,0.0,0.0,0.0,0.0,0.0,0.0,0.2002,-0.9866,0.0947,0.7615,-0.6339,-0.0201,-0.1336
1100,0.0,0.0,0.0,0.0,0.0,0.0,0.2066,-0.9833,0.0958,0.7620,-0.6331,-0.0178,-0.1346
1101,0.0,0.0,0.0,0.0,0.0,0.0,0.2306,-0.9633,0.0912,0.7627,-0.6324,-0.0181,-0.1343
1102,0.0,0.0,0.0,0.0,0.0,0.0,0.2114,-0.9901,0.0942,0.7632,-0.6319,-0.0185,-0.1336
1103,0.0,0.0,0.0,0.0,0.0,0.0,0.2192,-0.9961,0.0955,0.7632,-0.6320,-0.0188,-0.1330
1104,0.0,0.0,0.0,0.0,0.0,0.0,0.2140,-0.9720,0.0904,0.7630,-0.6325,-0.0194,-0.1319
1105,0.0,0.0,0.0,0.0,0.0,0.0,0.2115,-0.9789,0.0931,0.7629,-0.6329,-0.0196,-0.1305
1106,0.0,0.0,0.0,0.0,0.0,0.0,0.2168,-0.9907,0.0966,0.7630,-0.6330,-0.0198,-0.1295
1107,0.0,0.0,0.0,0.0,0.0,0.0,0.2071,-0.9848,0.0973,0.7631,-0.6331,-0.0197,-0.1286
1108,0.0,0.0,0.0,0.0,0.0,0.0,0.2018,-0.9729,0.0932,0.7632,-0.6331,-0.0192,-0.1278
1109,0.0,0.0,0.0,0.0,0.0,0.0,0.2018,-0.9663,0.0857,0.7636,-0.6327,-0.0180,-0.1272
1110,0.0,0.0,0.0,0.0,0.0,0.0,0.2028,-0.9618,0.0824,0.7635,-0.6330,-0.0176,-0.1268
1111,0.0,0.0,0.0,0.0,0.0,0.0,0.2052,-0.9634,0.0863,0.7631,-0.6335,-0.0177,-0.1266
1112,0.0,0.0,0.0,0.0,0.0,0.0,0.2018,-0.9695,0.0929,0.7632,-0.6334,-0.0174,-0.1269
1113,0.0,0.0,0.0,0.0,0.0,0.0,0.1935,-0.9765,0.0984,0.7634,-0.6331,-0.0168,-0.1271
1114,0.0,0.0,0.0,0.0,0.0,0.0,0.1797,-0.9966,0.1065,0.7639,-0.6324,-0.0153,-0.1275
1115,0.0,0.0,0.0,0.0,0.0,0.0,0.1777,-1.0146,0.1195,0.7651,-0.6309,-0.0134,-0.1279
1116,0.0,0.0,0.0,0.0,0.0,0.0,0.1807,-1.0085,0.1241,0.7667,-0.6291,-0.0114,-0.1278
1117,0.0,0.0,0.0,0.0,0.0,0.0,0.1910,-0.9969,0.1254,0.7682,-0.6273,-0.0102,-0.1271
1118,0.0,0.0,0.0,0.0,0.0,0.0,0.2092,-0.9847,0.1210,0.7695,-0.6260,-0.0101,-0.1262
1119,0.0,0.0,0.0,0.0,0.0,0.0,0.1960,-0.9751,0.1135,0.7704,-0.6250,-0.0100,-0.1251
1120,0.0,0.0,0.0,0.0,0.0,0.0,0.1853,-0.9903,0.1314,0.7714,-0.6241,-0.0096,-0.1240
1121,0.0,0.0,0.0,0.0,0.0,0.0,0.1868,-0.9875,0.1344,0.7718,-0.6238,-0.0096,-0.1225
1122,0.0,0.0,0.0,0.0,0.0,0.0,0.1844,-0.9578,0.1247,0.7723,-0.6235,-0.0094,-0.1211
1123,0.0,0.0,0.0,0.0,0.0,0.0,0.1845,-0.9544,0.1248,0.7729,-0.6230,-0.0096,-0.1198
1124,0.0,0.0,0.0,0.0,0.0,0.0,0.1826,-0.9455,0.1222,0.7728,-0.6233,-0.0106,-0.1186
1125,0.0,0.0,0.0,0.0,0.0,0.0,0.1786,-0.9469,0.1211,0.7726,-0.6238,-0.0117,-0.1178
1126,0.0,0.0,0.0,0.0,0.0,0.0,0.1781,-0.9548,0.1228,0.7726,-0.6239,-0.0122,-0.1173
1127,0.0,0.0,0.0,0.0,0.0,0.0,0.1810,-0.9601,0.1217,0.7726,-0.6239,-0.0129,-0.1171
1128,0.0,0.0,0.0,0.0,0.0,0.0,0.1761,-0.9696,0.1287,0.7723,-0.6243,-0.0140,-0.1169
1129,0.0,0.0,0.0,0.0,0.0,0.0,0.1780,-0.9834,0.1311,0.7721,-0.6246,-0.0149,-0.1167
1130,0.0,0.0,0.0,0.0,0.0,0.0,0.1750,-0.9851,0.1257,0.7713,-0.6255,-0.0163,-0.1162
1131,0.0,0.0,0.0,0.0,0.0,0.0,0.1677,-0.9774,0.1172,0.7706,-0.6265,-0.0171,-0.1158
1132,0.0,0.0,0.0,0.0,0.0,0.0,0.1673,-0.9704,0.1136,0.7705,-0.6266,-0.0170,-0.1157
1133,0.0,0.0,0.0,0.0,0.0,0.0,0.1716,-0.9808,0.1157,0.7705,-0.6267,-0.0171,-0.1155
1134,0.0,0.0,0.0,0.0,0.0,0.0,0.1656,-0.9954,0.1147,0.7705,-0.6267,-0.0167,-0.1155
1135,0.0,0.0,0.0,0.0,0.0,0.0,0.1730,-0.9965,0.1186,0.7708,-0.6264,-0.0162,-0.1155
1136,0.0,0.0,0.0,0.0,0.0,0.0,0.1759,-1.0006,0.1233,0.7713,-0.6256,-0.0156,-0.1157
1137,0.0,0.0,0.0,0.0,0.0,0.0,0.1871,-0.9973,0.1230,0.7721,-0.6247,-0.0146,-0.1160
1138,0.0,0.0,0.0,0.0,0.0,0.0,0.2069,-0.9390,0.0987,0.7718,-0.6249,-0.0155,-0.1163
1139,0.0,0.0,0.0,0.0,0.0,0.0,0.1991,-0.9460,0.1043,0.7716,-0.6251,-0.0165,-0.1166
1140,0.0,0.0,0.0,0.0,0.0,0.0,0.1886,-0.9883,0.1170,0.7714,-0.6253,-0.0169,-0.1171
1141,0.0,0.0,0.0,0.0,0.0,0.0,0.1901,-0.9779,0.1124,0.7707,-0.6260,-0.0171,-0.1175
1142,0.0,0.0,0.0,0.0,0.0,0.0,0.1892,-0.9725,0.1126,0.7710,-0.6255,-0.0159,-0.1182
1143,0.0,0.0,0.0,0.0,0.0,0.0,0.1847,-0.9837,0.1113,0.7713,-0.6250,-0.0148,-0.1192
1144,0.0,0.0,0.0,0.0,0.0,0.0,0.1730,-0.9802,0.1133,0.7708,-0.6256,-0.0146,-0.1198
1145,0.0,0.0,0.0,0.0,0.0,0.0,0.1671,-0.9900,0.1144,0.7707,-0.6257,-0.0138,-0.1202
1146,0.0,0.0,0.0,0.0,0.0,0.0,0.1656,-0.9963,0.1137,0.7708,-0.6254,-0.0125,-0.1208
1147,0.0,0.0,0.0,0.0,0.0,0.0,0.1686,-0.9925,0.1153,0.7705,-0.6258,-0.0122,-0.1210
1148,0.0,0.0,0.0,0.0,0.0,0.0,0.1764,-0.9866,0.1126,0.7703,-0.6259,-0.0118,-0.1212
1149,0.0,0.0,0.0,0.0,0.0,0.0,0.1775,-0.9732,0.1072,0.7706,-0.6256,-0.0108,-0.1214
1150,0.0,0.0,0.0,0.0,0.0,0.0,0.1853,-0.9687,0.1025,0.7701,-0.6262,-0.0112,-0.1212
1151,0.0,0.0,0.0,0.0,0.0,0.0,0.1872,-0.9606,0.0926,0.7691,-0.6274,-0.0119,-0.1211
1152,0.0,0.0,0.0,0.0,0.0,0.0,0.1887,-0.9551,0.0879,0.7684,-0.6282,-0.0120,-0.1215
1153,0.0,0.0,0.0,0.0,0.0,0.0,0.1906,-0.9568,0.0821,0.7672,-0.6295,-0.0126,-0.1222
1154,0.0,0.0,0.0,0.0,0.0,0.0,0.1915,-0.9624,0.0751,0.7654,-0.6315,-0.0142,-0.1231
1155,0.0,0.0,0.0,0.0,0.0,0.0,0.1827,-0.9801,0.0803,0.7638,-0.6332,-0.0153,-0.1241
1156,0.0,0.0,0.0,0.0,0.0,0.0,0.1752,-1.0078,0.0915,0.7630,-0.6340,-0.0152,-0.1251
1157,0.0,0.0,0.0,0.0,0.0,0.0,0.1738,-1.0026,0.0830,0.7622,-0.6347,-0.0145,-0.1264
1158,0.0,0.0,0.0,0.0,0.0,0.0,0.1792,-0.9790,0.0765,0.7610,-0.6359,-0.0142,-0.1277
1159,0.0,0.0,0.0,0.0,0.0,0.0,0.1816,-0.9912,0.0780,0.7603,-0.6365,-0.0140,-0.1290
1160,0.0,0.0,0.0,0.0,0.0,0.0,0.1791,-1.0014,0.0772,0.7596,-0.6370,-0.0135,-0.1306
1161,0.0,0.0,0.0,0.0,0.0,0.0,0.1816,-0.9958,0.0813,0.7590,-0.6374,-0.0126,-0.1321
1162,0.0,0.0,0.0,0.0,0.0,0.0,0.1836,-0.9806,0.0793,0.7588,-0.6374,-0.0115,-0.1334
1163,0.0,0.0,0.0,0.0,0.0,0.0,0.1842,-0.9615,0.0785,0.7589,-0.6371,-0.0101,-0.1348
1164,0.0,0.0,0.0,0.0,0.0,0.0,0.1979,-0.9640,0.0760,0.7594,-0.6362,-0.0092,-0.1361
1165,0.0,0.0,0.0,0.0,0.0,0.0,0.2003,-0.9563,0.0661,0.7590,-0.6364,-0.0095,-0.1371
1166,0.0,0.0,0.0,0.0,0.0,0.0,0.2075,-0.9891,0.0811,0.7586,-0.6367,-0.0106,-0.1379
1167,0.0,0.0,0.0,0.0,0.0,0.0,0.2002,-0.9832,0.0793,0.7577,-0.6376,-0.0119,-0.1388
1168,0.0,0.0,0.0,0.0,0.0,0.0,0.2071,-0.9625,0.0727,0.7564,-0.6389,-0.0134,-0.1394
1169,0.0,0.0,0.0,0.0,0.0,0.0,0.2173,-0.9718,0.0705,0.7552,-0.6402,-0.0153,-0.1397
1170,0.0,0.0,0.0,0.0,0.0,0.0,0.2177,-0.9806,0.0707,0.7540,-0.6415,-0.0171,-0.1401
1171,0.0,0.0,0.0,0.0,0.0,0.0,0.2187,-0.9859,0.0706,0.7533,-0.6422,-0.0182,-0.1408
1172,0.0,0.0,0.0,0.0,0.0,0.0,0.2192,-0.9878,0.0691,0.7526,-0.6428,-0.0189,-0.1415
1173,0.0,0.0,0.0,0.0,0.0,0.0,0.2235,-0.9873,0.0676,0.7519,-0.6435,-0.0198,-0.1420
1174,0.0,0.0,0.0,0.0,0.0,0.0,0.2230,-0.9897,0.0676,0.7512,-0.6442,-0.0208,-0.1424
1175,0.0,0.0,0.0,0.0,0.0,0.0,0.2215,-0.9986,0.0697,0.7509,-0.6445,-0.0210,-0.1428
1176,0.0,0.0,0.0,0.0,0.0,0.0,0.2230,-0.9961,0.0678,0.7504,-0.6449,-0.0212,-0.1430
1177,0.0,0.0,0.0,0.0,0.0,0.0,0.2201,-0.9921,0.0660,0.7501,-0.6453,-0.0212,-0.1429
1178,0.0,0.0,0.0,0.0,0.0,0.0,0.2196,-1.0007,0.0745,0.7505,-0.6449,-0.0206,-0.1426
1179,0.0,0.0,0.0,0.0,0.0,0.0,0.2220,-0.9998,0.0755,0.7508,-0.6448,-0.0205,-0.1419
1180,0.0,0.0,0.0,0.0,0.0,0.0,0.2079,-0.9956,0.0712,0.7507,-0.6450,-0.0201,-0.1412
1181,0.0,0.0,0.0,0.0,0.0,0.0,0.2128,-0.9839,0.0711,0.7507,-0.6452,-0.0200,-0.1403
1182,0.0,0.0,0.0,0.0,0.0,0.0,0.2095,-0.9715,0.0652,0.7511,-0.6450,-0.0194,-0.1395
1183,0.0,0.0,0.0,0.0,0.0,0.0,0.2085,-0.9705,0.0657,0.7519,-0.6442,-0.0185,-0.1390
1184,0.0,0.0,0.0,0.0,0.0,0.0,0.2036,-0.9695,0.0662,0.7524,-0.6438,-0.0178,-0.1383
1185,0.0,0.0,0.0,0.0,0.0,0.0,0.2022,-0.9730,0.0690,0.7529,-0.6433,-0.0169,-0.1379
1186,0.0,0.0,0.0,0.0,0.0,0.0,0.2012,-0.9814,0.0706,0.7534,-0.6428,-0.0163,-0.1373
1187,0.0,0.0,0.0,0.0,0.0,0.0,0.2031,-0.9823,0.0697,0.7541,-0.6422,-0.0155,-0.1366
1188,0.0,0.0,0.0,0.0,0.0,0.0,0.2207,-0.9686,0.0638,0.7544,-0.6420,-0.0152,-0.1360
1189,0.0,0.0,0.0,0.0,0.0,0.0,0.2266,-0.9696,0.0638,0.7543,-0.6421,-0.0157,-0.1355
1190,0.0,0.0,0.0,0.0,0.0,0.0,0.2236,-0.9697,0.0658,0.7544,-0.6421,-0.0161,-0.1353
1191,0.0,0.0,0.0,0.0,0.0,0.0,0.2173,-0.9721,0.0676,0.7546,-0.6419,-0.0162,-0.1351
1192,0.0,0.0,0.0,0.0,0.0,0.0,0.2168,-0.9786,0.0723,0.7555,-0.6409,-0.0156,-0.1352
1193,0.0,0.0,0.0,0.0,0.0,0.0,0.2075,-0.9725,0.0666,0.7559,-0.6404,-0.0152,-0.1353
1194,0.0,0.0,0.0,0.0,0.0,0.0,0.2066,-0.9683,0.0716,0.7564,-0.6398,-0.0145,-0.1356
1195,0.0,0.0,0.0,0.0,0.0,0.0,0.2114,-0.9802,0.0761,0.7569,-0.6391,-0.0139,-0.1357
1196,0.0,0.0,0.0,0.0,0.0,0.0,0.2041,-0.9840,0.0740,0.7570,-0.6390,-0.0137,-0.1356
1197,0.0,0.0,0.0,0.0,0.0,0.0,0.1963,-0.9806,0.0770,0.7571,-0.6389,-0.0133,-0.1355
1198,0.0,0.0,0.0,0.0,0.0,0.0,0.1977,-0.9911,0.0849,0.7577,-0.6384,-0.0124,-0.1352
1199,0.0,0.0,0.0,0.0,0.0,0.0,0.2017,-0.9933,0.0897,0.7585,-0.6374,-0.0115,-0.1348
1200,0.0,0.0,0.0,0.0,0.0,0.0,0.1948,-0.9918,0.0916,0.7593,-0.6367,-0.0108,-0.1340
1201,0.0,0.0,0.0,0.0,0.0,0.0,0.1851,-0.9919,0.0950,0.7603,-0.6357,-0.0096,-0.1330
1202,0.0,0.0,0.0,0.0,0.0,0.0,0.1895,-0.9791,0.0920,0.7613,-0.6348,-0.0083,-0.1320
1203,0.0,0.0,0.0,0.0,0.0,0.0,0.1989,-0.9699,0.0904,0.7621,-0.6341,-0.0077,-0.1310
1204,0.0,0.0,0.0,0.0,0.0,0.0,0.2023,-0.9704,0.0919,0.7628,-0.6334,-0.0074,-0.1301
1205,0.0,0.0,0.0,0.0,0.0,0.0,0.2013,-0.9710,0.0928,0.7636,-0.6326,-0.0072,-0.1296
1206,0.0,0.0,0.0,0.0,0.0,0.0,0.2008,-0.9720,0.0952,0.7639,-0.6322,-0.0075,-0.1292
1207,0.0,0.0,0.0,0.0,0.0,0.0,0.2053,-0.9643,0.0964,0.7642,-0.6320,-0.0083,-0.1289
1208,0.0,0.0,0.0,0.0,0.0,0.0,0.1886,-0.9749,0.0970,0.7643,-0.6319,-0.0087,-0.1283
1209,0.0,0.0,0.0,0.0,0.0,0.0,0.2096,-0.9750,0.0951,0.7641,-0.6321,-0.0095,-0.1281
1210,0.0,0.0,0.0,0.0,0.0,0.0,0.2101,-0.9754,0.0927,0.7640,-0.6323,-0.0105,-0.1282
1211,0.0,0.0,0.0,0.0,0.0,0.0,0.2022,-0.9819,0.0978,0.7637,-0.6327,-0.0117,-0.1282
1212,0.0,0.0,0.0,0.0,0.0,0.0,0.2115,-0.9781,0.0994,0.7638,-0.6324,-0.0126,-0.1283
1213,0.0,0.0,0.0,0.0,0.0,0.0,0.2027,-0.9836,0.1046,0.7641,-0.6321,-0.0133,-0.1283
1214,0.0,0.0,0.0,0.0,0.0,0.0,0.1964,-0.9871,0.1083,0.7645,-0.6317,-0.0132,-0.1279
1215,0.0,0.0,0.0,0.0,0.0,0.0,0.2003,-0.9815,0.1027,0.7650,-0.6311,-0.0129,-0.1277
1216,0.0,0.0,0.0,0.0,0.0,0.0,0.2033,-0.9702,0.0972,0.7651,-0.6310,-0.0131,-0.1275
1217,0.0,0.0,0.0,0.0,0.0,0.0,0.2004,-0.9663,0.0993,0.7652,-0.6309,-0.0133,-0.1275
1218,0.0,0.0,0.0,0.0,0.0,0.0,0.1984,-0.9752,0.1033,0.7655,-0.6306,-0.0135,-0.1274
1219,0.0,0.0,0.0,0.0,0.0,0.0,0.1935,-0.9762,0.1047,0.7656,-0.6305,-0.0138,-0.1272
1220,0.0,0.0,0.0,0.0,0.0,0.0,0.1926,-0.9714,0.1059,0.7659,-0.6300,-0.0139,-0.1273
1221,0.0,0.0,0.0,0.0,0.0,0.0,0.1945,-0.9719,0.1078,0.7662,-0.6297,-0.0142,-0.1275
1222,0.0,0.0,0.0,0.0,0.0,0.0,0.1994,-0.9739,0.1082,0.7660,-0.6298,-0.0153,-0.1276
1223,0.0,0.0,0.0,0.0,0.0,0.0,0.1911,-0.9754,0.1096,0.7659,-0.6299,-0.0161,-0.1277
1224,0.0,0.0,0.0,0.0,0.0,0.0,0.1965,-0.9710,0.1083,0.7661,-0.6295,-0.0167,-0.1282
1225,0.0,0.0,0.0,0.0,0.0,0.0,0.2014,-0.9676,0.1080,0.7664,-0.6291,-0.0174,-0.1288
1226,0.0,0.0,0.0,0.0,0.0,0.0,0.1979,-0.9739,0.1082,0.7666,-0.6288,-0.0180,-0.1292
1227,0.0,0.0,0.0,0.0,0.0,0.0,0.2024,-0.9631,0.1052,0.7670,-0.6282,-0.0182,-0.1299
1228,0.0,0.0,0.0,0.0,0.0,0.0,0.2092,-0.9696,0.1084,0.7671,-0.6279,-0.0189,-0.1303
1229,0.0,0.0,0.0,0.0,0.0,0.0,0.2145,-0.9778,0.1048,0.7665,-0.6285,-0.0205,-0.1302
1230,0.0,0.0,0.0,0.0,0.0,0.0,0.2111,-0.9735,0.1078,0.7659,-0.6292,-0.0223,-0.1300
1231,0.0,0.0,0.0,0.0,0.0,0.0,0.2062,-0.9887,0.1117,0.7656,-0.6296,-0.0233,-0.1296
1232,0.0,0.0,0.0,0.0,0.0,0.0,0.1797,-1.0111,0.1143,0.7653,-0.6301,-0.0228,-0.1292
1233,0.0,0.0,0.0,0.0,0.0,0.0,0.2077,-0.9739,0.1049,0.7646,-0.6310,-0.0232,-0.1288
1234,0.0,0.0,0.0,0.0,0.0,0.0,0.2140,-0.9717,0.0982,0.7643,-0.6315,-0.0238,-0.1283
1235,0.0,0.0,0.0,0.0,0.0,0.0,0.2067,-0.9811,0.1017,0.7643,-0.6315,-0.0239,-0.1280
1236,0.0,0.0,0.0,0.0,0.0,0.0,0.2086,-0.9799,0.0969,0.7641,-0.6319,-0.0244,-0.1277
1237,0.0,0.0,0.0,0.0,0.0,0.0,0.2066,-0.9779,0.0941,0.7641,-0.6319,-0.0244,-0.1275
1238,0.0,0.0,0.0,0.0,0.0,0.0,0.2018,-0.9705,0.0933,0.7643,-0.6316,-0.0239,-0.1276
1239,0.0,0.0,0.0,0.0,0.0,0.0,0.1979,-0.9744,0.0932,0.7645,-0.6314,-0.0234,-0.1275
1240,0.0,0.0,0.0,0.0,0.0,0.0,0.1973,-0.9827,0.0944,0.7642,-0.6319,-0.0238,-0.1270
1241,0.0,0.0,0.0,0.0,0.0,0.0,0.1993,-0.9807,0.0920,0.7636,-0.6326,-0.0245,-0.1266
1242,0.0,0.0,0.0,0.0,0.0,0.0,0.1900,-0.9772,0.0921,0.7637,-0.6327,-0.0240,-0.1263
1243,0.0,0.0,0.0,0.0,0.0,0.0,0.1940,-0.9655,0.0915,0.7637,-0.6328,-0.0236,-0.1260
1244,0.0,0.0,0.0,0.0,0.0,0.0,0.2042,-0.9741,0.0971,0.7638,-0.6326,-0.0235,-0.1255
1245,0.0,0.0,0.0,0.0,0.0,0.0,0.1915,-0.9852,0.0981,0.7643,-0.6322,-0.0230,-0.1254
1246,0.0,0.0,0.0,0.0,0.0,0.0,0.1778,-0.9866,0.0985,0.7646,-0.6319,-0.0224,-0.1250
1247,0.0,0.0,0.0,0.0,0.0,0.0,0.1934,-0.9873,0.1020,0.7645,-0.6322,-0.0222,-0.1243
1248,0.0,0.0,0.0,0.0,0.0,0.0,0.2105,-0.9835,0.1012,0.7646,-0.6321,-0.0223,-0.1238
1249,0.0,0.0,0.0,0.0,0.0,0.0,0.2042,-0.9766,0.0985,0.7646,-0.6322,-0.0229,-0.1234
1250,0.0,0.0,0.0,0.0,0.0,0.0,0.2052,-0.9671,0.0934,0.7640,-0.6330,-0.0237,-0.1230
1251,0.0,0.0,0.0,0.0,0.0,0.0,0.2155,-0.9611,0.0878,0.7635,-0.6336,-0.0245,-0.1228
1252,0.0,0.0,0.0,0.0,0.0,0.0,0.2160,-0.9630,0.0844,0.7629,-0.6343,-0.0257,-0.1228
1253,0.0,0.0,0.0,0.0,0.0,0.0,0.2120,-0.9748,0.0893,0.7624,-0.6348,-0.0264,-0.1229
1254,0.0,0.0,0.0,0.0,0.0,0.0,0.2056,-0.9871,0.0933,0.7624,-0.6347,-0.0263,-0.1233
1255,0.0,0.0,0.0,0.0,0.0,0.0,0.1978,-0.9938,0.0911,0.7624,-0.6346,-0.0257,-0.1237
1256,0.0,0.0,0.0,0.0,0.0,0.0,0.1953,-0.9972,0.0924,0.7623,-0.6348,-0.0251,-0.1240
1257,0.0,0.0,0.0,0.0,0.0,0.0,0.1967,-1.0057,0.0980,0.7626,-0.6345,-0.0240,-0.1240
1258,0.0,0.0,0.0,0.0,0.0,0.0,0.1997,-1.0059,0.1009,0.7635,-0.6334,-0.0219,-0.1241
1259,0.0,0.0,0.0,0.0,0.0,0.0,0.1953,-1.0021,0.1049,0.7647,-0.6320,-0.0193,-0.1239
1260,0.0,0.0,0.0,0.0,0.0,0.0,0.2013,-0.9830,0.1031,0.7658,-0.6309,-0.0171,-0.1233
1261,0.0,0.0,0.0,0.0,0.0,0.0,0.1853,-0.9682,0.1011,0.7670,-0.6297,-0.0143,-0.1224
1262,0.0,0.0,0.0,0.0,0.0,0.0,0.1823,-0.9746,0.1043,0.7684,-0.6283,-0.0112,-0.1215
1263,0.0,0.0,0.0,0.0,0.0,0.0,0.1951,-0.9594,0.0995,0.7692,-0.6274,-0.0094,-0.1211
1264,0.0,0.0,0.0,0.0,0.0,0.0,0.1941,-0.9526,0.1006,0.7696,-0.6269,-0.0085,-0.1211
1265,0.0,0.0,0.0,0.0,0.0,0.0,0.1794,-0.9752,0.1081,0.7702,-0.6261,-0.0077,-0.1213
1266,0.0,0.0,0.0,0.0,0.0,0.0,0.1774,-0.9811,0.1099,0.7707,-0.6254,-0.0069,-0.1218
1267,0.0,0.0,0.0,0.0,0.0,0.0,0.1897,-0.9611,0.1057,0.7701,-0.6260,-0.0078,-0.1223
1268,0.0,0.0,0.0,0.0,0.0,0.0,0.1946,-0.9626,0.1047,0.7694,-0.6268,-0.0095,-0.1228
1269,0.0,0.0,0.0,0.0,0.0,0.0,0.1858,-0.9679,0.1069,0.7687,-0.6275,-0.0110,-0.1235
1270,0.0,0.0,0.0,0.0,0.0,0.0,0.1774,-0.9877,0.1169,0.7683,-0.6278,-0.0122,-0.1242
1271,0.0,0.0,0.0,0.0,0.0,0.0,0.1764,-0.9987,0.1248,0.7680,-0.6281,-0.0129,-0.1249
1272,0.0,0.0,0.0,0.0,0.0,0.0,0.1818,-0.9807,0.1118,0.7675,-0.6286,-0.0139,-0.1251
1273,0.0,0.0,0.0,0.0,0.0,0.0,0.1799,-0.9687,0.1030,0.7671,-0.6290,-0.0141,-0.1254
1274,0.0,0.0,0.0,0.0,0.0,0.0,0.1965,-0.9654,0.1017,0.7674,-0.6286,-0.0140,-0.1258
1275,0.0,0.0,0.0,0.0,0.0,0.0,0.1945,-0.9753,0.1067,0.7675,-0.6283,-0.0144,-0.1259
1276,0.0,0.0,0.0,0.0,0.0,0.0,0.1964,-0.9907,0.1145,0.7672,-0.6287,-0.0156,-0.1259
1277,0.0,0.0,0.0,0.0,0.0,0.0,0.1940,-0.9813,0.1094,0.7672,-0.6286,-0.0160,-0.1263
1278,0.0,0.0,0.0,0.0,0.0,0.0,0.1916,-0.9842,0.1118,0.7674,-0.6284,-0.0161,-0.1264
1279,0.0,0.0,0.0,0.0,0.0,0.0,0.1998,-0.9866,0.1074,0.7673,-0.6285,-0.0164,-0.1263
1280,0.0,0.0,0.0,0.0,0.0,0.0,0.2038,-0.9669,0.1022,0.7673,-0.6285,-0.0169,-0.1266
1281,0.0,0.0,0.0,0.0,0.0,0.0,0.1989,-0.9753,0.1063,0.7672,-0.6285,-0.0176,-0.1267
1282,0.0,0.0,0.0,0.0,0.0,0.0,0.2013,-0.9822,0.1065,0.7672,-0.6285,-0.0181,-0.1268
1283,0.0,0.0,0.0,0.0,0.0,0.0,0.1974,-0.9743,0.1053,0.7673,-0.6284,-0.0181,-0.1271
1284,0.0,0.0,0.0,0.0,0.0,0.0,0.1960,-0.9728,0.1058,0.7674,-0.6282,-0.0177,-0.1273
1285,0.0,0.0,0.0,0.0,0.0,0.0,0.2028,-0.9757,0.1033,0.7674,-0.6282,-0.0178,-0.1272
1286,0.0,0.0,0.0,0.0,0.0,0.0,0.2008,-0.9796,0.1037,0.7670,-0.6287,-0.0182,-0.1272
1287,0.0,0.0,0.0,0.0,0.0,0.0,0.2013,-0.9850,0.1026,0.7666,-0.6291,-0.0186,-0.1271
1288,0.0,0.0,0.0,0.0,0.0,0.0,0.1964,-0.9791,0.1022,0.7663,-0.6296,-0.0188,-0.1269
1289,0.0,0.0,0.0,0.0,0.0,0.0,0.1945,-0.9771,0.1023,0.7661,-0.6298,-0.0186,-0.1267
1290,0.0,0.0,0.0,0.0,0.0,0.0,0.1969,-0.9805,0.1012,0.7663,-0.6296,-0.0180,-0.1269
1291,0.0,0.0,0.0,0.0,0.0,0.0,0.1994,-0.9758,0.1048,0.7667,-0.6290,-0.0174,-0.1274
1292,0.0,0.0,0.0,0.0,0.0,0.0,0.1837,-0.9829,0.1035,0.7672,-0.6285,-0.0168,-0.1273
1293,0.0,0.0,0.0,0.0,0.0,0.0,0.1891,-0.9850,0.1069,0.7671,-0.6285,-0.0165,-0.1274
1294,0.0,0.0,0.0,0.0,0.0,0.0,0.1886,-0.9817,0.1104,0.7673,-0.6282,-0.0161,-0.1277
1295,0.0,0.0,0.0,0.0,0.0,0.0,0.1842,-0.9870,0.1097,0.7678,-0.6276,-0.0154,-0.1279
1296,0.0,0.0,0.0,0.0,0.0,0.0,0.1887,-0.9753,0.1077,0.7679,-0.6275,-0.0151,-0.1280
1297,0.0,0.0,0.0,0.0,0.0,0.0,0.1882,-0.9818,0.1123,0.7683,-0.6270,-0.0146,-0.1279
1298,0.0,0.0,0.0,0.0,0.0,0.0,0.1906,-0.9877,0.1136,0.7690,-0.6262,-0.0138,-0.1279
1299,0.0,0.0,0.0,0.0,0.0,0.0,0.1935,-0.9763,0.1062,0.7695,-0.6256,-0.0133,-0.1276
1300,0.0,0.0,0.0,0.0,0.0,0.0,0.1916,-0.9729,0.1073,0.7699,-0.6252,-0.0128,-0.1273
1301,0.0,0.0,0.0,0.0,0.0,0.0,0.2027,-0.9923,0.1150,0.7703,-0.6248,-0.0126,-0.1271
1302,0.0,0.0,0.0,0.0,0.0,0.0,0.2018,-0.9883,0.1136,0.7704,-0.6247,-0.0129,-0.1270
1303,0.0,0.0,0.0,0.0,0.0,0.0,0.1935,-0.9785,0.1134,0.7704,-0.6248,-0.0133,-0.1265
1304,0.0,0.0,0.0,0.0,0.0,0.0,0.1926,-0.9795,0.1158,0.7706,-0.6246,-0.0131,-0.1262
1305,0.0,0.0,0.0,0.0,0.0,0.0,0.1969,-0.9809,0.1138,0.7708,-0.6243,-0.0128,-0.1259
1306,0.0,0.0,0.0,0.0,0.0,0.0,0.1911,-0.9788,0.1110,0.7710,-0.6242,-0.0127,-0.1256
1307,0.0,0.0,0.0,0.0,0.0,0.0,0.1887,-0.9807,0.1235,0.7713,-0.6239,-0.0129,-0.1253
1308,0.0,0.0,0.0,0.0,0.0,0.0,0.1897,-0.9867,0.1277,0.7719,-0.6232,-0.0128,-0.1251
1309,0.0,0.0,0.0,0.0,0.0,0.0,0.1941,-0.9725,0.1248,0.7723,-0.6227,-0.0129,-0.1248
1310,0.0,0.0,0.0,0.0,0.0,0.0,0.1947,-0.9602,0.1213,0.7729,-0.6221,-0.0127,-0.1243
1311,0.0,0.0,0.0,0.0,0.0,0.0,0.1751,-0.9714,0.1238,0.7732,-0.6219,-0.0123,-0.1238
1312,0.0,0.0,0.0,0.0,0.0,0.0,0.1892,-0.9726,0.1267,0.7733,-0.6219,-0.0122,-0.1232
1313,0.0,0.0,0.0,0.0,0.0,0.0,0.1819,-0.9680,0.1239,0.7736,-0.6216,-0.0117,-0.1228
1314,0.0,0.0,0.0,0.0,0.0,0.0,0.1815,-0.9641,0.1245,0.7733,-0.6220,-0.0119,-0.1226
1315,0.0,0.0,0.0,0.0,0.0,0.0,0.1814,-0.9709,0.1238,0.7729,-0.6225,-0.0122,-0.1222
1316,0.0,0.0,0.0,0.0,0.0,0.0,0.1760,-0.9757,0.1222,0.7725,-0.6231,-0.0124,-0.1218
1317,0.0,0.0,0.0,0.0,0.0,0.0,0.1760,-0.9781,0.1201,0.7722,-0.6236,-0.0125,-0.1214
1318,0.0,0.0,0.0,0.0,0.0,0.0,0.1765,-0.9855,0.1219,0.7721,-0.6238,-0.0123,-0.1209
1319,0.0,0.0,0.0,0.0,0.0,0.0,0.1745,-0.9865,0.1238,0.7716,-0.6245,-0.0131,-0.1205
1320,0.0,0.0,0.0,0.0,0.0,0.0,0.1716,-0.9795,0.1201,0.7711,-0.6251,-0.0138,-0.1200
1321,0.0,0.0,0.0,0.0,0.0,0.0,0.1687,-0.9818,0.1166,0.7708,-0.6255,-0.0142,-0.1197
1322,0.0,0.0,0.0,0.0,0.0,0.0,0.1721,-0.9847,0.1160,0.7706,-0.6259,-0.0146,-0.1194
1323,0.0,0.0,0.0,0.0,0.0,0.0,0.1721,-0.9868,0.1189,0.7706,-0.6259,-0.0148,-0.1191
1324,0.0,0.0,0.0,0.0,0.0,0.0,0.1735,-0.9829,0.1180,0.7707,-0.6258,-0.0147,-0.1189
1325,0.0,0.0,0.0,0.0,0.0,0.0,0.1716,-0.9730,0.1154,0.7712,-0.6253,-0.0143,-0.1189
1326,0.0,0.0,0.0,0.0,0.0,0.0,0.1711,-0.9785,0.1206,0.7719,-0.6244,-0.0139,-0.1188
1327,0.0,0.0,0.0,0.0,0.0,0.0,0.1819,-0.9736,0.1164,0.7727,-0.6234,-0.0137,-0.1188
1328,0.0,0.0,0.0,0.0,0.0,0.0,0.1779,-0.9860,0.1218,0.7731,-0.6229,-0.0141,-0.1188
1329,0.0,0.0,0.0,0.0,0.0,0.0,0.1834,-0.9734,0.1232,0.7731,-0.6230,-0.0155,-0.1185
1330,0.0,0.0,0.0,0.0,0.0,0.0,0.1887,-0.9823,0.1259,0.7731,-0.6230,-0.0168,-0.1182
1331,0.0,0.0,0.0,0.0,0.0,0.0,0.1941,-0.9773,0.1207,0.7735,-0.6224,-0.0177,-0.1184
1332,0.0,0.0,0.0,0.0,0.0,0.0,0.1932,-0.9675,0.1215,0.7738,-0.6220,-0.0189,-0.1185
1333,0.0,0.0,0.0,0.0,0.0,0.0,0.1956,-0.9765,0.1251,0.7735,-0.6223,-0.0203,-0.1185
1334,0.0,0.0,0.0,0.0,0.0,0.0,0.2044,-0.9691,0.1230,0.7734,-0.6224,-0.0217,-0.1187
1335,0.0,0.0,0.0,0.0,0.0,0.0,0.2000,-0.9672,0.1250,0.7732,-0.6224,-0.0231,-0.1191
1336,0.0,0.0,0.0,0.0,0.0,0.0,0.2083,-0.9667,0.1231,0.7729,-0.6226,-0.0246,-0.1197
1337,0.0,0.0,0.0,0.0,0.0,0.0,0.2074,-0.9583,0.1190,0.7723,-0.6232,-0.0266,-0.1201
1338,0.0,0.0,0.0,0.0,0.0,0.0,0.2039,-0.9648,0.1236,0.7721,-0.6233,-0.0279,-0.1210
1339,0.0,0.0,0.0,0.0,0.0,0.0,0.2190,-0.9718,0.1249,0.7721,-0.6230,-0.0291,-0.1220
1340,0.0,0.0,0.0,0.0,0.0,0.0,0.2038,-0.9754,0.1223,0.7718,-0.6232,-0.0303,-0.1227
1341,0.0,0.0,0.0,0.0,0.0,0.0,0.2058,-0.9770,0.1252,0.7715,-0.6233,-0.0311,-0.1235
1342,0.0,0.0,0.0,0.0,0.0,0.0,0.2102,-0.9731,0.1238,0.7712,-0.6236,-0.0319,-0.1242
1343,0.0,0.0,0.0,0.0,0.0,0.0,0.2083,-0.9736,0.1248,0.7710,-0.6237,-0.0324,-0.1248
1344,0.0,0.0,0.0,0.0,0.0,0.0,0.2003,-0.9957,0.1294,0.7710,-0.6236,-0.0324,-0.1252
1345,0.0,0.0,0.0,0.0,0.0,0.0,0.1969,-1.0085,0.1329,0.7711,-0.6235,-0.0318,-0.1251
1346,0.0,0.0,0.0,0.0,0.0,0.0,0.2081,-1.0033,0.1350,0.7718,-0.6227,-0.0304,-0.1251
1347,0.0,0.0,0.0,0.0,0.0,0.0,0.2253,-0.9821,0.1251,0.7722,-0.6223,-0.0300,-0.1246
1348,0.0,0.0,0.0,0.0,0.0,0.0,0.2249,-0.9663,0.1202,0.7723,-0.6223,-0.0302,-0.1239
1349,0.0,0.0,0.0,0.0,0.0,0.0,0.2322,-0.9629,0.1199,0.7727,-0.6219,-0.0300,-0.1234
1350,0.0,0.0,0.0,0.0,0.0,0.0,0.2283,-0.9742,0.1234,0.7729,-0.6218,-0.0298,-0.1228
1351,0.0,0.0,0.0,0.0,0.0,0.0,0.2244,-0.9682,0.1207,0.7728,-0.6221,-0.0298,-0.1224
1352,0.0,0.0,0.0,0.0,0.0,0.0,0.2235,-0.9521,0.1207,0.7724,-0.6226,-0.0301,-0.1222
1353,0.0,0.0,0.0,0.0,0.0,0.0,0.2093,-0.9463,0.1111,0.7719,-0.6232,-0.0299,-0.1222
1354,0.0,0.0,0.0,0.0,0.0,0.0,0.2137,-0.9438,0.1078,0.7713,-0.6238,-0.0294,-0.1231
1355,0.0,0.0,0.0,0.0,0.0,0.0,0.2078,-0.9580,0.1107,0.7702,-0.6249,-0.0295,-0.1240
1356,0.0,0.0,0.0,0.0,0.0,0.0,0.1990,-0.9702,0.1118,0.7693,-0.6259,-0.0293,-0.1248
1357,0.0,0.0,0.0,0.0,0.0,0.0,0.1901,-0.9809,0.1143,0.7688,-0.6263,-0.0285,-0.1257
1358,0.0,0.0,0.0,0.0,0.0,0.0,0.1852,-0.9878,0.1160,0.7680,-0.6272,-0.0278,-0.1264
1359,0.0,0.0,0.0,0.0,0.0,0.0,0.1808,-0.9911,0.1154,0.7671,-0.6282,-0.0274,-0.1270
1360,0.0,0.0,0.0,0.0,0.0,0.0,0.1852,-0.9951,0.1158,0.7670,-0.6283,-0.0265,-0.1274
1361,0.0,0.0,0.0,0.0,0.0,0.0,0.1920,-0.9989,0.1118,0.7667,-0.6286,-0.0259,-0.1276
1362,0.0,0.0,0.0,0.0,0.0,0.0,0.1862,-0.9836,0.1084,0.7664,-0.6291,-0.0258,-0.1275
1363,0.0,0.0,0.0,0.0,0.0,0.0,0.1847,-0.9803,0.1109,0.7663,-0.6293,-0.0257,-0.1271
1364,0.0,0.0,0.0,0.0,0.0,0.0,0.1906,-0.9897,0.1140,0.7659,-0.6298,-0.0260,-0.1268
1365,0.0,0.0,0.0,0.0,0.0,0.0,0.1940,-0.9834,0.1137,0.7658,-0.6300,-0.0263,-0.1267
1366,0.0,0.0,0.0,0.0,0.0,0.0,0.1872,-0.9820,0.1172,0.7661,-0.6297,-0.0264,-0.1264
1367,0.0,0.0,0.0,0.0,0.0,0.0,0.1882,-0.9790,0.1168,0.7664,-0.6293,-0.0263,-0.1261
1368,0.0,0.0,0.0,0.0,0.0,0.0,0.1921,-0.9711,0.1117,0.7666,-0.6291,-0.0262,-0.1260
1369,0.0,0.0,0.0,0.0,0.0,0.0,0.1917,-0.9656,0.1094,0.7666,-0.6291,-0.0263,-0.1259
1370,0.0,0.0,0.0,0.0,0.0,0.0,0.1956,-0.9657,0.1099,0.7672,-0.6284,-0.0259,-0.1260
1371,0.0,0.0,0.0,0.0,0.0,0.0,0.2004,-0.9790,0.1129,0.7675,-0.6280,-0.0261,-0.1259
1372,0.0,0.0,0.0,0.0,0.0,0.0,0.2048,-0.9791,0.1149,0.7674,-0.6281,-0.0270,-0.1258
1373,0.0,0.0,0.0,0.0,0.0,0.0,0.2043,-0.9702,0.1127,0.7677,-0.6277,-0.0270,-0.1261
1374,0.0,0.0,0.0,0.0,0.0,0.0,0.2004,-0.9668,0.1119,0.7679,-0.6274,-0.0268,-0.1264
1375,0.0,0.0,0.0,0.0,0.0,0.0,0.2083,-0.9638,0.1096,0.7681,-0.6271,-0.0266,-0.1267
1376,0.0,0.0,0.0,0.0,0.0,0.0,0.2171,-0.9574,0.1045,0.7679,-0.6273,-0.0271,-0.1268
1377,0.0,0.0,0.0,0.0,0.0,0.0,0.2219,-0.9593,0.1020,0.7677,-0.6275,-0.0278,-0.1271
1378,0.0,0.0,0.0,0.0,0.0,0.0,0.2272,-0.9636,0.1004,0.7677,-0.6272,-0.0282,-0.1279
1379,0.0,0.0,0.0,0.0,0.0,0.0,0.2277,-0.9649,0.0955,0.7671,-0.6278,-0.0292,-0.1289
1380,0.0,0.0,0.0,0.0,0.0,0.0,0.2326,-0.9655,0.0960,0.7663,-0.6285,-0.0306,-0.1298
1381,0.0,0.0,0.0,0.0,0.0,0.0,0.2213,-0.9764,0.0908,0.7654,-0.6294,-0.0318,-0.1305
1382,0.0,0.0,0.0,0.0,0.0,0.0,0.2198,-0.9848,0.0925,0.7643,-0.6305,-0.0326,-0.1313
1383,0.0,0.0,0.0,0.0,0.0,0.0,0.2237,-0.9893,0.0957,0.7632,-0.6317,-0.0336,-0.1318
1384,0.0,0.0,0.0,0.0,0.0,0.0,0.2183,-0.9921,0.0927,0.7622,-0.6329,-0.0343,-0.1320
1385,0.0,0.0,0.0,0.0,0.0,0.0,0.2193,-0.9801,0.0858,0.7613,-0.6338,-0.0348,-0.1322
1386,0.0,0.0,0.0,0.0,0.0,0.0,0.2188,-0.9736,0.0816,0.7610,-0.6342,-0.0348,-0.1325
1387,0.0,0.0,0.0,0.0,0.0,0.0,0.2163,-0.9870,0.0865,0.7605,-0.6347,-0.0352,-0.1325
1388,0.0,0.0,0.0,0.0,0.0,0.0,0.2158,-0.9835,0.0862,0.7597,-0.6357,-0.0360,-0.1323
1389,0.0,0.0,0.0,0.0,0.0,0.0,0.2164,-0.9801,0.0863,0.7593,-0.6362,-0.0364,-0.1319
1390,0.0,0.0,0.0,0.0,0.0,0.0,0.2197,-0.9861,0.0885,0.7589,-0.6367,-0.0370,-0.1313
1391,0.0,0.0,0.0,0.0,0.0,0.0,0.2231,-0.9899,0.0860,0.7588,-0.6369,-0.0373,-0.1311
1392,0.0,0.0,0.0,0.0,0.0,0.0,0.2305,-0.9781,0.0820,0.7585,-0.6372,-0.0381,-0.1311
1393,0.0,0.0,0.0,0.0,0.0,0.0,0.2286,-0.9698,0.0818,0.7583,-0.6374,-0.0387,-0.1311
1394,0.0,0.0,0.0,0.0,0.0,0.0,0.2085,-0.9846,0.0919,0.7587,-0.6371,-0.0382,-0.1309
1395,0.0,0.0,0.0,0.0,0.0,0.0,0.2114,-0.9945,0.0926,0.7591,-0.6367,-0.0374,-0.1303
1396,0.0,0.0,0.0,0.0,0.0,0.0,0.2168,-0.9765,0.0811,0.7592,-0.6367,-0.0365,-0.1298
1397,0.0,0.0,0.0,0.0,0.0,0.0,0.2130,-0.9712,0.0827,0.7595,-0.6366,-0.0355,-0.1290
1398,0.0,0.0,0.0,0.0,0.0,0.0,0.2222,-0.9687,0.0799,0.7601,-0.6361,-0.0346,-0.1282
1399,0.0,0.0,0.0,0.0,0.0,0.0,0.2227,-0.9826,0.0848,0.7604,-0.6359,-0.0343,-0.1274
1400,0.0,0.0,0.0,0.0,0.0,0.0,0.2232,-0.9811,0.0858,0.7604,-0.6361,-0.0342,-0.1265
1401,0.0,0.0,0.0,0.0,0.0,0.0,0.2252,-0.9763,0.0869,0.7609,-0.6356,-0.0337,-0.1260
1402,0.0,0.0,0.0,0.0,0.0,0.0,0.2257,-0.9710,0.0876,0.7615,-0.6350,-0.0330,-0.1256
1403,0.0,0.0,0.0,0.0,0.0,0.0,0.2188,-0.9729,0.0880,0.7619,-0.6346,-0.0324,-0.1252
1404,0.0,0.0,0.0,0.0,0.0,0.0,0.2154,-0.9818,0.0930,0.7624,-0.6341,-0.0317,-0.1249
1405,0.0,0.0,0.0,0.0,0.0,0.0,0.2159,-0.9823,0.0925,0.7626,-0.6340,-0.0317,-0.1244
1406,0.0,0.0,0.0,0.0,0.0,0.0,0.2110,-0.9728,0.0865,0.7627,-0.6339,-0.0313,-0.1242
1407,0.0,0.0,0.0,0.0,0.0,0.0,0.2238,-0.9657,0.0897,0.7628,-0.6339,-0.0314,-0.1242
1408,0.0,0.0,0.0,0.0,0.0,0.0,0.2189,-0.9716,0.0929,0.7626,-0.6341,-0.0318,-0.1241
1409,0.0,0.0,0.0,0.0,0.0,0.0,0.2208,-0.9697,0.0929,0.7627,-0.6339,-0.0317,-0.1242
1410,0.0,0.0,0.0,0.0,0.0,0.0,0.2204,-0.9602,0.0889,0.7628,-0.6337,-0.0315,-0.1246
1411,0.0,0.0,0.0,0.0,0.0,0.0,0.2195,-0.9535,0.0910,0.7628,-0.6337,-0.0316,-0.1249
1412,0.0,0.0,0.0,0.0,0.0,0.0,0.2301,-0.9655,0.0960,0.7634,-0.6329,-0.0316,-0.1254
1413,0.0,0.0,0.0,0.0,0.0,0.0,0.2189,-0.9802,0.1013,0.7638,-0.6322,-0.0319,-0.1258
1414,0.0,0.0,0.0,0.0,0.0,0.0,0.2047,-0.9806,0.1022,0.7637,-0.6324,-0.0321,-0.1258
1415,0.0,0.0,0.0,0.0,0.0,0.0,0.2101,-0.9783,0.1038,0.7637,-0.6324,-0.0320,-0.1258
1416,0.0,0.0,0.0,0.0,0.0,0.0,0.2145,-0.9772,0.1009,0.7637,-0.6323,-0.0321,-0.1257
1417,0.0,0.0,0.0,0.0,0.0,0.0,0.2160,-0.9712,0.0953,0.7635,-0.6327,-0.0327,-0.1256
1418,0.0,0.0,0.0,0.0,0.0,0.0,0.2155,-0.9628,0.0926,0.7634,-0.6328,-0.0326,-0.1257
1419,0.0,0.0,0.0,0.0,0.0,0.0,0.2174,-0.9747,0.0986,0.7635,-0.6326,-0.0322,-0.1259
1420,0.0,0.0,0.0,0.0,0.0,0.0,0.2189,-0.9668,0.0945,0.7640,-0.6319,-0.0311,-0.1266
1421,0.0,0.0,0.0,0.0,0.0,0.0,0.2189,-0.9604,0.0942,0.7651,-0.6305,-0.0298,-0.1273
1422,0.0,0.0,0.0,0.0,0.0,0.0,0.2179,-0.9721,0.0933,0.7651,-0.6306,-0.0313,-0.1265
1423,0.0,0.0,0.0,0.0,0.0,0.0,0.2160,-0.9697,0.0939,0.7647,-0.6309,-0.0316,-0.1270
1424,0.0,0.0,0.0,0.0,0.0,0.0,0.2115,-0.9797,0.1018,0.7650,-0.6305,-0.0313,-0.1275
1425,0.0,0.0,0.0,0.0,0.0,0.0,0.2116,-0.9768,0.1043,0.7651,-0.6304,-0.0312,-0.1277
1426,0.0,0.0,0.0,0.0,0.0,0.0,0.2150,-0.9740,0.0933,0.7648,-0.6307,-0.0315,-0.1273
1427,0.0,0.0,0.0,0.0,0.0,0.0,0.2315,-0.9699,0.0823,0.7643,-0.6314,-0.0321,-0.1274
1428,0.0,0.0,0.0,0.0,0.0,0.0,0.2428,-0.9666,0.0849,0.7633,-0.6324,-0.0336,-0.1277
1429,0.0,0.0,0.0,0.0,0.0,0.0,0.2320,-0.9755,0.0889,0.7623,-0.6335,-0.0349,-0.1281
1430,0.0,0.0,0.0,0.0,0.0,0.0,0.2281,-0.9739,0.0880,0.7617,-0.6341,-0.0354,-0.1283
1431,0.0,0.0,0.0,0.0,0.0,0.0,0.2286,-0.9772,0.0845,0.7612,-0.6346,-0.0359,-0.1285
1432,0.0,0.0,0.0,0.0,0.0,0.0,0.2334,-0.9791,0.0815,0.7607,-0.6352,-0.0363,-0.1287
1433,0.0,0.0,0.0,0.0,0.0,0.0,0.2335,-0.9678,0.0775,0.7600,-0.6359,-0.0366,-0.1290
1434,0.0,0.0,0.0,0.0,0.0,0.0,0.2325,-0.9643,0.0762,0.7592,-0.6367,-0.0370,-0.1295
1435,0.0,0.0,0.0,0.0,0.0,0.0,0.2310,-0.9720,0.0749,0.7593,-0.6365,-0.0363,-0.1302
1436,0.0,0.0,0.0,0.0,0.0,0.0,0.1923,-0.9785,0.0591,0.7589,-0.6371,-0.0349,-0.1305
1437,0.0,0.0,0.0,0.0,0.0,0.0,0.1503,-0.9883,0.0576,0.7575,-0.6389,-0.0304,-0.1307
1438,0.0,0.0,0.0,0.0,0.0,0.0,0.2652,-0.9672,0.0946,0.7568,-0.6397,-0.0282,-0.1316
1439,0.0,0.0,0.0,0.0,0.0,0.0,0.2642,-0.9728,0.0882,0.7568,-0.6394,-0.0285,-0.1328
1440,0.0,0.0,0.0,0.0,0.0,0.0,0.2309,-0.9902,0.0797,0.7568,-0.6393,-0.0281,-0.1335
1441,0.0,0.0,0.0,0.0,0.0,0.0,0.2763,-0.9901,0.0925,0.7575,-0.6384,-0.0291,-0.1337
1442,0.0,0.0,0.0,0.0,0.0,0.0,0.2363,-0.9844,0.0785,0.7578,-0.6381,-0.0312,-0.1327
1443,0.0,0.0,0.0,0.0,0.0,0.0,0.1958,-0.9832,0.0677,0.7573,-0.6389,-0.0323,-0.1315
1444,0.0,0.0,0.0,0.0,0.0,0.0,0.2017,-0.9794,0.0702,0.7572,-0.6391,-0.0320,-0.1308
1445,0.0,0.0,0.0,0.0,0.0,0.0,0.2041,-0.9894,0.0753,0.7575,-0.6390,-0.0314,-0.1300
1446,0.0,0.0,0.0,0.0,0.0,0.0,0.1987,-0.9972,0.0779,0.7574,-0.6393,-0.0307,-0.1291
1447,0.0,0.0,0.0,0.0,0.0,0.0,0.2011,-0.9885,0.0787,0.7576,-0.6393,-0.0298,-0.1282
1448,0.0,0.0,0.0,0.0,0.0,0.0,0.1973,-0.9742,0.0757,0.7580,-0.6391,-0.0287,-0.1275
1449,0.0,0.0,0.0,0.0,0.0,0.0,0.1978,-0.9713,0.0763,0.7584,-0.6387,-0.0276,-0.1267
1450,0.0,0.0,0.0,0.0,0.0,0.0,0.1978,-0.9823,0.0823,0.7592,-0.6381,-0.0265,-0.1256
1451,0.0,0.0,0.0,0.0,0.0,0.0,0.1953,-0.9858,0.0860,0.7598,-0.6376,-0.0256,-0.1245
1452,0.0,0.0,0.0,0.0,0.0,0.0,0.1929,-0.9959,0.0959,0.7606,-0.6369,-0.0248,-0.1231
1453,0.0,0.0,0.0,0.0,0.0,0.0,0.1929,-1.0035,0.1044,0.7620,-0.6356,-0.0237,-0.1217
1454,0.0,0.0,0.0,0.0,0.0,0.0,0.1895,-1.0007,0.1088,0.7635,-0.6342,-0.0228,-0.1202
1455,0.0,0.0,0.0,0.0,0.0,0.0,0.1930,-0.9956,0.1153,0.7650,-0.6327,-0.0224,-0.1187
1456,0.0,0.0,0.0,0.0,0.0,0.0,0.1896,-0.9880,0.1209,0.7667,-0.6309,-0.0218,-0.1171
1457,0.0,0.0,0.0,0.0,0.0,0.0,0.1901,-0.9910,0.1227,0.7684,-0.6291,-0.0214,-0.1155
1458,0.0,0.0,0.0,0.0,0.0,0.0,0.1969,-0.9910,0.1222,0.7702,-0.6272,-0.0209,-0.1141
1459,0.0,0.0,0.0,0.0,0.0,0.0,0.1985,-0.9758,0.1208,0.7716,-0.6257,-0.0207,-0.1129
1460,0.0,0.0,0.0,0.0,0.0,0.0,0.1957,-0.9501,0.1104,0.7721,-0.6251,-0.0211,-0.1120
1461,0.0,0.0,0.0,0.0,0.0,0.0,0.1996,-0.9353,0.1051,0.7726,-0.6246,-0.0216,-0.1117
1462,0.0,0.0,0.0,0.0,0.0,0.0,0.1977,-0.9374,0.1113,0.7730,-0.6241,-0.0220,-0.1117
1463,0.0,0.0,0.0,0.0,0.0,0.0,0.1928,-0.9469,0.1173,0.7734,-0.6236,-0.0220,-0.1119
1464,0.0,0.0,0.0,0.0,0.0,0.0,0.1878,-0.9654,0.1303,0.7741,-0.6226,-0.0218,-0.1123
1465,0.0,0.0,0.0,0.0,0.0,0.0,0.1853,-0.9861,0.1384,0.7746,-0.6220,-0.0219,-0.1124
1466,0.0,0.0,0.0,0.0,0.0,0.0,0.1755,-0.9890,0.1402,0.7753,-0.6211,-0.0212,-0.1130
1467,0.0,0.0,0.0,0.0,0.0,0.0,0.1766,-0.9828,0.1428,0.7759,-0.6202,-0.0206,-0.1136
1468,0.0,0.0,0.0,0.0,0.0,0.0,0.1756,-0.9800,0.1463,0.7767,-0.6191,-0.0200,-0.1137
1469,0.0,0.0,0.0,0.0,0.0,0.0,0.1830,-0.9757,0.1469,0.7779,-0.6176,-0.0192,-0.1140
1470,0.0,0.0,0.0,0.0,0.0,0.0,0.1815,-0.9733,0.1489,0.7785,-0.6169,-0.0190,-0.1143
1471,0.0,0.0,0.0,0.0,0.0,0.0,0.1825,-0.9684,0.1496,0.7792,-0.6159,-0.0186,-0.1148
1472,0.0,0.0,0.0,0.0,0.0,0.0,0.1835,-0.9665,0.1492,0.7796,-0.6154,-0.0185,-0.1152
1473,0.0,0.0,0.0,0.0,0.0,0.0,0.1791,-0.9650,0.1492,0.7799,-0.6149,-0.0184,-0.1156
1474,0.0,0.0,0.0,0.0,0.0,0.0,0.1738,-0.9557,0.1490,0.7802,-0.6144,-0.0183,-0.1161
1475,0.0,0.0,0.0,0.0,0.0,0.0,0.1748,-0.9581,0.1479,0.7801,-0.6144,-0.0184,-0.1164
1476,0.0,0.0,0.0,0.0,0.0,0.0,0.1796,-0.9645,0.1487,0.7805,-0.6137,-0.0162,-0.1179
1477,0.0,0.0,0.0,0.0,0.0,0.0,0.1830,-0.9625,0.1464,0.7805,-0.6137,-0.0164,-0.1181
1478,0.0,0.0,0.0,0.0,0.0,0.0,0.1874,-0.9604,0.1431,0.7804,-0.6138,-0.0166,-0.1184
1479,0.0,0.0,0.0,0.0,0.0,0.0,0.1893,-0.9682,0.1419,0.7807,-0.6133,-0.0161,-0.1190
1480,0.0,0.0,0.0,0.0,0.0,0.0,0.1825,-0.9754,0.1387,0.7803,-0.6136,-0.0160,-0.1197
1481,0.0,0.0,0.0,0.0,0.0,0.0,0.1981,-0.9756,0.1421,0.7799,-0.6141,-0.0163,-0.1202
1482,0.0,0.0,0.0,0.0,0.0,0.0,0.1971,-0.9776,0.1421,0.7794,-0.6146,-0.0169,-0.1208
1483,0.0,0.0,0.0,0.0,0.0,0.0,0.1868,-0.9779,0.1401,0.7789,-0.6151,-0.0172,-0.1216
1484,0.0,0.0,0.0,0.0,0.0,0.0,0.1893,-0.9755,0.1397,0.7787,-0.6151,-0.0172,-0.1222
1485,0.0,0.0,0.0,0.0,0.0,0.0,0.1922,-0.9724,0.1345,0.7781,-0.6158,-0.0179,-0.1227
1486,0.0,0.0,0.0,0.0,0.0,0.0,0.1947,-0.9709,0.1335,0.7774,-0.6165,-0.0186,-0.1233
1487,0.0,0.0,0.0,0.0,0.0,0.0,0.2000,-0.9699,0.1321,0.7769,-0.6170,-0.0194,-0.1239
1488,0.0,0.0,0.0,0.0,0.0,0.0,0.2005,-0.9778,0.1329,0.7765,-0.6174,-0.0201,-0.1246
1489,0.0,0.0,0.0,0.0,0.0,0.0,0.1882,-0.9868,0.1306,0.7758,-0.6181,-0.0205,-0.1253
1490,0.0,0.0,0.0,0.0,0.0,0.0,0.1780,-0.9797,0.1250,0.7744,-0.6198,-0.0213,-0.1254
1491,0.0,0.0,0.0,0.0,0.0,0.0,0.1819,-0.9847,0.1268,0.7734,-0.6210,-0.0220,-0.1253
1492,0.0,0.0,0.0,0.0,0.0,0.0,0.1813,-0.9946,0.1303,0.7731,-0.6215,-0.0221,-0.1250
1493,0.0,0.0,0.0,0.0,0.0,0.0,0.1818,-1.0001,0.1360,0.7729,-0.6218,-0.0221,-0.1245
1494,0.0,0.0,0.0,0.0,0.0,0.0,0.1828,-0.9917,0.1324,0.7731,-0.6216,-0.0214,-0.1243
1495,0.0,0.0,0.0,0.0,0.0,0.0,0.1932,-0.9615,0.1154,0.7733,-0.6214,-0.0205,-0.1243
1496,0.0,0.0,0.0,0.0,0.0,0.0,0.1956,-0.9744,0.1213,0.7733,-0.6214,-0.0203,-0.1244
1497,0.0,0.0,0.0,0.0,0.0,0.0,0.1852,-0.9997,0.1355,0.7741,-0.6204,-0.0189,-0.1247
1498,0.0,0.0,0.0,0.0,0.0,0.0,0.1857,-0.9918,0.1329,0.7745,-0.6199,-0.0179,-0.1247
1499,0.0,0.0,0.0,0.0,0.0,0.0,0.1892,-0.9835,0.1317,0.7748,-0.6195,-0.0169,-0.1248
1500,0.0,0.0,0.0,0.0,0.0,0.0,0.1986,-0.9554,0.1219,0.7752,-0.6190,-0.0162,-0.1250
1501,0.0,0.0,0.0,0.0,0.0,0.0,0.2173,-0.9209,0.1066,0.7750,-0.6192,-0.0170,-0.1252
1502,0.0,0.0,0.0,0.0,0.0,0.0,0.2196,-0.9455,0.1126,0.7745,-0.6198,-0.0191,-0.1253
1503,0.0,0.0,0.0,0.0,0.0,0.0,0.1738,-1.0249,0.1342,0.7738,-0.6206,-0.0199,-0.1254
1504,0.0,0.0,0.0,0.0,0.0,0.0,0.1897,-0.9839,0.1288,0.7732,-0.6213,-0.0200,-0.1255
1505,0.0,0.0,0.0,0.0,0.0,0.0,0.1971,-0.9603,0.1218,0.7729,-0.6217,-0.0203,-0.1250
1506,0.0,0.0,0.0,0.0,0.0,0.0,0.1975,-0.9843,0.1244,0.7721,-0.6228,-0.0217,-0.1243
1507,0.0,0.0,0.0,0.0,0.0,0.0,0.1979,-0.9951,0.1279,0.7714,-0.6238,-0.0229,-0.1240
1508,0.0,0.0,0.0,0.0,0.0,0.0,0.1946,-0.9743,0.1194,0.7710,-0.6242,-0.0229,-0.1238
1509,0.0,0.0,0.0,0.0,0.0,0.0,0.1990,-0.9638,0.1110,0.7708,-0.6245,-0.0227,-0.1237
1510,0.0,0.0,0.0,0.0,0.0,0.0,0.2019,-0.9646,0.1066,0.7703,-0.6251,-0.0231,-0.1238
1511,0.0,0.0,0.0,0.0,0.0,0.0,0.1946,-0.9675,0.1060,0.7698,-0.6257,-0.0233,-0.1241
1512,0.0,0.0,0.0,0.0,0.0,0.0,0.2082,-0.9652,0.1061,0.7692,-0.6263,-0.0237,-0.1244
1513,0.0,0.0,0.0,0.0,0.0,0.0,0.2131,-0.9716,0.1074,0.7686,-0.6269,-0.0246,-0.1249
1514,0.0,0.0,0.0,0.0,0.0,0.0,0.2058,-0.9646,0.1042,0.7678,-0.6277,-0.0257,-0.1255
1515,0.0,0.0,0.0,0.0,0.0,0.0,0.2004,-0.9690,0.1065,0.7675,-0.6280,-0.0260,-0.1263
1516,0.0,0.0,0.0,0.0,0.0,0.0,0.1934,-1.0036,0.1209,0.7681,-0.6271,-0.0247,-0.1272
1517,0.0,0.0,0.0,0.0,0.0,0.0,0.2056,-1.0029,0.1243,0.7689,-0.6260,-0.0237,-0.1279
1518,0.0,0.0,0.0,0.0,0.0,0.0,0.1979,-0.9726,0.0991,0.7687,-0.6263,-0.0230,-0.1281
1519,0.0,0.0,0.0,0.0,0.0,0.0,0.2244,-0.9369,0.0911,0.7684,-0.6265,-0.0228,-0.1286
1520,0.0,0.0,0.0,0.0,0.0,0.0,0.2154,-1.0011,0.1152,0.7686,-0.6263,-0.0225,-0.1287
1521,0.0,0.0,0.0,0.0,0.0,0.0,0.1987,-1.0261,0.1216,0.7681,-0.6269,-0.0221,-0.1286
1522,0.0,0.0,0.0,0.0,0.0,0.0,0.1921,-0.9749,0.1091,0.7674,-0.6279,-0.0214,-0.1280
1523,0.0,0.0,0.0,0.0,0.0,0.0,0.1917,-0.9575,0.1014,0.7674,-0.6280,-0.0197,-0.1275
1524,0.0,0.0,0.0,0.0,0.0,0.0,0.2009,-0.9570,0.0976,0.7674,-0.6281,-0.0185,-0.1275
1525,0.0,0.0,0.0,0.0,0.0,0.0,0.1975,-0.9485,0.0940,0.7668,-0.6288,-0.0181,-0.1277
1526,0.0,0.0,0.0,0.0,0.0,0.0,0.1950,-0.9612,0.0931,0.7663,-0.6294,-0.0177,-0.1281
1527,0.0,0.0,0.0,0.0,0.0,0.0,0.1944,-0.9802,0.0939,0.7658,-0.6299,-0.0173,-0.1282
1528,0.0,0.0,0.0,0.0,0.0,0.0,0.1993,-0.9886,0.0942,0.7657,-0.6300,-0.0166,-0.1286
1529,0.0,0.0,0.0,0.0,0.0,0.0,0.1978,-0.9939,0.0945,0.7656,-0.6300,-0.0160,-0.1293
1530,0.0,0.0,0.0,0.0,0.0,0.0,0.1958,-1.0003,0.0953,0.7648,-0.6309,-0.0163,-0.1296
1531,0.0,0.0,0.0,0.0,0.0,0.0,0.1983,-0.9919,0.0926,0.7642,-0.6315,-0.0166,-0.1299
1532,0.0,0.0,0.0,0.0,0.0,0.0,0.2017,-0.9879,0.0889,0.7642,-0.6314,-0.0163,-0.1303
1533,0.0,0.0,0.0,0.0,0.0,0.0,0.2031,-0.9879,0.0874,0.7642,-0.6314,-0.0161,-0.1308
1534,0.0,0.0,0.0,0.0,0.0,0.0,0.2002,-0.9879,0.0894,0.7639,-0.6317,-0.0164,-0.1311
1535,0.0,0.0,0.0,0.0,0.0,0.0,0.2027,-0.9905,0.0937,0.7639,-0.6316,-0.0164,-0.1313
1536,0.0,0.0,0.0,0.0,0.0,0.0,0.2007,-0.9872,0.0957,0.7642,-0.6312,-0.0165,-0.1316
1537,0.0,0.0,0.0,0.0,0.0,0.0,0.1905,-0.9807,0.0954,0.7640,-0.6314,-0.0169,-0.1313
1538,0.0,0.0,0.0,0.0,0.0,0.0,0.1949,-0.9788,0.0959,0.7640,-0.6315,-0.0171,-0.1310
1539,0.0,0.0,0.0,0.0,0.0,0.0,0.1984,-0.9758,0.0936,0.7641,-0.6316,-0.0175,-0.1303
1540,0.0,0.0,0.0,0.0,0.0,0.0,0.2023,-0.9710,0.0923,0.7638,-0.6321,-0.0184,-0.1295
1541,0.0,0.0,0.0,0.0,0.0,0.0,0.1988,-0.9763,0.0931,0.7640,-0.6320,-0.0191,-0.1286
1542,0.0,0.0,0.0,0.0,0.0,0.0,0.1802,-0.9955,0.1012,0.7642,-0.6319,-0.0188,-0.1278
1543,0.0,0.0,0.0,0.0,0.0,0.0,0.1993,-0.9823,0.0963,0.7640,-0.6323,-0.0189,-0.1269
1544,0.0,0.0,0.0,0.0,0.0,0.0,0.1998,-0.9689,0.0895,0.7638,-0.6327,-0.0192,-0.1264
1545,0.0,0.0,0.0,0.0,0.0,0.0,0.1954,-0.9818,0.0958,0.7638,-0.6328,-0.0191,-0.1256
1546,0.0,0.0,0.0,0.0,0.0,0.0,0.1974,-0.9758,0.0936,0.7638,-0.6330,-0.0193,-0.1250
1547,0.0,0.0,0.0,0.0,0.0,0.0,0.1969,-0.9693,0.0894,0.7637,-0.6331,-0.0195,-0.1247
1548,0.0,0.0,0.0,0.0,0.0,0.0,0.1945,-0.9743,0.0917,0.7640,-0.6328,-0.0193,-0.1245
1549,0.0,0.0,0.0,0.0,0.0,0.0,0.1954,-0.9772,0.0926,0.7641,-0.6327,-0.0194,-0.1244
1550,0.0,0.0,0.0,0.0,0.0,0.0,0.1935,-0.9778,0.0935,0.7640,-0.6328,-0.0196,-0.1246
1551,0.0,0.0,0.0,0.0,0.0,0.0,0.1915,-0.9753,0.0931,0.7641,-0.6326,-0.0194,-0.1247
1552,0.0,0.0,0.0,0.0,0.0,0.0,0.1911,-0.9685,0.0933,0.7640,-0.6327,-0.0193,-0.1249
1553,0.0,0.0,0.0,0.0,0.0,0.0,0.1910,-0.9779,0.0969,0.7642,-0.6324,-0.0189,-0.1254
1554,0.0,0.0,0.0,0.0,0.0,0.0,0.1920,-0.9923,0.1062,0.7649,-0.6314,-0.0182,-0.1261
1555,0.0,0.0,0.0,0.0,0.0,0.0,0.1905,-0.9870,0.1073,0.7657,-0.6304,-0.0174,-0.1267
1556,0.0,0.0,0.0,0.0,0.0,0.0,0.1995,-0.9590,0.0995,0.7660,-0.6299,-0.0173,-0.1269
1557,0.0,0.0,0.0,0.0,0.0,0.0,0.2009,-0.9558,0.0918,0.7660,-0.6299,-0.0179,-0.1269
1558,0.0,0.0,0.0,0.0,0.0,0.0,0.2047,-0.9845,0.1031,0.7657,-0.6302,-0.0192,-0.1269
1559,0.0,0.0,0.0,0.0,0.0,0.0,0.1900,-1.0003,0.1108,0.7654,-0.6306,-0.0199,-0.1267
1560,0.0,0.0,0.0,0.0,0.0,0.0,0.1930,-0.9707,0.1001,0.7650,-0.6312,-0.0203,-0.1264
1561,0.0,0.0,0.0,0.0,0.0,0.0,0.2028,-0.9608,0.0951,0.7646,-0.6317,-0.0210,-0.1259
1562,0.0,0.0,0.0,0.0,0.0,0.0,0.2066,-0.9784,0.0955,0.7643,-0.6321,-0.0217,-0.1257
1563,0.0,0.0,0.0,0.0,0.0,0.0,0.2067,-0.9755,0.0946,0.7641,-0.6323,-0.0223,-0.1258
