,Position_X,Position_Y,Position_Z,Velocity_X,Velocity_Y,Velocity_Z,Acceleration_X,Acceleration_Y,Acceleration_Z,Quaterion_0,Quaterion_1,Quaterion_2,Quaterion_3
90,0.0,0.0,0.0,0.0,0.0,0.0,-0.1980,0.9765,-0.0483,0.3860,0.5280,-0.5635,-0.5046
91,0.0,0.0,0.0,0.0,0.0,0.0,-0.1965,0.9725,-0.0522,0.3867,0.5281,-0.5631,-0.5045
92,0.0,0.0,0.0,0.0,0.0,0.0,-0.1926,0.9677,-0.0547,0.3877,0.5282,-0.5625,-0.5042
93,0.0,0.0,0.0,0.0,0.0,0.0,-0.1867,0.9646,-0.0659,0.3881,0.5286,-0.5624,-0.5037
94,0.0,0.0,0.0,0.0,0.0,0.0,-0.1691,0.9474,-0.0817,0.3886,0.5288,-0.5625,-0.5030
95,0.0,0.0,0.0,0.0,0.0,0.0,-0.1286,0.9133,-0.0871,0.3884,0.5278,-0.5646,-0.5018
96,0.0,0.0,0.0,0.0,0.0,0.0,-0.2525,1.0354,-0.0614,0.3876,0.5285,-0.5651,-0.5011
97,0.0,0.0,0.0,0.0,0.0,0.0,-0.2147,1.0298,-0.0153,0.3884,0.5284,-0.5652,-0.5005
98,0.0,0.0,0.0,0.0,0.0,0.0,-0.1535,0.9757,-0.0816,0.3906,0.5278,-0.5644,-0.5004
99,0.0,0.0,0.0,0.0,0.0,0.0,-0.1994,0.9862,-0.0477,0.3899,0.5284,-0.5651,-0.4994
100,0.0,0.0,0.0,0.0,0.0,0.0,-0.2019,0.9975,-0.0428,0.3905,0.5286,-0.5645,-0.4994
101,0.0,0.0,0.0,0.0,0.0,0.0,-0.1896,0.9768,-0.0624,0.3909,0.5286,-0.5636,-0.5001
102,0.0,0.0,0.0,0.0,0.0,0.0,-0.2004,0.9837,-0.0535,0.3913,0.5291,-0.5630,-0.5000
103,0.0,0.0,0.0,0.0,0.0,0.0,-0.2023,0.9770,-0.0492,0.3911,0.5288,-0.5628,-0.5007
104,0.0,0.0,0.0,0.0,0.0,0.0,-0.2057,0.9681,-0.0560,0.3909,0.5287,-0.5624,-0.5014
105,0.0,0.0,0.0,0.0,0.0,0.0,-0.2082,0.9692,-0.0502,0.3909,0.5290,-0.5615,-0.5022
106,0.0,0.0,0.0,0.0,0.0,0.0,-0.1999,0.9589,-0.0556,0.3912,0.5293,-0.5604,-0.5027
107,0.0,0.0,0.0,0.0,0.0,0.0,-0.2008,0.9603,-0.0566,0.3916,0.5298,-0.5595,-0.5028
108,0.0,0.0,0.0,0.0,0.0,0.0,-0.2067,0.9657,-0.0531,0.3917,0.5303,-0.5591,-0.5029
109,0.0,0.0,0.0,0.0,0.0,0.0,-0.2081,0.9643,-0.0560,0.3911,0.5304,-0.5589,-0.5033
110,0.0,0.0,0.0,0.0,0.0,0.0,-0.2057,0.9648,-0.0536,0.3903,0.5303,-0.5593,-0.5037
111,0.0,0.0,0.0,0.0,0.0,0.0,-0.2033,0.9652,-0.0551,0.3895,0.5301,-0.5599,-0.5038
112,0.0,0.0,0.0,0.0,0.0,0.0,-0.2067,0.9691,-0.0545,0.3893,0.5303,-0.5600,-0.5035
113,0.0,0.0,0.0,0.0,0.0,0.0,-0.2096,0.9730,-0.0530,0.3898,0.5308,-0.5597,-0.5031
114,0.0,0.0,0.0,0.0,0.0,0.0,-0.2121,0.9726,-0.0530,0.3904,0.5313,-0.5591,-0.5026
115,0.0,0.0,0.0,0.0,0.0,0.0,-0.2106,0.9740,-0.0525,0.3905,0.5316,-0.5589,-0.5025
116,0.0,0.0,0.0,0.0,0.0,0.0,-0.2101,0.9740,-0.0540,0.3898,0.5313,-0.5594,-0.5029
117,0.0,0.0,0.0,0.0,0.0,0.0,-0.2111,0.9740,-0.0525,0.3887,0.5307,-0.5602,-0.5035
118,0.0,0.0,0.0,0.0,0.0,0.0,-0.2077,0.9755,-0.0511,0.3883,0.5303,-0.5603,-0.5040
119,0.0,0.0,0.0,0.0,0.0,0.0,-0.2014,0.9750,-0.0531,0.3887,0.5304,-0.5598,-0.5042
120,0.0,0.0,0.0,0.0,0.0,0.0,-0.1960,0.9701,-0.0542,0.3896,0.5306,-0.5591,-0.5041
121,0.0,0.0,0.0,0.0,0.0,0.0,-0.1915,0.9603,-0.0639,0.3898,0.5309,-0.5588,-0.5040
122,0.0,0.0,0.0,0.0,0.0,0.0,-0.1647,0.9357,-0.0866,0.3899,0.5307,-0.5594,-0.5033
123,0.0,0.0,0.0,0.0,0.0,0.0,-0.0857,0.8863,-0.0954,0.3893,0.5287,-0.5630,-0.5020
124,0.0,0.0,0.0,0.0,0.0,0.0,-0.2642,1.0451,-0.0729,0.3865,0.5291,-0.5646,-0.5019
125,0.0,0.0,0.0,0.0,0.0,0.0,-0.2324,1.0359,0.0135,0.3880,0.5296,-0.5646,-0.5002
126,0.0,0.0,0.0,0.0,0.0,0.0,-0.1301,0.9522,-0.2244,0.3902,0.5309,-0.5625,-0.4994
127,0.0,0.0,0.0,0.0,0.0,0.0,-0.1969,0.9652,-0.0639,0.3893,0.5318,-0.5637,-0.4979
128,0.0,0.0,0.0,0.0,0.0,0.0,-0.2102,0.9960,-0.0461,0.3888,0.5317,-0.5642,-0.4978
129,0.0,0.0,0.0,0.0,0.0,0.0,-0.1838,0.9904,-0.0687,0.3899,0.5310,-0.5639,-0.4981
130,0.0,0.0,0.0,0.0,0.0,0.0,-0.1892,0.9812,-0.0600,0.3897,0.5312,-0.5648,-0.4970
131,0.0,0.0,0.0,0.0,0.0,0.0,-0.2257,0.9769,-0.0621,0.3899,0.5316,-0.5644,-0.4969
132,0.0,0.0,0.0,0.0,0.0,0.0,-0.2116,0.9886,-0.0568,0.3913,0.5326,-0.5628,-0.4964
133,0.0,0.0,0.0,0.0,0.0,0.0,-0.2003,0.9715,-0.0628,0.3921,0.5335,-0.5617,-0.4962
134,0.0,0.0,0.0,0.0,0.0,0.0,-0.2086,0.9593,-0.0672,0.3916,0.5338,-0.5614,-0.4965
135,0.0,0.0,0.0,0.0,0.0,0.0,-0.2125,0.9681,-0.0618,0.3907,0.5340,-0.5614,-0.4969
136,0.0,0.0,0.0,0.0,0.0,0.0,-0.2052,0.9656,-0.0643,0.3897,0.5341,-0.5618,-0.4973
137,0.0,0.0,0.0,0.0,0.0,0.0,-0.2052,0.9598,-0.0677,0.3892,0.5344,-0.5617,-0.4973
138,0.0,0.0,0.0,0.0,0.0,0.0,-0.2096,0.9671,-0.0613,0.3894,0.5352,-0.5612,-0.4970
139,0.0,0.0,0.0,0.0,0.0,0.0,-0.2105,0.9661,-0.0632,0.3899,0.5359,-0.5604,-0.4967
140,0.0,0.0,0.0,0.0,0.0,0.0,-0.2149,0.9701,-0.0622,0.3903,0.5364,-0.5598,-0.4966
141,0.0,0.0,0.0,0.0,0.0,0.0,-0.2116,0.9764,-0.0578,0.3899,0.5363,-0.5597,-0.4970
142,0.0,0.0,0.0,0.0,0.0,0.0,-0.2091,0.9730,-0.0608,0.3891,0.5359,-0.5601,-0.4977
143,0.0,0.0,0.0,0.0,0.0,0.0,-0.2096,0.9759,-0.0617,0.3886,0.5356,-0.5604,-0.4981
144,0.0,0.0,0.0,0.0,0.0,0.0,-0.2101,0.9803,-0.0588,0.3891,0.5355,-0.5600,-0.4982
145,0.0,0.0,0.0,0.0,0.0,0.0,-0.2086,0.9783,-0.0603,0.3902,0.5357,-0.5589,-0.4984
146,0.0,0.0,0.0,0.0,0.0,0.0,-0.2072,0.9759,-0.0603,0.3911,0.5359,-0.5579,-0.4986
147,0.0,0.0,0.0,0.0,0.0,0.0,-0.2037,0.9691,-0.0633,0.3913,0.5357,-0.5574,-0.4992
148,0.0,0.0,0.0,0.0,0.0,0.0,-0.1930,0.9568,-0.0741,0.3909,0.5354,-0.5573,-0.4999
149,0.0,0.0,0.0,0.0,0.0,0.0,-0.1709,0.9288,-0.0953,0.3898,0.5357,-0.5586,-0.4991
150,0.0,0.0,0.0,0.0,0.0,0.0,-0.1230,0.8588,-0.1370,0.3887,0.5353,-0.5604,-0.4984
151,0.0,0.0,0.0,0.0,0.0,0.0,-0.2280,1.0195,-0.0991,0.3881,0.5362,-0.5610,-0.4971
152,0.0,0.0,0.0,0.0,0.0,0.0,-0.2221,1.0445,-0.0079,0.3873,0.5365,-0.5631,-0.4950
153,0.0,0.0,0.0,0.0,0.0,0.0,-0.1344,0.9604,-0.1066,0.3908,0.5348,-0.5630,-0.4943
154,0.0,0.0,0.0,0.0,0.0,0.0,-0.2032,0.9772,-0.0850,0.3890,0.5351,-0.5648,-0.4933
155,0.0,0.0,0.0,0.0,0.0,0.0,-0.2024,1.0047,-0.0490,0.3902,0.5357,-0.5650,-0.4914
156,0.0,0.0,0.0,0.0,0.0,0.0,-0.1574,0.9727,-0.0918,0.3921,0.5347,-0.5643,-0.4918
157,0.0,0.0,0.0,0.0,0.0,0.0,-0.1638,0.9806,-0.0737,0.3920,0.5350,-0.5662,-0.4894
158,0.0,0.0,0.0,0.0,0.0,0.0,-0.1975,1.0091,-0.0544,0.3918,0.5341,-0.5679,-0.4886
159,0.0,0.0,0.0,0.0,0.0,0.0,-0.1985,1.0120,-0.0553,0.3931,0.5333,-0.5674,-0.4889
160,0.0,0.0,0.0,0.0,0.0,0.0,-0.1828,0.9934,-0.0633,0.3947,0.5336,-0.5660,-0.4890
161,0.0,0.0,0.0,0.0,0.0,0.0,-0.1745,0.9777,-0.0746,0.3961,0.5337,-0.5647,-0.4893
162,0.0,0.0,0.0,0.0,0.0,0.0,-0.1769,0.9689,-0.0756,0.3974,0.5342,-0.5636,-0.4890
163,0.0,0.0,0.0,0.0,0.0,0.0,-0.1789,0.9597,-0.0742,0.3986,0.5348,-0.5625,-0.4885
164,0.0,0.0,0.0,0.0,0.0,0.0,-0.1783,0.9431,-0.0816,0.3992,0.5354,-0.5618,-0.4882
165,0.0,0.0,0.0,0.0,0.0,0.0,-0.1852,0.9577,-0.0790,0.3989,0.5358,-0.5618,-0.4881
166,0.0,0.0,0.0,0.0,0.0,0.0,-0.2032,0.9821,-0.0734,0.3981,0.5362,-0.5622,-0.4878
167,0.0,0.0,0.0,0.0,0.0,0.0,-0.2061,0.9694,-0.0807,0.3976,0.5368,-0.5620,-0.4877
168,0.0,0.0,0.0,0.0,0.0,0.0,-0.1909,0.9430,-0.0922,0.3976,0.5378,-0.5614,-0.4873
169,0.0,0.0,0.0,0.0,0.0,0.0,-0.1851,0.9367,-0.0947,0.3977,0.5387,-0.5614,-0.4864
170,0.0,0.0,0.0,0.0,0.0,0.0,-0.1875,0.9576,-0.0902,0.3978,0.5391,-0.5615,-0.4856
171,0.0,0.0,0.0,0.0,0.0,0.0,-0.1915,0.9723,-0.0871,0.3977,0.5393,-0.5621,-0.4849
172,0.0,0.0,0.0,0.0,0.0,0.0,-0.1944,0.9845,-0.0831,0.3972,0.5393,-0.5629,-0.4844
173,0.0,0.0,0.0,0.0,0.0,0.0,-0.1993,0.9845,-0.0831,0.3969,0.5390,-0.5633,-0.4844
174,0.0,0.0,0.0,0.0,0.0,0.0,-0.1993,0.9845,-0.0845,0.3968,0.5389,-0.5633,-0.4845
175,0.0,0.0,0.0,0.0,0.0,0.0,-0.1896,0.9796,-0.0851,0.3973,0.5389,-0.5627,-0.4849
176,0.0,0.0,0.0,0.0,0.0,0.0,-0.1788,0.9693,-0.0877,0.3977,0.5388,-0.5622,-0.4853
177,0.0,0.0,0.0,0.0,0.0,0.0,-0.1745,0.9708,-0.0839,0.3979,0.5384,-0.5623,-0.4853
178,0.0,0.0,0.0,0.0,0.0,0.0,-0.1769,0.9757,-0.0804,0.3980,0.5380,-0.5628,-0.4853
179,0.0,0.0,0.0,0.0,0.0,0.0,-0.1774,0.9865,-0.0746,0.3986,0.5374,-0.5628,-0.4854
180,0.0,0.0,0.0,0.0,0.0,0.0,-0.1755,0.9860,-0.0751,0.3997,0.5366,-0.5624,-0.4857
181,0.0,0.0,0.0,0.0,0.0,0.0,-0.1730,0.9782,-0.0747,0.4002,0.5363,-0.5627,-0.4855
182,0.0,0.0,0.0,0.0,0.0,0.0,-0.1618,0.9694,-0.0724,0.4009,0.5358,-0.5629,-0.4850
183,0.0,0.0,0.0,0.0,0.0,0.0,-0.1550,0.9660,-0.0739,0.4020,0.5350,-0.5635,-0.4843
184,0.0,0.0,0.0,0.0,0.0,0.0,-0.1609,0.9802,-0.0660,0.4027,0.5344,-0.5650,-0.4827
185,0.0,0.0,0.0,0.0,0.0,0.0,-0.1688,1.0022,-0.0566,0.4040,0.5340,-0.5660,-0.4810
186,0.0,0.0,0.0,0.0,0.0,0.0,-0.1644,1.0129,-0.0556,0.4064,0.5332,-0.5660,-0.4798
187,0.0,0.0,0.0,0.0,0.0,0.0,-0.1688,1.0105,-0.0565,0.4095,0.5319,-0.5647,-0.4802
188,0.0,0.0,0.0,0.0,0.0,0.0,-0.1781,1.0188,-0.0487,0.4141,0.5300,-0.5611,-0.4824
189,0.0,0.0,0.0,0.0,0.0,0.0,-0.1854,1.0160,-0.0413,0.4189,0.5285,-0.5563,-0.4855
190,0.0,0.0,0.0,0.0,0.0,0.0,-0.1746,0.9628,-0.0428,0.4230,0.5277,-0.5518,-0.4880
191,0.0,0.0,0.0,0.0,0.0,0.0,-0.1502,0.9550,-0.0479,0.4275,0.5267,-0.5470,-0.4906
192,0.0,0.0,0.0,0.0,0.0,0.0,-0.1371,0.9404,-0.0452,0.4293,0.5262,-0.5450,-0.4918
193,0.0,0.0,0.0,0.0,0.0,0.0,-0.1537,0.9375,-0.0359,0.4295,0.5262,-0.5440,-0.4926
194,0.0,0.0,0.0,0.0,0.0,0.0,-0.1522,0.9380,-0.0393,0.4286,0.5275,-0.5442,-0.4918
195,0.0,0.0,0.0,0.0,0.0,0.0,-0.1483,0.9477,-0.0421,0.4271,0.5300,-0.5451,-0.4894
196,0.0,0.0,0.0,0.0,0.0,0.0,-0.1487,0.9388,-0.0567,0.4246,0.5335,-0.5475,-0.4851
197,0.0,0.0,0.0,0.0,0.0,0.0,-0.1458,0.9631,-0.0653,0.4218,0.5362,-0.5508,-0.4807
198,0.0,0.0,0.0,0.0,0.0,0.0,-0.1508,0.9963,-0.0568,0.4190,0.5380,-0.5550,-0.4764
199,0.0,0.0,0.0,0.0,0.0,0.0,-0.1708,1.0159,-0.0458,0.4167,0.5386,-0.5582,-0.4739
200,0.0,0.0,0.0,0.0,0.0,0.0,-0.1619,0.9923,-0.0698,0.4165,0.5388,-0.5593,-0.4727
201,0.0,0.0,0.0,0.0,0.0,0.0,-0.1565,0.9864,-0.0830,0.4164,0.5388,-0.5601,-0.4719
202,0.0,0.0,0.0,0.0,0.0,0.0,-0.1541,0.9909,-0.0713,0.4164,0.5379,-0.5610,-0.4718
203,0.0,0.0,0.0,0.0,0.0,0.0,-0.1585,0.9928,-0.0776,0.4163,0.5374,-0.5613,-0.4720
204,0.0,0.0,0.0,0.0,0.0,0.0,-0.1590,1.0026,-0.0678,0.4172,0.5370,-0.5605,-0.4726
205,0.0,0.0,0.0,0.0,0.0,0.0,-0.1527,0.9987,-0.0689,0.4180,0.5366,-0.5597,-0.4734
206,0.0,0.0,0.0,0.0,0.0,0.0,-0.1677,0.9894,-0.0688,0.4180,0.5366,-0.5588,-0.4744
207,0.0,0.0,0.0,0.0,0.0,0.0,-0.1615,0.9920,-0.0567,0.4184,0.5366,-0.5574,-0.4757
208,0.0,0.0,0.0,0.0,0.0,0.0,-0.1571,1.0071,-0.0562,0.4187,0.5366,-0.5561,-0.4770
209,0.0,0.0,0.0,0.0,0.0,0.0,-0.1664,0.9974,-0.0489,0.4183,0.5368,-0.5552,-0.4781
210,0.0,0.0,0.0,0.0,0.0,0.0,-0.1623,0.9504,-0.0711,0.4174,0.5380,-0.5541,-0.4788
211,0.0,0.0,0.0,0.0,0.0,0.0,-0.1530,0.9362,-0.0858,0.4158,0.5401,-0.5541,-0.4779
212,0.0,0.0,0.0,0.0,0.0,0.0,-0.1584,0.9577,-0.0778,0.4141,0.5418,-0.5549,-0.4766
213,0.0,0.0,0.0,0.0,0.0,0.0,-0.1696,0.9557,-0.0831,0.4124,0.5434,-0.5562,-0.4747
214,0.0,0.0,0.0,0.0,0.0,0.0,-0.1696,0.9596,-0.0859,0.4105,0.5440,-0.5583,-0.4732
215,0.0,0.0,0.0,0.0,0.0,0.0,-0.1628,0.9811,-0.0776,0.4093,0.5441,-0.5601,-0.4719
216,0.0,0.0,0.0,0.0,0.0,0.0,-0.1559,0.9771,-0.0908,0.4083,0.5438,-0.5617,-0.4712
217,0.0,0.0,0.0,0.0,0.0,0.0,-0.1593,0.9766,-0.0937,0.4075,0.5429,-0.5632,-0.4712
218,0.0,0.0,0.0,0.0,0.0,0.0,-0.1711,0.9825,-0.0877,0.4074,0.5427,-0.5635,-0.4711
219,0.0,0.0,0.0,0.0,0.0,0.0,-0.1681,0.9771,-0.0941,0.4078,0.5428,-0.5630,-0.4713
220,0.0,0.0,0.0,0.0,0.0,0.0,-0.1574,0.9712,-0.1000,0.4077,0.5426,-0.5631,-0.4715
221,0.0,0.0,0.0,0.0,0.0,0.0,-0.1593,0.9746,-0.0990,0.4065,0.5422,-0.5642,-0.4716
222,0.0,0.0,0.0,0.0,0.0,0.0,-0.1720,0.9810,-0.0960,0.4050,0.5418,-0.5655,-0.4719
223,0.0,0.0,0.0,0.0,0.0,0.0,-0.1677,0.9893,-0.0892,0.4035,0.5413,-0.5668,-0.4721
224,0.0,0.0,0.0,0.0,0.0,0.0,-0.1593,0.9814,-0.0951,0.4021,0.5409,-0.5678,-0.4726
225,0.0,0.0,0.0,0.0,0.0,0.0,-0.1671,0.9809,-0.0979,0.4007,0.5405,-0.5687,-0.4731
226,0.0,0.0,0.0,0.0,0.0,0.0,-0.1574,0.9966,-0.0882,0.3997,0.5400,-0.5695,-0.4736
227,0.0,0.0,0.0,0.0,0.0,0.0,-0.1501,0.9824,-0.0957,0.3988,0.5394,-0.5706,-0.4738
228,0.0,0.0,0.0,0.0,0.0,0.0,-0.1456,0.9657,-0.1084,0.3980,0.5387,-0.5718,-0.4737
229,0.0,0.0,0.0,0.0,0.0,0.0,-0.1510,0.9673,-0.1006,0.3972,0.5384,-0.5733,-0.4729
230,0.0,0.0,0.0,0.0,0.0,0.0,-0.1505,0.9711,-0.1020,0.3968,0.5379,-0.5747,-0.4721
231,0.0,0.0,0.0,0.0,0.0,0.0,-0.1403,0.9697,-0.1026,0.3967,0.5374,-0.5762,-0.4710
232,0.0,0.0,0.0,0.0,0.0,0.0,-0.1408,0.9657,-0.1070,0.3960,0.5371,-0.5782,-0.4695
233,0.0,0.0,0.0,0.0,0.0,0.0,-0.1272,0.9804,-0.1031,0.3959,0.5361,-0.5805,-0.4679
234,0.0,0.0,0.0,0.0,0.0,0.0,-0.1282,0.9852,-0.1060,0.3962,0.5353,-0.5823,-0.4663
235,0.0,0.0,0.0,0.0,0.0,0.0,-0.1354,0.9827,-0.1108,0.3970,0.5346,-0.5838,-0.4646
236,0.0,0.0,0.0,0.0,0.0,0.0,-0.1335,0.9964,-0.1054,0.3978,0.5340,-0.5852,-0.4629
237,0.0,0.0,0.0,0.0,0.0,0.0,-0.1350,0.9921,-0.1040,0.3987,0.5334,-0.5861,-0.4616
238,0.0,0.0,0.0,0.0,0.0,0.0,-0.1389,0.9838,-0.1064,0.3997,0.5328,-0.5865,-0.4609
239,0.0,0.0,0.0,0.0,0.0,0.0,-0.1360,0.9857,-0.1035,0.4004,0.5325,-0.5867,-0.4604
240,0.0,0.0,0.0,0.0,0.0,0.0,-0.1345,0.9901,-0.1045,0.4015,0.5321,-0.5859,-0.4608
241,0.0,0.0,0.0,0.0,0.0,0.0,-0.1335,0.9803,-0.1104,0.4031,0.5323,-0.5848,-0.4607
242,0.0,0.0,0.0,0.0,0.0,0.0,-0.1296,0.9847,-0.1065,0.4049,0.5328,-0.5832,-0.4605
243,0.0,0.0,0.0,0.0,0.0,0.0,-0.1238,0.9857,-0.1061,0.4067,0.5330,-0.5813,-0.4610
244,0.0,0.0,0.0,0.0,0.0,0.0,-0.1252,0.9842,-0.1070,0.4086,0.5330,-0.5790,-0.4623
245,0.0,0.0,0.0,0.0,0.0,0.0,-0.1327,1.0122,-0.0830,0.4106,0.5325,-0.5762,-0.4646
246,0.0,0.0,0.0,0.0,0.0,0.0,-0.1606,1.0241,-0.0536,0.4135,0.5313,-0.5720,-0.4686
247,0.0,0.0,0.0,0.0,0.0,0.0,-0.1472,0.9732,-0.0846,0.4174,0.5299,-0.5664,-0.4735
248,0.0,0.0,0.0,0.0,0.0,0.0,-0.1310,0.9370,-0.1000,0.4212,0.5294,-0.5612,-0.4768
249,0.0,0.0,0.0,0.0,0.0,0.0,-0.1428,0.9445,-0.0756,0.4232,0.5300,-0.5582,-0.4779
250,0.0,0.0,0.0,0.0,0.0,0.0,-0.1555,0.9646,-0.0672,0.4243,0.5312,-0.5558,-0.4785
251,0.0,0.0,0.0,0.0,0.0,0.0,-0.1370,0.9484,-0.0800,0.4251,0.5330,-0.5539,-0.4778
252,0.0,0.0,0.0,0.0,0.0,0.0,-0.1248,0.9644,-0.0839,0.4259,0.5340,-0.5535,-0.4765
253,0.0,0.0,0.0,0.0,0.0,0.0,-0.1561,0.9856,-0.0641,0.4252,0.5345,-0.5554,-0.4744
254,0.0,0.0,0.0,0.0,0.0,0.0,-0.1784,0.9807,-0.0688,0.4241,0.5354,-0.5565,-0.4731
255,0.0,0.0,0.0,0.0,0.0,0.0,-0.1473,1.0050,-0.0703,0.4255,0.5357,-0.5551,-0.4731
256,0.0,0.0,0.0,0.0,0.0,0.0,-0.1639,1.0163,-0.0556,0.4261,0.5352,-0.5546,-0.4736
257,0.0,0.0,0.0,0.0,0.0,0.0,-0.1872,0.9856,-0.0599,0.4253,0.5354,-0.5545,-0.4744
258,0.0,0.0,0.0,0.0,0.0,0.0,-0.1643,0.9704,-0.0743,0.4247,0.5361,-0.5535,-0.4752
259,0.0,0.0,0.0,0.0,0.0,0.0,-0.1263,0.9723,-0.0698,0.4247,0.5362,-0.5530,-0.4757
260,0.0,0.0,0.0,0.0,0.0,0.0,-0.1336,0.9528,-0.0771,0.4237,0.5360,-0.5539,-0.4758
261,0.0,0.0,0.0,0.0,0.0,0.0,-0.1403,0.9327,-0.0922,0.4219,0.5368,-0.5554,-0.4747
262,0.0,0.0,0.0,0.0,0.0,0.0,-0.1350,0.9581,-0.0868,0.4194,0.5382,-0.5584,-0.4718
263,0.0,0.0,0.0,0.0,0.0,0.0,-0.1618,0.9825,-0.0830,0.4149,0.5401,-0.5637,-0.4674
264,0.0,0.0,0.0,0.0,0.0,0.0,-0.1477,0.9775,-0.0943,0.4110,0.5417,-0.5683,-0.4633
265,0.0,0.0,0.0,0.0,0.0,0.0,-0.1024,1.0154,-0.0997,0.4111,0.5416,-0.5703,-0.4609
266,0.0,0.0,0.0,0.0,0.0,0.0,-0.0995,1.0266,-0.1065,0.4127,0.5404,-0.5707,-0.4604
267,0.0,0.0,0.0,0.0,0.0,0.0,-0.1483,1.0590,-0.0821,0.4149,0.5389,-0.5694,-0.4617
268,0.0,0.0,0.0,0.0,0.0,0.0,-0.1863,1.0319,-0.0611,0.4169,0.5381,-0.5669,-0.4639
269,0.0,0.0,0.0,0.0,0.0,0.0,-0.1423,0.9604,-0.0988,0.4174,0.5372,-0.5644,-0.4677
270,0.0,0.0,0.0,0.0,0.0,0.0,-0.1297,0.9869,-0.0798,0.4173,0.5354,-0.5630,-0.4714
271,0.0,0.0,0.0,0.0,0.0,0.0,-0.1561,0.9846,-0.0627,0.4160,0.5341,-0.5625,-0.4746
272,0.0,0.0,0.0,0.0,0.0,0.0,-0.1549,0.9347,-0.0935,0.4149,0.5346,-0.5616,-0.4761
273,0.0,0.0,0.0,0.0,0.0,0.0,-0.1193,0.9317,-0.0987,0.4158,0.5357,-0.5602,-0.4757
274,0.0,0.0,0.0,0.0,0.0,0.0,-0.1069,0.9703,-0.0724,0.4175,0.5358,-0.5595,-0.4749
275,0.0,0.0,0.0,0.0,0.0,0.0,-0.1386,0.9875,-0.0594,0.4182,0.5357,-0.5601,-0.4738
276,0.0,0.0,0.0,0.0,0.0,0.0,-0.1697,0.9900,-0.0620,0.4169,0.5359,-0.5612,-0.4733
277,0.0,0.0,0.0,0.0,0.0,0.0,-0.1541,0.9904,-0.0641,0.4155,0.5353,-0.5622,-0.4741
278,0.0,0.0,0.0,0.0,0.0,0.0,-0.1268,0.9747,-0.0722,0.4142,0.5339,-0.5639,-0.4748
279,0.0,0.0,0.0,0.0,0.0,0.0,-0.1268,0.9732,-0.0804,0.4135,0.5328,-0.5650,-0.4753
280,0.0,0.0,0.0,0.0,0.0,0.0,-0.1448,0.9816,-0.0749,0.4135,0.5321,-0.5657,-0.4753
281,0.0,0.0,0.0,0.0,0.0,0.0,-0.1404,0.9801,-0.0764,0.4137,0.5316,-0.5664,-0.4748
282,0.0,0.0,0.0,0.0,0.0,0.0,-0.1346,0.9850,-0.0725,0.4141,0.5317,-0.5666,-0.4742
283,0.0,0.0,0.0,0.0,0.0,0.0,-0.1434,0.9860,-0.0749,0.4139,0.5321,-0.5666,-0.4738
284,0.0,0.0,0.0,0.0,0.0,0.0,-0.1477,0.9898,-0.0806,0.4128,0.5325,-0.5671,-0.4737
285,0.0,0.0,0.0,0.0,0.0,0.0,-0.1429,0.9913,-0.0777,0.4117,0.5333,-0.5673,-0.4735
286,0.0,0.0,0.0,0.0,0.0,0.0,-0.1414,0.9834,-0.0851,0.4105,0.5343,-0.5677,-0.4731
287,0.0,0.0,0.0,0.0,0.0,0.0,-0.1384,0.9815,-0.0885,0.4093,0.5355,-0.5681,-0.4722
288,0.0,0.0,0.0,0.0,0.0,0.0,-0.1409,0.9824,-0.0899,0.4086,0.5368,-0.5682,-0.4713
289,0.0,0.0,0.0,0.0,0.0,0.0,-0.1467,0.9780,-0.0967,0.4079,0.5378,-0.5683,-0.4706
290,0.0,0.0,0.0,0.0,0.0,0.0,-0.1516,0.9849,-0.0898,0.4069,0.5386,-0.5688,-0.4698
291,0.0,0.0,0.0,0.0,0.0,0.0,-0.1545,0.9771,-0.0913,0.4057,0.5393,-0.5696,-0.4692
292,0.0,0.0,0.0,0.0,0.0,0.0,-0.1471,0.9677,-0.1011,0.4044,0.5398,-0.5702,-0.4690
293,0.0,0.0,0.0,0.0,0.0,0.0,-0.1408,0.9785,-0.0967,0.4036,0.5399,-0.5709,-0.4687
294,0.0,0.0,0.0,0.0,0.0,0.0,-0.1467,0.9804,-0.0947,0.4033,0.5396,-0.5714,-0.4686
295,0.0,0.0,0.0,0.0,0.0,0.0,-0.1511,0.9790,-0.0966,0.4035,0.5395,-0.5713,-0.4688
296,0.0,0.0,0.0,0.0,0.0,0.0,-0.1496,0.9868,-0.0908,0.4039,0.5394,-0.5711,-0.4688
297,0.0,0.0,0.0,0.0,0.0,0.0,-0.1467,0.9771,-0.0919,0.4045,0.5390,-0.5705,-0.4694
298,0.0,0.0,0.0,0.0,0.0,0.0,-0.1496,0.9722,-0.0962,0.4049,0.5384,-0.5700,-0.4704
299,0.0,0.0,0.0,0.0,0.0,0.0,-0.1531,0.9888,-0.0830,0.4052,0.5376,-0.5697,-0.4714
300,0.0,0.0,0.0,0.0,0.0,0.0,-0.1560,0.9898,-0.0830,0.4055,0.5371,-0.5688,-0.4728
301,0.0,0.0,0.0,0.0,0.0,0.0,-0.1530,0.9737,-0.0889,0.4059,0.5366,-0.5680,-0.4740
302,0.0,0.0,0.0,0.0,0.0,0.0,-0.1414,0.9742,-0.0871,0.4065,0.5359,-0.5674,-0.4749
303,0.0,0.0,0.0,0.0,0.0,0.0,-0.1419,0.9903,-0.0811,0.4075,0.5352,-0.5667,-0.4758
304,0.0,0.0,0.0,0.0,0.0,0.0,-0.1498,1.0031,-0.0684,0.4087,0.5345,-0.5659,-0.4764
305,0.0,0.0,0.0,0.0,0.0,0.0,-0.1556,1.0031,-0.0635,0.4101,0.5342,-0.5647,-0.4771
306,0.0,0.0,0.0,0.0,0.0,0.0,-0.1503,1.0002,-0.0631,0.4117,0.5339,-0.5631,-0.4779
307,0.0,0.0,0.0,0.0,0.0,0.0,-0.1458,0.9899,-0.0656,0.4129,0.5334,-0.5619,-0.4788
308,0.0,0.0,0.0,0.0,0.0,0.0,-0.1526,0.9743,-0.0676,0.4140,0.5330,-0.5609,-0.4795
309,0.0,0.0,0.0,0.0,0.0,0.0,-0.1614,0.9748,-0.0656,0.4151,0.5333,-0.5592,-0.4802
310,0.0,0.0,0.0,0.0,0.0,0.0,-0.1619,0.9763,-0.0651,0.4159,0.5339,-0.5577,-0.4805
311,0.0,0.0,0.0,0.0,0.0,0.0,-0.1619,0.9646,-0.0671,0.4160,0.5348,-0.5566,-0.4807
312,0.0,0.0,0.0,0.0,0.0,0.0,-0.1618,0.9572,-0.0744,0.4157,0.5356,-0.5557,-0.4812
313,0.0,0.0,0.0,0.0,0.0,0.0,-0.1696,0.9558,-0.0724,0.4150,0.5359,-0.5556,-0.4816
314,0.0,0.0,0.0,0.0,0.0,0.0,-0.1769,0.9607,-0.0689,0.4140,0.5362,-0.5561,-0.4816
315,0.0,0.0,0.0,0.0,0.0,0.0,-0.1789,0.9666,-0.0660,0.4135,0.5366,-0.5563,-0.4813
316,0.0,0.0,0.0,0.0,0.0,0.0,-0.1735,0.9636,-0.0670,0.4132,0.5369,-0.5567,-0.4807
317,0.0,0.0,0.0,0.0,0.0,0.0,-0.1730,0.9597,-0.0704,0.4126,0.5373,-0.5575,-0.4798
318,0.0,0.0,0.0,0.0,0.0,0.0,-0.1750,0.9587,-0.0723,0.4120,0.5376,-0.5585,-0.4789
319,0.0,0.0,0.0,0.0,0.0,0.0,-0.1682,0.9705,-0.0665,0.4109,0.5373,-0.5605,-0.4779
320,0.0,0.0,0.0,0.0,0.0,0.0,-0.1648,0.9734,-0.0680,0.4098,0.5364,-0.5624,-0.4775
321,0.0,0.0,0.0,0.0,0.0,0.0,-0.1628,0.9758,-0.0675,0.4087,0.5351,-0.5645,-0.4775
322,0.0,0.0,0.0,0.0,0.0,0.0,-0.1497,0.9758,-0.0671,0.4085,0.5335,-0.5666,-0.4769
323,0.0,0.0,0.0,0.0,0.0,0.0,-0.1546,1.0006,-0.0747,0.4085,0.5322,-0.5678,-0.4770
324,0.0,0.0,0.0,0.0,0.0,0.0,-0.1728,1.0365,-0.0273,0.4110,0.5317,-0.5662,-0.4772
325,0.0,0.0,0.0,0.0,0.0,0.0,-0.1492,0.9787,-0.0637,0.4143,0.5317,-0.5637,-0.4775
326,0.0,0.0,0.0,0.0,0.0,0.0,-0.1263,0.9625,-0.0805,0.4162,0.5320,-0.5621,-0.4772
327,0.0,0.0,0.0,0.0,0.0,0.0,-0.1425,0.9919,-0.0637,0.4167,0.5326,-0.5622,-0.4761
328,0.0,0.0,0.0,0.0,0.0,0.0,-0.1444,0.9948,-0.0666,0.4167,0.5333,-0.5620,-0.4756
329,0.0,0.0,0.0,0.0,0.0,0.0,-0.1546,0.9826,-0.0666,0.4167,0.5342,-0.5611,-0.4755
330,0.0,0.0,0.0,0.0,0.0,0.0,-0.1618,0.9748,-0.0738,0.4184,0.5357,-0.5583,-0.4757
331,0.0,0.0,0.0,0.0,0.0,0.0,-0.1547,1.0095,-0.0494,0.4183,0.5364,-0.5583,-0.4750
332,0.0,0.0,0.0,0.0,0.0,0.0,-0.1766,1.0003,-0.0459,0.4187,0.5368,-0.5570,-0.4757
333,0.0,0.0,0.0,0.0,0.0,0.0,-0.1433,0.9445,-0.0810,0.4197,0.5364,-0.5545,-0.4781
334,0.0,0.0,0.0,0.0,0.0,0.0,-0.1289,0.9930,-0.0483,0.4215,0.5352,-0.5529,-0.4797
335,0.0,0.0,0.0,0.0,0.0,0.0,-0.1738,1.0049,-0.0275,0.4222,0.5356,-0.5514,-0.4805
336,0.0,0.0,0.0,0.0,0.0,0.0,-0.1805,0.9741,-0.0417,0.4233,0.5369,-0.5487,-0.4811
337,0.0,0.0,0.0,0.0,0.0,0.0,-0.1352,0.9822,-0.0478,0.4260,0.5378,-0.5459,-0.4809
338,0.0,0.0,0.0,0.0,0.0,0.0,-0.1609,0.9739,-0.0564,0.4269,0.5389,-0.5447,-0.4803
339,0.0,0.0,0.0,0.0,0.0,0.0,-0.1907,0.9760,-0.0435,0.4274,0.5402,-0.5437,-0.4793
340,0.0,0.0,0.0,0.0,0.0,0.0,-0.1877,0.9769,-0.0503,0.4286,0.5420,-0.5418,-0.4785
341,0.0,0.0,0.0,0.0,0.0,0.0,-0.1662,0.9374,-0.0624,0.4292,0.5437,-0.5408,-0.4772
342,0.0,0.0,0.0,0.0,0.0,0.0,-0.1579,0.9465,-0.0726,0.4290,0.5437,-0.5417,-0.4763
343,0.0,0.0,0.0,0.0,0.0,0.0,-0.1864,0.9975,-0.0405,0.4260,0.5439,-0.5455,-0.4744
344,0.0,0.0,0.0,0.0,0.0,0.0,-0.2087,0.9852,-0.0559,0.4227,0.5460,-0.5479,-0.4723
345,0.0,0.0,0.0,0.0,0.0,0.0,-0.1524,0.9307,-0.1066,0.4200,0.5483,-0.5495,-0.4700
346,0.0,0.0,0.0,0.0,0.0,0.0,-0.1409,0.9790,-0.0900,0.4174,0.5501,-0.5516,-0.4678
347,0.0,0.0,0.0,0.0,0.0,0.0,-0.1790,1.0197,-0.0588,0.4143,0.5514,-0.5540,-0.4663
348,0.0,0.0,0.0,0.0,0.0,0.0,-0.1984,1.0026,-0.0752,0.4117,0.5515,-0.5548,-0.4675
349,0.0,0.0,0.0,0.0,0.0,0.0,-0.1720,0.9708,-0.0897,0.4093,0.5516,-0.5552,-0.4690
350,0.0,0.0,0.0,0.0,0.0,0.0,-0.1408,0.9785,-0.0953,0.4077,0.5515,-0.5559,-0.4696
351,0.0,0.0,0.0,0.0,0.0,0.0,-0.1521,0.9824,-0.0927,0.4065,0.5509,-0.5569,-0.4701
352,0.0,0.0,0.0,0.0,0.0,0.0,-0.1622,0.9668,-0.0923,0.4067,0.5504,-0.5571,-0.4704
353,0.0,0.0,0.0,0.0,0.0,0.0,-0.1560,0.9839,-0.0878,0.4083,0.5503,-0.5562,-0.4702
354,0.0,0.0,0.0,0.0,0.0,0.0,-0.1638,0.9830,-0.0834,0.4097,0.5501,-0.5556,-0.4700
355,0.0,0.0,0.0,0.0,0.0,0.0,-0.1725,0.9835,-0.0858,0.4106,0.5494,-0.5551,-0.4707
356,0.0,0.0,0.0,0.0,0.0,0.0,-0.1618,0.9855,-0.0786,0.4116,0.5483,-0.5546,-0.4716
357,0.0,0.0,0.0,0.0,0.0,0.0,-0.1560,0.9810,-0.0821,0.4126,0.5469,-0.5544,-0.4725
358,0.0,0.0,0.0,0.0,0.0,0.0,-0.1629,0.9880,-0.0679,0.4142,0.5459,-0.5538,-0.4730
359,0.0,0.0,0.0,0.0,0.0,0.0,-0.1789,0.9753,-0.0756,0.4163,0.5451,-0.5525,-0.4737
360,0.0,0.0,0.0,0.0,0.0,0.0,-0.1765,0.9743,-0.0688,0.4184,0.5444,-0.5510,-0.4742
361,0.0,0.0,0.0,0.0,0.0,0.0,-0.1707,0.9842,-0.0553,0.4202,0.5438,-0.5499,-0.4746
362,0.0,0.0,0.0,0.0,0.0,0.0,-0.1599,0.9533,-0.0730,0.4209,0.5435,-0.5497,-0.4746
363,0.0,0.0,0.0,0.0,0.0,0.0,-0.1477,0.9563,-0.0707,0.4217,0.5435,-0.5496,-0.4740
364,0.0,0.0,0.0,0.0,0.0,0.0,-0.1726,0.9866,-0.0635,0.4213,0.5436,-0.5505,-0.4732
365,0.0,0.0,0.0,0.0,0.0,0.0,-0.1912,0.9994,-0.0496,0.4201,0.5443,-0.5516,-0.4722
366,0.0,0.0,0.0,0.0,0.0,0.0,-0.1882,0.9929,-0.0618,0.4193,0.5457,-0.5515,-0.4714
367,0.0,0.0,0.0,0.0,0.0,0.0,-0.1765,0.9978,-0.0633,0.4193,0.5467,-0.5504,-0.4715
368,0.0,0.0,0.0,0.0,0.0,0.0,-0.1600,0.9841,-0.0583,0.4195,0.5470,-0.5497,-0.4719
369,0.0,0.0,0.0,0.0,0.0,0.0,-0.1627,0.9445,-0.0851,0.4184,0.5475,-0.5499,-0.4721
370,0.0,0.0,0.0,0.0,0.0,0.0,-0.1652,0.9518,-0.0846,0.4167,0.5477,-0.5507,-0.4724
371,0.0,0.0,0.0,0.0,0.0,0.0,-0.1579,0.9733,-0.0787,0.4152,0.5478,-0.5516,-0.4724
372,0.0,0.0,0.0,0.0,0.0,0.0,-0.1457,0.9688,-0.0851,0.4141,0.5479,-0.5531,-0.4715
373,0.0,0.0,0.0,0.0,0.0,0.0,-0.1404,0.9752,-0.0769,0.4135,0.5478,-0.5549,-0.4702
374,0.0,0.0,0.0,0.0,0.0,0.0,-0.1555,0.9874,-0.0772,0.4131,0.5483,-0.5559,-0.4686
375,0.0,0.0,0.0,0.0,0.0,0.0,-0.1691,0.9894,-0.0804,0.4125,0.5489,-0.5568,-0.4674
376,0.0,0.0,0.0,0.0,0.0,0.0,-0.1716,0.9884,-0.0785,0.4121,0.5494,-0.5571,-0.4669
377,0.0,0.0,0.0,0.0,0.0,0.0,-0.1530,0.9727,-0.0909,0.4117,0.5493,-0.5576,-0.4667
378,0.0,0.0,0.0,0.0,0.0,0.0,-0.1462,0.9653,-0.0968,0.4112,0.5487,-0.5584,-0.4668
379,0.0,0.0,0.0,0.0,0.0,0.0,-0.1579,0.9693,-0.0928,0.4110,0.5482,-0.5590,-0.4670
380,0.0,0.0,0.0,0.0,0.0,0.0,-0.1628,0.9825,-0.0878,0.4118,0.5475,-0.5588,-0.4674
381,0.0,0.0,0.0,0.0,0.0,0.0,-0.1696,0.9923,-0.0785,0.4132,0.5468,-0.5583,-0.4675
382,0.0,0.0,0.0,0.0,0.0,0.0,-0.1721,0.9860,-0.0732,0.4146,0.5459,-0.5575,-0.4682
383,0.0,0.0,0.0,0.0,0.0,0.0,-0.1667,0.9679,-0.0825,0.4157,0.5450,-0.5567,-0.4694
384,0.0,0.0,0.0,0.0,0.0,0.0,-0.1657,0.9742,-0.0825,0.4159,0.5443,-0.5562,-0.4705
385,0.0,0.0,0.0,0.0,0.0,0.0,-0.1741,1.0026,-0.0633,0.4170,0.5443,-0.5545,-0.4715
386,0.0,0.0,0.0,0.0,0.0,0.0,-0.1678,1.0061,-0.0605,0.4190,0.5443,-0.5520,-0.4728
387,0.0,0.0,0.0,0.0,0.0,0.0,-0.1536,0.9802,-0.0627,0.4214,0.5444,-0.5494,-0.4735
388,0.0,0.0,0.0,0.0,0.0,0.0,-0.1556,0.9846,-0.0631,0.4233,0.5442,-0.5472,-0.4746
389,0.0,0.0,0.0,0.0,0.0,0.0,-0.1556,0.9753,-0.0617,0.4240,0.5443,-0.5461,-0.4751
390,0.0,0.0,0.0,0.0,0.0,0.0,-0.1496,0.9392,-0.0703,0.4238,0.5449,-0.5457,-0.4751
391,0.0,0.0,0.0,0.0,0.0,0.0,-0.1418,0.9294,-0.0835,0.4228,0.5460,-0.5461,-0.4742
392,0.0,0.0,0.0,0.0,0.0,0.0,-0.1443,0.9465,-0.0746,0.4211,0.5465,-0.5486,-0.4723
393,0.0,0.0,0.0,0.0,0.0,0.0,-0.1716,0.9831,-0.0693,0.4189,0.5469,-0.5520,-0.4698
394,0.0,0.0,0.0,0.0,0.0,0.0,-0.1838,1.0007,-0.0633,0.4179,0.5477,-0.5539,-0.4675
395,0.0,0.0,0.0,0.0,0.0,0.0,-0.1745,0.9889,-0.0746,0.4186,0.5482,-0.5537,-0.4665
396,0.0,0.0,0.0,0.0,0.0,0.0,-0.1686,0.9805,-0.0853,0.4190,0.5484,-0.5538,-0.4658
397,0.0,0.0,0.0,0.0,0.0,0.0,-0.1628,0.9732,-0.0859,0.4184,0.5481,-0.5553,-0.4649
398,0.0,0.0,0.0,0.0,0.0,0.0,-0.1398,0.9561,-0.0969,0.4170,0.5468,-0.5582,-0.4644
399,0.0,0.0,0.0,0.0,0.0,0.0,-0.1302,0.9800,-0.0905,0.4166,0.5451,-0.5607,-0.4636
400,0.0,0.0,0.0,0.0,0.0,0.0,-0.1464,1.0177,-0.0669,0.4184,0.5439,-0.5611,-0.4629
401,0.0,0.0,0.0,0.0,0.0,0.0,-0.1628,0.9933,-0.0771,0.4214,0.5438,-0.5597,-0.4620
402,0.0,0.0,0.0,0.0,0.0,0.0,-0.1478,1.0798,-0.0974,0.4233,0.5440,-0.5590,-0.4609
403,0.0,0.0,0.0,0.0,0.0,0.0,-0.1389,0.9673,-0.0886,0.4227,0.5433,-0.5604,-0.4605
404,0.0,0.0,0.0,0.0,0.0,0.0,-0.1359,0.9643,-0.1051,0.4197,0.5435,-0.5644,-0.4582
405,0.0,0.0,0.0,0.0,0.0,0.0,-0.1239,0.9999,-0.0929,0.4175,0.5423,-0.5684,-0.4567
406,0.0,0.0,0.0,0.0,0.0,0.0,-0.1234,1.0331,-0.0902,0.4191,0.5407,-0.5687,-0.4567
407,0.0,0.0,0.0,0.0,0.0,0.0,-0.1453,1.0141,-0.0955,0.4232,0.5409,-0.5648,-0.4575
408,0.0,0.0,0.0,0.0,0.0,0.0,-0.1444,0.9991,-0.0719,0.4279,0.5408,-0.5598,-0.4595
409,0.0,0.0,0.0,0.0,0.0,0.0,-0.1571,1.0089,-0.0654,0.4308,0.5399,-0.5551,-0.4634
410,0.0,0.0,0.0,0.0,0.0,0.0,-0.1458,0.9786,-0.0783,0.4313,0.5393,-0.5527,-0.4665
411,0.0,0.0,0.0,0.0,0.0,0.0,-0.1356,0.9792,-0.0663,0.4306,0.5375,-0.5519,-0.4702
412,0.0,0.0,0.0,0.0,0.0,0.0,-0.1687,0.9675,-0.0670,0.4295,0.5373,-0.5510,-0.4725
413,0.0,0.0,0.0,0.0,0.0,0.0,-0.1569,0.9514,-0.0735,0.4292,0.5389,-0.5495,-0.4728
414,0.0,0.0,0.0,0.0,0.0,0.0,-0.1220,0.9636,-0.0660,0.4303,0.5407,-0.5480,-0.4713
415,0.0,0.0,0.0,0.0,0.0,0.0,-0.1346,0.9661,-0.0625,0.4310,0.5421,-0.5473,-0.4699
416,0.0,0.0,0.0,0.0,0.0,0.0,-0.1585,0.9793,-0.0559,0.4309,0.5434,-0.5470,-0.4689
417,0.0,0.0,0.0,0.0,0.0,0.0,-0.1561,0.9822,-0.0593,0.4298,0.5443,-0.5473,-0.4685
418,0.0,0.0,0.0,0.0,0.0,0.0,-0.1463,0.9685,-0.0701,0.4275,0.5442,-0.5491,-0.4686
419,0.0,0.0,0.0,0.0,0.0,0.0,-0.1576,0.9992,-0.0606,0.4253,0.5439,-0.5512,-0.4684
420,0.0,0.0,0.0,0.0,0.0,0.0,-0.1644,1.0115,-0.0503,0.4247,0.5440,-0.5519,-0.4681
421,0.0,0.0,0.0,0.0,0.0,0.0,-0.1565,0.9752,-0.0768,0.4250,0.5445,-0.5512,-0.4680
422,0.0,0.0,0.0,0.0,0.0,0.0,-0.1423,0.9674,-0.0803,0.4257,0.5450,-0.5505,-0.4677
423,0.0,0.0,0.0,0.0,0.0,0.0,-0.1498,0.9978,-0.0592,0.4259,0.5450,-0.5502,-0.4678
424,0.0,0.0,0.0,0.0,0.0,0.0,-0.1532,0.9939,-0.0592,0.4258,0.5442,-0.5502,-0.4689
425,0.0,0.0,0.0,0.0,0.0,0.0,-0.1507,0.9758,-0.0720,0.4255,0.5433,-0.5501,-0.4702
426,0.0,0.0,0.0,0.0,0.0,0.0,-0.1405,0.9768,-0.0648,0.4254,0.5425,-0.5502,-0.4712
427,0.0,0.0,0.0,0.0,0.0,0.0,-0.1337,0.9856,-0.0599,0.4256,0.5416,-0.5505,-0.4717
428,0.0,0.0,0.0,0.0,0.0,0.0,-0.1366,0.9802,-0.0614,0.4263,0.5415,-0.5503,-0.4715
429,0.0,0.0,0.0,0.0,0.0,0.0,-0.1355,0.9538,-0.0771,0.4267,0.5419,-0.5499,-0.4710
430,0.0,0.0,0.0,0.0,0.0,0.0,-0.1347,0.9792,-0.0585,0.4267,0.5424,-0.5507,-0.4696
431,0.0,0.0,0.0,0.0,0.0,0.0,-0.1419,0.9758,-0.0624,0.4258,0.5427,-0.5522,-0.4683
432,0.0,0.0,0.0,0.0,0.0,0.0,-0.1351,0.9869,-0.0725,0.4254,0.5423,-0.5531,-0.4680
433,0.0,0.0,0.0,0.0,0.0,0.0,-0.1445,1.0193,-0.0490,0.4258,0.5416,-0.5533,-0.4681
434,0.0,0.0,0.0,0.0,0.0,0.0,-0.1547,0.9920,-0.0524,0.4263,0.5413,-0.5528,-0.4687
435,0.0,0.0,0.0,0.0,0.0,0.0,-0.1395,0.9782,-0.0720,0.4274,0.5415,-0.5513,-0.4692
436,0.0,0.0,0.0,0.0,0.0,0.0,-0.1342,0.9836,-0.0599,0.4279,0.5416,-0.5509,-0.4692
437,0.0,0.0,0.0,0.0,0.0,0.0,-0.1453,0.9753,-0.0633,0.4278,0.5417,-0.5508,-0.4692
438,0.0,0.0,0.0,0.0,0.0,0.0,-0.1448,0.9665,-0.0697,0.4279,0.5424,-0.5502,-0.4690
439,0.0,0.0,0.0,0.0,0.0,0.0,-0.1395,0.9650,-0.0707,0.4274,0.5432,-0.5503,-0.4684
440,0.0,0.0,0.0,0.0,0.0,0.0,-0.1477,0.9733,-0.0701,0.4263,0.5440,-0.5513,-0.4674
441,0.0,0.0,0.0,0.0,0.0,0.0,-0.1682,0.9880,-0.0630,0.4238,0.5453,-0.5536,-0.4653
442,0.0,0.0,0.0,0.0,0.0,0.0,-0.1793,0.9532,-0.0903,0.4196,0.5481,-0.5571,-0.4617
443,0.0,0.0,0.0,0.0,0.0,0.0,-0.1441,0.9311,-0.1130,0.4156,0.5504,-0.5614,-0.4574
444,0.0,0.0,0.0,0.0,0.0,0.0,-0.1296,0.9759,-0.1148,0.4122,0.5519,-0.5662,-0.4527
445,0.0,0.0,0.0,0.0,0.0,0.0,-0.1463,1.0199,-0.0974,0.4098,0.5525,-0.5707,-0.4485
446,0.0,0.0,0.0,0.0,0.0,0.0,-0.1535,1.0169,-0.1007,0.4093,0.5525,-0.5725,-0.4466
447,0.0,0.0,0.0,0.0,0.0,0.0,-0.1437,0.9978,-0.1198,0.4104,0.5531,-0.5721,-0.4454
448,0.0,0.0,0.0,0.0,0.0,0.0,-0.1359,1.0022,-0.1208,0.4105,0.5528,-0.5720,-0.4457
449,0.0,0.0,0.0,0.0,0.0,0.0,-0.1398,0.9866,-0.1229,0.4096,0.5515,-0.5725,-0.4476
450,0.0,0.0,0.0,0.0,0.0,0.0,-0.1295,0.9709,-0.1327,0.4092,0.5504,-0.5724,-0.4495
451,0.0,0.0,0.0,0.0,0.0,0.0,-0.1291,0.9865,-0.1244,0.4101,0.5491,-0.5715,-0.4513
452,0.0,0.0,0.0,0.0,0.0,0.0,-0.1492,1.0146,-0.0945,0.4123,0.5477,-0.5695,-0.4536
453,0.0,0.0,0.0,0.0,0.0,0.0,-0.1584,0.9912,-0.0878,0.4151,0.5466,-0.5663,-0.4564
454,0.0,0.0,0.0,0.0,0.0,0.0,-0.1447,0.9722,-0.0953,0.4178,0.5459,-0.5628,-0.4591
455,0.0,0.0,0.0,0.0,0.0,0.0,-0.1404,0.9815,-0.0807,0.4203,0.5452,-0.5598,-0.4613
456,0.0,0.0,0.0,0.0,0.0,0.0,-0.1389,0.9786,-0.0851,0.4225,0.5444,-0.5566,-0.4639
457,0.0,0.0,0.0,0.0,0.0,0.0,-0.1380,0.9766,-0.0813,0.4245,0.5438,-0.5542,-0.4658
458,0.0,0.0,0.0,0.0,0.0,0.0,-0.1507,0.9738,-0.0710,0.4262,0.5439,-0.5516,-0.4672
459,0.0,0.0,0.0,0.0,0.0,0.0,-0.1541,0.9758,-0.0685,0.4277,0.5444,-0.5487,-0.4686
460,0.0,0.0,0.0,0.0,0.0,0.0,-0.1643,0.9788,-0.0592,0.4279,0.5455,-0.5467,-0.4695
461,0.0,0.0,0.0,0.0,0.0,0.0,-0.1658,0.9676,-0.0578,0.4266,0.5477,-0.5457,-0.4693
462,0.0,0.0,0.0,0.0,0.0,0.0,-0.1521,0.9587,-0.0759,0.4252,0.5499,-0.5451,-0.4687
463,0.0,0.0,0.0,0.0,0.0,0.0,-0.1414,0.9635,-0.0804,0.4233,0.5514,-0.5459,-0.4678
464,0.0,0.0,0.0,0.0,0.0,0.0,-0.1628,0.9694,-0.0816,0.4208,0.5528,-0.5473,-0.4667
465,0.0,0.0,0.0,0.0,0.0,0.0,-0.1837,0.9743,-0.0736,0.4192,0.5546,-0.5474,-0.4659
466,0.0,0.0,0.0,0.0,0.0,0.0,-0.1740,0.9782,-0.0761,0.4184,0.5563,-0.5467,-0.4654
467,0.0,0.0,0.0,0.0,0.0,0.0,-0.1521,0.9659,-0.0851,0.4175,0.5565,-0.5472,-0.4654
468,0.0,0.0,0.0,0.0,0.0,0.0,-0.1695,0.9571,-0.0995,0.4149,0.5566,-0.5490,-0.4655
469,0.0,0.0,0.0,0.0,0.0,0.0,-0.1798,0.9664,-0.0931,0.4123,0.5568,-0.5508,-0.4654
470,0.0,0.0,0.0,0.0,0.0,0.0,-0.1774,0.9766,-0.0911,0.4111,0.5568,-0.5519,-0.4652
471,0.0,0.0,0.0,0.0,0.0,0.0,-0.1744,0.9668,-0.1009,0.4109,0.5570,-0.5522,-0.4648
472,0.0,0.0,0.0,0.0,0.0,0.0,-0.1715,0.9741,-0.0999,0.4106,0.5574,-0.5524,-0.4644
473,0.0,0.0,0.0,0.0,0.0,0.0,-0.1847,0.9849,-0.0939,0.4097,0.5576,-0.5530,-0.4641
474,0.0,0.0,0.0,0.0,0.0,0.0,-0.1783,0.9883,-0.0920,0.4090,0.5574,-0.5534,-0.4645
475,0.0,0.0,0.0,0.0,0.0,0.0,-0.1705,0.9897,-0.0974,0.4084,0.5566,-0.5538,-0.4655
476,0.0,0.0,0.0,0.0,0.0,0.0,-0.1642,0.9824,-0.1004,0.4081,0.5559,-0.5539,-0.4665
477,0.0,0.0,0.0,0.0,0.0,0.0,-0.1603,0.9731,-0.0981,0.4091,0.5551,-0.5533,-0.4672
478,0.0,0.0,0.0,0.0,0.0,0.0,-0.1725,0.9731,-0.0989,0.4104,0.5541,-0.5529,-0.4678
479,0.0,0.0,0.0,0.0,0.0,0.0,-0.1725,0.9761,-0.0955,0.4112,0.5532,-0.5529,-0.4681
480,0.0,0.0,0.0,0.0,0.0,0.0,-0.1794,0.9967,-0.0769,0.4122,0.5518,-0.5528,-0.4690
481,0.0,0.0,0.0,0.0,0.0,0.0,-0.1867,0.9977,-0.0700,0.4145,0.5506,-0.5509,-0.4706
482,0.0,0.0,0.0,0.0,0.0,0.0,-0.1808,0.9748,-0.0804,0.4168,0.5498,-0.5488,-0.4720
483,0.0,0.0,0.0,0.0,0.0,0.0,-0.1725,0.9689,-0.0825,0.4192,0.5489,-0.5465,-0.4737
484,0.0,0.0,0.0,0.0,0.0,0.0,-0.1560,0.9465,-0.0741,0.4203,0.5484,-0.5462,-0.4736
485,0.0,0.0,0.0,0.0,0.0,0.0,-0.1506,0.9411,-0.0824,0.4200,0.5483,-0.5471,-0.4729
486,0.0,0.0,0.0,0.0,0.0,0.0,-0.1472,0.9479,-0.0785,0.4193,0.5480,-0.5493,-0.4713
487,0.0,0.0,0.0,0.0,0.0,0.0,-0.1604,0.9728,-0.0733,0.4195,0.5466,-0.5535,-0.4678
488,0.0,0.0,0.0,0.0,0.0,0.0,-0.1843,0.9988,-0.0618,0.4204,0.5463,-0.5546,-0.4661
489,0.0,0.0,0.0,0.0,0.0,0.0,-0.1697,1.0104,-0.0716,0.4237,0.5450,-0.5532,-0.4663
490,0.0,0.0,0.0,0.0,0.0,0.0,-0.1854,1.0178,-0.0539,0.4276,0.5433,-0.5507,-0.4677
491,0.0,0.0,0.0,0.0,0.0,0.0,-0.1892,0.9915,-0.0521,0.4299,0.5416,-0.5486,-0.4699
492,0.0,0.0,0.0,0.0,0.0,0.0,-0.1424,0.9831,-0.0608,0.4310,0.5396,-0.5478,-0.4722
493,0.0,0.0,0.0,0.0,0.0,0.0,-0.1342,0.9773,-0.0542,0.4313,0.5373,-0.5479,-0.4745
494,0.0,0.0,0.0,0.0,0.0,0.0,-0.1449,0.9666,-0.0561,0.4314,0.5354,-0.5478,-0.4766
495,0.0,0.0,0.0,0.0,0.0,0.0,-0.1405,0.9598,-0.0581,0.4321,0.5355,-0.5472,-0.4766
496,0.0,0.0,0.0,0.0,0.0,0.0,-0.1464,0.9754,-0.0536,0.4320,0.5374,-0.5465,-0.4753
497,0.0,0.0,0.0,0.0,0.0,0.0,-0.1528,0.9931,-0.0316,0.4328,0.5388,-0.5453,-0.4744
498,0.0,0.0,0.0,0.0,0.0,0.0,-0.1542,0.9843,-0.0423,0.4327,0.5397,-0.5451,-0.4736
499,0.0,0.0,0.0,0.0,0.0,0.0,-0.1440,0.9931,-0.0375,0.4326,0.5400,-0.5454,-0.4731
500,0.0,0.0,0.0,0.0,0.0,0.0,-0.1406,0.9872,-0.0439,0.4322,0.5401,-0.5461,-0.4725
501,0.0,0.0,0.0,0.0,0.0,0.0,-0.1468,0.9651,-0.0624,0.4313,0.5410,-0.5470,-0.4713
502,0.0,0.0,0.0,0.0,0.0,0.0,-0.1585,0.9671,-0.0637,0.4304,0.5428,-0.5477,-0.4692
503,0.0,0.0,0.0,0.0,0.0,0.0,-0.1458,0.9549,-0.0634,0.4291,0.5449,-0.5493,-0.4660
504,0.0,0.0,0.0,0.0,0.0,0.0,-0.1370,0.9708,-0.0765,0.4279,0.5464,-0.5506,-0.4639
505,0.0,0.0,0.0,0.0,0.0,0.0,-0.1741,1.0100,-0.0555,0.4254,0.5473,-0.5532,-0.4620
506,0.0,0.0,0.0,0.0,0.0,0.0,-0.1751,1.0256,-0.0559,0.4234,0.5481,-0.5546,-0.4613
507,0.0,0.0,0.0,0.0,0.0,0.0,-0.1541,0.9874,-0.0719,0.4221,0.5487,-0.5548,-0.4615
508,0.0,0.0,0.0,0.0,0.0,0.0,-0.1389,0.9620,-0.0915,0.4220,0.5492,-0.5543,-0.4616
509,0.0,0.0,0.0,0.0,0.0,0.0,-0.1472,0.9678,-0.0924,0.4213,0.5497,-0.5544,-0.4615
510,0.0,0.0,0.0,0.0,0.0,0.0,-0.1458,0.9835,-0.0807,0.4211,0.5499,-0.5545,-0.4613
511,0.0,0.0,0.0,0.0,0.0,0.0,-0.1375,0.9786,-0.0856,0.4205,0.5497,-0.5549,-0.4616
512,0.0,0.0,0.0,0.0,0.0,0.0,-0.1394,0.9585,-0.0940,0.4196,0.5494,-0.5559,-0.4616
513,0.0,0.0,0.0,0.0,0.0,0.0,-0.1452,0.9624,-0.0978,0.4187,0.5492,-0.5570,-0.4614
514,0.0,0.0,0.0,0.0,0.0,0.0,-0.1438,0.9707,-0.0948,0.4185,0.5493,-0.5580,-0.4603
515,0.0,0.0,0.0,0.0,0.0,0.0,-0.1413,0.9716,-0.1002,0.4183,0.5496,-0.5590,-0.4588
516,0.0,0.0,0.0,0.0,0.0,0.0,-0.1486,0.9751,-0.0996,0.4175,0.5501,-0.5603,-0.4573
517,0.0,0.0,0.0,0.0,0.0,0.0,-0.1486,0.9824,-0.0981,0.4163,0.5504,-0.5619,-0.4561
518,0.0,0.0,0.0,0.0,0.0,0.0,-0.1399,0.9921,-0.0938,0.4158,0.5504,-0.5633,-0.4548
519,0.0,0.0,0.0,0.0,0.0,0.0,-0.1369,0.9959,-0.1093,0.4161,0.5502,-0.5635,-0.4545
520,0.0,0.0,0.0,0.0,0.0,0.0,-0.1535,1.0023,-0.1071,0.4163,0.5506,-0.5629,-0.4547
521,0.0,0.0,0.0,0.0,0.0,0.0,-0.1721,1.0083,-0.0880,0.4185,0.5512,-0.5603,-0.4551
522,0.0,0.0,0.0,0.0,0.0,0.0,-0.1511,0.9931,-0.0995,0.4208,0.5516,-0.5574,-0.4560
523,0.0,0.0,0.0,0.0,0.0,0.0,-0.1545,0.9902,-0.0946,0.4217,0.5518,-0.5553,-0.4575
524,0.0,0.0,0.0,0.0,0.0,0.0,-0.1472,0.9751,-0.0953,0.4219,0.5518,-0.5541,-0.4588
525,0.0,0.0,0.0,0.0,0.0,0.0,-0.1485,0.9555,-0.1060,0.4210,0.5521,-0.5539,-0.4595
526,0.0,0.0,0.0,0.0,0.0,0.0,-0.1651,0.9604,-0.1044,0.4198,0.5534,-0.5537,-0.4592
527,0.0,0.0,0.0,0.0,0.0,0.0,-0.1565,0.9878,-0.0854,0.4198,0.5551,-0.5528,-0.4582
528,0.0,0.0,0.0,0.0,0.0,0.0,-0.1579,0.9644,-0.0952,0.4196,0.5573,-0.5521,-0.4567
529,0.0,0.0,0.0,0.0,0.0,0.0,-0.1558,0.9330,-0.1197,0.4167,0.5594,-0.5535,-0.4551
530,0.0,0.0,0.0,0.0,0.0,0.0,-0.1525,0.9663,-0.1050,0.4130,0.5599,-0.5564,-0.4543
531,0.0,0.0,0.0,0.0,0.0,0.0,-0.1521,0.9917,-0.0951,0.4096,0.5591,-0.5600,-0.4539
532,0.0,0.0,0.0,0.0,0.0,0.0,-0.1666,0.9877,-0.1042,0.4078,0.5584,-0.5619,-0.4540
533,0.0,0.0,0.0,0.0,0.0,0.0,-0.1480,0.9612,-0.1225,0.4078,0.5581,-0.5624,-0.4538
534,0.0,0.0,0.0,0.0,0.0,0.0,-0.1466,0.9671,-0.1205,0.4077,0.5579,-0.5636,-0.4526
535,0.0,0.0,0.0,0.0,0.0,0.0,-0.1612,0.9769,-0.1106,0.4076,0.5576,-0.5648,-0.4517
536,0.0,0.0,0.0,0.0,0.0,0.0,-0.1524,0.9871,-0.1203,0.4075,0.5570,-0.5659,-0.4511
537,0.0,0.0,0.0,0.0,0.0,0.0,-0.1413,0.9881,-0.1136,0.4072,0.5556,-0.5677,-0.4508
538,0.0,0.0,0.0,0.0,0.0,0.0,-0.1480,0.9700,-0.1234,0.4072,0.5541,-0.5689,-0.4511
539,0.0,0.0,0.0,0.0,0.0,0.0,-0.1514,0.9729,-0.1253,0.4071,0.5533,-0.5699,-0.4510
540,0.0,0.0,0.0,0.0,0.0,0.0,-0.1452,0.9857,-0.1136,0.4084,0.5527,-0.5698,-0.4506
541,0.0,0.0,0.0,0.0,0.0,0.0,-0.1223,0.9876,-0.1119,0.4117,0.5517,-0.5682,-0.4508
542,0.0,0.0,0.0,0.0,0.0,0.0,-0.1233,0.9832,-0.1129,0.4140,0.5508,-0.5670,-0.4513
543,0.0,0.0,0.0,0.0,0.0,0.0,-0.1394,0.9814,-0.0962,0.4165,0.5507,-0.5648,-0.4520
544,0.0,0.0,0.0,0.0,0.0,0.0,-0.1549,0.9769,-0.1082,0.4186,0.5507,-0.5618,-0.4537
545,0.0,0.0,0.0,0.0,0.0,0.0,-0.1720,0.9815,-0.0940,0.4195,0.5509,-0.5598,-0.4551
546,0.0,0.0,0.0,0.0,0.0,0.0,-0.1667,0.9801,-0.0829,0.4209,0.5510,-0.5574,-0.4567
547,0.0,0.0,0.0,0.0,0.0,0.0,-0.1525,0.9682,-0.1030,0.4228,0.5509,-0.5547,-0.4583
548,0.0,0.0,0.0,0.0,0.0,0.0,-0.1482,0.9771,-0.0894,0.4249,0.5509,-0.5526,-0.4590
549,0.0,0.0,0.0,0.0,0.0,0.0,-0.1604,0.9850,-0.0752,0.4268,0.5503,-0.5509,-0.4599
550,0.0,0.0,0.0,0.0,0.0,0.0,-0.1769,0.9737,-0.0863,0.4278,0.5506,-0.5491,-0.4608
551,0.0,0.0,0.0,0.0,0.0,0.0,-0.1691,0.9840,-0.0780,0.4293,0.5514,-0.5465,-0.4615
552,0.0,0.0,0.0,0.0,0.0,0.0,-0.1517,0.9938,-0.0733,0.4307,0.5515,-0.5446,-0.4623
553,0.0,0.0,0.0,0.0,0.0,0.0,-0.1619,0.9860,-0.0684,0.4311,0.5509,-0.5437,-0.4638
554,0.0,0.0,0.0,0.0,0.0,0.0,-0.1677,0.9704,-0.0685,0.4312,0.5507,-0.5431,-0.4646
555,0.0,0.0,0.0,0.0,0.0,0.0,-0.1379,0.9455,-0.0825,0.4311,0.5507,-0.5432,-0.4646
556,0.0,0.0,0.0,0.0,0.0,0.0,-0.1428,0.9508,-0.0867,0.4306,0.5509,-0.5441,-0.4637
557,0.0,0.0,0.0,0.0,0.0,0.0,-0.1608,0.9450,-0.0784,0.4289,0.5522,-0.5462,-0.4613
558,0.0,0.0,0.0,0.0,0.0,0.0,-0.1579,0.9777,-0.0767,0.4275,0.5537,-0.5485,-0.4580
559,0.0,0.0,0.0,0.0,0.0,0.0,-0.1754,0.9796,-0.0838,0.4244,0.5555,-0.5523,-0.4541
560,0.0,0.0,0.0,0.0,0.0,0.0,-0.1476,0.9780,-0.0981,0.4219,0.5559,-0.5558,-0.4517
561,0.0,0.0,0.0,0.0,0.0,0.0,-0.1384,1.0130,-0.1028,0.4215,0.5550,-0.5577,-0.4509
562,0.0,0.0,0.0,0.0,0.0,0.0,-0.1609,1.0156,-0.0866,0.4203,0.5539,-0.5598,-0.4507
563,0.0,0.0,0.0,0.0,0.0,0.0,-0.1588,0.9838,-0.1019,0.4192,0.5533,-0.5610,-0.4510
564,0.0,0.0,0.0,0.0,0.0,0.0,-0.1387,0.9432,-0.1299,0.4181,0.5533,-0.5617,-0.4511
565,0.0,0.0,0.0,0.0,0.0,0.0,-0.1096,0.9627,-0.1233,0.4168,0.5522,-0.5639,-0.4509
566,0.0,0.0,0.0,0.0,0.0,0.0,-0.1292,0.9960,-0.1025,0.4157,0.5508,-0.5664,-0.4505
567,0.0,0.0,0.0,0.0,0.0,0.0,-0.1383,0.9808,-0.1122,0.4147,0.5499,-0.5686,-0.4498
568,0.0,0.0,0.0,0.0,0.0,0.0,-0.1345,0.9876,-0.1122,0.4147,0.5494,-0.5695,-0.4493
569,0.0,0.0,0.0,0.0,0.0,0.0,-0.1369,0.9827,-0.1132,0.4147,0.5487,-0.5705,-0.4488
570,0.0,0.0,0.0,0.0,0.0,0.0,-0.1354,0.9676,-0.1211,0.4138,0.5478,-0.5722,-0.4486
571,0.0,0.0,0.0,0.0,0.0,0.0,-0.1246,0.9685,-0.1255,0.4125,0.5468,-0.5746,-0.4479
572,0.0,0.0,0.0,0.0,0.0,0.0,-0.1247,0.9793,-0.1201,0.4109,0.5464,-0.5773,-0.4465
573,0.0,0.0,0.0,0.0,0.0,0.0,-0.1349,0.9886,-0.1156,0.4104,0.5462,-0.5790,-0.4450
574,0.0,0.0,0.0,0.0,0.0,0.0,-0.1242,0.9865,-0.1230,0.4104,0.5457,-0.5801,-0.4441
575,0.0,0.0,0.0,0.0,0.0,0.0,-0.1140,0.9909,-0.1245,0.4107,0.5452,-0.5808,-0.4436
576,0.0,0.0,0.0,0.0,0.0,0.0,-0.1267,1.0091,-0.1083,0.4112,0.5447,-0.5811,-0.4434
577,0.0,0.0,0.0,0.0,0.0,0.0,-0.1271,0.9924,-0.1195,0.4117,0.5442,-0.5808,-0.4438
578,0.0,0.0,0.0,0.0,0.0,0.0,-0.1193,0.9875,-0.1216,0.4124,0.5442,-0.5799,-0.4444
579,0.0,0.0,0.0,0.0,0.0,0.0,-0.1101,0.9822,-0.1193,0.4134,0.5441,-0.5788,-0.4450
580,0.0,0.0,0.0,0.0,0.0,0.0,-0.1115,0.9778,-0.1207,0.4147,0.5433,-0.5775,-0.4465
581,0.0,0.0,0.0,0.0,0.0,0.0,-0.1033,0.9783,-0.1179,0.4168,0.5425,-0.5757,-0.4478
582,0.0,0.0,0.0,0.0,0.0,0.0,-0.0989,0.9846,-0.1111,0.4196,0.5416,-0.5733,-0.4495
583,0.0,0.0,0.0,0.0,0.0,0.0,-0.1219,0.9960,-0.0900,0.4238,0.5403,-0.5689,-0.4525
584,0.0,0.0,0.0,0.0,0.0,0.0,-0.1473,1.0035,-0.0737,0.4279,0.5386,-0.5643,-0.4565
585,0.0,0.0,0.0,0.0,0.0,0.0,-0.1697,1.0007,-0.0610,0.4305,0.5376,-0.5601,-0.4603
586,0.0,0.0,0.0,0.0,0.0,0.0,-0.1657,0.9695,-0.0699,0.4314,0.5384,-0.5563,-0.4632
587,0.0,0.0,0.0,0.0,0.0,0.0,-0.1203,0.9264,-0.0929,0.4318,0.5400,-0.5537,-0.4640
588,0.0,0.0,0.0,0.0,0.0,0.0,-0.0955,0.9336,-0.1038,0.4305,0.5415,-0.5542,-0.4630
589,0.0,0.0,0.0,0.0,0.0,0.0,-0.1453,0.9806,-0.0720,0.4271,0.5433,-0.5569,-0.4607
590,0.0,0.0,0.0,0.0,0.0,0.0,-0.1751,1.0042,-0.0517,0.4246,0.5452,-0.5584,-0.4590
591,0.0,0.0,0.0,0.0,0.0,0.0,-0.1479,1.0333,-0.0605,0.4255,0.5458,-0.5565,-0.4597
592,0.0,0.0,0.0,0.0,0.0,0.0,-0.1298,0.9923,-0.0657,0.4256,0.5461,-0.5557,-0.4602
593,0.0,0.0,0.0,0.0,0.0,0.0,-0.1447,0.9586,-0.0896,0.4249,0.5468,-0.5547,-0.4613
594,0.0,0.0,0.0,0.0,0.0,0.0,-0.1643,0.9786,-0.0834,0.4240,0.5484,-0.5528,-0.4625
595,0.0,0.0,0.0,0.0,0.0,0.0,-0.1761,0.9949,-0.0576,0.4237,0.5498,-0.5502,-0.4642
596,0.0,0.0,0.0,0.0,0.0,0.0,-0.1720,0.9592,-0.0733,0.4233,0.5512,-0.5478,-0.4657
597,0.0,0.0,0.0,0.0,0.0,0.0,-0.1458,0.9528,-0.0736,0.4236,0.5526,-0.5455,-0.4665
598,0.0,0.0,0.0,0.0,0.0,0.0,-0.1433,0.9582,-0.0765,0.4230,0.5540,-0.5447,-0.4664
599,0.0,0.0,0.0,0.0,0.0,0.0,-0.1467,0.9587,-0.0765,0.4219,0.5545,-0.5455,-0.4657
600,0.0,0.0,0.0,0.0,0.0,0.0,-0.1584,0.9645,-0.0792,0.4208,0.5552,-0.5467,-0.4646
601,0.0,0.0,0.0,0.0,0.0,0.0,-0.1516,0.9772,-0.0763,0.4200,0.5557,-0.5483,-0.4627
602,0.0,0.0,0.0,0.0,0.0,0.0,-0.1209,0.9712,-0.0863,0.4198,0.5553,-0.5511,-0.4600
603,0.0,0.0,0.0,0.0,0.0,0.0,-0.1257,0.9663,-0.0999,0.4190,0.5539,-0.5550,-0.4577
604,0.0,0.0,0.0,0.0,0.0,0.0,-0.1447,0.9858,-0.0996,0.4182,0.5516,-0.5597,-0.4557
605,0.0,0.0,0.0,0.0,0.0,0.0,-0.1491,1.0009,-0.1004,0.4183,0.5492,-0.5636,-0.4535
606,0.0,0.0,0.0,0.0,0.0,0.0,-0.1692,1.0147,-0.0836,0.4193,0.5477,-0.5652,-0.4525
607,0.0,0.0,0.0,0.0,0.0,0.0,-0.1857,1.0083,-0.0855,0.4210,0.5476,-0.5634,-0.4533
608,0.0,0.0,0.0,0.0,0.0,0.0,-0.1594,0.9814,-0.0932,0.4219,0.5484,-0.5617,-0.4536
609,0.0,0.0,0.0,0.0,0.0,0.0,-0.1452,0.9834,-0.0947,0.4211,0.5488,-0.5616,-0.4540
610,0.0,0.0,0.0,0.0,0.0,0.0,-0.1184,0.9686,-0.1043,0.4204,0.5489,-0.5621,-0.4538
611,0.0,0.0,0.0,0.0,0.0,0.0,-0.0979,0.9510,-0.1201,0.4204,0.5483,-0.5632,-0.4532
612,0.0,0.0,0.0,0.0,0.0,0.0,-0.1432,0.9721,-0.1079,0.4195,0.5481,-0.5651,-0.4519
613,0.0,0.0,0.0,0.0,0.0,0.0,-0.1750,1.0089,-0.0778,0.4196,0.5481,-0.5657,-0.4512
614,0.0,0.0,0.0,0.0,0.0,0.0,-0.1648,1.0162,-0.0745,0.4219,0.5468,-0.5636,-0.4532
615,0.0,0.0,0.0,0.0,0.0,0.0,-0.1160,0.9565,-0.1044,0.4237,0.5450,-0.5623,-0.4553
616,0.0,0.0,0.0,0.0,0.0,0.0,-0.1130,0.9637,-0.1121,0.4243,0.5433,-0.5621,-0.4569
617,0.0,0.0,0.0,0.0,0.0,0.0,-0.1483,1.0104,-0.0674,0.4259,0.5410,-0.5612,-0.4594
618,0.0,0.0,0.0,0.0,0.0,0.0,-0.1555,0.9855,-0.0743,0.4284,0.5392,-0.5585,-0.4624
619,0.0,0.0,0.0,0.0,0.0,0.0,-0.1443,0.9655,-0.0798,0.4311,0.5385,-0.5554,-0.4644
620,0.0,0.0,0.0,0.0,0.0,0.0,-0.1420,0.9758,-0.0580,0.4335,0.5380,-0.5530,-0.4656
621,0.0,0.0,0.0,0.0,0.0,0.0,-0.1531,0.9705,-0.0613,0.4342,0.5375,-0.5520,-0.4667
622,0.0,0.0,0.0,0.0,0.0,0.0,-0.1531,0.9666,-0.0584,0.4333,0.5377,-0.5525,-0.4667
623,0.0,0.0,0.0,0.0,0.0,0.0,-0.1430,0.9783,-0.0497,0.4332,0.5381,-0.5525,-0.4665
624,0.0,0.0,0.0,0.0,0.0,0.0,-0.1303,0.9822,-0.0576,0.4333,0.5386,-0.5524,-0.4659
625,0.0,0.0,0.0,0.0,0.0,0.0,-0.1346,0.9504,-0.0742,0.4327,0.5394,-0.5531,-0.4647
626,0.0,0.0,0.0,0.0,0.0,0.0,-0.1278,0.9699,-0.0751,0.4318,0.5408,-0.5542,-0.4626
627,0.0,0.0,0.0,0.0,0.0,0.0,-0.1274,1.0061,-0.0497,0.4307,0.5418,-0.5561,-0.4602
628,0.0,0.0,0.0,0.0,0.0,0.0,-0.1400,0.9889,-0.0676,0.4279,0.5425,-0.5592,-0.4581
629,0.0,0.0,0.0,0.0,0.0,0.0,-0.1496,0.9703,-0.0832,0.4245,0.5446,-0.5624,-0.4550
630,0.0,0.0,0.0,0.0,0.0,0.0,-0.1412,0.9516,-0.1100,0.4211,0.5470,-0.5651,-0.4519
631,0.0,0.0,0.0,0.0,0.0,0.0,-0.1092,0.9847,-0.1120,0.4195,0.5475,-0.5676,-0.4495
632,0.0,0.0,0.0,0.0,0.0,0.0,-0.1244,1.0277,-0.0844,0.4192,0.5473,-0.5698,-0.4474
633,0.0,0.0,0.0,0.0,0.0,0.0,-0.1472,0.9925,-0.1053,0.4190,0.5478,-0.5704,-0.4461
634,0.0,0.0,0.0,0.0,0.0,0.0,-0.1329,0.9714,-0.1264,0.4188,0.5483,-0.5708,-0.4452
635,0.0,0.0,0.0,0.0,0.0,0.0,-0.1184,0.9934,-0.1138,0.4179,0.5478,-0.5724,-0.4445
636,0.0,0.0,0.0,0.0,0.0,0.0,-0.1252,0.9940,-0.1094,0.4165,0.5471,-0.5741,-0.4445
637,0.0,0.0,0.0,0.0,0.0,0.0,-0.1267,0.9822,-0.1143,0.4154,0.5464,-0.5754,-0.4448
638,0.0,0.0,0.0,0.0,0.0,0.0,-0.1140,0.9729,-0.1183,0.4151,0.5458,-0.5761,-0.4449
639,0.0,0.0,0.0,0.0,0.0,0.0,-0.1081,0.9724,-0.1223,0.4155,0.5452,-0.5765,-0.4446
640,0.0,0.0,0.0,0.0,0.0,0.0,-0.1141,0.9920,-0.1066,0.4168,0.5447,-0.5760,-0.4448
641,0.0,0.0,0.0,0.0,0.0,0.0,-0.1170,1.0018,-0.0973,0.4191,0.5441,-0.5742,-0.4456
642,0.0,0.0,0.0,0.0,0.0,0.0,-0.1248,1.0024,-0.0919,0.4215,0.5435,-0.5715,-0.4476
643,0.0,0.0,0.0,0.0,0.0,0.0,-0.1462,0.9970,-0.0951,0.4231,0.5432,-0.5684,-0.4504
644,0.0,0.0,0.0,0.0,0.0,0.0,-0.1321,0.9873,-0.0943,0.4240,0.5432,-0.5657,-0.4529
645,0.0,0.0,0.0,0.0,0.0,0.0,-0.1303,1.0045,-0.0715,0.4252,0.5428,-0.5631,-0.4555
646,0.0,0.0,0.0,0.0,0.0,0.0,-0.1628,0.9894,-0.0785,0.4259,0.5442,-0.5595,-0.4576
647,0.0,0.0,0.0,0.0,0.0,0.0,-0.1423,0.9722,-0.0880,0.4267,0.5465,-0.5559,-0.4586
648,0.0,0.0,0.0,0.0,0.0,0.0,-0.1307,0.9781,-0.0842,0.4266,0.5485,-0.5537,-0.4588
649,0.0,0.0,0.0,0.0,0.0,0.0,-0.1579,0.9654,-0.0889,0.4250,0.5508,-0.5527,-0.4588
650,0.0,0.0,0.0,0.0,0.0,0.0,-0.1588,0.9522,-0.0982,0.4235,0.5535,-0.5516,-0.4583
651,0.0,0.0,0.0,0.0,0.0,0.0,-0.1408,0.9477,-0.1032,0.4220,0.5561,-0.5509,-0.4574
652,0.0,0.0,0.0,0.0,0.0,0.0,-0.1402,0.9487,-0.1115,0.4200,0.5580,-0.5509,-0.4569
653,0.0,0.0,0.0,0.0,0.0,0.0,-0.1544,0.9657,-0.1078,0.4182,0.5600,-0.5512,-0.4557
654,0.0,0.0,0.0,0.0,0.0,0.0,-0.1733,0.9584,-0.1131,0.4160,0.5623,-0.5515,-0.4545
655,0.0,0.0,0.0,0.0,0.0,0.0,-0.1563,0.9496,-0.1162,0.4149,0.5643,-0.5513,-0.4532
656,0.0,0.0,0.0,0.0,0.0,0.0,-0.1612,0.9823,-0.1082,0.4141,0.5656,-0.5519,-0.4517
657,0.0,0.0,0.0,0.0,0.0,0.0,-0.1817,0.9926,-0.0992,0.4124,0.5662,-0.5534,-0.4506
658,0.0,0.0,0.0,0.0,0.0,0.0,-0.1855,0.9745,-0.1162,0.4112,0.5670,-0.5545,-0.4493
659,0.0,0.0,0.0,0.0,0.0,0.0,-0.1796,0.9524,-0.1314,0.4096,0.5682,-0.5561,-0.4474
660,0.0,0.0,0.0,0.0,0.0,0.0,-0.1771,0.9582,-0.1382,0.4078,0.5689,-0.5581,-0.4456
661,0.0,0.0,0.0,0.0,0.0,0.0,-0.1787,0.9900,-0.1288,0.4073,0.5691,-0.5594,-0.4442
662,0.0,0.0,0.0,0.0,0.0,0.0,-0.1899,0.9881,-0.1258,0.4056,0.5681,-0.5613,-0.4446
663,0.0,0.0,0.0,0.0,0.0,0.0,-0.1996,0.9729,-0.1355,0.4047,0.5682,-0.5622,-0.4442
664,0.0,0.0,0.0,0.0,0.0,0.0,-0.1763,0.9890,-0.1293,0.4039,0.5680,-0.5631,-0.4441
665,0.0,0.0,0.0,0.0,0.0,0.0,-0.1690,0.9910,-0.1245,0.4025,0.5677,-0.5642,-0.4443
666,0.0,0.0,0.0,0.0,0.0,0.0,-0.1821,0.9915,-0.1244,0.4016,0.5673,-0.5645,-0.4452
667,0.0,0.0,0.0,0.0,0.0,0.0,-0.1671,1.0008,-0.1080,0.4022,0.5670,-0.5637,-0.4461
668,0.0,0.0,0.0,0.0,0.0,0.0,-0.1539,0.9818,-0.1160,0.4029,0.5668,-0.5624,-0.4473
669,0.0,0.0,0.0,0.0,0.0,0.0,-0.1441,0.9480,-0.1279,0.4030,0.5667,-0.5615,-0.4485
670,0.0,0.0,0.0,0.0,0.0,0.0,-0.1436,0.9510,-0.1289,0.4019,0.5663,-0.5618,-0.4495
671,0.0,0.0,0.0,0.0,0.0,0.0,-0.1476,0.9754,-0.1185,0.4016,0.5656,-0.5619,-0.4507
672,0.0,0.0,0.0,0.0,0.0,0.0,-0.1374,0.9807,-0.1181,0.4023,0.5644,-0.5619,-0.4516
673,0.0,0.0,0.0,0.0,0.0,0.0,-0.1392,0.9612,-0.1235,0.4039,0.5629,-0.5614,-0.4526
674,0.0,0.0,0.0,0.0,0.0,0.0,-0.1562,0.9529,-0.1317,0.4055,0.5609,-0.5613,-0.4539
675,0.0,0.0,0.0,0.0,0.0,0.0,-0.1821,0.9691,-0.1144,0.4071,0.5591,-0.5613,-0.4545
676,0.0,0.0,0.0,0.0,0.0,0.0,-0.2110,0.9991,-0.0906,0.4096,0.5578,-0.5595,-0.4562
677,0.0,0.0,0.0,0.0,0.0,0.0,-0.2094,0.9780,-0.1087,0.4115,0.5581,-0.5559,-0.4585
678,0.0,0.0,0.0,0.0,0.0,0.0,-0.1796,0.9413,-0.1218,0.4127,0.5592,-0.5524,-0.4602
679,0.0,0.0,0.0,0.0,0.0,0.0,-0.1592,0.9579,-0.1195,0.4129,0.5600,-0.5503,-0.4616
680,0.0,0.0,0.0,0.0,0.0,0.0,-0.1787,0.9716,-0.1115,0.4129,0.5608,-0.5487,-0.4625
681,0.0,0.0,0.0,0.0,0.0,0.0,-0.1923,0.9438,-0.1183,0.4127,0.5625,-0.5476,-0.4619
682,0.0,0.0,0.0,0.0,0.0,0.0,-0.2171,0.9413,-0.1273,0.4118,0.5654,-0.5466,-0.4605
683,0.0,0.0,0.0,0.0,0.0,0.0,-0.2055,0.9819,-0.1121,0.4123,0.5672,-0.5448,-0.4599
684,0.0,0.0,0.0,0.0,0.0,0.0,-0.1637,0.9877,-0.1037,0.4132,0.5670,-0.5440,-0.4603
685,0.0,0.0,0.0,0.0,0.0,0.0,-0.1837,1.0117,-0.0923,0.4122,0.5656,-0.5452,-0.4615
686,0.0,0.0,0.0,0.0,0.0,0.0,-0.2276,1.0226,-0.0758,0.4110,0.5646,-0.5453,-0.4636
687,0.0,0.0,0.0,0.0,0.0,0.0,-0.1983,0.9728,-0.0895,0.4109,0.5648,-0.5449,-0.4640
688,0.0,0.0,0.0,0.0,0.0,0.0,-0.1480,0.9384,-0.1192,0.4111,0.5644,-0.5457,-0.4633
689,0.0,0.0,0.0,0.0,0.0,0.0,-0.1368,0.9349,-0.1194,0.4115,0.5630,-0.5481,-0.4618
690,0.0,0.0,0.0,0.0,0.0,0.0,-0.1714,0.9546,-0.1039,0.4129,0.5601,-0.5513,-0.4603
691,0.0,0.0,0.0,0.0,0.0,0.0,-0.1856,0.9956,-0.1001,0.4139,0.5566,-0.5552,-0.4590
692,0.0,0.0,0.0,0.0,0.0,0.0,-0.1643,0.9961,-0.0838,0.4160,0.5538,-0.5569,-0.4584
693,0.0,0.0,0.0,0.0,0.0,0.0,-0.1730,0.9766,-0.0892,0.4189,0.5518,-0.5568,-0.4583
694,0.0,0.0,0.0,0.0,0.0,0.0,-0.1712,1.0157,-0.0773,0.4199,0.5509,-0.5564,-0.4588
695,0.0,0.0,0.0,0.0,0.0,0.0,-0.1341,0.9942,-0.0730,0.4203,0.5497,-0.5564,-0.4600
696,0.0,0.0,0.0,0.0,0.0,0.0,-0.1358,0.9272,-0.1112,0.4201,0.5481,-0.5572,-0.4612
697,0.0,0.0,0.0,0.0,0.0,0.0,-0.1325,0.9399,-0.1068,0.4192,0.5473,-0.5590,-0.4607
698,0.0,0.0,0.0,0.0,0.0,0.0,-0.1365,0.9883,-0.0793,0.4205,0.5463,-0.5595,-0.4601
699,0.0,0.0,0.0,0.0,0.0,0.0,-0.1370,0.9913,-0.0783,0.4228,0.5451,-0.5593,-0.4596
700,0.0,0.0,0.0,0.0,0.0,0.0,-0.1405,0.9987,-0.0666,0.4258,0.5439,-0.5579,-0.4600
701,0.0,0.0,0.0,0.0,0.0,0.0,-0.1361,0.9923,-0.0744,0.4287,0.5429,-0.5560,-0.4608
702,0.0,0.0,0.0,0.0,0.0,0.0,-0.1454,0.9943,-0.0690,0.4302,0.5422,-0.5547,-0.4618
703,0.0,0.0,0.0,0.0,0.0,0.0,-0.1576,1.0056,-0.0552,0.4318,0.5415,-0.5529,-0.4634
704,0.0,0.0,0.0,0.0,0.0,0.0,-0.1625,1.0183,-0.0459,0.4339,0.5418,-0.5497,-0.4647
705,0.0,0.0,0.0,0.0,0.0,0.0,-0.1664,0.9973,-0.0528,0.4361,0.5437,-0.5458,-0.4651
706,0.0,0.0,0.0,0.0,0.0,0.0,-0.1580,0.9715,-0.0584,0.4377,0.5450,-0.5426,-0.4658
707,0.0,0.0,0.0,0.0,0.0,0.0,-0.1532,0.9652,-0.0531,0.4392,0.5459,-0.5397,-0.4668
708,0.0,0.0,0.0,0.0,0.0,0.0,-0.1530,0.9422,-0.0707,0.4394,0.5479,-0.5370,-0.4672
709,0.0,0.0,0.0,0.0,0.0,0.0,-0.1527,0.9623,-0.0473,0.4389,0.5488,-0.5362,-0.4677
710,0.0,0.0,0.0,0.0,0.0,0.0,-0.1581,0.9716,-0.0361,0.4381,0.5491,-0.5360,-0.4683
711,0.0,0.0,0.0,0.0,0.0,0.0,-0.1605,0.9886,-0.0534,0.4382,0.5502,-0.5345,-0.4686
712,0.0,0.0,0.0,0.0,0.0,0.0,-0.1586,0.9784,-0.0399,0.4374,0.5506,-0.5346,-0.4687
713,0.0,0.0,0.0,0.0,0.0,0.0,-0.1556,0.9647,-0.0473,0.4355,0.5505,-0.5363,-0.4687
714,0.0,0.0,0.0,0.0,0.0,0.0,-0.1751,0.9720,-0.0514,0.4321,0.5518,-0.5390,-0.4673
715,0.0,0.0,0.0,0.0,0.0,0.0,-0.1673,0.9881,-0.0557,0.4273,0.5528,-0.5435,-0.4653
716,0.0,0.0,0.0,0.0,0.0,0.0,-0.1591,1.0153,-0.0605,0.4235,0.5534,-0.5475,-0.4633
717,0.0,0.0,0.0,0.0,0.0,0.0,-0.1357,1.0274,-0.0688,0.4241,0.5529,-0.5476,-0.4632
718,0.0,0.0,0.0,0.0,0.0,0.0,-0.1590,1.0274,-0.0740,0.4253,0.5525,-0.5465,-0.4639
719,0.0,0.0,0.0,0.0,0.0,0.0,-0.1901,0.9763,-0.0687,0.4261,0.5531,-0.5438,-0.4657
720,0.0,0.0,0.0,0.0,0.0,0.0,-0.1436,0.9278,-0.1048,0.4270,0.5534,-0.5409,-0.4678
721,0.0,0.0,0.0,0.0,0.0,0.0,-0.1155,0.9419,-0.1001,0.4263,0.5526,-0.5411,-0.4692
722,0.0,0.0,0.0,0.0,0.0,0.0,-0.1604,0.9734,-0.0607,0.4255,0.5509,-0.5417,-0.4712
723,0.0,0.0,0.0,0.0,0.0,0.0,-0.1930,0.9749,-0.0619,0.4268,0.5502,-0.5398,-0.4730
724,0.0,0.0,0.0,0.0,0.0,0.0,-0.1746,0.9803,-0.0504,0.4300,0.5501,-0.5366,-0.4739
725,0.0,0.0,0.0,0.0,0.0,0.0,-0.1727,0.9760,-0.0432,0.4333,0.5497,-0.5332,-0.4751
726,0.0,0.0,0.0,0.0,0.0,0.0,-0.1755,0.9389,-0.0512,0.4343,0.5499,-0.5314,-0.4761
727,0.0,0.0,0.0,0.0,0.0,0.0,-0.1638,0.9486,-0.0526,0.4331,0.5504,-0.5320,-0.4759
728,0.0,0.0,0.0,0.0,0.0,0.0,-0.1888,0.9931,-0.0337,0.4300,0.5515,-0.5338,-0.4755
729,0.0,0.0,0.0,0.0,0.0,0.0,-0.1898,0.9942,-0.0269,0.4279,0.5522,-0.5346,-0.4755
730,0.0,0.0,0.0,0.0,0.0,0.0,-0.1707,0.9657,-0.0544,0.4264,0.5529,-0.5353,-0.4754
731,0.0,0.0,0.0,0.0,0.0,0.0,-0.1780,0.9695,-0.0601,0.4238,0.5546,-0.5365,-0.4743
732,0.0,0.0,0.0,0.0,0.0,0.0,-0.1799,0.9784,-0.0523,0.4215,0.5560,-0.5379,-0.4731
733,0.0,0.0,0.0,0.0,0.0,0.0,-0.1628,0.9685,-0.0709,0.4185,0.5559,-0.5410,-0.4725
734,0.0,0.0,0.0,0.0,0.0,0.0,-0.1769,0.9689,-0.0776,0.4145,0.5559,-0.5450,-0.4714
735,0.0,0.0,0.0,0.0,0.0,0.0,-0.1911,0.9943,-0.0686,0.4119,0.5567,-0.5470,-0.4703
736,0.0,0.0,0.0,0.0,0.0,0.0,-0.1668,0.9880,-0.0679,0.4113,0.5570,-0.5480,-0.4693
737,0.0,0.0,0.0,0.0,0.0,0.0,-0.1670,0.9541,-0.1044,0.4106,0.5572,-0.5486,-0.4689
738,0.0,0.0,0.0,0.0,0.0,0.0,-0.1856,0.9727,-0.0944,0.4100,0.5577,-0.5492,-0.4683
739,0.0,0.0,0.0,0.0,0.0,0.0,-0.1920,0.9938,-0.0753,0.4100,0.5576,-0.5496,-0.4679
740,0.0,0.0,0.0,0.0,0.0,0.0,-0.1875,0.9624,-0.0993,0.4095,0.5575,-0.5499,-0.4681
741,0.0,0.0,0.0,0.0,0.0,0.0,-0.1754,0.9707,-0.0950,0.4096,0.5572,-0.5499,-0.4684
742,0.0,0.0,0.0,0.0,0.0,0.0,-0.1677,0.9888,-0.0882,0.4096,0.5562,-0.5505,-0.4688
743,0.0,0.0,0.0,0.0,0.0,0.0,-0.1842,0.9913,-0.0871,0.4097,0.5555,-0.5507,-0.4693
744,0.0,0.0,0.0,0.0,0.0,0.0,-0.1764,0.9908,-0.0823,0.4109,0.5548,-0.5501,-0.4698
745,0.0,0.0,0.0,0.0,0.0,0.0,-0.1696,0.9859,-0.0843,0.4119,0.5543,-0.5494,-0.4704
746,0.0,0.0,0.0,0.0,0.0,0.0,-0.1823,0.9777,-0.0799,0.4124,0.5539,-0.5492,-0.4707
747,0.0,0.0,0.0,0.0,0.0,0.0,-0.1852,0.9855,-0.0789,0.4128,0.5532,-0.5488,-0.4715
748,0.0,0.0,0.0,0.0,0.0,0.0,-0.1833,0.9988,-0.0633,0.4131,0.5529,-0.5484,-0.4722
749,0.0,0.0,0.0,0.0,0.0,0.0,-0.1633,0.9680,-0.0719,0.4139,0.5526,-0.5475,-0.4729
750,0.0,0.0,0.0,0.0,0.0,0.0,-0.1535,0.9479,-0.0842,0.4153,0.5520,-0.5465,-0.4735
751,0.0,0.0,0.0,0.0,0.0,0.0,-0.1730,0.9568,-0.0748,0.4166,0.5515,-0.5454,-0.4742
752,0.0,0.0,0.0,0.0,0.0,0.0,-0.1681,0.9528,-0.0787,0.4172,0.5512,-0.5453,-0.4741
753,0.0,0.0,0.0,0.0,0.0,0.0,-0.1701,0.9602,-0.0743,0.4173,0.5506,-0.5463,-0.4736
754,0.0,0.0,0.0,0.0,0.0,0.0,-0.1799,0.9695,-0.0679,0.4173,0.5496,-0.5476,-0.4732
755,0.0,0.0,0.0,0.0,0.0,0.0,-0.1726,0.9685,-0.0679,0.4175,0.5486,-0.5492,-0.4723
756,0.0,0.0,0.0,0.0,0.0,0.0,-0.1716,0.9607,-0.0748,0.4168,0.5480,-0.5516,-0.4708
757,0.0,0.0,0.0,0.0,0.0,0.0,-0.1667,0.9675,-0.0753,0.4159,0.5473,-0.5548,-0.4686
758,0.0,0.0,0.0,0.0,0.0,0.0,-0.1647,0.9723,-0.0782,0.4145,0.5467,-0.5585,-0.4662
759,0.0,0.0,0.0,0.0,0.0,0.0,-0.1438,0.9804,-0.0948,0.4139,0.5459,-0.5615,-0.4642
760,0.0,0.0,0.0,0.0,0.0,0.0,-0.1351,1.0141,-0.0893,0.4143,0.5449,-0.5636,-0.4624
761,0.0,0.0,0.0,0.0,0.0,0.0,-0.1502,1.0268,-0.0789,0.4147,0.5439,-0.5650,-0.4614
762,0.0,0.0,0.0,0.0,0.0,0.0,-0.1619,1.0234,-0.0861,0.4156,0.5434,-0.5647,-0.4616
763,0.0,0.0,0.0,0.0,0.0,0.0,-0.1545,0.9941,-0.0955,0.4166,0.5432,-0.5634,-0.4625
764,0.0,0.0,0.0,0.0,0.0,0.0,-0.1326,0.9873,-0.0938,0.4170,0.5427,-0.5628,-0.4635
765,0.0,0.0,0.0,0.0,0.0,0.0,-0.1365,0.9722,-0.0944,0.4169,0.5421,-0.5623,-0.4649
766,0.0,0.0,0.0,0.0,0.0,0.0,-0.1355,0.9668,-0.0935,0.4171,0.5413,-0.5618,-0.4662
767,0.0,0.0,0.0,0.0,0.0,0.0,-0.1341,0.9673,-0.0853,0.4178,0.5408,-0.5610,-0.4672
768,0.0,0.0,0.0,0.0,0.0,0.0,-0.1355,0.9688,-0.0867,0.4187,0.5407,-0.5598,-0.4680
769,0.0,0.0,0.0,0.0,0.0,0.0,-0.1414,0.9733,-0.0769,0.4195,0.5407,-0.5587,-0.4685
770,0.0,0.0,0.0,0.0,0.0,0.0,-0.1507,0.9802,-0.0700,0.4203,0.5406,-0.5575,-0.4694
771,0.0,0.0,0.0,0.0,0.0,0.0,-0.1521,0.9772,-0.0710,0.4209,0.5402,-0.5567,-0.4702
772,0.0,0.0,0.0,0.0,0.0,0.0,-0.1385,0.9777,-0.0725,0.4213,0.5394,-0.5563,-0.4712
773,0.0,0.0,0.0,0.0,0.0,0.0,-0.1396,0.9968,-0.0613,0.4224,0.5380,-0.5560,-0.4723
774,0.0,0.0,0.0,0.0,0.0,0.0,-0.1444,0.9768,-0.0643,0.4237,0.5371,-0.5552,-0.4730
775,0.0,0.0,0.0,0.0,0.0,0.0,-0.1423,0.9576,-0.0814,0.4257,0.5365,-0.5533,-0.4742
776,0.0,0.0,0.0,0.0,0.0,0.0,-0.1274,0.9811,-0.0634,0.4279,0.5357,-0.5520,-0.4746
777,0.0,0.0,0.0,0.0,0.0,0.0,-0.1430,0.9930,-0.0506,0.4287,0.5349,-0.5520,-0.4748
778,0.0,0.0,0.0,0.0,0.0,0.0,-0.1664,0.9920,-0.0465,0.4283,0.5348,-0.5522,-0.4750
779,0.0,0.0,0.0,0.0,0.0,0.0,-0.1660,1.0082,-0.0333,0.4286,0.5349,-0.5516,-0.4754
780,0.0,0.0,0.0,0.0,0.0,0.0,-0.1323,0.9754,-0.0503,0.4291,0.5352,-0.5506,-0.4757
781,0.0,0.0,0.0,0.0,0.0,0.0,-0.1088,0.9519,-0.0652,0.4297,0.5352,-0.5505,-0.4752
782,0.0,0.0,0.0,0.0,0.0,0.0,-0.1297,0.9446,-0.0641,0.4288,0.5360,-0.5522,-0.4733
783,0.0,0.0,0.0,0.0,0.0,0.0,-0.1516,0.9568,-0.0716,0.4267,0.5374,-0.5543,-0.4710
784,0.0,0.0,0.0,0.0,0.0,0.0,-0.1668,0.9993,-0.0547,0.4247,0.5389,-0.5563,-0.4687
785,0.0,0.0,0.0,0.0,0.0,0.0,-0.1517,0.9885,-0.0636,0.4218,0.5411,-0.5594,-0.4651
786,0.0,0.0,0.0,0.0,0.0,0.0,-0.1233,0.9643,-0.0984,0.4196,0.5428,-0.5625,-0.4614
787,0.0,0.0,0.0,0.0,0.0,0.0,-0.1132,0.9999,-0.0891,0.4192,0.5422,-0.5649,-0.4595
788,0.0,0.0,0.0,0.0,0.0,0.0,-0.1293,1.0244,-0.0791,0.4190,0.5416,-0.5667,-0.4582
789,0.0,0.0,0.0,0.0,0.0,0.0,-0.1477,0.9936,-0.0908,0.4190,0.5416,-0.5673,-0.4575
790,0.0,0.0,0.0,0.0,0.0,0.0,-0.1345,0.9765,-0.1026,0.4191,0.5414,-0.5673,-0.4576
791,0.0,0.0,0.0,0.0,0.0,0.0,-0.1189,0.9828,-0.0974,0.4190,0.5407,-0.5677,-0.4581
792,0.0,0.0,0.0,0.0,0.0,0.0,-0.1209,0.9750,-0.0984,0.4184,0.5402,-0.5685,-0.4581
793,0.0,0.0,0.0,0.0,0.0,0.0,-0.1296,0.9691,-0.1080,0.4180,0.5404,-0.5687,-0.4581
794,0.0,0.0,0.0,0.0,0.0,0.0,-0.1277,0.9794,-0.1022,0.4180,0.5407,-0.5687,-0.4577
795,0.0,0.0,0.0,0.0,0.0,0.0,-0.1170,0.9804,-0.0984,0.4182,0.5408,-0.5686,-0.4575
796,0.0,0.0,0.0,0.0,0.0,0.0,-0.1199,0.9794,-0.0989,0.4182,0.5408,-0.5685,-0.4577
797,0.0,0.0,0.0,0.0,0.0,0.0,-0.1272,0.9833,-0.0997,0.4179,0.5406,-0.5682,-0.4585
798,0.0,0.0,0.0,0.0,0.0,0.0,-0.1292,0.9985,-0.0890,0.4174,0.5399,-0.5683,-0.4597
799,0.0,0.0,0.0,0.0,0.0,0.0,-0.1317,0.9961,-0.0870,0.4172,0.5391,-0.5678,-0.4614
800,0.0,0.0,0.0,0.0,0.0,0.0,-0.1308,1.0079,-0.0734,0.4185,0.5380,-0.5663,-0.4634
801,0.0,0.0,0.0,0.0,0.0,0.0,-0.1449,1.0192,-0.0601,0.4211,0.5365,-0.5634,-0.4663
802,0.0,0.0,0.0,0.0,0.0,0.0,-0.1347,1.0114,-0.0535,0.4254,0.5344,-0.5588,-0.4704
803,0.0,0.0,0.0,0.0,0.0,0.0,-0.1430,0.9984,-0.0443,0.4298,0.5330,-0.5531,-0.4746
804,0.0,0.0,0.0,0.0,0.0,0.0,-0.1565,0.9627,-0.0613,0.4312,0.5332,-0.5499,-0.4769
805,0.0,0.0,0.0,0.0,0.0,0.0,-0.1229,0.9568,-0.0665,0.4316,0.5343,-0.5483,-0.4770
806,0.0,0.0,0.0,0.0,0.0,0.0,-0.1239,0.9627,-0.0563,0.4310,0.5363,-0.5483,-0.4754
807,0.0,0.0,0.0,0.0,0.0,0.0,-0.1502,0.9617,-0.0677,0.4287,0.5392,-0.5494,-0.4729
808,0.0,0.0,0.0,0.0,0.0,0.0,-0.1516,0.9534,-0.0677,0.4267,0.5419,-0.5512,-0.4695
809,0.0,0.0,0.0,0.0,0.0,0.0,-0.1239,0.9698,-0.0781,0.4259,0.5421,-0.5533,-0.4676
810,0.0,0.0,0.0,0.0,0.0,0.0,-0.1508,1.0133,-0.0635,0.4253,0.5409,-0.5555,-0.4669
811,0.0,0.0,0.0,0.0,0.0,0.0,-0.2035,1.0215,-0.0276,0.4244,0.5410,-0.5568,-0.4660
812,0.0,0.0,0.0,0.0,0.0,0.0,-0.1873,0.9954,-0.0521,0.4244,0.5412,-0.5555,-0.4673
813,0.0,0.0,0.0,0.0,0.0,0.0,-0.1336,0.9767,-0.0692,0.4248,0.5421,-0.5540,-0.4677
814,0.0,0.0,0.0,0.0,0.0,0.0,-0.1235,0.9841,-0.0620,0.4249,0.5426,-0.5532,-0.4679
815,0.0,0.0,0.0,0.0,0.0,0.0,-0.1356,0.9850,-0.0667,0.4246,0.5433,-0.5532,-0.4675
816,0.0,0.0,0.0,0.0,0.0,0.0,-0.1497,0.9846,-0.0676,0.4239,0.5441,-0.5533,-0.4670
817,0.0,0.0,0.0,0.0,0.0,0.0,-0.1386,0.9968,-0.0535,0.4249,0.5448,-0.5523,-0.4664
818,0.0,0.0,0.0,0.0,0.0,0.0,-0.1380,0.9763,-0.0667,0.4268,0.5448,-0.5511,-0.4663
819,0.0,0.0,0.0,0.0,0.0,0.0,-0.1340,0.9400,-0.0903,0.4280,0.5441,-0.5512,-0.4658
820,0.0,0.0,0.0,0.0,0.0,0.0,-0.1165,0.9576,-0.0860,0.4294,0.5433,-0.5512,-0.4655
821,0.0,0.0,0.0,0.0,0.0,0.0,-0.1532,1.0036,-0.0558,0.4300,0.5415,-0.5512,-0.4669
822,0.0,0.0,0.0,0.0,0.0,0.0,-0.1551,0.9739,-0.0613,0.4303,0.5398,-0.5509,-0.4690
823,0.0,0.0,0.0,0.0,0.0,0.0,-0.1414,0.9596,-0.0789,0.4306,0.5386,-0.5497,-0.4715
824,0.0,0.0,0.0,0.0,0.0,0.0,-0.1498,0.9730,-0.0546,0.4305,0.5378,-0.5489,-0.4734
825,0.0,0.0,0.0,0.0,0.0,0.0,-0.1677,0.9534,-0.0613,0.4291,0.5381,-0.5487,-0.4747
826,0.0,0.0,0.0,0.0,0.0,0.0,-0.1687,0.9602,-0.0685,0.4279,0.5396,-0.5478,-0.4751
827,0.0,0.0,0.0,0.0,0.0,0.0,-0.1751,0.9901,-0.0523,0.4264,0.5408,-0.5474,-0.4755
828,0.0,0.0,0.0,0.0,0.0,0.0,-0.1464,0.9828,-0.0410,0.4254,0.5411,-0.5482,-0.4751
829,0.0,0.0,0.0,0.0,0.0,0.0,-0.1182,0.9837,-0.0514,0.4257,0.5405,-0.5489,-0.4746
830,0.0,0.0,0.0,0.0,0.0,0.0,-0.1346,0.9714,-0.0658,0.4255,0.5393,-0.5504,-0.4746
831,0.0,0.0,0.0,0.0,0.0,0.0,-0.1629,0.9900,-0.0514,0.4252,0.5378,-0.5516,-0.4751
832,0.0,0.0,0.0,0.0,0.0,0.0,-0.1533,1.0033,-0.0349,0.4265,0.5365,-0.5512,-0.4758
833,0.0,0.0,0.0,0.0,0.0,0.0,-0.1464,0.9817,-0.0521,0.4274,0.5358,-0.5505,-0.4766
834,0.0,0.0,0.0,0.0,0.0,0.0,-0.1649,0.9818,-0.0456,0.4278,0.5361,-0.5497,-0.4769
835,0.0,0.0,0.0,0.0,0.0,0.0,-0.1590,0.9696,-0.0496,0.4271,0.5373,-0.5501,-0.4757
836,0.0,0.0,0.0,0.0,0.0,0.0,-0.1365,0.9636,-0.0678,0.4251,0.5391,-0.5518,-0.4735
837,0.0,0.0,0.0,0.0,0.0,0.0,-0.1444,0.9748,-0.0672,0.4223,0.5415,-0.5542,-0.4704
838,0.0,0.0,0.0,0.0,0.0,0.0,-0.1536,0.9796,-0.0724,0.4195,0.5439,-0.5566,-0.4673
839,0.0,0.0,0.0,0.0,0.0,0.0,-0.1463,0.9869,-0.0768,0.4176,0.5457,-0.5588,-0.4642
840,0.0,0.0,0.0,0.0,0.0,0.0,-0.1336,0.9776,-0.0847,0.4161,0.5467,-0.5615,-0.4613
841,0.0,0.0,0.0,0.0,0.0,0.0,-0.1205,0.9977,-0.0687,0.4160,0.5467,-0.5636,-0.4587
842,0.0,0.0,0.0,0.0,0.0,0.0,-0.1478,1.0064,-0.0757,0.4166,0.5469,-0.5641,-0.4573
843,0.0,0.0,0.0,0.0,0.0,0.0,-0.1792,0.9555,-0.1183,0.4140,0.5481,-0.5661,-0.4558
844,0.0,0.0,0.0,0.0,0.0,0.0,-0.1171,1.0092,-0.0885,0.4163,0.5485,-0.5652,-0.4543
845,0.0,0.0,0.0,0.0,0.0,0.0,-0.1521,1.0058,-0.0960,0.4161,0.5483,-0.5656,-0.4542
846,0.0,0.0,0.0,0.0,0.0,0.0,-0.1685,0.9687,-0.1024,0.4164,0.5484,-0.5648,-0.4548
847,0.0,0.0,0.0,0.0,0.0,0.0,-0.1417,0.9740,-0.1132,0.4167,0.5488,-0.5637,-0.4554
848,0.0,0.0,0.0,0.0,0.0,0.0,-0.1467,0.9965,-0.0922,0.4167,0.5489,-0.5628,-0.4564
849,0.0,0.0,0.0,0.0,0.0,0.0,-0.1511,0.9863,-0.0961,0.4175,0.5485,-0.5611,-0.4582
850,0.0,0.0,0.0,0.0,0.0,0.0,-0.1569,0.9765,-0.0995,0.4183,0.5487,-0.5591,-0.4597
851,0.0,0.0,0.0,0.0,0.0,0.0,-0.1627,0.9775,-0.0961,0.4193,0.5494,-0.5567,-0.4610
852,0.0,0.0,0.0,0.0,0.0,0.0,-0.1574,0.9751,-0.0927,0.4198,0.5498,-0.5547,-0.4624
853,0.0,0.0,0.0,0.0,0.0,0.0,-0.1671,0.9756,-0.0951,0.4196,0.5508,-0.5530,-0.4634
854,0.0,0.0,0.0,0.0,0.0,0.0,-0.1632,0.9693,-0.0908,0.4191,0.5520,-0.5519,-0.4638
855,0.0,0.0,0.0,0.0,0.0,0.0,-0.1535,0.9713,-0.0841,0.4186,0.5534,-0.5510,-0.4636
856,0.0,0.0,0.0,0.0,0.0,0.0,-0.1593,0.9717,-0.0894,0.4187,0.5547,-0.5493,-0.4641
857,0.0,0.0,0.0,0.0,0.0,0.0,-0.1414,0.9708,-0.0847,0.4190,0.5545,-0.5485,-0.4649
858,0.0,0.0,0.0,0.0,0.0,0.0,-0.1491,0.9615,-0.0929,0.4177,0.5544,-0.5496,-0.4648
859,0.0,0.0,0.0,0.0,0.0,0.0,-0.1588,0.9615,-0.0952,0.4159,0.5551,-0.5512,-0.4637
860,0.0,0.0,0.0,0.0,0.0,0.0,-0.1497,0.9868,-0.0864,0.4157,0.5552,-0.5522,-0.4627
861,0.0,0.0,0.0,0.0,0.0,0.0,-0.1340,0.9814,-0.0944,0.4164,0.5543,-0.5536,-0.4614
862,0.0,0.0,0.0,0.0,0.0,0.0,-0.1315,0.9711,-0.1070,0.4167,0.5529,-0.5556,-0.4604
863,0.0,0.0,0.0,0.0,0.0,0.0,-0.1692,0.9981,-0.0789,0.4171,0.5521,-0.5568,-0.4595
864,0.0,0.0,0.0,0.0,0.0,0.0,-0.1804,0.9977,-0.0788,0.4179,0.5521,-0.5566,-0.4591
865,0.0,0.0,0.0,0.0,0.0,0.0,-0.1637,0.9839,-0.0912,0.4188,0.5518,-0.5560,-0.4592
866,0.0,0.0,0.0,0.0,0.0,0.0,-0.1545,0.9884,-0.0801,0.4202,0.5511,-0.5553,-0.4597
867,0.0,0.0,0.0,0.0,0.0,0.0,-0.1506,0.9776,-0.0908,0.4210,0.5504,-0.5550,-0.4601
868,0.0,0.0,0.0,0.0,0.0,0.0,-0.1486,0.9585,-0.1021,0.4213,0.5499,-0.5549,-0.4606
869,0.0,0.0,0.0,0.0,0.0,0.0,-0.1306,0.9609,-0.1028,0.4216,0.5490,-0.5555,-0.4607
870,0.0,0.0,0.0,0.0,0.0,0.0,-0.1360,0.9663,-0.0944,0.4215,0.5483,-0.5569,-0.4600
871,0.0,0.0,0.0,0.0,0.0,0.0,-0.1559,0.9717,-0.0962,0.4205,0.5477,-0.5590,-0.4590
872,0.0,0.0,0.0,0.0,0.0,0.0,-0.1462,0.9732,-0.0914,0.4201,0.5476,-0.5610,-0.4571
873,0.0,0.0,0.0,0.0,0.0,0.0,-0.1369,0.9731,-0.1021,0.4189,0.5480,-0.5638,-0.4542
874,0.0,0.0,0.0,0.0,0.0,0.0,-0.1505,0.9765,-0.1078,0.4168,0.5490,-0.5667,-0.4514
875,0.0,0.0,0.0,0.0,0.0,0.0,-0.1451,0.9841,-0.1219,0.4158,0.5497,-0.5685,-0.4492
876,0.0,0.0,0.0,0.0,0.0,0.0,-0.1242,1.0012,-0.1171,0.4150,0.5492,-0.5709,-0.4476
877,0.0,0.0,0.0,0.0,0.0,0.0,-0.1370,1.0169,-0.1043,0.4152,0.5484,-0.5718,-0.4471
878,0.0,0.0,0.0,0.0,0.0,0.0,-0.1476,1.0071,-0.1183,0.4157,0.5481,-0.5711,-0.4479
879,0.0,0.0,0.0,0.0,0.0,0.0,-0.1335,1.0008,-0.1131,0.4156,0.5475,-0.5709,-0.4490
880,0.0,0.0,0.0,0.0,0.0,0.0,-0.1169,0.9885,-0.1206,0.4159,0.5471,-0.5702,-0.4502
881,0.0,0.0,0.0,0.0,0.0,0.0,-0.1183,0.9773,-0.1236,0.4158,0.5468,-0.5695,-0.4513
882,0.0,0.0,0.0,0.0,0.0,0.0,-0.1277,0.9896,-0.1099,0.4167,0.5466,-0.5677,-0.4531
883,0.0,0.0,0.0,0.0,0.0,0.0,-0.1321,0.9877,-0.1055,0.4177,0.5467,-0.5657,-0.4546
884,0.0,0.0,0.0,0.0,0.0,0.0,-0.1306,0.9760,-0.1031,0.4184,0.5466,-0.5642,-0.4559
885,0.0,0.0,0.0,0.0,0.0,0.0,-0.1418,0.9926,-0.0952,0.4194,0.5466,-0.5622,-0.4574
886,0.0,0.0,0.0,0.0,0.0,0.0,-0.1560,0.9917,-0.0883,0.4201,0.5469,-0.5602,-0.4590
887,0.0,0.0,0.0,0.0,0.0,0.0,-0.1424,0.9927,-0.0831,0.4214,0.5471,-0.5576,-0.4607
888,0.0,0.0,0.0,0.0,0.0,0.0,-0.1360,0.9703,-0.0886,0.4226,0.5473,-0.5547,-0.4627
889,0.0,0.0,0.0,0.0,0.0,0.0,-0.1311,0.9634,-0.0868,0.4236,0.5472,-0.5524,-0.4648
890,0.0,0.0,0.0,0.0,0.0,0.0,-0.1433,0.9655,-0.0799,0.4235,0.5477,-0.5511,-0.4658
891,0.0,0.0,0.0,0.0,0.0,0.0,-0.1619,0.9762,-0.0733,0.4234,0.5484,-0.5499,-0.4666
892,0.0,0.0,0.0,0.0,0.0,0.0,-0.1658,0.9729,-0.0685,0.4238,0.5490,-0.5485,-0.4671
893,0.0,0.0,0.0,0.0,0.0,0.0,-0.1656,0.9387,-0.0827,0.4232,0.5496,-0.5483,-0.4671
894,0.0,0.0,0.0,0.0,0.0,0.0,-0.1422,0.9249,-0.0932,0.4219,0.5503,-0.5493,-0.4663
895,0.0,0.0,0.0,0.0,0.0,0.0,-0.1330,0.9419,-0.0985,0.4190,0.5504,-0.5526,-0.4649
896,0.0,0.0,0.0,0.0,0.0,0.0,-0.1861,0.9582,-0.0848,0.4142,0.5509,-0.5577,-0.4625
897,0.0,0.0,0.0,0.0,0.0,0.0,-0.1807,0.9439,-0.0986,0.4103,0.5519,-0.5625,-0.4590
898,0.0,0.0,0.0,0.0,0.0,0.0,-0.1309,0.9319,-0.1378,0.4078,0.5519,-0.5674,-0.4551
899,0.0,0.0,0.0,0.0,0.0,0.0,-0.0920,0.9815,-0.1379,0.4061,0.5499,-0.5729,-0.4522
900,0.0,0.0,0.0,0.0,0.0,0.0,-0.1118,1.0511,-0.0839,0.4068,0.5467,-0.5764,-0.4510
901,0.0,0.0,0.0,0.0,0.0,0.0,-0.1766,1.0640,-0.0634,0.4104,0.5441,-0.5757,-0.4518
902,0.0,0.0,0.0,0.0,0.0,0.0,-0.1906,1.0025,-0.0855,0.4133,0.5437,-0.5726,-0.4535
903,0.0,0.0,0.0,0.0,0.0,0.0,-0.1224,0.9964,-0.1021,0.4152,0.5428,-0.5703,-0.4557
904,0.0,0.0,0.0,0.0,0.0,0.0,-0.1244,1.0131,-0.0928,0.4158,0.5421,-0.5694,-0.4573
905,0.0,0.0,0.0,0.0,0.0,0.0,-0.1711,0.9883,-0.0886,0.4153,0.5422,-0.5681,-0.4591
906,0.0,0.0,0.0,0.0,0.0,0.0,-0.1637,0.9634,-0.0932,0.4166,0.5434,-0.5651,-0.4602
907,0.0,0.0,0.0,0.0,0.0,0.0,-0.1511,0.9810,-0.0884,0.4174,0.5455,-0.5630,-0.4596
908,0.0,0.0,0.0,0.0,0.0,0.0,-0.1472,0.9845,-0.0797,0.4179,0.5468,-0.5616,-0.4592
909,0.0,0.0,0.0,0.0,0.0,0.0,-0.1336,0.9732,-0.0886,0.4190,0.5470,-0.5606,-0.4593
910,0.0,0.0,0.0,0.0,0.0,0.0,-0.1414,0.9732,-0.0876,0.4188,0.5471,-0.5607,-0.4592
911,0.0,0.0,0.0,0.0,0.0,0.0,-0.1486,0.9780,-0.0918,0.4175,0.5471,-0.5614,-0.4596
912,0.0,0.0,0.0,0.0,0.0,0.0,-0.1594,0.9815,-0.0883,0.4160,0.5470,-0.5623,-0.4600
913,0.0,0.0,0.0,0.0,0.0,0.0,-0.1428,0.9849,-0.0846,0.4156,0.5468,-0.5629,-0.4598
914,0.0,0.0,0.0,0.0,0.0,0.0,-0.1291,0.9609,-0.1018,0.4153,0.5471,-0.5635,-0.4591
915,0.0,0.0,0.0,0.0,0.0,0.0,-0.1310,0.9618,-0.1066,0.4151,0.5474,-0.5640,-0.4583
916,0.0,0.0,0.0,0.0,0.0,0.0,-0.1316,0.9736,-0.0949,0.4153,0.5474,-0.5646,-0.4574
917,0.0,0.0,0.0,0.0,0.0,0.0,-0.1364,0.9682,-0.1041,0.4149,0.5470,-0.5654,-0.4571
918,0.0,0.0,0.0,0.0,0.0,0.0,-0.1505,0.9736,-0.1040,0.4140,0.5471,-0.5665,-0.4566
919,0.0,0.0,0.0,0.0,0.0,0.0,-0.1476,0.9716,-0.2309,0.4113,0.5494,-0.5668,-0.4556
920,0.0,0.0,0.0,0.0,0.0,0.0,-0.1310,0.9749,-0.1172,0.4109,0.5500,-0.5667,-0.4555
921,0.0,0.0,0.0,0.0,0.0,0.0,-0.1267,0.9803,-0.1128,0.4102,0.5505,-0.5673,-0.4547
922,0.0,0.0,0.0,0.0,0.0,0.0,-0.1446,0.9710,-0.1190,0.4091,0.5513,-0.5683,-0.4536
923,0.0,0.0,0.0,0.0,0.0,0.0,-0.1529,0.9710,-0.1253,0.4081,0.5525,-0.5687,-0.4525
924,0.0,0.0,0.0,0.0,0.0,0.0,-0.1437,0.9910,-0.1189,0.4077,0.5531,-0.5688,-0.4520
925,0.0,0.0,0.0,0.0,0.0,0.0,-0.1471,0.9890,-0.1208,0.4070,0.5535,-0.5691,-0.4517
926,0.0,0.0,0.0,0.0,0.0,0.0,-0.1558,0.9729,-0.1281,0.4064,0.5539,-0.5692,-0.4517
927,0.0,0.0,0.0,0.0,0.0,0.0,-0.1500,0.9856,-0.1252,0.4063,0.5541,-0.5694,-0.4514
928,0.0,0.0,0.0,0.0,0.0,0.0,-0.1632,0.9910,-0.1178,0.4059,0.5545,-0.5697,-0.4508
929,0.0,0.0,0.0,0.0,0.0,0.0,-0.1752,0.9656,-0.1280,0.4055,0.5551,-0.5697,-0.4505
930,0.0,0.0,0.0,0.0,0.0,0.0,-0.1587,0.9777,-0.1319,0.4059,0.5556,-0.5690,-0.4504
931,0.0,0.0,0.0,0.0,0.0,0.0,-0.1569,1.0003,-0.1168,0.4063,0.5557,-0.5687,-0.4503
932,0.0,0.0,0.0,0.0,0.0,0.0,-0.1743,0.9842,-0.1172,0.4060,0.5554,-0.5685,-0.4510
933,0.0,0.0,0.0,0.0,0.0,0.0,-0.1762,0.9739,-0.1245,0.4058,0.5555,-0.5680,-0.4519
934,0.0,0.0,0.0,0.0,0.0,0.0,-0.1714,0.9862,-0.1134,0.4059,0.5552,-0.5673,-0.4529
935,0.0,0.0,0.0,0.0,0.0,0.0,-0.1578,0.9779,-0.1150,0.4063,0.5546,-0.5665,-0.4543
936,0.0,0.0,0.0,0.0,0.0,0.0,-0.1588,0.9760,-0.1087,0.4068,0.5542,-0.5654,-0.4558
937,0.0,0.0,0.0,0.0,0.0,0.0,-0.1613,0.9907,-0.0936,0.4081,0.5534,-0.5634,-0.4580
938,0.0,0.0,0.0,0.0,0.0,0.0,-0.1730,0.9878,-0.0935,0.4096,0.5523,-0.5610,-0.4609
939,0.0,0.0,0.0,0.0,0.0,0.0,-0.1852,1.0021,-0.0783,0.4116,0.5520,-0.5578,-0.4635
940,0.0,0.0,0.0,0.0,0.0,0.0,-0.1824,0.9997,-0.0662,0.4143,0.5519,-0.5535,-0.4662
941,0.0,0.0,0.0,0.0,0.0,0.0,-0.1676,0.9562,-0.0816,0.4165,0.5519,-0.5497,-0.4689
942,0.0,0.0,0.0,0.0,0.0,0.0,-0.1647,0.9543,-0.0749,0.4183,0.5519,-0.5464,-0.4711
943,0.0,0.0,0.0,0.0,0.0,0.0,-0.1867,0.9652,-0.0586,0.4190,0.5528,-0.5435,-0.4727
944,0.0,0.0,0.0,0.0,0.0,0.0,-0.1877,0.9622,-0.0630,0.4205,0.5538,-0.5397,-0.4746
945,0.0,0.0,0.0,0.0,0.0,0.0,-0.1721,0.9525,-0.0618,0.4215,0.5543,-0.5372,-0.4758
946,0.0,0.0,0.0,0.0,0.0,0.0,-0.1813,0.9481,-0.0617,0.4214,0.5549,-0.5363,-0.4764
947,0.0,0.0,0.0,0.0,0.0,0.0,-0.1978,0.9388,-0.0679,0.4198,0.5559,-0.5365,-0.4764
948,0.0,0.0,0.0,0.0,0.0,0.0,-0.1813,0.9441,-0.0743,0.4180,0.5566,-0.5375,-0.4760
949,0.0,0.0,0.0,0.0,0.0,0.0,-0.1745,0.9754,-0.0635,0.4164,0.5563,-0.5395,-0.4753
950,0.0,0.0,0.0,0.0,0.0,0.0,-0.2008,0.9701,-0.0594,0.4147,0.5563,-0.5420,-0.4742
951,0.0,0.0,0.0,0.0,0.0,0.0,-0.2071,0.9724,-0.0676,0.4137,0.5568,-0.5429,-0.4734
952,0.0,0.0,0.0,0.0,0.0,0.0,-0.1970,0.9871,-0.0623,0.4132,0.5569,-0.5435,-0.4730
953,0.0,0.0,0.0,0.0,0.0,0.0,-0.2028,0.9910,-0.0593,0.4125,0.5563,-0.5441,-0.4736
954,0.0,0.0,0.0,0.0,0.0,0.0,-0.1974,0.9744,-0.0696,0.4124,0.5560,-0.5437,-0.4746
955,0.0,0.0,0.0,0.0,0.0,0.0,-0.1662,0.9582,-0.0792,0.4134,0.5556,-0.5431,-0.4748
956,0.0,0.0,0.0,0.0,0.0,0.0,-0.1692,0.9797,-0.0703,0.4151,0.5551,-0.5421,-0.4751
957,0.0,0.0,0.0,0.0,0.0,0.0,-0.1950,0.9822,-0.0652,0.4168,0.5546,-0.5411,-0.4753
958,0.0,0.0,0.0,0.0,0.0,0.0,-0.2009,0.9847,-0.0574,0.4184,0.5539,-0.5401,-0.4758
959,0.0,0.0,0.0,0.0,0.0,0.0,-0.1911,0.9740,-0.0576,0.4195,0.5531,-0.5394,-0.4765
960,0.0,0.0,0.0,0.0,0.0,0.0,-0.1936,0.9799,-0.0473,0.4204,0.5511,-0.5390,-0.4786
961,0.0,0.0,0.0,0.0,0.0,0.0,-0.1828,0.9603,-0.0601,0.4210,0.5499,-0.5391,-0.4792
962,0.0,0.0,0.0,0.0,0.0,0.0,-0.1701,0.9407,-0.0769,0.4209,0.5503,-0.5393,-0.4788
963,0.0,0.0,0.0,0.0,0.0,0.0,-0.1707,0.9705,-0.0568,0.4215,0.5496,-0.5395,-0.4788
964,0.0,0.0,0.0,0.0,0.0,0.0,-0.1814,0.9735,-0.0514,0.4214,0.5494,-0.5406,-0.4778
965,0.0,0.0,0.0,0.0,0.0,0.0,-0.1819,0.9725,-0.0577,0.4211,0.5500,-0.5414,-0.4764
966,0.0,0.0,0.0,0.0,0.0,0.0,-0.1672,0.9768,-0.0631,0.4201,0.5508,-0.5430,-0.4747
967,0.0,0.0,0.0,0.0,0.0,0.0,-0.1711,0.9724,-0.0626,0.4183,0.5515,-0.5455,-0.4725
968,0.0,0.0,0.0,0.0,0.0,0.0,-0.1575,0.9850,-0.0694,0.4182,0.5512,-0.5469,-0.4715
969,0.0,0.0,0.0,0.0,0.0,0.0,-0.1493,1.0207,-0.0567,0.4199,0.5491,-0.5472,-0.4720
970,0.0,0.0,0.0,0.0,0.0,0.0,-0.1878,1.0052,-0.0511,0.4215,0.5477,-0.5466,-0.4729
971,0.0,0.0,0.0,0.0,0.0,0.0,-0.1979,0.9900,-0.0584,0.4234,0.5472,-0.5444,-0.4743
972,0.0,0.0,0.0,0.0,0.0,0.0,-0.1678,0.9895,-0.0552,0.4255,0.5472,-0.5422,-0.4749
973,0.0,0.0,0.0,0.0,0.0,0.0,-0.1633,0.9700,-0.0680,0.4261,0.5465,-0.5412,-0.4763
974,0.0,0.0,0.0,0.0,0.0,0.0,-0.1819,0.9852,-0.0566,0.4263,0.5459,-0.5406,-0.4775
975,0.0,0.0,0.0,0.0,0.0,0.0,-0.1902,0.9872,-0.0507,0.4264,0.5461,-0.5400,-0.4778
976,0.0,0.0,0.0,0.0,0.0,0.0,-0.1731,0.9768,-0.0596,0.4274,0.5465,-0.5388,-0.4779
977,0.0,0.0,0.0,0.0,0.0,0.0,-0.1707,0.9745,-0.0539,0.4283,0.5473,-0.5376,-0.4774
978,0.0,0.0,0.0,0.0,0.0,0.0,-0.1790,0.9916,-0.0406,0.4292,0.5472,-0.5366,-0.4779
979,0.0,0.0,0.0,0.0,0.0,0.0,-0.1751,0.9686,-0.0519,0.4292,0.5467,-0.5369,-0.4782
980,0.0,0.0,0.0,0.0,0.0,0.0,-0.1798,0.9417,-0.0695,0.4276,0.5476,-0.5378,-0.4776
981,0.0,0.0,0.0,0.0,0.0,0.0,-0.1594,0.9587,-0.0691,0.4267,0.5487,-0.5386,-0.4763
982,0.0,0.0,0.0,0.0,0.0,0.0,-0.1546,0.9788,-0.0564,0.4261,0.5491,-0.5399,-0.4748
983,0.0,0.0,0.0,0.0,0.0,0.0,-0.1688,0.9910,-0.0518,0.4262,0.5488,-0.5410,-0.4737
984,0.0,0.0,0.0,0.0,0.0,0.0,-0.1692,0.9851,-0.0582,0.4265,0.5483,-0.5418,-0.4732
985,0.0,0.0,0.0,0.0,0.0,0.0,-0.1712,0.9788,-0.0592,0.4266,0.5478,-0.5424,-0.4731
986,0.0,0.0,0.0,0.0,0.0,0.0,-0.1644,0.9866,-0.0567,0.4264,0.5476,-0.5428,-0.4730
987,0.0,0.0,0.0,0.0,0.0,0.0,-0.1512,0.9802,-0.0579,0.4265,0.5469,-0.5434,-0.4730
988,0.0,0.0,0.0,0.0,0.0,0.0,-0.1434,0.9587,-0.0668,0.4262,0.5460,-0.5449,-0.4726
989,0.0,0.0,0.0,0.0,0.0,0.0,-0.1400,0.9626,-0.0663,0.4258,0.5454,-0.5462,-0.4721
990,0.0,0.0,0.0,0.0,0.0,0.0,-0.1376,0.9802,-0.0590,0.4259,0.5449,-0.5473,-0.4714
991,0.0,0.0,0.0,0.0,0.0,0.0,-0.1439,0.9778,-0.0638,0.4260,0.5447,-0.5485,-0.4700
992,0.0,0.0,0.0,0.0,0.0,0.0,-0.1444,0.9822,-0.0589,0.4265,0.5448,-0.5492,-0.4688
993,0.0,0.0,0.0,0.0,0.0,0.0,-0.1366,0.9851,-0.0570,0.4274,0.5448,-0.5497,-0.4674
994,0.0,0.0,0.0,0.0,0.0,0.0,-0.1459,0.9900,-0.0550,0.4286,0.5447,-0.5500,-0.4660
995,0.0,0.0,0.0,0.0,0.0,0.0,-0.1537,0.9841,-0.0583,0.4286,0.5447,-0.5507,-0.4650
996,0.0,0.0,0.0,0.0,0.0,0.0,-0.1546,0.9885,-0.0612,0.4286,0.5451,-0.5511,-0.4641
997,0.0,0.0,0.0,0.0,0.0,0.0,-0.1488,0.9865,-0.0637,0.4291,0.5453,-0.5513,-0.4633
998,0.0,0.0,0.0,0.0,0.0,0.0,-0.1439,0.9767,-0.0681,0.4298,0.5453,-0.5512,-0.4627
999,0.0,0.0,0.0,0.0,0.0,0.0,-0.1487,0.9748,-0.0700,0.4303,0.5456,-0.5514,-0.4617
1000,0.0,0.0,0.0,0.0,0.0,0.0,-0.1595,0.9817,-0.0602,0.4306,0.5462,-0.5519,-0.4601
1001,0.0,0.0,0.0,0.0,0.0,0.0,-0.1697,0.9812,-0.0625,0.4300,0.5474,-0.5529,-0.4581
1002,0.0,0.0,0.0,0.0,0.0,0.0,-0.1809,0.9870,-0.0687,0.4277,0.5495,-0.5542,-0.4561
1003,0.0,0.0,0.0,0.0,0.0,0.0,-0.1706,0.9782,-0.0781,0.4248,0.5520,-0.5559,-0.4536
1004,0.0,0.0,0.0,0.0,0.0,0.0,-0.1272,0.9858,-0.0949,0.4236,0.5531,-0.5566,-0.4527
1005,0.0,0.0,0.0,0.0,0.0,0.0,-0.1312,1.0214,-0.0859,0.4240,0.5529,-0.5562,-0.4529
1006,0.0,0.0,0.0,0.0,0.0,0.0,-0.1688,1.0231,-0.0662,0.4239,0.5527,-0.5558,-0.4538
1007,0.0,0.0,0.0,0.0,0.0,0.0,-0.1730,0.9860,-0.0780,0.4240,0.5531,-0.5539,-0.4556
1008,0.0,0.0,0.0,0.0,0.0,0.0,-0.1447,0.9663,-0.0929,0.4235,0.5536,-0.5524,-0.4572
1009,0.0,0.0,0.0,0.0,0.0,0.0,-0.1316,0.9693,-0.0843,0.4231,0.5532,-0.5516,-0.4590
1010,0.0,0.0,0.0,0.0,0.0,0.0,-0.1492,0.9743,-0.0768,0.4229,0.5526,-0.5510,-0.4606
1011,0.0,0.0,0.0,0.0,0.0,0.0,-0.1672,0.9665,-0.0787,0.4230,0.5528,-0.5500,-0.4614
1012,0.0,0.0,0.0,0.0,0.0,0.0,-0.1594,0.9630,-0.0788,0.4239,0.5535,-0.5488,-0.4612
1013,0.0,0.0,0.0,0.0,0.0,0.0,-0.1565,0.9684,-0.0778,0.4245,0.5541,-0.5482,-0.4607
1014,0.0,0.0,0.0,0.0,0.0,0.0,-0.1677,0.9694,-0.0767,0.4245,0.5544,-0.5481,-0.4604
1015,0.0,0.0,0.0,0.0,0.0,0.0,-0.1638,0.9689,-0.0796,0.4243,0.5546,-0.5482,-0.4603
1016,0.0,0.0,0.0,0.0,0.0,0.0,-0.1569,0.9679,-0.0850,0.4235,0.5548,-0.5487,-0.4602
1017,0.0,0.0,0.0,0.0,0.0,0.0,-0.1721,0.9811,-0.0780,0.4229,0.5547,-0.5490,-0.4605
1018,0.0,0.0,0.0,0.0,0.0,0.0,-0.1647,0.9786,-0.0815,0.4227,0.5548,-0.5491,-0.4605
1019,0.0,0.0,0.0,0.0,0.0,0.0,-0.1618,0.9698,-0.0893,0.4226,0.5554,-0.5489,-0.4601
1020,0.0,0.0,0.0,0.0,0.0,0.0,-0.1686,0.9786,-0.0834,0.4226,0.5558,-0.5490,-0.4595
1021,0.0,0.0,0.0,0.0,0.0,0.0,-0.1662,0.9723,-0.0854,0.4207,0.5570,-0.5507,-0.4576
1022,0.0,0.0,0.0,0.0,0.0,0.0,-0.1535,0.9585,-0.0977,0.4197,0.5572,-0.5520,-0.4569
1023,0.0,0.0,0.0,0.0,0.0,0.0,-0.1481,0.9629,-0.1021,0.4180,0.5573,-0.5542,-0.4556
1024,0.0,0.0,0.0,0.0,0.0,0.0,-0.1472,0.9775,-0.0981,0.4169,0.5572,-0.5562,-0.4543
1025,0.0,0.0,0.0,0.0,0.0,0.0,-0.1510,0.9799,-0.0995,0.4171,0.5568,-0.5572,-0.4533
1026,0.0,0.0,0.0,0.0,0.0,0.0,-0.1510,0.9696,-0.1127,0.4168,0.5569,-0.5584,-0.4520
1027,0.0,0.0,0.0,0.0,0.0,0.0,-0.1462,0.9852,-0.1044,0.4164,0.5571,-0.5596,-0.4507
1028,0.0,0.0,0.0,0.0,0.0,0.0,-0.1413,0.9784,-0.1093,0.4158,0.5574,-0.5609,-0.4492
1029,0.0,0.0,0.0,0.0,0.0,0.0,-0.1315,0.9685,-0.1250,0.4144,0.5574,-0.5627,-0.4482
1030,0.0,0.0,0.0,0.0,0.0,0.0,-0.1305,0.9783,-0.1196,0.4132,0.5571,-0.5643,-0.4477
1031,0.0,0.0,0.0,0.0,0.0,0.0,-0.1408,0.9880,-0.1214,0.4128,0.5575,-0.5649,-0.4470
1032,0.0,0.0,0.0,0.0,0.0,0.0,-0.1398,0.9929,-0.1175,0.4134,0.5579,-0.5645,-0.4464
1033,0.0,0.0,0.0,0.0,0.0,0.0,-0.1378,0.9929,-0.1204,0.4140,0.5581,-0.5643,-0.4457
1034,0.0,0.0,0.0,0.0,0.0,0.0,-0.1461,0.9851,-0.1223,0.4140,0.5581,-0.5644,-0.4456
1035,0.0,0.0,0.0,0.0,0.0,0.0,-0.1524,0.9778,-0.1218,0.4136,0.5580,-0.5647,-0.4457
1036,0.0,0.0,0.0,0.0,0.0,0.0,-0.1485,0.9783,-0.1257,0.4133,0.5581,-0.5647,-0.4459
1037,0.0,0.0,0.0,0.0,0.0,0.0,-0.1451,0.9807,-0.1238,0.4135,0.5580,-0.5646,-0.4459
1038,0.0,0.0,0.0,0.0,0.0,0.0,-0.1485,0.9783,-0.1228,0.4138,0.5582,-0.5643,-0.4458
1039,0.0,0.0,0.0,0.0,0.0,0.0,-0.1495,0.9729,-0.1287,0.4141,0.5585,-0.5636,-0.4461
1040,0.0,0.0,0.0,0.0,0.0,0.0,-0.1412,0.9807,-0.1195,0.4150,0.5581,-0.5624,-0.4472
1041,0.0,0.0,0.0,0.0,0.0,0.0,-0.1584,1.0126,-0.0934,0.4154,0.5574,-0.5617,-0.4486
1042,0.0,0.0,0.0,0.0,0.0,0.0,-0.1750,0.9946,-0.0900,0.4148,0.5567,-0.5612,-0.4507
1043,0.0,0.0,0.0,0.0,0.0,0.0,-0.1436,0.9457,-0.1144,0.4142,0.5566,-0.5604,-0.4523
1044,0.0,0.0,0.0,0.0,0.0,0.0,-0.1222,0.9481,-0.1223,0.4142,0.5567,-0.5603,-0.4522
1045,0.0,0.0,0.0,0.0,0.0,0.0,-0.1330,0.9755,-0.1031,0.4145,0.5565,-0.5608,-0.4516
1046,0.0,0.0,0.0,0.0,0.0,0.0,-0.1501,0.9760,-0.0986,0.4154,0.5566,-0.5607,-0.4508
1047,0.0,0.0,0.0,0.0,0.0,0.0,-0.1525,0.9755,-0.1030,0.4164,0.5572,-0.5603,-0.4497
1048,0.0,0.0,0.0,0.0,0.0,0.0,-0.1481,0.9736,-0.1006,0.4167,0.5577,-0.5602,-0.4489
1049,0.0,0.0,0.0,0.0,0.0,0.0,-0.1437,0.9799,-0.1040,0.4167,0.5577,-0.5604,-0.4487
1050,0.0,0.0,0.0,0.0,0.0,0.0,-0.1374,0.9847,-0.1079,0.4166,0.5572,-0.5610,-0.4486
1051,0.0,0.0,0.0,0.0,0.0,0.0,-0.1486,0.9769,-0.1088,0.4171,0.5570,-0.5609,-0.4484
1052,0.0,0.0,0.0,0.0,0.0,0.0,-0.1569,0.9828,-0.1077,0.4185,0.5574,-0.5600,-0.4479
1053,0.0,0.0,0.0,0.0,0.0,0.0,-0.1534,0.9789,-0.1102,0.4199,0.5581,-0.5587,-0.4473
1054,0.0,0.0,0.0,0.0,0.0,0.0,-0.1476,0.9779,-0.1093,0.4213,0.5582,-0.5577,-0.4471
1055,0.0,0.0,0.0,0.0,0.0,0.0,-0.1578,0.9701,-0.1180,0.4216,0.5581,-0.5574,-0.4473
1056,0.0,0.0,0.0,0.0,0.0,0.0,-0.1637,0.9779,-0.1116,0.4217,0.5583,-0.5568,-0.4477
1057,0.0,0.0,0.0,0.0,0.0,0.0,-0.1510,0.9794,-0.1102,0.4222,0.5582,-0.5562,-0.4481
1058,0.0,0.0,0.0,0.0,0.0,0.0,-0.1500,0.9701,-0.1151,0.4224,0.5579,-0.5562,-0.4483
1059,0.0,0.0,0.0,0.0,0.0,0.0,-0.1691,0.9829,-0.0998,0.4229,0.5582,-0.5554,-0.4484
1060,0.0,0.0,0.0,0.0,0.0,0.0,-0.1657,0.9887,-0.0955,0.4242,0.5583,-0.5537,-0.4492
1061,0.0,0.0,0.0,0.0,0.0,0.0,-0.1526,0.9970,-0.0931,0.4262,0.5581,-0.5514,-0.4504
1062,0.0,0.0,0.0,0.0,0.0,0.0,-0.1559,0.9795,-0.0942,0.4272,0.5573,-0.5501,-0.4520
1063,0.0,0.0,0.0,0.0,0.0,0.0,-0.1710,0.9791,-0.0877,0.4282,0.5566,-0.5482,-0.4542
1064,0.0,0.0,0.0,0.0,0.0,0.0,-0.1716,0.9791,-0.0795,0.4298,0.5563,-0.5456,-0.4561
1065,0.0,0.0,0.0,0.0,0.0,0.0,-0.1570,0.9865,-0.0733,0.4322,0.5557,-0.5430,-0.4577
1066,0.0,0.0,0.0,0.0,0.0,0.0,-0.1531,0.9679,-0.0807,0.4345,0.5549,-0.5408,-0.4592
1067,0.0,0.0,0.0,0.0,0.0,0.0,-0.1476,0.9425,-0.0863,0.4361,0.5540,-0.5396,-0.4601
1068,0.0,0.0,0.0,0.0,0.0,0.0,-0.1614,0.9680,-0.0690,0.4371,0.5529,-0.5391,-0.4612
1069,0.0,0.0,0.0,0.0,0.0,0.0,-0.1620,0.9930,-0.0490,0.4375,0.5519,-0.5389,-0.4622
1070,0.0,0.0,0.0,0.0,0.0,0.0,-0.1585,0.9818,-0.0501,0.4394,0.5511,-0.5372,-0.4633
1071,0.0,0.0,0.0,0.0,0.0,0.0,-0.1375,0.9368,-0.0719,0.4407,0.5507,-0.5361,-0.4638
1072,0.0,0.0,0.0,0.0,0.0,0.0,-0.1165,0.9352,-0.0759,0.4404,0.5500,-0.5373,-0.4636
1073,0.0,0.0,0.0,0.0,0.0,0.0,-0.1268,0.9587,-0.0645,0.4390,0.5490,-0.5401,-0.4628
1074,0.0,0.0,0.0,0.0,0.0,0.0,-0.1414,0.9709,-0.0653,0.4369,0.5482,-0.5435,-0.4617
1075,0.0,0.0,0.0,0.0,0.0,0.0,-0.1380,0.9680,-0.0702,0.4352,0.5483,-0.5468,-0.4594
1076,0.0,0.0,0.0,0.0,0.0,0.0,-0.1341,0.9654,-0.0824,0.4335,0.5492,-0.5504,-0.4555
1077,0.0,0.0,0.0,0.0,0.0,0.0,-0.1516,0.9845,-0.0777,0.4303,0.5503,-0.5556,-0.4510
1078,0.0,0.0,0.0,0.0,0.0,0.0,-0.1565,1.0049,-0.0780,0.4267,0.5513,-0.5605,-0.4470
1079,0.0,0.0,0.0,0.0,0.0,0.0,-0.1282,0.9930,-0.1113,0.4251,0.5514,-0.5636,-0.4445
1080,0.0,0.0,0.0,0.0,0.0,0.0,-0.1160,1.0027,-0.1099,0.4243,0.5507,-0.5662,-0.4430
1081,0.0,0.0,0.0,0.0,0.0,0.0,-0.1209,1.0169,-0.0986,0.4247,0.5496,-0.5680,-0.4416
1082,0.0,0.0,0.0,0.0,0.0,0.0,-0.1223,0.9993,-0.1142,0.4249,0.5487,-0.5688,-0.4413
1083,0.0,0.0,0.0,0.0,0.0,0.0,-0.1087,0.9929,-0.1124,0.4251,0.5472,-0.5696,-0.4421
1084,0.0,0.0,0.0,0.0,0.0,0.0,-0.0975,1.0037,-0.1042,0.4254,0.5450,-0.5702,-0.4436
1085,0.0,0.0,0.0,0.0,0.0,0.0,-0.1039,0.9984,-0.1032,0.4259,0.5436,-0.5703,-0.4448
1086,0.0,0.0,0.0,0.0,0.0,0.0,-0.1010,1.0013,-0.1013,0.4278,0.5427,-0.5687,-0.4461
1087,0.0,0.0,0.0,0.0,0.0,0.0,-0.1180,1.0018,-0.0958,0.4303,0.5420,-0.5666,-0.4473
1088,0.0,0.0,0.0,0.0,0.0,0.0,-0.1224,0.9829,-0.0872,0.4317,0.5411,-0.5649,-0.4492
1089,0.0,0.0,0.0,0.0,0.0,0.0,-0.1175,0.9863,-0.0828,0.4335,0.5401,-0.5623,-0.4520
1090,0.0,0.0,0.0,0.0,0.0,0.0,-0.1176,0.9957,-0.0731,0.4343,0.5394,-0.5604,-0.4542
1091,0.0,0.0,0.0,0.0,0.0,0.0,-0.1283,0.9826,-0.0697,0.4345,0.5391,-0.5587,-0.4566
1092,0.0,0.0,0.0,0.0,0.0,0.0,-0.1160,0.9498,-0.0855,0.4337,0.5389,-0.5577,-0.4587
1093,0.0,0.0,0.0,0.0,0.0,0.0,-0.1029,0.9688,-0.0758,0.4335,0.5387,-0.5569,-0.4601
1094,0.0,0.0,0.0,0.0,0.0,0.0,-0.1060,0.9856,-0.0558,0.4340,0.5384,-0.5562,-0.4608
1095,0.0,0.0,0.0,0.0,0.0,0.0,-0.1127,0.9699,-0.0641,0.4342,0.5383,-0.5560,-0.4611
1096,0.0,0.0,0.0,0.0,0.0,0.0,-0.1161,0.9748,-0.0650,0.4350,0.5382,-0.5553,-0.4613
1097,0.0,0.0,0.0,0.0,0.0,0.0,-0.1210,0.9797,-0.0582,0.4354,0.5385,-0.5548,-0.4611
1098,0.0,0.0,0.0,0.0,0.0,0.0,-0.1283,0.9699,-0.0683,0.4353,0.5393,-0.5548,-0.4604
1099,0.0,0.0,0.0,0.0,0.0,0.0,-0.1288,0.9841,-0.0610,0.4348,0.5402,-0.5554,-0.4589
1100,0.0,0.0,0.0,0.0,0.0,0.0,-0.1366,0.9870,-0.0652,0.4336,0.5419,-0.5565,-0.4568
1101,0.0,0.0,0.0,0.0,0.0,0.0,-0.1331,0.9839,-0.0847,0.4328,0.5435,-0.5568,-0.4553
1102,0.0,0.0,0.0,0.0,0.0,0.0,-0.1309,1.0469,-0.0600,0.4339,0.5433,-0.5559,-0.4555
1103,0.0,0.0,0.0,0.0,0.0,0.0,-0.1670,1.0511,-0.0282,0.4350,0.5432,-0.5541,-0.4568
1104,0.0,0.0,0.0,0.0,0.0,0.0,-0.1521,0.9791,-0.0787,0.4359,0.5437,-0.5508,-0.4593
1105,0.0,0.0,0.0,0.0,0.0,0.0,-0.1200,0.9903,-0.0731,0.4380,0.5439,-0.5473,-0.4613
1106,0.0,0.0,0.0,0.0,0.0,0.0,-0.1396,1.0018,-0.0448,0.4392,0.5434,-0.5454,-0.4630
1107,0.0,0.0,0.0,0.0,0.0,0.0,-0.1697,0.9788,-0.0572,0.4399,0.5435,-0.5429,-0.4651
1108,0.0,0.0,0.0,0.0,0.0,0.0,-0.1609,0.9481,-0.0638,0.4404,0.5446,-0.5405,-0.4662
1109,0.0,0.0,0.0,0.0,0.0,0.0,-0.1278,0.9466,-0.0573,0.4405,0.5450,-0.5395,-0.4667
1110,0.0,0.0,0.0,0.0,0.0,0.0,-0.1195,0.9451,-0.0603,0.4394,0.5442,-0.5407,-0.4673
1111,0.0,0.0,0.0,0.0,0.0,0.0,-0.1439,0.9681,-0.0469,0.4376,0.5434,-0.5424,-0.4680
1112,0.0,0.0,0.0,0.0,0.0,0.0,-0.1591,0.9756,-0.0351,0.4355,0.5446,-0.5419,-0.4691
1113,0.0,0.0,0.0,0.0,0.0,0.0,-0.1473,0.9622,-0.0571,0.4348,0.5450,-0.5423,-0.4689
1114,0.0,0.0,0.0,0.0,0.0,0.0,-0.1313,0.9740,-0.0455,0.4341,0.5454,-0.5434,-0.4678
1115,0.0,0.0,0.0,0.0,0.0,0.0,-0.1508,0.9862,-0.0477,0.4312,0.5471,-0.5461,-0.4653
1116,0.0,0.0,0.0,0.0,0.0,0.0,-0.1711,0.9734,-0.0703,0.4263,0.5504,-0.5498,-0.4616
1117,0.0,0.0,0.0,0.0,0.0,0.0,-0.1618,0.9951,-0.0858,0.4221,0.5528,-0.5533,-0.4584
1118,0.0,0.0,0.0,0.0,0.0,0.0,-0.1484,1.0493,-0.0705,0.4211,0.5536,-0.5542,-0.4572
1119,0.0,0.0,0.0,0.0,0.0,0.0,-0.1625,1.0444,-0.0724,0.4216,0.5544,-0.5527,-0.4576
1120,0.0,0.0,0.0,0.0,0.0,0.0,-0.1740,1.0103,-0.0812,0.4221,0.5549,-0.5501,-0.4596
1121,0.0,0.0,0.0,0.0,0.0,0.0,-0.1608,0.9762,-0.0825,0.4216,0.5556,-0.5482,-0.4616
1122,0.0,0.0,0.0,0.0,0.0,0.0,-0.1355,0.9639,-0.0969,0.4207,0.5555,-0.5468,-0.4642
1123,0.0,0.0,0.0,0.0,0.0,0.0,-0.1574,0.9630,-0.0846,0.4199,0.5548,-0.5459,-0.4668
1124,0.0,0.0,0.0,0.0,0.0,0.0,-0.1559,0.9504,-0.0803,0.4205,0.5548,-0.5441,-0.4683
1125,0.0,0.0,0.0,0.0,0.0,0.0,-0.1545,0.9543,-0.0764,0.4225,0.5550,-0.5416,-0.4691
1126,0.0,0.0,0.0,0.0,0.0,0.0,-0.1662,0.9661,-0.0656,0.4246,0.5549,-0.5395,-0.4699
1127,0.0,0.0,0.0,0.0,0.0,0.0,-0.1726,0.9642,-0.0636,0.4266,0.5547,-0.5373,-0.4708
1128,0.0,0.0,0.0,0.0,0.0,0.0,-0.1745,0.9666,-0.0626,0.4279,0.5539,-0.5357,-0.4723
1129,0.0,0.0,0.0,0.0,0.0,0.0,-0.1843,0.9808,-0.0537,0.4284,0.5527,-0.5351,-0.4739
1130,0.0,0.0,0.0,0.0,0.0,0.0,-0.1848,0.9770,-0.0460,0.4289,0.5517,-0.5347,-0.4751
1131,0.0,0.0,0.0,0.0,0.0,0.0,-0.1653,0.9716,-0.0496,0.4302,0.5510,-0.5342,-0.4754
1132,0.0,0.0,0.0,0.0,0.0,0.0,-0.1415,0.9730,-0.0445,0.4323,0.5502,-0.5334,-0.4753
1133,0.0,0.0,0.0,0.0,0.0,0.0,-0.1576,0.9686,-0.0468,0.4340,0.5501,-0.5327,-0.4747
1134,0.0,0.0,0.0,0.0,0.0,0.0,-0.1659,0.9716,-0.0438,0.4346,0.5506,-0.5326,-0.4736
1135,0.0,0.0,0.0,0.0,0.0,0.0,-0.1639,0.9745,-0.0438,0.4340,0.5512,-0.5339,-0.4720
1136,0.0,0.0,0.0,0.0,0.0,0.0,-0.1755,0.9701,-0.0563,0.4320,0.5524,-0.5360,-0.4701
1137,0.0,0.0,0.0,0.0,0.0,0.0,-0.1881,0.9671,-0.0659,0.4283,0.5543,-0.5390,-0.4677
1138,0.0,0.0,0.0,0.0,0.0,0.0,-0.1671,0.9591,-0.0831,0.4264,0.5561,-0.5403,-0.4659
1139,0.0,0.0,0.0,0.0,0.0,0.0,-0.1405,1.0113,-0.0679,0.4276,0.5563,-0.5400,-0.4648
1140,0.0,0.0,0.0,0.0,0.0,0.0,-0.1879,1.0238,-0.0388,0.4278,0.5558,-0.5408,-0.4644
1141,0.0,0.0,0.0,0.0,0.0,0.0,-0.1968,0.9553,-0.0770,0.4272,0.5565,-0.5399,-0.4651
1142,0.0,0.0,0.0,0.0,0.0,0.0,-0.1549,0.9586,-0.0924,0.4275,0.5571,-0.5388,-0.4654
1143,0.0,0.0,0.0,0.0,0.0,0.0,-0.1381,0.9938,-0.0603,0.4271,0.5563,-0.5398,-0.4656
1144,0.0,0.0,0.0,0.0,0.0,0.0,-0.1546,0.9748,-0.0685,0.4261,0.5556,-0.5408,-0.4661
1145,0.0,0.0,0.0,0.0,0.0,0.0,-0.1711,0.9752,-0.0795,0.4252,0.5562,-0.5412,-0.4658
1146,0.0,0.0,0.0,0.0,0.0,0.0,-0.1575,0.9929,-0.0631,0.4248,0.5576,-0.5411,-0.4647
1147,0.0,0.0,0.0,0.0,0.0,0.0,-0.1847,0.9986,-0.0788,0.4241,0.5598,-0.5395,-0.4644
1148,0.0,0.0,0.0,0.0,0.0,0.0,-0.1876,0.9714,-0.0760,0.4231,0.5614,-0.5384,-0.4647
1149,0.0,0.0,0.0,0.0,0.0,0.0,-0.1642,0.9586,-0.0846,0.4210,0.5619,-0.5393,-0.4650
1150,0.0,0.0,0.0,0.0,0.0,0.0,-0.1686,0.9684,-0.0806,0.4194,0.5615,-0.5400,-0.4660
1151,0.0,0.0,0.0,0.0,0.0,0.0,-0.1579,0.9562,-0.0841,0.4183,0.5590,-0.5432,-0.4663
1152,0.0,0.0,0.0,0.0,0.0,0.0,-0.1423,0.9527,-0.0853,0.4180,0.5576,-0.5444,-0.4668
1153,0.0,0.0,0.0,0.0,0.0,0.0,-0.1428,0.9581,-0.0872,0.4186,0.5564,-0.5453,-0.4667
1154,0.0,0.0,0.0,0.0,0.0,0.0,-0.1404,0.9659,-0.0818,0.4195,0.5548,-0.5465,-0.4664
1155,0.0,0.0,0.0,0.0,0.0,0.0,-0.1473,0.9889,-0.0719,0.4209,0.5528,-0.5474,-0.4664
1156,0.0,0.0,0.0,0.0,0.0,0.0,-0.1820,1.0135,-0.0453,0.4229,0.5509,-0.5472,-0.4672
1157,0.0,0.0,0.0,0.0,0.0,0.0,-0.1654,0.9959,-0.0484,0.4251,0.5481,-0.5471,-0.4686
1158,0.0,0.0,0.0,0.0,0.0,0.0,-0.1224,0.9669,-0.0718,0.4267,0.5447,-0.5480,-0.4699
1159,0.0,0.0,0.0,0.0,0.0,0.0,-0.1206,0.9890,-0.0533,0.4291,0.5410,-0.5491,-0.4709
1160,0.0,0.0,0.0,0.0,0.0,0.0,-0.1309,1.0125,-0.0419,0.4311,0.5368,-0.5503,-0.4725
1161,0.0,0.0,0.0,0.0,0.0,0.0,-0.1511,0.9422,-0.0630,0.4311,0.5352,-0.5526,-0.4714
1162,0.0,0.0,0.0,0.0,0.0,0.0,-0.1218,0.9254,-0.0876,0.4306,0.5366,-0.5554,-0.4671
1163,0.0,0.0,0.0,0.0,0.0,0.0,-0.0911,0.9453,-0.0960,0.4285,0.5393,-0.5595,-0.4610
1164,0.0,0.0,0.0,0.0,0.0,0.0,-0.1048,0.9599,-0.0953,0.4248,0.5417,-0.5655,-0.4542
1165,0.0,0.0,0.0,0.0,0.0,0.0,-0.1025,1.0107,-0.0785,0.4220,0.5423,-0.5715,-0.4486
1166,0.0,0.0,0.0,0.0,0.0,0.0,-0.1321,0.9989,-0.1030,0.4192,0.5422,-0.5767,-0.4447
1167,0.0,0.0,0.0,0.0,0.0,0.0,-0.1160,0.9944,-0.1172,0.4175,0.5418,-0.5812,-0.4409
1168,0.0,0.0,0.0,0.0,0.0,0.0,-0.0906,1.0011,-0.1227,0.4176,0.5408,-0.5839,-0.4383
1169,0.0,0.0,0.0,0.0,0.0,0.0,-0.0931,0.9986,-0.1295,0.4179,0.5399,-0.5861,-0.4362
1170,0.0,0.0,0.0,0.0,0.0,0.0,-0.0936,1.0016,-0.1227,0.4196,0.5389,-0.5869,-0.4347
1171,0.0,0.0,0.0,0.0,0.0,0.0,-0.0881,0.9859,-0.1359,0.4208,0.5378,-0.5878,-0.4337
1172,0.0,0.0,0.0,0.0,0.0,0.0,-0.0925,0.9825,-0.1354,0.4208,0.5368,-0.5892,-0.4332
1173,0.0,0.0,0.0,0.0,0.0,0.0,-0.0940,0.9947,-0.1310,0.4210,0.5361,-0.5902,-0.4324
1174,0.0,0.0,0.0,0.0,0.0,0.0,-0.0892,1.0011,-0.1290,0.4212,0.5352,-0.5911,-0.4322
1175,0.0,0.0,0.0,0.0,0.0,0.0,-0.0848,1.0118,-0.1251,0.4215,0.5343,-0.5916,-0.4323
1176,0.0,0.0,0.0,0.0,0.0,0.0,-0.0887,1.0094,-0.1227,0.4223,0.5336,-0.5913,-0.4328
1177,0.0,0.0,0.0,0.0,0.0,0.0,-0.0887,1.0172,-0.1188,0.4235,0.5333,-0.5895,-0.4345
1178,0.0,0.0,0.0,0.0,0.0,0.0,-0.1049,1.0261,-0.1050,0.4250,0.5331,-0.5867,-0.4369
1179,0.0,0.0,0.0,0.0,0.0,0.0,-0.1097,1.0062,-0.1012,0.4264,0.5327,-0.5837,-0.4401
1180,0.0,0.0,0.0,0.0,0.0,0.0,-0.1014,0.9866,-0.1121,0.4275,0.5323,-0.5805,-0.4437
1181,0.0,0.0,0.0,0.0,0.0,0.0,-0.0878,0.9872,-0.0986,0.4284,0.5317,-0.5778,-0.4472
1182,0.0,0.0,0.0,0.0,0.0,0.0,-0.0824,0.9696,-0.0968,0.4291,0.5309,-0.5758,-0.4500
1183,0.0,0.0,0.0,0.0,0.0,0.0,-0.0897,0.9711,-0.0992,0.4299,0.5309,-0.5737,-0.4519
1184,0.0,0.0,0.0,0.0,0.0,0.0,-0.0995,0.9609,-0.0929,0.4303,0.5314,-0.5720,-0.4531
1185,0.0,0.0,0.0,0.0,0.0,0.0,-0.0893,0.9614,-0.0867,0.4316,0.5317,-0.5704,-0.4534
1186,0.0,0.0,0.0,0.0,0.0,0.0,-0.1064,0.9868,-0.0800,0.4328,0.5325,-0.5684,-0.4539
1187,0.0,0.0,0.0,0.0,0.0,0.0,-0.1210,0.9810,-0.0814,0.4322,0.5338,-0.5676,-0.4540
1188,0.0,0.0,0.0,0.0,0.0,0.0,-0.1087,0.9697,-0.0942,0.4313,0.5352,-0.5668,-0.4543
1189,0.0,0.0,0.0,0.0,0.0,0.0,-0.0936,0.9740,-0.1001,0.4304,0.5359,-0.5666,-0.4545
1190,0.0,0.0,0.0,0.0,0.0,0.0,-0.1029,0.9780,-0.0918,0.4289,0.5359,-0.5678,-0.4544
1191,0.0,0.0,0.0,0.0,0.0,0.0,-0.1185,0.9844,-0.0887,0.4278,0.5361,-0.5685,-0.4544
1192,0.0,0.0,0.0,0.0,0.0,0.0,-0.1185,0.9902,-0.0848,0.4273,0.5365,-0.5684,-0.4544
1193,0.0,0.0,0.0,0.0,0.0,0.0,-0.1058,0.9765,-0.0908,0.4270,0.5373,-0.5681,-0.4542
1194,0.0,0.0,0.0,0.0,0.0,0.0,-0.0927,0.9809,-0.0943,0.4272,0.5382,-0.5674,-0.4537
1195,0.0,0.0,0.0,0.0,0.0,0.0,-0.1122,0.9941,-0.0819,0.4272,0.5386,-0.5674,-0.4532
1196,0.0,0.0,0.0,0.0,0.0,0.0,-0.1214,0.9780,-0.0872,0.4262,0.5391,-0.5680,-0.4528
1197,0.0,0.0,0.0,0.0,0.0,0.0,-0.1160,0.9755,-0.0955,0.4254,0.5401,-0.5683,-0.4521
1198,0.0,0.0,0.0,0.0,0.0,0.0,-0.1209,0.9853,-0.0949,0.4235,0.5417,-0.5697,-0.4503
1199,0.0,0.0,0.0,0.0,0.0,0.0,-0.1369,0.9848,-0.0987,0.4209,0.5436,-0.5716,-0.4480
1200,0.0,0.0,0.0,0.0,0.0,0.0,-0.1345,0.9892,-0.1011,0.4187,0.5451,-0.5732,-0.4461
1201,0.0,0.0,0.0,0.0,0.0,0.0,-0.1311,0.9960,-0.1025,0.4164,0.5463,-0.5753,-0.4440
1202,0.0,0.0,0.0,0.0,0.0,0.0,0.0073,0.9566,-0.1331,0.4145,0.5461,-0.5786,-0.4418
1203,0.0,0.0,0.0,0.0,0.0,0.0,-0.1066,0.9606,-0.1316,0.4119,0.5465,-0.5806,-0.4410
1204,0.0,0.0,0.0,0.0,0.0,0.0,-0.1199,1.0114,-0.1171,0.4112,0.5469,-0.5811,-0.4406
1205,0.0,0.0,0.0,0.0,0.0,0.0,-0.1106,0.9962,-0.1289,0.4117,0.5482,-0.5801,-0.4398
1206,0.0,0.0,0.0,0.0,0.0,0.0,-0.1187,0.9655,-0.1392,0.4113,0.5489,-0.5791,-0.4405
1207,0.0,0.0,0.0,0.0,0.0,0.0,-0.1397,0.9743,-0.1375,0.4113,0.5505,-0.5767,-0.4418
1208,0.0,0.0,0.0,0.0,0.0,0.0,-0.1320,0.9938,-0.1311,0.4115,0.5521,-0.5737,-0.4435
1209,0.0,0.0,0.0,0.0,0.0,0.0,-0.1105,0.9743,-0.1319,0.4122,0.5526,-0.5714,-0.4453
1210,0.0,0.0,0.0,0.0,0.0,0.0,-0.1061,0.9757,-0.1402,0.4132,0.5527,-0.5690,-0.4472
1211,0.0,0.0,0.0,0.0,0.0,0.0,-0.1412,0.9777,-0.1321,0.4139,0.5534,-0.5667,-0.4486
1212,0.0,0.0,0.0,0.0,0.0,0.0,-0.1612,0.9783,-0.1247,0.4155,0.5547,-0.5630,-0.4502
1213,0.0,0.0,0.0,0.0,0.0,0.0,-0.1441,0.9798,-0.1214,0.4175,0.5560,-0.5594,-0.4512
1214,0.0,0.0,0.0,0.0,0.0,0.0,-0.1510,0.9759,-0.1185,0.4179,0.5567,-0.5578,-0.4520
1215,0.0,0.0,0.0,0.0,0.0,0.0,-0.1627,0.9833,-0.1101,0.4177,0.5569,-0.5569,-0.4531
1216,0.0,0.0,0.0,0.0,0.0,0.0,-0.1486,0.9779,-0.1093,0.4185,0.5570,-0.5554,-0.4541
1217,0.0,0.0,0.0,0.0,0.0,0.0,-0.1261,0.9544,-0.1271,0.4191,0.5570,-0.5545,-0.4546
1218,0.0,0.0,0.0,0.0,0.0,0.0,-0.1476,0.9652,-0.1161,0.4207,0.5558,-0.5551,-0.4538
1219,0.0,0.0,0.0,0.0,0.0,0.0,-0.1584,0.9829,-0.0980,0.4220,0.5559,-0.5545,-0.4533
1220,0.0,0.0,0.0,0.0,0.0,0.0,-0.1495,0.9687,-0.1088,0.4228,0.5558,-0.5541,-0.4530
1221,0.0,0.0,0.0,0.0,0.0,0.0,-0.1510,0.9672,-0.1064,0.4238,0.5553,-0.5540,-0.4529
1222,0.0,0.0,0.0,0.0,0.0,0.0,-0.1530,0.9795,-0.0976,0.4245,0.5543,-0.5542,-0.4532
1223,0.0,0.0,0.0,0.0,0.0,0.0,-0.1603,0.9590,-0.1011,0.4241,0.5533,-0.5551,-0.4536
1224,0.0,0.0,0.0,0.0,0.0,0.0,-0.1559,0.9531,-0.1031,0.4242,0.5527,-0.5555,-0.4538
1225,0.0,0.0,0.0,0.0,0.0,0.0,-0.1374,0.9721,-0.1026,0.4244,0.5526,-0.5560,-0.4532
1226,0.0,0.0,0.0,0.0,0.0,0.0,-0.1422,0.9614,-0.1036,0.4238,0.5531,-0.5575,-0.4513
1227,0.0,0.0,0.0,0.0,0.0,0.0,-0.1324,0.9510,-0.1154,0.4228,0.5537,-0.5597,-0.4488
1228,0.0,0.0,0.0,0.0,0.0,0.0,-0.1399,0.9969,-0.1078,0.4226,0.5539,-0.5615,-0.4464
1229,0.0,0.0,0.0,0.0,0.0,0.0,-0.1546,1.0165,-0.0905,0.4233,0.5533,-0.5624,-0.4455
1230,0.0,0.0,0.0,0.0,0.0,0.0,-0.1627,0.9999,-0.1027,0.4244,0.5523,-0.5616,-0.4466
1231,0.0,0.0,0.0,0.0,0.0,0.0,-0.1589,1.0058,-0.0891,0.4260,0.5518,-0.5598,-0.4480
1232,0.0,0.0,0.0,0.0,0.0,0.0,-0.1516,1.0020,-0.0820,0.4263,0.5514,-0.5590,-0.4492
1233,0.0,0.0,0.0,0.0,0.0,0.0,-0.1534,0.9575,-0.1026,0.4252,0.5520,-0.5584,-0.4501
1234,0.0,0.0,0.0,0.0,0.0,0.0,-0.1281,0.9657,-0.1134,0.4248,0.5527,-0.5576,-0.4507
1235,0.0,0.0,0.0,0.0,0.0,0.0,-0.1214,0.9907,-0.0925,0.4250,0.5525,-0.5573,-0.4512
1236,0.0,0.0,0.0,0.0,0.0,0.0,-0.1418,0.9824,-0.0972,0.4245,0.5524,-0.5574,-0.4516
1237,0.0,0.0,0.0,0.0,0.0,0.0,-0.1491,0.9887,-0.0942,0.4248,0.5533,-0.5564,-0.4515
1238,0.0,0.0,0.0,0.0,0.0,0.0,-0.1360,0.9853,-0.0909,0.4260,0.5536,-0.5548,-0.4519
1239,0.0,0.0,0.0,0.0,0.0,0.0,-0.1316,0.9873,-0.0900,0.4267,0.5533,-0.5537,-0.4531
1240,0.0,0.0,0.0,0.0,0.0,0.0,-0.1365,0.9912,-0.0831,0.4271,0.5528,-0.5529,-0.4542
1241,0.0,0.0,0.0,0.0,0.0,0.0,-0.1364,0.9624,-0.0974,0.4269,0.5521,-0.5529,-0.4552
1242,0.0,0.0,0.0,0.0,0.0,0.0,-0.1330,0.9507,-0.0970,0.4265,0.5523,-0.5533,-0.4549
1243,0.0,0.0,0.0,0.0,0.0,0.0,-0.1408,0.9580,-0.0974,0.4266,0.5529,-0.5533,-0.4541
1244,0.0,0.0,0.0,0.0,0.0,0.0,-0.1413,0.9697,-0.1016,0.4267,0.5536,-0.5536,-0.4528
1245,0.0,0.0,0.0,0.0,0.0,0.0,-0.1410,1.0080,-0.0621,0.4279,0.5539,-0.5539,-0.4509
1246,0.0,0.0,0.0,0.0,0.0,0.0,-0.1487,1.0006,-0.0762,0.4283,0.5537,-0.5538,-0.4507
1247,0.0,0.0,0.0,0.0,0.0,0.0,-0.1656,0.9677,-0.1024,0.4278,0.5537,-0.5534,-0.4518
1248,0.0,0.0,0.0,0.0,0.0,0.0,-0.1652,0.9756,-0.0946,0.4269,0.5541,-0.5532,-0.4524
1249,0.0,0.0,0.0,0.0,0.0,0.0,-0.1530,0.9805,-0.0889,0.4262,0.5540,-0.5533,-0.4531
1250,0.0,0.0,0.0,0.0,0.0,0.0,-0.1389,0.9565,-0.0979,0.4272,0.5529,-0.5527,-0.4544
1251,0.0,0.0,0.0,0.0,0.0,0.0,-0.1311,0.9785,-0.0930,0.4291,0.5512,-0.5517,-0.4557
1252,0.0,0.0,0.0,0.0,0.0,0.0,-0.1371,1.0021,-0.0675,0.4310,0.5492,-0.5510,-0.4572
1253,0.0,0.0,0.0,0.0,0.0,0.0,-0.1623,0.9767,-0.0719,0.4325,0.5481,-0.5492,-0.4592
1254,0.0,0.0,0.0,0.0,0.0,0.0,-0.1637,0.9572,-0.0855,0.4328,0.5487,-0.5477,-0.4601
1255,0.0,0.0,0.0,0.0,0.0,0.0,-0.1292,0.9694,-0.0727,0.4323,0.5496,-0.5480,-0.4591
1256,0.0,0.0,0.0,0.0,0.0,0.0,-0.1356,0.9918,-0.0768,0.4305,0.5509,-0.5490,-0.4580
1257,0.0,0.0,0.0,0.0,0.0,0.0,-0.1697,1.0020,-0.0765,0.4276,0.5533,-0.5500,-0.4567
1258,0.0,0.0,0.0,0.0,0.0,0.0,-0.1764,0.9932,-0.0886,0.4236,0.5572,-0.5513,-0.4540
1259,0.0,0.0,0.0,0.0,0.0,0.0,-0.1744,0.9789,-0.1085,0.4188,0.5616,-0.5533,-0.4506
1260,0.0,0.0,0.0,0.0,0.0,0.0,-0.1583,0.9808,-0.1135,0.4139,0.5655,-0.5560,-0.4470
1261,0.0,0.0,0.0,0.0,0.0,0.0,-0.1491,0.9969,-0.1125,0.4108,0.5679,-0.5574,-0.4451
1262,0.0,0.0,0.0,0.0,0.0,0.0,-0.1670,0.9685,-0.1339,0.4076,0.5695,-0.5587,-0.4443
1263,0.0,0.0,0.0,0.0,0.0,0.0,-0.1352,0.9430,-0.1523,0.4052,0.5694,-0.5605,-0.4443
1264,0.0,0.0,0.0,0.0,0.0,0.0,-0.1002,0.9571,-0.1467,0.4042,0.5685,-0.5623,-0.4441
1265,0.0,0.0,0.0,0.0,0.0,0.0,-0.1562,0.9694,-0.1407,0.4020,0.5674,-0.5648,-0.4444
1266,0.0,0.0,0.0,0.0,0.0,0.0,-0.1631,0.9782,-0.1314,0.4018,0.5664,-0.5653,-0.4452
1267,0.0,0.0,0.0,0.0,0.0,0.0,-0.1289,0.9673,-0.1502,0.4030,0.5656,-0.5648,-0.4457
1268,0.0,0.0,0.0,0.0,0.0,0.0,-0.1246,0.9723,-0.1371,0.4048,0.5633,-0.5644,-0.4475
1269,0.0,0.0,0.0,0.0,0.0,0.0,-0.1432,0.9988,-0.1155,0.4069,0.5604,-0.5639,-0.4500
1270,0.0,0.0,0.0,0.0,0.0,0.0,-0.1784,1.0092,-0.0976,0.4099,0.5579,-0.5617,-0.4531
1271,0.0,0.0,0.0,0.0,0.0,0.0,-0.1846,0.9877,-0.1021,0.4127,0.5566,-0.5586,-0.4558
1272,0.0,0.0,0.0,0.0,0.0,0.0,-0.1627,0.9682,-0.1121,0.4159,0.5562,-0.5549,-0.4580
1273,0.0,0.0,0.0,0.0,0.0,0.0,-0.1334,0.9398,-0.1252,0.4187,0.5561,-0.5524,-0.4587
1274,0.0,0.0,0.0,0.0,0.0,0.0,-0.1358,0.9354,-0.1189,0.4198,0.5561,-0.5518,-0.4583
1275,0.0,0.0,0.0,0.0,0.0,0.0,-0.1749,0.9673,-0.1028,0.4204,0.5566,-0.5515,-0.4575
1276,0.0,0.0,0.0,0.0,0.0,0.0,-0.2032,0.9815,-0.0913,0.4203,0.5580,-0.5507,-0.4569
1277,0.0,0.0,0.0,0.0,0.0,0.0,-0.1925,0.9893,-0.0933,0.4205,0.5595,-0.5491,-0.4568
1278,0.0,0.0,0.0,0.0,0.0,0.0,-0.1568,0.9663,-0.1044,0.4199,0.5596,-0.5491,-0.4572
1279,0.0,0.0,0.0,0.0,0.0,0.0,-0.1636,0.9609,-0.1068,0.4178,0.5590,-0.5506,-0.4579
1280,0.0,0.0,0.0,0.0,0.0,0.0,-0.1584,0.9848,-0.0956,0.4171,0.5584,-0.5512,-0.4586
1281,0.0,0.0,0.0,0.0,0.0,0.0,-0.1701,0.9951,-0.0920,0.4173,0.5578,-0.5511,-0.4593
1282,0.0,0.0,0.0,0.0,0.0,0.0,-0.1788,0.9751,-0.0959,0.4181,0.5572,-0.5503,-0.4603
1283,0.0,0.0,0.0,0.0,0.0,0.0,-0.1666,0.9683,-0.0888,0.4196,0.5569,-0.5489,-0.4609
1284,0.0,0.0,0.0,0.0,0.0,0.0,-0.1612,0.9624,-0.0976,0.4200,0.5571,-0.5485,-0.4609
1285,0.0,0.0,0.0,0.0,0.0,0.0,-0.1574,0.9736,-0.0976,0.4189,0.5570,-0.5498,-0.4605
1286,0.0,0.0,0.0,0.0,0.0,0.0,-0.1667,0.9922,-0.0882,0.4176,0.5565,-0.5512,-0.4606
1287,0.0,0.0,0.0,0.0,0.0,0.0,-0.1711,0.9908,-0.0891,0.4168,0.5561,-0.5522,-0.4606
1288,0.0,0.0,0.0,0.0,0.0,0.0,-0.1603,0.9742,-0.0917,0.4166,0.5558,-0.5530,-0.4600
1289,0.0,0.0,0.0,0.0,0.0,0.0,-0.1549,0.9653,-0.1006,0.4162,0.5559,-0.5543,-0.4588
1290,0.0,0.0,0.0,0.0,0.0,0.0,-0.1599,0.9854,-0.0878,0.4161,0.5557,-0.5552,-0.4580
1291,0.0,0.0,0.0,0.0,0.0,0.0,-0.1579,0.9800,-0.0908,0.4163,0.5555,-0.5558,-0.4574
1292,0.0,0.0,0.0,0.0,0.0,0.0,-0.1515,0.9775,-0.0981,0.4160,0.5552,-0.5567,-0.4569
1293,0.0,0.0,0.0,0.0,0.0,0.0,-0.1579,0.9707,-0.0928,0.4156,0.5546,-0.5577,-0.4568
1294,0.0,0.0,0.0,0.0,0.0,0.0,-0.1637,0.9721,-0.1005,0.4151,0.5545,-0.5584,-0.4566
1295,0.0,0.0,0.0,0.0,0.0,0.0,-0.1628,0.9927,-0.0868,0.4147,0.5547,-0.5592,-0.4556
1296,0.0,0.0,0.0,0.0,0.0,0.0,-0.1583,0.9736,-0.0990,0.4146,0.5549,-0.5596,-0.4550
1297,0.0,0.0,0.0,0.0,0.0,0.0,-0.1510,0.9735,-0.1059,0.4151,0.5550,-0.5596,-0.4545
1298,0.0,0.0,0.0,0.0,0.0,0.0,-0.1588,0.9730,-0.1136,0.4141,0.5557,-0.5607,-0.4532
1299,0.0,0.0,0.0,0.0,0.0,0.0,-0.1398,0.9677,-0.1080,0.4110,0.5558,-0.5647,-0.4508
1300,0.0,0.0,0.0,0.0,0.0,0.0,-0.1653,1.0171,-0.0875,0.4100,0.5547,-0.5661,-0.4514
1301,0.0,0.0,0.0,0.0,0.0,0.0,-0.1641,1.0002,-0.1216,0.4114,0.5554,-0.5641,-0.4518
1302,0.0,0.0,0.0,0.0,0.0,0.0,-0.1305,0.9822,-0.1210,0.4121,0.5556,-0.5638,-0.4512
1303,0.0,0.0,0.0,0.0,0.0,0.0,-0.1608,0.9922,-0.0950,0.4133,0.5544,-0.5626,-0.4531
1304,0.0,0.0,0.0,0.0,0.0,0.0,-0.1612,0.9686,-0.1141,0.4143,0.5547,-0.5609,-0.4538
1305,0.0,0.0,0.0,0.0,0.0,0.0,-0.1398,0.9842,-0.1132,0.4145,0.5546,-0.5606,-0.4542
1306,0.0,0.0,0.0,0.0,0.0,0.0,-0.1443,0.9907,-0.0937,0.4157,0.5529,-0.5598,-0.4562
1307,0.0,0.0,0.0,0.0,0.0,0.0,-0.1569,0.9741,-0.0986,0.4173,0.5521,-0.5577,-0.4583
1308,0.0,0.0,0.0,0.0,0.0,0.0,-0.1778,0.9741,-0.0959,0.4188,0.5526,-0.5548,-0.4598
1309,0.0,0.0,0.0,0.0,0.0,0.0,-0.1691,0.9707,-0.0931,0.4200,0.5529,-0.5522,-0.4614
1310,0.0,0.0,0.0,0.0,0.0,0.0,-0.1618,0.9698,-0.0874,0.4204,0.5530,-0.5508,-0.4626
1311,0.0,0.0,0.0,0.0,0.0,0.0,-0.1603,0.9703,-0.0850,0.4198,0.5544,-0.5500,-0.4626
1312,0.0,0.0,0.0,0.0,0.0,0.0,-0.1739,0.9664,-0.0868,0.4189,0.5556,-0.5490,-0.4631
1313,0.0,0.0,0.0,0.0,0.0,0.0,-0.1671,0.9664,-0.0840,0.4188,0.5563,-0.5478,-0.4638
1314,0.0,0.0,0.0,0.0,0.0,0.0,-0.1598,0.9698,-0.0869,0.4191,0.5569,-0.5468,-0.4639
1315,0.0,0.0,0.0,0.0,0.0,0.0,-0.1628,0.9742,-0.0845,0.4194,0.5567,-0.5465,-0.4642
1316,0.0,0.0,0.0,0.0,0.0,0.0,-0.1658,0.9875,-0.0722,0.4200,0.5562,-0.5461,-0.4647
1317,0.0,0.0,0.0,0.0,0.0,0.0,-0.1770,0.9885,-0.0712,0.4205,0.5562,-0.5449,-0.4657
1318,0.0,0.0,0.0,0.0,0.0,0.0,-0.1663,0.9860,-0.0669,0.4217,0.5557,-0.5432,-0.4673
1319,0.0,0.0,0.0,0.0,0.0,0.0,-0.1677,0.9773,-0.0689,0.4225,0.5551,-0.5420,-0.4687
1320,0.0,0.0,0.0,0.0,0.0,0.0,-0.1769,0.9641,-0.0679,0.4228,0.5550,-0.5408,-0.4698
1321,0.0,0.0,0.0,0.0,0.0,0.0,-0.1702,0.9808,-0.0577,0.4240,0.5550,-0.5391,-0.4708
1322,0.0,0.0,0.0,0.0,0.0,0.0,-0.1707,0.9778,-0.0606,0.4257,0.5553,-0.5368,-0.4715
1323,0.0,0.0,0.0,0.0,0.0,0.0,-0.1638,0.9563,-0.0715,0.4266,0.5556,-0.5354,-0.4718
1324,0.0,0.0,0.0,0.0,0.0,0.0,-0.1668,0.9725,-0.0583,0.4276,0.5560,-0.5343,-0.4717
1325,0.0,0.0,0.0,0.0,0.0,0.0,-0.1648,0.9539,-0.0589,0.4276,0.5567,-0.5342,-0.4711
1326,0.0,0.0,0.0,0.0,0.0,0.0,-0.1662,0.9475,-0.0783,0.4265,0.5572,-0.5350,-0.4706
1327,0.0,0.0,0.0,0.0,0.0,0.0,-0.1638,0.9650,-0.0768,0.4253,0.5578,-0.5364,-0.4693
1328,0.0,0.0,0.0,0.0,0.0,0.0,-0.1726,0.9905,-0.0591,0.4249,0.5586,-0.5378,-0.4671
1329,0.0,0.0,0.0,0.0,0.0,0.0,-0.1852,0.9719,-0.0736,0.4251,0.5592,-0.5381,-0.4659
1330,0.0,0.0,0.0,0.0,0.0,0.0,-0.1896,0.9826,-0.0779,0.4253,0.5602,-0.5378,-0.4648
1331,0.0,0.0,0.0,0.0,0.0,0.0,-0.1852,0.9812,-0.0682,0.4254,0.5613,-0.5375,-0.4638
1332,0.0,0.0,0.0,0.0,0.0,0.0,-0.1700,0.9537,-0.0957,0.4248,0.5615,-0.5378,-0.4637
1333,0.0,0.0,0.0,0.0,0.0,0.0,-0.1749,0.9718,-0.0863,0.4238,0.5616,-0.5387,-0.4634
1334,0.0,0.0,0.0,0.0,0.0,0.0,-0.1842,0.9713,-0.0862,0.4232,0.5620,-0.5395,-0.4626
1335,0.0,0.0,0.0,0.0,0.0,0.0,-0.1807,0.9678,-0.0955,0.4233,0.5627,-0.5395,-0.4617
1336,0.0,0.0,0.0,0.0,0.0,0.0,-0.1720,0.9722,-0.0887,0.4239,0.5632,-0.5396,-0.4604
1337,0.0,0.0,0.0,0.0,0.0,0.0,-0.1636,0.9570,-0.1030,0.4245,0.5636,-0.5398,-0.4591
1338,0.0,0.0,0.0,0.0,0.0,0.0,-0.1695,0.9683,-0.0961,0.4244,0.5636,-0.5408,-0.4580
1339,0.0,0.0,0.0,0.0,0.0,0.0,-0.1857,0.9859,-0.0832,0.4244,0.5630,-0.5420,-0.4573
1340,0.0,0.0,0.0,0.0,0.0,0.0,-0.1696,0.9815,-0.0936,0.4250,0.5619,-0.5431,-0.4568
1341,0.0,0.0,0.0,0.0,0.0,0.0,-0.1690,0.9726,-0.0994,0.4251,0.5615,-0.5444,-0.4557
1342,0.0,0.0,0.0,0.0,0.0,0.0,-0.1701,0.9790,-0.0902,0.4251,0.5612,-0.5459,-0.4543
1343,0.0,0.0,0.0,0.0,0.0,0.0,-0.1657,0.9878,-0.0897,0.4247,0.5608,-0.5476,-0.4530
1344,0.0,0.0,0.0,0.0,0.0,0.0,-0.1706,1.0020,-0.0769,0.4237,0.5606,-0.5499,-0.4514
1345,0.0,0.0,0.0,0.0,0.0,0.0,-0.1813,1.0015,-0.0812,0.4218,0.5615,-0.5521,-0.4494
1346,0.0,0.0,0.0,0.0,0.0,0.0,-0.1861,0.9824,-0.1074,0.4189,0.5631,-0.5542,-0.4476
1347,0.0,0.0,0.0,0.0,0.0,0.0,-0.1665,0.9803,-0.1241,0.4165,0.5644,-0.5559,-0.4460
1348,0.0,0.0,0.0,0.0,0.0,0.0,-0.1447,1.0007,-0.1208,0.4159,0.5648,-0.5569,-0.4449
1349,0.0,0.0,0.0,0.0,0.0,0.0,-0.1578,0.9959,-0.1212,0.4157,0.5644,-0.5575,-0.4448
1350,0.0,0.0,0.0,0.0,0.0,0.0,-0.1733,0.9910,-0.1259,0.4154,0.5642,-0.5575,-0.4454
1351,0.0,0.0,0.0,0.0,0.0,0.0,-0.1675,0.9676,-0.1271,0.4148,0.5638,-0.5573,-0.4467
1352,0.0,0.0,0.0,0.0,0.0,0.0,-0.1479,0.9368,-0.1377,0.4131,0.5632,-0.5579,-0.4482
1353,0.0,0.0,0.0,0.0,0.0,0.0,-0.1406,0.9358,-0.1372,0.4116,0.5626,-0.5587,-0.4494
1354,0.0,0.0,0.0,0.0,0.0,0.0,-0.1275,0.9588,-0.1261,0.4113,0.5614,-0.5596,-0.4500
1355,0.0,0.0,0.0,0.0,0.0,0.0,-0.1349,0.9784,-0.1108,0.4117,0.5598,-0.5606,-0.4504
1356,0.0,0.0,0.0,0.0,0.0,0.0,-0.1432,0.9667,-0.1123,0.4124,0.5585,-0.5612,-0.4507
1357,0.0,0.0,0.0,0.0,0.0,0.0,-0.1466,0.9779,-0.1088,0.4133,0.5580,-0.5610,-0.4506
1358,0.0,0.0,0.0,0.0,0.0,0.0,-0.1399,0.9902,-0.0933,0.4147,0.5573,-0.5606,-0.4507
1359,0.0,0.0,0.0,0.0,0.0,0.0,-0.1326,0.9882,-0.1001,0.4156,0.5561,-0.5606,-0.4514
1360,0.0,0.0,0.0,0.0,0.0,0.0,-0.1438,0.9984,-0.0980,0.4157,0.5550,-0.5614,-0.4517
1361,0.0,0.0,0.0,0.0,0.0,0.0,-0.1511,0.9912,-0.0946,0.4157,0.5545,-0.5619,-0.4517
1362,0.0,0.0,0.0,0.0,0.0,0.0,-0.1369,0.9760,-0.0987,0.4166,0.5543,-0.5616,-0.4515
1363,0.0,0.0,0.0,0.0,0.0,0.0,-0.1413,0.9687,-0.1065,0.4172,0.5544,-0.5613,-0.4511
1364,0.0,0.0,0.0,0.0,0.0,0.0,-0.1525,0.9721,-0.1001,0.4172,0.5545,-0.5616,-0.4507
1365,0.0,0.0,0.0,0.0,0.0,0.0,-0.1559,0.9765,-0.0971,0.4171,0.5547,-0.5617,-0.4503
1366,0.0,0.0,0.0,0.0,0.0,0.0,-0.1525,0.9800,-0.0971,0.4170,0.5551,-0.5619,-0.4496
1367,0.0,0.0,0.0,0.0,0.0,0.0,-0.1516,0.9809,-0.0961,0.4171,0.5553,-0.5624,-0.4488
1368,0.0,0.0,0.0,0.0,0.0,0.0,-0.1462,0.9741,-0.1016,0.4175,0.5558,-0.5625,-0.4477
1369,0.0,0.0,0.0,0.0,0.0,0.0,-0.1368,0.9564,-0.1158,0.4180,0.5562,-0.5624,-0.4468
1370,0.0,0.0,0.0,0.0,0.0,0.0,-0.1334,0.9603,-0.1202,0.4181,0.5567,-0.5627,-0.4458
1371,0.0,0.0,0.0,0.0,0.0,0.0,-0.1461,0.9793,-0.1127,0.4183,0.5570,-0.5631,-0.4447
1372,0.0,0.0,0.0,0.0,0.0,0.0,-0.1617,0.9774,-0.1140,0.4186,0.5572,-0.5633,-0.4439
1373,0.0,0.0,0.0,0.0,0.0,0.0,-0.1509,0.9681,-0.1200,0.4177,0.5577,-0.5645,-0.4425
1374,0.0,0.0,0.0,0.0,0.0,0.0,-0.1378,0.9602,-0.1240,0.4161,0.5581,-0.5668,-0.4406
1375,0.0,0.0,0.0,0.0,0.0,0.0,-0.1377,0.9436,-0.1362,0.4141,0.5583,-0.5699,-0.4382
1376,0.0,0.0,0.0,0.0,0.0,0.0,-0.1182,0.9474,-0.1495,0.4133,0.5586,-0.5724,-0.4353
1377,0.0,0.0,0.0,0.0,0.0,0.0,-0.1192,0.9800,-0.1522,0.4137,0.5592,-0.5740,-0.4320
1378,0.0,0.0,0.0,0.0,0.0,0.0,-0.1246,0.9786,-0.1468,0.4140,0.5596,-0.5757,-0.4291
1379,0.0,0.0,0.0,0.0,0.0,0.0,-0.1315,0.9962,-0.1359,0.4147,0.5590,-0.5763,-0.4284
1380,0.0,0.0,0.0,0.0,0.0,0.0,-0.1255,0.9839,-0.1516,0.4145,0.5588,-0.5765,-0.4285
1381,0.0,0.0,0.0,0.0,0.0,0.0,-0.0929,0.9765,-0.1616,0.4133,0.5576,-0.5785,-0.4285
1382,0.0,0.0,0.0,0.0,0.0,0.0,-0.1061,0.9976,-0.1429,0.4126,0.5556,-0.5799,-0.4298
1383,0.0,0.0,0.0,0.0,0.0,0.0,-0.1247,1.0127,-0.1403,0.4137,0.5546,-0.5795,-0.4307
1384,0.0,0.0,0.0,0.0,0.0,0.0,-0.1062,1.0030,-0.1390,0.4157,0.5541,-0.5787,-0.4305
1385,0.0,0.0,0.0,0.0,0.0,0.0,-0.0983,0.9829,-0.1431,0.4183,0.5537,-0.5770,-0.4307
1386,0.0,0.0,0.0,0.0,0.0,0.0,-0.1003,0.9879,-0.1358,0.4211,0.5532,-0.5749,-0.4315
1387,0.0,0.0,0.0,0.0,0.0,0.0,-0.1116,0.9948,-0.1226,0.4227,0.5521,-0.5736,-0.4330
1388,0.0,0.0,0.0,0.0,0.0,0.0,-0.1300,0.9778,-0.1249,0.4229,0.5506,-0.5730,-0.4356
1389,0.0,0.0,0.0,0.0,0.0,0.0,-0.1194,0.9832,-0.1163,0.4236,0.5492,-0.5719,-0.4381
1390,0.0,0.0,0.0,0.0,0.0,0.0,-0.1189,0.9929,-0.1123,0.4253,0.5486,-0.5698,-0.4398
1391,0.0,0.0,0.0,0.0,0.0,0.0,-0.1345,0.9896,-0.1113,0.4279,0.5489,-0.5664,-0.4414
1392,0.0,0.0,0.0,0.0,0.0,0.0,-0.1237,0.9740,-0.1105,0.4308,0.5496,-0.5626,-0.4425
1393,0.0,0.0,0.0,0.0,0.0,0.0,-0.1194,0.9633,-0.1067,0.4334,0.5498,-0.5596,-0.4435
1394,0.0,0.0,0.0,0.0,0.0,0.0,-0.1326,0.9849,-0.0890,0.4340,0.5496,-0.5591,-0.4438
1395,0.0,0.0,0.0,0.0,0.0,0.0,-0.1600,1.0191,-0.0701,0.4341,0.5494,-0.5583,-0.4450
1396,0.0,0.0,0.0,0.0,0.0,0.0,-0.1389,0.9853,-0.0928,0.4347,0.5496,-0.5565,-0.4465
1397,0.0,0.0,0.0,0.0,0.0,0.0,-0.1111,0.9560,-0.1035,0.4350,0.5502,-0.5550,-0.4473
1398,0.0,0.0,0.0,0.0,0.0,0.0,-0.1145,0.9618,-0.1063,0.4350,0.5507,-0.5542,-0.4476
1399,0.0,0.0,0.0,0.0,0.0,0.0,-0.1244,0.9995,-0.0837,0.4349,0.5512,-0.5543,-0.4471
1400,0.0,0.0,0.0,0.0,0.0,0.0,-0.1517,1.0015,-0.0771,0.4345,0.5519,-0.5540,-0.4469
1401,0.0,0.0,0.0,0.0,0.0,0.0,-0.1471,0.9692,-0.0967,0.4344,0.5526,-0.5529,-0.4474
1402,0.0,0.0,0.0,0.0,0.0,0.0,-0.1340,0.9707,-0.0959,0.4341,0.5532,-0.5521,-0.4480
1403,0.0,0.0,0.0,0.0,0.0,0.0,-0.1380,0.9766,-0.0866,0.4333,0.5538,-0.5520,-0.4482
1404,0.0,0.0,0.0,0.0,0.0,0.0,-0.1413,0.9639,-0.0944,0.4330,0.5534,-0.5514,-0.4496
1405,0.0,0.0,0.0,0.0,0.0,0.0,-0.1394,0.9702,-0.0997,0.4318,0.5541,-0.5516,-0.4497
1406,0.0,0.0,0.0,0.0,0.0,0.0,-0.1360,0.9804,-0.0934,0.4311,0.5545,-0.5517,-0.4498
1407,0.0,0.0,0.0,0.0,0.0,0.0,-0.1442,0.9775,-0.1020,0.4306,0.5542,-0.5515,-0.4509
1408,0.0,0.0,0.0,0.0,0.0,0.0,-0.1487,0.9897,-0.0903,0.4305,0.5534,-0.5510,-0.4525
1409,0.0,0.0,0.0,0.0,0.0,0.0,-0.1350,0.9781,-0.0842,0.4313,0.5524,-0.5498,-0.4545
1410,0.0,0.0,0.0,0.0,0.0,0.0,-0.1432,0.9360,-0.1038,0.4310,0.5527,-0.5491,-0.4552
1411,0.0,0.0,0.0,0.0,0.0,0.0,-0.1296,0.9575,-0.1052,0.4313,0.5527,-0.5484,-0.4557
1412,0.0,0.0,0.0,0.0,0.0,0.0,-0.1264,1.0216,-0.0627,0.4339,0.5514,-0.5467,-0.4570
1413,0.0,0.0,0.0,0.0,0.0,0.0,-0.1615,1.0149,-0.0488,0.4364,0.5506,-0.5448,-0.4579
1414,0.0,0.0,0.0,0.0,0.0,0.0,-0.1594,0.9729,-0.0705,0.4382,0.5505,-0.5427,-0.4587
1415,0.0,0.0,0.0,0.0,0.0,0.0,-0.1488,0.9895,-0.0617,0.4402,0.5508,-0.5399,-0.4597
1416,0.0,0.0,0.0,0.0,0.0,0.0,-0.1498,0.9905,-0.0598,0.4407,0.5508,-0.5390,-0.4603
1417,0.0,0.0,0.0,0.0,0.0,0.0,-0.1487,0.9587,-0.0682,0.4406,0.5507,-0.5387,-0.4608
1418,0.0,0.0,0.0,0.0,0.0,0.0,-0.1476,0.9269,-0.0907,0.4388,0.5522,-0.5399,-0.4594
1419,0.0,0.0,0.0,0.0,0.0,0.0,-0.1476,0.9327,-0.0965,0.4358,0.5549,-0.5429,-0.4555
1420,0.0,0.0,0.0,0.0,0.0,0.0,-0.1447,0.9375,-0.0999,0.4311,0.5582,-0.5482,-0.4495
1421,0.0,0.0,0.0,0.0,0.0,0.0,-0.1242,0.9662,-0.1086,0.4260,0.5603,-0.5550,-0.4432
1422,0.0,0.0,0.0,0.0,0.0,0.0,-0.1175,1.0121,-0.0977,0.4220,0.5603,-0.5620,-0.4383
1423,0.0,0.0,0.0,0.0,0.0,0.0,-0.1386,1.0414,-0.0794,0.4204,0.5591,-0.5659,-0.4365
1424,0.0,0.0,0.0,0.0,0.0,0.0,-0.1599,1.0087,-0.0998,0.4205,0.5589,-0.5665,-0.4357
1425,0.0,0.0,0.0,0.0,0.0,0.0,-0.1304,0.9631,-0.1371,0.4209,0.5598,-0.5663,-0.4345
1426,0.0,0.0,0.0,0.0,0.0,0.0,-0.1105,0.9786,-0.1392,0.4210,0.5596,-0.5668,-0.4340
1427,0.0,0.0,0.0,0.0,0.0,0.0,-0.1125,0.9982,-0.1303,0.4211,0.5585,-0.5677,-0.4341
1428,0.0,0.0,0.0,0.0,0.0,0.0,-0.1198,0.9943,-0.1317,0.4215,0.5574,-0.5680,-0.4348
1429,0.0,0.0,0.0,0.0,0.0,0.0,-0.1256,0.9738,-0.1352,0.4216,0.5564,-0.5684,-0.4355
1430,0.0,0.0,0.0,0.0,0.0,0.0,-0.1207,0.9684,-0.1357,0.4223,0.5556,-0.5681,-0.4362
1431,0.0,0.0,0.0,0.0,0.0,0.0,-0.1203,0.9840,-0.1327,0.4230,0.5551,-0.5678,-0.4365
1432,0.0,0.0,0.0,0.0,0.0,0.0,-0.1179,0.9894,-0.1255,0.4232,0.5548,-0.5678,-0.4368
1433,0.0,0.0,0.0,0.0,0.0,0.0,-0.1062,0.9797,-0.1285,0.4234,0.5545,-0.5677,-0.4371
1434,0.0,0.0,0.0,0.0,0.0,0.0,-0.1017,0.9664,-0.1374,0.4230,0.5538,-0.5683,-0.4375
1435,0.0,0.0,0.0,0.0,0.0,0.0,-0.1057,0.9792,-0.1271,0.4223,0.5535,-0.5694,-0.4371
1436,0.0,0.0,0.0,0.0,0.0,0.0,-0.1135,0.9728,-0.1280,0.4219,0.5537,-0.5703,-0.4361
1437,0.0,0.0,0.0,0.0,0.0,0.0,-0.1212,0.9723,-0.1343,0.4224,0.5541,-0.5709,-0.4342
1438,0.0,0.0,0.0,0.0,0.0,0.0,-0.0926,1.0069,-0.1256,0.4231,0.5542,-0.5718,-0.4322
1439,0.0,0.0,0.0,0.0,0.0,0.0,-0.1048,1.0036,-0.1139,0.4241,0.5541,-0.5719,-0.4312
1440,0.0,0.0,0.0,0.0,0.0,0.0,-0.1251,0.9909,-0.1312,0.4247,0.5536,-0.5717,-0.4317
1441,0.0,0.0,0.0,0.0,0.0,0.0,-0.1082,1.0085,-0.1172,0.4247,0.5529,-0.5717,-0.4324
1442,0.0,0.0,0.0,0.0,0.0,0.0,-0.1199,1.0017,-0.1186,0.4242,0.5522,-0.5716,-0.4340
1443,0.0,0.0,0.0,0.0,0.0,0.0,-0.1285,0.9729,-0.1255,0.4238,0.5515,-0.5713,-0.4357
1444,0.0,0.0,0.0,0.0,0.0,0.0,-0.1179,0.9744,-0.1222,0.4242,0.5512,-0.5704,-0.4369
1445,0.0,0.0,0.0,0.0,0.0,0.0,-0.1135,0.9861,-0.1115,0.4251,0.5510,-0.5689,-0.4382
1446,0.0,0.0,0.0,0.0,0.0,0.0,-0.1136,0.9945,-0.1008,0.4260,0.5506,-0.5675,-0.4397
1447,0.0,0.0,0.0,0.0,0.0,0.0,-0.1136,0.9798,-0.1042,0.4258,0.5504,-0.5667,-0.4412
1448,0.0,0.0,0.0,0.0,0.0,0.0,-0.1106,0.9725,-0.1082,0.4251,0.5504,-0.5659,-0.4429
1449,0.0,0.0,0.0,0.0,0.0,0.0,-0.1058,0.9784,-0.1034,0.4247,0.5501,-0.5654,-0.4443
1450,0.0,0.0,0.0,0.0,0.0,0.0,-0.1165,0.9828,-0.1018,0.4246,0.5501,-0.5646,-0.4454
1451,0.0,0.0,0.0,0.0,0.0,0.0,-0.1219,0.9852,-0.1012,0.4251,0.5509,-0.5629,-0.4460
1452,0.0,0.0,0.0,0.0,0.0,0.0,-0.1296,0.9887,-0.1011,0.4257,0.5522,-0.5610,-0.4463
1453,0.0,0.0,0.0,0.0,0.0,0.0,-0.1477,0.9834,-0.0966,0.4264,0.5535,-0.5587,-0.4468
1454,0.0,0.0,0.0,0.0,0.0,0.0,-0.1569,0.9824,-0.0966,0.4266,0.5551,-0.5565,-0.4475
1455,0.0,0.0,0.0,0.0,0.0,0.0,-0.1603,0.9824,-0.0946,0.4256,0.5564,-0.5547,-0.4490
1456,0.0,0.0,0.0,0.0,0.0,0.0,-0.1667,0.9839,-0.0926,0.4244,0.5574,-0.5530,-0.4509
1457,0.0,0.0,0.0,0.0,0.0,0.0,-0.1711,0.9941,-0.0920,0.4227,0.5587,-0.5516,-0.4527
1458,0.0,0.0,0.0,0.0,0.0,0.0,-0.1774,0.9932,-0.0934,0.4215,0.5600,-0.5499,-0.4543
1459,0.0,0.0,0.0,0.0,0.0,0.0,-0.1724,0.9653,-0.0994,0.4210,0.5612,-0.5481,-0.4554
1460,0.0,0.0,0.0,0.0,0.0,0.0,-0.1602,0.9483,-0.0997,0.4202,0.5625,-0.5468,-0.4561
1461,0.0,0.0,0.0,0.0,0.0,0.0,-0.1573,0.9478,-0.1026,0.4193,0.5634,-0.5460,-0.4568
1462,0.0,0.0,0.0,0.0,0.0,0.0,-0.1573,0.9356,-0.1046,0.4183,0.5635,-0.5462,-0.4574
1463,0.0,0.0,0.0,0.0,0.0,0.0,-0.1665,0.9405,-0.1035,0.4174,0.5637,-0.5467,-0.4574
1464,0.0,0.0,0.0,0.0,0.0,0.0,-0.1793,0.9664,-0.0960,0.4171,0.5642,-0.5466,-0.4571
1465,0.0,0.0,0.0,0.0,0.0,0.0,-0.1856,0.9776,-0.0934,0.4173,0.5647,-0.5461,-0.4568
1466,0.0,0.0,0.0,0.0,0.0,0.0,-0.1827,0.9668,-0.0979,0.4167,0.5655,-0.5462,-0.4563
1467,0.0,0.0,0.0,0.0,0.0,0.0,-0.1871,0.9761,-0.0949,0.4153,0.5662,-0.5467,-0.4562
1468,0.0,0.0,0.0,0.0,0.0,0.0,-0.1847,0.9839,-0.0919,0.4137,0.5664,-0.5475,-0.4565
1469,0.0,0.0,0.0,0.0,0.0,0.0,-0.1890,0.9673,-0.1022,0.4116,0.5664,-0.5486,-0.4569
1470,0.0,0.0,0.0,0.0,0.0,0.0,-0.1899,0.9673,-0.1041,0.4104,0.5668,-0.5491,-0.4570
1471,0.0,0.0,0.0,0.0,0.0,0.0,-0.1846,0.9722,-0.1007,0.4100,0.5671,-0.5494,-0.4567
1472,0.0,0.0,0.0,0.0,0.0,0.0,-0.1870,0.9653,-0.1076,0.4096,0.5675,-0.5497,-0.4560
1473,0.0,0.0,0.0,0.0,0.0,0.0,-0.1856,0.9639,-0.1042,0.4091,0.5678,-0.5506,-0.4550
1474,0.0,0.0,0.0,0.0,0.0,0.0,-0.1802,0.9658,-0.1037,0.4084,0.5678,-0.5520,-0.4541
1475,0.0,0.0,0.0,0.0,0.0,0.0,-0.1802,0.9579,-0.1125,0.4070,0.5676,-0.5540,-0.4531
1476,0.0,0.0,0.0,0.0,0.0,0.0,-0.1806,0.9565,-0.1169,0.4060,0.5674,-0.5559,-0.4519
1477,0.0,0.0,0.0,0.0,0.0,0.0,-0.1694,0.9613,-0.1208,0.4060,0.5672,-0.5575,-0.4502
1478,0.0,0.0,0.0,0.0,0.0,0.0,-0.1612,0.9715,-0.1237,0.4067,0.5666,-0.5589,-0.4485
1479,0.0,0.0,0.0,0.0,0.0,0.0,-0.1655,0.9768,-0.1241,0.4078,0.5658,-0.5602,-0.4469
1480,0.0,0.0,0.0,0.0,0.0,0.0,-0.1690,0.9866,-0.1240,0.4082,0.5652,-0.5616,-0.4456
1481,0.0,0.0,0.0,0.0,0.0,0.0,-0.1670,0.9802,-0.1260,0.4088,0.5644,-0.5628,-0.4445
1482,0.0,0.0,0.0,0.0,0.0,0.0,-0.1568,0.9744,-0.1296,0.4092,0.5632,-0.5642,-0.4439
1483,0.0,0.0,0.0,0.0,0.0,0.0,-0.1548,0.9714,-0.1286,0.4095,0.5622,-0.5654,-0.4434
1484,0.0,0.0,0.0,0.0,0.0,0.0,-0.1533,0.9612,-0.1336,0.4099,0.5613,-0.5663,-0.4430
1485,0.0,0.0,0.0,0.0,0.0,0.0,-0.1480,0.9700,-0.1297,0.4106,0.5606,-0.5666,-0.4428
1486,0.0,0.0,0.0,0.0,0.0,0.0,-0.1417,0.9880,-0.1199,0.4119,0.5599,-0.5662,-0.4429
1487,0.0,0.0,0.0,0.0,0.0,0.0,-0.1437,0.9861,-0.1248,0.4136,0.5593,-0.5654,-0.4432
1488,0.0,0.0,0.0,0.0,0.0,0.0,-0.1525,0.9964,-0.1183,0.4154,0.5585,-0.5642,-0.4440
1489,0.0,0.0,0.0,0.0,0.0,0.0,-0.1565,1.0136,-0.0920,0.4183,0.5573,-0.5619,-0.4457
1490,0.0,0.0,0.0,0.0,0.0,0.0,-0.1438,0.9965,-0.0976,0.4218,0.5553,-0.5584,-0.4493
1491,0.0,0.0,0.0,0.0,0.0,0.0,-0.1433,0.9839,-0.0933,0.4253,0.5533,-0.5543,-0.4536
1492,0.0,0.0,0.0,0.0,0.0,0.0,-0.1613,0.9732,-0.0845,0.4277,0.5522,-0.5508,-0.4569
1493,0.0,0.0,0.0,0.0,0.0,0.0,-0.1769,0.9743,-0.0795,0.4286,0.5522,-0.5477,-0.4597
1494,0.0,0.0,0.0,0.0,0.0,0.0,-0.1725,0.9616,-0.0728,0.4289,0.5526,-0.5459,-0.4612
1495,0.0,0.0,0.0,0.0,0.0,0.0,-0.1378,0.9317,-0.1000,0.4282,0.5531,-0.5455,-0.4617
1496,0.0,0.0,0.0,0.0,0.0,0.0,-0.1360,0.9556,-0.0887,0.4279,0.5526,-0.5462,-0.4618
1497,0.0,0.0,0.0,0.0,0.0,0.0,-0.1815,1.0096,-0.0467,0.4272,0.5518,-0.5483,-0.4609
1498,0.0,0.0,0.0,0.0,0.0,0.0,-0.1959,0.9763,-0.0715,0.4246,0.5529,-0.5504,-0.4593
1499,0.0,0.0,0.0,0.0,0.0,0.0,-0.1574,0.9635,-0.0865,0.4231,0.5539,-0.5518,-0.4580
1500,0.0,0.0,0.0,0.0,0.0,0.0,-0.1101,0.9565,-0.0991,0.4227,0.5536,-0.5535,-0.4566
1501,0.0,0.0,0.0,0.0,0.0,0.0,-0.1042,0.9554,-0.1122,0.4224,0.5527,-0.5555,-0.4556
1502,0.0,0.0,0.0,0.0,0.0,0.0,-0.1358,1.0630,-0.0657,0.4271,0.5501,-0.5531,-0.4572
1503,0.0,0.0,0.0,0.0,0.0,0.0,-0.1855,1.0599,-0.0284,0.4312,0.5492,-0.5497,-0.4585
1504,0.0,0.0,0.0,0.0,0.0,0.0,-0.1832,0.9441,-0.0796,0.4331,0.5493,-0.5457,-0.4615
1505,0.0,0.0,0.0,0.0,0.0,0.0,-0.1209,0.9551,-0.0864,0.4353,0.5479,-0.5425,-0.4647
1506,0.0,0.0,0.0,0.0,0.0,0.0,-0.1319,1.0086,-0.0375,0.4372,0.5459,-0.5409,-0.4672
1507,0.0,0.0,0.0,0.0,0.0,0.0,-0.1915,0.9529,-0.0717,0.4360,0.5457,-0.5403,-0.4692
1508,0.0,0.0,0.0,0.0,0.0,0.0,-0.1677,0.9451,-0.0696,0.4376,0.5471,-0.5377,-0.4691
1509,0.0,0.0,0.0,0.0,0.0,0.0,-0.1293,0.9832,-0.0513,0.4412,0.5480,-0.5348,-0.4680
1510,0.0,0.0,0.0,0.0,0.0,0.0,-0.1394,0.9461,-0.0660,0.4422,0.5486,-0.5345,-0.4667
1511,0.0,0.0,0.0,0.0,0.0,0.0,-0.1599,0.9412,-0.0687,0.4413,0.5492,-0.5355,-0.4657
1512,0.0,0.0,0.0,0.0,0.0,0.0,-0.1551,0.9690,-0.0574,0.4397,0.5492,-0.5372,-0.4652
1513,0.0,0.0,0.0,0.0,0.0,0.0,-0.1492,0.9734,-0.0633,0.4371,0.5488,-0.5403,-0.4645
1514,0.0,0.0,0.0,0.0,0.0,0.0,-0.1556,0.9714,-0.0642,0.4344,0.5488,-0.5433,-0.4635
1515,0.0,0.0,0.0,0.0,0.0,0.0,-0.1400,0.9685,-0.0648,0.4333,0.5489,-0.5453,-0.4622
1516,0.0,0.0,0.0,0.0,0.0,0.0,-0.1569,0.9567,-0.0808,0.4300,0.5504,-0.5494,-0.4587
1517,0.0,0.0,0.0,0.0,0.0,0.0,-0.1818,0.9865,-0.0692,0.4256,0.5541,-0.5533,-0.4535
1518,0.0,0.0,0.0,0.0,0.0,0.0,-0.1771,1.0431,-0.0640,0.4233,0.5585,-0.5534,-0.4500
1519,0.0,0.0,0.0,0.0,0.0,0.0,-0.1328,1.0682,-0.0851,0.4260,0.5600,-0.5493,-0.4508
1520,0.0,0.0,0.0,0.0,0.0,0.0,-0.1357,1.0337,-0.0693,0.4284,0.5578,-0.5469,-0.4541
1521,0.0,0.0,0.0,0.0,0.0,0.0,-0.2203,0.9939,-0.0644,0.4279,0.5580,-0.5443,-0.4575
1522,0.0,0.0,0.0,0.0,0.0,0.0,-0.1778,0.9430,-0.0957,0.4268,0.5599,-0.5409,-0.4602
1523,0.0,0.0,0.0,0.0,0.0,0.0,-0.0998,0.9345,-0.1095,0.4247,0.5612,-0.5409,-0.4605
1524,0.0,0.0,0.0,0.0,0.0,0.0,-0.1091,0.9336,-0.1017,0.4220,0.5610,-0.5435,-0.4602
1525,0.0,0.0,0.0,0.0,0.0,0.0,-0.1461,0.9522,-0.0998,0.4206,0.5616,-0.5454,-0.4586
1526,0.0,0.0,0.0,0.0,0.0,0.0,-0.1642,0.9678,-0.0927,0.4208,0.5630,-0.5462,-0.4556
1527,0.0,0.0,0.0,0.0,0.0,0.0,-0.1550,0.9800,-0.0942,0.4223,0.5641,-0.5460,-0.4532
1528,0.0,0.0,0.0,0.0,0.0,0.0,-0.1554,0.9785,-0.0985,0.4230,0.5653,-0.5462,-0.4509
1529,0.0,0.0,0.0,0.0,0.0,0.0,-0.1598,0.9843,-0.0975,0.4224,0.5657,-0.5473,-0.4495
1530,0.0,0.0,0.0,0.0,0.0,0.0,-0.1579,0.9848,-0.1028,0.4206,0.5656,-0.5494,-0.4487
1531,0.0,0.0,0.0,0.0,0.0,0.0,-0.1574,0.9902,-0.1014,0.4193,0.5655,-0.5508,-0.4484
1532,0.0,0.0,0.0,0.0,0.0,0.0,-0.1403,0.9862,-0.1074,0.4197,0.5655,-0.5510,-0.4477
1533,0.0,0.0,0.0,0.0,0.0,0.0,-0.1339,0.9724,-0.1235,0.4203,0.5654,-0.5515,-0.4467
1534,0.0,0.0,0.0,0.0,0.0,0.0,-0.1427,0.9857,-0.1141,0.4216,0.5650,-0.5520,-0.4454
1535,0.0,0.0,0.0,0.0,0.0,0.0,-0.1598,0.9974,-0.1115,0.4221,0.5638,-0.5530,-0.4452
1536,0.0,0.0,0.0,0.0,0.0,0.0,-0.1612,0.9828,-0.1145,0.4219,0.5619,-0.5551,-0.4451
1537,0.0,0.0,0.0,0.0,0.0,0.0,-0.1549,0.9853,-0.1038,0.4212,0.5598,-0.5574,-0.4454
1538,0.0,0.0,0.0,0.0,0.0,0.0,-0.1603,0.9970,-0.1047,0.4207,0.5581,-0.5585,-0.4468
1539,0.0,0.0,0.0,0.0,0.0,0.0,-0.1598,0.9828,-0.1072,0.4201,0.5568,-0.5592,-0.4481
1540,0.0,0.0,0.0,0.0,0.0,0.0,-0.1418,0.9784,-0.1059,0.4205,0.5557,-0.5591,-0.4491
1541,0.0,0.0,0.0,0.0,0.0,0.0,-0.1482,0.9926,-0.0966,0.4220,0.5552,-0.5574,-0.4504
1542,0.0,0.0,0.0,0.0,0.0,0.0,-0.1609,1.0020,-0.0833,0.4238,0.5556,-0.5552,-0.4511
1543,0.0,0.0,0.0,0.0,0.0,0.0,-0.1720,0.9751,-0.0936,0.4248,0.5560,-0.5529,-0.4524
1544,0.0,0.0,0.0,0.0,0.0,0.0,-0.1452,0.9604,-0.1051,0.4258,0.5560,-0.5507,-0.4541
1545,0.0,0.0,0.0,0.0,0.0,0.0,-0.1360,0.9737,-0.0852,0.4262,0.5554,-0.5500,-0.4555
1546,0.0,0.0,0.0,0.0,0.0,0.0,-0.1565,0.9801,-0.0782,0.4263,0.5546,-0.5493,-0.4570
1547,0.0,0.0,0.0,0.0,0.0,0.0,-0.1593,0.9639,-0.0899,0.4269,0.5546,-0.5478,-0.4583
1548,0.0,0.0,0.0,0.0,0.0,0.0,-0.1486,0.9596,-0.0876,0.4279,0.5547,-0.5466,-0.4588
1549,0.0,0.0,0.0,0.0,0.0,0.0,-0.1419,0.9679,-0.0808,0.4288,0.5545,-0.5459,-0.4590
1550,0.0,0.0,0.0,0.0,0.0,0.0,-0.1520,0.9576,-0.0842,0.4286,0.5547,-0.5460,-0.4587
1551,0.0,0.0,0.0,0.0,0.0,0.0,-0.1574,0.9533,-0.0846,0.4276,0.5554,-0.5467,-0.4580
1552,0.0,0.0,0.0,0.0,0.0,0.0,-0.1408,0.9605,-0.0881,0.4264,0.5558,-0.5479,-0.4572
1553,0.0,0.0,0.0,0.0,0.0,0.0,-0.1389,0.9717,-0.0876,0.4251,0.5561,-0.5500,-0.4556
1554,0.0,0.0,0.0,0.0,0.0,0.0,-0.1622,0.9600,-0.0942,0.4227,0.5569,-0.5532,-0.4530
1555,0.0,0.0,0.0,0.0,0.0,0.0,-0.1641,0.9658,-0.1058,0.4196,0.5579,-0.5570,-0.4500
1556,0.0,0.0,0.0,0.0,0.0,0.0,-0.1317,1.0087,-0.0947,0.4186,0.5581,-0.5597,-0.4473
1557,0.0,0.0,0.0,0.0,0.0,0.0,-0.1282,1.0140,-0.0986,0.4193,0.5577,-0.5606,-0.4460
1558,0.0,0.0,0.0,0.0,0.0,0.0,-0.1520,1.0057,-0.1066,0.4206,0.5574,-0.5601,-0.4458
1559,0.0,0.0,0.0,0.0,0.0,0.0,-0.1652,0.9980,-0.0954,0.4212,0.5570,-0.5598,-0.4461
1560,0.0,0.0,0.0,0.0,0.0,0.0,-0.1485,0.9623,-0.1142,0.4212,0.5570,-0.5593,-0.4466
1561,0.0,0.0,0.0,0.0,0.0,0.0,-0.1252,0.9749,-0.1168,0.4213,0.5566,-0.5592,-0.4473
