,Position_X,Position_Y,Position_Z,Velocity_X,Velocity_Y,Velocity_Z,Acceleration_X,Acceleration_Y,Acceleration_Z,Quaterion_0,Quaterion_1,Quaterion_2,Quaterion_3
90,0.0,0.0,0.0,0.0,0.0,0.0,-0.1979,-0.9261,-0.3330,0.6270,-0.7616,0.1619,0.0257
91,0.0,0.0,0.0,0.0,0.0,0.0,-0.1906,-0.9211,-0.3582,0.6251,-0.7633,0.1610,0.0269
92,0.0,0.0,0.0,0.0,0.0,0.0,-0.0813,-0.8982,-0.3147,0.6257,-0.7642,0.1539,0.0282
93,0.0,0.0,0.0,0.0,0.0,0.0,-0.1982,-0.9529,-0.3933,0.6257,-0.7644,0.1537,0.0249
94,0.0,0.0,0.0,0.0,0.0,0.0,-0.2566,-0.8852,-0.3334,0.6242,-0.7647,0.1584,0.0219
95,0.0,0.0,0.0,0.0,0.0,0.0,-0.2403,-0.9849,-0.3027,0.6250,-0.7638,0.1595,0.0236
96,0.0,0.0,0.0,0.0,0.0,0.0,-0.2115,-0.9380,-0.3589,0.6244,-0.7639,0.1611,0.0246
97,0.0,0.0,0.0,0.0,0.0,0.0,-0.1935,-0.9514,-0.3223,0.6244,-0.7638,0.1615,0.0254
98,0.0,0.0,0.0,0.0,0.0,0.0,-0.1915,-0.9582,-0.3253,0.6256,-0.7633,0.1590,0.0258
99,0.0,0.0,0.0,0.0,0.0,0.0,-0.2179,-0.9187,-0.3371,0.6257,-0.7636,0.1571,0.0271
100,0.0,0.0,0.0,0.0,0.0,0.0,-0.2287,-0.9505,-0.3046,0.6263,-0.7631,0.1564,0.0299
101,0.0,0.0,0.0,0.0,0.0,0.0,-0.1872,-0.9431,-0.3222,0.6270,-0.7628,0.1551,0.0311
102,0.0,0.0,0.0,0.0,0.0,0.0,-0.1911,-0.9286,-0.3219,0.6279,-0.7619,0.1560,0.0305
103,0.0,0.0,0.0,0.0,0.0,0.0,-0.1979,-0.9335,-0.3156,0.6288,-0.7609,0.1574,0.0306
104,0.0,0.0,0.0,0.0,0.0,0.0,-0.1965,-0.9242,-0.3169,0.6291,-0.7604,0.1583,0.0313
105,0.0,0.0,0.0,0.0,0.0,0.0,-0.1985,-0.9247,-0.3169,0.6295,-0.7600,0.1584,0.0313
106,0.0,0.0,0.0,0.0,0.0,0.0,-0.1955,-0.9262,-0.3150,0.6298,-0.7600,0.1574,0.0315
107,0.0,0.0,0.0,0.0,0.0,0.0,-0.1941,-0.9242,-0.3169,0.6303,-0.7598,0.1561,0.0322
108,0.0,0.0,0.0,0.0,0.0,0.0,-0.2009,-0.9247,-0.3135,0.6309,-0.7595,0.1553,0.0325
109,0.0,0.0,0.0,0.0,0.0,0.0,-0.2033,-0.9286,-0.3087,0.6312,-0.7592,0.1554,0.0325
110,0.0,0.0,0.0,0.0,0.0,0.0,-0.2009,-0.9345,-0.3103,0.6316,-0.7587,0.1561,0.0320
111,0.0,0.0,0.0,0.0,0.0,0.0,-0.1989,-0.9369,-0.3108,0.6321,-0.7581,0.1571,0.0316
112,0.0,0.0,0.0,0.0,0.0,0.0,-0.2038,-0.9359,-0.3127,0.6323,-0.7578,0.1579,0.0314
113,0.0,0.0,0.0,0.0,0.0,0.0,-0.2053,-0.9335,-0.3088,0.6323,-0.7578,0.1579,0.0316
114,0.0,0.0,0.0,0.0,0.0,0.0,-0.2023,-0.9398,-0.3108,0.6326,-0.7576,0.1575,0.0317
115,0.0,0.0,0.0,0.0,0.0,0.0,-0.2043,-0.9403,-0.3128,0.6329,-0.7574,0.1572,0.0315
116,0.0,0.0,0.0,0.0,0.0,0.0,-0.2087,-0.9368,-0.3137,0.6329,-0.7574,0.1573,0.0317
117,0.0,0.0,0.0,0.0,0.0,0.0,-0.2072,-0.9339,-0.3151,0.6330,-0.7572,0.1577,0.0320
118,0.0,0.0,0.0,0.0,0.0,0.0,-0.1994,-0.9286,-0.3223,0.6329,-0.7572,0.1581,0.0321
119,0.0,0.0,0.0,0.0,0.0,0.0,-0.1955,-0.8796,-0.3823,0.6286,-0.7608,0.1585,0.0326
120,0.0,0.0,0.0,0.0,0.0,0.0,-0.0649,-0.9040,-0.2517,0.6290,-0.7619,0.1506,0.0342
121,0.0,0.0,0.0,0.0,0.0,0.0,-0.2005,-0.9871,-0.4352,0.6300,-0.7616,0.1488,0.0302
122,0.0,0.0,0.0,0.0,0.0,0.0,-0.2874,-0.8487,-0.3331,0.6274,-0.7625,0.1558,0.0259
123,0.0,0.0,0.0,0.0,0.0,0.0,-0.2585,-0.9920,-0.2599,0.6291,-0.7609,0.1565,0.0275
124,0.0,0.0,0.0,0.0,0.0,0.0,-0.2101,-0.9356,-0.3525,0.6282,-0.7613,0.1581,0.0288
125,0.0,0.0,0.0,0.0,0.0,0.0,-0.1247,-0.9197,-0.3620,0.6278,-0.7620,0.1556,0.0299
126,0.0,0.0,0.0,0.0,0.0,0.0,-0.1804,-0.9388,-0.3207,0.6267,-0.7634,0.1535,0.0283
127,0.0,0.0,0.0,0.0,0.0,0.0,-0.2340,-0.9524,-0.3099,0.6260,-0.7644,0.1517,0.0290
128,0.0,0.0,0.0,0.0,0.0,0.0,-0.2072,-0.9568,-0.3067,0.6264,-0.7645,0.1493,0.0304
129,0.0,0.0,0.0,0.0,0.0,0.0,-0.1984,-0.9587,-0.3088,0.6268,-0.7642,0.1488,0.0311
130,0.0,0.0,0.0,0.0,0.0,0.0,-0.1706,-0.9447,-0.3169,0.6273,-0.7637,0.1493,0.0309
131,0.0,0.0,0.0,0.0,0.0,0.0,-0.1853,-0.9359,-0.3152,0.6284,-0.7626,0.1506,0.0303
132,0.0,0.0,0.0,0.0,0.0,0.0,-0.1975,-0.9437,-0.3032,0.6296,-0.7615,0.1513,0.0300
133,0.0,0.0,0.0,0.0,0.0,0.0,-0.1926,-0.9403,-0.3070,0.6303,-0.7610,0.1504,0.0304
134,0.0,0.0,0.0,0.0,0.0,0.0,-0.1814,-0.9258,-0.3093,0.6307,-0.7610,0.1486,0.0312
135,0.0,0.0,0.0,0.0,0.0,0.0,-0.1809,-0.9389,-0.3071,0.6312,-0.7609,0.1471,0.0313
136,0.0,0.0,0.0,0.0,0.0,0.0,-0.1921,-0.9360,-0.3021,0.6318,-0.7605,0.1466,0.0309
137,0.0,0.0,0.0,0.0,0.0,0.0,-0.1960,-0.9399,-0.2992,0.6323,-0.7601,0.1467,0.0311
138,0.0,0.0,0.0,0.0,0.0,0.0,-0.1926,-0.9496,-0.3052,0.6328,-0.7596,0.1471,0.0313
139,0.0,0.0,0.0,0.0,0.0,0.0,-0.1960,-0.9291,-0.3073,0.6337,-0.7586,0.1482,0.0309
140,0.0,0.0,0.0,0.0,0.0,0.0,-0.1985,-0.9267,-0.3038,0.6342,-0.7581,0.1486,0.0305
141,0.0,0.0,0.0,0.0,0.0,0.0,-0.1979,-0.9408,-0.3094,0.6345,-0.7580,0.1482,0.0312
142,0.0,0.0,0.0,0.0,0.0,0.0,-0.2014,-0.9427,-0.3065,0.6346,-0.7580,0.1474,0.0325
143,0.0,0.0,0.0,0.0,0.0,0.0,-0.2014,-0.9471,-0.3051,0.6347,-0.7579,0.1470,0.0331
144,0.0,0.0,0.0,0.0,0.0,0.0,-0.1999,-0.9388,-0.3089,0.6352,-0.7575,0.1472,0.0334
145,0.0,0.0,0.0,0.0,0.0,0.0,-0.1907,-0.9223,-0.3101,0.6353,-0.7573,0.1473,0.0341
146,0.0,0.0,0.0,0.0,0.0,0.0,-0.1520,-0.9435,-0.3462,0.6344,-0.7583,0.1455,0.0347
147,0.0,0.0,0.0,0.0,0.0,0.0,0.0381,-0.9017,-0.2571,0.6408,-0.7559,0.1295,0.0356
148,0.0,0.0,0.0,0.0,0.0,0.0,-0.1869,-0.9483,-0.4390,0.6407,-0.7566,0.1267,0.0311
149,0.0,0.0,0.0,0.0,0.0,0.0,-0.2743,-0.8372,-0.3130,0.6351,-0.7602,0.1340,0.0281
150,0.0,0.0,0.0,0.0,0.0,0.0,-0.2401,-0.9627,-0.2118,0.6342,-0.7605,0.1361,0.0303
151,0.0,0.0,0.0,0.0,0.0,0.0,-0.2134,-0.9555,-0.3548,0.6302,-0.7630,0.1403,0.0321
152,0.0,0.0,0.0,0.0,0.0,0.0,-0.0924,-0.9777,-0.3379,0.6289,-0.7640,0.1405,0.0325
153,0.0,0.0,0.0,0.0,0.0,0.0,-0.1275,-0.9328,-0.3705,0.6270,-0.7659,0.1385,0.0319
154,0.0,0.0,0.0,0.0,0.0,0.0,-0.2165,-0.9197,-0.3352,0.6238,-0.7688,0.1377,0.0301
155,0.0,0.0,0.0,0.0,0.0,0.0,-0.2316,-0.9552,-0.3187,0.6219,-0.7707,0.1351,0.0307
156,0.0,0.0,0.0,0.0,0.0,0.0,-0.2369,-0.9586,-0.3256,0.6205,-0.7720,0.1338,0.0332
157,0.0,0.0,0.0,0.0,0.0,0.0,-0.2003,-0.9406,-0.3352,0.6190,-0.7730,0.1342,0.0351
158,0.0,0.0,0.0,0.0,0.0,0.0,-0.1871,-0.9376,-0.3483,0.6180,-0.7736,0.1359,0.0357
159,0.0,0.0,0.0,0.0,0.0,0.0,-0.1949,-0.9400,-0.3517,0.6171,-0.7740,0.1371,0.0371
160,0.0,0.0,0.0,0.0,0.0,0.0,-0.1935,-0.9250,-0.3495,0.6164,-0.7745,0.1370,0.0389
161,0.0,0.0,0.0,0.0,0.0,0.0,-0.1691,-0.9115,-0.3494,0.6155,-0.7756,0.1340,0.0411
162,0.0,0.0,0.0,0.0,0.0,0.0,-0.1647,-0.9178,-0.3432,0.6153,-0.7764,0.1295,0.0425
163,0.0,0.0,0.0,0.0,0.0,0.0,-0.1813,-0.9406,-0.3382,0.6165,-0.7760,0.1257,0.0438
164,0.0,0.0,0.0,0.0,0.0,0.0,-0.1837,-0.9460,-0.3295,0.6183,-0.7749,0.1229,0.0460
165,0.0,0.0,0.0,0.0,0.0,0.0,-0.1540,-0.9300,-0.3357,0.6199,-0.7740,0.1199,0.0478
166,0.0,0.0,0.0,0.0,0.0,0.0,-0.1335,-0.9130,-0.3419,0.6213,-0.7733,0.1173,0.0481
167,0.0,0.0,0.0,0.0,0.0,0.0,-0.1418,-0.9203,-0.3449,0.6222,-0.7728,0.1152,0.0474
168,0.0,0.0,0.0,0.0,0.0,0.0,-0.1667,-0.9300,-0.3347,0.6232,-0.7724,0.1134,0.0471
169,0.0,0.0,0.0,0.0,0.0,0.0,-0.1857,-0.9441,-0.3203,0.6242,-0.7718,0.1120,0.0473
170,0.0,0.0,0.0,0.0,0.0,0.0,-0.1808,-0.9548,-0.3195,0.6248,-0.7714,0.1111,0.0470
171,0.0,0.0,0.0,0.0,0.0,0.0,-0.1681,-0.9621,-0.3221,0.6259,-0.7706,0.1106,0.0467
172,0.0,0.0,0.0,0.0,0.0,0.0,-0.1681,-0.9631,-0.3260,0.6271,-0.7696,0.1107,0.0469
173,0.0,0.0,0.0,0.0,0.0,0.0,-0.1632,-0.9412,-0.3281,0.6282,-0.7687,0.1108,0.0472
174,0.0,0.0,0.0,0.0,0.0,0.0,-0.1623,-0.9286,-0.3308,0.6291,-0.7680,0.1106,0.0462
175,0.0,0.0,0.0,0.0,0.0,0.0,-0.1730,-0.9285,-0.3376,0.6294,-0.7678,0.1113,0.0439
176,0.0,0.0,0.0,0.0,0.0,0.0,-0.1833,-0.9266,-0.3258,0.6298,-0.7674,0.1126,0.0427
177,0.0,0.0,0.0,0.0,0.0,0.0,-0.1823,-0.9490,-0.3189,0.6299,-0.7672,0.1138,0.0420
178,0.0,0.0,0.0,0.0,0.0,0.0,-0.1759,-0.9460,-0.3383,0.6292,-0.7676,0.1143,0.0415
179,0.0,0.0,0.0,0.0,0.0,0.0,-0.1637,-0.9192,-0.3506,0.6283,-0.7685,0.1141,0.0407
180,0.0,0.0,0.0,0.0,0.0,0.0,-0.1784,-0.8968,-0.3564,0.6249,-0.7714,0.1131,0.0401
181,0.0,0.0,0.0,0.0,0.0,0.0,-0.1760,-0.8896,-0.3529,0.6201,-0.7757,0.1102,0.0411
182,0.0,0.0,0.0,0.0,0.0,0.0,-0.1759,-0.9246,-0.3477,0.6147,-0.7805,0.1054,0.0431
183,0.0,0.0,0.0,0.0,0.0,0.0,-0.1759,-0.9615,-0.3474,0.6088,-0.7857,0.0995,0.0459
184,0.0,0.0,0.0,0.0,0.0,0.0,-0.1866,-1.0092,-0.3263,0.6042,-0.7898,0.0934,0.0495
185,0.0,0.0,0.0,0.0,0.0,0.0,-0.1655,-1.0046,-0.3555,0.6013,-0.7923,0.0879,0.0548
186,0.0,0.0,0.0,0.0,0.0,0.0,-0.1533,-0.9740,-0.3633,0.6010,-0.7927,0.0829,0.0600
187,0.0,0.0,0.0,0.0,0.0,0.0,-0.1748,-0.9155,-0.4069,0.6008,-0.7929,0.0793,0.0642
188,0.0,0.0,0.0,0.0,0.0,0.0,-0.1651,-0.9101,-0.4151,0.5986,-0.7945,0.0755,0.0685
189,0.0,0.0,0.0,0.0,0.0,0.0,-0.1387,-0.8936,-0.4198,0.5961,-0.7964,0.0704,0.0737
190,0.0,0.0,0.0,0.0,0.0,0.0,-0.1295,-0.8587,-0.4105,0.5937,-0.7983,0.0649,0.0779
191,0.0,0.0,0.0,0.0,0.0,0.0,-0.1457,-0.8465,-0.4223,0.5909,-0.8004,0.0604,0.0802
192,0.0,0.0,0.0,0.0,0.0,0.0,-0.1593,-0.8371,-0.4445,0.5857,-0.8044,0.0563,0.0828
193,0.0,0.0,0.0,0.0,0.0,0.0,-0.1876,-0.8102,-0.4638,0.5775,-0.8102,0.0535,0.0852
194,0.0,0.0,0.0,0.0,0.0,0.0,-0.1608,-0.8704,-0.3881,0.5702,-0.8152,0.0514,0.0871
195,0.0,0.0,0.0,0.0,0.0,0.0,-0.1768,-0.9207,-0.4191,0.5671,-0.8175,0.0521,0.0861
196,0.0,0.0,0.0,0.0,0.0,0.0,-0.1664,-0.9122,-0.4628,0.5655,-0.8188,0.0531,0.0832
197,0.0,0.0,0.0,0.0,0.0,0.0,-0.1733,-0.9259,-0.4450,0.5657,-0.8189,0.0544,0.0794
198,0.0,0.0,0.0,0.0,0.0,0.0,-0.1914,-0.9254,-0.4381,0.5658,-0.8190,0.0573,0.0762
199,0.0,0.0,0.0,0.0,0.0,0.0,-0.1587,-0.9104,-0.4511,0.5673,-0.8182,0.0582,0.0730
200,0.0,0.0,0.0,0.0,0.0,0.0,-0.1679,-0.9274,-0.4441,0.5704,-0.8163,0.0601,0.0681
201,0.0,0.0,0.0,0.0,0.0,0.0,-0.1772,-0.9391,-0.4325,0.5746,-0.8136,0.0653,0.0598
202,0.0,0.0,0.0,0.0,0.0,0.0,-0.1689,-0.9299,-0.4373,0.5785,-0.8108,0.0711,0.0535
203,0.0,0.0,0.0,0.0,0.0,0.0,-0.1542,-0.9435,-0.4279,0.5808,-0.8090,0.0759,0.0499
204,0.0,0.0,0.0,0.0,0.0,0.0,-0.1675,-0.9320,-0.3984,0.5843,-0.8061,0.0820,0.0463
205,0.0,0.0,0.0,0.0,0.0,0.0,-0.1578,-0.9091,-0.4166,0.5851,-0.8050,0.0872,0.0443
206,0.0,0.0,0.0,0.0,0.0,0.0,-0.1465,-0.8988,-0.4466,0.5837,-0.8057,0.0904,0.0448
207,0.0,0.0,0.0,0.0,0.0,0.0,-0.1226,-0.8580,-0.4552,0.5822,-0.8066,0.0912,0.0458
208,0.0,0.0,0.0,0.0,0.0,0.0,-0.1286,-0.8338,-0.4392,0.5811,-0.8075,0.0903,0.0473
209,0.0,0.0,0.0,0.0,0.0,0.0,-0.1276,-0.8396,-0.4330,0.5812,-0.8075,0.0880,0.0495
210,0.0,0.0,0.0,0.0,0.0,0.0,-0.1310,-0.8417,-0.4155,0.5840,-0.8056,0.0852,0.0518
211,0.0,0.0,0.0,0.0,0.0,0.0,-0.1373,-0.9019,-0.4170,0.5875,-0.8032,0.0832,0.0532
212,0.0,0.0,0.0,0.0,0.0,0.0,-0.1532,-0.9415,-0.4390,0.5882,-0.8026,0.0824,0.0555
213,0.0,0.0,0.0,0.0,0.0,0.0,-0.1670,-0.9324,-0.4213,0.5868,-0.8034,0.0831,0.0578
214,0.0,0.0,0.0,0.0,0.0,0.0,-0.1773,-0.9267,-0.3929,0.5851,-0.8045,0.0852,0.0571
215,0.0,0.0,0.0,0.0,0.0,0.0,-0.1616,-0.9329,-0.4140,0.5831,-0.8058,0.0849,0.0584
216,0.0,0.0,0.0,0.0,0.0,0.0,-0.1567,-0.9256,-0.4222,0.5820,-0.8067,0.0841,0.0588
217,0.0,0.0,0.0,0.0,0.0,0.0,-0.1729,-0.9101,-0.4141,0.5818,-0.8068,0.0840,0.0588
218,0.0,0.0,0.0,0.0,0.0,0.0,-0.1631,-0.8964,-0.4328,0.5815,-0.8070,0.0832,0.0597
219,0.0,0.0,0.0,0.0,0.0,0.0,-0.1626,-0.8939,-0.4367,0.5819,-0.8068,0.0833,0.0597
220,0.0,0.0,0.0,0.0,0.0,0.0,-0.1822,-0.9042,-0.4246,0.5823,-0.8064,0.0850,0.0576
221,0.0,0.0,0.0,0.0,0.0,0.0,-0.1870,-0.9091,-0.4154,0.5829,-0.8058,0.0872,0.0567
222,0.0,0.0,0.0,0.0,0.0,0.0,-0.1778,-0.9047,-0.4110,0.5846,-0.8045,0.0890,0.0566
223,0.0,0.0,0.0,0.0,0.0,0.0,-0.1636,-0.9032,-0.4296,0.5866,-0.8029,0.0901,0.0562
224,0.0,0.0,0.0,0.0,0.0,0.0,-0.1733,-0.8866,-0.4496,0.5869,-0.8026,0.0905,0.0561
225,0.0,0.0,0.0,0.0,0.0,0.0,-0.1651,-0.8935,-0.4269,0.5858,-0.8035,0.0889,0.0567
226,0.0,0.0,0.0,0.0,0.0,0.0,-0.1534,-0.8842,-0.4390,0.5841,-0.8051,0.0865,0.0568
227,0.0,0.0,0.0,0.0,0.0,0.0,-0.1553,-0.8881,-0.4434,0.5816,-0.8071,0.0846,0.0566
228,0.0,0.0,0.0,0.0,0.0,0.0,-0.1568,-0.8784,-0.4452,0.5786,-0.8094,0.0821,0.0575
229,0.0,0.0,0.0,0.0,0.0,0.0,-0.1548,-0.8706,-0.4504,0.5746,-0.8124,0.0794,0.0585
230,0.0,0.0,0.0,0.0,0.0,0.0,-0.1660,-0.8846,-0.4526,0.5699,-0.8160,0.0766,0.0593
231,0.0,0.0,0.0,0.0,0.0,0.0,-0.1655,-0.8851,-0.4569,0.5648,-0.8198,0.0732,0.0607
232,0.0,0.0,0.0,0.0,0.0,0.0,-0.1748,-0.8947,-0.4624,0.5604,-0.8229,0.0694,0.0624
233,0.0,0.0,0.0,0.0,0.0,0.0,-0.1860,-0.9035,-0.4586,0.5569,-0.8254,0.0658,0.0647
234,0.0,0.0,0.0,0.0,0.0,0.0,-0.1865,-0.8986,-0.4658,0.5541,-0.8274,0.0628,0.0664
235,0.0,0.0,0.0,0.0,0.0,0.0,-0.1811,-0.8966,-0.4658,0.5523,-0.8287,0.0598,0.0681
236,0.0,0.0,0.0,0.0,0.0,0.0,-0.1791,-0.8927,-0.4716,0.5513,-0.8294,0.0572,0.0699
237,0.0,0.0,0.0,0.0,0.0,0.0,-0.1889,-0.8996,-0.4610,0.5519,-0.8290,0.0560,0.0715
238,0.0,0.0,0.0,0.0,0.0,0.0,-0.1821,-0.8918,-0.4701,0.5529,-0.8282,0.0555,0.0728
239,0.0,0.0,0.0,0.0,0.0,0.0,-0.1581,-0.8903,-0.4828,0.5540,-0.8274,0.0547,0.0746
240,0.0,0.0,0.0,0.0,0.0,0.0,-0.1728,-0.9147,-0.4555,0.5568,-0.8254,0.0554,0.0755
241,0.0,0.0,0.0,0.0,0.0,0.0,-0.2011,-0.9785,-0.4166,0.5618,-0.8217,0.0586,0.0761
242,0.0,0.0,0.0,0.0,0.0,0.0,-0.2132,-0.9886,-0.4303,0.5687,-0.8163,0.0645,0.0777
243,0.0,0.0,0.0,0.0,0.0,0.0,-0.2089,-0.9540,-0.4404,0.5759,-0.8106,0.0714,0.0789
244,0.0,0.0,0.0,0.0,0.0,0.0,-0.1822,-0.8954,-0.4337,0.5837,-0.8045,0.0754,0.0800
245,0.0,0.0,0.0,0.0,0.0,0.0,-0.1671,-0.8516,-0.4500,0.5897,-0.7999,0.0769,0.0810
246,0.0,0.0,0.0,0.0,0.0,0.0,-0.1857,-0.8259,-0.4441,0.5949,-0.7958,0.0792,0.0803
247,0.0,0.0,0.0,0.0,0.0,0.0,-0.1940,-0.8011,-0.4470,0.5983,-0.7931,0.0813,0.0796
248,0.0,0.0,0.0,0.0,0.0,0.0,-0.1897,-0.8057,-0.4121,0.5999,-0.7920,0.0836,0.0769
249,0.0,0.0,0.0,0.0,0.0,0.0,-0.1436,-0.8785,-0.4244,0.5981,-0.7932,0.0837,0.0775
250,0.0,0.0,0.0,0.0,0.0,0.0,-0.1299,-0.9100,-0.4352,0.5959,-0.7949,0.0861,0.0755
251,0.0,0.0,0.0,0.0,0.0,0.0,-0.1793,-0.9307,-0.3697,0.5955,-0.7951,0.0922,0.0681
252,0.0,0.0,0.0,0.0,0.0,0.0,-0.2213,-0.9624,-0.3345,0.5966,-0.7936,0.0995,0.0655
253,0.0,0.0,0.0,0.0,0.0,0.0,-0.1811,-0.9592,-0.3949,0.5969,-0.7931,0.1017,0.0659
254,0.0,0.0,0.0,0.0,0.0,0.0,-0.1680,-0.9232,-0.4075,0.5975,-0.7927,0.1020,0.0650
255,0.0,0.0,0.0,0.0,0.0,0.0,-0.1964,-0.9088,-0.3760,0.5983,-0.7922,0.1018,0.0634
256,0.0,0.0,0.0,0.0,0.0,0.0,-0.1866,-0.9058,-0.3959,0.5982,-0.7924,0.1004,0.0645
257,0.0,0.0,0.0,0.0,0.0,0.0,-0.1407,-0.8756,-0.4253,0.5969,-0.7934,0.0985,0.0668
258,0.0,0.0,0.0,0.0,0.0,0.0,-0.1266,-0.8581,-0.4372,0.5944,-0.7955,0.0977,0.0655
259,0.0,0.0,0.0,0.0,0.0,0.0,-0.1378,-0.8391,-0.4461,0.5914,-0.7980,0.0981,0.0617
260,0.0,0.0,0.0,0.0,0.0,0.0,-0.1417,-0.8331,-0.4659,0.5855,-0.8027,0.0975,0.0582
261,0.0,0.0,0.0,0.0,0.0,0.0,-0.1554,-0.8673,-0.4304,0.5789,-0.8078,0.0949,0.0567
262,0.0,0.0,0.0,0.0,0.0,0.0,-0.1811,-0.9489,-0.4123,0.5733,-0.8123,0.0913,0.0564
263,0.0,0.0,0.0,0.0,0.0,0.0,-0.1992,-1.0065,-0.3670,0.5713,-0.8139,0.0881,0.0588
264,0.0,0.0,0.0,0.0,0.0,0.0,-0.2455,-1.0427,-0.3776,0.5730,-0.8123,0.0900,0.0605
265,0.0,0.0,0.0,0.0,0.0,0.0,-0.2377,-0.9541,-0.4223,0.5775,-0.8086,0.0948,0.0604
266,0.0,0.0,0.0,0.0,0.0,0.0,-0.2320,-0.9155,-0.3837,0.5842,-0.8032,0.0990,0.0613
267,0.0,0.0,0.0,0.0,0.0,0.0,-0.2046,-0.9037,-0.4089,0.5907,-0.7979,0.1015,0.0641
268,0.0,0.0,0.0,0.0,0.0,0.0,-0.1773,-0.8973,-0.4303,0.5962,-0.7935,0.1034,0.0656
269,0.0,0.0,0.0,0.0,0.0,0.0,-0.1779,-0.8537,-0.4189,0.6014,-0.7893,0.1065,0.0623
270,0.0,0.0,0.0,0.0,0.0,0.0,-0.1838,-0.8529,-0.3872,0.6056,-0.7861,0.1099,0.0565
271,0.0,0.0,0.0,0.0,0.0,0.0,-0.1666,-0.8956,-0.3993,0.6082,-0.7839,0.1130,0.0535
272,0.0,0.0,0.0,0.0,0.0,0.0,-0.1529,-0.9195,-0.3857,0.6120,-0.7805,0.1170,0.0509
273,0.0,0.0,0.0,0.0,0.0,0.0,-0.1817,-0.9447,-0.3869,0.6147,-0.7779,0.1216,0.0472
274,0.0,0.0,0.0,0.0,0.0,0.0,-0.1984,-0.9113,-0.3673,0.6173,-0.7755,0.1248,0.0447
275,0.0,0.0,0.0,0.0,0.0,0.0,-0.2043,-0.9115,-0.3361,0.6200,-0.7732,0.1256,0.0449
276,0.0,0.0,0.0,0.0,0.0,0.0,-0.2033,-0.9397,-0.3303,0.6230,-0.7708,0.1255,0.0452
277,0.0,0.0,0.0,0.0,0.0,0.0,-0.1798,-0.9289,-0.3575,0.6244,-0.7700,0.1229,0.0472
278,0.0,0.0,0.0,0.0,0.0,0.0,-0.1662,-0.9247,-0.3341,0.6256,-0.7694,0.1192,0.0489
279,0.0,0.0,0.0,0.0,0.0,0.0,-0.1750,-0.9481,-0.3145,0.6270,-0.7686,0.1170,0.0494
280,0.0,0.0,0.0,0.0,0.0,0.0,-0.1867,-0.9509,-0.3170,0.6288,-0.7670,0.1178,0.0485
281,0.0,0.0,0.0,0.0,0.0,0.0,-0.1915,-0.9592,-0.3205,0.6300,-0.7657,0.1206,0.0469
282,0.0,0.0,0.0,0.0,0.0,0.0,-0.1935,-0.9577,-0.3204,0.6302,-0.7651,0.1246,0.0446
283,0.0,0.0,0.0,0.0,0.0,0.0,-0.1872,-0.9412,-0.3285,0.6301,-0.7646,0.1289,0.0417
284,0.0,0.0,0.0,0.0,0.0,0.0,-0.1642,-0.9212,-0.3501,0.6289,-0.7654,0.1306,0.0400
285,0.0,0.0,0.0,0.0,0.0,0.0,-0.1598,-0.9227,-0.3458,0.6270,-0.7672,0.1292,0.0393
286,0.0,0.0,0.0,0.0,0.0,0.0,-0.1706,-0.9353,-0.3343,0.6256,-0.7687,0.1271,0.0394
287,0.0,0.0,0.0,0.0,0.0,0.0,-0.1730,-0.9401,-0.3446,0.6238,-0.7704,0.1254,0.0401
288,0.0,0.0,0.0,0.0,0.0,0.0,-0.1808,-0.9256,-0.3379,0.6214,-0.7724,0.1252,0.0400
289,0.0,0.0,0.0,0.0,0.0,0.0,-0.1779,-0.9207,-0.3384,0.6186,-0.7746,0.1258,0.0397
290,0.0,0.0,0.0,0.0,0.0,0.0,-0.1740,-0.9299,-0.3497,0.6154,-0.7770,0.1259,0.0401
291,0.0,0.0,0.0,0.0,0.0,0.0,-0.1803,-0.9314,-0.3424,0.6138,-0.7783,0.1259,0.0409
292,0.0,0.0,0.0,0.0,0.0,0.0,-0.1955,-0.9343,-0.3341,0.6137,-0.7784,0.1262,0.0404
293,0.0,0.0,0.0,0.0,0.0,0.0,-0.1886,-0.9356,-0.3600,0.6127,-0.7793,0.1248,0.0418
294,0.0,0.0,0.0,0.0,0.0,0.0,-0.1666,-0.9303,-0.3668,0.6115,-0.7805,0.1218,0.0449
295,0.0,0.0,0.0,0.0,0.0,0.0,-0.1896,-0.9367,-0.3498,0.6114,-0.7807,0.1204,0.0464
296,0.0,0.0,0.0,0.0,0.0,0.0,-0.1989,-0.9342,-0.3453,0.6127,-0.7796,0.1204,0.0476
297,0.0,0.0,0.0,0.0,0.0,0.0,-0.2018,-0.9318,-0.3511,0.6151,-0.7775,0.1216,0.0480
298,0.0,0.0,0.0,0.0,0.0,0.0,-0.1871,-0.9195,-0.3748,0.6166,-0.7762,0.1223,0.0483
299,0.0,0.0,0.0,0.0,0.0,0.0,-0.1686,-0.9006,-0.3750,0.6183,-0.7749,0.1220,0.0484
300,0.0,0.0,0.0,0.0,0.0,0.0,-0.1837,-0.9205,-0.3694,0.6197,-0.7739,0.1210,0.0488
301,0.0,0.0,0.0,0.0,0.0,0.0,-0.1983,-0.9337,-0.3613,0.6206,-0.7732,0.1203,0.0499
302,0.0,0.0,0.0,0.0,0.0,0.0,-0.2233,-0.9279,-0.3426,0.6220,-0.7719,0.1220,0.0491
303,0.0,0.0,0.0,0.0,0.0,0.0,-0.2183,-0.9409,-0.3575,0.6220,-0.7716,0.1235,0.0502
304,0.0,0.0,0.0,0.0,0.0,0.0,-0.2008,-0.9235,-0.3582,0.6216,-0.7716,0.1246,0.0515
305,0.0,0.0,0.0,0.0,0.0,0.0,-0.1994,-0.9217,-0.3363,0.6218,-0.7712,0.1263,0.0510
306,0.0,0.0,0.0,0.0,0.0,0.0,-0.1989,-0.9279,-0.3437,0.6213,-0.7716,0.1266,0.0519
307,0.0,0.0,0.0,0.0,0.0,0.0,-0.1881,-0.9338,-0.3449,0.6206,-0.7723,0.1248,0.0543
308,0.0,0.0,0.0,0.0,0.0,0.0,-0.1877,-0.9441,-0.3236,0.6207,-0.7724,0.1229,0.0558
309,0.0,0.0,0.0,0.0,0.0,0.0,-0.1764,-0.9320,-0.3284,0.6216,-0.7718,0.1212,0.0569
310,0.0,0.0,0.0,0.0,0.0,0.0,-0.1628,-0.9159,-0.3388,0.6228,-0.7709,0.1203,0.0573
311,0.0,0.0,0.0,0.0,0.0,0.0,-0.1682,-0.9086,-0.3372,0.6241,-0.7699,0.1202,0.0575
312,0.0,0.0,0.0,0.0,0.0,0.0,-0.1774,-0.9183,-0.3378,0.6245,-0.7695,0.1205,0.0573
313,0.0,0.0,0.0,0.0,0.0,0.0,-0.1706,-0.9222,-0.3360,0.6250,-0.7691,0.1205,0.0570
314,0.0,0.0,0.0,0.0,0.0,0.0,-0.1672,-0.9169,-0.3320,0.6259,-0.7686,0.1195,0.0569
315,0.0,0.0,0.0,0.0,0.0,0.0,-0.1574,-0.9130,-0.3335,0.6271,-0.7680,0.1170,0.0571
316,0.0,0.0,0.0,0.0,0.0,0.0,-0.1584,-0.9198,-0.3423,0.6289,-0.7671,0.1127,0.0581
317,0.0,0.0,0.0,0.0,0.0,0.0,-0.1584,-0.8931,-0.3404,0.6302,-0.7668,0.1054,0.0617
318,0.0,0.0,0.0,0.0,0.0,0.0,-0.1473,-0.9045,-0.3062,0.6317,-0.7664,0.0948,0.0676
319,0.0,0.0,0.0,0.0,0.0,0.0,-0.1682,-0.9385,-0.2882,0.6336,-0.7657,0.0851,0.0711
320,0.0,0.0,0.0,0.0,0.0,0.0,-0.2287,-0.9798,-0.2706,0.6313,-0.7681,0.0802,0.0711
321,0.0,0.0,0.0,0.0,0.0,0.0,-0.2365,-0.9924,-0.2775,0.6301,-0.7691,0.0797,0.0716
322,0.0,0.0,0.0,0.0,0.0,0.0,-0.1642,-0.9744,-0.3068,0.6298,-0.7695,0.0768,0.0730
323,0.0,0.0,0.0,0.0,0.0,0.0,-0.1540,-0.9442,-0.3161,0.6294,-0.7701,0.0738,0.0733
324,0.0,0.0,0.0,0.0,0.0,0.0,-0.1515,-0.9660,-0.3208,0.6304,-0.7695,0.0704,0.0742
325,0.0,0.0,0.0,0.0,0.0,0.0,-0.1798,-0.9709,-0.3037,0.6332,-0.7674,0.0682,0.0748
326,0.0,0.0,0.0,0.0,0.0,0.0,-0.2375,-0.9344,-0.3125,0.6353,-0.7656,0.0705,0.0724
327,0.0,0.0,0.0,0.0,0.0,0.0,-0.1736,-0.9536,-0.2762,0.6369,-0.7644,0.0725,0.0692
328,0.0,0.0,0.0,0.0,0.0,0.0,-0.1828,-0.9852,-0.2665,0.6397,-0.7620,0.0775,0.0639
329,0.0,0.0,0.0,0.0,0.0,0.0,-0.1773,-0.9737,-0.3320,0.6413,-0.7605,0.0831,0.0585
330,0.0,0.0,0.0,0.0,0.0,0.0,-0.1453,-0.9377,-0.2805,0.6434,-0.7588,0.0860,0.0535
331,0.0,0.0,0.0,0.0,0.0,0.0,-0.1589,-0.9657,-0.2974,0.6418,-0.7600,0.0879,0.0526
332,0.0,0.0,0.0,0.0,0.0,0.0,-0.1828,-0.9456,-0.3154,0.6379,-0.7628,0.0901,0.0553
333,0.0,0.0,0.0,0.0,0.0,0.0,-0.1203,-0.9341,-0.3190,0.6344,-0.7658,0.0901,0.0548
334,0.0,0.0,0.0,0.0,0.0,0.0,-0.1335,-0.9560,-0.3018,0.6316,-0.7682,0.0900,0.0540
335,0.0,0.0,0.0,0.0,0.0,0.0,-0.1384,-0.9584,-0.3076,0.6292,-0.7700,0.0911,0.0536
336,0.0,0.0,0.0,0.0,0.0,0.0,-0.1496,-0.9311,-0.3183,0.6268,-0.7718,0.0932,0.0528
337,0.0,0.0,0.0,0.0,0.0,0.0,-0.1833,-0.9233,-0.3165,0.6232,-0.7744,0.0968,0.0507
338,0.0,0.0,0.0,0.0,0.0,0.0,-0.1520,-0.8786,-0.4136,0.6153,-0.7805,0.0983,0.0508
339,0.0,0.0,0.0,0.0,0.0,0.0,-0.1149,-0.8949,-0.3762,0.6064,-0.7877,0.0962,0.0509
340,0.0,0.0,0.0,0.0,0.0,0.0,-0.1583,-0.9410,-0.3680,0.5985,-0.7938,0.0960,0.0492
341,0.0,0.0,0.0,0.0,0.0,0.0,-0.1949,-0.9371,-0.3600,0.5937,-0.7973,0.0994,0.0441
342,0.0,0.0,0.0,0.0,0.0,0.0,-0.2023,-0.9012,-0.3515,0.5912,-0.7988,0.1052,0.0370
343,0.0,0.0,0.0,0.0,0.0,0.0,-0.1666,-0.9338,-0.3537,0.5930,-0.7970,0.1102,0.0323
344,0.0,0.0,0.0,0.0,0.0,0.0,-0.1607,-0.9789,-0.3521,0.5999,-0.7910,0.1179,0.0243
345,0.0,0.0,0.0,0.0,0.0,0.0,-0.1601,-0.9759,-0.3793,0.6055,-0.7857,0.1254,0.0168
346,0.0,0.0,0.0,0.0,0.0,0.0,-0.1441,-0.9097,-0.3972,0.6079,-0.7832,0.1299,0.0117
347,0.0,0.0,0.0,0.0,0.0,0.0,-0.1237,-0.9075,-0.3705,0.6096,-0.7817,0.1315,0.0102
348,0.0,0.0,0.0,0.0,0.0,0.0,-0.1051,-0.9187,-0.3796,0.6107,-0.7807,0.1321,0.0092
349,0.0,0.0,0.0,0.0,0.0,0.0,-0.0968,-0.9401,-0.3781,0.6111,-0.7803,0.1326,0.0073
350,0.0,0.0,0.0,0.0,0.0,0.0,-0.1300,-0.9352,-0.3710,0.6111,-0.7803,0.1327,0.0067
351,0.0,0.0,0.0,0.0,0.0,0.0,-0.1447,-0.9118,-0.3715,0.6111,-0.7804,0.1325,0.0080
352,0.0,0.0,0.0,0.0,0.0,0.0,-0.1500,-0.9293,-0.3737,0.6096,-0.7818,0.1306,0.0111
353,0.0,0.0,0.0,0.0,0.0,0.0,-0.1520,-0.9211,-0.3696,0.6078,-0.7838,0.1267,0.0142
354,0.0,0.0,0.0,0.0,0.0,0.0,-0.1500,-0.9298,-0.3747,0.6055,-0.7864,0.1209,0.0189
355,0.0,0.0,0.0,0.0,0.0,0.0,-0.1456,-0.9216,-0.3590,0.6033,-0.7891,0.1133,0.0231
356,0.0,0.0,0.0,0.0,0.0,0.0,-0.1558,-0.9214,-0.3876,0.6019,-0.7909,0.1070,0.0274
357,0.0,0.0,0.0,0.0,0.0,0.0,-0.1451,-0.9147,-0.3876,0.6001,-0.7930,0.1007,0.0310
358,0.0,0.0,0.0,0.0,0.0,0.0,-0.1533,-0.9198,-0.4163,0.5956,-0.7969,0.0951,0.0347
359,0.0,0.0,0.0,0.0,0.0,0.0,-0.1158,-0.8901,-0.4417,0.5888,-0.8025,0.0889,0.0384
360,0.0,0.0,0.0,0.0,0.0,0.0,-0.1284,-0.8919,-0.4558,0.5810,-0.8085,0.0851,0.0400
361,0.0,0.0,0.0,0.0,0.0,0.0,-0.1514,-0.9301,-0.4024,0.5747,-0.8132,0.0833,0.0399
362,0.0,0.0,0.0,0.0,0.0,0.0,-0.1758,-0.9251,-0.4109,0.5734,-0.8138,0.0870,0.0366
363,0.0,0.0,0.0,0.0,0.0,0.0,-0.1832,-0.9228,-0.3957,0.5751,-0.8122,0.0927,0.0327
364,0.0,0.0,0.0,0.0,0.0,0.0,-0.1377,-0.9310,-0.4200,0.5759,-0.8113,0.0960,0.0315
365,0.0,0.0,0.0,0.0,0.0,0.0,-0.1299,-0.9003,-0.4418,0.5770,-0.8100,0.1004,0.0303
366,0.0,0.0,0.0,0.0,0.0,0.0,-0.1387,-0.8853,-0.4274,0.5785,-0.8084,0.1056,0.0271
367,0.0,0.0,0.0,0.0,0.0,0.0,-0.1217,-0.8765,-0.4347,0.5789,-0.8078,0.1080,0.0257
368,0.0,0.0,0.0,0.0,0.0,0.0,-0.1221,-0.8741,-0.4424,0.5797,-0.8070,0.1103,0.0241
369,0.0,0.0,0.0,0.0,0.0,0.0,-0.1260,-0.8779,-0.4424,0.5807,-0.8058,0.1142,0.0210
370,0.0,0.0,0.0,0.0,0.0,0.0,-0.1201,-0.8867,-0.4436,0.5816,-0.8047,0.1173,0.0187
371,0.0,0.0,0.0,0.0,0.0,0.0,-0.1196,-0.9396,-0.4392,0.5818,-0.8044,0.1190,0.0170
372,0.0,0.0,0.0,0.0,0.0,0.0,-0.1445,-0.9202,-0.4266,0.5830,-0.8033,0.1208,0.0149
373,0.0,0.0,0.0,0.0,0.0,0.0,-0.1597,-0.8931,-0.4148,0.5851,-0.8015,0.1225,0.0134
374,0.0,0.0,0.0,0.0,0.0,0.0,-0.1426,-0.9140,-0.4099,0.5876,-0.7999,0.1212,0.0147
375,0.0,0.0,0.0,0.0,0.0,0.0,-0.1314,-0.9229,-0.3994,0.5912,-0.7976,0.1187,0.0171
376,0.0,0.0,0.0,0.0,0.0,0.0,-0.1275,-0.9215,-0.3868,0.5955,-0.7947,0.1158,0.0193
377,0.0,0.0,0.0,0.0,0.0,0.0,-0.1442,-0.9123,-0.3754,0.6008,-0.7910,0.1137,0.0220
378,0.0,0.0,0.0,0.0,0.0,0.0,-0.1485,-0.9238,-0.3935,0.6054,-0.7876,0.1120,0.0252
379,0.0,0.0,0.0,0.0,0.0,0.0,-0.1597,-0.9355,-0.3966,0.6082,-0.7854,0.1117,0.0270
380,0.0,0.0,0.0,0.0,0.0,0.0,-0.1553,-0.9322,-0.3820,0.6098,-0.7843,0.1109,0.0287
381,0.0,0.0,0.0,0.0,0.0,0.0,-0.1480,-0.9409,-0.3788,0.6109,-0.7834,0.1108,0.0280
382,0.0,0.0,0.0,0.0,0.0,0.0,-0.1719,-0.9657,-0.3659,0.6115,-0.7827,0.1132,0.0245
383,0.0,0.0,0.0,0.0,0.0,0.0,-0.1416,-0.9671,-0.3875,0.6107,-0.7832,0.1145,0.0226
384,0.0,0.0,0.0,0.0,0.0,0.0,-0.1436,-0.9322,-0.3854,0.6107,-0.7829,0.1172,0.0206
385,0.0,0.0,0.0,0.0,0.0,0.0,-0.1583,-0.9021,-0.3722,0.6101,-0.7829,0.1208,0.0181
386,0.0,0.0,0.0,0.0,0.0,0.0,-0.1407,-0.9191,-0.3847,0.6085,-0.7838,0.1228,0.0174
387,0.0,0.0,0.0,0.0,0.0,0.0,-0.0968,-0.8860,-0.4107,0.6062,-0.7855,0.1230,0.0175
388,0.0,0.0,0.0,0.0,0.0,0.0,-0.0940,-0.8326,-0.4088,0.6031,-0.7882,0.1211,0.0188
389,0.0,0.0,0.0,0.0,0.0,0.0,-0.0695,-0.8704,-0.4173,0.5982,-0.7927,0.1146,0.0237
390,0.0,0.0,0.0,0.0,0.0,0.0,-0.1001,-0.9458,-0.3957,0.5946,-0.7965,0.1068,0.0273
391,0.0,0.0,0.0,0.0,0.0,0.0,-0.1372,-0.9555,-0.3771,0.5927,-0.7985,0.1004,0.0321
392,0.0,0.0,0.0,0.0,0.0,0.0,-0.1593,-0.9117,-0.3835,0.5911,-0.8000,0.0950,0.0384
393,0.0,0.0,0.0,0.0,0.0,0.0,-0.1549,-0.8884,-0.3919,0.5884,-0.8023,0.0886,0.0469
394,0.0,0.0,0.0,0.0,0.0,0.0,-0.1221,-0.8672,-0.4501,0.5829,-0.8066,0.0790,0.0583
395,0.0,0.0,0.0,0.0,0.0,0.0,-0.1127,-0.8821,-0.4854,0.5736,-0.8135,0.0668,0.0694
396,0.0,0.0,0.0,0.0,0.0,0.0,-0.1420,-0.9109,-0.4556,0.5648,-0.8196,0.0557,0.0785
397,0.0,0.0,0.0,0.0,0.0,0.0,-0.1928,-0.9249,-0.4526,0.5574,-0.8245,0.0477,0.0853
398,0.0,0.0,0.0,0.0,0.0,0.0,-0.1928,-0.9150,-0.4787,0.5500,-0.8292,0.0424,0.0904
399,0.0,0.0,0.0,0.0,0.0,0.0,-0.1762,-0.8460,-0.4995,0.5439,-0.8328,0.0381,0.0951
400,0.0,0.0,0.0,0.0,0.0,0.0,-0.1788,-0.8023,-0.4948,0.5389,-0.8360,0.0355,0.0971
401,0.0,0.0,0.0,0.0,0.0,0.0,-0.1611,-0.8216,-0.5210,0.5327,-0.8400,0.0317,0.0982
402,0.0,0.0,0.0,0.0,0.0,0.0,-0.1508,-0.8980,-0.4889,0.5290,-0.8424,0.0256,0.0996
403,0.0,0.0,0.0,0.0,0.0,0.0,-0.2093,-0.9796,-0.4657,0.5295,-0.8420,0.0224,0.1009
404,0.0,0.0,0.0,0.0,0.0,0.0,-0.2156,-0.9499,-0.4719,0.5338,-0.8389,0.0229,0.1035
405,0.0,0.0,0.0,0.0,0.0,0.0,-0.2128,-0.9131,-0.4606,0.5420,-0.8334,0.0268,0.1050
406,0.0,0.0,0.0,0.0,0.0,0.0,-0.2031,-0.9097,-0.4640,0.5524,-0.8262,0.0319,0.1056
407,0.0,0.0,0.0,0.0,0.0,0.0,-0.1913,-0.9034,-0.4737,0.5630,-0.8189,0.0366,0.1053
408,0.0,0.0,0.0,0.0,0.0,0.0,-0.2064,-0.9252,-0.4696,0.5732,-0.8116,0.0414,0.1054
409,0.0,0.0,0.0,0.0,0.0,0.0,-0.1797,-0.8592,-0.4686,0.5812,-0.8057,0.0449,0.1050
410,0.0,0.0,0.0,0.0,0.0,0.0,-0.1563,-0.8238,-0.4690,0.5859,-0.8025,0.0469,0.1026
411,0.0,0.0,0.0,0.0,0.0,0.0,-0.1558,-0.8487,-0.4495,0.5888,-0.8008,0.0496,0.0982
412,0.0,0.0,0.0,0.0,0.0,0.0,-0.1603,-0.8727,-0.4208,0.5911,-0.7993,0.0534,0.0942
413,0.0,0.0,0.0,0.0,0.0,0.0,-0.1626,-0.9003,-0.4295,0.5923,-0.7984,0.0569,0.0918
414,0.0,0.0,0.0,0.0,0.0,0.0,-0.1671,-0.8907,-0.4050,0.5951,-0.7965,0.0616,0.0878
415,0.0,0.0,0.0,0.0,0.0,0.0,-0.1710,-0.8942,-0.3973,0.5967,-0.7954,0.0646,0.0836
416,0.0,0.0,0.0,0.0,0.0,0.0,-0.1690,-0.9359,-0.4043,0.5966,-0.7958,0.0646,0.0812
417,0.0,0.0,0.0,0.0,0.0,0.0,-0.1821,-0.9461,-0.3986,0.5969,-0.7958,0.0638,0.0796
418,0.0,0.0,0.0,0.0,0.0,0.0,-0.1920,-0.9074,-0.3740,0.5973,-0.7957,0.0631,0.0788
419,0.0,0.0,0.0,0.0,0.0,0.0,-0.1774,-0.9088,-0.3824,0.5968,-0.7961,0.0618,0.0793
420,0.0,0.0,0.0,0.0,0.0,0.0,-0.1670,-0.9418,-0.3894,0.5973,-0.7957,0.0620,0.0791
421,0.0,0.0,0.0,0.0,0.0,0.0,-0.1773,-0.9316,-0.3843,0.5990,-0.7945,0.0651,0.0758
422,0.0,0.0,0.0,0.0,0.0,0.0,-0.1959,-0.9034,-0.3812,0.6006,-0.7932,0.0694,0.0731
423,0.0,0.0,0.0,0.0,0.0,0.0,-0.1822,-0.9034,-0.3964,0.6007,-0.7928,0.0721,0.0735
424,0.0,0.0,0.0,0.0,0.0,0.0,-0.1656,-0.9097,-0.3966,0.6006,-0.7928,0.0728,0.0742
425,0.0,0.0,0.0,0.0,0.0,0.0,-0.1778,-0.8927,-0.3928,0.6018,-0.7919,0.0734,0.0729
426,0.0,0.0,0.0,0.0,0.0,0.0,-0.1710,-0.8985,-0.3978,0.6016,-0.7922,0.0723,0.0720
427,0.0,0.0,0.0,0.0,0.0,0.0,-0.1646,-0.8965,-0.4197,0.5994,-0.7940,0.0710,0.0723
428,0.0,0.0,0.0,0.0,0.0,0.0,-0.1593,-0.8811,-0.3883,0.5983,-0.7950,0.0701,0.0714
429,0.0,0.0,0.0,0.0,0.0,0.0,-0.1881,-0.9493,-0.3480,0.5982,-0.7952,0.0709,0.0692
430,0.0,0.0,0.0,0.0,0.0,0.0,-0.1982,-0.9841,-0.3734,0.5990,-0.7945,0.0734,0.0679
431,0.0,0.0,0.0,0.0,0.0,0.0,-0.2017,-0.9273,-0.3709,0.6016,-0.7923,0.0778,0.0657
432,0.0,0.0,0.0,0.0,0.0,0.0,-0.1993,-0.9123,-0.3687,0.6024,-0.7915,0.0800,0.0647
433,0.0,0.0,0.0,0.0,0.0,0.0,-0.1807,-0.9296,-0.3886,0.6015,-0.7922,0.0794,0.0666
434,0.0,0.0,0.0,0.0,0.0,0.0,-0.1710,-0.9194,-0.3919,0.6016,-0.7920,0.0790,0.0679
435,0.0,0.0,0.0,0.0,0.0,0.0,-0.1676,-0.8957,-0.3905,0.6007,-0.7927,0.0772,0.0696
436,0.0,0.0,0.0,0.0,0.0,0.0,-0.1505,-0.8932,-0.3959,0.5989,-0.7942,0.0751,0.0701
437,0.0,0.0,0.0,0.0,0.0,0.0,-0.1573,-0.9179,-0.4046,0.5971,-0.7957,0.0741,0.0701
438,0.0,0.0,0.0,0.0,0.0,0.0,-0.1704,-0.8974,-0.4289,0.5937,-0.7982,0.0750,0.0688
439,0.0,0.0,0.0,0.0,0.0,0.0,-0.1486,-0.8254,-0.4511,0.5866,-0.8037,0.0750,0.0656
440,0.0,0.0,0.0,0.0,0.0,0.0,-0.1354,-0.8344,-0.4173,0.5774,-0.8108,0.0720,0.0636
441,0.0,0.0,0.0,0.0,0.0,0.0,-0.1265,-0.9115,-0.4387,0.5685,-0.8176,0.0664,0.0635
442,0.0,0.0,0.0,0.0,0.0,0.0,-0.1450,-0.9377,-0.4356,0.5614,-0.8229,0.0605,0.0643
443,0.0,0.0,0.0,0.0,0.0,0.0,-0.1987,-0.9631,-0.3964,0.5583,-0.8252,0.0590,0.0621
444,0.0,0.0,0.0,0.0,0.0,0.0,-0.1997,-0.9415,-0.4247,0.5571,-0.8260,0.0591,0.0618
445,0.0,0.0,0.0,0.0,0.0,0.0,-0.1650,-0.9234,-0.4547,0.5572,-0.8257,0.0587,0.0655
446,0.0,0.0,0.0,0.0,0.0,0.0,-0.1513,-0.9136,-0.4755,0.5572,-0.8254,0.0578,0.0698
447,0.0,0.0,0.0,0.0,0.0,0.0,-0.1508,-0.9006,-0.4656,0.5584,-0.8244,0.0559,0.0737
448,0.0,0.0,0.0,0.0,0.0,0.0,-0.1694,-0.9192,-0.4395,0.5620,-0.8217,0.0543,0.0773
449,0.0,0.0,0.0,0.0,0.0,0.0,-0.1884,-0.9181,-0.4457,0.5681,-0.8174,0.0570,0.0763
450,0.0,0.0,0.0,0.0,0.0,0.0,-0.1840,-0.9185,-0.4618,0.5733,-0.8138,0.0616,0.0725
451,0.0,0.0,0.0,0.0,0.0,0.0,-0.1552,-0.9059,-0.4661,0.5763,-0.8116,0.0646,0.0705
452,0.0,0.0,0.0,0.0,0.0,0.0,-0.1616,-0.8866,-0.4512,0.5798,-0.8090,0.0697,0.0664
453,0.0,0.0,0.0,0.0,0.0,0.0,-0.1645,-0.9065,-0.4437,0.5826,-0.8071,0.0750,0.0598
454,0.0,0.0,0.0,0.0,0.0,0.0,-0.1719,-0.8978,-0.4430,0.5862,-0.8044,0.0817,0.0505
455,0.0,0.0,0.0,0.0,0.0,0.0,-0.1812,-0.9032,-0.4178,0.5920,-0.7999,0.0903,0.0390
456,0.0,0.0,0.0,0.0,0.0,0.0,-0.1734,-0.9131,-0.4024,0.5962,-0.7963,0.0979,0.0302
457,0.0,0.0,0.0,0.0,0.0,0.0,-0.1808,-0.8815,-0.4009,0.5992,-0.7929,0.1089,0.0205
458,0.0,0.0,0.0,0.0,0.0,0.0,-0.1632,-0.9014,-0.4033,0.6004,-0.7905,0.1201,0.0108
459,0.0,0.0,0.0,0.0,0.0,0.0,-0.1158,-0.9131,-0.4086,0.5971,-0.7921,0.1265,0.0055
460,0.0,0.0,0.0,0.0,0.0,0.0,-0.1202,-0.8952,-0.4019,0.5948,-0.7929,0.1325,0.0015
461,0.0,0.0,0.0,0.0,0.0,0.0,-0.1325,-0.8933,-0.3882,0.5947,-0.7918,0.1394,-0.0032
462,0.0,0.0,0.0,0.0,0.0,0.0,-0.1490,-0.9117,-0.3870,0.5947,-0.7905,0.1460,-0.0076
463,0.0,0.0,0.0,0.0,0.0,0.0,-0.1305,-0.9035,-0.3977,0.5948,-0.7897,0.1496,-0.0098
464,0.0,0.0,0.0,0.0,0.0,0.0,-0.1114,-0.9029,-0.4084,0.5921,-0.7913,0.1520,-0.0106
465,0.0,0.0,0.0,0.0,0.0,0.0,-0.1114,-0.9267,-0.4069,0.5908,-0.7920,0.1536,-0.0106
466,0.0,0.0,0.0,0.0,0.0,0.0,-0.1285,-0.9093,-0.3983,0.5904,-0.7920,0.1552,-0.0115
467,0.0,0.0,0.0,0.0,0.0,0.0,-0.1319,-0.9088,-0.4036,0.5894,-0.7924,0.1564,-0.0129
468,0.0,0.0,0.0,0.0,0.0,0.0,-0.1573,-0.9179,-0.4075,0.5880,-0.7932,0.1580,-0.0125
469,0.0,0.0,0.0,0.0,0.0,0.0,-0.1553,-0.9214,-0.3998,0.5871,-0.7936,0.1592,-0.0108
470,0.0,0.0,0.0,0.0,0.0,0.0,-0.1319,-0.9068,-0.4065,0.5866,-0.7940,0.1596,-0.0093
471,0.0,0.0,0.0,0.0,0.0,0.0,-0.1368,-0.9214,-0.3950,0.5876,-0.7932,0.1597,-0.0089
472,0.0,0.0,0.0,0.0,0.0,0.0,-0.1387,-0.9288,-0.3825,0.5909,-0.7907,0.1600,-0.0087
473,0.0,0.0,0.0,0.0,0.0,0.0,-0.1309,-0.9151,-0.3974,0.5946,-0.7881,0.1593,-0.0062
474,0.0,0.0,0.0,0.0,0.0,0.0,-0.1348,-0.9316,-0.3981,0.5986,-0.7852,0.1587,-0.0038
475,0.0,0.0,0.0,0.0,0.0,0.0,-0.1270,-0.9219,-0.4019,0.6030,-0.7820,0.1576,-0.0031
476,0.0,0.0,0.0,0.0,0.0,0.0,-0.1275,-0.9098,-0.3992,0.6071,-0.7792,0.1555,-0.0025
477,0.0,0.0,0.0,0.0,0.0,0.0,-0.1411,-0.9476,-0.3945,0.6103,-0.7773,0.1527,-0.0011
478,0.0,0.0,0.0,0.0,0.0,0.0,-0.1630,-0.9699,-0.4054,0.6115,-0.7766,0.1515,0.0001
479,0.0,0.0,0.0,0.0,0.0,0.0,-0.1763,-0.9341,-0.3780,0.6117,-0.7764,0.1518,0.0007
480,0.0,0.0,0.0,0.0,0.0,0.0,-0.1510,-0.8919,-0.3803,0.6098,-0.7781,0.1509,0.0017
481,0.0,0.0,0.0,0.0,0.0,0.0,-0.1246,-0.8782,-0.4026,0.6068,-0.7807,0.1492,0.0031
482,0.0,0.0,0.0,0.0,0.0,0.0,-0.1066,-0.8695,-0.3962,0.6033,-0.7839,0.1463,0.0043
483,0.0,0.0,0.0,0.0,0.0,0.0,-0.0675,-0.8836,-0.4093,0.5973,-0.7896,0.1403,0.0055
484,0.0,0.0,0.0,0.0,0.0,0.0,-0.0532,-0.9189,-0.4309,0.5898,-0.7966,0.1325,0.0068
485,0.0,0.0,0.0,0.0,0.0,0.0,-0.0933,-0.9439,-0.3874,0.5855,-0.8010,0.1250,0.0068
486,0.0,0.0,0.0,0.0,0.0,0.0,-0.1479,-1.0168,-0.3611,0.5853,-0.8023,0.1170,0.0109
487,0.0,0.0,0.0,0.0,0.0,0.0,-0.1942,-0.9702,-0.4291,0.5830,-0.8045,0.1128,0.0142
488,0.0,0.0,0.0,0.0,0.0,0.0,-0.1714,-0.9052,-0.4184,0.5824,-0.8055,0.1081,0.0182
489,0.0,0.0,0.0,0.0,0.0,0.0,-0.1333,-0.9007,-0.4452,0.5825,-0.8062,0.1004,0.0245
490,0.0,0.0,0.0,0.0,0.0,0.0,-0.1177,-0.8871,-0.4577,0.5817,-0.8077,0.0915,0.0309
491,0.0,0.0,0.0,0.0,0.0,0.0,-0.1490,-0.8764,-0.4472,0.5816,-0.8083,0.0842,0.0360
492,0.0,0.0,0.0,0.0,0.0,0.0,-0.1334,-0.8669,-0.4276,0.5823,-0.8081,0.0788,0.0405
493,0.0,0.0,0.0,0.0,0.0,0.0,-0.1334,-0.8995,-0.4107,0.5831,-0.8076,0.0771,0.0435
494,0.0,0.0,0.0,0.0,0.0,0.0,-0.1090,-0.8952,-0.4093,0.5849,-0.8060,0.0791,0.0446
495,0.0,0.0,0.0,0.0,0.0,0.0,-0.0919,-0.8908,-0.4166,0.5872,-0.8041,0.0815,0.0449
496,0.0,0.0,0.0,0.0,0.0,0.0,-0.0693,-0.9208,-0.4445,0.5881,-0.8034,0.0814,0.0463
497,0.0,0.0,0.0,0.0,0.0,0.0,-0.0947,-0.9110,-0.4452,0.5894,-0.8024,0.0810,0.0464
498,0.0,0.0,0.0,0.0,0.0,0.0,-0.1388,-0.8699,-0.4072,0.5919,-0.8007,0.0803,0.0468
499,0.0,0.0,0.0,0.0,0.0,0.0,-0.1491,-0.8665,-0.3974,0.5945,-0.7987,0.0776,0.0512
500,0.0,0.0,0.0,0.0,0.0,0.0,-0.1515,-0.8440,-0.4247,0.5963,-0.7973,0.0740,0.0573
501,0.0,0.0,0.0,0.0,0.0,0.0,-0.1298,-0.9631,-0.4148,0.5963,-0.7974,0.0677,0.0633
502,0.0,0.0,0.0,0.0,0.0,0.0,-0.1820,-0.9892,-0.4144,0.5955,-0.7979,0.0653,0.0670
503,0.0,0.0,0.0,0.0,0.0,0.0,-0.1903,-0.9873,-0.4007,0.5935,-0.7992,0.0652,0.0695
504,0.0,0.0,0.0,0.0,0.0,0.0,-0.1934,-0.9597,-0.3856,0.5916,-0.8005,0.0667,0.0692
505,0.0,0.0,0.0,0.0,0.0,0.0,-0.1621,-0.9281,-0.4037,0.5885,-0.8027,0.0667,0.0695
506,0.0,0.0,0.0,0.0,0.0,0.0,-0.1392,-0.9072,-0.4132,0.5872,-0.8037,0.0654,0.0707
507,0.0,0.0,0.0,0.0,0.0,0.0,-0.1538,-0.9081,-0.4268,0.5864,-0.8044,0.0645,0.0704
508,0.0,0.0,0.0,0.0,0.0,0.0,-0.1353,-0.9022,-0.4380,0.5843,-0.8061,0.0626,0.0705
509,0.0,0.0,0.0,0.0,0.0,0.0,-0.1348,-0.8833,-0.4303,0.5831,-0.8070,0.0622,0.0694
510,0.0,0.0,0.0,0.0,0.0,0.0,-0.1407,-0.8862,-0.4445,0.5812,-0.8084,0.0629,0.0683
511,0.0,0.0,0.0,0.0,0.0,0.0,-0.1358,-0.8842,-0.4483,0.5789,-0.8101,0.0638,0.0671
512,0.0,0.0,0.0,0.0,0.0,0.0,-0.1402,-0.8862,-0.4454,0.5773,-0.8114,0.0644,0.0654
513,0.0,0.0,0.0,0.0,0.0,0.0,-0.1323,-0.8977,-0.4642,0.5742,-0.8137,0.0632,0.0651
514,0.0,0.0,0.0,0.0,0.0,0.0,-0.1284,-0.8793,-0.4590,0.5718,-0.8156,0.0615,0.0639
515,0.0,0.0,0.0,0.0,0.0,0.0,-0.1387,-0.8892,-0.4290,0.5708,-0.8165,0.0586,0.0638
516,0.0,0.0,0.0,0.0,0.0,0.0,-0.1234,-0.9186,-0.4699,0.5702,-0.8171,0.0549,0.0644
517,0.0,0.0,0.0,0.0,0.0,0.0,-0.1795,-0.9881,-0.4373,0.5715,-0.8163,0.0576,0.0602
518,0.0,0.0,0.0,0.0,0.0,0.0,-0.1781,-0.9600,-0.4310,0.5745,-0.8143,0.0644,0.0523
519,0.0,0.0,0.0,0.0,0.0,0.0,-0.1777,-0.9066,-0.4315,0.5785,-0.8112,0.0733,0.0438
520,0.0,0.0,0.0,0.0,0.0,0.0,-0.1836,-0.8938,-0.4604,0.5803,-0.8093,0.0836,0.0359
521,0.0,0.0,0.0,0.0,0.0,0.0,-0.1563,-0.8726,-0.4388,0.5825,-0.8069,0.0939,0.0282
522,0.0,0.0,0.0,0.0,0.0,0.0,-0.1158,-0.8848,-0.4407,0.5839,-0.8052,0.1011,0.0210
523,0.0,0.0,0.0,0.0,0.0,0.0,-0.1304,-0.8844,-0.4255,0.5851,-0.8033,0.1103,0.0118
524,0.0,0.0,0.0,0.0,0.0,0.0,-0.1691,-0.8679,-0.4041,0.5879,-0.7995,0.1232,0.0021
525,0.0,0.0,0.0,0.0,0.0,0.0,-0.0821,-0.8841,-0.4083,0.5898,-0.7968,0.1309,-0.0016
526,0.0,0.0,0.0,0.0,0.0,0.0,-0.0484,-0.9204,-0.4227,0.5912,-0.7952,0.1347,-0.0022
527,0.0,0.0,0.0,0.0,0.0,0.0,-0.0727,-0.9447,-0.4201,0.5926,-0.7936,0.1380,-0.0043
528,0.0,0.0,0.0,0.0,0.0,0.0,-0.0777,-0.9287,-0.4067,0.5945,-0.7920,0.1390,-0.0059
529,0.0,0.0,0.0,0.0,0.0,0.0,-0.0968,-0.9152,-0.3995,0.5956,-0.7911,0.1395,-0.0075
530,0.0,0.0,0.0,0.0,0.0,0.0,-0.1143,-0.9200,-0.3961,0.5977,-0.7895,0.1393,-0.0076
531,0.0,0.0,0.0,0.0,0.0,0.0,-0.1129,-0.9122,-0.4018,0.5998,-0.7880,0.1388,-0.0074
532,0.0,0.0,0.0,0.0,0.0,0.0,-0.1026,-0.9030,-0.4056,0.6013,-0.7872,0.1370,-0.0069
533,0.0,0.0,0.0,0.0,0.0,0.0,-0.1143,-0.9165,-0.4062,0.6024,-0.7871,0.1328,-0.0034
534,0.0,0.0,0.0,0.0,0.0,0.0,-0.1138,-0.9175,-0.4082,0.6025,-0.7882,0.1252,0.0023
535,0.0,0.0,0.0,0.0,0.0,0.0,-0.1368,-0.9204,-0.4028,0.6010,-0.7906,0.1169,0.0088
536,0.0,0.0,0.0,0.0,0.0,0.0,-0.1612,-0.9199,-0.3992,0.5965,-0.7950,0.1093,0.0137
537,0.0,0.0,0.0,0.0,0.0,0.0,-0.1587,-0.9228,-0.4022,0.5903,-0.8002,0.1041,0.0181
538,0.0,0.0,0.0,0.0,0.0,0.0,-0.1627,-0.9321,-0.3858,0.5864,-0.8033,0.1013,0.0231
539,0.0,0.0,0.0,0.0,0.0,0.0,-0.1568,-0.9418,-0.3982,0.5847,-0.8046,0.1001,0.0275
540,0.0,0.0,0.0,0.0,0.0,0.0,-0.1309,-0.9434,-0.3842,0.5864,-0.8033,0.1001,0.0292
541,0.0,0.0,0.0,0.0,0.0,0.0,-0.1338,-0.9329,-0.4254,0.5909,-0.7998,0.1017,0.0292
542,0.0,0.0,0.0,0.0,0.0,0.0,-0.1431,-0.9286,-0.4107,0.5958,-0.7959,0.1039,0.0284
543,0.0,0.0,0.0,0.0,0.0,0.0,-0.1152,-0.9242,-0.4205,0.5993,-0.7934,0.1029,0.0283
544,0.0,0.0,0.0,0.0,0.0,0.0,-0.1275,-0.9189,-0.4067,0.6013,-0.7921,0.1004,0.0287
545,0.0,0.0,0.0,0.0,0.0,0.0,-0.1388,-0.9049,-0.3962,0.6019,-0.7918,0.0989,0.0293
546,0.0,0.0,0.0,0.0,0.0,0.0,-0.1251,-0.9278,-0.3879,0.6017,-0.7922,0.0975,0.0303
547,0.0,0.0,0.0,0.0,0.0,0.0,-0.1577,-0.9413,-0.3909,0.6020,-0.7918,0.0992,0.0285
548,0.0,0.0,0.0,0.0,0.0,0.0,-0.1456,-0.9195,-0.3852,0.6029,-0.7909,0.1016,0.0264
549,0.0,0.0,0.0,0.0,0.0,0.0,-0.1011,-0.9283,-0.3992,0.6034,-0.7906,0.1010,0.0267
550,0.0,0.0,0.0,0.0,0.0,0.0,-0.1191,-0.9057,-0.4391,0.6015,-0.7920,0.1008,0.0259
551,0.0,0.0,0.0,0.0,0.0,0.0,-0.1153,-0.8810,-0.4265,0.5978,-0.7950,0.1001,0.0256
552,0.0,0.0,0.0,0.0,0.0,0.0,-0.1251,-0.8743,-0.3986,0.5949,-0.7973,0.0987,0.0262
553,0.0,0.0,0.0,0.0,0.0,0.0,-0.1065,-0.8683,-0.4395,0.5895,-0.8017,0.0948,0.0289
554,0.0,0.0,0.0,0.0,0.0,0.0,-0.0914,-0.8575,-0.4617,0.5816,-0.8078,0.0903,0.0319
555,0.0,0.0,0.0,0.0,0.0,0.0,-0.1056,-0.8353,-0.4331,0.5747,-0.8130,0.0871,0.0346
556,0.0,0.0,0.0,0.0,0.0,0.0,-0.0622,-0.7982,-0.4759,0.5654,-0.8200,0.0782,0.0420
557,0.0,0.0,0.0,0.0,0.0,0.0,-0.1109,-0.9211,-0.3801,0.5621,-0.8225,0.0710,0.0500
558,0.0,0.0,0.0,0.0,0.0,0.0,-0.1570,-1.0138,-0.4398,0.5627,-0.8221,0.0650,0.0581
559,0.0,0.0,0.0,0.0,0.0,0.0,-0.1662,-0.9995,-0.4823,0.5614,-0.8228,0.0592,0.0664
560,0.0,0.0,0.0,0.0,0.0,0.0,-0.1752,-0.8932,-0.4706,0.5603,-0.8234,0.0561,0.0704
561,0.0,0.0,0.0,0.0,0.0,0.0,-0.1548,-0.8588,-0.4740,0.5581,-0.8248,0.0517,0.0748
562,0.0,0.0,0.0,0.0,0.0,0.0,-0.1425,-0.8772,-0.4788,0.5553,-0.8266,0.0459,0.0796
563,0.0,0.0,0.0,0.0,0.0,0.0,-0.1420,-0.8844,-0.5013,0.5520,-0.8286,0.0404,0.0845
564,0.0,0.0,0.0,0.0,0.0,0.0,-0.1357,-0.8814,-0.5028,0.5489,-0.8305,0.0357,0.0877
565,0.0,0.0,0.0,0.0,0.0,0.0,-0.1650,-0.8780,-0.4962,0.5462,-0.8324,0.0336,0.0876
566,0.0,0.0,0.0,0.0,0.0,0.0,-0.1577,-0.8610,-0.5047,0.5427,-0.8345,0.0320,0.0896
567,0.0,0.0,0.0,0.0,0.0,0.0,-0.1401,-0.8479,-0.5128,0.5391,-0.8367,0.0300,0.0919
568,0.0,0.0,0.0,0.0,0.0,0.0,-0.1425,-0.8415,-0.5147,0.5359,-0.8388,0.0271,0.0923
569,0.0,0.0,0.0,0.0,0.0,0.0,-0.1406,-0.8469,-0.5177,0.5324,-0.8412,0.0227,0.0921
570,0.0,0.0,0.0,0.0,0.0,0.0,-0.1508,-0.8652,-0.5301,0.5289,-0.8435,0.0188,0.0911
571,0.0,0.0,0.0,0.0,0.0,0.0,-0.1762,-0.8557,-0.4992,0.5282,-0.8443,0.0183,0.0889
572,0.0,0.0,0.0,0.0,0.0,0.0,-0.1742,-0.8823,-0.5084,0.5290,-0.8439,0.0194,0.0873
573,0.0,0.0,0.0,0.0,0.0,0.0,-0.1644,-0.9041,-0.5234,0.5294,-0.8437,0.0212,0.0866
574,0.0,0.0,0.0,0.0,0.0,0.0,-0.1732,-0.8910,-0.5197,0.5315,-0.8425,0.0255,0.0838
575,0.0,0.0,0.0,0.0,0.0,0.0,-0.1801,-0.8692,-0.5101,0.5340,-0.8410,0.0300,0.0818
576,0.0,0.0,0.0,0.0,0.0,0.0,-0.1566,-0.8657,-0.5291,0.5352,-0.8402,0.0327,0.0805
577,0.0,0.0,0.0,0.0,0.0,0.0,-0.1439,-0.8715,-0.5366,0.5359,-0.8400,0.0346,0.0782
578,0.0,0.0,0.0,0.0,0.0,0.0,-0.1424,-0.8982,-0.5322,0.5375,-0.8392,0.0374,0.0736
579,0.0,0.0,0.0,0.0,0.0,0.0,-0.1688,-0.9048,-0.4826,0.5430,-0.8359,0.0440,0.0669
580,0.0,0.0,0.0,0.0,0.0,0.0,-0.1630,-0.9083,-0.4651,0.5499,-0.8312,0.0515,0.0631
581,0.0,0.0,0.0,0.0,0.0,0.0,-0.1454,-0.9209,-0.4810,0.5593,-0.8247,0.0599,0.0592
582,0.0,0.0,0.0,0.0,0.0,0.0,-0.1558,-0.8817,-0.4608,0.5703,-0.8168,0.0694,0.0522
583,0.0,0.0,0.0,0.0,0.0,0.0,-0.1826,-0.7987,-0.5210,0.5788,-0.8104,0.0784,0.0452
584,0.0,0.0,0.0,0.0,0.0,0.0,-0.1769,-0.7956,-0.4733,0.5830,-0.8070,0.0843,0.0418
585,0.0,0.0,0.0,0.0,0.0,0.0,-0.1564,-0.8480,-0.4131,0.5862,-0.8043,0.0891,0.0390
586,0.0,0.0,0.0,0.0,0.0,0.0,-0.0889,-0.8922,-0.4322,0.5896,-0.8016,0.0925,0.0355
587,0.0,0.0,0.0,0.0,0.0,0.0,-0.1172,-0.9203,-0.4267,0.5976,-0.7951,0.0990,0.0290
588,0.0,0.0,0.0,0.0,0.0,0.0,-0.1937,-0.9906,-0.4120,0.6029,-0.7900,0.1098,0.0191
589,0.0,0.0,0.0,0.0,0.0,0.0,-0.2021,-0.9717,-0.4067,0.6038,-0.7880,0.1196,0.0155
590,0.0,0.0,0.0,0.0,0.0,0.0,-0.1709,-0.9286,-0.4066,0.6039,-0.7868,0.1270,0.0127
591,0.0,0.0,0.0,0.0,0.0,0.0,-0.2305,-0.9316,-0.3776,0.6028,-0.7863,0.1352,0.0074
592,0.0,0.0,0.0,0.0,0.0,0.0,-0.1572,-0.9279,-0.4490,0.5953,-0.7916,0.1380,0.0041
593,0.0,0.0,0.0,0.0,0.0,0.0,-0.1549,-0.8931,-0.4124,0.5867,-0.7975,0.1407,0.0015
594,0.0,0.0,0.0,0.0,0.0,0.0,-0.1329,-0.8718,-0.4092,0.5801,-0.8018,0.1435,0.0016
595,0.0,0.0,0.0,0.0,0.0,0.0,-0.0831,-0.8499,-0.4349,0.5731,-0.8065,0.1449,0.0037
596,0.0,0.0,0.0,0.0,0.0,0.0,-0.0587,-0.8416,-0.4529,0.5673,-0.8103,0.1466,0.0010
597,0.0,0.0,0.0,0.0,0.0,0.0,-0.0821,-0.8410,-0.4610,0.5631,-0.8131,0.1477,-0.0001
598,0.0,0.0,0.0,0.0,0.0,0.0,-0.0523,-0.8517,-0.4667,0.5606,-0.8151,0.1458,0.0011
599,0.0,0.0,0.0,0.0,0.0,0.0,-0.0109,-0.8436,-0.4488,0.5606,-0.8160,0.1411,0.0016
600,0.0,0.0,0.0,0.0,0.0,0.0,0.0320,-0.8453,-0.4257,0.5657,-0.8137,0.1335,-0.0013
601,0.0,0.0,0.0,0.0,0.0,0.0,-0.0269,-0.9014,-0.4434,0.5758,-0.8083,0.1232,0.0010
602,0.0,0.0,0.0,0.0,0.0,0.0,-0.1785,-0.9782,-0.4658,0.5882,-0.8007,0.1137,0.0104
603,0.0,0.0,0.0,0.0,0.0,0.0,-0.2912,-1.0081,-0.4710,0.5933,-0.7974,0.1086,0.0206
604,0.0,0.0,0.0,0.0,0.0,0.0,-0.3377,-0.9840,-0.4256,0.5914,-0.7986,0.1087,0.0269
605,0.0,0.0,0.0,0.0,0.0,0.0,-0.2252,-0.8893,-0.3876,0.5873,-0.8017,0.1066,0.0317
606,0.0,0.0,0.0,0.0,0.0,0.0,-0.1182,-0.8804,-0.4425,0.5821,-0.8062,0.0990,0.0372
607,0.0,0.0,0.0,0.0,0.0,0.0,-0.0458,-0.8787,-0.5018,0.5752,-0.8123,0.0854,0.0453
608,0.0,0.0,0.0,0.0,0.0,0.0,-0.0596,-0.8692,-0.4626,0.5711,-0.8160,0.0710,0.0548
609,0.0,0.0,0.0,0.0,0.0,0.0,-0.1220,-0.9138,-0.4509,0.5684,-0.8181,0.0619,0.0622
610,0.0,0.0,0.0,0.0,0.0,0.0,-0.1806,-0.9006,-0.4474,0.5676,-0.8185,0.0610,0.0652
611,0.0,0.0,0.0,0.0,0.0,0.0,-0.1855,-0.8806,-0.4723,0.5649,-0.8198,0.0621,0.0706
612,0.0,0.0,0.0,0.0,0.0,0.0,-0.1641,-0.8789,-0.4398,0.5620,-0.8212,0.0606,0.0788
613,0.0,0.0,0.0,0.0,0.0,0.0,-0.1714,-0.9294,-0.4314,0.5606,-0.8216,0.0579,0.0855
614,0.0,0.0,0.0,0.0,0.0,0.0,-0.1772,-0.9073,-0.4719,0.5613,-0.8207,0.0530,0.0923
615,0.0,0.0,0.0,0.0,0.0,0.0,-0.2100,-0.8979,-0.4083,0.5678,-0.8163,0.0503,0.0932
616,0.0,0.0,0.0,0.0,0.0,0.0,-0.2418,-0.9053,-0.3868,0.5764,-0.8102,0.0506,0.0935
617,0.0,0.0,0.0,0.0,0.0,0.0,-0.1939,-0.9013,-0.4225,0.5834,-0.8050,0.0535,0.0939
618,0.0,0.0,0.0,0.0,0.0,0.0,-0.1596,-0.9113,-0.4574,0.5881,-0.8015,0.0602,0.0906
619,0.0,0.0,0.0,0.0,0.0,0.0,-0.1538,-0.8754,-0.4481,0.5902,-0.7997,0.0674,0.0873
620,0.0,0.0,0.0,0.0,0.0,0.0,-0.1754,-0.8654,-0.4167,0.5913,-0.7987,0.0736,0.0839
621,0.0,0.0,0.0,0.0,0.0,0.0,-0.1612,-0.8706,-0.4377,0.5900,-0.7997,0.0756,0.0822
622,0.0,0.0,0.0,0.0,0.0,0.0,-0.1666,-0.8770,-0.4257,0.5877,-0.8016,0.0743,0.0812
623,0.0,0.0,0.0,0.0,0.0,0.0,-0.1900,-0.8983,-0.4298,0.5845,-0.8041,0.0730,0.0806
624,0.0,0.0,0.0,0.0,0.0,0.0,-0.1685,-0.8803,-0.4437,0.5813,-0.8065,0.0708,0.0816
625,0.0,0.0,0.0,0.0,0.0,0.0,-0.1631,-0.8764,-0.4388,0.5793,-0.8082,0.0703,0.0795
626,0.0,0.0,0.0,0.0,0.0,0.0,-0.1621,-0.8690,-0.4635,0.5763,-0.8107,0.0709,0.0746
627,0.0,0.0,0.0,0.0,0.0,0.0,-0.1533,-0.8842,-0.4448,0.5726,-0.8135,0.0709,0.0722
628,0.0,0.0,0.0,0.0,0.0,0.0,-0.1436,-0.9105,-0.4327,0.5697,-0.8157,0.0687,0.0725
629,0.0,0.0,0.0,0.0,0.0,0.0,-0.1479,-0.9221,-0.4485,0.5678,-0.8174,0.0661,0.0713
630,0.0,0.0,0.0,0.0,0.0,0.0,-0.1914,-0.9173,-0.4267,0.5677,-0.8178,0.0660,0.0671
631,0.0,0.0,0.0,0.0,0.0,0.0,-0.1787,-0.9055,-0.4490,0.5665,-0.8189,0.0649,0.0651
632,0.0,0.0,0.0,0.0,0.0,0.0,-0.1572,-0.9143,-0.4473,0.5654,-0.8198,0.0634,0.0657
633,0.0,0.0,0.0,0.0,0.0,0.0,-0.1484,-0.9195,-0.4620,0.5655,-0.8196,0.0635,0.0657
634,0.0,0.0,0.0,0.0,0.0,0.0,-0.1411,-0.8850,-0.4673,0.5659,-0.8194,0.0639,0.0647
635,0.0,0.0,0.0,0.0,0.0,0.0,-0.1435,-0.8690,-0.4753,0.5650,-0.8202,0.0639,0.0622
636,0.0,0.0,0.0,0.0,0.0,0.0,-0.1430,-0.8733,-0.4875,0.5637,-0.8214,0.0628,0.0607
637,0.0,0.0,0.0,0.0,0.0,0.0,-0.1601,-0.9059,-0.4607,0.5637,-0.8216,0.0622,0.0584
638,0.0,0.0,0.0,0.0,0.0,0.0,-0.2183,-0.9319,-0.4103,0.5688,-0.8181,0.0661,0.0530
639,0.0,0.0,0.0,0.0,0.0,0.0,-0.2163,-0.9320,-0.3957,0.5752,-0.8135,0.0718,0.0461
640,0.0,0.0,0.0,0.0,0.0,0.0,-0.1449,-0.9644,-0.4317,0.5788,-0.8109,0.0736,0.0438
641,0.0,0.0,0.0,0.0,0.0,0.0,-0.1186,-0.9666,-0.3974,0.5840,-0.8072,0.0746,0.0430
642,0.0,0.0,0.0,0.0,0.0,0.0,-0.1465,-0.9320,-0.4136,0.5888,-0.8035,0.0774,0.0417
643,0.0,0.0,0.0,0.0,0.0,0.0,-0.1250,-0.9193,-0.4315,0.5909,-0.8018,0.0786,0.0424
644,0.0,0.0,0.0,0.0,0.0,0.0,-0.1138,-0.9175,-0.4019,0.5941,-0.7993,0.0801,0.0412
645,0.0,0.0,0.0,0.0,0.0,0.0,-0.1426,-0.9184,-0.4061,0.5976,-0.7963,0.0854,0.0377
646,0.0,0.0,0.0,0.0,0.0,0.0,-0.1671,-0.9171,-0.3743,0.6026,-0.7917,0.0953,0.0316
647,0.0,0.0,0.0,0.0,0.0,0.0,-0.1374,-0.8880,-0.3866,0.6071,-0.7872,0.1059,0.0242
648,0.0,0.0,0.0,0.0,0.0,0.0,-0.0797,-0.8918,-0.4070,0.6089,-0.7851,0.1117,0.0185
649,0.0,0.0,0.0,0.0,0.0,0.0,-0.0958,-0.8928,-0.4108,0.6100,-0.7838,0.1159,0.0139
650,0.0,0.0,0.0,0.0,0.0,0.0,-0.1633,-0.8778,-0.3776,0.6117,-0.7815,0.1229,0.0070
651,0.0,0.0,0.0,0.0,0.0,0.0,-0.1393,-0.9065,-0.3753,0.6124,-0.7799,0.1294,0.0003
652,0.0,0.0,0.0,0.0,0.0,0.0,-0.1300,-0.9289,-0.3718,0.6121,-0.7792,0.1351,-0.0042
653,0.0,0.0,0.0,0.0,0.0,0.0,-0.1026,-0.9348,-0.3653,0.6105,-0.7796,0.1395,-0.0066
654,0.0,0.0,0.0,0.0,0.0,0.0,-0.1222,-0.9221,-0.3737,0.6090,-0.7797,0.1450,-0.0092
655,0.0,0.0,0.0,0.0,0.0,0.0,-0.1349,-0.9157,-0.3794,0.6065,-0.7810,0.1486,-0.0107
656,0.0,0.0,0.0,0.0,0.0,0.0,-0.1159,-0.8948,-0.3815,0.6031,-0.7835,0.1494,-0.0106
657,0.0,0.0,0.0,0.0,0.0,0.0,-0.1085,-0.9187,-0.3659,0.6011,-0.7853,0.1479,-0.0103
658,0.0,0.0,0.0,0.0,0.0,0.0,-0.1167,-0.9639,-0.3652,0.5989,-0.7872,0.1467,-0.0098
659,0.0,0.0,0.0,0.0,0.0,0.0,-0.1275,-0.9453,-0.3828,0.5969,-0.7886,0.1474,-0.0100
660,0.0,0.0,0.0,0.0,0.0,0.0,-0.1299,-0.9418,-0.3930,0.5937,-0.7907,0.1491,-0.0100
661,0.0,0.0,0.0,0.0,0.0,0.0,-0.1123,-0.9565,-0.3904,0.5902,-0.7930,0.1506,-0.0107
662,0.0,0.0,0.0,0.0,0.0,0.0,-0.1377,-0.9495,-0.4106,0.5870,-0.7950,0.1526,-0.0110
663,0.0,0.0,0.0,0.0,0.0,0.0,-0.1543,-0.9490,-0.4110,0.5841,-0.7968,0.1544,-0.0110
664,0.0,0.0,0.0,0.0,0.0,0.0,-0.1597,-0.9226,-0.4294,0.5817,-0.7982,0.1560,-0.0108
665,0.0,0.0,0.0,0.0,0.0,0.0,-0.1670,-0.9110,-0.4238,0.5805,-0.7988,0.1577,-0.0105
666,0.0,0.0,0.0,0.0,0.0,0.0,-0.1314,-0.8815,-0.4206,0.5805,-0.7987,0.1583,-0.0095
667,0.0,0.0,0.0,0.0,0.0,0.0,-0.1012,-0.8703,-0.4288,0.5821,-0.7975,0.1582,-0.0079
668,0.0,0.0,0.0,0.0,0.0,0.0,-0.1045,-0.9029,-0.4177,0.5861,-0.7946,0.1581,-0.0065
669,0.0,0.0,0.0,0.0,0.0,0.0,-0.0992,-0.9293,-0.3856,0.5931,-0.7894,0.1583,-0.0062
670,0.0,0.0,0.0,0.0,0.0,0.0,-0.0739,-0.9520,-0.3317,0.6047,-0.7805,0.1586,-0.0074
671,0.0,0.0,0.0,0.0,0.0,0.0,-0.1080,-0.9622,-0.3298,0.6208,-0.7678,0.1582,-0.0072
672,0.0,0.0,0.0,0.0,0.0,0.0,-0.2120,-0.9336,-0.3715,0.6353,-0.7559,0.1582,-0.0047
673,0.0,0.0,0.0,0.0,0.0,0.0,-0.2960,-0.9442,-0.3551,0.6438,-0.7480,0.1613,-0.0022
674,0.0,0.0,0.0,0.0,0.0,0.0,-0.2813,-0.9419,-0.3454,0.6433,-0.7480,0.1635,0.0022
675,0.0,0.0,0.0,0.0,0.0,0.0,-0.2257,-0.9215,-0.3580,0.6388,-0.7511,0.1665,0.0034
676,0.0,0.0,0.0,0.0,0.0,0.0,-0.1818,-0.9051,-0.3546,0.6329,-0.7553,0.1704,0.0022
677,0.0,0.0,0.0,0.0,0.0,0.0,-0.1653,-0.8964,-0.3443,0.6260,-0.7602,0.1737,0.0005
678,0.0,0.0,0.0,0.0,0.0,0.0,-0.1510,-0.8802,-0.3903,0.6166,-0.7671,0.1771,0.0013
679,0.0,0.0,0.0,0.0,0.0,0.0,-0.2141,-0.8866,-0.3478,0.6090,-0.7724,0.1800,0.0035
680,0.0,0.0,0.0,0.0,0.0,0.0,-0.1349,-0.9091,-0.3506,0.6042,-0.7768,0.1776,0.0058
681,0.0,0.0,0.0,0.0,0.0,0.0,-0.0870,-0.9458,-0.3894,0.5981,-0.7820,0.1751,0.0087
682,0.0,0.0,0.0,0.0,0.0,0.0,-0.1396,-0.9866,-0.3782,0.5941,-0.7851,0.1744,0.0120
683,0.0,0.0,0.0,0.0,0.0,0.0,-0.1363,-0.9340,-0.4016,0.5907,-0.7879,0.1738,0.0129
684,0.0,0.0,0.0,0.0,0.0,0.0,-0.1324,-0.8864,-0.4148,0.5880,-0.7901,0.1725,0.0142
685,0.0,0.0,0.0,0.0,0.0,0.0,-0.0568,-0.8680,-0.4145,0.5875,-0.7913,0.1689,0.0140
686,0.0,0.0,0.0,0.0,0.0,0.0,0.0130,-0.8649,-0.4007,0.5893,-0.7919,0.1593,0.0135
687,0.0,0.0,0.0,0.0,0.0,0.0,-0.0094,-0.9223,-0.3748,0.5972,-0.7886,0.1459,0.0158
688,0.0,0.0,0.0,0.0,0.0,0.0,-0.0816,-0.9389,-0.4083,0.6098,-0.7816,0.1296,0.0212
689,0.0,0.0,0.0,0.0,0.0,0.0,-0.2260,-0.9308,-0.4229,0.6177,-0.7772,0.1168,0.0290
690,0.0,0.0,0.0,0.0,0.0,0.0,-0.3394,-0.9475,-0.3647,0.6176,-0.7777,0.1095,0.0415
691,0.0,0.0,0.0,0.0,0.0,0.0,-0.3004,-0.9517,-0.3197,0.6136,-0.7811,0.1023,0.0544
692,0.0,0.0,0.0,0.0,0.0,0.0,-0.2100,-0.9296,-0.3875,0.6069,-0.7866,0.0940,0.0640
693,0.0,0.0,0.0,0.0,0.0,0.0,-0.1529,-0.9018,-0.4233,0.5995,-0.7928,0.0815,0.0733
694,0.0,0.0,0.0,0.0,0.0,0.0,-0.1465,-0.9073,-0.4069,0.5930,-0.7980,0.0672,0.0839
695,0.0,0.0,0.0,0.0,0.0,0.0,-0.1783,-0.8970,-0.4007,0.5889,-0.8011,0.0565,0.0906
696,0.0,0.0,0.0,0.0,0.0,0.0,-0.2135,-0.9057,-0.3972,0.5858,-0.8033,0.0514,0.0942
697,0.0,0.0,0.0,0.0,0.0,0.0,-0.2198,-0.9179,-0.3955,0.5840,-0.8044,0.0520,0.0963
698,0.0,0.0,0.0,0.0,0.0,0.0,-0.2115,-0.9335,-0.3909,0.5848,-0.8033,0.0566,0.0972
699,0.0,0.0,0.0,0.0,0.0,0.0,-0.2065,-0.9450,-0.4106,0.5870,-0.8014,0.0620,0.0968
700,0.0,0.0,0.0,0.0,0.0,0.0,-0.2324,-0.9694,-0.3827,0.5915,-0.7979,0.0677,0.0948
701,0.0,0.0,0.0,0.0,0.0,0.0,-0.2544,-0.9505,-0.3744,0.5983,-0.7927,0.0744,0.0898
702,0.0,0.0,0.0,0.0,0.0,0.0,-0.2217,-0.9130,-0.3978,0.6056,-0.7873,0.0800,0.0840
703,0.0,0.0,0.0,0.0,0.0,0.0,-0.1739,-0.8873,-0.4122,0.6106,-0.7834,0.0829,0.0809
704,0.0,0.0,0.0,0.0,0.0,0.0,-0.1872,-0.9055,-0.3590,0.6165,-0.7786,0.0908,0.0738
705,0.0,0.0,0.0,0.0,0.0,0.0,-0.2263,-0.8814,-0.3228,0.6253,-0.7707,0.1075,0.0593
706,0.0,0.0,0.0,0.0,0.0,0.0,-0.1578,-0.9054,-0.3936,0.6281,-0.7673,0.1195,0.0495
707,0.0,0.0,0.0,0.0,0.0,0.0,-0.1169,-0.9315,-0.3374,0.6289,-0.7657,0.1285,0.0415
708,0.0,0.0,0.0,0.0,0.0,0.0,-0.1617,-0.9664,-0.3368,0.6289,-0.7646,0.1366,0.0347
709,0.0,0.0,0.0,0.0,0.0,0.0,-0.1530,-0.9285,-0.3425,0.6286,-0.7645,0.1396,0.0319
710,0.0,0.0,0.0,0.0,0.0,0.0,-0.1564,-0.8944,-0.3672,0.6268,-0.7662,0.1379,0.0317
711,0.0,0.0,0.0,0.0,0.0,0.0,-0.1623,-0.8841,-0.3811,0.6229,-0.7704,0.1315,0.0354
712,0.0,0.0,0.0,0.0,0.0,0.0,-0.1428,-0.8676,-0.3799,0.6164,-0.7770,0.1201,0.0428
713,0.0,0.0,0.0,0.0,0.0,0.0,-0.1285,-0.9376,-0.3720,0.6099,-0.7834,0.1050,0.0574
714,0.0,0.0,0.0,0.0,0.0,0.0,-0.2481,-1.0531,-0.2601,0.6094,-0.7838,0.0994,0.0664
715,0.0,0.0,0.0,0.0,0.0,0.0,-0.2842,-1.0217,-0.3113,0.6099,-0.7831,0.1000,0.0694
716,0.0,0.0,0.0,0.0,0.0,0.0,-0.2374,-0.9166,-0.3652,0.6095,-0.7830,0.1002,0.0735
717,0.0,0.0,0.0,0.0,0.0,0.0,-0.1906,-0.8885,-0.3640,0.6096,-0.7828,0.0978,0.0781
718,0.0,0.0,0.0,0.0,0.0,0.0,-0.1456,-0.9166,-0.3954,0.6088,-0.7836,0.0933,0.0817
719,0.0,0.0,0.0,0.0,0.0,0.0,-0.1754,-0.9254,-0.3647,0.6110,-0.7821,0.0935,0.0789
720,0.0,0.0,0.0,0.0,0.0,0.0,-0.2600,-0.9265,-0.3171,0.6178,-0.7766,0.1010,0.0701
721,0.0,0.0,0.0,0.0,0.0,0.0,-0.2355,-0.9338,-0.3217,0.6244,-0.7702,0.1155,0.0588
722,0.0,0.0,0.0,0.0,0.0,0.0,-0.2204,-0.8866,-0.3502,0.6307,-0.7634,0.1325,0.0434
723,0.0,0.0,0.0,0.0,0.0,0.0,-0.1706,-0.8769,-0.3581,0.6327,-0.7599,0.1449,0.0369
724,0.0,0.0,0.0,0.0,0.0,0.0,-0.1818,-0.9289,-0.3448,0.6328,-0.7584,0.1533,0.0298
725,0.0,0.0,0.0,0.0,0.0,0.0,-0.2077,-0.9339,-0.3151,0.6314,-0.7586,0.1590,0.0248
726,0.0,0.0,0.0,0.0,0.0,0.0,-0.2126,-0.9344,-0.3136,0.6308,-0.7582,0.1637,0.0185
727,0.0,0.0,0.0,0.0,0.0,0.0,-0.2356,-0.9325,-0.3027,0.6307,-0.7567,0.1717,0.0155
728,0.0,0.0,0.0,0.0,0.0,0.0,-0.2282,-0.9374,-0.3048,0.6310,-0.7540,0.1824,0.0089
729,0.0,0.0,0.0,0.0,0.0,0.0,-0.2063,-0.9096,-0.3181,0.6307,-0.7529,0.1877,0.0068
730,0.0,0.0,0.0,0.0,0.0,0.0,-0.2077,-0.9101,-0.3239,0.6307,-0.7523,0.1904,0.0040
731,0.0,0.0,0.0,0.0,0.0,0.0,-0.2395,-0.9027,-0.3343,0.6305,-0.7527,0.1896,0.0062
732,0.0,0.0,0.0,0.0,0.0,0.0,-0.1960,-0.9363,-0.3225,0.6284,-0.7552,0.1864,0.0095
733,0.0,0.0,0.0,0.0,0.0,0.0,-0.1491,-0.9397,-0.3403,0.6259,-0.7576,0.1850,0.0108
734,0.0,0.0,0.0,0.0,0.0,0.0,-0.1887,-0.9466,-0.3086,0.6249,-0.7583,0.1854,0.0085
735,0.0,0.0,0.0,0.0,0.0,0.0,-0.1788,-0.9694,-0.3134,0.6234,-0.7599,0.1840,0.0087
736,0.0,0.0,0.0,0.0,0.0,0.0,-0.1642,-0.9494,-0.3317,0.6218,-0.7613,0.1835,0.0092
737,0.0,0.0,0.0,0.0,0.0,0.0,-0.1809,-0.9305,-0.3225,0.6219,-0.7614,0.1829,0.0095
738,0.0,0.0,0.0,0.0,0.0,0.0,-0.1882,-0.9179,-0.3271,0.6222,-0.7612,0.1825,0.0092
739,0.0,0.0,0.0,0.0,0.0,0.0,-0.1764,-0.9407,-0.3275,0.6232,-0.7606,0.1820,0.0089
740,0.0,0.0,0.0,0.0,0.0,0.0,-0.1867,-0.9313,-0.3497,0.6241,-0.7598,0.1819,0.0087
741,0.0,0.0,0.0,0.0,0.0,0.0,-0.2135,-0.9406,-0.3390,0.6243,-0.7594,0.1829,0.0075
742,0.0,0.0,0.0,0.0,0.0,0.0,-0.2042,-0.9542,-0.3349,0.6240,-0.7594,0.1845,0.0056
743,0.0,0.0,0.0,0.0,0.0,0.0,-0.2057,-0.9206,-0.3494,0.6238,-0.7589,0.1868,0.0032
744,0.0,0.0,0.0,0.0,0.0,0.0,-0.2335,-0.9172,-0.3506,0.6232,-0.7589,0.1887,0.0020
745,0.0,0.0,0.0,0.0,0.0,0.0,-0.2296,-0.9313,-0.3475,0.6213,-0.7602,0.1899,0.0020
746,0.0,0.0,0.0,0.0,0.0,0.0,-0.2150,-0.9303,-0.3456,0.6193,-0.7616,0.1908,0.0020
747,0.0,0.0,0.0,0.0,0.0,0.0,-0.1916,-0.9066,-0.3487,0.6178,-0.7630,0.1902,0.0021
748,0.0,0.0,0.0,0.0,0.0,0.0,-0.1798,-0.9168,-0.3534,0.6158,-0.7650,0.1885,0.0037
749,0.0,0.0,0.0,0.0,0.0,0.0,-0.1486,-0.9178,-0.3438,0.6149,-0.7665,0.1854,0.0041
750,0.0,0.0,0.0,0.0,0.0,0.0,-0.1256,-0.9192,-0.3595,0.6142,-0.7681,0.1807,0.0055
751,0.0,0.0,0.0,0.0,0.0,0.0,-0.1486,-0.9168,-0.3565,0.6137,-0.7698,0.1754,0.0073
752,0.0,0.0,0.0,0.0,0.0,0.0,-0.1368,-0.9269,-0.3723,0.6128,-0.7720,0.1686,0.0082
753,0.0,0.0,0.0,0.0,0.0,0.0,-0.1466,-0.9099,-0.3782,0.6119,-0.7744,0.1605,0.0103
754,0.0,0.0,0.0,0.0,0.0,0.0,-0.1354,-0.8651,-0.3984,0.6085,-0.7794,0.1481,0.0172
755,0.0,0.0,0.0,0.0,0.0,0.0,-0.1100,-0.8539,-0.4086,0.6029,-0.7865,0.1307,0.0293
756,0.0,0.0,0.0,0.0,0.0,0.0,-0.1442,-0.9098,-0.3826,0.5959,-0.7940,0.1118,0.0433
757,0.0,0.0,0.0,0.0,0.0,0.0,-0.2149,-0.9623,-0.3627,0.5898,-0.7997,0.0970,0.0567
758,0.0,0.0,0.0,0.0,0.0,0.0,-0.2447,-0.9711,-0.3452,0.5896,-0.8000,0.0905,0.0649
759,0.0,0.0,0.0,0.0,0.0,0.0,-0.2632,-0.9693,-0.3840,0.5909,-0.7989,0.0896,0.0683
760,0.0,0.0,0.0,0.0,0.0,0.0,-0.2250,-0.9663,-0.4080,0.5903,-0.7991,0.0877,0.0732
761,0.0,0.0,0.0,0.0,0.0,0.0,-0.2045,-0.9493,-0.4267,0.5890,-0.7997,0.0869,0.0767
762,0.0,0.0,0.0,0.0,0.0,0.0,-0.1939,-0.9067,-0.4076,0.5885,-0.8000,0.0873,0.0774
763,0.0,0.0,0.0,0.0,0.0,0.0,-0.1729,-0.8892,-0.4190,0.5875,-0.8009,0.0862,0.0776
764,0.0,0.0,0.0,0.0,0.0,0.0,-0.1543,-0.8974,-0.4276,0.5865,-0.8017,0.0838,0.0789
765,0.0,0.0,0.0,0.0,0.0,0.0,-0.1729,-0.9105,-0.4194,0.5877,-0.8008,0.0841,0.0792
766,0.0,0.0,0.0,0.0,0.0,0.0,-0.1880,-0.9072,-0.4095,0.5892,-0.7995,0.0877,0.0768
767,0.0,0.0,0.0,0.0,0.0,0.0,-0.1841,-0.8984,-0.4196,0.5902,-0.7986,0.0911,0.0750
768,0.0,0.0,0.0,0.0,0.0,0.0,-0.1885,-0.8935,-0.4229,0.5905,-0.7982,0.0935,0.0741
769,0.0,0.0,0.0,0.0,0.0,0.0,-0.1885,-0.8984,-0.4113,0.5902,-0.7984,0.0940,0.0734
770,0.0,0.0,0.0,0.0,0.0,0.0,-0.1806,-0.9299,-0.4328,0.5875,-0.8006,0.0903,0.0757
771,0.0,0.0,0.0,0.0,0.0,0.0,-0.1929,-0.8896,-0.4189,0.5859,-0.8019,0.0874,0.0776
772,0.0,0.0,0.0,0.0,0.0,0.0,-0.1764,-0.8770,-0.4222,0.5843,-0.8032,0.0840,0.0793
773,0.0,0.0,0.0,0.0,0.0,0.0,-0.1719,-0.9032,-0.4334,0.5818,-0.8052,0.0812,0.0805
774,0.0,0.0,0.0,0.0,0.0,0.0,-0.1885,-0.8998,-0.4264,0.5817,-0.8054,0.0820,0.0790
775,0.0,0.0,0.0,0.0,0.0,0.0,-0.2037,-0.8775,-0.4206,0.5843,-0.8035,0.0851,0.0755
776,0.0,0.0,0.0,0.0,0.0,0.0,-0.2129,-0.9075,-0.4235,0.5861,-0.8022,0.0876,0.0725
777,0.0,0.0,0.0,0.0,0.0,0.0,-0.1919,-0.9045,-0.4416,0.5855,-0.8027,0.0872,0.0723
778,0.0,0.0,0.0,0.0,0.0,0.0,-0.1505,-0.8448,-0.4519,0.5840,-0.8041,0.0837,0.0732
779,0.0,0.0,0.0,0.0,0.0,0.0,-0.1373,-0.8478,-0.4448,0.5825,-0.8056,0.0783,0.0744
780,0.0,0.0,0.0,0.0,0.0,0.0,-0.1549,-0.8712,-0.4310,0.5822,-0.8064,0.0731,0.0736
781,0.0,0.0,0.0,0.0,0.0,0.0,-0.1582,-0.8963,-0.4562,0.5804,-0.8082,0.0687,0.0722
782,0.0,0.0,0.0,0.0,0.0,0.0,-0.1636,-0.8773,-0.4515,0.5766,-0.8112,0.0659,0.0718
783,0.0,0.0,0.0,0.0,0.0,0.0,-0.1709,-0.8866,-0.4355,0.5712,-0.8151,0.0631,0.0730
784,0.0,0.0,0.0,0.0,0.0,0.0,-0.1762,-0.9284,-0.4314,0.5666,-0.8183,0.0605,0.0752
785,0.0,0.0,0.0,0.0,0.0,0.0,-0.1723,-0.9463,-0.4439,0.5634,-0.8205,0.0577,0.0777
786,0.0,0.0,0.0,0.0,0.0,0.0,-0.1919,-0.9196,-0.4404,0.5617,-0.8217,0.0558,0.0786
787,0.0,0.0,0.0,0.0,0.0,0.0,-0.1787,-0.9045,-0.4572,0.5599,-0.8231,0.0534,0.0791
788,0.0,0.0,0.0,0.0,0.0,0.0,-0.1792,-0.8719,-0.4610,0.5596,-0.8233,0.0525,0.0785
789,0.0,0.0,0.0,0.0,0.0,0.0,-0.1577,-0.8719,-0.4757,0.5594,-0.8235,0.0516,0.0793
790,0.0,0.0,0.0,0.0,0.0,0.0,-0.1362,-0.8908,-0.4771,0.5599,-0.8230,0.0532,0.0798
791,0.0,0.0,0.0,0.0,0.0,0.0,-0.1426,-0.8787,-0.4754,0.5625,-0.8216,0.0558,0.0743
792,0.0,0.0,0.0,0.0,0.0,0.0,-0.1547,-0.9040,-0.4603,0.5652,-0.8198,0.0581,0.0709
793,0.0,0.0,0.0,0.0,0.0,0.0,-0.1650,-0.8992,-0.4509,0.5698,-0.8167,0.0618,0.0672
794,0.0,0.0,0.0,0.0,0.0,0.0,-0.1631,-0.9153,-0.4371,0.5768,-0.8118,0.0659,0.0623
795,0.0,0.0,0.0,0.0,0.0,0.0,-0.1572,-0.9357,-0.4394,0.5832,-0.8073,0.0692,0.0583
796,0.0,0.0,0.0,0.0,0.0,0.0,-0.1499,-0.9538,-0.4135,0.5894,-0.8026,0.0715,0.0570
797,0.0,0.0,0.0,0.0,0.0,0.0,-0.1773,-0.9189,-0.3928,0.5984,-0.7958,0.0764,0.0529
798,0.0,0.0,0.0,0.0,0.0,0.0,-0.1612,-0.9292,-0.3795,0.6048,-0.7908,0.0813,0.0485
799,0.0,0.0,0.0,0.0,0.0,0.0,-0.1543,-0.9403,-0.3977,0.6072,-0.7885,0.0857,0.0467
800,0.0,0.0,0.0,0.0,0.0,0.0,-0.1901,-0.9039,-0.3822,0.6100,-0.7856,0.0939,0.0431
801,0.0,0.0,0.0,0.0,0.0,0.0,-0.1627,-0.9093,-0.3864,0.6112,-0.7841,0.1000,0.0400
802,0.0,0.0,0.0,0.0,0.0,0.0,-0.1564,-0.8860,-0.3943,0.6127,-0.7824,0.1056,0.0363
803,0.0,0.0,0.0,0.0,0.0,0.0,-0.1565,-0.8623,-0.3720,0.6145,-0.7804,0.1118,0.0308
804,0.0,0.0,0.0,0.0,0.0,0.0,-0.1471,-0.8977,-0.3829,0.6138,-0.7802,0.1175,0.0257
805,0.0,0.0,0.0,0.0,0.0,0.0,-0.0992,-0.8712,-0.4473,0.6095,-0.7834,0.1192,0.0241
806,0.0,0.0,0.0,0.0,0.0,0.0,-0.0724,-0.9433,-0.3364,0.6051,-0.7874,0.1153,0.0249
807,0.0,0.0,0.0,0.0,0.0,0.0,-0.1196,-1.0101,-0.3505,0.6024,-0.7898,0.1115,0.0281
808,0.0,0.0,0.0,0.0,0.0,0.0,-0.1759,-0.9201,-0.3554,0.6019,-0.7901,0.1122,0.0300
809,0.0,0.0,0.0,0.0,0.0,0.0,-0.1749,-0.9361,-0.3693,0.5993,-0.7921,0.1108,0.0336
810,0.0,0.0,0.0,0.0,0.0,0.0,-0.1788,-0.9184,-0.3938,0.5967,-0.7942,0.1082,0.0381
811,0.0,0.0,0.0,0.0,0.0,0.0,-0.1538,-0.9247,-0.4042,0.5940,-0.7965,0.1038,0.0447
812,0.0,0.0,0.0,0.0,0.0,0.0,-0.1495,-0.9014,-0.4067,0.5921,-0.7981,0.1004,0.0477
813,0.0,0.0,0.0,0.0,0.0,0.0,-0.1722,-0.8983,-0.2782,0.5926,-0.7981,0.0982,0.0470
814,0.0,0.0,0.0,0.0,0.0,0.0,-0.1700,-0.9145,-0.4122,0.5896,-0.8005,0.0965,0.0480
815,0.0,0.0,0.0,0.0,0.0,0.0,-0.1675,-0.8919,-0.4478,0.5845,-0.8041,0.0955,0.0520
816,0.0,0.0,0.0,0.0,0.0,0.0,-0.1338,-0.8965,-0.4194,0.5803,-0.8070,0.0927,0.0580
817,0.0,0.0,0.0,0.0,0.0,0.0,-0.1528,-0.9154,-0.4293,0.5781,-0.8086,0.0876,0.0653
818,0.0,0.0,0.0,0.0,0.0,0.0,-0.1895,-0.9124,-0.4276,0.5786,-0.8081,0.0834,0.0719
819,0.0,0.0,0.0,0.0,0.0,0.0,-0.2271,-0.9397,-0.3958,0.5811,-0.8063,0.0815,0.0752
820,0.0,0.0,0.0,0.0,0.0,0.0,-0.2373,-0.9494,-0.4022,0.5845,-0.8036,0.0807,0.0777
821,0.0,0.0,0.0,0.0,0.0,0.0,-0.2198,-0.9257,-0.3873,0.5910,-0.7986,0.0829,0.0777
822,0.0,0.0,0.0,0.0,0.0,0.0,-0.2204,-0.8880,-0.3657,0.6023,-0.7899,0.0904,0.0710
823,0.0,0.0,0.0,0.0,0.0,0.0,-0.1934,-0.9229,-0.3840,0.6111,-0.7831,0.0982,0.0611
824,0.0,0.0,0.0,0.0,0.0,0.0,-0.1563,-0.8941,-0.4124,0.6162,-0.7788,0.1049,0.0534
825,0.0,0.0,0.0,0.0,0.0,0.0,-0.1462,-0.8480,-0.4170,0.6173,-0.7774,0.1110,0.0479
826,0.0,0.0,0.0,0.0,0.0,0.0,-0.1178,-0.9080,-0.3730,0.6165,-0.7779,0.1132,0.0456
827,0.0,0.0,0.0,0.0,0.0,0.0,-0.1276,-0.8935,-0.3620,0.6160,-0.7783,0.1134,0.0449
828,0.0,0.0,0.0,0.0,0.0,0.0,-0.1637,-0.9206,-0.3676,0.6146,-0.7792,0.1136,0.0460
829,0.0,0.0,0.0,0.0,0.0,0.0,-0.1563,-0.9229,-0.3803,0.6131,-0.7805,0.1122,0.0480
830,0.0,0.0,0.0,0.0,0.0,0.0,-0.1757,-1.0419,-0.3707,0.6113,-0.7822,0.1092,0.0509
831,0.0,0.0,0.0,0.0,0.0,0.0,-0.1998,-0.9322,-0.3671,0.6081,-0.7847,0.1062,0.0563
832,0.0,0.0,0.0,0.0,0.0,0.0,-0.1588,-0.9006,-0.3760,0.6066,-0.7862,0.1012,0.0609
833,0.0,0.0,0.0,0.0,0.0,0.0,-0.1633,-0.8769,-0.3688,0.6072,-0.7862,0.0951,0.0651
834,0.0,0.0,0.0,0.0,0.0,0.0,-0.1622,-0.9103,-0.3752,0.6094,-0.7848,0.0874,0.0703
835,0.0,0.0,0.0,0.0,0.0,0.0,-0.1739,-0.9355,-0.3873,0.6123,-0.7829,0.0805,0.0753
836,0.0,0.0,0.0,0.0,0.0,0.0,-0.2100,-0.9448,-0.3654,0.6153,-0.7808,0.0773,0.0765
837,0.0,0.0,0.0,0.0,0.0,0.0,-0.2110,-0.9419,-0.3536,0.6154,-0.7809,0.0778,0.0737
838,0.0,0.0,0.0,0.0,0.0,0.0,-0.2056,-0.9492,-0.3591,0.6115,-0.7841,0.0777,0.0717
839,0.0,0.0,0.0,0.0,0.0,0.0,-0.2041,-0.9598,-0.3768,0.6023,-0.7912,0.0782,0.0712
840,0.0,0.0,0.0,0.0,0.0,0.0,-0.1145,-0.8712,-0.3588,0.6002,-0.7932,0.0717,0.0738
841,0.0,0.0,0.0,0.0,0.0,0.0,-0.2344,-0.9735,-0.3399,0.5976,-0.7955,0.0687,0.0735
842,0.0,0.0,0.0,0.0,0.0,0.0,-0.1963,-0.9719,-0.3737,0.5947,-0.7976,0.0654,0.0767
843,0.0,0.0,0.0,0.0,0.0,0.0,-0.1944,-0.9361,-0.3663,0.5950,-0.7974,0.0655,0.0763
844,0.0,0.0,0.0,0.0,0.0,0.0,-0.2125,-0.9201,-0.3566,0.5967,-0.7961,0.0682,0.0744
845,0.0,0.0,0.0,0.0,0.0,0.0,-0.1895,-0.9535,-0.3676,0.5986,-0.7946,0.0725,0.0715
846,0.0,0.0,0.0,0.0,0.0,0.0,-0.1724,-0.9715,-0.3816,0.6028,-0.7913,0.0799,0.0644
847,0.0,0.0,0.0,0.0,0.0,0.0,-0.1925,-0.9332,-0.3589,0.6096,-0.7856,0.0913,0.0534
848,0.0,0.0,0.0,0.0,0.0,0.0,-0.2140,-0.9026,-0.3519,0.6184,-0.7777,0.1063,0.0389
849,0.0,0.0,0.0,0.0,0.0,0.0,-0.1500,-0.9439,-0.3701,0.6234,-0.7725,0.1175,0.0287
850,0.0,0.0,0.0,0.0,0.0,0.0,-0.1393,-0.9303,-0.3694,0.6263,-0.7686,0.1288,0.0191
851,0.0,0.0,0.0,0.0,0.0,0.0,-0.1950,-0.8910,-0.3460,0.6284,-0.7645,0.1437,0.0080
852,0.0,0.0,0.0,0.0,0.0,0.0,-0.1975,-0.9061,-0.3453,0.6269,-0.7628,0.1586,-0.0006
853,0.0,0.0,0.0,0.0,0.0,0.0,-0.1794,-0.8949,-0.3535,0.6232,-0.7632,0.1704,-0.0054
854,0.0,0.0,0.0,0.0,0.0,0.0,-0.1110,-0.9086,-0.3628,0.6191,-0.7650,0.1775,-0.0074
855,0.0,0.0,0.0,0.0,0.0,0.0,-0.1119,-0.9142,-0.3907,0.6155,-0.7671,0.1808,-0.0070
856,0.0,0.0,0.0,0.0,0.0,0.0,-0.0778,-0.9095,-0.3849,0.6120,-0.7703,0.1790,-0.0072
857,0.0,0.0,0.0,0.0,0.0,0.0,-0.0929,-0.9109,-0.3883,0.6073,-0.7744,0.1770,-0.0088
858,0.0,0.0,0.0,0.0,0.0,0.0,-0.1178,-0.9328,-0.3589,0.6041,-0.7775,0.1747,-0.0083
859,0.0,0.0,0.0,0.0,0.0,0.0,-0.1289,-0.9589,-0.3806,0.6019,-0.7795,0.1736,-0.0078
860,0.0,0.0,0.0,0.0,0.0,0.0,-0.1641,-0.9234,-0.3837,0.6004,-0.7802,0.1754,-0.0090
861,0.0,0.0,0.0,0.0,0.0,0.0,-0.1793,-0.9433,-0.3708,0.6001,-0.7801,0.1770,-0.0100
862,0.0,0.0,0.0,0.0,0.0,0.0,-0.1885,-0.9448,-0.3767,0.6006,-0.7793,0.1783,-0.0118
863,0.0,0.0,0.0,0.0,0.0,0.0,-0.1983,-0.9248,-0.3762,0.6008,-0.7791,0.1787,-0.0125
864,0.0,0.0,0.0,0.0,0.0,0.0,-0.1505,-0.9259,-0.3795,0.6010,-0.7797,0.1755,-0.0105
865,0.0,0.0,0.0,0.0,0.0,0.0,-0.1158,-0.9229,-0.3918,0.6010,-0.7811,0.1691,-0.0075
866,0.0,0.0,0.0,0.0,0.0,0.0,-0.1158,-0.8942,-0.4044,0.6011,-0.7824,0.1626,-0.0046
867,0.0,0.0,0.0,0.0,0.0,0.0,-0.1290,-0.8967,-0.3859,0.6007,-0.7841,0.1560,0.0001
868,0.0,0.0,0.0,0.0,0.0,0.0,-0.1261,-0.8893,-0.4072,0.5997,-0.7864,0.1480,0.0077
869,0.0,0.0,0.0,0.0,0.0,0.0,-0.1192,-0.8634,-0.4335,0.5978,-0.7896,0.1373,0.0165
870,0.0,0.0,0.0,0.0,0.0,0.0,-0.1246,-0.8560,-0.4630,0.5929,-0.7954,0.1230,0.0282
871,0.0,0.0,0.0,0.0,0.0,0.0,-0.1217,-0.8680,-0.3971,0.5880,-0.8008,0.1070,0.0392
872,0.0,0.0,0.0,0.0,0.0,0.0,-0.1218,-0.9726,-0.2963,0.5899,-0.8007,0.0923,0.0490
873,0.0,0.0,0.0,0.0,0.0,0.0,-0.1638,-0.9668,-0.5031,0.5867,-0.8037,0.0797,0.0595
874,0.0,0.0,0.0,0.0,0.0,0.0,-0.2373,-0.9992,-0.3516,0.5847,-0.8052,0.0776,0.0612
875,0.0,0.0,0.0,0.0,0.0,0.0,-0.2124,-0.9612,-0.3773,0.5834,-0.8061,0.0772,0.0626
876,0.0,0.0,0.0,0.0,0.0,0.0,-0.1851,-0.9163,-0.4253,0.5824,-0.8066,0.0774,0.0651
877,0.0,0.0,0.0,0.0,0.0,0.0,-0.1709,-0.9255,-0.4265,0.5822,-0.8065,0.0782,0.0662
878,0.0,0.0,0.0,0.0,0.0,0.0,-0.1518,-0.9255,-0.4417,0.5821,-0.8066,0.0771,0.0685
879,0.0,0.0,0.0,0.0,0.0,0.0,-0.1558,-0.9222,-0.4231,0.5841,-0.8052,0.0770,0.0669
880,0.0,0.0,0.0,0.0,0.0,0.0,-0.1660,-0.9202,-0.4235,0.5868,-0.8034,0.0789,0.0627
881,0.0,0.0,0.0,0.0,0.0,0.0,-0.1455,-0.9139,-0.4255,0.5897,-0.8013,0.0822,0.0586
882,0.0,0.0,0.0,0.0,0.0,0.0,-0.1572,-0.9266,-0.4183,0.5923,-0.7990,0.0884,0.0540
883,0.0,0.0,0.0,0.0,0.0,0.0,-0.1523,-0.9325,-0.4126,0.5939,-0.7974,0.0950,0.0494
884,0.0,0.0,0.0,0.0,0.0,0.0,-0.1748,-0.9286,-0.3993,0.5967,-0.7947,0.1034,0.0428
885,0.0,0.0,0.0,0.0,0.0,0.0,-0.1769,-0.8865,-0.3864,0.6007,-0.7909,0.1109,0.0372
886,0.0,0.0,0.0,0.0,0.0,0.0,-0.1300,-0.8956,-0.4131,0.6015,-0.7901,0.1120,0.0370
887,0.0,0.0,0.0,0.0,0.0,0.0,-0.1207,-0.9234,-0.3990,0.6034,-0.7888,0.1112,0.0372
888,0.0,0.0,0.0,0.0,0.0,0.0,-0.1221,-0.9229,-0.4029,0.6045,-0.7882,0.1087,0.0383
889,0.0,0.0,0.0,0.0,0.0,0.0,-0.1216,-0.9004,-0.4190,0.6020,-0.7905,0.1037,0.0435
890,0.0,0.0,0.0,0.0,0.0,0.0,-0.1134,-0.8396,-0.4438,0.5959,-0.7956,0.0968,0.0517
891,0.0,0.0,0.0,0.0,0.0,0.0,-0.1399,-0.8307,-0.3910,0.5906,-0.7996,0.0906,0.0601
892,0.0,0.0,0.0,0.0,0.0,0.0,-0.1138,-0.8780,-0.4347,0.5849,-0.8041,0.0810,0.0695
893,0.0,0.0,0.0,0.0,0.0,0.0,-0.1325,-0.8196,-0.4477,0.5818,-0.8067,0.0736,0.0726
894,0.0,0.0,0.0,0.0,0.0,0.0,-0.1453,-0.7916,-0.4321,0.5798,-0.8087,0.0663,0.0741
895,0.0,0.0,0.0,0.0,0.0,0.0,-0.1309,-0.8789,-0.4483,0.5734,-0.8136,0.0544,0.0793
896,0.0,0.0,0.0,0.0,0.0,0.0,-0.1352,-0.9747,-0.4237,0.5667,-0.8184,0.0419,0.0855
897,0.0,0.0,0.0,0.0,0.0,0.0,-0.2131,-1.0811,-0.3882,0.5639,-0.8204,0.0376,0.0864
898,0.0,0.0,0.0,0.0,0.0,0.0,-0.2484,-0.9895,-0.4218,0.5647,-0.8200,0.0416,0.0833
899,0.0,0.0,0.0,0.0,0.0,0.0,-0.2790,-0.8825,-0.3634,0.5701,-0.8164,0.0518,0.0761
900,0.0,0.0,0.0,0.0,0.0,0.0,-0.2554,-0.9189,-0.3783,0.5779,-0.8110,0.0633,0.0654
901,0.0,0.0,0.0,0.0,0.0,0.0,-0.1767,-0.9697,-0.4243,0.5871,-0.8043,0.0725,0.0560
902,0.0,0.0,0.0,0.0,0.0,0.0,-0.1763,-0.8935,-0.4201,0.6009,-0.7936,0.0852,0.0434
903,0.0,0.0,0.0,0.0,0.0,0.0,-0.1794,-0.8792,-0.3843,0.6125,-0.7837,0.0991,0.0278
904,0.0,0.0,0.0,0.0,0.0,0.0,-0.1651,-0.9302,-0.3746,0.6189,-0.7770,0.1138,0.0152
905,0.0,0.0,0.0,0.0,0.0,0.0,-0.0928,-0.9491,-0.4089,0.6191,-0.7752,0.1249,0.0128
906,0.0,0.0,0.0,0.0,0.0,0.0,-0.0812,-0.8876,-0.3792,0.6184,-0.7739,0.1357,0.0111
907,0.0,0.0,0.0,0.0,0.0,0.0,-0.1208,-0.9257,-0.3412,0.6173,-0.7731,0.1456,0.0072
908,0.0,0.0,0.0,0.0,0.0,0.0,-0.1407,-0.9523,-0.3420,0.6165,-0.7727,0.1511,0.0027
909,0.0,0.0,0.0,0.0,0.0,0.0,-0.1319,-0.9323,-0.3704,0.6157,-0.7727,0.1542,0.0013
910,0.0,0.0,0.0,0.0,0.0,0.0,-0.1451,-0.9157,-0.3686,0.6163,-0.7725,0.1532,0.0030
911,0.0,0.0,0.0,0.0,0.0,0.0,-0.1427,-0.9154,-0.3516,0.6181,-0.7721,0.1478,0.0074
912,0.0,0.0,0.0,0.0,0.0,0.0,-0.1242,-0.9178,-0.3556,0.6191,-0.7726,0.1399,0.0133
913,0.0,0.0,0.0,0.0,0.0,0.0,-0.1305,-0.9246,-0.3484,0.6203,-0.7727,0.1335,0.0173
914,0.0,0.0,0.0,0.0,0.0,0.0,-0.1397,-0.9439,-0.3682,0.6206,-0.7733,0.1281,0.0218
915,0.0,0.0,0.0,0.0,0.0,0.0,-0.1715,-0.9308,-0.3605,0.6206,-0.7737,0.1247,0.0267
916,0.0,0.0,0.0,0.0,0.0,0.0,-0.1686,-0.9349,-0.3333,0.6196,-0.7749,0.1211,0.0304
917,0.0,0.0,0.0,0.0,0.0,0.0,-0.1529,-0.9464,-0.3623,0.6180,-0.7768,0.1156,0.0347
918,0.0,0.0,0.0,0.0,0.0,0.0,-0.1617,-0.9176,-0.3720,0.6166,-0.7786,0.1095,0.0393
919,0.0,0.0,0.0,0.0,0.0,0.0,-0.1442,-0.9255,-0.3634,0.6150,-0.7806,0.1026,0.0425
920,0.0,0.0,0.0,0.0,0.0,0.0,-0.1427,-0.9328,-0.3616,0.6135,-0.7826,0.0962,0.0445
921,0.0,0.0,0.0,0.0,0.0,0.0,-0.1407,-0.9560,-0.3747,0.6111,-0.7849,0.0904,0.0476
922,0.0,0.0,0.0,0.0,0.0,0.0,-0.1657,-0.9275,-0.3527,0.6102,-0.7858,0.0885,0.0488
923,0.0,0.0,0.0,0.0,0.0,0.0,-0.1505,-0.9279,-0.3605,0.6091,-0.7868,0.0865,0.0498
924,0.0,0.0,0.0,0.0,0.0,0.0,-0.1612,-0.9396,-0.3514,0.6082,-0.7876,0.0850,0.0507
925,0.0,0.0,0.0,0.0,0.0,0.0,-0.1426,-0.9565,-0.3805,0.6065,-0.7891,0.0820,0.0532
926,0.0,0.0,0.0,0.0,0.0,0.0,-0.1363,-0.9171,-0.3862,0.6043,-0.7910,0.0772,0.0566
927,0.0,0.0,0.0,0.0,0.0,0.0,-0.1574,-0.9231,-0.3551,0.6037,-0.7917,0.0729,0.0585
928,0.0,0.0,0.0,0.0,0.0,0.0,-0.1543,-0.9492,-0.3764,0.6020,-0.7931,0.0687,0.0621
929,0.0,0.0,0.0,0.0,0.0,0.0,-0.1280,-0.9511,-0.3883,0.6003,-0.7945,0.0656,0.0646
930,0.0,0.0,0.0,0.0,0.0,0.0,-0.1612,-0.9332,-0.3761,0.6001,-0.7946,0.0661,0.0636
931,0.0,0.0,0.0,0.0,0.0,0.0,-0.1485,-0.9360,-0.3850,0.5991,-0.7953,0.0653,0.0661
932,0.0,0.0,0.0,0.0,0.0,0.0,-0.1524,-0.9370,-0.3796,0.5983,-0.7957,0.0642,0.0689
933,0.0,0.0,0.0,0.0,0.0,0.0,-0.1582,-0.9448,-0.3817,0.5983,-0.7957,0.0634,0.0700
934,0.0,0.0,0.0,0.0,0.0,0.0,-0.1836,-0.9575,-0.3618,0.5997,-0.7943,0.0652,0.0719
935,0.0,0.0,0.0,0.0,0.0,0.0,-0.1885,-0.9569,-0.3686,0.6011,-0.7931,0.0652,0.0736
936,0.0,0.0,0.0,0.0,0.0,0.0,-0.1978,-0.9418,-0.3882,0.6016,-0.7925,0.0677,0.0739
937,0.0,0.0,0.0,0.0,0.0,0.0,-0.2096,-0.9107,-0.3808,0.6033,-0.7908,0.0743,0.0713
938,0.0,0.0,0.0,0.0,0.0,0.0,-0.1945,-0.9001,-0.3797,0.6059,-0.7884,0.0818,0.0686
939,0.0,0.0,0.0,0.0,0.0,0.0,-0.1784,-0.8851,-0.3645,0.6091,-0.7855,0.0886,0.0644
940,0.0,0.0,0.0,0.0,0.0,0.0,-0.1778,-0.9171,-0.3787,0.6123,-0.7827,0.0948,0.0595
941,0.0,0.0,0.0,0.0,0.0,0.0,-0.1970,-0.9012,-0.3447,0.6179,-0.7777,0.1032,0.0514
942,0.0,0.0,0.0,0.0,0.0,0.0,-0.1705,-0.9060,-0.3727,0.6192,-0.7764,0.1070,0.0489
943,0.0,0.0,0.0,0.0,0.0,0.0,-0.1271,-0.9015,-0.3962,0.6184,-0.7770,0.1076,0.0485
944,0.0,0.0,0.0,0.0,0.0,0.0,-0.1374,-0.8657,-0.3721,0.6180,-0.7772,0.1087,0.0479
945,0.0,0.0,0.0,0.0,0.0,0.0,-0.1560,-0.8834,-0.3373,0.6172,-0.7778,0.1085,0.0484
946,0.0,0.0,0.0,0.0,0.0,0.0,-0.1603,-0.9342,-0.3596,0.6158,-0.7789,0.1077,0.0502
947,0.0,0.0,0.0,0.0,0.0,0.0,-0.1632,-0.9255,-0.3492,0.6161,-0.7785,0.1084,0.0508
948,0.0,0.0,0.0,0.0,0.0,0.0,-0.1764,-0.9352,-0.3513,0.6159,-0.7787,0.1077,0.0525
949,0.0,0.0,0.0,0.0,0.0,0.0,-0.2008,-0.9363,-0.3264,0.6170,-0.7778,0.1068,0.0549
950,0.0,0.0,0.0,0.0,0.0,0.0,-0.2179,-0.9523,-0.3285,0.6179,-0.7770,0.1060,0.0573
951,0.0,0.0,0.0,0.0,0.0,0.0,-0.2067,-0.9323,-0.3399,0.6185,-0.7764,0.1054,0.0590
952,0.0,0.0,0.0,0.0,0.0,0.0,-0.2033,-0.9163,-0.3474,0.6188,-0.7761,0.1058,0.0591
953,0.0,0.0,0.0,0.0,0.0,0.0,-0.1720,-0.9240,-0.3628,0.6186,-0.7763,0.1057,0.0599
954,0.0,0.0,0.0,0.0,0.0,0.0,-0.1739,-0.9269,-0.3604,0.6181,-0.7766,0.1070,0.0587
955,0.0,0.0,0.0,0.0,0.0,0.0,-0.1896,-0.9313,-0.3531,0.6169,-0.7773,0.1091,0.0574
956,0.0,0.0,0.0,0.0,0.0,0.0,-0.1935,-0.9099,-0.3575,0.6156,-0.7781,0.1109,0.0576
957,0.0,0.0,0.0,0.0,0.0,0.0,-0.1881,-0.9108,-0.3722,0.6130,-0.7800,0.1106,0.0600
958,0.0,0.0,0.0,0.0,0.0,0.0,-0.1793,-0.9186,-0.3758,0.6096,-0.7827,0.1079,0.0640
959,0.0,0.0,0.0,0.0,0.0,0.0,-0.1788,-0.9089,-0.3707,0.6066,-0.7853,0.1043,0.0666
960,0.0,0.0,0.0,0.0,0.0,0.0,-0.1641,-0.9048,-0.3989,0.6018,-0.7894,0.0993,0.0697
961,0.0,0.0,0.0,0.0,0.0,0.0,-0.1788,-0.9063,-0.3965,0.5977,-0.7928,0.0960,0.0712
962,0.0,0.0,0.0,0.0,0.0,0.0,-0.1925,-0.8926,-0.4049,0.5945,-0.7954,0.0940,0.0720
963,0.0,0.0,0.0,0.0,0.0,0.0,-0.1939,-0.8891,-0.4248,0.5901,-0.7987,0.0917,0.0736
964,0.0,0.0,0.0,0.0,0.0,0.0,-0.1856,-0.8989,-0.4080,0.5868,-0.8013,0.0897,0.0750
965,0.0,0.0,0.0,0.0,0.0,0.0,-0.1895,-0.8979,-0.4230,0.5832,-0.8040,0.0868,0.0766
966,0.0,0.0,0.0,0.0,0.0,0.0,-0.2026,-0.9451,-0.3994,0.5802,-0.8062,0.0823,0.0810
967,0.0,0.0,0.0,0.0,0.0,0.0,-0.2153,-0.9343,-0.4089,0.5800,-0.8063,0.0787,0.0847
968,0.0,0.0,0.0,0.0,0.0,0.0,-0.2422,-0.9226,-0.4085,0.5813,-0.8054,0.0775,0.0863
969,0.0,0.0,0.0,0.0,0.0,0.0,-0.2364,-0.8998,-0.4067,0.5846,-0.8028,0.0780,0.0878
970,0.0,0.0,0.0,0.0,0.0,0.0,-0.2115,-0.8917,-0.3989,0.5873,-0.8006,0.0787,0.0891
971,0.0,0.0,0.0,0.0,0.0,0.0,-0.1944,-0.9071,-0.4231,0.5900,-0.7985,0.0800,0.0887
972,0.0,0.0,0.0,0.0,0.0,0.0,-0.2017,-0.9183,-0.4145,0.5926,-0.7966,0.0826,0.0865
973,0.0,0.0,0.0,0.0,0.0,0.0,-0.2154,-0.9101,-0.3905,0.5957,-0.7942,0.0857,0.0839
974,0.0,0.0,0.0,0.0,0.0,0.0,-0.2144,-0.9145,-0.4017,0.5977,-0.7925,0.0885,0.0830
975,0.0,0.0,0.0,0.0,0.0,0.0,-0.1905,-0.9077,-0.4032,0.5990,-0.7913,0.0905,0.0835
976,0.0,0.0,0.0,0.0,0.0,0.0,-0.1871,-0.8864,-0.3980,0.6003,-0.7901,0.0928,0.0819
977,0.0,0.0,0.0,0.0,0.0,0.0,-0.1793,-0.8757,-0.4027,0.6010,-0.7896,0.0939,0.0801
978,0.0,0.0,0.0,0.0,0.0,0.0,-0.1793,-0.8873,-0.4054,0.6007,-0.7899,0.0936,0.0801
979,0.0,0.0,0.0,0.0,0.0,0.0,-0.1822,-0.9053,-0.3984,0.6001,-0.7904,0.0936,0.0801
980,0.0,0.0,0.0,0.0,0.0,0.0,-0.1905,-0.9107,-0.3906,0.5998,-0.7907,0.0943,0.0789
981,0.0,0.0,0.0,0.0,0.0,0.0,-0.1915,-0.9155,-0.3902,0.6000,-0.7906,0.0947,0.0775
982,0.0,0.0,0.0,0.0,0.0,0.0,-0.2012,-0.9238,-0.3893,0.6006,-0.7901,0.0954,0.0765
983,0.0,0.0,0.0,0.0,0.0,0.0,-0.2095,-0.9194,-0.3878,0.6010,-0.7898,0.0964,0.0760
984,0.0,0.0,0.0,0.0,0.0,0.0,-0.1998,-0.9102,-0.3930,0.6012,-0.7895,0.0968,0.0763
985,0.0,0.0,0.0,0.0,0.0,0.0,-0.1886,-0.8995,-0.3977,0.6012,-0.7896,0.0957,0.0772
986,0.0,0.0,0.0,0.0,0.0,0.0,-0.1852,-0.8985,-0.3929,0.6015,-0.7896,0.0941,0.0771
987,0.0,0.0,0.0,0.0,0.0,0.0,-0.1978,-0.9160,-0.3960,0.6012,-0.7900,0.0923,0.0770
988,0.0,0.0,0.0,0.0,0.0,0.0,-0.1895,-0.9053,-0.3964,0.6008,-0.7906,0.0902,0.0766
989,0.0,0.0,0.0,0.0,0.0,0.0,-0.2061,-0.9116,-0.3886,0.6006,-0.7909,0.0889,0.0770
990,0.0,0.0,0.0,0.0,0.0,0.0,-0.2223,-0.9054,-0.3714,0.6016,-0.7902,0.0887,0.0770
991,0.0,0.0,0.0,0.0,0.0,0.0,-0.2130,-0.9190,-0.3780,0.6015,-0.7902,0.0876,0.0772
992,0.0,0.0,0.0,0.0,0.0,0.0,-0.2110,-0.9253,-0.3704,0.6018,-0.7901,0.0865,0.0777
993,0.0,0.0,0.0,0.0,0.0,0.0,-0.2017,-0.9253,-0.3762,0.6017,-0.7904,0.0847,0.0777
994,0.0,0.0,0.0,0.0,0.0,0.0,-0.2032,-0.9233,-0.3815,0.6014,-0.7907,0.0827,0.0786
995,0.0,0.0,0.0,0.0,0.0,0.0,-0.1964,-0.9127,-0.3770,0.6014,-0.7908,0.0810,0.0800
996,0.0,0.0,0.0,0.0,0.0,0.0,-0.1827,-0.9141,-0.3864,0.5999,-0.7920,0.0785,0.0819
997,0.0,0.0,0.0,0.0,0.0,0.0,-0.1798,-0.9073,-0.3931,0.5984,-0.7933,0.0769,0.0817
998,0.0,0.0,0.0,0.0,0.0,0.0,-0.1749,-0.8941,-0.4074,0.5966,-0.7949,0.0751,0.0807
999,0.0,0.0,0.0,0.0,0.0,0.0,-0.1676,-0.8751,-0.4266,0.5938,-0.7973,0.0721,0.0803
1000,0.0,0.0,0.0,0.0,0.0,0.0,-0.1817,-0.9004,-0.3997,0.5907,-0.7999,0.0692,0.0803
1001,0.0,0.0,0.0,0.0,0.0,0.0,-0.1714,-0.9647,-0.3693,0.5876,-0.8024,0.0643,0.0822
1002,0.0,0.0,0.0,0.0,0.0,0.0,-0.2026,-1.0109,-0.3510,0.5873,-0.8027,0.0625,0.0832
1003,0.0,0.0,0.0,0.0,0.0,0.0,-0.2280,-0.9792,-0.3688,0.5893,-0.8010,0.0639,0.0836
1004,0.0,0.0,0.0,0.0,0.0,0.0,-0.2154,-0.9315,-0.3879,0.5915,-0.7993,0.0655,0.0836
1005,0.0,0.0,0.0,0.0,0.0,0.0,-0.2106,-0.8971,-0.3903,0.5936,-0.7976,0.0669,0.0829
1006,0.0,0.0,0.0,0.0,0.0,0.0,-0.1915,-0.9019,-0.3895,0.5959,-0.7958,0.0672,0.0844
1007,0.0,0.0,0.0,0.0,0.0,0.0,-0.1783,-0.8975,-0.4065,0.5973,-0.7946,0.0667,0.0866
1008,0.0,0.0,0.0,0.0,0.0,0.0,-0.1681,-0.8908,-0.4001,0.5982,-0.7939,0.0661,0.0869
1009,0.0,0.0,0.0,0.0,0.0,0.0,-0.1788,-0.8893,-0.3928,0.5991,-0.7934,0.0671,0.0846
1010,0.0,0.0,0.0,0.0,0.0,0.0,-0.1798,-0.8976,-0.3948,0.5984,-0.7938,0.0678,0.0850
1011,0.0,0.0,0.0,0.0,0.0,0.0,-0.1705,-0.9107,-0.3907,0.5967,-0.7950,0.0682,0.0857
1012,0.0,0.0,0.0,0.0,0.0,0.0,-0.1734,-0.9146,-0.3937,0.5948,-0.7964,0.0686,0.0849
1013,0.0,0.0,0.0,0.0,0.0,0.0,-0.1783,-0.9029,-0.3910,0.5937,-0.7974,0.0683,0.0837
1014,0.0,0.0,0.0,0.0,0.0,0.0,-0.1773,-0.9101,-0.4038,0.5916,-0.7990,0.0660,0.0847
1015,0.0,0.0,0.0,0.0,0.0,0.0,-0.1788,-0.9126,-0.4034,0.5891,-0.8010,0.0631,0.0860
1016,0.0,0.0,0.0,0.0,0.0,0.0,-0.1871,-0.9097,-0.3936,0.5879,-0.8020,0.0616,0.0858
1017,0.0,0.0,0.0,0.0,0.0,0.0,-0.2042,-0.8960,-0.3971,0.5870,-0.8028,0.0623,0.0846
1018,0.0,0.0,0.0,0.0,0.0,0.0,-0.1822,-0.8882,-0.4233,0.5844,-0.8047,0.0631,0.0837
1019,0.0,0.0,0.0,0.0,0.0,0.0,-0.1558,-0.8852,-0.4341,0.5813,-0.8071,0.0633,0.0820
1020,0.0,0.0,0.0,0.0,0.0,0.0,-0.1504,-0.8852,-0.4434,0.5777,-0.8099,0.0627,0.0800
1021,0.0,0.0,0.0,0.0,0.0,0.0,-0.1504,-0.8871,-0.4410,0.5741,-0.8127,0.0610,0.0786
1022,0.0,0.0,0.0,0.0,0.0,0.0,-0.1660,-0.8924,-0.4425,0.5705,-0.8155,0.0589,0.0772
1023,0.0,0.0,0.0,0.0,0.0,0.0,-0.1660,-0.8953,-0.4435,0.5669,-0.8183,0.0566,0.0765
1024,0.0,0.0,0.0,0.0,0.0,0.0,-0.1670,-0.8929,-0.4473,0.5643,-0.8203,0.0553,0.0750
1025,0.0,0.0,0.0,0.0,0.0,0.0,-0.1660,-0.8890,-0.4560,0.5619,-0.8221,0.0543,0.0739
1026,0.0,0.0,0.0,0.0,0.0,0.0,-0.1572,-0.8977,-0.4543,0.5608,-0.8231,0.0540,0.0714
1027,0.0,0.0,0.0,0.0,0.0,0.0,-0.1572,-0.9055,-0.4603,0.5609,-0.8232,0.0542,0.0695
1028,0.0,0.0,0.0,0.0,0.0,0.0,-0.1499,-0.9030,-0.4637,0.5613,-0.8230,0.0541,0.0691
1029,0.0,0.0,0.0,0.0,0.0,0.0,-0.1503,-0.9103,-0.4696,0.5613,-0.8229,0.0536,0.0696
1030,0.0,0.0,0.0,0.0,0.0,0.0,-0.1640,-0.9040,-0.4578,0.5624,-0.8221,0.0539,0.0698
1031,0.0,0.0,0.0,0.0,0.0,0.0,-0.1675,-0.8923,-0.4575,0.5641,-0.8209,0.0550,0.0697
1032,0.0,0.0,0.0,0.0,0.0,0.0,-0.1435,-0.8860,-0.4712,0.5645,-0.8205,0.0547,0.0708
1033,0.0,0.0,0.0,0.0,0.0,0.0,-0.1347,-0.8962,-0.4700,0.5651,-0.8202,0.0543,0.0704
1034,0.0,0.0,0.0,0.0,0.0,0.0,-0.1420,-0.9050,-0.4613,0.5657,-0.8198,0.0539,0.0708
1035,0.0,0.0,0.0,0.0,0.0,0.0,-0.1523,-0.8982,-0.4529,0.5666,-0.8192,0.0542,0.0707
1036,0.0,0.0,0.0,0.0,0.0,0.0,-0.1572,-0.9124,-0.4404,0.5680,-0.8181,0.0551,0.0702
1037,0.0,0.0,0.0,0.0,0.0,0.0,-0.1675,-0.9314,-0.4203,0.5710,-0.8159,0.0581,0.0696
1038,0.0,0.0,0.0,0.0,0.0,0.0,-0.1782,-0.9239,-0.4469,0.5745,-0.8132,0.0627,0.0694
1039,0.0,0.0,0.0,0.0,0.0,0.0,-0.1743,-0.8782,-0.4636,0.5769,-0.8111,0.0669,0.0696
1040,0.0,0.0,0.0,0.0,0.0,0.0,-0.1685,-0.8453,-0.4538,0.5781,-0.8102,0.0689,0.0685
1041,0.0,0.0,0.0,0.0,0.0,0.0,-0.1460,-0.8710,-0.4558,0.5773,-0.8107,0.0679,0.0703
1042,0.0,0.0,0.0,0.0,0.0,0.0,-0.1358,-0.8823,-0.4493,0.5770,-0.8110,0.0670,0.0703
1043,0.0,0.0,0.0,0.0,0.0,0.0,-0.1636,-0.8846,-0.4511,0.5762,-0.8117,0.0667,0.0685
1044,0.0,0.0,0.0,0.0,0.0,0.0,-0.1783,-0.8910,-0.4317,0.5753,-0.8125,0.0667,0.0671
1045,0.0,0.0,0.0,0.0,0.0,0.0,-0.1812,-0.8808,-0.4329,0.5745,-0.8131,0.0676,0.0653
1046,0.0,0.0,0.0,0.0,0.0,0.0,-0.1743,-0.9002,-0.4382,0.5731,-0.8141,0.0673,0.0658
1047,0.0,0.0,0.0,0.0,0.0,0.0,-0.1685,-0.9056,-0.4349,0.5718,-0.8150,0.0668,0.0657
1048,0.0,0.0,0.0,0.0,0.0,0.0,-0.1714,-0.9070,-0.4388,0.5704,-0.8161,0.0655,0.0663
1049,0.0,0.0,0.0,0.0,0.0,0.0,-0.1728,-0.9075,-0.4349,0.5694,-0.8167,0.0639,0.0678
1050,0.0,0.0,0.0,0.0,0.0,0.0,-0.1738,-0.8944,-0.4405,0.5684,-0.8174,0.0629,0.0691
1051,0.0,0.0,0.0,0.0,0.0,0.0,-0.1748,-0.9003,-0.4314,0.5677,-0.8178,0.0622,0.0712
1052,0.0,0.0,0.0,0.0,0.0,0.0,-0.1592,-0.9017,-0.4368,0.5680,-0.8174,0.0622,0.0728
1053,0.0,0.0,0.0,0.0,0.0,0.0,-0.1577,-0.8929,-0.4503,0.5689,-0.8167,0.0629,0.0732
1054,0.0,0.0,0.0,0.0,0.0,0.0,-0.1514,-0.8987,-0.4485,0.5698,-0.8160,0.0630,0.0743
1055,0.0,0.0,0.0,0.0,0.0,0.0,-0.1616,-0.9056,-0.4359,0.5717,-0.8145,0.0633,0.0759
1056,0.0,0.0,0.0,0.0,0.0,0.0,-0.1582,-0.9080,-0.4409,0.5734,-0.8131,0.0629,0.0779
1057,0.0,0.0,0.0,0.0,0.0,0.0,-0.1817,-0.9091,-0.4140,0.5769,-0.8106,0.0636,0.0784
1058,0.0,0.0,0.0,0.0,0.0,0.0,-0.1812,-0.9217,-0.4167,0.5803,-0.8079,0.0638,0.0804
1059,0.0,0.0,0.0,0.0,0.0,0.0,-0.1694,-0.9266,-0.4158,0.5845,-0.8047,0.0640,0.0821
1060,0.0,0.0,0.0,0.0,0.0,0.0,-0.1782,-0.9305,-0.4105,0.5889,-0.8013,0.0654,0.0825
1061,0.0,0.0,0.0,0.0,0.0,0.0,-0.1807,-0.9125,-0.4097,0.5920,-0.7990,0.0664,0.0826
1062,0.0,0.0,0.0,0.0,0.0,0.0,-0.1905,-0.9096,-0.4130,0.5929,-0.7981,0.0677,0.0824
1063,0.0,0.0,0.0,0.0,0.0,0.0,-0.1817,-0.8887,-0.4073,0.5926,-0.7984,0.0685,0.0823
1064,0.0,0.0,0.0,0.0,0.0,0.0,-0.1632,-0.8834,-0.4132,0.5916,-0.7990,0.0683,0.0826
1065,0.0,0.0,0.0,0.0,0.0,0.0,-0.1866,-0.8937,-0.3952,0.5910,-0.7996,0.0696,0.0808
1066,0.0,0.0,0.0,0.0,0.0,0.0,-0.1959,-0.9028,-0.4021,0.5906,-0.7998,0.0723,0.0793
1067,0.0,0.0,0.0,0.0,0.0,0.0,-0.1974,-0.8877,-0.4072,0.5900,-0.8000,0.0759,0.0778
1068,0.0,0.0,0.0,0.0,0.0,0.0,-0.1749,-0.8736,-0.4207,0.5874,-0.8018,0.0774,0.0780
1069,0.0,0.0,0.0,0.0,0.0,0.0,-0.1505,-0.8649,-0.4319,0.5841,-0.8041,0.0769,0.0789
1070,0.0,0.0,0.0,0.0,0.0,0.0,-0.1529,-0.8512,-0.4355,0.5816,-0.8062,0.0754,0.0782
1071,0.0,0.0,0.0,0.0,0.0,0.0,-0.1543,-0.8672,-0.4494,0.5784,-0.8088,0.0721,0.0776
1072,0.0,0.0,0.0,0.0,0.0,0.0,-0.1558,-0.8700,-0.4553,0.5751,-0.8116,0.0678,0.0774
1073,0.0,0.0,0.0,0.0,0.0,0.0,-0.1465,-0.8486,-0.4739,0.5709,-0.8149,0.0632,0.0774
1074,0.0,0.0,0.0,0.0,0.0,0.0,-0.1421,-0.8388,-0.4825,0.5646,-0.8198,0.0589,0.0759
1075,0.0,0.0,0.0,0.0,0.0,0.0,-0.1543,-0.8894,-0.4707,0.5567,-0.8255,0.0540,0.0751
1076,0.0,0.0,0.0,0.0,0.0,0.0,-0.1601,-0.9234,-0.4635,0.5494,-0.8308,0.0496,0.0738
1077,0.0,0.0,0.0,0.0,0.0,0.0,-0.1684,-0.9093,-0.4690,0.5437,-0.8348,0.0464,0.0736
1078,0.0,0.0,0.0,0.0,0.0,0.0,-0.1689,-0.9200,-0.4648,0.5400,-0.8372,0.0431,0.0750
1079,0.0,0.0,0.0,0.0,0.0,0.0,-0.1756,-0.9286,-0.4839,0.5378,-0.8387,0.0408,0.0759
1080,0.0,0.0,0.0,0.0,0.0,0.0,-0.1630,-0.9014,-0.4923,0.5362,-0.8398,0.0390,0.0759
1081,0.0,0.0,0.0,0.0,0.0,0.0,-0.1620,-0.9003,-0.5083,0.5351,-0.8404,0.0374,0.0774
1082,0.0,0.0,0.0,0.0,0.0,0.0,-0.1576,-0.8697,-0.5049,0.5353,-0.8400,0.0360,0.0806
1083,0.0,0.0,0.0,0.0,0.0,0.0,-0.1718,-0.8752,-0.4830,0.5381,-0.8382,0.0367,0.0815
1084,0.0,0.0,0.0,0.0,0.0,0.0,-0.1864,-0.9183,-0.4934,0.5424,-0.8353,0.0398,0.0805
1085,0.0,0.0,0.0,0.0,0.0,0.0,-0.1698,-0.9072,-0.4933,0.5479,-0.8316,0.0436,0.0800
1086,0.0,0.0,0.0,0.0,0.0,0.0,-0.1776,-0.9175,-0.4754,0.5540,-0.8274,0.0469,0.0797
1087,0.0,0.0,0.0,0.0,0.0,0.0,-0.1669,-0.9145,-0.4871,0.5591,-0.8237,0.0486,0.0814
1088,0.0,0.0,0.0,0.0,0.0,0.0,-0.1674,-0.8869,-0.4691,0.5648,-0.8197,0.0500,0.0809
1089,0.0,0.0,0.0,0.0,0.0,0.0,-0.1782,-0.8661,-0.4595,0.5699,-0.8162,0.0512,0.0803
1090,0.0,0.0,0.0,0.0,0.0,0.0,-0.1656,-0.8632,-0.4527,0.5745,-0.8130,0.0518,0.0799
1091,0.0,0.0,0.0,0.0,0.0,0.0,-0.1587,-0.8841,-0.4604,0.5776,-0.8108,0.0522,0.0791
1092,0.0,0.0,0.0,0.0,0.0,0.0,-0.1573,-0.8764,-0.4442,0.5800,-0.8091,0.0538,0.0777
1093,0.0,0.0,0.0,0.0,0.0,0.0,-0.1622,-0.8672,-0.4372,0.5823,-0.8075,0.0567,0.0753
1094,0.0,0.0,0.0,0.0,0.0,0.0,-0.1602,-0.8682,-0.4382,0.5838,-0.8064,0.0588,0.0738
1095,0.0,0.0,0.0,0.0,0.0,0.0,-0.1524,-0.8770,-0.4350,0.5844,-0.8060,0.0601,0.0722
1096,0.0,0.0,0.0,0.0,0.0,0.0,-0.1573,-0.8711,-0.4465,0.5840,-0.8064,0.0609,0.0705
1097,0.0,0.0,0.0,0.0,0.0,0.0,-0.1441,-0.8706,-0.4398,0.5823,-0.8078,0.0593,0.0698
1098,0.0,0.0,0.0,0.0,0.0,0.0,-0.1675,-0.9551,-0.3624,0.5821,-0.8081,0.0574,0.0695
1099,0.0,0.0,0.0,0.0,0.0,0.0,-0.1722,-1.0195,-0.3888,0.5828,-0.8075,0.0570,0.0707
1100,0.0,0.0,0.0,0.0,0.0,0.0,-0.1767,-0.9469,-0.4176,0.5853,-0.8055,0.0596,0.0702
1101,0.0,0.0,0.0,0.0,0.0,0.0,-0.2120,-0.9131,-0.3813,0.5884,-0.8029,0.0636,0.0705
1102,0.0,0.0,0.0,0.0,0.0,0.0,-0.1802,-0.9271,-0.4051,0.5893,-0.8019,0.0648,0.0744
1103,0.0,0.0,0.0,0.0,0.0,0.0,-0.1470,-0.9217,-0.4295,0.5900,-0.8009,0.0653,0.0784
1104,0.0,0.0,0.0,0.0,0.0,0.0,-0.1681,-0.8907,-0.4108,0.5912,-0.7997,0.0668,0.0804
1105,0.0,0.0,0.0,0.0,0.0,0.0,-0.1818,-0.8639,-0.4195,0.5905,-0.8001,0.0682,0.0807
1106,0.0,0.0,0.0,0.0,0.0,0.0,-0.1705,-0.8659,-0.4182,0.5890,-0.8011,0.0694,0.0815
1107,0.0,0.0,0.0,0.0,0.0,0.0,-0.1514,-0.8927,-0.4110,0.5885,-0.8012,0.0705,0.0821
1108,0.0,0.0,0.0,0.0,0.0,0.0,-0.1436,-0.9052,-0.4258,0.5878,-0.8017,0.0715,0.0815
1109,0.0,0.0,0.0,0.0,0.0,0.0,-0.1769,-0.8834,-0.4068,0.5884,-0.8013,0.0738,0.0793
1110,0.0,0.0,0.0,0.0,0.0,0.0,-0.1954,-0.8795,-0.4139,0.5874,-0.8020,0.0745,0.0789
1111,0.0,0.0,0.0,0.0,0.0,0.0,-0.1890,-0.8696,-0.4327,0.5856,-0.8032,0.0735,0.0808
1112,0.0,0.0,0.0,0.0,0.0,0.0,-0.1612,-0.8564,-0.4638,0.5826,-0.8056,0.0709,0.0812
1113,0.0,0.0,0.0,0.0,0.0,0.0,-0.1695,-0.8619,-0.4390,0.5788,-0.8088,0.0682,0.0789
1114,0.0,0.0,0.0,0.0,0.0,0.0,-0.1860,-0.9505,-0.3957,0.5757,-0.8114,0.0663,0.0762
1115,0.0,0.0,0.0,0.0,0.0,0.0,-0.2015,-1.0028,-0.4034,0.5736,-0.8129,0.0653,0.0773
1116,0.0,0.0,0.0,0.0,0.0,0.0,-0.2392,-1.0088,-0.3731,0.5744,-0.8119,0.0676,0.0790
1117,0.0,0.0,0.0,0.0,0.0,0.0,-0.2334,-0.9401,-0.4065,0.5761,-0.8102,0.0711,0.0811
1118,0.0,0.0,0.0,0.0,0.0,0.0,-0.2022,-0.8959,-0.4302,0.5773,-0.8090,0.0719,0.0843
1119,0.0,0.0,0.0,0.0,0.0,0.0,-0.1905,-0.8979,-0.4206,0.5799,-0.8070,0.0717,0.0862
1120,0.0,0.0,0.0,0.0,0.0,0.0,-0.1827,-0.8847,-0.4272,0.5827,-0.8047,0.0710,0.0887
1121,0.0,0.0,0.0,0.0,0.0,0.0,-0.1827,-0.8809,-0.4150,0.5862,-0.8019,0.0712,0.0906
1122,0.0,0.0,0.0,0.0,0.0,0.0,-0.1798,-0.8853,-0.4121,0.5902,-0.7989,0.0728,0.0906
1123,0.0,0.0,0.0,0.0,0.0,0.0,-0.1822,-0.8917,-0.4059,0.5944,-0.7956,0.0759,0.0896
1124,0.0,0.0,0.0,0.0,0.0,0.0,-0.1979,-0.8893,-0.3946,0.5989,-0.7918,0.0812,0.0881
1125,0.0,0.0,0.0,0.0,0.0,0.0,-0.2154,-0.9059,-0.3782,0.6024,-0.7886,0.0866,0.0880
1126,0.0,0.0,0.0,0.0,0.0,0.0,-0.2179,-0.9024,-0.3908,0.6045,-0.7866,0.0912,0.0868
1127,0.0,0.0,0.0,0.0,0.0,0.0,-0.2184,-0.8771,-0.4006,0.6049,-0.7861,0.0943,0.0847
1128,0.0,0.0,0.0,0.0,0.0,0.0,-0.2208,-0.8796,-0.3870,0.6040,-0.7867,0.0954,0.0848
1129,0.0,0.0,0.0,0.0,0.0,0.0,-0.2208,-0.8972,-0.3688,0.6039,-0.7866,0.0963,0.0852
1130,0.0,0.0,0.0,0.0,0.0,0.0,-0.2066,-0.9048,-0.3900,0.6032,-0.7871,0.0972,0.0846
1131,0.0,0.0,0.0,0.0,0.0,0.0,-0.2003,-0.9023,-0.4016,0.6025,-0.7876,0.0997,0.0823
1132,0.0,0.0,0.0,0.0,0.0,0.0,-0.2086,-0.8844,-0.4012,0.6019,-0.7879,0.1026,0.0801
1133,0.0,0.0,0.0,0.0,0.0,0.0,-0.1769,-0.8727,-0.4066,0.6008,-0.7889,0.1025,0.0780
1134,0.0,0.0,0.0,0.0,0.0,0.0,-0.1722,-0.8944,-0.2776,0.6018,-0.7888,0.0998,0.0751
1135,0.0,0.0,0.0,0.0,0.0,0.0,-0.1803,-0.9445,-0.3427,0.6022,-0.7891,0.0964,0.0727
1136,0.0,0.0,0.0,0.0,0.0,0.0,-0.2237,-0.9916,-0.3350,0.6044,-0.7877,0.0965,0.0704
1137,0.0,0.0,0.0,0.0,0.0,0.0,-0.2091,-0.9238,-0.3791,0.6070,-0.7856,0.0990,0.0680
1138,0.0,0.0,0.0,0.0,0.0,0.0,-0.2174,-0.9128,-0.3497,0.6094,-0.7835,0.1026,0.0649
1139,0.0,0.0,0.0,0.0,0.0,0.0,-0.2047,-0.9312,-0.3574,0.6108,-0.7822,0.1066,0.0605
1140,0.0,0.0,0.0,0.0,0.0,0.0,-0.1675,-0.9326,-0.3892,0.6113,-0.7816,0.1104,0.0561
1141,0.0,0.0,0.0,0.0,0.0,0.0,-0.2018,-0.9303,-0.3549,0.6139,-0.7792,0.1171,0.0482
1142,0.0,0.0,0.0,0.0,0.0,0.0,-0.2394,-0.9497,-0.3424,0.6174,-0.7755,0.1264,0.0371
1143,0.0,0.0,0.0,0.0,0.0,0.0,-0.2457,-0.9609,-0.3445,0.6207,-0.7716,0.1370,0.0265
1144,0.0,0.0,0.0,0.0,0.0,0.0,-0.2321,-0.9543,-0.3158,0.6228,-0.7681,0.1478,0.0178
1145,0.0,0.0,0.0,0.0,0.0,0.0,-0.2082,-0.9168,-0.3372,0.6226,-0.7666,0.1564,0.0130
1146,0.0,0.0,0.0,0.0,0.0,0.0,-0.1916,-0.9172,-0.3479,0.6209,-0.7665,0.1640,0.0081
1147,0.0,0.0,0.0,0.0,0.0,0.0,-0.1744,-0.9112,-0.3917,0.6147,-0.7705,0.1685,0.0052
1148,0.0,0.0,0.0,0.0,0.0,0.0,-0.1565,-0.8721,-0.3527,0.6085,-0.7751,0.1702,0.0042
1149,0.0,0.0,0.0,0.0,0.0,0.0,-0.0929,-0.8856,-0.3941,0.6012,-0.7810,0.1688,0.0053
1150,0.0,0.0,0.0,0.0,0.0,0.0,-0.0899,-0.8893,-0.4156,0.5948,-0.7860,0.1685,0.0042
1151,0.0,0.0,0.0,0.0,0.0,0.0,-0.1104,-0.9015,-0.4099,0.5898,-0.7898,0.1681,0.0016
1152,0.0,0.0,0.0,0.0,0.0,0.0,-0.1343,-0.9417,-0.4080,0.5869,-0.7922,0.1672,-0.0002
1153,0.0,0.0,0.0,0.0,0.0,0.0,-0.1343,-0.9251,-0.4248,0.5851,-0.7937,0.1665,-0.0024
1154,0.0,0.0,0.0,0.0,0.0,0.0,-0.0909,-0.9053,-0.4203,0.5838,-0.7951,0.1643,-0.0044
1155,0.0,0.0,0.0,0.0,0.0,0.0,-0.0850,-0.8893,-0.4259,0.5827,-0.7969,0.1595,-0.0046
1156,0.0,0.0,0.0,0.0,0.0,0.0,-0.0977,-0.8847,-0.4539,0.5788,-0.8015,0.1506,0.0011
1157,0.0,0.0,0.0,0.0,0.0,0.0,-0.1480,-0.8760,-0.4437,0.5749,-0.8060,0.1405,0.0099
1158,0.0,0.0,0.0,0.0,0.0,0.0,-0.1652,-0.8332,-0.4448,0.5715,-0.8097,0.1317,0.0178
1159,0.0,0.0,0.0,0.0,0.0,0.0,-0.1385,-0.7747,-0.4167,0.5728,-0.8100,0.1234,0.0229
1160,0.0,0.0,0.0,0.0,0.0,0.0,-0.1492,-0.7873,-0.4130,0.5806,-0.8055,0.1153,0.0277
1161,0.0,0.0,0.0,0.0,0.0,0.0,-0.1552,-0.8712,-0.5102,0.5864,-0.8025,0.1042,0.0358
1162,0.0,0.0,0.0,0.0,0.0,0.0,-0.1952,-0.9871,-0.4352,0.5869,-0.8029,0.0949,0.0425
1163,0.0,0.0,0.0,0.0,0.0,0.0,-0.1614,-1.0276,-0.4147,0.5858,-0.8043,0.0856,0.0502
1164,0.0,0.0,0.0,0.0,0.0,0.0,-0.1655,-0.9538,-0.4115,0.5816,-0.8079,0.0787,0.0534
1165,0.0,0.0,0.0,0.0,0.0,0.0,-0.1446,-0.9190,-0.3993,0.5759,-0.8125,0.0726,0.0542
1166,0.0,0.0,0.0,0.0,0.0,0.0,-0.1265,-0.9184,-0.4222,0.5719,-0.8157,0.0673,0.0557
1167,0.0,0.0,0.0,0.0,0.0,0.0,-0.1386,-0.9353,-0.4356,0.5693,-0.8176,0.0646,0.0565
1168,0.0,0.0,0.0,0.0,0.0,0.0,-0.1250,-0.9055,-0.4566,0.5668,-0.8195,0.0614,0.0585
1169,0.0,0.0,0.0,0.0,0.0,0.0,-0.1113,-0.9045,-0.4654,0.5647,-0.8211,0.0573,0.0599
1170,0.0,0.0,0.0,0.0,0.0,0.0,-0.1196,-0.9094,-0.4644,0.5636,-0.8221,0.0542,0.0595
1171,0.0,0.0,0.0,0.0,0.0,0.0,-0.1288,-0.9244,-0.4617,0.5628,-0.8228,0.0517,0.0594
1172,0.0,0.0,0.0,0.0,0.0,0.0,-0.1435,-0.9420,-0.4464,0.5631,-0.8228,0.0505,0.0584
1173,0.0,0.0,0.0,0.0,0.0,0.0,-0.1498,-0.9479,-0.4265,0.5652,-0.8214,0.0508,0.0572
1174,0.0,0.0,0.0,0.0,0.0,0.0,-0.1572,-0.9626,-0.4117,0.5702,-0.8179,0.0532,0.0552
1175,0.0,0.0,0.0,0.0,0.0,0.0,-0.1566,-0.9741,-0.4250,0.5757,-0.8139,0.0579,0.0526
1176,0.0,0.0,0.0,0.0,0.0,0.0,-0.1376,-0.9689,-0.4168,0.5821,-0.8092,0.0638,0.0475
1177,0.0,0.0,0.0,0.0,0.0,0.0,-0.1597,-0.9451,-0.4041,0.5896,-0.8035,0.0716,0.0409
1178,0.0,0.0,0.0,0.0,0.0,0.0,-0.1177,-0.9067,-0.4245,0.5949,-0.7992,0.0769,0.0387
1179,0.0,0.0,0.0,0.0,0.0,0.0,-0.0982,-0.8951,-0.4167,0.5989,-0.7958,0.0812,0.0365
1180,0.0,0.0,0.0,0.0,0.0,0.0,-0.1320,-0.8674,-0.4184,0.6028,-0.7924,0.0880,0.0316
1181,0.0,0.0,0.0,0.0,0.0,0.0,-0.1163,-0.8757,-0.4196,0.6037,-0.7912,0.0932,0.0290
1182,0.0,0.0,0.0,0.0,0.0,0.0,-0.1090,-0.8972,-0.4001,0.6038,-0.7906,0.0981,0.0267
1183,0.0,0.0,0.0,0.0,0.0,0.0,-0.1324,-0.9035,-0.3928,0.6037,-0.7901,0.1039,0.0244
1184,0.0,0.0,0.0,0.0,0.0,0.0,-0.1168,-0.9122,-0.4052,0.6033,-0.7899,0.1077,0.0232
1185,0.0,0.0,0.0,0.0,0.0,0.0,-0.1105,-0.9128,-0.3814,0.6038,-0.7893,0.1093,0.0230
1186,0.0,0.0,0.0,0.0,0.0,0.0,-0.1031,-0.9249,-0.3943,0.6038,-0.7893,0.1081,0.0256
1187,0.0,0.0,0.0,0.0,0.0,0.0,-0.1046,-0.9176,-0.3942,0.6043,-0.7891,0.1066,0.0276
1188,0.0,0.0,0.0,0.0,0.0,0.0,-0.1173,-0.9113,-0.3911,0.6047,-0.7889,0.1055,0.0274
1189,0.0,0.0,0.0,0.0,0.0,0.0,-0.1289,-0.9399,-0.3954,0.6039,-0.7897,0.1049,0.0275
1190,0.0,0.0,0.0,0.0,0.0,0.0,-0.1344,-0.9156,-0.3949,0.6029,-0.7903,0.1056,0.0268
1191,0.0,0.0,0.0,0.0,0.0,0.0,-0.1310,-0.9186,-0.3799,0.6020,-0.7909,0.1066,0.0267
1192,0.0,0.0,0.0,0.0,0.0,0.0,-0.1324,-0.9282,-0.4063,0.6001,-0.7922,0.1075,0.0266
1193,0.0,0.0,0.0,0.0,0.0,0.0,-0.1270,-0.8975,-0.4131,0.5989,-0.7932,0.1071,0.0269
1194,0.0,0.0,0.0,0.0,0.0,0.0,-0.1515,-0.8869,-0.3982,0.5982,-0.7939,0.1065,0.0258
1195,0.0,0.0,0.0,0.0,0.0,0.0,-0.1412,-0.8873,-0.4163,0.5963,-0.7955,0.1044,0.0261
1196,0.0,0.0,0.0,0.0,0.0,0.0,-0.1314,-0.9101,-0.4182,0.5924,-0.7987,0.1019,0.0282
1197,0.0,0.0,0.0,0.0,0.0,0.0,-0.1627,-0.9088,-0.3825,0.5900,-0.8004,0.1018,0.0292
1198,0.0,0.0,0.0,0.0,0.0,0.0,-0.1744,-0.9030,-0.3833,0.5891,-0.8008,0.1038,0.0287
1199,0.0,0.0,0.0,0.0,0.0,0.0,-0.1534,-0.9000,-0.4033,0.5872,-0.8022,0.1037,0.0300
1200,0.0,0.0,0.0,0.0,0.0,0.0,-0.1157,-0.9189,-0.4170,0.5855,-0.8037,0.1009,0.0327
1201,0.0,0.0,0.0,0.0,0.0,0.0,-0.1401,-0.9709,-0.4017,0.5857,-0.8036,0.1010,0.0314
1202,0.0,0.0,0.0,0.0,0.0,0.0,-0.1860,-0.9801,-0.3865,0.5866,-0.8027,0.1048,0.0265
1203,0.0,0.0,0.0,0.0,0.0,0.0,-0.2031,-0.9407,-0.4023,0.5875,-0.8009,0.1139,0.0219
1204,0.0,0.0,0.0,0.0,0.0,0.0,-0.1909,-0.9159,-0.4092,0.5894,-0.7981,0.1241,0.0129
1205,0.0,0.0,0.0,0.0,0.0,0.0,-0.1547,-0.9250,-0.4431,0.5899,-0.7968,0.1310,0.0069
1206,0.0,0.0,0.0,0.0,0.0,0.0,-0.0766,-0.9608,-0.4101,0.5888,-0.7972,0.1329,0.0051
1207,0.0,0.0,0.0,0.0,0.0,0.0,-0.0566,-0.9755,-0.3872,0.5898,-0.7964,0.1335,0.0014
1208,0.0,0.0,0.0,0.0,0.0,0.0,-0.1011,-0.9230,-0.3933,0.5918,-0.7945,0.1360,-0.0037
1209,0.0,0.0,0.0,0.0,0.0,0.0,-0.1100,-0.8893,-0.4097,0.5933,-0.7928,0.1392,-0.0070
1210,0.0,0.0,0.0,0.0,0.0,0.0,-0.0948,-0.9087,-0.4169,0.5947,-0.7914,0.1416,-0.0071
1211,0.0,0.0,0.0,0.0,0.0,0.0,-0.1060,-0.8995,-0.4167,0.5950,-0.7904,0.1453,-0.0084
1212,0.0,0.0,0.0,0.0,0.0,0.0,-0.1080,-0.8868,-0.4325,0.5925,-0.7917,0.1486,-0.0093
1213,0.0,0.0,0.0,0.0,0.0,0.0,-0.0909,-0.8878,-0.4234,0.5893,-0.7940,0.1491,-0.0090
1214,0.0,0.0,0.0,0.0,0.0,0.0,-0.0801,-0.9010,-0.4169,0.5874,-0.7958,0.1472,-0.0084
1215,0.0,0.0,0.0,0.0,0.0,0.0,-0.0757,-0.9078,-0.4165,0.5867,-0.7967,0.1446,-0.0095
1216,0.0,0.0,0.0,0.0,0.0,0.0,-0.0992,-0.9166,-0.4054,0.5869,-0.7973,0.1403,-0.0097
1217,0.0,0.0,0.0,0.0,0.0,0.0,-0.0983,-0.9128,-0.3810,0.5892,-0.7968,0.1340,-0.0080
1218,0.0,0.0,0.0,0.0,0.0,0.0,-0.0890,-0.9119,-0.3868,0.5926,-0.7956,0.1255,-0.0039
1219,0.0,0.0,0.0,0.0,0.0,0.0,-0.1011,-0.9137,-0.4009,0.5955,-0.7948,0.1170,0.0020
1220,0.0,0.0,0.0,0.0,0.0,0.0,-0.0933,-0.9082,-0.4242,0.5957,-0.7961,0.1067,0.0094
1221,0.0,0.0,0.0,0.0,0.0,0.0,-0.1377,-0.9182,-0.4431,0.5904,-0.8010,0.0969,0.0180
1222,0.0,0.0,0.0,0.0,0.0,0.0,-0.1304,-0.8871,-0.4557,0.5825,-0.8077,0.0867,0.0287
1223,0.0,0.0,0.0,0.0,0.0,0.0,-0.1084,-0.8652,-0.4744,0.5730,-0.8150,0.0763,0.0414
1224,0.0,0.0,0.0,0.0,0.0,0.0,-0.1334,-0.8478,-0.4492,0.5653,-0.8204,0.0701,0.0495
1225,0.0,0.0,0.0,0.0,0.0,0.0,-0.1396,-0.9095,-0.4449,0.5583,-0.8252,0.0651,0.0557
1226,0.0,0.0,0.0,0.0,0.0,0.0,-0.1557,-0.9552,-0.4315,0.5559,-0.8267,0.0642,0.0586
1227,0.0,0.0,0.0,0.0,0.0,0.0,-0.1958,-0.9586,-0.4051,0.5594,-0.8241,0.0698,0.0561
1228,0.0,0.0,0.0,0.0,0.0,0.0,-0.2007,-0.9055,-0.4440,0.5647,-0.8200,0.0783,0.0510
1229,0.0,0.0,0.0,0.0,0.0,0.0,-0.1713,-0.9137,-0.4496,0.5701,-0.8159,0.0847,0.0470
1230,0.0,0.0,0.0,0.0,0.0,0.0,-0.1176,-0.8927,-0.4875,0.5731,-0.8135,0.0875,0.0459
1231,0.0,0.0,0.0,0.0,0.0,0.0,-0.0913,-0.8696,-0.4663,0.5753,-0.8121,0.0870,0.0453
1232,0.0,0.0,0.0,0.0,0.0,0.0,-0.1182,-0.9012,-0.4448,0.5769,-0.8109,0.0863,0.0459
1233,0.0,0.0,0.0,0.0,0.0,0.0,-0.1260,-0.9134,-0.4455,0.5794,-0.8091,0.0877,0.0449
1234,0.0,0.0,0.0,0.0,0.0,0.0,-0.1538,-0.8973,-0.4417,0.5823,-0.8067,0.0915,0.0432
1235,0.0,0.0,0.0,0.0,0.0,0.0,-0.1763,-0.9057,-0.4193,0.5855,-0.8037,0.0963,0.0433
1236,0.0,0.0,0.0,0.0,0.0,0.0,-0.1645,-0.9236,-0.4333,0.5881,-0.8012,0.1006,0.0447
1237,0.0,0.0,0.0,0.0,0.0,0.0,-0.1479,-0.9075,-0.4448,0.5903,-0.7993,0.1029,0.0454
1238,0.0,0.0,0.0,0.0,0.0,0.0,-0.1519,-0.8770,-0.4384,0.5925,-0.7977,0.1028,0.0452
1239,0.0,0.0,0.0,0.0,0.0,0.0,-0.1534,-0.8438,-0.4568,0.5921,-0.7981,0.1013,0.0460
1240,0.0,0.0,0.0,0.0,0.0,0.0,-0.1432,-0.8519,-0.4156,0.5920,-0.7985,0.0992,0.0461
1241,0.0,0.0,0.0,0.0,0.0,0.0,-0.1710,-0.9067,-0.4062,0.5907,-0.7995,0.0995,0.0440
1242,0.0,0.0,0.0,0.0,0.0,0.0,-0.1767,-0.9319,-0.4164,0.5889,-0.8005,0.1032,0.0422
1243,0.0,0.0,0.0,0.0,0.0,0.0,-0.1861,-0.9253,-0.3797,0.5909,-0.7984,0.1088,0.0388
1244,0.0,0.0,0.0,0.0,0.0,0.0,-0.1646,-0.9166,-0.3875,0.5944,-0.7955,0.1127,0.0344
1245,0.0,0.0,0.0,0.0,0.0,0.0,-0.1499,-0.9262,-0.4101,0.5978,-0.7929,0.1139,0.0311
1246,0.0,0.0,0.0,0.0,0.0,0.0,-0.1245,-0.9165,-0.4164,0.6002,-0.7916,0.1107,0.0304
1247,0.0,0.0,0.0,0.0,0.0,0.0,-0.1158,-0.9220,-0.3835,0.6019,-0.7911,0.1049,0.0311
1248,0.0,0.0,0.0,0.0,0.0,0.0,-0.1114,-0.9255,-0.3768,0.6029,-0.7909,0.1000,0.0315
1249,0.0,0.0,0.0,0.0,0.0,0.0,-0.1549,-0.9346,-0.3713,0.6042,-0.7899,0.0995,0.0340
1250,0.0,0.0,0.0,0.0,0.0,0.0,-0.1769,-0.9020,-0.3886,0.6035,-0.7899,0.1033,0.0355
1251,0.0,0.0,0.0,0.0,0.0,0.0,-0.1324,-0.9147,-0.3930,0.6014,-0.7910,0.1068,0.0353
1252,0.0,0.0,0.0,0.0,0.0,0.0,-0.1201,-0.9374,-0.4095,0.6002,-0.7918,0.1077,0.0345
1253,0.0,0.0,0.0,0.0,0.0,0.0,-0.1543,-0.9320,-0.4019,0.6005,-0.7916,0.1090,0.0315
1254,0.0,0.0,0.0,0.0,0.0,0.0,-0.1856,-0.9256,-0.4079,0.6014,-0.7908,0.1107,0.0276
1255,0.0,0.0,0.0,0.0,0.0,0.0,-0.2046,-0.9242,-0.4064,0.6023,-0.7897,0.1145,0.0232
1256,0.0,0.0,0.0,0.0,0.0,0.0,-0.2238,-0.9041,-0.3412,0.6064,-0.7855,0.1228,0.0170
1257,0.0,0.0,0.0,0.0,0.0,0.0,-0.1950,-0.8659,-0.4005,0.6086,-0.7817,0.1362,0.0069
1258,0.0,0.0,0.0,0.0,0.0,0.0,-0.1896,-0.8850,-0.3863,0.6091,-0.7790,0.1490,-0.0014
1259,0.0,0.0,0.0,0.0,0.0,0.0,-0.1080,-0.9089,-0.3799,0.6057,-0.7811,0.1518,-0.0010
1260,0.0,0.0,0.0,0.0,0.0,0.0,0.0243,-0.9636,-0.3655,0.6070,-0.7809,0.1474,-0.0015
1261,0.0,0.0,0.0,0.0,0.0,0.0,-0.1246,-0.9659,-0.3482,0.6104,-0.7783,0.1468,-0.0053
1262,0.0,0.0,0.0,0.0,0.0,0.0,-0.0855,-0.9878,-0.3537,0.6142,-0.7758,0.1441,-0.0075
1263,0.0,0.0,0.0,0.0,0.0,0.0,-0.0811,-0.9792,-0.3360,0.6170,-0.7741,0.1415,-0.0084
1264,0.0,0.0,0.0,0.0,0.0,0.0,-0.0860,-0.9895,-0.3206,0.6189,-0.7730,0.1390,-0.0074
1265,0.0,0.0,0.0,0.0,0.0,0.0,-0.0879,-0.9848,-0.3667,0.6195,-0.7731,0.1358,-0.0021
1266,0.0,0.0,0.0,0.0,0.0,0.0,-0.1656,-0.9799,-0.3536,0.6203,-0.7728,0.1341,0.0027
1267,0.0,0.0,0.0,0.0,0.0,0.0,-0.2072,-0.9616,-0.3195,0.6208,-0.7726,0.1327,0.0060
1268,0.0,0.0,0.0,0.0,0.0,0.0,-0.1871,-0.8927,-0.3864,0.6184,-0.7752,0.1289,0.0102
1269,0.0,0.0,0.0,0.0,0.0,0.0,-0.1525,-0.8735,-0.3737,0.6154,-0.7786,0.1219,0.0149
1270,0.0,0.0,0.0,0.0,0.0,0.0,-0.1170,-0.8498,-0.3671,0.6142,-0.7807,0.1136,0.0184
1271,0.0,0.0,0.0,0.0,0.0,0.0,-0.1081,-0.8866,-0.3746,0.6140,-0.7816,0.1082,0.0185
1272,0.0,0.0,0.0,0.0,0.0,0.0,-0.1544,-0.9415,-0.3573,0.6153,-0.7803,0.1106,0.0150
1273,0.0,0.0,0.0,0.0,0.0,0.0,-0.1929,-0.9522,-0.3554,0.6173,-0.7775,0.1200,0.0050
1274,0.0,0.0,0.0,0.0,0.0,0.0,-0.1525,-0.9456,-0.3331,0.6182,-0.7757,0.1275,0.0010
1275,0.0,0.0,0.0,0.0,0.0,0.0,-0.0787,-0.9688,-0.3607,0.6169,-0.7764,0.1293,0.0012
1276,0.0,0.0,0.0,0.0,0.0,0.0,-0.0533,-0.9567,-0.3703,0.6163,-0.7765,0.1314,-0.0028
1277,0.0,0.0,0.0,0.0,0.0,0.0,-0.1080,-0.9363,-0.3556,0.6153,-0.7768,0.1337,-0.0069
1278,0.0,0.0,0.0,0.0,0.0,0.0,-0.1168,-0.9519,-0.3397,0.6130,-0.7786,0.1342,-0.0034
1279,0.0,0.0,0.0,0.0,0.0,0.0,-0.1256,-0.9236,-0.3679,0.6113,-0.7792,0.1381,-0.0050
1280,0.0,0.0,0.0,0.0,0.0,0.0,-0.1481,-0.9006,-0.3863,0.6086,-0.7808,0.1410,-0.0046
1281,0.0,0.0,0.0,0.0,0.0,0.0,-0.0924,-0.9093,-0.3985,0.6049,-0.7839,0.1399,-0.0026
1282,0.0,0.0,0.0,0.0,0.0,0.0,-0.1149,-0.9002,-0.3821,0.6010,-0.7872,0.1385,-0.0003
1283,0.0,0.0,0.0,0.0,0.0,0.0,-0.1276,-0.9236,-0.3659,0.5993,-0.7886,0.1377,-0.0007
1284,0.0,0.0,0.0,0.0,0.0,0.0,-0.1187,-0.9259,-0.3869,0.5984,-0.7898,0.1350,0.0017
1285,0.0,0.0,0.0,0.0,0.0,0.0,-0.1285,-0.9107,-0.4036,0.5980,-0.7903,0.1335,0.0027
1286,0.0,0.0,0.0,0.0,0.0,0.0,-0.1295,-0.9044,-0.4030,0.5976,-0.7907,0.1328,0.0022
1287,0.0,0.0,0.0,0.0,0.0,0.0,-0.1251,-0.8986,-0.4010,0.5975,-0.7911,0.1313,0.0025
1288,0.0,0.0,0.0,0.0,0.0,0.0,-0.1133,-0.9346,-0.3973,0.5971,-0.7919,0.1279,0.0034
1289,0.0,0.0,0.0,0.0,0.0,0.0,-0.1020,-0.9622,-0.3988,0.5965,-0.7932,0.1224,0.0041
1290,0.0,0.0,0.0,0.0,0.0,0.0,-0.1089,-0.9190,-0.4049,0.5956,-0.7949,0.1160,0.0058
1291,0.0,0.0,0.0,0.0,0.0,0.0,-0.1192,-0.9160,-0.4081,0.5929,-0.7978,0.1094,0.0088
1292,0.0,0.0,0.0,0.0,0.0,0.0,-0.1153,-0.9228,-0.4161,0.5895,-0.8009,0.1044,0.0108
1293,0.0,0.0,0.0,0.0,0.0,0.0,-0.0967,-0.9048,-0.4251,0.5857,-0.8042,0.1001,0.0128
1294,0.0,0.0,0.0,0.0,0.0,0.0,-0.1104,-0.8839,-0.4266,0.5818,-0.8075,0.0955,0.0172
1295,0.0,0.0,0.0,0.0,0.0,0.0,-0.1319,-0.8955,-0.4325,0.5781,-0.8104,0.0931,0.0202
1296,0.0,0.0,0.0,0.0,0.0,0.0,-0.1021,-0.9008,-0.4381,0.5754,-0.8125,0.0902,0.0237
1297,0.0,0.0,0.0,0.0,0.0,0.0,-0.1020,-0.9333,-0.4411,0.5741,-0.8138,0.0841,0.0313
1298,0.0,0.0,0.0,0.0,0.0,0.0,-0.1298,-0.9478,-0.4441,0.5735,-0.8146,0.0792,0.0369
1299,0.0,0.0,0.0,0.0,0.0,0.0,-0.1449,-0.9584,-0.4613,0.5711,-0.8164,0.0765,0.0387
1300,0.0,0.0,0.0,0.0,0.0,0.0,-0.1382,-0.8963,-0.4485,0.5687,-0.8182,0.0740,0.0411
1301,0.0,0.0,0.0,0.0,0.0,0.0,-0.1118,-0.8744,-0.4678,0.5657,-0.8203,0.0694,0.0469
1302,0.0,0.0,0.0,0.0,0.0,0.0,-0.0771,-0.8913,-0.4901,0.5628,-0.8224,0.0620,0.0547
1303,0.0,0.0,0.0,0.0,0.0,0.0,-0.1186,-0.9171,-0.4656,0.5624,-0.8227,0.0560,0.0606
1304,0.0,0.0,0.0,0.0,0.0,0.0,-0.1464,-0.9250,-0.4461,0.5636,-0.8218,0.0513,0.0664
1305,0.0,0.0,0.0,0.0,0.0,0.0,-0.1650,-0.9025,-0.4694,0.5650,-0.8205,0.0485,0.0725
1306,0.0,0.0,0.0,0.0,0.0,0.0,-0.1807,-0.8623,-0.4511,0.5678,-0.8181,0.0490,0.0767
1307,0.0,0.0,0.0,0.0,0.0,0.0,-0.1714,-0.8686,-0.4483,0.5699,-0.8162,0.0508,0.0798
1308,0.0,0.0,0.0,0.0,0.0,0.0,-0.1494,-0.8797,-0.4657,0.5717,-0.8146,0.0523,0.0828
1309,0.0,0.0,0.0,0.0,0.0,0.0,-0.1411,-0.8928,-0.4708,0.5729,-0.8136,0.0527,0.0847
1310,0.0,0.0,0.0,0.0,0.0,0.0,-0.1573,-0.8681,-0.4479,0.5739,-0.8128,0.0542,0.0838
1311,0.0,0.0,0.0,0.0,0.0,0.0,-0.1749,-0.8715,-0.4430,0.5755,-0.8115,0.0568,0.0834
1312,0.0,0.0,0.0,0.0,0.0,0.0,-0.1890,-0.8852,-0.4344,0.5773,-0.8099,0.0602,0.0842
1313,0.0,0.0,0.0,0.0,0.0,0.0,-0.1963,-0.8959,-0.4210,0.5800,-0.8078,0.0651,0.0828
1314,0.0,0.0,0.0,0.0,0.0,0.0,-0.1919,-0.9216,-0.4278,0.5829,-0.8055,0.0702,0.0803
1315,0.0,0.0,0.0,0.0,0.0,0.0,-0.1904,-0.9255,-0.4264,0.5858,-0.8032,0.0740,0.0793
1316,0.0,0.0,0.0,0.0,0.0,0.0,-0.2036,-0.9134,-0.4120,0.5900,-0.7998,0.0788,0.0774
1317,0.0,0.0,0.0,0.0,0.0,0.0,-0.1954,-0.9047,-0.4143,0.5950,-0.7959,0.0830,0.0744
1318,0.0,0.0,0.0,0.0,0.0,0.0,-0.2124,-0.9198,-0.4072,0.6000,-0.7920,0.0884,0.0702
1319,0.0,0.0,0.0,0.0,0.0,0.0,-0.1998,-0.8902,-0.3941,0.6052,-0.7876,0.0949,0.0659
1320,0.0,0.0,0.0,0.0,0.0,0.0,-0.1901,-0.8835,-0.3936,0.6094,-0.7840,0.1011,0.0613
1321,0.0,0.0,0.0,0.0,0.0,0.0,-0.1695,-0.9145,-0.4069,0.6116,-0.7820,0.1058,0.0574
1322,0.0,0.0,0.0,0.0,0.0,0.0,-0.1784,-0.8549,-0.3810,0.6143,-0.7794,0.1119,0.0514
1323,0.0,0.0,0.0,0.0,0.0,0.0,-0.1515,-0.8718,-0.4067,0.6135,-0.7801,0.1121,0.0503
1324,0.0,0.0,0.0,0.0,0.0,0.0,-0.1343,-0.9428,-0.3954,0.6102,-0.7830,0.1090,0.0516
1325,0.0,0.0,0.0,0.0,0.0,0.0,-0.1734,-0.9425,-0.3568,0.6090,-0.7841,0.1086,0.0502
1326,0.0,0.0,0.0,0.0,0.0,0.0,-0.1842,-0.9226,-0.3476,0.6089,-0.7843,0.1085,0.0486
1327,0.0,0.0,0.0,0.0,0.0,0.0,-0.1778,-0.9366,-0.3673,0.6077,-0.7853,0.1079,0.0483
1328,0.0,0.0,0.0,0.0,0.0,0.0,-0.1778,-0.9414,-0.3708,0.6077,-0.7852,0.1092,0.0475
1329,0.0,0.0,0.0,0.0,0.0,0.0,-0.1603,-0.9177,-0.3666,0.6080,-0.7850,0.1093,0.0466
1330,0.0,0.0,0.0,0.0,0.0,0.0,-0.1334,-0.8972,-0.3883,0.6070,-0.7861,0.1067,0.0469
1331,0.0,0.0,0.0,0.0,0.0,0.0,-0.1495,-0.9123,-0.3690,0.6072,-0.7863,0.1045,0.0471
1332,0.0,0.0,0.0,0.0,0.0,0.0,-0.1514,-0.9258,-0.3829,0.6069,-0.7868,0.1016,0.0485
1333,0.0,0.0,0.0,0.0,0.0,0.0,-0.1319,-0.9099,-0.3822,0.6072,-0.7868,0.0993,0.0491
1334,0.0,0.0,0.0,0.0,0.0,0.0,-0.1413,-0.9036,-0.3689,0.6074,-0.7869,0.0968,0.0501
1335,0.0,0.0,0.0,0.0,0.0,0.0,-0.1422,-0.9124,-0.3661,0.6066,-0.7878,0.0944,0.0504
1336,0.0,0.0,0.0,0.0,0.0,0.0,-0.1607,-0.9303,-0.3722,0.6059,-0.7884,0.0925,0.0515
1337,0.0,0.0,0.0,0.0,0.0,0.0,-0.1656,-0.9322,-0.3712,0.6051,-0.7893,0.0894,0.0540
1338,0.0,0.0,0.0,0.0,0.0,0.0,-0.1744,-0.9191,-0.3661,0.6042,-0.7901,0.0856,0.0574
1339,0.0,0.0,0.0,0.0,0.0,0.0,-0.1769,-0.9148,-0.3635,0.6036,-0.7908,0.0816,0.0612
1340,0.0,0.0,0.0,0.0,0.0,0.0,-0.1622,-0.9176,-0.3807,0.6025,-0.7916,0.0759,0.0679
1341,0.0,0.0,0.0,0.0,0.0,0.0,-0.1749,-0.9228,-0.3968,0.6005,-0.7931,0.0710,0.0735
1342,0.0,0.0,0.0,0.0,0.0,0.0,-0.1792,-0.9213,-0.4089,0.5979,-0.7951,0.0672,0.0759
1343,0.0,0.0,0.0,0.0,0.0,0.0,-0.1631,-0.9149,-0.4152,0.5943,-0.7980,0.0626,0.0780
1344,0.0,0.0,0.0,0.0,0.0,0.0,-0.1543,-0.9291,-0.4009,0.5894,-0.8017,0.0572,0.0813
1345,0.0,0.0,0.0,0.0,0.0,0.0,-0.1660,-0.9486,-0.3900,0.5854,-0.8046,0.0539,0.0837
1346,0.0,0.0,0.0,0.0,0.0,0.0,-0.1617,-0.9418,-0.3889,0.5822,-0.8070,0.0511,0.0844
1347,0.0,0.0,0.0,0.0,0.0,0.0,-0.1689,-0.9587,-0.4013,0.5802,-0.8084,0.0481,0.0872
1348,0.0,0.0,0.0,0.0,0.0,0.0,-0.1758,-0.9344,-0.4072,0.5797,-0.8085,0.0479,0.0892
1349,0.0,0.0,0.0,0.0,0.0,0.0,-0.1729,-0.8839,-0.4087,0.5805,-0.8079,0.0501,0.0883
1350,0.0,0.0,0.0,0.0,0.0,0.0,-0.1603,-0.8601,-0.4094,0.5827,-0.8065,0.0529,0.0857
1351,0.0,0.0,0.0,0.0,0.0,0.0,-0.1353,-0.8906,-0.4363,0.5838,-0.8058,0.0539,0.0834
1352,0.0,0.0,0.0,0.0,0.0,0.0,-0.1450,-0.8949,-0.4358,0.5863,-0.8042,0.0560,0.0800
1353,0.0,0.0,0.0,0.0,0.0,0.0,-0.1602,-0.8960,-0.4100,0.5902,-0.8016,0.0593,0.0754
1354,0.0,0.0,0.0,0.0,0.0,0.0,-0.1817,-0.9097,-0.3980,0.5938,-0.7991,0.0631,0.0704
1355,0.0,0.0,0.0,0.0,0.0,0.0,-0.1802,-0.9261,-0.4099,0.5956,-0.7977,0.0661,0.0675
1356,0.0,0.0,0.0,0.0,0.0,0.0,-0.1783,-0.9209,-0.3909,0.5984,-0.7957,0.0693,0.0638
1357,0.0,0.0,0.0,0.0,0.0,0.0,-0.1826,-0.9310,-0.4076,0.5994,-0.7949,0.0711,0.0610
1358,0.0,0.0,0.0,0.0,0.0,0.0,-0.1611,-0.9300,-0.4116,0.5975,-0.7965,0.0699,0.0610
1359,0.0,0.0,0.0,0.0,0.0,0.0,-0.1768,-0.9185,-0.3918,0.5962,-0.7975,0.0702,0.0594
1360,0.0,0.0,0.0,0.0,0.0,0.0,-0.1700,-0.9141,-0.3879,0.5944,-0.7990,0.0700,0.0582
1361,0.0,0.0,0.0,0.0,0.0,0.0,-0.1490,-0.9101,-0.4098,0.5919,-0.8009,0.0692,0.0584
1362,0.0,0.0,0.0,0.0,0.0,0.0,-0.1597,-0.9165,-0.4050,0.5892,-0.8029,0.0700,0.0571
1363,0.0,0.0,0.0,0.0,0.0,0.0,-0.1548,-0.9213,-0.4066,0.5857,-0.8055,0.0711,0.0556
1364,0.0,0.0,0.0,0.0,0.0,0.0,-0.1436,-0.8998,-0.4296,0.5816,-0.8085,0.0707,0.0556
1365,0.0,0.0,0.0,0.0,0.0,0.0,-0.1514,-0.8814,-0.4297,0.5766,-0.8121,0.0694,0.0567
1366,0.0,0.0,0.0,0.0,0.0,0.0,-0.1446,-0.8731,-0.4355,0.5714,-0.8158,0.0663,0.0589
1367,0.0,0.0,0.0,0.0,0.0,0.0,-0.1377,-0.8945,-0.4378,0.5680,-0.8183,0.0626,0.0612
1368,0.0,0.0,0.0,0.0,0.0,0.0,-0.1445,-0.9080,-0.4511,0.5655,-0.8202,0.0589,0.0637
1369,0.0,0.0,0.0,0.0,0.0,0.0,-0.1557,-0.8909,-0.4561,0.5634,-0.8217,0.0565,0.0647
1370,0.0,0.0,0.0,0.0,0.0,0.0,-0.1724,-0.8476,-0.4616,0.5619,-0.8229,0.0564,0.0633
1371,0.0,0.0,0.0,0.0,0.0,0.0,-0.1495,-0.8238,-0.4788,0.5599,-0.8243,0.0558,0.0621
1372,0.0,0.0,0.0,0.0,0.0,0.0,-0.1138,-0.8475,-0.4964,0.5562,-0.8272,0.0533,0.0602
1373,0.0,0.0,0.0,0.0,0.0,0.0,-0.1162,-0.8729,-0.4828,0.5520,-0.8303,0.0502,0.0574
1374,0.0,0.0,0.0,0.0,0.0,0.0,-0.1142,-0.8919,-0.4680,0.5495,-0.8323,0.0476,0.0541
1375,0.0,0.0,0.0,0.0,0.0,0.0,-0.1088,-0.9127,-0.4796,0.5489,-0.8330,0.0457,0.0520
1376,0.0,0.0,0.0,0.0,0.0,0.0,-0.1234,-0.9195,-0.4767,0.5503,-0.8322,0.0456,0.0504
1377,0.0,0.0,0.0,0.0,0.0,0.0,-0.1249,-0.9030,-0.4760,0.5529,-0.8305,0.0467,0.0492
1378,0.0,0.0,0.0,0.0,0.0,0.0,-0.1190,-0.9054,-0.4863,0.5550,-0.8290,0.0472,0.0501
1379,0.0,0.0,0.0,0.0,0.0,0.0,-0.1264,-0.9020,-0.4861,0.5574,-0.8273,0.0483,0.0505
1380,0.0,0.0,0.0,0.0,0.0,0.0,-0.1298,-0.9029,-0.4915,0.5598,-0.8256,0.0488,0.0513
1381,0.0,0.0,0.0,0.0,0.0,0.0,-0.1303,-0.9014,-0.4949,0.5613,-0.8245,0.0485,0.0528
1382,0.0,0.0,0.0,0.0,0.0,0.0,-0.1347,-0.9079,-0.4687,0.5633,-0.8231,0.0488,0.0538
1383,0.0,0.0,0.0,0.0,0.0,0.0,-0.1498,-0.9352,-0.4482,0.5666,-0.8207,0.0499,0.0545
1384,0.0,0.0,0.0,0.0,0.0,0.0,-0.1528,-0.9313,-0.4491,0.5713,-0.8172,0.0528,0.0543
1385,0.0,0.0,0.0,0.0,0.0,0.0,-0.1348,-0.9051,-0.4448,0.5762,-0.8136,0.0553,0.0541
1386,0.0,0.0,0.0,0.0,0.0,0.0,-0.1426,-0.9081,-0.4327,0.5809,-0.8101,0.0573,0.0545
1387,0.0,0.0,0.0,0.0,0.0,0.0,-0.1479,-0.9173,-0.4309,0.5860,-0.8063,0.0602,0.0529
1388,0.0,0.0,0.0,0.0,0.0,0.0,-0.1303,-0.9168,-0.4431,0.5896,-0.8036,0.0621,0.0518
1389,0.0,0.0,0.0,0.0,0.0,0.0,-0.1216,-0.8941,-0.4238,0.5927,-0.8013,0.0643,0.0495
1390,0.0,0.0,0.0,0.0,0.0,0.0,-0.1398,-0.8811,-0.4060,0.5951,-0.7994,0.0692,0.0447
1391,0.0,0.0,0.0,0.0,0.0,0.0,-0.1534,-0.9049,-0.4000,0.5968,-0.7978,0.0763,0.0394
1392,0.0,0.0,0.0,0.0,0.0,0.0,-0.1690,-0.9238,-0.3997,0.5990,-0.7955,0.0845,0.0345
1393,0.0,0.0,0.0,0.0,0.0,0.0,-0.1744,-0.8951,-0.3963,0.6018,-0.7926,0.0937,0.0293
1394,0.0,0.0,0.0,0.0,0.0,0.0,-0.1500,-0.8869,-0.3963,0.6023,-0.7915,0.1003,0.0264
1395,0.0,0.0,0.0,0.0,0.0,0.0,-0.0982,-0.9342,-0.3848,0.6026,-0.7910,0.1027,0.0256
1396,0.0,0.0,0.0,0.0,0.0,0.0,-0.1187,-0.9429,-0.3901,0.6046,-0.7892,0.1055,0.0216
1397,0.0,0.0,0.0,0.0,0.0,0.0,-0.1284,-0.9637,-0.3846,0.6059,-0.7880,0.1076,0.0180
1398,0.0,0.0,0.0,0.0,0.0,0.0,-0.1295,-0.9390,-0.3754,0.6064,-0.7874,0.1097,0.0174
1399,0.0,0.0,0.0,0.0,0.0,0.0,-0.1334,-0.9172,-0.3716,0.6073,-0.7861,0.1137,0.0165
1400,0.0,0.0,0.0,0.0,0.0,0.0,-0.1241,-0.9215,-0.3834,0.6071,-0.7857,0.1178,0.0151
1401,0.0,0.0,0.0,0.0,0.0,0.0,-0.1002,-0.9181,-0.3884,0.6053,-0.7869,0.1194,0.0143
1402,0.0,0.0,0.0,0.0,0.0,0.0,-0.0816,-0.9327,-0.3975,0.6020,-0.7898,0.1161,0.0173
1403,0.0,0.0,0.0,0.0,0.0,0.0,-0.1163,-0.9327,-0.3754,0.6002,-0.7918,0.1113,0.0211
1404,0.0,0.0,0.0,0.0,0.0,0.0,-0.1168,-0.9332,-0.3876,0.5985,-0.7938,0.1057,0.0243
1405,0.0,0.0,0.0,0.0,0.0,0.0,-0.1304,-0.9493,-0.3693,0.5968,-0.7956,0.1007,0.0266
1406,0.0,0.0,0.0,0.0,0.0,0.0,-0.1480,-0.9169,-0.4163,0.5931,-0.7988,0.0968,0.0282
1407,0.0,0.0,0.0,0.0,0.0,0.0,-0.1271,-0.8606,-0.4212,0.5900,-0.8015,0.0933,0.0283
1408,0.0,0.0,0.0,0.0,0.0,0.0,-0.0860,-0.9097,-0.4248,0.5877,-0.8039,0.0871,0.0277
1409,0.0,0.0,0.0,0.0,0.0,0.0,-0.1030,-0.9309,-0.4372,0.5858,-0.8058,0.0825,0.0270
1410,0.0,0.0,0.0,0.0,0.0,0.0,-0.1220,-0.9407,-0.4222,0.5854,-0.8064,0.0808,0.0240
1411,0.0,0.0,0.0,0.0,0.0,0.0,-0.1504,-0.9150,-0.4084,0.5855,-0.8063,0.0807,0.0212
1412,0.0,0.0,0.0,0.0,0.0,0.0,-0.1089,-0.8887,-0.4320,0.5848,-0.8071,0.0784,0.0221
1413,0.0,0.0,0.0,0.0,0.0,0.0,-0.0971,-0.9241,-0.4434,0.5828,-0.8087,0.0758,0.0238
1414,0.0,0.0,0.0,0.0,0.0,0.0,-0.1105,-0.8679,-0.4156,0.5819,-0.8094,0.0753,0.0238
1415,0.0,0.0,0.0,0.0,0.0,0.0,-0.0832,-0.8188,-0.4358,0.5806,-0.8104,0.0741,0.0241
1416,0.0,0.0,0.0,0.0,0.0,0.0,-0.0642,-0.7732,-0.4478,0.5787,-0.8119,0.0727,0.0238
1417,0.0,0.0,0.0,0.0,0.0,0.0,-0.0676,-0.7789,-0.4542,0.5739,-0.8155,0.0706,0.0260
1418,0.0,0.0,0.0,0.0,0.0,0.0,-0.0715,-0.8574,-0.4050,0.5702,-0.8182,0.0661,0.0328
1419,0.0,0.0,0.0,0.0,0.0,0.0,-0.0937,-0.9456,-0.4302,0.5707,-0.8178,0.0630,0.0389
1420,0.0,0.0,0.0,0.0,0.0,0.0,-0.1159,-1.0390,-0.4643,0.5719,-0.8169,0.0630,0.0401
1421,0.0,0.0,0.0,0.0,0.0,0.0,-0.1518,-0.9614,-0.4365,0.5739,-0.8154,0.0659,0.0391
1422,0.0,0.0,0.0,0.0,0.0,0.0,-0.1509,-0.9007,-0.4471,0.5735,-0.8155,0.0666,0.0403
1423,0.0,0.0,0.0,0.0,0.0,0.0,-0.1205,-0.9318,-0.4483,0.5716,-0.8170,0.0634,0.0423
1424,0.0,0.0,0.0,0.0,0.0,0.0,-0.1068,-0.9518,-0.4405,0.5705,-0.8180,0.0589,0.0433
1425,0.0,0.0,0.0,0.0,0.0,0.0,-0.0893,-0.9464,-0.4536,0.5703,-0.8185,0.0553,0.0421
1426,0.0,0.0,0.0,0.0,0.0,0.0,-0.0786,-0.9085,-0.4666,0.5704,-0.8187,0.0539,0.0383
1427,0.0,0.0,0.0,0.0,0.0,0.0,-0.1118,-0.8968,-0.4584,0.5700,-0.8189,0.0563,0.0351
1428,0.0,0.0,0.0,0.0,0.0,0.0,-0.1211,-0.9192,-0.4432,0.5690,-0.8194,0.0602,0.0340
1429,0.0,0.0,0.0,0.0,0.0,0.0,-0.0898,-0.8900,-0.4589,0.5683,-0.8197,0.0630,0.0337
1430,0.0,0.0,0.0,0.0,0.0,0.0,-0.0752,-0.8716,-0.4664,0.5676,-0.8201,0.0644,0.0325
1431,0.0,0.0,0.0,0.0,0.0,0.0,-0.0761,-0.8870,-0.4857,0.5659,-0.8214,0.0639,0.0307
1432,0.0,0.0,0.0,0.0,0.0,0.0,-0.0835,-0.8642,-0.4852,0.5643,-0.8226,0.0623,0.0300
1433,0.0,0.0,0.0,0.0,0.0,0.0,-0.0869,-0.8433,-0.4863,0.5635,-0.8234,0.0595,0.0308
1434,0.0,0.0,0.0,0.0,0.0,0.0,-0.0913,-0.8691,-0.4644,0.5643,-0.8229,0.0574,0.0320
1435,0.0,0.0,0.0,0.0,0.0,0.0,-0.0904,-0.8887,-0.4409,0.5682,-0.8203,0.0572,0.0307
1436,0.0,0.0,0.0,0.0,0.0,0.0,-0.0932,-0.9182,-0.4506,0.5742,-0.8161,0.0575,0.0310
1437,0.0,0.0,0.0,0.0,0.0,0.0,-0.0916,-0.9676,-0.4788,0.5782,-0.8132,0.0564,0.0349
1438,0.0,0.0,0.0,0.0,0.0,0.0,-0.1156,-0.9425,-0.4524,0.5793,-0.8124,0.0561,0.0366
1439,0.0,0.0,0.0,0.0,0.0,0.0,-0.1206,-0.9260,-0.4419,0.5789,-0.8126,0.0553,0.0389
1440,0.0,0.0,0.0,0.0,0.0,0.0,-0.1157,-0.9047,-0.4303,0.5792,-0.8123,0.0547,0.0406
1441,0.0,0.0,0.0,0.0,0.0,0.0,-0.1133,-0.9145,-0.4281,0.5787,-0.8126,0.0549,0.0420
1442,0.0,0.0,0.0,0.0,0.0,0.0,-0.1118,-0.9377,-0.4373,0.5783,-0.8127,0.0563,0.0428
1443,0.0,0.0,0.0,0.0,0.0,0.0,-0.1235,-0.9274,-0.4570,0.5773,-0.8132,0.0590,0.0444
1444,0.0,0.0,0.0,0.0,0.0,0.0,-0.1357,-0.9012,-0.4413,0.5770,-0.8130,0.0620,0.0465
1445,0.0,0.0,0.0,0.0,0.0,0.0,-0.1363,-0.8794,-0.4390,0.5780,-0.8121,0.0653,0.0455
1446,0.0,0.0,0.0,0.0,0.0,0.0,-0.1240,-0.8895,-0.4577,0.5780,-0.8120,0.0664,0.0460
1447,0.0,0.0,0.0,0.0,0.0,0.0,-0.1367,-0.8891,-0.4460,0.5785,-0.8116,0.0668,0.0476
1448,0.0,0.0,0.0,0.0,0.0,0.0,-0.1470,-0.9003,-0.4403,0.5792,-0.8109,0.0676,0.0490
1449,0.0,0.0,0.0,0.0,0.0,0.0,-0.1475,-0.9183,-0.4289,0.5803,-0.8100,0.0689,0.0498
1450,0.0,0.0,0.0,0.0,0.0,0.0,-0.1479,-0.9285,-0.4272,0.5815,-0.8089,0.0707,0.0510
1451,0.0,0.0,0.0,0.0,0.0,0.0,-0.1362,-0.9421,-0.4260,0.5828,-0.8077,0.0719,0.0533
1452,0.0,0.0,0.0,0.0,0.0,0.0,-0.1490,-0.9272,-0.4057,0.5855,-0.8055,0.0739,0.0538
1453,0.0,0.0,0.0,0.0,0.0,0.0,-0.1558,-0.9296,-0.4067,0.5890,-0.8027,0.0756,0.0543
1454,0.0,0.0,0.0,0.0,0.0,0.0,-0.1714,-0.9262,-0.4056,0.5925,-0.7999,0.0765,0.0566
1455,0.0,0.0,0.0,0.0,0.0,0.0,-0.1602,-0.9223,-0.4061,0.5954,-0.7976,0.0766,0.0595
1456,0.0,0.0,0.0,0.0,0.0,0.0,-0.1382,-0.9087,-0.4123,0.5979,-0.7956,0.0760,0.0620
1457,0.0,0.0,0.0,0.0,0.0,0.0,-0.1221,-0.8975,-0.4166,0.5997,-0.7942,0.0752,0.0630
1458,0.0,0.0,0.0,0.0,0.0,0.0,-0.1227,-0.8718,-0.4205,0.6008,-0.7935,0.0753,0.0617
1459,0.0,0.0,0.0,0.0,0.0,0.0,-0.1291,-0.8587,-0.4085,0.6010,-0.7934,0.0758,0.0605
1460,0.0,0.0,0.0,0.0,0.0,0.0,-0.1437,-0.8719,-0.3946,0.6011,-0.7932,0.0771,0.0601
1461,0.0,0.0,0.0,0.0,0.0,0.0,-0.1578,-0.8982,-0.3833,0.6016,-0.7927,0.0788,0.0592
1462,0.0,0.0,0.0,0.0,0.0,0.0,-0.1553,-0.9336,-0.3835,0.6012,-0.7929,0.0798,0.0585
1463,0.0,0.0,0.0,0.0,0.0,0.0,-0.1705,-0.9269,-0.3706,0.6018,-0.7924,0.0813,0.0573
1464,0.0,0.0,0.0,0.0,0.0,0.0,-0.1675,-0.9380,-0.3810,0.6015,-0.7926,0.0813,0.0585
1465,0.0,0.0,0.0,0.0,0.0,0.0,-0.1666,-0.9263,-0.3823,0.6014,-0.7926,0.0810,0.0595
1466,0.0,0.0,0.0,0.0,0.0,0.0,-0.1671,-0.9186,-0.3753,0.6023,-0.7919,0.0810,0.0596
1467,0.0,0.0,0.0,0.0,0.0,0.0,-0.1627,-0.9196,-0.3749,0.6025,-0.7918,0.0808,0.0594
1468,0.0,0.0,0.0,0.0,0.0,0.0,-0.1539,-0.9195,-0.3837,0.6024,-0.7919,0.0804,0.0593
1469,0.0,0.0,0.0,0.0,0.0,0.0,-0.1495,-0.9170,-0.3978,0.6015,-0.7926,0.0794,0.0605
1470,0.0,0.0,0.0,0.0,0.0,0.0,-0.1451,-0.8928,-0.3979,0.5998,-0.7940,0.0780,0.0614
1471,0.0,0.0,0.0,0.0,0.0,0.0,-0.1593,-0.8714,-0.3930,0.5986,-0.7951,0.0770,0.0606
1472,0.0,0.0,0.0,0.0,0.0,0.0,-0.1559,-0.8777,-0.3990,0.5970,-0.7965,0.0753,0.0597
1473,0.0,0.0,0.0,0.0,0.0,0.0,-0.1373,-0.8941,-0.4101,0.5943,-0.7988,0.0717,0.0600
1474,0.0,0.0,0.0,0.0,0.0,0.0,-0.1383,-0.9058,-0.4025,0.5915,-0.8012,0.0680,0.0598
1475,0.0,0.0,0.0,0.0,0.0,0.0,-0.1299,-0.9140,-0.4149,0.5879,-0.8042,0.0635,0.0604
1476,0.0,0.0,0.0,0.0,0.0,0.0,-0.1319,-0.9145,-0.4163,0.5833,-0.8078,0.0584,0.0620
1477,0.0,0.0,0.0,0.0,0.0,0.0,-0.1382,-0.9120,-0.4235,0.5790,-0.8111,0.0536,0.0638
1478,0.0,0.0,0.0,0.0,0.0,0.0,-0.1514,-0.9280,-0.4237,0.5758,-0.8134,0.0498,0.0659
1479,0.0,0.0,0.0,0.0,0.0,0.0,-0.1411,-0.9192,-0.4377,0.5723,-0.8159,0.0462,0.0680
1480,0.0,0.0,0.0,0.0,0.0,0.0,-0.1343,-0.9114,-0.4425,0.5683,-0.8187,0.0420,0.0711
1481,0.0,0.0,0.0,0.0,0.0,0.0,-0.1328,-0.9080,-0.4488,0.5649,-0.8211,0.0382,0.0731
1482,0.0,0.0,0.0,0.0,0.0,0.0,-0.1338,-0.9007,-0.4530,0.5622,-0.8228,0.0348,0.0751
1483,0.0,0.0,0.0,0.0,0.0,0.0,-0.1440,-0.9079,-0.4604,0.5596,-0.8245,0.0322,0.0775
1484,0.0,0.0,0.0,0.0,0.0,0.0,-0.1552,-0.9211,-0.4450,0.5581,-0.8254,0.0314,0.0787
1485,0.0,0.0,0.0,0.0,0.0,0.0,-0.1688,-0.9433,-0.4682,0.5562,-0.8265,0.0327,0.0801
1486,0.0,0.0,0.0,0.0,0.0,0.0,-0.1874,-0.9322,-0.4513,0.5562,-0.8263,0.0369,0.0810
1487,0.0,0.0,0.0,0.0,0.0,0.0,-0.1938,-0.9187,-0.4340,0.5589,-0.8241,0.0416,0.0818
1488,0.0,0.0,0.0,0.0,0.0,0.0,-0.1708,-0.9239,-0.4571,0.5625,-0.8213,0.0440,0.0842
1489,0.0,0.0,0.0,0.0,0.0,0.0,-0.1689,-0.8918,-0.4638,0.5681,-0.8171,0.0460,0.0870
1490,0.0,0.0,0.0,0.0,0.0,0.0,-0.1831,-0.8476,-0.4713,0.5734,-0.8131,0.0481,0.0881
1491,0.0,0.0,0.0,0.0,0.0,0.0,-0.1866,-0.8305,-0.4748,0.5756,-0.8114,0.0495,0.0888
1492,0.0,0.0,0.0,0.0,0.0,0.0,-0.1412,-0.8379,-0.4747,0.5744,-0.8120,0.0474,0.0922
1493,0.0,0.0,0.0,0.0,0.0,0.0,-0.1324,-0.8492,-0.4575,0.5730,-0.8128,0.0463,0.0939
1494,0.0,0.0,0.0,0.0,0.0,0.0,-0.1655,-0.8568,-0.4769,0.5710,-0.8142,0.0484,0.0927
1495,0.0,0.0,0.0,0.0,0.0,0.0,-0.1851,-0.8393,-0.4760,0.5674,-0.8170,0.0505,0.0898
1496,0.0,0.0,0.0,0.0,0.0,0.0,-0.1831,-0.8378,-0.4803,0.5612,-0.8213,0.0503,0.0890
1497,0.0,0.0,0.0,0.0,0.0,0.0,-0.1392,-0.8583,-0.4746,0.5550,-0.8255,0.0462,0.0913
1498,0.0,0.0,0.0,0.0,0.0,0.0,-0.1440,-0.9212,-0.4329,0.5521,-0.8276,0.0413,0.0923
1499,0.0,0.0,0.0,0.0,0.0,0.0,-0.2166,-1.0401,-0.4117,0.5534,-0.8267,0.0410,0.0934
1500,0.0,0.0,0.0,0.0,0.0,0.0,-0.2264,-0.9485,-0.4616,0.5575,-0.8237,0.0448,0.0929
1501,0.0,0.0,0.0,0.0,0.0,0.0,-0.2232,-0.8779,-0.4220,0.5645,-0.8188,0.0484,0.0926
1502,0.0,0.0,0.0,0.0,0.0,0.0,-0.2012,-0.9055,-0.4420,0.5706,-0.8141,0.0497,0.0959
1503,0.0,0.0,0.0,0.0,0.0,0.0,-0.1860,-0.9278,-0.4522,0.5775,-0.8088,0.0524,0.0979
1504,0.0,0.0,0.0,0.0,0.0,0.0,-0.1963,-0.8544,-0.4553,0.5826,-0.8048,0.0556,0.0990
1505,0.0,0.0,0.0,0.0,0.0,0.0,-0.1856,-0.8404,-0.4468,0.5842,-0.8036,0.0564,0.0990
1506,0.0,0.0,0.0,0.0,0.0,0.0,-0.1886,-0.8440,-0.4259,0.5856,-0.8026,0.0584,0.0975
1507,0.0,0.0,0.0,0.0,0.0,0.0,-0.1690,-0.8624,-0.4269,0.5862,-0.8020,0.0606,0.0977
1508,0.0,0.0,0.0,0.0,0.0,0.0,-0.1710,-0.8891,-0.4244,0.5868,-0.8016,0.0638,0.0951
1509,0.0,0.0,0.0,0.0,0.0,0.0,-0.1695,-0.9115,-0.4185,0.5869,-0.8019,0.0666,0.0899
1510,0.0,0.0,0.0,0.0,0.0,0.0,-0.1758,-0.9096,-0.4097,0.5880,-0.8015,0.0699,0.0841
1511,0.0,0.0,0.0,0.0,0.0,0.0,-0.1827,-0.8931,-0.4142,0.5885,-0.8013,0.0727,0.0796
1512,0.0,0.0,0.0,0.0,0.0,0.0,-0.1636,-0.8877,-0.4244,0.5874,-0.8024,0.0725,0.0763
1513,0.0,0.0,0.0,0.0,0.0,0.0,-0.1495,-0.8487,-0.4486,0.5857,-0.8042,0.0719,0.0705
1514,0.0,0.0,0.0,0.0,0.0,0.0,-0.1670,-0.8613,-0.4546,0.5861,-0.8047,0.0756,0.0570
1515,0.0,0.0,0.0,0.0,0.0,0.0,-0.2807,-0.9667,-0.4106,0.5908,-0.8012,0.0886,0.0341
1516,0.0,0.0,0.0,0.0,0.0,0.0,-0.3158,-1.0866,-0.3250,0.5948,-0.7970,0.1033,0.0166
1517,0.0,0.0,0.0,0.0,0.0,0.0,-0.1502,-1.0822,-0.3827,0.5963,-0.7952,0.1089,0.0138
1518,0.0,0.0,0.0,0.0,0.0,0.0,-0.1535,-0.9095,-0.3543,0.6015,-0.7901,0.1177,0.0071
1519,0.0,0.0,0.0,0.0,0.0,0.0,-0.1878,-0.8444,-0.3550,0.6028,-0.7880,0.1255,0.0020
1520,0.0,0.0,0.0,0.0,0.0,0.0,-0.0744,-0.8778,-0.3951,0.5992,-0.7907,0.1254,0.0022
1521,0.0,0.0,0.0,0.0,0.0,0.0,-0.0582,-0.8680,-0.4266,0.5931,-0.7952,0.1255,0.0073
1522,0.0,0.0,0.0,0.0,0.0,0.0,-0.0793,-0.8565,-0.3922,0.5885,-0.7977,0.1315,0.0049
1523,0.0,0.0,0.0,0.0,0.0,0.0,-0.1120,-0.8611,-0.4169,0.5849,-0.7993,0.1377,-0.0050
1524,0.0,0.0,0.0,0.0,0.0,0.0,-0.1216,-0.9003,-0.4390,0.5803,-0.8017,0.1429,-0.0088
1525,0.0,0.0,0.0,0.0,0.0,0.0,-0.1181,-0.9265,-0.4497,0.5749,-0.8054,0.1445,-0.0064
1526,0.0,0.0,0.0,0.0,0.0,0.0,-0.0913,-0.9222,-0.4337,0.5710,-0.8081,0.1445,-0.0095
1527,0.0,0.0,0.0,0.0,0.0,0.0,-0.1132,-0.9289,-0.4565,0.5694,-0.8089,0.1459,-0.0121
1528,0.0,0.0,0.0,0.0,0.0,0.0,-0.0903,-0.9144,-0.4457,0.5675,-0.8098,0.1486,-0.0131
1529,0.0,0.0,0.0,0.0,0.0,0.0,-0.0864,-0.8993,-0.4518,0.5667,-0.8102,0.1487,-0.0166
1530,0.0,0.0,0.0,0.0,0.0,0.0,-0.0645,-0.9145,-0.4396,0.5675,-0.8099,0.1474,-0.0177
1531,0.0,0.0,0.0,0.0,0.0,0.0,-0.0523,-0.9263,-0.4223,0.5709,-0.8077,0.1460,-0.0176
1532,0.0,0.0,0.0,0.0,0.0,0.0,-0.0591,-0.9351,-0.4006,0.5783,-0.8027,0.1443,-0.0197
1533,0.0,0.0,0.0,0.0,0.0,0.0,-0.1265,-0.9277,-0.4112,0.5874,-0.7964,0.1427,-0.0187
1534,0.0,0.0,0.0,0.0,0.0,0.0,-0.1836,-0.9149,-0.4224,0.5954,-0.7908,0.1410,-0.0135
1535,0.0,0.0,0.0,0.0,0.0,0.0,-0.2027,-0.9071,-0.4236,0.6023,-0.7866,0.1357,-0.0013
1536,0.0,0.0,0.0,0.0,0.0,0.0,-0.1953,-0.9304,-0.4206,0.6055,-0.7852,0.1290,0.0117
1537,0.0,0.0,0.0,0.0,0.0,0.0,-0.2065,-0.9436,-0.4067,0.6048,-0.7863,0.1254,0.0163
1538,0.0,0.0,0.0,0.0,0.0,0.0,-0.2261,-0.9570,-0.3509,0.6049,-0.7862,0.1255,0.0157
1539,0.0,0.0,0.0,0.0,0.0,0.0,-0.1582,-0.9437,-0.3982,0.6040,-0.7868,0.1261,0.0152
1540,0.0,0.0,0.0,0.0,0.0,0.0,-0.1275,-0.9302,-0.3977,0.6045,-0.7861,0.1283,0.0142
1541,0.0,0.0,0.0,0.0,0.0,0.0,-0.1296,-0.8837,-0.3764,0.6050,-0.7853,0.1311,0.0136
1542,0.0,0.0,0.0,0.0,0.0,0.0,-0.1133,-0.9258,-0.4001,0.6040,-0.7858,0.1323,0.0150
1543,0.0,0.0,0.0,0.0,0.0,0.0,-0.1280,-0.9195,-0.3965,0.6040,-0.7856,0.1336,0.0150
1544,0.0,0.0,0.0,0.0,0.0,0.0,-0.1407,-0.9064,-0.3928,0.6032,-0.7861,0.1340,0.0146
1545,0.0,0.0,0.0,0.0,0.0,0.0,-0.1319,-0.9054,-0.3943,0.6009,-0.7882,0.1313,0.0173
1546,0.0,0.0,0.0,0.0,0.0,0.0,-0.1246,-0.9034,-0.4074,0.5991,-0.7901,0.1281,0.0210
1547,0.0,0.0,0.0,0.0,0.0,0.0,-0.1422,-0.8894,-0.3968,0.5985,-0.7908,0.1265,0.0215
1548,0.0,0.0,0.0,0.0,0.0,0.0,-0.1388,-0.8718,-0.4126,0.5971,-0.7921,0.1247,0.0220
1549,0.0,0.0,0.0,0.0,0.0,0.0,-0.1231,-0.8849,-0.4134,0.5953,-0.7939,0.1215,0.0247
1550,0.0,0.0,0.0,0.0,0.0,0.0,-0.1295,-0.8809,-0.4352,0.5928,-0.7962,0.1178,0.0280
1551,0.0,0.0,0.0,0.0,0.0,0.0,-0.1202,-0.8499,-0.4313,0.5895,-0.7992,0.1128,0.0320
1552,0.0,0.0,0.0,0.0,0.0,0.0,-0.1189,-0.8341,-0.3936,0.5889,-0.8005,0.1051,0.0382
1553,0.0,0.0,0.0,0.0,0.0,0.0,-0.1367,-0.9422,-0.4100,0.5893,-0.8009,0.0950,0.0473
1554,0.0,0.0,0.0,0.0,0.0,0.0,-0.1871,-1.0385,-0.2850,0.5900,-0.8008,0.0896,0.0516
1555,0.0,0.0,0.0,0.0,0.0,0.0,-0.2109,-1.0132,-0.3685,0.5892,-0.8013,0.0893,0.0526
1556,0.0,0.0,0.0,0.0,0.0,0.0,-0.1900,-0.9023,-0.4143,0.5895,-0.8009,0.0904,0.0538
1557,0.0,0.0,0.0,0.0,0.0,0.0,-0.1886,-0.8800,-0.4091,0.5907,-0.7998,0.0915,0.0540
1558,0.0,0.0,0.0,0.0,0.0,0.0,-0.1612,-0.9112,-0.3952,0.5919,-0.7991,0.0898,0.0557
1559,0.0,0.0,0.0,0.0,0.0,0.0,-0.1274,-0.9275,-0.4292,0.5928,-0.7986,0.0862,0.0589
1560,0.0,0.0,0.0,0.0,0.0,0.0,-0.1255,-0.9237,-0.4180,0.5948,-0.7972,0.0832,0.0607
