,Position_X,Position_Y,Position_Z,Velocity_X,Velocity_Y,Velocity_Z,Acceleration_X,Acceleration_Y,Acceleration_Z,Quaterion_0,Quaterion_1,Quaterion_2,Quaterion_3
90,0.0,0.0,0.0,0.0,0.0,0.0,-0.2799,-0.9331,-0.1197,0.6984,-0.6919,0.1718,0.0633
91,0.0,0.0,0.0,0.0,0.0,0.0,-0.2257,-0.9134,-0.1299,0.6979,-0.6931,0.1689,0.0630
92,0.0,0.0,0.0,0.0,0.0,0.0,-0.2799,-0.9671,-0.1182,0.6971,-0.6946,0.1667,0.0617
93,0.0,0.0,0.0,0.0,0.0,0.0,-0.3664,-0.9478,-0.0960,0.6958,-0.6959,0.1673,0.0605
94,0.0,0.0,0.0,0.0,0.0,0.0,-0.3546,-0.9620,-0.1067,0.6967,-0.6943,0.1705,0.0593
95,0.0,0.0,0.0,0.0,0.0,0.0,-0.2862,-0.9603,-0.1066,0.6966,-0.6942,0.1718,0.0584
96,0.0,0.0,0.0,0.0,0.0,0.0,-0.2892,-0.9379,-0.1144,0.6964,-0.6945,0.1711,0.0585
97,0.0,0.0,0.0,0.0,0.0,0.0,-0.3214,-0.9563,-0.1047,0.6964,-0.6946,0.1704,0.0601
98,0.0,0.0,0.0,0.0,0.0,0.0,-0.3028,-0.9481,-0.0959,0.6966,-0.6945,0.1690,0.0624
99,0.0,0.0,0.0,0.0,0.0,0.0,-0.3082,-0.9422,-0.1095,0.6969,-0.6943,0.1678,0.0648
100,0.0,0.0,0.0,0.0,0.0,0.0,-0.3116,-0.9510,-0.0910,0.6973,-0.6938,0.1672,0.0666
101,0.0,0.0,0.0,0.0,0.0,0.0,-0.2887,-0.9374,-0.0954,0.6980,-0.6932,0.1667,0.0673
102,0.0,0.0,0.0,0.0,0.0,0.0,-0.2946,-0.9316,-0.1061,0.6981,-0.6929,0.1673,0.0670
103,0.0,0.0,0.0,0.0,0.0,0.0,-0.3077,-0.9369,-0.0876,0.6986,-0.6922,0.1684,0.0661
104,0.0,0.0,0.0,0.0,0.0,0.0,-0.2994,-0.9340,-0.0988,0.6991,-0.6916,0.1693,0.0652
105,0.0,0.0,0.0,0.0,0.0,0.0,-0.2980,-0.9311,-0.0998,0.6991,-0.6916,0.1695,0.0651
106,0.0,0.0,0.0,0.0,0.0,0.0,-0.3019,-0.9316,-0.0944,0.6993,-0.6916,0.1684,0.0660
107,0.0,0.0,0.0,0.0,0.0,0.0,-0.3048,-0.9335,-0.0959,0.6992,-0.6919,0.1671,0.0673
108,0.0,0.0,0.0,0.0,0.0,0.0,-0.3043,-0.9359,-0.0925,0.6990,-0.6921,0.1662,0.0685
109,0.0,0.0,0.0,0.0,0.0,0.0,-0.3038,-0.9413,-0.0905,0.6991,-0.6922,0.1657,0.0691
110,0.0,0.0,0.0,0.0,0.0,0.0,-0.3043,-0.9432,-0.0920,0.6991,-0.6921,0.1659,0.0686
111,0.0,0.0,0.0,0.0,0.0,0.0,-0.3048,-0.9398,-0.0939,0.6990,-0.6920,0.1668,0.0677
112,0.0,0.0,0.0,0.0,0.0,0.0,-0.3063,-0.9398,-0.0949,0.6991,-0.6918,0.1682,0.0665
113,0.0,0.0,0.0,0.0,0.0,0.0,-0.3063,-0.9461,-0.0959,0.6992,-0.6915,0.1692,0.0656
114,0.0,0.0,0.0,0.0,0.0,0.0,-0.3102,-0.9442,-0.0969,0.6992,-0.6915,0.1692,0.0658
115,0.0,0.0,0.0,0.0,0.0,0.0,-0.3126,-0.9403,-0.0993,0.6992,-0.6915,0.1688,0.0668
116,0.0,0.0,0.0,0.0,0.0,0.0,-0.3102,-0.9398,-0.1008,0.6992,-0.6915,0.1683,0.0681
117,0.0,0.0,0.0,0.0,0.0,0.0,-0.3038,-0.9335,-0.1086,0.6990,-0.6917,0.1677,0.0692
118,0.0,0.0,0.0,0.0,0.0,0.0,-0.2760,-0.9108,-0.1280,0.6977,-0.6931,0.1671,0.0697
119,0.0,0.0,0.0,0.0,0.0,0.0,-0.2223,-0.8911,-0.1308,0.6970,-0.6945,0.1646,0.0687
120,0.0,0.0,0.0,0.0,0.0,0.0,-0.2799,-0.9923,-0.1158,0.6963,-0.6960,0.1626,0.0662
121,0.0,0.0,0.0,0.0,0.0,0.0,-0.3874,-0.9385,-0.0775,0.6950,-0.6972,0.1638,0.0638
122,0.0,0.0,0.0,0.0,0.0,0.0,-0.3801,-0.9323,-0.1228,0.6962,-0.6950,0.1685,0.0623
123,0.0,0.0,0.0,0.0,0.0,0.0,-0.2701,-0.9632,-0.1060,0.6960,-0.6950,0.1700,0.0614
124,0.0,0.0,0.0,0.0,0.0,0.0,-0.2506,-0.9327,-0.1167,0.6960,-0.6955,0.1673,0.0620
125,0.0,0.0,0.0,0.0,0.0,0.0,-0.2897,-0.9331,-0.1266,0.6949,-0.6972,0.1643,0.0631
126,0.0,0.0,0.0,0.0,0.0,0.0,-0.3400,-0.9669,-0.1013,0.6939,-0.6983,0.1629,0.0653
127,0.0,0.0,0.0,0.0,0.0,0.0,-0.3238,-0.9737,-0.0769,0.6944,-0.6980,0.1613,0.0676
128,0.0,0.0,0.0,0.0,0.0,0.0,-0.2813,-0.9511,-0.1090,0.6949,-0.6976,0.1607,0.0684
129,0.0,0.0,0.0,0.0,0.0,0.0,-0.2828,-0.9423,-0.1114,0.6944,-0.6981,0.1610,0.0681
130,0.0,0.0,0.0,0.0,0.0,0.0,-0.3009,-0.9510,-0.0856,0.6948,-0.6975,0.1617,0.0673
131,0.0,0.0,0.0,0.0,0.0,0.0,-0.3028,-0.9500,-0.1003,0.6954,-0.6968,0.1629,0.0663
132,0.0,0.0,0.0,0.0,0.0,0.0,-0.2940,-0.9408,-0.1002,0.6956,-0.6964,0.1636,0.0660
133,0.0,0.0,0.0,0.0,0.0,0.0,-0.2867,-0.9340,-0.0988,0.6960,-0.6961,0.1628,0.0668
134,0.0,0.0,0.0,0.0,0.0,0.0,-0.2926,-0.9374,-0.0983,0.6963,-0.6961,0.1610,0.0684
135,0.0,0.0,0.0,0.0,0.0,0.0,-0.3033,-0.9369,-0.0925,0.6965,-0.6961,0.1597,0.0699
136,0.0,0.0,0.0,0.0,0.0,0.0,-0.3014,-0.9422,-0.0915,0.6968,-0.6958,0.1587,0.0710
137,0.0,0.0,0.0,0.0,0.0,0.0,-0.3023,-0.9432,-0.0891,0.6975,-0.6952,0.1588,0.0711
138,0.0,0.0,0.0,0.0,0.0,0.0,-0.3029,-0.9330,-0.1008,0.6978,-0.6946,0.1599,0.0702
139,0.0,0.0,0.0,0.0,0.0,0.0,-0.2989,-0.9359,-0.0998,0.6980,-0.6943,0.1612,0.0690
140,0.0,0.0,0.0,0.0,0.0,0.0,-0.3067,-0.9456,-0.0949,0.6984,-0.6937,0.1626,0.0682
141,0.0,0.0,0.0,0.0,0.0,0.0,-0.3116,-0.9446,-0.0988,0.6987,-0.6931,0.1634,0.0685
142,0.0,0.0,0.0,0.0,0.0,0.0,-0.3102,-0.9451,-0.1008,0.6987,-0.6931,0.1632,0.0700
143,0.0,0.0,0.0,0.0,0.0,0.0,-0.3097,-0.9412,-0.1008,0.6985,-0.6931,0.1625,0.0723
144,0.0,0.0,0.0,0.0,0.0,0.0,-0.2965,-0.9262,-0.1115,0.6984,-0.6933,0.1614,0.0745
145,0.0,0.0,0.0,0.0,0.0,0.0,-0.2809,-0.9253,-0.1280,0.6972,-0.6945,0.1605,0.0763
146,0.0,0.0,0.0,0.0,0.0,0.0,-0.2056,-0.9086,-0.1201,0.6971,-0.6953,0.1572,0.0766
147,0.0,0.0,0.0,0.0,0.0,0.0,-0.1900,-0.9509,-0.1269,0.6966,-0.6971,0.1527,0.0742
148,0.0,0.0,0.0,0.0,0.0,0.0,-0.3645,-0.9187,-0.1096,0.6940,-0.6999,0.1525,0.0722
149,0.0,0.0,0.0,0.0,0.0,0.0,-0.3884,-0.9463,-0.1024,0.6946,-0.6987,0.1563,0.0699
150,0.0,0.0,0.0,0.0,0.0,0.0,-0.2926,-0.9714,-0.1163,0.6938,-0.6988,0.1605,0.0676
151,0.0,0.0,0.0,0.0,0.0,0.0,-0.2496,-0.9439,-0.1318,0.6925,-0.7003,0.1600,0.0668
152,0.0,0.0,0.0,0.0,0.0,0.0,-0.2574,-0.9240,-0.1372,0.6910,-0.7024,0.1571,0.0667
153,0.0,0.0,0.0,0.0,0.0,0.0,-0.3283,-0.9363,-0.1427,0.6883,-0.7053,0.1556,0.0673
154,0.0,0.0,0.0,0.0,0.0,0.0,-0.3522,-0.9688,-0.1047,0.6869,-0.7068,0.1545,0.0694
155,0.0,0.0,0.0,0.0,0.0,0.0,-0.3224,-0.9601,-0.1081,0.6869,-0.7065,0.1545,0.0711
156,0.0,0.0,0.0,0.0,0.0,0.0,-0.3004,-0.9350,-0.1412,0.6863,-0.7069,0.1554,0.0716
157,0.0,0.0,0.0,0.0,0.0,0.0,-0.3122,-0.9446,-0.1271,0.6857,-0.7073,0.1562,0.0721
158,0.0,0.0,0.0,0.0,0.0,0.0,-0.3121,-0.9558,-0.1237,0.6853,-0.7073,0.1572,0.0724
159,0.0,0.0,0.0,0.0,0.0,0.0,-0.3029,-0.9369,-0.1295,0.6848,-0.7076,0.1580,0.0728
160,0.0,0.0,0.0,0.0,0.0,0.0,-0.2863,-0.9200,-0.1344,0.6841,-0.7084,0.1570,0.0742
161,0.0,0.0,0.0,0.0,0.0,0.0,-0.2887,-0.9272,-0.1387,0.6830,-0.7097,0.1547,0.0762
162,0.0,0.0,0.0,0.0,0.0,0.0,-0.3058,-0.9549,-0.1212,0.6822,-0.7107,0.1525,0.0785
163,0.0,0.0,0.0,0.0,0.0,0.0,-0.3004,-0.9539,-0.1134,0.6822,-0.7109,0.1507,0.0808
164,0.0,0.0,0.0,0.0,0.0,0.0,-0.2652,-0.9312,-0.1280,0.6826,-0.7107,0.1493,0.0820
165,0.0,0.0,0.0,0.0,0.0,0.0,-0.2457,-0.9196,-0.1357,0.6830,-0.7107,0.1478,0.0817
166,0.0,0.0,0.0,0.0,0.0,0.0,-0.2653,-0.9268,-0.1363,0.6830,-0.7110,0.1468,0.0804
167,0.0,0.0,0.0,0.0,0.0,0.0,-0.2887,-0.9404,-0.1285,0.6833,-0.7109,0.1468,0.0787
168,0.0,0.0,0.0,0.0,0.0,0.0,-0.2960,-0.9510,-0.1295,0.6837,-0.7106,0.1470,0.0773
169,0.0,0.0,0.0,0.0,0.0,0.0,-0.2945,-0.9559,-0.1241,0.6842,-0.7102,0.1469,0.0768
170,0.0,0.0,0.0,0.0,0.0,0.0,-0.2911,-0.9622,-0.1222,0.6853,-0.7092,0.1466,0.0768
171,0.0,0.0,0.0,0.0,0.0,0.0,-0.2818,-0.9574,-0.1217,0.6867,-0.7079,0.1460,0.0772
172,0.0,0.0,0.0,0.0,0.0,0.0,-0.2760,-0.9365,-0.1353,0.6879,-0.7068,0.1454,0.0776
173,0.0,0.0,0.0,0.0,0.0,0.0,-0.2785,-0.9292,-0.1397,0.6887,-0.7061,0.1450,0.0774
174,0.0,0.0,0.0,0.0,0.0,0.0,-0.2867,-0.9384,-0.1290,0.6894,-0.7055,0.1455,0.0765
175,0.0,0.0,0.0,0.0,0.0,0.0,-0.2980,-0.9389,-0.1251,0.6901,-0.7047,0.1466,0.0750
176,0.0,0.0,0.0,0.0,0.0,0.0,-0.3058,-0.9510,-0.1183,0.6911,-0.7036,0.1480,0.0734
177,0.0,0.0,0.0,0.0,0.0,0.0,-0.3038,-0.9573,-0.1163,0.6924,-0.7022,0.1492,0.0721
178,0.0,0.0,0.0,0.0,0.0,0.0,-0.2912,-0.9234,-0.1261,0.6930,-0.7017,0.1495,0.0711
179,0.0,0.0,0.0,0.0,0.0,0.0,-0.2912,-0.9088,-0.1334,0.6928,-0.7020,0.1490,0.0704
180,0.0,0.0,0.0,0.0,0.0,0.0,-0.3141,-0.9262,-0.1222,0.6922,-0.7028,0.1484,0.0701
181,0.0,0.0,0.0,0.0,0.0,0.0,-0.3165,-0.9417,-0.1188,0.6912,-0.7039,0.1476,0.0700
182,0.0,0.0,0.0,0.0,0.0,0.0,-0.3063,-0.9617,-0.1198,0.6897,-0.7056,0.1469,0.0697
183,0.0,0.0,0.0,0.0,0.0,0.0,-0.3072,-0.9898,-0.0890,0.6906,-0.7047,0.1473,0.0693
184,0.0,0.0,0.0,0.0,0.0,0.0,-0.2891,-0.9962,-0.0798,0.6926,-0.7026,0.1481,0.0690
185,0.0,0.0,0.0,0.0,0.0,0.0,-0.2848,-0.9627,-0.1041,0.6956,-0.6994,0.1488,0.0692
186,0.0,0.0,0.0,0.0,0.0,0.0,-0.2789,-0.9457,-0.1129,0.6981,-0.6967,0.1497,0.0695
187,0.0,0.0,0.0,0.0,0.0,0.0,-0.2750,-0.9336,-0.1080,0.7004,-0.6940,0.1510,0.0700
188,0.0,0.0,0.0,0.0,0.0,0.0,-0.2545,-0.9410,-0.1231,0.7024,-0.6919,0.1512,0.0710
189,0.0,0.0,0.0,0.0,0.0,0.0,-0.2525,-0.9249,-0.1250,0.7024,-0.6921,0.1498,0.0720
190,0.0,0.0,0.0,0.0,0.0,0.0,-0.2731,-0.9161,-0.1231,0.7013,-0.6934,0.1487,0.0727
191,0.0,0.0,0.0,0.0,0.0,0.0,-0.2843,-0.9287,-0.1280,0.6990,-0.6958,0.1483,0.0726
192,0.0,0.0,0.0,0.0,0.0,0.0,-0.2873,-0.9156,-0.1334,0.6952,-0.6996,0.1483,0.0725
193,0.0,0.0,0.0,0.0,0.0,0.0,-0.2653,-0.9230,-0.1329,0.6916,-0.7033,0.1479,0.0716
194,0.0,0.0,0.0,0.0,0.0,0.0,-0.2692,-0.9599,-0.1431,0.6879,-0.7074,0.1462,0.0709
195,0.0,0.0,0.0,0.0,0.0,0.0,-0.3111,-0.9553,-0.1051,0.6849,-0.7106,0.1445,0.0708
196,0.0,0.0,0.0,0.0,0.0,0.0,-0.2799,-0.9462,-0.1304,0.6842,-0.7115,0.1436,0.0703
197,0.0,0.0,0.0,0.0,0.0,0.0,-0.2653,-0.9511,-0.1509,0.6829,-0.7130,0.1422,0.0709
198,0.0,0.0,0.0,0.0,0.0,0.0,-0.2828,-0.9545,-0.1270,0.6822,-0.7140,0.1403,0.0721
199,0.0,0.0,0.0,0.0,0.0,0.0,-0.2819,-0.9608,-0.1387,0.6820,-0.7142,0.1392,0.0732
200,0.0,0.0,0.0,0.0,0.0,0.0,-0.2686,-0.9652,-0.1304,0.6821,-0.7142,0.1387,0.0737
201,0.0,0.0,0.0,0.0,0.0,0.0,-0.2789,-0.9588,-0.1338,0.6827,-0.7135,0.1390,0.0737
202,0.0,0.0,0.0,0.0,0.0,0.0,-0.2901,-0.9700,-0.1197,0.6840,-0.7121,0.1401,0.0739
203,0.0,0.0,0.0,0.0,0.0,0.0,-0.2911,-0.9641,-0.1188,0.6860,-0.7098,0.1419,0.0737
204,0.0,0.0,0.0,0.0,0.0,0.0,-0.2950,-0.9549,-0.1344,0.6874,-0.7080,0.1440,0.0740
205,0.0,0.0,0.0,0.0,0.0,0.0,-0.2936,-0.9670,-0.1178,0.6884,-0.7067,0.1453,0.0749
206,0.0,0.0,0.0,0.0,0.0,0.0,-0.2755,-0.9263,-0.1324,0.6885,-0.7063,0.1457,0.0764
207,0.0,0.0,0.0,0.0,0.0,0.0,-0.2570,-0.8992,-0.1601,0.6871,-0.7077,0.1448,0.0781
208,0.0,0.0,0.0,0.0,0.0,0.0,-0.2579,-0.9191,-0.1445,0.6847,-0.7103,0.1426,0.0799
209,0.0,0.0,0.0,0.0,0.0,0.0,-0.2702,-0.9191,-0.1368,0.6822,-0.7132,0.1396,0.0810
210,0.0,0.0,0.0,0.0,0.0,0.0,-0.2701,-0.9365,-0.1309,0.6802,-0.7155,0.1370,0.0813
211,0.0,0.0,0.0,0.0,0.0,0.0,-0.2637,-0.9589,-0.1148,0.6797,-0.7163,0.1363,0.0802
212,0.0,0.0,0.0,0.0,0.0,0.0,-0.2736,-0.9346,-0.1373,0.6800,-0.7159,0.1376,0.0780
213,0.0,0.0,0.0,0.0,0.0,0.0,-0.2848,-0.9375,-0.1592,0.6804,-0.7155,0.1389,0.0760
214,0.0,0.0,0.0,0.0,0.0,0.0,-0.2862,-0.9685,-0.1304,0.6809,-0.7151,0.1394,0.0750
215,0.0,0.0,0.0,0.0,0.0,0.0,-0.2760,-0.9487,-0.1329,0.6822,-0.7138,0.1397,0.0743
216,0.0,0.0,0.0,0.0,0.0,0.0,-0.2697,-0.9370,-0.1597,0.6830,-0.7131,0.1396,0.0743
217,0.0,0.0,0.0,0.0,0.0,0.0,-0.2736,-0.9501,-0.1407,0.6832,-0.7130,0.1390,0.0745
218,0.0,0.0,0.0,0.0,0.0,0.0,-0.2740,-0.9540,-0.1309,0.6836,-0.7127,0.1384,0.0743
219,0.0,0.0,0.0,0.0,0.0,0.0,-0.2838,-0.9491,-0.1343,0.6841,-0.7123,0.1388,0.0733
220,0.0,0.0,0.0,0.0,0.0,0.0,-0.2907,-0.9452,-0.1363,0.6849,-0.7114,0.1401,0.0720
221,0.0,0.0,0.0,0.0,0.0,0.0,-0.2799,-0.9506,-0.1373,0.6857,-0.7105,0.1418,0.0704
222,0.0,0.0,0.0,0.0,0.0,0.0,-0.2726,-0.9516,-0.1353,0.6862,-0.7098,0.1430,0.0690
223,0.0,0.0,0.0,0.0,0.0,0.0,-0.2682,-0.9346,-0.1460,0.6862,-0.7099,0.1435,0.0682
224,0.0,0.0,0.0,0.0,0.0,0.0,-0.2697,-0.9341,-0.1475,0.6858,-0.7103,0.1433,0.0682
225,0.0,0.0,0.0,0.0,0.0,0.0,-0.2643,-0.9390,-0.1402,0.6853,-0.7109,0.1424,0.0683
226,0.0,0.0,0.0,0.0,0.0,0.0,-0.2692,-0.9380,-0.1436,0.6847,-0.7118,0.1412,0.0683
227,0.0,0.0,0.0,0.0,0.0,0.0,-0.2672,-0.9332,-0.1475,0.6835,-0.7132,0.1402,0.0677
228,0.0,0.0,0.0,0.0,0.0,0.0,-0.2682,-0.9293,-0.1465,0.6821,-0.7148,0.1397,0.0662
229,0.0,0.0,0.0,0.0,0.0,0.0,-0.2721,-0.9341,-0.1524,0.6808,-0.7162,0.1398,0.0638
230,0.0,0.0,0.0,0.0,0.0,0.0,-0.2682,-0.9448,-0.1548,0.6797,-0.7173,0.1400,0.0612
231,0.0,0.0,0.0,0.0,0.0,0.0,-0.2736,-0.9472,-0.1548,0.6786,-0.7186,0.1401,0.0590
232,0.0,0.0,0.0,0.0,0.0,0.0,-0.2760,-0.9521,-0.1572,0.6779,-0.7194,0.1397,0.0577
233,0.0,0.0,0.0,0.0,0.0,0.0,-0.2794,-0.9564,-0.1543,0.6774,-0.7201,0.1388,0.0576
234,0.0,0.0,0.0,0.0,0.0,0.0,-0.2716,-0.9535,-0.1519,0.6770,-0.7207,0.1373,0.0579
235,0.0,0.0,0.0,0.0,0.0,0.0,-0.2662,-0.9521,-0.1543,0.6768,-0.7211,0.1356,0.0590
236,0.0,0.0,0.0,0.0,0.0,0.0,-0.2667,-0.9579,-0.1538,0.6770,-0.7211,0.1345,0.0602
237,0.0,0.0,0.0,0.0,0.0,0.0,-0.2657,-0.9565,-0.1528,0.6772,-0.7209,0.1339,0.0614
238,0.0,0.0,0.0,0.0,0.0,0.0,-0.2501,-0.9555,-0.1513,0.6781,-0.7201,0.1335,0.0620
239,0.0,0.0,0.0,0.0,0.0,0.0,-0.2462,-0.9624,-0.1465,0.6795,-0.7188,0.1335,0.0623
240,0.0,0.0,0.0,0.0,0.0,0.0,-0.2569,-0.9740,-0.1357,0.6821,-0.7159,0.1350,0.0631
241,0.0,0.0,0.0,0.0,0.0,0.0,-0.2818,-0.9831,-0.1290,0.6852,-0.7123,0.1379,0.0642
242,0.0,0.0,0.0,0.0,0.0,0.0,-0.3131,-0.9752,-0.1081,0.6887,-0.7081,0.1415,0.0653
243,0.0,0.0,0.0,0.0,0.0,0.0,-0.2838,-0.9307,-0.1222,0.6932,-0.7029,0.1450,0.0663
244,0.0,0.0,0.0,0.0,0.0,0.0,-0.2320,-0.9221,-0.1445,0.6972,-0.6986,0.1460,0.0671
245,0.0,0.0,0.0,0.0,0.0,0.0,-0.2594,-0.9322,-0.1241,0.6997,-0.6962,0.1452,0.0685
246,0.0,0.0,0.0,0.0,0.0,0.0,-0.3024,-0.9151,-0.1217,0.7004,-0.6952,0.1457,0.0702
247,0.0,0.0,0.0,0.0,0.0,0.0,-0.2668,-0.8890,-0.1455,0.6990,-0.6963,0.1464,0.0716
248,0.0,0.0,0.0,0.0,0.0,0.0,-0.2164,-0.9260,-0.1284,0.6975,-0.6980,0.1454,0.0716
249,0.0,0.0,0.0,0.0,0.0,0.0,-0.2495,-0.9784,-0.0967,0.6963,-0.6997,0.1433,0.0708
250,0.0,0.0,0.0,0.0,0.0,0.0,-0.3004,-0.9651,-0.0910,0.6950,-0.7011,0.1435,0.0695
251,0.0,0.0,0.0,0.0,0.0,0.0,-0.2647,-0.9579,-0.1124,0.6950,-0.7010,0.1448,0.0678
252,0.0,0.0,0.0,0.0,0.0,0.0,-0.2657,-0.9914,-0.0899,0.6957,-0.7003,0.1449,0.0671
253,0.0,0.0,0.0,0.0,0.0,0.0,-0.2867,-0.9714,-0.0841,0.6970,-0.6990,0.1456,0.0666
254,0.0,0.0,0.0,0.0,0.0,0.0,-0.2721,-0.9394,-0.1217,0.6977,-0.6981,0.1464,0.0669
255,0.0,0.0,0.0,0.0,0.0,0.0,-0.2481,-0.9313,-0.1206,0.6974,-0.6983,0.1460,0.0681
256,0.0,0.0,0.0,0.0,0.0,0.0,-0.2432,-0.9391,-0.1084,0.6973,-0.6986,0.1446,0.0693
257,0.0,0.0,0.0,0.0,0.0,0.0,-0.2433,-0.9255,-0.1304,0.6963,-0.6998,0.1434,0.0697
258,0.0,0.0,0.0,0.0,0.0,0.0,-0.2540,-0.9191,-0.1509,0.6931,-0.7034,0.1420,0.0688
259,0.0,0.0,0.0,0.0,0.0,0.0,-0.2843,-0.9486,-0.1314,0.6879,-0.7088,0.1411,0.0669
260,0.0,0.0,0.0,0.0,0.0,0.0,-0.2691,-0.9482,-0.1202,0.6826,-0.7142,0.1411,0.0636
261,0.0,0.0,0.0,0.0,0.0,0.0,-0.2457,-0.9488,-0.1343,0.6793,-0.7176,0.1416,0.0601
262,0.0,0.0,0.0,0.0,0.0,0.0,-0.2344,-0.9687,-0.1235,0.6798,-0.7172,0.1419,0.0578
263,0.0,0.0,0.0,0.0,0.0,0.0,-0.2857,-1.0253,-0.1275,0.6826,-0.7145,0.1427,0.0567
264,0.0,0.0,0.0,0.0,0.0,0.0,-0.3610,-1.0061,-0.1223,0.6849,-0.7116,0.1457,0.0571
265,0.0,0.0,0.0,0.0,0.0,0.0,-0.2892,-0.9253,-0.1426,0.6869,-0.7089,0.1488,0.0588
266,0.0,0.0,0.0,0.0,0.0,0.0,-0.2389,-0.9371,-0.1538,0.6883,-0.7072,0.1491,0.0620
267,0.0,0.0,0.0,0.0,0.0,0.0,-0.2843,-0.9579,-0.1168,0.6895,-0.7058,0.1491,0.0651
268,0.0,0.0,0.0,0.0,0.0,0.0,-0.2897,-0.9311,-0.1446,0.6891,-0.7059,0.1496,0.0677
269,0.0,0.0,0.0,0.0,0.0,0.0,-0.2526,-0.8973,-0.1606,0.6872,-0.7074,0.1502,0.0689
270,0.0,0.0,0.0,0.0,0.0,0.0,-0.2447,-0.9221,-0.1445,0.6860,-0.7086,0.1500,0.0689
271,0.0,0.0,0.0,0.0,0.0,0.0,-0.2818,-0.9549,-0.1251,0.6852,-0.7096,0.1497,0.0682
272,0.0,0.0,0.0,0.0,0.0,0.0,-0.3209,-0.9611,-0.1212,0.6849,-0.7096,0.1514,0.0663
273,0.0,0.0,0.0,0.0,0.0,0.0,-0.3146,-0.9446,-0.1407,0.6844,-0.7098,0.1538,0.0648
274,0.0,0.0,0.0,0.0,0.0,0.0,-0.2912,-0.9321,-0.1495,0.6833,-0.7107,0.1546,0.0645
275,0.0,0.0,0.0,0.0,0.0,0.0,-0.2750,-0.9365,-0.1475,0.6824,-0.7116,0.1539,0.0657
276,0.0,0.0,0.0,0.0,0.0,0.0,-0.2819,-0.9496,-0.1446,0.6817,-0.7124,0.1520,0.0679
277,0.0,0.0,0.0,0.0,0.0,0.0,-0.2741,-0.9419,-0.1436,0.6810,-0.7135,0.1490,0.0703
278,0.0,0.0,0.0,0.0,0.0,0.0,-0.2667,-0.9419,-0.1489,0.6806,-0.7142,0.1466,0.0721
279,0.0,0.0,0.0,0.0,0.0,0.0,-0.2785,-0.9486,-0.1494,0.6799,-0.7150,0.1455,0.0730
280,0.0,0.0,0.0,0.0,0.0,0.0,-0.2828,-0.9603,-0.1358,0.6797,-0.7152,0.1458,0.0723
281,0.0,0.0,0.0,0.0,0.0,0.0,-0.2809,-0.9525,-0.1451,0.6798,-0.7149,0.1476,0.0706
282,0.0,0.0,0.0,0.0,0.0,0.0,-0.2809,-0.9404,-0.1616,0.6794,-0.7150,0.1498,0.0688
283,0.0,0.0,0.0,0.0,0.0,0.0,-0.2814,-0.9355,-0.1602,0.6785,-0.7156,0.1518,0.0672
284,0.0,0.0,0.0,0.0,0.0,0.0,-0.2799,-0.9365,-0.1631,0.6774,-0.7166,0.1523,0.0669
285,0.0,0.0,0.0,0.0,0.0,0.0,-0.2780,-0.9453,-0.1626,0.6761,-0.7179,0.1512,0.0680
286,0.0,0.0,0.0,0.0,0.0,0.0,-0.2858,-0.9496,-0.1529,0.6751,-0.7191,0.1495,0.0700
287,0.0,0.0,0.0,0.0,0.0,0.0,-0.2868,-0.9379,-0.1553,0.6741,-0.7200,0.1482,0.0717
288,0.0,0.0,0.0,0.0,0.0,0.0,-0.2731,-0.9263,-0.1645,0.6736,-0.7205,0.1480,0.0723
289,0.0,0.0,0.0,0.0,0.0,0.0,-0.2711,-0.9317,-0.1660,0.6733,-0.7208,0.1481,0.0718
290,0.0,0.0,0.0,0.0,0.0,0.0,-0.2848,-0.9404,-0.1597,0.6734,-0.7207,0.1490,0.0703
291,0.0,0.0,0.0,0.0,0.0,0.0,-0.2926,-0.9374,-0.1617,0.6740,-0.7199,0.1508,0.0685
292,0.0,0.0,0.0,0.0,0.0,0.0,-0.2912,-0.9399,-0.1592,0.6751,-0.7187,0.1525,0.0672
293,0.0,0.0,0.0,0.0,0.0,0.0,-0.2780,-0.9404,-0.1494,0.6771,-0.7167,0.1529,0.0670
294,0.0,0.0,0.0,0.0,0.0,0.0,-0.2858,-0.9355,-0.1607,0.6792,-0.7147,0.1523,0.0681
295,0.0,0.0,0.0,0.0,0.0,0.0,-0.2961,-0.9394,-0.1578,0.6807,-0.7133,0.1512,0.0700
296,0.0,0.0,0.0,0.0,0.0,0.0,-0.2970,-0.9432,-0.1422,0.6824,-0.7118,0.1505,0.0716
297,0.0,0.0,0.0,0.0,0.0,0.0,-0.2878,-0.9355,-0.1529,0.6839,-0.7102,0.1505,0.0727
298,0.0,0.0,0.0,0.0,0.0,0.0,-0.2780,-0.9219,-0.1577,0.6848,-0.7093,0.1509,0.0725
299,0.0,0.0,0.0,0.0,0.0,0.0,-0.2794,-0.9360,-0.1504,0.6857,-0.7083,0.1516,0.0712
300,0.0,0.0,0.0,0.0,0.0,0.0,-0.2990,-0.9525,-0.1383,0.6867,-0.7073,0.1527,0.0699
301,0.0,0.0,0.0,0.0,0.0,0.0,-0.3254,-0.9461,-0.1417,0.6872,-0.7066,0.1543,0.0692
302,0.0,0.0,0.0,0.0,0.0,0.0,-0.3234,-0.9436,-0.1408,0.6879,-0.7055,0.1558,0.0695
303,0.0,0.0,0.0,0.0,0.0,0.0,-0.3000,-0.9379,-0.1383,0.6883,-0.7049,0.1557,0.0711
304,0.0,0.0,0.0,0.0,0.0,0.0,-0.2975,-0.9369,-0.1305,0.6885,-0.7048,0.1543,0.0737
305,0.0,0.0,0.0,0.0,0.0,0.0,-0.3087,-0.9495,-0.1222,0.6890,-0.7042,0.1531,0.0765
306,0.0,0.0,0.0,0.0,0.0,0.0,-0.3131,-0.9529,-0.1149,0.6892,-0.7040,0.1520,0.0793
307,0.0,0.0,0.0,0.0,0.0,0.0,-0.3019,-0.9490,-0.1173,0.6895,-0.7037,0.1512,0.0812
308,0.0,0.0,0.0,0.0,0.0,0.0,-0.2770,-0.9321,-0.1226,0.6899,-0.7032,0.1508,0.0819
309,0.0,0.0,0.0,0.0,0.0,0.0,-0.2701,-0.9263,-0.1202,0.6903,-0.7030,0.1503,0.0820
310,0.0,0.0,0.0,0.0,0.0,0.0,-0.2716,-0.9254,-0.1246,0.6904,-0.7030,0.1498,0.0816
311,0.0,0.0,0.0,0.0,0.0,0.0,-0.2867,-0.9292,-0.1236,0.6901,-0.7034,0.1496,0.0812
312,0.0,0.0,0.0,0.0,0.0,0.0,-0.2877,-0.9350,-0.1197,0.6898,-0.7038,0.1491,0.0809
313,0.0,0.0,0.0,0.0,0.0,0.0,-0.2760,-0.9283,-0.1256,0.6890,-0.7049,0.1477,0.0807
314,0.0,0.0,0.0,0.0,0.0,0.0,-0.2843,-0.9282,-0.1300,0.6875,-0.7068,0.1457,0.0806
315,0.0,0.0,0.0,0.0,0.0,0.0,-0.2946,-0.9321,-0.1295,0.6855,-0.7092,0.1437,0.0803
316,0.0,0.0,0.0,0.0,0.0,0.0,-0.2965,-0.9214,-0.1368,0.6830,-0.7121,0.1421,0.0794
317,0.0,0.0,0.0,0.0,0.0,0.0,-0.2775,-0.9244,-0.1441,0.6803,-0.7152,0.1398,0.0778
318,0.0,0.0,0.0,0.0,0.0,0.0,-0.2809,-0.9365,-0.1348,0.6783,-0.7180,0.1368,0.0760
319,0.0,0.0,0.0,0.0,0.0,0.0,-0.2833,-0.9685,-0.1163,0.6795,-0.7173,0.1348,0.0742
320,0.0,0.0,0.0,0.0,0.0,0.0,-0.3023,-0.9894,-0.1232,0.6799,-0.7171,0.1353,0.0723
321,0.0,0.0,0.0,0.0,0.0,0.0,-0.3009,-0.9364,-0.1436,0.6802,-0.7167,0.1365,0.0714
322,0.0,0.0,0.0,0.0,0.0,0.0,-0.2311,-0.9347,-0.1669,0.6809,-0.7162,0.1357,0.0709
323,0.0,0.0,0.0,0.0,0.0,0.0,-0.2462,-0.9677,-0.1552,0.6801,-0.7172,0.1342,0.0703
324,0.0,0.0,0.0,0.0,0.0,0.0,-0.2843,-0.9520,-0.1382,0.6805,-0.7171,0.1330,0.0706
325,0.0,0.0,0.0,0.0,0.0,0.0,-0.2848,-0.9302,-0.1660,0.6810,-0.7167,0.1327,0.0709
326,0.0,0.0,0.0,0.0,0.0,0.0,-0.2863,-0.9384,-0.1582,0.6810,-0.7164,0.1343,0.0703
327,0.0,0.0,0.0,0.0,0.0,0.0,-0.2833,-0.9695,-0.1529,0.6814,-0.7160,0.1348,0.0700
328,0.0,0.0,0.0,0.0,0.0,0.0,-0.3214,-0.9747,-0.1159,0.6817,-0.7153,0.1368,0.0699
329,0.0,0.0,0.0,0.0,0.0,0.0,-0.2760,-0.9127,-0.1514,0.6834,-0.7133,0.1388,0.0703
330,0.0,0.0,0.0,0.0,0.0,0.0,-0.2208,-0.9459,-0.1659,0.6844,-0.7123,0.1387,0.0707
331,0.0,0.0,0.0,0.0,0.0,0.0,-0.2853,-0.9656,-0.1183,0.6851,-0.7115,0.1389,0.0717
332,0.0,0.0,0.0,0.0,0.0,0.0,-0.2975,-0.9442,-0.1300,0.6860,-0.7104,0.1391,0.0735
333,0.0,0.0,0.0,0.0,0.0,0.0,-0.2447,-0.9425,-0.1484,0.6865,-0.7098,0.1392,0.0737
334,0.0,0.0,0.0,0.0,0.0,0.0,-0.2340,-0.9522,-0.1308,0.6865,-0.7099,0.1383,0.0745
335,0.0,0.0,0.0,0.0,0.0,0.0,-0.2770,-0.9394,-0.1256,0.6873,-0.7092,0.1382,0.0743
336,0.0,0.0,0.0,0.0,0.0,0.0,-0.2794,-0.9384,-0.1407,0.6874,-0.7089,0.1396,0.0736
337,0.0,0.0,0.0,0.0,0.0,0.0,-0.2521,-0.9206,-0.1362,0.6862,-0.7099,0.1410,0.0724
338,0.0,0.0,0.0,0.0,0.0,0.0,-0.2389,-0.9255,-0.1533,0.6847,-0.7115,0.1407,0.0716
339,0.0,0.0,0.0,0.0,0.0,0.0,-0.2730,-0.9720,-0.1329,0.6825,-0.7138,0.1402,0.0699
340,0.0,0.0,0.0,0.0,0.0,0.0,-0.3483,-0.9513,-0.1164,0.6810,-0.7150,0.1420,0.0697
341,0.0,0.0,0.0,0.0,0.0,0.0,-0.2985,-0.9160,-0.1812,0.6790,-0.7164,0.1449,0.0695
342,0.0,0.0,0.0,0.0,0.0,0.0,-0.2472,-0.9318,-0.1845,0.6754,-0.7197,0.1456,0.0692
343,0.0,0.0,0.0,0.0,0.0,0.0,-0.2657,-0.9710,-0.1475,0.6722,-0.7227,0.1449,0.0699
344,0.0,0.0,0.0,0.0,0.0,0.0,-0.2984,-0.9874,-0.1271,0.6713,-0.7233,0.1456,0.0705
345,0.0,0.0,0.0,0.0,0.0,0.0,-0.2853,-0.9404,-0.1612,0.6719,-0.7223,0.1473,0.0713
346,0.0,0.0,0.0,0.0,0.0,0.0,-0.2428,-0.9162,-0.1913,0.6716,-0.7224,0.1480,0.0719
347,0.0,0.0,0.0,0.0,0.0,0.0,-0.2408,-0.9337,-0.1664,0.6715,-0.7226,0.1473,0.0724
348,0.0,0.0,0.0,0.0,0.0,0.0,-0.2697,-0.9443,-0.1597,0.6723,-0.7219,0.1471,0.0722
349,0.0,0.0,0.0,0.0,0.0,0.0,-0.2795,-0.9380,-0.1685,0.6734,-0.7209,0.1471,0.0721
350,0.0,0.0,0.0,0.0,0.0,0.0,-0.2824,-0.9312,-0.1636,0.6745,-0.7198,0.1474,0.0717
351,0.0,0.0,0.0,0.0,0.0,0.0,-0.2917,-0.9394,-0.1641,0.6760,-0.7183,0.1484,0.0710
352,0.0,0.0,0.0,0.0,0.0,0.0,-0.2829,-0.9438,-0.1582,0.6777,-0.7167,0.1491,0.0701
353,0.0,0.0,0.0,0.0,0.0,0.0,-0.2838,-0.9365,-0.1558,0.6797,-0.7147,0.1495,0.0696
354,0.0,0.0,0.0,0.0,0.0,0.0,-0.2868,-0.9438,-0.1470,0.6821,-0.7125,0.1495,0.0692
355,0.0,0.0,0.0,0.0,0.0,0.0,-0.2838,-0.9409,-0.1465,0.6845,-0.7103,0.1492,0.0691
356,0.0,0.0,0.0,0.0,0.0,0.0,-0.2961,-0.9355,-0.1475,0.6864,-0.7085,0.1483,0.0698
357,0.0,0.0,0.0,0.0,0.0,0.0,-0.2941,-0.9544,-0.1295,0.6883,-0.7067,0.1481,0.0696
358,0.0,0.0,0.0,0.0,0.0,0.0,-0.2745,-0.9307,-0.1387,0.6891,-0.7060,0.1480,0.0693
359,0.0,0.0,0.0,0.0,0.0,0.0,-0.2452,-0.9191,-0.1504,0.6891,-0.7061,0.1477,0.0682
360,0.0,0.0,0.0,0.0,0.0,0.0,-0.2716,-0.9550,-0.1407,0.6881,-0.7072,0.1478,0.0671
361,0.0,0.0,0.0,0.0,0.0,0.0,-0.3097,-0.9680,-0.1237,0.6866,-0.7086,0.1486,0.0664
362,0.0,0.0,0.0,0.0,0.0,0.0,-0.3268,-0.9460,-0.1286,0.6849,-0.7098,0.1507,0.0666
363,0.0,0.0,0.0,0.0,0.0,0.0,-0.2799,-0.9642,-0.1324,0.6844,-0.7098,0.1527,0.0668
364,0.0,0.0,0.0,0.0,0.0,0.0,-0.2589,-0.9463,-0.1392,0.6837,-0.7104,0.1530,0.0678
365,0.0,0.0,0.0,0.0,0.0,0.0,-0.2892,-0.9170,-0.1607,0.6820,-0.7117,0.1531,0.0695
366,0.0,0.0,0.0,0.0,0.0,0.0,-0.2829,-0.9316,-0.1524,0.6807,-0.7129,0.1530,0.0708
367,0.0,0.0,0.0,0.0,0.0,0.0,-0.2540,-0.9259,-0.1577,0.6794,-0.7143,0.1515,0.0721
368,0.0,0.0,0.0,0.0,0.0,0.0,-0.2717,-0.9210,-0.1733,0.6774,-0.7164,0.1504,0.0727
369,0.0,0.0,0.0,0.0,0.0,0.0,-0.2897,-0.9355,-0.1636,0.6752,-0.7186,0.1497,0.0727
370,0.0,0.0,0.0,0.0,0.0,0.0,-0.2921,-0.9544,-0.1465,0.6739,-0.7199,0.1494,0.0721
371,0.0,0.0,0.0,0.0,0.0,0.0,-0.2980,-0.9476,-0.1602,0.6735,-0.7204,0.1500,0.0709
372,0.0,0.0,0.0,0.0,0.0,0.0,-0.2995,-0.9306,-0.1700,0.6722,-0.7214,0.1506,0.0705
373,0.0,0.0,0.0,0.0,0.0,0.0,-0.2790,-0.9326,-0.1607,0.6717,-0.7220,0.1501,0.0708
374,0.0,0.0,0.0,0.0,0.0,0.0,-0.2619,-0.9361,-0.1601,0.6724,-0.7216,0.1483,0.0720
375,0.0,0.0,0.0,0.0,0.0,0.0,-0.2682,-0.9341,-0.1626,0.6738,-0.7206,0.1460,0.0734
376,0.0,0.0,0.0,0.0,0.0,0.0,-0.2760,-0.9312,-0.1685,0.6754,-0.7195,0.1433,0.0752
377,0.0,0.0,0.0,0.0,0.0,0.0,-0.2848,-0.9447,-0.1519,0.6774,-0.7179,0.1414,0.0760
378,0.0,0.0,0.0,0.0,0.0,0.0,-0.2960,-0.9539,-0.1349,0.6800,-0.7155,0.1412,0.0758
379,0.0,0.0,0.0,0.0,0.0,0.0,-0.2833,-0.9404,-0.1504,0.6828,-0.7128,0.1417,0.0751
380,0.0,0.0,0.0,0.0,0.0,0.0,-0.2721,-0.9467,-0.1514,0.6847,-0.7109,0.1425,0.0740
381,0.0,0.0,0.0,0.0,0.0,0.0,-0.2906,-0.9666,-0.1280,0.6867,-0.7088,0.1442,0.0729
382,0.0,0.0,0.0,0.0,0.0,0.0,-0.3048,-0.9680,-0.1276,0.6890,-0.7062,0.1459,0.0727
383,0.0,0.0,0.0,0.0,0.0,0.0,-0.2902,-0.9476,-0.1324,0.6910,-0.7040,0.1466,0.0734
384,0.0,0.0,0.0,0.0,0.0,0.0,-0.2912,-0.9263,-0.1465,0.6920,-0.7030,0.1465,0.0747
385,0.0,0.0,0.0,0.0,0.0,0.0,-0.2980,-0.9578,-0.1295,0.6923,-0.7025,0.1464,0.0760
386,0.0,0.0,0.0,0.0,0.0,0.0,-0.2731,-0.9258,-0.1207,0.6926,-0.7023,0.1455,0.0774
387,0.0,0.0,0.0,0.0,0.0,0.0,-0.2414,-0.8852,-0.1664,0.6916,-0.7035,0.1439,0.0778
388,0.0,0.0,0.0,0.0,0.0,0.0,-0.2540,-0.9230,-0.1431,0.6895,-0.7061,0.1419,0.0766
389,0.0,0.0,0.0,0.0,0.0,0.0,-0.2799,-0.9734,-0.1056,0.6875,-0.7085,0.1402,0.0749
390,0.0,0.0,0.0,0.0,0.0,0.0,-0.2960,-0.9763,-0.1002,0.6874,-0.7091,0.1394,0.0729
391,0.0,0.0,0.0,0.0,0.0,0.0,-0.2819,-0.9350,-0.1197,0.6880,-0.7087,0.1389,0.0717
392,0.0,0.0,0.0,0.0,0.0,0.0,-0.2677,-0.9399,-0.1353,0.6887,-0.7082,0.1382,0.0711
393,0.0,0.0,0.0,0.0,0.0,0.0,-0.2564,-0.9487,-0.1221,0.6895,-0.7078,0.1365,0.0705
394,0.0,0.0,0.0,0.0,0.0,0.0,-0.2418,-0.9332,-0.1328,0.6900,-0.7079,0.1330,0.0705
395,0.0,0.0,0.0,0.0,0.0,0.0,-0.2452,-0.9371,-0.1362,0.6906,-0.7081,0.1296,0.0697
396,0.0,0.0,0.0,0.0,0.0,0.0,-0.2789,-0.9642,-0.1231,0.6908,-0.7084,0.1276,0.0684
397,0.0,0.0,0.0,0.0,0.0,0.0,-0.3004,-0.9796,-0.1017,0.6916,-0.7077,0.1276,0.0671
398,0.0,0.0,0.0,0.0,0.0,0.0,-0.2706,-0.9424,-0.1402,0.6916,-0.7078,0.1285,0.0651
399,0.0,0.0,0.0,0.0,0.0,0.0,-0.2198,-0.9144,-0.1674,0.6884,-0.7111,0.1282,0.0631
400,0.0,0.0,0.0,0.0,0.0,0.0,-0.2242,-0.9333,-0.1337,0.6853,-0.7145,0.1268,0.0611
401,0.0,0.0,0.0,0.0,0.0,0.0,-0.2417,-0.9701,-0.1187,0.6839,-0.7164,0.1246,0.0599
402,0.0,0.0,0.0,0.0,0.0,0.0,-0.2476,-1.0051,-0.1123,0.6851,-0.7155,0.1227,0.0599
403,0.0,0.0,0.0,0.0,0.0,0.0,-0.2642,-0.9885,-0.1192,0.6880,-0.7127,0.1219,0.0615
404,0.0,0.0,0.0,0.0,0.0,0.0,-0.2628,-0.9667,-0.1280,0.6911,-0.7096,0.1219,0.0637
405,0.0,0.0,0.0,0.0,0.0,0.0,-0.2530,-0.9735,-0.1236,0.6939,-0.7065,0.1230,0.0655
406,0.0,0.0,0.0,0.0,0.0,0.0,-0.2496,-0.9764,-0.1060,0.6967,-0.7033,0.1246,0.0672
407,0.0,0.0,0.0,0.0,0.0,0.0,-0.2496,-0.9701,-0.1060,0.6996,-0.7000,0.1262,0.0683
408,0.0,0.0,0.0,0.0,0.0,0.0,-0.2589,-0.9579,-0.1138,0.7014,-0.6977,0.1283,0.0690
409,0.0,0.0,0.0,0.0,0.0,0.0,-0.2398,-0.9318,-0.1089,0.7023,-0.6965,0.1292,0.0698
410,0.0,0.0,0.0,0.0,0.0,0.0,-0.2242,-0.9246,-0.1284,0.7020,-0.6970,0.1283,0.0706
411,0.0,0.0,0.0,0.0,0.0,0.0,-0.2364,-0.9367,-0.1099,0.7006,-0.6984,0.1274,0.0713
412,0.0,0.0,0.0,0.0,0.0,0.0,-0.2613,-0.9550,-0.0904,0.7001,-0.6990,0.1269,0.0716
413,0.0,0.0,0.0,0.0,0.0,0.0,-0.2584,-0.9434,-0.1109,0.6992,-0.6999,0.1269,0.0715
414,0.0,0.0,0.0,0.0,0.0,0.0,-0.2442,-0.9473,-0.1104,0.6976,-0.7016,0.1270,0.0705
415,0.0,0.0,0.0,0.0,0.0,0.0,-0.2559,-0.9813,-0.0875,0.6968,-0.7025,0.1273,0.0690
416,0.0,0.0,0.0,0.0,0.0,0.0,-0.2735,-0.9768,-0.0900,0.6966,-0.7026,0.1283,0.0681
417,0.0,0.0,0.0,0.0,0.0,0.0,-0.2594,-0.9375,-0.1177,0.6959,-0.7031,0.1295,0.0679
418,0.0,0.0,0.0,0.0,0.0,0.0,-0.2408,-0.9507,-0.1104,0.6956,-0.7033,0.1296,0.0680
419,0.0,0.0,0.0,0.0,0.0,0.0,-0.2549,-0.9730,-0.0982,0.6960,-0.7030,0.1291,0.0685
420,0.0,0.0,0.0,0.0,0.0,0.0,-0.2711,-0.9560,-0.1099,0.6965,-0.7024,0.1292,0.0689
421,0.0,0.0,0.0,0.0,0.0,0.0,-0.2672,-0.9463,-0.1202,0.6966,-0.7022,0.1302,0.0690
422,0.0,0.0,0.0,0.0,0.0,0.0,-0.2584,-0.9448,-0.1143,0.6967,-0.7019,0.1312,0.0688
423,0.0,0.0,0.0,0.0,0.0,0.0,-0.2647,-0.9463,-0.1177,0.6973,-0.7012,0.1325,0.0680
424,0.0,0.0,0.0,0.0,0.0,0.0,-0.2701,-0.9477,-0.1265,0.6965,-0.7018,0.1337,0.0671
425,0.0,0.0,0.0,0.0,0.0,0.0,-0.2520,-0.9415,-0.1148,0.6953,-0.7029,0.1343,0.0664
426,0.0,0.0,0.0,0.0,0.0,0.0,-0.2535,-0.9453,-0.1221,0.6943,-0.7040,0.1339,0.0657
427,0.0,0.0,0.0,0.0,0.0,0.0,-0.2750,-0.9365,-0.1236,0.6927,-0.7057,0.1333,0.0657
428,0.0,0.0,0.0,0.0,0.0,0.0,-0.2481,-0.9619,-0.1158,0.6919,-0.7068,0.1322,0.0653
429,0.0,0.0,0.0,0.0,0.0,0.0,-0.2754,-0.9938,-0.0992,0.6921,-0.7067,0.1317,0.0651
430,0.0,0.0,0.0,0.0,0.0,0.0,-0.2999,-0.9588,-0.1027,0.6929,-0.7058,0.1325,0.0654
431,0.0,0.0,0.0,0.0,0.0,0.0,-0.2711,-0.9380,-0.1309,0.6934,-0.7049,0.1342,0.0651
432,0.0,0.0,0.0,0.0,0.0,0.0,-0.2525,-0.9701,-0.1104,0.6940,-0.7043,0.1349,0.0648
433,0.0,0.0,0.0,0.0,0.0,0.0,-0.2662,-0.9550,-0.1065,0.6945,-0.7037,0.1349,0.0653
434,0.0,0.0,0.0,0.0,0.0,0.0,-0.2594,-0.9322,-0.1314,0.6949,-0.7033,0.1348,0.0657
435,0.0,0.0,0.0,0.0,0.0,0.0,-0.2437,-0.9454,-0.1221,0.6944,-0.7040,0.1335,0.0663
436,0.0,0.0,0.0,0.0,0.0,0.0,-0.2457,-0.9580,-0.1075,0.6942,-0.7046,0.1313,0.0669
437,0.0,0.0,0.0,0.0,0.0,0.0,-0.2740,-0.9555,-0.1255,0.6928,-0.7061,0.1304,0.0668
438,0.0,0.0,0.0,0.0,0.0,0.0,-0.2711,-0.9390,-0.1324,0.6884,-0.7104,0.1306,0.0658
439,0.0,0.0,0.0,0.0,0.0,0.0,-0.2183,-0.9192,-0.1372,0.6833,-0.7156,0.1303,0.0635
440,0.0,0.0,0.0,0.0,0.0,0.0,-0.2120,-0.9460,-0.1391,0.6793,-0.7199,0.1286,0.0614
441,0.0,0.0,0.0,0.0,0.0,0.0,-0.2500,-0.9784,-0.1158,0.6774,-0.7223,0.1259,0.0602
442,0.0,0.0,0.0,0.0,0.0,0.0,-0.2647,-0.9730,-0.1294,0.6769,-0.7230,0.1247,0.0594
443,0.0,0.0,0.0,0.0,0.0,0.0,-0.2525,-0.9614,-0.1479,0.6767,-0.7231,0.1254,0.0591
444,0.0,0.0,0.0,0.0,0.0,0.0,-0.2359,-0.9634,-0.1474,0.6777,-0.7221,0.1256,0.0599
445,0.0,0.0,0.0,0.0,0.0,0.0,-0.2330,-0.9682,-0.1459,0.6794,-0.7204,0.1256,0.0614
446,0.0,0.0,0.0,0.0,0.0,0.0,-0.2276,-0.9532,-0.1542,0.6811,-0.7185,0.1258,0.0630
447,0.0,0.0,0.0,0.0,0.0,0.0,-0.2218,-0.9557,-0.1557,0.6830,-0.7166,0.1257,0.0645
448,0.0,0.0,0.0,0.0,0.0,0.0,-0.2569,-0.9701,-0.1382,0.6842,-0.7153,0.1265,0.0655
449,0.0,0.0,0.0,0.0,0.0,0.0,-0.2897,-0.9666,-0.1217,0.6857,-0.7132,0.1299,0.0655
450,0.0,0.0,0.0,0.0,0.0,0.0,-0.2613,-0.9560,-0.1411,0.6873,-0.7110,0.1338,0.0650
451,0.0,0.0,0.0,0.0,0.0,0.0,-0.2447,-0.9468,-0.1382,0.6879,-0.7100,0.1360,0.0646
452,0.0,0.0,0.0,0.0,0.0,0.0,-0.2604,-0.9473,-0.1314,0.6889,-0.7086,0.1387,0.0640
453,0.0,0.0,0.0,0.0,0.0,0.0,-0.2648,-0.9463,-0.1460,0.6896,-0.7075,0.1409,0.0639
454,0.0,0.0,0.0,0.0,0.0,0.0,-0.2824,-0.9443,-0.1358,0.6890,-0.7075,0.1435,0.0641
455,0.0,0.0,0.0,0.0,0.0,0.0,-0.2828,-0.9457,-0.1397,0.6887,-0.7072,0.1461,0.0647
456,0.0,0.0,0.0,0.0,0.0,0.0,-0.2814,-0.9350,-0.1480,0.6872,-0.7082,0.1477,0.0657
457,0.0,0.0,0.0,0.0,0.0,0.0,-0.2965,-0.9398,-0.1402,0.6845,-0.7103,0.1504,0.0662
458,0.0,0.0,0.0,0.0,0.0,0.0,-0.2775,-0.9491,-0.1382,0.6825,-0.7115,0.1532,0.0662
459,0.0,0.0,0.0,0.0,0.0,0.0,-0.2594,-0.9332,-0.1557,0.6806,-0.7132,0.1541,0.0661
460,0.0,0.0,0.0,0.0,0.0,0.0,-0.2785,-0.9331,-0.1636,0.6780,-0.7155,0.1545,0.0666
461,0.0,0.0,0.0,0.0,0.0,0.0,-0.2980,-0.9432,-0.1461,0.6758,-0.7175,0.1546,0.0671
462,0.0,0.0,0.0,0.0,0.0,0.0,-0.2941,-0.9326,-0.1529,0.6742,-0.7189,0.1545,0.0684
463,0.0,0.0,0.0,0.0,0.0,0.0,-0.2614,-0.9322,-0.1548,0.6733,-0.7199,0.1536,0.0694
464,0.0,0.0,0.0,0.0,0.0,0.0,-0.2599,-0.9429,-0.1548,0.6726,-0.7208,0.1523,0.0701
465,0.0,0.0,0.0,0.0,0.0,0.0,-0.2741,-0.9254,-0.1641,0.6721,-0.7215,0.1508,0.0709
466,0.0,0.0,0.0,0.0,0.0,0.0,-0.2868,-0.9321,-0.1602,0.6720,-0.7217,0.1499,0.0713
467,0.0,0.0,0.0,0.0,0.0,0.0,-0.2814,-0.9414,-0.1533,0.6723,-0.7216,0.1495,0.0712
468,0.0,0.0,0.0,0.0,0.0,0.0,-0.2809,-0.9409,-0.1611,0.6727,-0.7211,0.1496,0.0712
469,0.0,0.0,0.0,0.0,0.0,0.0,-0.2834,-0.9389,-0.1597,0.6733,-0.7205,0.1496,0.0711
470,0.0,0.0,0.0,0.0,0.0,0.0,-0.2834,-0.9394,-0.1597,0.6742,-0.7198,0.1492,0.0710
471,0.0,0.0,0.0,0.0,0.0,0.0,-0.2819,-0.9506,-0.1572,0.6752,-0.7189,0.1491,0.0714
472,0.0,0.0,0.0,0.0,0.0,0.0,-0.2702,-0.9395,-0.1553,0.6765,-0.7177,0.1483,0.0723
473,0.0,0.0,0.0,0.0,0.0,0.0,-0.2682,-0.9361,-0.1577,0.6784,-0.7162,0.1466,0.0734
474,0.0,0.0,0.0,0.0,0.0,0.0,-0.2804,-0.9457,-0.1553,0.6800,-0.7148,0.1453,0.0744
475,0.0,0.0,0.0,0.0,0.0,0.0,-0.2755,-0.9414,-0.1455,0.6818,-0.7134,0.1437,0.0749
476,0.0,0.0,0.0,0.0,0.0,0.0,-0.2804,-0.9501,-0.1387,0.6839,-0.7115,0.1425,0.0753
477,0.0,0.0,0.0,0.0,0.0,0.0,-0.2902,-0.9617,-0.1314,0.6863,-0.7091,0.1430,0.0749
478,0.0,0.0,0.0,0.0,0.0,0.0,-0.3107,-0.9548,-0.1310,0.6881,-0.7072,0.1448,0.0745
479,0.0,0.0,0.0,0.0,0.0,0.0,-0.2897,-0.9355,-0.1431,0.6894,-0.7056,0.1463,0.0742
480,0.0,0.0,0.0,0.0,0.0,0.0,-0.2545,-0.9104,-0.1596,0.6892,-0.7058,0.1459,0.0743
481,0.0,0.0,0.0,0.0,0.0,0.0,-0.2697,-0.9074,-0.1587,0.6879,-0.7073,0.1448,0.0748
482,0.0,0.0,0.0,0.0,0.0,0.0,-0.2565,-0.9342,-0.1470,0.6858,-0.7097,0.1429,0.0746
483,0.0,0.0,0.0,0.0,0.0,0.0,-0.2579,-0.9516,-0.1358,0.6831,-0.7130,0.1398,0.0737
484,0.0,0.0,0.0,0.0,0.0,0.0,-0.2867,-0.9646,-0.1163,0.6815,-0.7152,0.1373,0.0719
485,0.0,0.0,0.0,0.0,0.0,0.0,-0.2818,-0.9899,-0.1070,0.6828,-0.7144,0.1363,0.0696
486,0.0,0.0,0.0,0.0,0.0,0.0,-0.2896,-0.9816,-0.1046,0.6866,-0.7110,0.1364,0.0675
487,0.0,0.0,0.0,0.0,0.0,0.0,-0.3102,-0.9578,-0.1300,0.6901,-0.7073,0.1384,0.0659
488,0.0,0.0,0.0,0.0,0.0,0.0,-0.2682,-0.9424,-0.1446,0.6920,-0.7052,0.1403,0.0645
489,0.0,0.0,0.0,0.0,0.0,0.0,-0.2310,-0.9313,-0.1269,0.6938,-0.7036,0.1389,0.0653
490,0.0,0.0,0.0,0.0,0.0,0.0,-0.2486,-0.9332,-0.1401,0.6948,-0.7029,0.1368,0.0670
491,0.0,0.0,0.0,0.0,0.0,0.0,-0.2633,-0.9370,-0.1304,0.6938,-0.7039,0.1354,0.0689
492,0.0,0.0,0.0,0.0,0.0,0.0,-0.2569,-0.9444,-0.1187,0.6923,-0.7055,0.1340,0.0709
493,0.0,0.0,0.0,0.0,0.0,0.0,-0.2584,-0.9453,-0.1187,0.6913,-0.7064,0.1341,0.0714
494,0.0,0.0,0.0,0.0,0.0,0.0,-0.2618,-0.9409,-0.1319,0.6901,-0.7075,0.1352,0.0705
495,0.0,0.0,0.0,0.0,0.0,0.0,-0.2549,-0.9584,-0.1124,0.6892,-0.7083,0.1365,0.0689
496,0.0,0.0,0.0,0.0,0.0,0.0,-0.2584,-0.9550,-0.1284,0.6888,-0.7086,0.1378,0.0669
497,0.0,0.0,0.0,0.0,0.0,0.0,-0.2682,-0.9283,-0.1582,0.6866,-0.7107,0.1384,0.0663
498,0.0,0.0,0.0,0.0,0.0,0.0,-0.2663,-0.9254,-0.1562,0.6835,-0.7138,0.1368,0.0674
499,0.0,0.0,0.0,0.0,0.0,0.0,-0.2623,-0.9254,-0.1553,0.6797,-0.7179,0.1332,0.0693
500,0.0,0.0,0.0,0.0,0.0,0.0,-0.2525,-0.9512,-0.1367,0.6773,-0.7208,0.1293,0.0708
501,0.0,0.0,0.0,0.0,0.0,0.0,-0.2760,-0.9914,-0.1402,0.6760,-0.7225,0.1264,0.0712
502,0.0,0.0,0.0,0.0,0.0,0.0,-0.3004,-0.9879,-0.1266,0.6751,-0.7233,0.1265,0.0712
503,0.0,0.0,0.0,0.0,0.0,0.0,-0.2897,-0.9467,-0.1514,0.6758,-0.7224,0.1289,0.0704
504,0.0,0.0,0.0,0.0,0.0,0.0,-0.2667,-0.9482,-0.1655,0.6763,-0.7214,0.1323,0.0689
505,0.0,0.0,0.0,0.0,0.0,0.0,-0.2486,-0.9463,-0.1596,0.6767,-0.7208,0.1339,0.0682
506,0.0,0.0,0.0,0.0,0.0,0.0,-0.2633,-0.9375,-0.1689,0.6770,-0.7204,0.1340,0.0687
507,0.0,0.0,0.0,0.0,0.0,0.0,-0.2619,-0.9405,-0.1616,0.6776,-0.7199,0.1333,0.0697
508,0.0,0.0,0.0,0.0,0.0,0.0,-0.2443,-0.9332,-0.1616,0.6779,-0.7198,0.1311,0.0715
509,0.0,0.0,0.0,0.0,0.0,0.0,-0.2467,-0.9386,-0.1611,0.6782,-0.7199,0.1288,0.0728
510,0.0,0.0,0.0,0.0,0.0,0.0,-0.2550,-0.9453,-0.1548,0.6782,-0.7200,0.1274,0.0733
511,0.0,0.0,0.0,0.0,0.0,0.0,-0.2545,-0.9424,-0.1552,0.6783,-0.7201,0.1269,0.0727
512,0.0,0.0,0.0,0.0,0.0,0.0,-0.2398,-0.9527,-0.1518,0.6786,-0.7200,0.1271,0.0708
513,0.0,0.0,0.0,0.0,0.0,0.0,-0.2531,-0.9424,-0.1660,0.6779,-0.7206,0.1281,0.0684
514,0.0,0.0,0.0,0.0,0.0,0.0,-0.2526,-0.9453,-0.1611,0.6770,-0.7215,0.1296,0.0657
515,0.0,0.0,0.0,0.0,0.0,0.0,-0.2359,-0.9605,-0.1518,0.6761,-0.7224,0.1299,0.0643
516,0.0,0.0,0.0,0.0,0.0,0.0,-0.2530,-0.9915,-0.1309,0.6774,-0.7212,0.1299,0.0638
517,0.0,0.0,0.0,0.0,0.0,0.0,-0.3044,-0.9680,-0.1646,0.6779,-0.7205,0.1311,0.0649
518,0.0,0.0,0.0,0.0,0.0,0.0,-0.2770,-0.9375,-0.1650,0.6779,-0.7200,0.1324,0.0668
519,0.0,0.0,0.0,0.0,0.0,0.0,-0.2477,-0.9410,-0.1703,0.6773,-0.7203,0.1335,0.0683
520,0.0,0.0,0.0,0.0,0.0,0.0,-0.2614,-0.9293,-0.1796,0.6753,-0.7217,0.1356,0.0692
521,0.0,0.0,0.0,0.0,0.0,0.0,-0.2609,-0.9443,-0.1674,0.6731,-0.7233,0.1374,0.0691
522,0.0,0.0,0.0,0.0,0.0,0.0,-0.2501,-0.9463,-0.1606,0.6715,-0.7246,0.1386,0.0688
523,0.0,0.0,0.0,0.0,0.0,0.0,-0.2712,-0.9157,-0.1987,0.6686,-0.7271,0.1400,0.0690
524,0.0,0.0,0.0,0.0,0.0,0.0,-0.2834,-0.9394,-0.1806,0.6655,-0.7295,0.1415,0.0699
525,0.0,0.0,0.0,0.0,0.0,0.0,-0.2394,-0.9566,-0.1557,0.6639,-0.7309,0.1411,0.0707
526,0.0,0.0,0.0,0.0,0.0,0.0,-0.2330,-0.9420,-0.1869,0.6626,-0.7324,0.1389,0.0720
527,0.0,0.0,0.0,0.0,0.0,0.0,-0.2584,-0.9419,-0.1825,0.6612,-0.7339,0.1375,0.0727
528,0.0,0.0,0.0,0.0,0.0,0.0,-0.2726,-0.9336,-0.1743,0.6607,-0.7344,0.1369,0.0733
529,0.0,0.0,0.0,0.0,0.0,0.0,-0.2546,-0.9293,-0.1986,0.6608,-0.7344,0.1365,0.0732
530,0.0,0.0,0.0,0.0,0.0,0.0,-0.2575,-0.9337,-0.1947,0.6608,-0.7345,0.1364,0.0723
531,0.0,0.0,0.0,0.0,0.0,0.0,-0.2687,-0.9302,-0.1909,0.6608,-0.7346,0.1363,0.0712
532,0.0,0.0,0.0,0.0,0.0,0.0,-0.2682,-0.9341,-0.1962,0.6613,-0.7343,0.1364,0.0700
533,0.0,0.0,0.0,0.0,0.0,0.0,-0.2682,-0.9409,-0.1948,0.6621,-0.7338,0.1358,0.0691
534,0.0,0.0,0.0,0.0,0.0,0.0,-0.2643,-0.9429,-0.1879,0.6634,-0.7329,0.1343,0.0687
535,0.0,0.0,0.0,0.0,0.0,0.0,-0.2614,-0.9395,-0.1860,0.6652,-0.7316,0.1322,0.0688
536,0.0,0.0,0.0,0.0,0.0,0.0,-0.2687,-0.9467,-0.1782,0.6674,-0.7298,0.1310,0.0691
537,0.0,0.0,0.0,0.0,0.0,0.0,-0.2585,-0.9312,-0.1801,0.6701,-0.7275,0.1302,0.0696
538,0.0,0.0,0.0,0.0,0.0,0.0,-0.2682,-0.9361,-0.1884,0.6726,-0.7251,0.1305,0.0697
539,0.0,0.0,0.0,0.0,0.0,0.0,-0.2657,-0.9589,-0.1601,0.6753,-0.7224,0.1312,0.0693
540,0.0,0.0,0.0,0.0,0.0,0.0,-0.2389,-0.9541,-0.1611,0.6782,-0.7197,0.1319,0.0683
541,0.0,0.0,0.0,0.0,0.0,0.0,-0.2794,-0.9579,-0.1533,0.6805,-0.7174,0.1332,0.0674
542,0.0,0.0,0.0,0.0,0.0,0.0,-0.2901,-0.9641,-0.1251,0.6832,-0.7145,0.1352,0.0664
543,0.0,0.0,0.0,0.0,0.0,0.0,-0.2452,-0.9444,-0.1474,0.6864,-0.7113,0.1360,0.0659
544,0.0,0.0,0.0,0.0,0.0,0.0,-0.2306,-0.9279,-0.1547,0.6885,-0.7095,0.1350,0.0661
545,0.0,0.0,0.0,0.0,0.0,0.0,-0.2716,-0.9589,-0.1212,0.6907,-0.7075,0.1343,0.0664
546,0.0,0.0,0.0,0.0,0.0,0.0,-0.2862,-0.9705,-0.1129,0.6933,-0.7049,0.1344,0.0667
547,0.0,0.0,0.0,0.0,0.0,0.0,-0.2687,-0.9540,-0.1304,0.6949,-0.7030,0.1358,0.0667
548,0.0,0.0,0.0,0.0,0.0,0.0,-0.2379,-0.9502,-0.1148,0.6969,-0.7009,0.1368,0.0661
549,0.0,0.0,0.0,0.0,0.0,0.0,-0.2422,-0.9561,-0.1123,0.6993,-0.6984,0.1379,0.0651
550,0.0,0.0,0.0,0.0,0.0,0.0,-0.2662,-0.9375,-0.1255,0.7000,-0.6974,0.1397,0.0637
551,0.0,0.0,0.0,0.0,0.0,0.0,-0.2560,-0.9147,-0.1382,0.6997,-0.6975,0.1410,0.0631
552,0.0,0.0,0.0,0.0,0.0,0.0,-0.2442,-0.9391,-0.1226,0.6992,-0.6981,0.1409,0.0628
553,0.0,0.0,0.0,0.0,0.0,0.0,-0.2554,-0.9478,-0.1153,0.6980,-0.6995,0.1401,0.0622
554,0.0,0.0,0.0,0.0,0.0,0.0,-0.2570,-0.9259,-0.1523,0.6942,-0.7035,0.1389,0.0618
555,0.0,0.0,0.0,0.0,0.0,0.0,-0.2501,-0.9371,-0.1499,0.6879,-0.7101,0.1373,0.0614
556,0.0,0.0,0.0,0.0,0.0,0.0,-0.2251,-0.9712,-0.0943,0.6839,-0.7145,0.1344,0.0607
557,0.0,0.0,0.0,0.0,0.0,0.0,-0.2481,-0.9866,-0.1177,0.6830,-0.7158,0.1326,0.0592
558,0.0,0.0,0.0,0.0,0.0,0.0,-0.2921,-1.0059,-0.1222,0.6843,-0.7146,0.1328,0.0586
559,0.0,0.0,0.0,0.0,0.0,0.0,-0.2813,-0.9744,-0.1265,0.6856,-0.7133,0.1336,0.0580
560,0.0,0.0,0.0,0.0,0.0,0.0,-0.2321,-0.9197,-0.1693,0.6850,-0.7137,0.1343,0.0577
561,0.0,0.0,0.0,0.0,0.0,0.0,-0.2032,-0.9305,-0.1625,0.6847,-0.7143,0.1328,0.0579
562,0.0,0.0,0.0,0.0,0.0,0.0,-0.2413,-0.9706,-0.1343,0.6849,-0.7145,0.1302,0.0588
563,0.0,0.0,0.0,0.0,0.0,0.0,-0.2584,-0.9599,-0.1372,0.6851,-0.7145,0.1286,0.0593
564,0.0,0.0,0.0,0.0,0.0,0.0,-0.2438,-0.9463,-0.1562,0.6850,-0.7149,0.1273,0.0595
565,0.0,0.0,0.0,0.0,0.0,0.0,-0.2364,-0.9527,-0.1450,0.6848,-0.7152,0.1268,0.0594
566,0.0,0.0,0.0,0.0,0.0,0.0,-0.2374,-0.9464,-0.1494,0.6842,-0.7158,0.1269,0.0582
567,0.0,0.0,0.0,0.0,0.0,0.0,-0.2281,-0.9440,-0.1620,0.6826,-0.7175,0.1265,0.0572
568,0.0,0.0,0.0,0.0,0.0,0.0,-0.2218,-0.9523,-0.1493,0.6810,-0.7193,0.1252,0.0565
569,0.0,0.0,0.0,0.0,0.0,0.0,-0.2222,-0.9620,-0.1445,0.6797,-0.7209,0.1236,0.0559
570,0.0,0.0,0.0,0.0,0.0,0.0,-0.2374,-0.9503,-0.1567,0.6775,-0.7231,0.1225,0.0559
571,0.0,0.0,0.0,0.0,0.0,0.0,-0.2418,-0.9624,-0.1562,0.6758,-0.7247,0.1219,0.0563
572,0.0,0.0,0.0,0.0,0.0,0.0,-0.2510,-0.9813,-0.1416,0.6756,-0.7250,0.1213,0.0571
573,0.0,0.0,0.0,0.0,0.0,0.0,-0.2545,-0.9750,-0.1494,0.6758,-0.7246,0.1218,0.0580
574,0.0,0.0,0.0,0.0,0.0,0.0,-0.2482,-0.9517,-0.1689,0.6758,-0.7243,0.1236,0.0583
575,0.0,0.0,0.0,0.0,0.0,0.0,-0.2389,-0.9512,-0.1606,0.6760,-0.7238,0.1253,0.0588
576,0.0,0.0,0.0,0.0,0.0,0.0,-0.2296,-0.9556,-0.1581,0.6767,-0.7228,0.1268,0.0590
577,0.0,0.0,0.0,0.0,0.0,0.0,-0.2311,-0.9508,-0.1606,0.6777,-0.7216,0.1285,0.0593
578,0.0,0.0,0.0,0.0,0.0,0.0,-0.2379,-0.9507,-0.1552,0.6798,-0.7192,0.1300,0.0604
579,0.0,0.0,0.0,0.0,0.0,0.0,-0.2408,-0.9556,-0.1425,0.6829,-0.7160,0.1311,0.0616
580,0.0,0.0,0.0,0.0,0.0,0.0,-0.2642,-0.9778,-0.1304,0.6865,-0.7122,0.1330,0.0623
581,0.0,0.0,0.0,0.0,0.0,0.0,-0.2892,-0.9777,-0.1207,0.6899,-0.7083,0.1356,0.0629
582,0.0,0.0,0.0,0.0,0.0,0.0,-0.2887,-0.9287,-0.1534,0.6913,-0.7063,0.1389,0.0638
583,0.0,0.0,0.0,0.0,0.0,0.0,-0.2497,-0.8827,-0.1835,0.6895,-0.7073,0.1417,0.0648
584,0.0,0.0,0.0,0.0,0.0,0.0,-0.2096,-0.9071,-0.1752,0.6863,-0.7103,0.1420,0.0658
585,0.0,0.0,0.0,0.0,0.0,0.0,-0.2506,-0.9730,-0.1382,0.6834,-0.7134,0.1398,0.0670
586,0.0,0.0,0.0,0.0,0.0,0.0,-0.3028,-0.9592,-0.1154,0.6807,-0.7162,0.1382,0.0680
587,0.0,0.0,0.0,0.0,0.0,0.0,-0.2985,-0.9554,-0.1417,0.6788,-0.7178,0.1390,0.0686
588,0.0,0.0,0.0,0.0,0.0,0.0,-0.2931,-0.9636,-0.1412,0.6783,-0.7177,0.1415,0.0693
589,0.0,0.0,0.0,0.0,0.0,0.0,-0.2785,-0.9370,-0.1538,0.6771,-0.7183,0.1436,0.0698
590,0.0,0.0,0.0,0.0,0.0,0.0,-0.2726,-0.9225,-0.1738,0.6755,-0.7193,0.1464,0.0698
591,0.0,0.0,0.0,0.0,0.0,0.0,-0.2872,-0.9569,-0.1426,0.6746,-0.7194,0.1502,0.0693
592,0.0,0.0,0.0,0.0,0.0,0.0,-0.2897,-0.9447,-0.1456,0.6750,-0.7184,0.1533,0.0693
593,0.0,0.0,0.0,0.0,0.0,0.0,-0.2907,-0.9117,-0.1948,0.6732,-0.7195,0.1553,0.0704
594,0.0,0.0,0.0,0.0,0.0,0.0,-0.2668,-0.9166,-0.1709,0.6717,-0.7208,0.1553,0.0724
595,0.0,0.0,0.0,0.0,0.0,0.0,-0.2467,-0.9211,-0.1699,0.6709,-0.7216,0.1547,0.0721
596,0.0,0.0,0.0,0.0,0.0,0.0,-0.2707,-0.9186,-0.1982,0.6690,-0.7236,0.1538,0.0718
597,0.0,0.0,0.0,0.0,0.0,0.0,-0.2848,-0.9389,-0.1763,0.6671,-0.7256,0.1526,0.0715
598,0.0,0.0,0.0,0.0,0.0,0.0,-0.2716,-0.9336,-0.1767,0.6661,-0.7270,0.1506,0.0708
599,0.0,0.0,0.0,0.0,0.0,0.0,-0.2443,-0.9289,-0.1923,0.6657,-0.7284,0.1458,0.0702
600,0.0,0.0,0.0,0.0,0.0,0.0,-0.2321,-0.9304,-0.1937,0.6654,-0.7302,0.1382,0.0703
601,0.0,0.0,0.0,0.0,0.0,0.0,-0.2535,-0.9551,-0.1655,0.6667,-0.7303,0.1313,0.0703
602,0.0,0.0,0.0,0.0,0.0,0.0,-0.3165,-0.9946,-0.1437,0.6701,-0.7277,0.1290,0.0695
603,0.0,0.0,0.0,0.0,0.0,0.0,-0.3625,-0.9833,-0.1681,0.6730,-0.7246,0.1312,0.0696
604,0.0,0.0,0.0,0.0,0.0,0.0,-0.3142,-0.9296,-0.1856,0.6744,-0.7226,0.1346,0.0698
605,0.0,0.0,0.0,0.0,0.0,0.0,-0.2374,-0.9362,-0.1728,0.6751,-0.7218,0.1358,0.0697
606,0.0,0.0,0.0,0.0,0.0,0.0,-0.2110,-0.9445,-0.1596,0.6767,-0.7205,0.1341,0.0705
607,0.0,0.0,0.0,0.0,0.0,0.0,-0.2067,-0.9237,-0.1829,0.6780,-0.7199,0.1308,0.0707
608,0.0,0.0,0.0,0.0,0.0,0.0,-0.2560,-0.9531,-0.1713,0.6781,-0.7204,0.1275,0.0709
609,0.0,0.0,0.0,0.0,0.0,0.0,-0.2945,-0.9719,-0.1270,0.6785,-0.7202,0.1255,0.0715
610,0.0,0.0,0.0,0.0,0.0,0.0,-0.2858,-0.9496,-0.1285,0.6803,-0.7185,0.1262,0.0712
611,0.0,0.0,0.0,0.0,0.0,0.0,-0.2252,-0.9202,-0.1606,0.6818,-0.7170,0.1275,0.0697
612,0.0,0.0,0.0,0.0,0.0,0.0,-0.2032,-0.9382,-0.1537,0.6838,-0.7151,0.1277,0.0682
613,0.0,0.0,0.0,0.0,0.0,0.0,-0.2638,-0.9628,-0.1324,0.6868,-0.7123,0.1281,0.0669
614,0.0,0.0,0.0,0.0,0.0,0.0,-0.2950,-0.9534,-0.1256,0.6893,-0.7097,0.1297,0.0662
615,0.0,0.0,0.0,0.0,0.0,0.0,-0.2672,-0.9399,-0.1538,0.6906,-0.7082,0.1309,0.0666
616,0.0,0.0,0.0,0.0,0.0,0.0,-0.2569,-0.9473,-0.1206,0.6917,-0.7070,0.1306,0.0683
617,0.0,0.0,0.0,0.0,0.0,0.0,-0.2637,-0.9759,-0.0943,0.6941,-0.7046,0.1299,0.0701
618,0.0,0.0,0.0,0.0,0.0,0.0,-0.2471,-0.9531,-0.1123,0.6960,-0.7028,0.1292,0.0710
619,0.0,0.0,0.0,0.0,0.0,0.0,-0.2457,-0.9187,-0.1396,0.6961,-0.7028,0.1288,0.0710
620,0.0,0.0,0.0,0.0,0.0,0.0,-0.2589,-0.9405,-0.1314,0.6954,-0.7035,0.1290,0.0701
621,0.0,0.0,0.0,0.0,0.0,0.0,-0.2579,-0.9511,-0.1041,0.6950,-0.7038,0.1298,0.0687
622,0.0,0.0,0.0,0.0,0.0,0.0,-0.2359,-0.9493,-0.1221,0.6947,-0.7042,0.1303,0.0671
623,0.0,0.0,0.0,0.0,0.0,0.0,-0.2740,-0.9453,-0.1372,0.6932,-0.7057,0.1307,0.0662
624,0.0,0.0,0.0,0.0,0.0,0.0,-0.2672,-0.9487,-0.1280,0.6908,-0.7082,0.1302,0.0654
625,0.0,0.0,0.0,0.0,0.0,0.0,-0.2652,-0.9594,-0.1333,0.6871,-0.7120,0.1291,0.0651
626,0.0,0.0,0.0,0.0,0.0,0.0,-0.2369,-0.9459,-0.1274,0.6835,-0.7159,0.1271,0.0653
627,0.0,0.0,0.0,0.0,0.0,0.0,-0.2125,-0.9518,-0.1527,0.6802,-0.7195,0.1242,0.0654
628,0.0,0.0,0.0,0.0,0.0,0.0,-0.2344,-0.9653,-0.1347,0.6778,-0.7222,0.1214,0.0653
629,0.0,0.0,0.0,0.0,0.0,0.0,-0.2579,-0.9579,-0.1431,0.6765,-0.7236,0.1205,0.0645
630,0.0,0.0,0.0,0.0,0.0,0.0,-0.2526,-0.9589,-0.1630,0.6754,-0.7246,0.1215,0.0630
631,0.0,0.0,0.0,0.0,0.0,0.0,-0.2247,-0.9692,-0.1537,0.6746,-0.7253,0.1222,0.0618
632,0.0,0.0,0.0,0.0,0.0,0.0,-0.2310,-0.9648,-0.1576,0.6742,-0.7258,0.1224,0.0610
633,0.0,0.0,0.0,0.0,0.0,0.0,-0.2511,-0.9434,-0.1762,0.6735,-0.7264,0.1225,0.0607
634,0.0,0.0,0.0,0.0,0.0,0.0,-0.2404,-0.9376,-0.1811,0.6721,-0.7279,0.1216,0.0609
635,0.0,0.0,0.0,0.0,0.0,0.0,-0.2247,-0.9328,-0.1859,0.6700,-0.7301,0.1194,0.0617
636,0.0,0.0,0.0,0.0,0.0,0.0,-0.2389,-0.9459,-0.1767,0.6681,-0.7321,0.1176,0.0623
637,0.0,0.0,0.0,0.0,0.0,0.0,-0.2648,-0.9613,-0.1699,0.6671,-0.7329,0.1175,0.0628
638,0.0,0.0,0.0,0.0,0.0,0.0,-0.2697,-0.9642,-0.1782,0.6659,-0.7338,0.1184,0.0638
639,0.0,0.0,0.0,0.0,0.0,0.0,-0.2569,-0.9822,-0.1528,0.6667,-0.7327,0.1207,0.0639
640,0.0,0.0,0.0,0.0,0.0,0.0,-0.2310,-0.9804,-0.1640,0.6688,-0.7305,0.1220,0.0646
641,0.0,0.0,0.0,0.0,0.0,0.0,-0.2423,-0.9672,-0.1737,0.6705,-0.7287,0.1228,0.0659
642,0.0,0.0,0.0,0.0,0.0,0.0,-0.2755,-0.9676,-0.1592,0.6723,-0.7266,0.1247,0.0676
643,0.0,0.0,0.0,0.0,0.0,0.0,-0.2462,-0.9551,-0.1703,0.6739,-0.7247,0.1258,0.0695
644,0.0,0.0,0.0,0.0,0.0,0.0,-0.2306,-0.9420,-0.1801,0.6745,-0.7240,0.1256,0.0718
645,0.0,0.0,0.0,0.0,0.0,0.0,-0.2667,-0.9404,-0.1679,0.6741,-0.7240,0.1259,0.0740
646,0.0,0.0,0.0,0.0,0.0,0.0,-0.2702,-0.9336,-0.1704,0.6731,-0.7245,0.1271,0.0759
647,0.0,0.0,0.0,0.0,0.0,0.0,-0.2399,-0.9274,-0.1713,0.6723,-0.7250,0.1284,0.0771
648,0.0,0.0,0.0,0.0,0.0,0.0,-0.2228,-0.9197,-0.1840,0.6715,-0.7257,0.1283,0.0775
649,0.0,0.0,0.0,0.0,0.0,0.0,-0.2526,-0.9186,-0.1962,0.6686,-0.7284,0.1282,0.0773
650,0.0,0.0,0.0,0.0,0.0,0.0,-0.2868,-0.9360,-0.1714,0.6655,-0.7311,0.1292,0.0767
651,0.0,0.0,0.0,0.0,0.0,0.0,-0.2599,-0.9283,-0.1655,0.6642,-0.7322,0.1300,0.0762
652,0.0,0.0,0.0,0.0,0.0,0.0,-0.2536,-0.9245,-0.1962,0.6628,-0.7334,0.1302,0.0762
653,0.0,0.0,0.0,0.0,0.0,0.0,-0.2766,-0.9249,-0.1879,0.6608,-0.7352,0.1303,0.0765
654,0.0,0.0,0.0,0.0,0.0,0.0,-0.2785,-0.9292,-0.1914,0.6589,-0.7367,0.1309,0.0768
655,0.0,0.0,0.0,0.0,0.0,0.0,-0.2560,-0.9303,-0.1981,0.6568,-0.7386,0.1309,0.0770
656,0.0,0.0,0.0,0.0,0.0,0.0,-0.2424,-0.9221,-0.2035,0.6545,-0.7408,0.1298,0.0777
657,0.0,0.0,0.0,0.0,0.0,0.0,-0.2340,-0.9435,-0.2010,0.6530,-0.7423,0.1284,0.0783
658,0.0,0.0,0.0,0.0,0.0,0.0,-0.2521,-0.9623,-0.2035,0.6519,-0.7433,0.1278,0.0785
659,0.0,0.0,0.0,0.0,0.0,0.0,-0.2726,-0.9545,-0.2026,0.6510,-0.7440,0.1286,0.0780
660,0.0,0.0,0.0,0.0,0.0,0.0,-0.2580,-0.9584,-0.2147,0.6507,-0.7441,0.1304,0.0769
661,0.0,0.0,0.0,0.0,0.0,0.0,-0.2541,-0.9521,-0.2162,0.6507,-0.7440,0.1323,0.0751
662,0.0,0.0,0.0,0.0,0.0,0.0,-0.2971,-0.9593,-0.2162,0.6509,-0.7434,0.1351,0.0742
663,0.0,0.0,0.0,0.0,0.0,0.0,-0.3181,-0.9524,-0.2124,0.6513,-0.7424,0.1388,0.0735
664,0.0,0.0,0.0,0.0,0.0,0.0,-0.3220,-0.9325,-0.2212,0.6518,-0.7413,0.1419,0.0740
665,0.0,0.0,0.0,0.0,0.0,0.0,-0.2893,-0.9146,-0.2240,0.6524,-0.7404,0.1431,0.0757
666,0.0,0.0,0.0,0.0,0.0,0.0,-0.2658,-0.9050,-0.2264,0.6526,-0.7401,0.1419,0.0782
667,0.0,0.0,0.0,0.0,0.0,0.0,-0.2693,-0.9152,-0.2255,0.6529,-0.7400,0.1400,0.0806
668,0.0,0.0,0.0,0.0,0.0,0.0,-0.2691,-0.9336,-0.0788,0.6566,-0.7370,0.1380,0.0822
669,0.0,0.0,0.0,0.0,0.0,0.0,-0.2653,-0.9317,-0.1899,0.6595,-0.7346,0.1362,0.0835
670,0.0,0.0,0.0,0.0,0.0,0.0,-0.2521,-0.9313,-0.1869,0.6640,-0.7308,0.1344,0.0837
671,0.0,0.0,0.0,0.0,0.0,0.0,-0.2839,-0.9248,-0.1885,0.6689,-0.7265,0.1331,0.0834
672,0.0,0.0,0.0,0.0,0.0,0.0,-0.3479,-0.9440,-0.1700,0.6737,-0.7219,0.1345,0.0832
673,0.0,0.0,0.0,0.0,0.0,0.0,-0.3425,-0.9407,-0.1632,0.6782,-0.7170,0.1384,0.0827
674,0.0,0.0,0.0,0.0,0.0,0.0,-0.2790,-0.9132,-0.1880,0.6809,-0.7138,0.1415,0.0825
675,0.0,0.0,0.0,0.0,0.0,0.0,-0.2556,-0.9031,-0.1908,0.6817,-0.7128,0.1426,0.0833
676,0.0,0.0,0.0,0.0,0.0,0.0,-0.2648,-0.9133,-0.1757,0.6806,-0.7136,0.1425,0.0850
677,0.0,0.0,0.0,0.0,0.0,0.0,-0.2755,-0.9273,-0.1548,0.6794,-0.7146,0.1416,0.0876
678,0.0,0.0,0.0,0.0,0.0,0.0,-0.2892,-0.9224,-0.1714,0.6774,-0.7164,0.1415,0.0887
679,0.0,0.0,0.0,0.0,0.0,0.0,-0.2970,-0.9360,-0.1578,0.6750,-0.7183,0.1439,0.0870
680,0.0,0.0,0.0,0.0,0.0,0.0,-0.2286,-0.9454,-0.1440,0.6753,-0.7182,0.1447,0.0847
681,0.0,0.0,0.0,0.0,0.0,0.0,-0.2799,-0.9598,-0.1733,0.6750,-0.7186,0.1451,0.0834
682,0.0,0.0,0.0,0.0,0.0,0.0,-0.3366,-0.9761,-0.1383,0.6746,-0.7188,0.1470,0.0820
683,0.0,0.0,0.0,0.0,0.0,0.0,-0.3273,-0.9441,-0.1607,0.6738,-0.7191,0.1485,0.0827
684,0.0,0.0,0.0,0.0,0.0,0.0,-0.2648,-0.9060,-0.1850,0.6723,-0.7206,0.1470,0.0848
685,0.0,0.0,0.0,0.0,0.0,0.0,-0.2106,-0.9076,-0.1776,0.6707,-0.7228,0.1428,0.0858
686,0.0,0.0,0.0,0.0,0.0,0.0,-0.2096,-0.9139,-0.1786,0.6703,-0.7244,0.1359,0.0862
687,0.0,0.0,0.0,0.0,0.0,0.0,-0.2711,-0.9477,-0.1597,0.6712,-0.7248,0.1296,0.0853
688,0.0,0.0,0.0,0.0,0.0,0.0,-0.3072,-0.9753,-0.1276,0.6737,-0.7233,0.1269,0.0828
689,0.0,0.0,0.0,0.0,0.0,0.0,-0.3415,-0.9518,-0.1530,0.6765,-0.7208,0.1286,0.0795
690,0.0,0.0,0.0,0.0,0.0,0.0,-0.3567,-0.9523,-0.1818,0.6782,-0.7187,0.1328,0.0768
691,0.0,0.0,0.0,0.0,0.0,0.0,-0.2770,-0.9545,-0.1577,0.6790,-0.7174,0.1366,0.0753
692,0.0,0.0,0.0,0.0,0.0,0.0,-0.2423,-0.9128,-0.1718,0.6792,-0.7171,0.1371,0.0748
693,0.0,0.0,0.0,0.0,0.0,0.0,-0.2536,-0.9143,-0.1850,0.6791,-0.7177,0.1346,0.0757
694,0.0,0.0,0.0,0.0,0.0,0.0,-0.2702,-0.9249,-0.1616,0.6786,-0.7186,0.1316,0.0771
695,0.0,0.0,0.0,0.0,0.0,0.0,-0.2907,-0.9326,-0.1592,0.6785,-0.7188,0.1296,0.0784
696,0.0,0.0,0.0,0.0,0.0,0.0,-0.2970,-0.9481,-0.1475,0.6795,-0.7179,0.1292,0.0788
697,0.0,0.0,0.0,0.0,0.0,0.0,-0.2799,-0.9486,-0.1480,0.6811,-0.7163,0.1304,0.0776
698,0.0,0.0,0.0,0.0,0.0,0.0,-0.2862,-0.9646,-0.1392,0.6832,-0.7141,0.1328,0.0756
699,0.0,0.0,0.0,0.0,0.0,0.0,-0.2999,-0.9894,-0.1178,0.6866,-0.7103,0.1366,0.0732
700,0.0,0.0,0.0,0.0,0.0,0.0,-0.3117,-0.9718,-0.1393,0.6887,-0.7075,0.1411,0.0720
701,0.0,0.0,0.0,0.0,0.0,0.0,-0.3117,-0.9442,-0.1490,0.6893,-0.7060,0.1453,0.0725
702,0.0,0.0,0.0,0.0,0.0,0.0,-0.2682,-0.9341,-0.1509,0.6895,-0.7054,0.1461,0.0753
703,0.0,0.0,0.0,0.0,0.0,0.0,-0.2487,-0.9322,-0.1538,0.6884,-0.7064,0.1447,0.0789
704,0.0,0.0,0.0,0.0,0.0,0.0,-0.2678,-0.9064,-0.1719,0.6843,-0.7101,0.1444,0.0820
705,0.0,0.0,0.0,0.0,0.0,0.0,-0.3009,-0.9301,-0.1471,0.6811,-0.7127,0.1454,0.0837
706,0.0,0.0,0.0,0.0,0.0,0.0,-0.2784,-0.9540,-0.1207,0.6806,-0.7132,0.1454,0.0839
707,0.0,0.0,0.0,0.0,0.0,0.0,-0.2623,-0.9608,-0.1406,0.6802,-0.7135,0.1469,0.0812
708,0.0,0.0,0.0,0.0,0.0,0.0,-0.3161,-0.9325,-0.1490,0.6801,-0.7133,0.1502,0.0781
709,0.0,0.0,0.0,0.0,0.0,0.0,-0.3234,-0.9208,-0.1495,0.6801,-0.7129,0.1533,0.0755
710,0.0,0.0,0.0,0.0,0.0,0.0,-0.3313,-0.9315,-0.1647,0.6790,-0.7137,0.1551,0.0742
711,0.0,0.0,0.0,0.0,0.0,0.0,-0.3268,-0.9480,-0.1471,0.6776,-0.7154,0.1520,0.0772
712,0.0,0.0,0.0,0.0,0.0,0.0,-0.2970,-0.9549,-0.1402,0.6759,-0.7177,0.1469,0.0808
713,0.0,0.0,0.0,0.0,0.0,0.0,-0.2765,-0.9506,-0.1231,0.6763,-0.7179,0.1412,0.0854
714,0.0,0.0,0.0,0.0,0.0,0.0,-0.3395,-0.9674,-0.1500,0.6785,-0.7156,0.1397,0.0898
715,0.0,0.0,0.0,0.0,0.0,0.0,-0.3390,-0.9479,-0.1262,0.6815,-0.7121,0.1413,0.0923
716,0.0,0.0,0.0,0.0,0.0,0.0,-0.2438,-0.8905,-0.1733,0.6838,-0.7095,0.1434,0.0918
717,0.0,0.0,0.0,0.0,0.0,0.0,-0.2130,-0.8974,-0.1834,0.6849,-0.7083,0.1457,0.0892
718,0.0,0.0,0.0,0.0,0.0,0.0,-0.2667,-0.9259,-0.1260,0.6866,-0.7068,0.1469,0.0864
719,0.0,0.0,0.0,0.0,0.0,0.0,-0.3391,-0.9242,-0.1496,0.6865,-0.7065,0.1490,0.0860
720,0.0,0.0,0.0,0.0,0.0,0.0,-0.3254,-0.9305,-0.1437,0.6856,-0.7068,0.1504,0.0885
721,0.0,0.0,0.0,0.0,0.0,0.0,-0.3000,-0.9272,-0.1373,0.6847,-0.7073,0.1515,0.0896
722,0.0,0.0,0.0,0.0,0.0,0.0,-0.2863,-0.9054,-0.1441,0.6830,-0.7087,0.1519,0.0907
723,0.0,0.0,0.0,0.0,0.0,0.0,-0.3034,-0.9272,-0.1480,0.6816,-0.7099,0.1527,0.0902
724,0.0,0.0,0.0,0.0,0.0,0.0,-0.3361,-0.9572,-0.1354,0.6796,-0.7117,0.1541,0.0884
725,0.0,0.0,0.0,0.0,0.0,0.0,-0.3674,-0.9347,-0.1311,0.6799,-0.7113,0.1563,0.0860
726,0.0,0.0,0.0,0.0,0.0,0.0,-0.3474,-0.9164,-0.1642,0.6780,-0.7127,0.1570,0.0877
727,0.0,0.0,0.0,0.0,0.0,0.0,-0.3205,-0.9334,-0.1524,0.6760,-0.7146,0.1568,0.0878
728,0.0,0.0,0.0,0.0,0.0,0.0,-0.3405,-0.9256,-0.1442,0.6746,-0.7159,0.1566,0.0881
729,0.0,0.0,0.0,0.0,0.0,0.0,-0.3220,-0.9126,-0.1632,0.6732,-0.7175,0.1552,0.0891
730,0.0,0.0,0.0,0.0,0.0,0.0,-0.3156,-0.9121,-0.1719,0.6708,-0.7199,0.1536,0.0901
731,0.0,0.0,0.0,0.0,0.0,0.0,-0.3254,-0.9300,-0.1510,0.6689,-0.7218,0.1520,0.0917
732,0.0,0.0,0.0,0.0,0.0,0.0,-0.3063,-0.9340,-0.1544,0.6677,-0.7231,0.1495,0.0949
733,0.0,0.0,0.0,0.0,0.0,0.0,-0.2785,-0.9200,-0.1636,0.6665,-0.7246,0.1473,0.0952
734,0.0,0.0,0.0,0.0,0.0,0.0,-0.2931,-0.9389,-0.1592,0.6662,-0.7251,0.1471,0.0937
735,0.0,0.0,0.0,0.0,0.0,0.0,-0.3102,-0.9442,-0.1524,0.6668,-0.7246,0.1473,0.0928
736,0.0,0.0,0.0,0.0,0.0,0.0,-0.3073,-0.9204,-0.1753,0.6670,-0.7244,0.1481,0.0918
737,0.0,0.0,0.0,0.0,0.0,0.0,-0.2902,-0.9146,-0.1831,0.6672,-0.7243,0.1479,0.0914
738,0.0,0.0,0.0,0.0,0.0,0.0,-0.2966,-0.9369,-0.1709,0.6680,-0.7237,0.1469,0.0918
739,0.0,0.0,0.0,0.0,0.0,0.0,-0.3122,-0.9422,-0.1729,0.6690,-0.7230,0.1462,0.0916
740,0.0,0.0,0.0,0.0,0.0,0.0,-0.3254,-0.9368,-0.1681,0.6699,-0.7221,0.1466,0.0912
741,0.0,0.0,0.0,0.0,0.0,0.0,-0.3273,-0.9397,-0.1666,0.6708,-0.7210,0.1479,0.0908
742,0.0,0.0,0.0,0.0,0.0,0.0,-0.3205,-0.9281,-0.1661,0.6720,-0.7199,0.1488,0.0901
743,0.0,0.0,0.0,0.0,0.0,0.0,-0.3283,-0.9237,-0.1690,0.6728,-0.7190,0.1499,0.0894
744,0.0,0.0,0.0,0.0,0.0,0.0,-0.3396,-0.9407,-0.1564,0.6736,-0.7179,0.1515,0.0888
745,0.0,0.0,0.0,0.0,0.0,0.0,-0.3288,-0.9164,-0.1603,0.6742,-0.7170,0.1535,0.0885
746,0.0,0.0,0.0,0.0,0.0,0.0,-0.3088,-0.8946,-0.1841,0.6742,-0.7167,0.1545,0.0894
747,0.0,0.0,0.0,0.0,0.0,0.0,-0.2931,-0.9243,-0.1621,0.6739,-0.7170,0.1540,0.0904
748,0.0,0.0,0.0,0.0,0.0,0.0,-0.2853,-0.9282,-0.1548,0.6737,-0.7173,0.1529,0.0906
749,0.0,0.0,0.0,0.0,0.0,0.0,-0.2931,-0.9136,-0.1602,0.6740,-0.7173,0.1516,0.0906
750,0.0,0.0,0.0,0.0,0.0,0.0,-0.2922,-0.9229,-0.1636,0.6744,-0.7172,0.1509,0.0894
751,0.0,0.0,0.0,0.0,0.0,0.0,-0.3102,-0.9296,-0.1573,0.6746,-0.7173,0.1514,0.0867
752,0.0,0.0,0.0,0.0,0.0,0.0,-0.3132,-0.9267,-0.1627,0.6746,-0.7175,0.1516,0.0843
753,0.0,0.0,0.0,0.0,0.0,0.0,-0.2946,-0.9195,-0.1738,0.6737,-0.7189,0.1505,0.0821
754,0.0,0.0,0.0,0.0,0.0,0.0,-0.2995,-0.9151,-0.1719,0.6720,-0.7210,0.1484,0.0805
755,0.0,0.0,0.0,0.0,0.0,0.0,-0.2868,-0.9302,-0.1680,0.6711,-0.7227,0.1452,0.0792
756,0.0,0.0,0.0,0.0,0.0,0.0,-0.2868,-0.9569,-0.1631,0.6712,-0.7232,0.1422,0.0784
757,0.0,0.0,0.0,0.0,0.0,0.0,-0.3190,-0.9606,-0.1661,0.6718,-0.7231,0.1403,0.0781
758,0.0,0.0,0.0,0.0,0.0,0.0,-0.3361,-0.9659,-0.1598,0.6731,-0.7219,0.1406,0.0779
759,0.0,0.0,0.0,0.0,0.0,0.0,-0.3034,-0.9665,-0.1675,0.6744,-0.7203,0.1426,0.0773
760,0.0,0.0,0.0,0.0,0.0,0.0,-0.2716,-0.9521,-0.1626,0.6756,-0.7189,0.1443,0.0766
761,0.0,0.0,0.0,0.0,0.0,0.0,-0.2756,-0.9302,-0.1748,0.6767,-0.7176,0.1456,0.0767
762,0.0,0.0,0.0,0.0,0.0,0.0,-0.2741,-0.9292,-0.1723,0.6774,-0.7168,0.1464,0.0772
763,0.0,0.0,0.0,0.0,0.0,0.0,-0.2741,-0.9351,-0.1528,0.6785,-0.7157,0.1459,0.0784
764,0.0,0.0,0.0,0.0,0.0,0.0,-0.2746,-0.9317,-0.1597,0.6796,-0.7147,0.1450,0.0794
765,0.0,0.0,0.0,0.0,0.0,0.0,-0.2931,-0.9355,-0.1480,0.6810,-0.7133,0.1448,0.0801
766,0.0,0.0,0.0,0.0,0.0,0.0,-0.2975,-0.9384,-0.1441,0.6825,-0.7118,0.1452,0.0800
767,0.0,0.0,0.0,0.0,0.0,0.0,-0.2877,-0.9331,-0.1387,0.6841,-0.7103,0.1458,0.0791
768,0.0,0.0,0.0,0.0,0.0,0.0,-0.2897,-0.9345,-0.1344,0.6860,-0.7084,0.1470,0.0777
769,0.0,0.0,0.0,0.0,0.0,0.0,-0.2892,-0.9617,-0.1290,0.6886,-0.7056,0.1487,0.0760
770,0.0,0.0,0.0,0.0,0.0,0.0,-0.3004,-0.9340,-0.1310,0.6906,-0.7036,0.1494,0.0754
771,0.0,0.0,0.0,0.0,0.0,0.0,-0.2775,-0.9205,-0.1407,0.6924,-0.7018,0.1493,0.0757
772,0.0,0.0,0.0,0.0,0.0,0.0,-0.2613,-0.9458,-0.1353,0.6942,-0.7003,0.1474,0.0761
773,0.0,0.0,0.0,0.0,0.0,0.0,-0.2955,-0.9505,-0.1227,0.6952,-0.6998,0.1450,0.0772
774,0.0,0.0,0.0,0.0,0.0,0.0,-0.3131,-0.9412,-0.1193,0.6951,-0.7000,0.1444,0.0776
775,0.0,0.0,0.0,0.0,0.0,0.0,-0.3102,-0.9582,-0.0998,0.6955,-0.6995,0.1452,0.0767
776,0.0,0.0,0.0,0.0,0.0,0.0,-0.2965,-0.9476,-0.1071,0.6963,-0.6986,0.1469,0.0754
777,0.0,0.0,0.0,0.0,0.0,0.0,-0.2628,-0.9079,-0.1445,0.6960,-0.6987,0.1478,0.0738
778,0.0,0.0,0.0,0.0,0.0,0.0,-0.2692,-0.9127,-0.1485,0.6938,-0.7012,0.1474,0.0724
779,0.0,0.0,0.0,0.0,0.0,0.0,-0.2814,-0.9438,-0.1275,0.6907,-0.7048,0.1453,0.0718
780,0.0,0.0,0.0,0.0,0.0,0.0,-0.2940,-0.9753,-0.1139,0.6875,-0.7084,0.1428,0.0718
781,0.0,0.0,0.0,0.0,0.0,0.0,-0.2882,-0.9442,-0.1236,0.6836,-0.7126,0.1403,0.0723
782,0.0,0.0,0.0,0.0,0.0,0.0,-0.2565,-0.9244,-0.1465,0.6800,-0.7164,0.1381,0.0726
783,0.0,0.0,0.0,0.0,0.0,0.0,-0.2472,-0.9531,-0.1430,0.6784,-0.7183,0.1364,0.0721
784,0.0,0.0,0.0,0.0,0.0,0.0,-0.2682,-0.9696,-0.1363,0.6784,-0.7186,0.1354,0.0713
785,0.0,0.0,0.0,0.0,0.0,0.0,-0.2784,-0.9559,-0.1504,0.6785,-0.7185,0.1360,0.0700
786,0.0,0.0,0.0,0.0,0.0,0.0,-0.2741,-0.9458,-0.1587,0.6786,-0.7182,0.1377,0.0688
787,0.0,0.0,0.0,0.0,0.0,0.0,-0.2619,-0.9366,-0.1694,0.6781,-0.7185,0.1386,0.0684
788,0.0,0.0,0.0,0.0,0.0,0.0,-0.2614,-0.9395,-0.1670,0.6770,-0.7195,0.1383,0.0692
789,0.0,0.0,0.0,0.0,0.0,0.0,-0.2462,-0.9463,-0.1616,0.6764,-0.7202,0.1371,0.0702
790,0.0,0.0,0.0,0.0,0.0,0.0,-0.2506,-0.9415,-0.1684,0.6752,-0.7216,0.1354,0.0715
791,0.0,0.0,0.0,0.0,0.0,0.0,-0.2574,-0.9482,-0.1577,0.6750,-0.7219,0.1344,0.0722
792,0.0,0.0,0.0,0.0,0.0,0.0,-0.2648,-0.9502,-0.1660,0.6747,-0.7222,0.1345,0.0722
793,0.0,0.0,0.0,0.0,0.0,0.0,-0.2711,-0.9433,-0.1689,0.6744,-0.7222,0.1356,0.0717
794,0.0,0.0,0.0,0.0,0.0,0.0,-0.2716,-0.9560,-0.1567,0.6750,-0.7215,0.1372,0.0707
795,0.0,0.0,0.0,0.0,0.0,0.0,-0.2716,-0.9632,-0.1416,0.6775,-0.7189,0.1389,0.0697
796,0.0,0.0,0.0,0.0,0.0,0.0,-0.2829,-0.9399,-0.1621,0.6793,-0.7170,0.1404,0.0693
797,0.0,0.0,0.0,0.0,0.0,0.0,-0.3029,-0.9597,-0.1378,0.6814,-0.7145,0.1423,0.0700
798,0.0,0.0,0.0,0.0,0.0,0.0,-0.2750,-0.9627,-0.1212,0.6850,-0.7108,0.1427,0.0715
799,0.0,0.0,0.0,0.0,0.0,0.0,-0.2780,-0.9404,-0.1514,0.6871,-0.7086,0.1426,0.0735
800,0.0,0.0,0.0,0.0,0.0,0.0,-0.3034,-0.9422,-0.1446,0.6872,-0.7081,0.1436,0.0754
801,0.0,0.0,0.0,0.0,0.0,0.0,-0.2990,-0.9185,-0.1475,0.6866,-0.7084,0.1445,0.0769
802,0.0,0.0,0.0,0.0,0.0,0.0,-0.2663,-0.9050,-0.1680,0.6837,-0.7110,0.1450,0.0778
803,0.0,0.0,0.0,0.0,0.0,0.0,-0.2658,-0.9312,-0.1616,0.6794,-0.7150,0.1456,0.0776
804,0.0,0.0,0.0,0.0,0.0,0.0,-0.2750,-0.9438,-0.1509,0.6750,-0.7192,0.1456,0.0770
805,0.0,0.0,0.0,0.0,0.0,0.0,-0.2496,-0.9288,-0.1367,0.6722,-0.7221,0.1446,0.0762
806,0.0,0.0,0.0,0.0,0.0,0.0,-0.2394,-0.9672,-0.1650,0.6724,-0.7224,0.1426,0.0755
807,0.0,0.0,0.0,0.0,0.0,0.0,-0.3117,-0.9728,-0.1329,0.6716,-0.7234,0.1410,0.0755
808,0.0,0.0,0.0,0.0,0.0,0.0,-0.3366,-0.9450,-0.1447,0.6722,-0.7225,0.1427,0.0757
809,0.0,0.0,0.0,0.0,0.0,0.0,-0.2756,-0.9360,-0.1914,0.6717,-0.7227,0.1443,0.0759
810,0.0,0.0,0.0,0.0,0.0,0.0,-0.2614,-0.9477,-0.1587,0.6708,-0.7234,0.1445,0.0765
811,0.0,0.0,0.0,0.0,0.0,0.0,-0.2843,-0.9341,-0.1709,0.6705,-0.7237,0.1441,0.0771
812,0.0,0.0,0.0,0.0,0.0,0.0,-0.2985,-0.9326,-0.1831,0.6695,-0.7246,0.1443,0.0770
813,0.0,0.0,0.0,0.0,0.0,0.0,-0.2975,-0.9481,-0.1573,0.6692,-0.7248,0.1447,0.0770
814,0.0,0.0,0.0,0.0,0.0,0.0,-0.2912,-0.9404,-0.1621,0.6697,-0.7242,0.1453,0.0769
815,0.0,0.0,0.0,0.0,0.0,0.0,-0.2761,-0.9152,-0.1738,0.6711,-0.7229,0.1455,0.0770
816,0.0,0.0,0.0,0.0,0.0,0.0,-0.2546,-0.9123,-0.1811,0.6732,-0.7211,0.1448,0.0766
817,0.0,0.0,0.0,0.0,0.0,0.0,-0.2887,-0.9452,-0.1616,0.6758,-0.7189,0.1436,0.0766
818,0.0,0.0,0.0,0.0,0.0,0.0,-0.3239,-0.9441,-0.1461,0.6791,-0.7157,0.1438,0.0768
819,0.0,0.0,0.0,0.0,0.0,0.0,-0.2956,-0.9452,-0.1563,0.6825,-0.7121,0.1456,0.0765
820,0.0,0.0,0.0,0.0,0.0,0.0,-0.2843,-0.9438,-0.1456,0.6849,-0.7095,0.1468,0.0768
821,0.0,0.0,0.0,0.0,0.0,0.0,-0.2975,-0.9194,-0.1495,0.6860,-0.7082,0.1476,0.0775
822,0.0,0.0,0.0,0.0,0.0,0.0,-0.2990,-0.9403,-0.1334,0.6871,-0.7068,0.1493,0.0776
823,0.0,0.0,0.0,0.0,0.0,0.0,-0.2789,-0.9554,-0.1192,0.6883,-0.7054,0.1501,0.0776
824,0.0,0.0,0.0,0.0,0.0,0.0,-0.2682,-0.9152,-0.1343,0.6884,-0.7054,0.1501,0.0775
825,0.0,0.0,0.0,0.0,0.0,0.0,-0.2765,-0.9156,-0.1421,0.6889,-0.7049,0.1502,0.0772
826,0.0,0.0,0.0,0.0,0.0,0.0,-0.2662,-0.9254,-0.1377,0.6888,-0.7054,0.1489,0.0767
827,0.0,0.0,0.0,0.0,0.0,0.0,-0.2823,-0.9418,-0.1231,0.6889,-0.7056,0.1477,0.0759
828,0.0,0.0,0.0,0.0,0.0,0.0,-0.3019,-0.9442,-0.1295,0.6891,-0.7055,0.1476,0.0746
829,0.0,0.0,0.0,0.0,0.0,0.0,-0.2872,-0.9472,-0.1192,0.6891,-0.7057,0.1478,0.0729
830,0.0,0.0,0.0,0.0,0.0,0.0,-0.2843,-0.9583,-0.1226,0.6893,-0.7056,0.1481,0.0716
831,0.0,0.0,0.0,0.0,0.0,0.0,-0.2970,-0.9394,-0.1358,0.6884,-0.7065,0.1482,0.0705
832,0.0,0.0,0.0,0.0,0.0,0.0,-0.2711,-0.9249,-0.1548,0.6863,-0.7088,0.1475,0.0698
833,0.0,0.0,0.0,0.0,0.0,0.0,-0.2584,-0.9448,-0.1460,0.6831,-0.7123,0.1455,0.0694
834,0.0,0.0,0.0,0.0,0.0,0.0,-0.2745,-0.9545,-0.1324,0.6804,-0.7154,0.1429,0.0691
835,0.0,0.0,0.0,0.0,0.0,0.0,-0.2838,-0.9443,-0.1470,0.6781,-0.7180,0.1412,0.0687
836,0.0,0.0,0.0,0.0,0.0,0.0,-0.2892,-0.9418,-0.1577,0.6757,-0.7204,0.1406,0.0679
837,0.0,0.0,0.0,0.0,0.0,0.0,-0.2809,-0.9613,-0.1324,0.6747,-0.7216,0.1405,0.0666
838,0.0,0.0,0.0,0.0,0.0,0.0,-0.2838,-0.9763,-0.1285,0.6757,-0.7204,0.1424,0.0642
839,0.0,0.0,0.0,0.0,0.0,0.0,-0.3025,-0.8786,-0.2109,0.6742,-0.7217,0.1433,0.0631
840,0.0,0.0,0.0,0.0,0.0,0.0,-0.2501,-0.9565,-0.1440,0.6749,-0.7214,0.1420,0.0628
841,0.0,0.0,0.0,0.0,0.0,0.0,-0.2843,-1.0016,-0.1270,0.6767,-0.7198,0.1412,0.0633
842,0.0,0.0,0.0,0.0,0.0,0.0,-0.2980,-0.9355,-0.1514,0.6783,-0.7182,0.1410,0.0650
843,0.0,0.0,0.0,0.0,0.0,0.0,-0.2565,-0.9269,-0.1787,0.6790,-0.7173,0.1411,0.0670
844,0.0,0.0,0.0,0.0,0.0,0.0,-0.2613,-0.9613,-0.1358,0.6797,-0.7166,0.1408,0.0691
845,0.0,0.0,0.0,0.0,0.0,0.0,-0.2721,-0.9613,-0.1348,0.6814,-0.7146,0.1415,0.0706
846,0.0,0.0,0.0,0.0,0.0,0.0,-0.2702,-0.9336,-0.1636,0.6821,-0.7135,0.1434,0.0713
847,0.0,0.0,0.0,0.0,0.0,0.0,-0.2785,-0.9210,-0.1646,0.6815,-0.7135,0.1460,0.0718
848,0.0,0.0,0.0,0.0,0.0,0.0,-0.2731,-0.9550,-0.1377,0.6812,-0.7132,0.1491,0.0717
849,0.0,0.0,0.0,0.0,0.0,0.0,-0.2618,-0.9521,-0.1387,0.6820,-0.7119,0.1516,0.0713
850,0.0,0.0,0.0,0.0,0.0,0.0,-0.2795,-0.9117,-0.1797,0.6812,-0.7123,0.1532,0.0716
851,0.0,0.0,0.0,0.0,0.0,0.0,-0.3068,-0.9180,-0.1763,0.6791,-0.7137,0.1554,0.0726
852,0.0,0.0,0.0,0.0,0.0,0.0,-0.3000,-0.9194,-0.1700,0.6765,-0.7157,0.1570,0.0739
853,0.0,0.0,0.0,0.0,0.0,0.0,-0.2746,-0.9375,-0.1626,0.6750,-0.7171,0.1568,0.0752
854,0.0,0.0,0.0,0.0,0.0,0.0,-0.2736,-0.9399,-0.1655,0.6735,-0.7186,0.1556,0.0761
855,0.0,0.0,0.0,0.0,0.0,0.0,-0.2897,-0.9302,-0.1758,0.6712,-0.7210,0.1544,0.0769
856,0.0,0.0,0.0,0.0,0.0,0.0,-0.2604,-0.9351,-0.1645,0.6701,-0.7223,0.1531,0.0763
857,0.0,0.0,0.0,0.0,0.0,0.0,-0.2638,-0.9317,-0.1757,0.6696,-0.7232,0.1511,0.0764
858,0.0,0.0,0.0,0.0,0.0,0.0,-0.2658,-0.9400,-0.1777,0.6696,-0.7237,0.1491,0.0758
859,0.0,0.0,0.0,0.0,0.0,0.0,-0.3024,-0.9515,-0.1675,0.6696,-0.7240,0.1479,0.0750
860,0.0,0.0,0.0,0.0,0.0,0.0,-0.3180,-0.9505,-0.1607,0.6702,-0.7235,0.1483,0.0736
861,0.0,0.0,0.0,0.0,0.0,0.0,-0.2941,-0.9520,-0.1636,0.6712,-0.7225,0.1491,0.0726
862,0.0,0.0,0.0,0.0,0.0,0.0,-0.2931,-0.9428,-0.1646,0.6725,-0.7212,0.1498,0.0719
863,0.0,0.0,0.0,0.0,0.0,0.0,-0.2985,-0.9384,-0.1704,0.6738,-0.7199,0.1500,0.0723
864,0.0,0.0,0.0,0.0,0.0,0.0,-0.2672,-0.9467,-0.1592,0.6753,-0.7186,0.1492,0.0730
865,0.0,0.0,0.0,0.0,0.0,0.0,-0.2379,-0.9255,-0.1723,0.6767,-0.7177,0.1463,0.0740
866,0.0,0.0,0.0,0.0,0.0,0.0,-0.2565,-0.9172,-0.1767,0.6778,-0.7173,0.1431,0.0752
867,0.0,0.0,0.0,0.0,0.0,0.0,-0.2780,-0.9336,-0.1611,0.6788,-0.7167,0.1408,0.0755
868,0.0,0.0,0.0,0.0,0.0,0.0,-0.2819,-0.9307,-0.1685,0.6789,-0.7170,0.1393,0.0746
869,0.0,0.0,0.0,0.0,0.0,0.0,-0.2746,-0.9351,-0.1777,0.6773,-0.7190,0.1387,0.0719
870,0.0,0.0,0.0,0.0,0.0,0.0,-0.2658,-0.9414,-0.1582,0.6746,-0.7219,0.1378,0.0688
871,0.0,0.0,0.0,0.0,0.0,0.0,-0.2315,-0.9580,-0.1542,0.6732,-0.7237,0.1366,0.0658
872,0.0,0.0,0.0,0.0,0.0,0.0,-0.2369,-0.9639,-0.1606,0.6726,-0.7249,0.1346,0.0636
873,0.0,0.0,0.0,0.0,0.0,0.0,-0.2926,-0.9729,-0.1451,0.6739,-0.7239,0.1336,0.0634
874,0.0,0.0,0.0,0.0,0.0,0.0,-0.2946,-0.9719,-0.1802,0.6747,-0.7229,0.1349,0.0636
875,0.0,0.0,0.0,0.0,0.0,0.0,-0.2662,-0.9584,-0.1660,0.6753,-0.7221,0.1354,0.0645
876,0.0,0.0,0.0,0.0,0.0,0.0,-0.2394,-0.9546,-0.1655,0.6766,-0.7208,0.1353,0.0660
877,0.0,0.0,0.0,0.0,0.0,0.0,-0.2428,-0.9546,-0.1713,0.6779,-0.7194,0.1362,0.0667
878,0.0,0.0,0.0,0.0,0.0,0.0,-0.2565,-0.9497,-0.1660,0.6788,-0.7182,0.1373,0.0673
879,0.0,0.0,0.0,0.0,0.0,0.0,-0.2633,-0.9516,-0.1631,0.6795,-0.7172,0.1390,0.0673
880,0.0,0.0,0.0,0.0,0.0,0.0,-0.2599,-0.9458,-0.1543,0.6805,-0.7159,0.1410,0.0670
881,0.0,0.0,0.0,0.0,0.0,0.0,-0.2682,-0.9545,-0.1450,0.6821,-0.7141,0.1429,0.0669
882,0.0,0.0,0.0,0.0,0.0,0.0,-0.2814,-0.9661,-0.1368,0.6843,-0.7115,0.1453,0.0666
883,0.0,0.0,0.0,0.0,0.0,0.0,-0.2853,-0.9520,-0.1460,0.6863,-0.7090,0.1478,0.0666
884,0.0,0.0,0.0,0.0,0.0,0.0,-0.2839,-0.9287,-0.1597,0.6873,-0.7075,0.1502,0.0675
885,0.0,0.0,0.0,0.0,0.0,0.0,-0.2672,-0.9365,-0.1377,0.6887,-0.7058,0.1514,0.0686
886,0.0,0.0,0.0,0.0,0.0,0.0,-0.2701,-0.9521,-0.1285,0.6904,-0.7039,0.1515,0.0698
887,0.0,0.0,0.0,0.0,0.0,0.0,-0.2882,-0.9549,-0.1114,0.6927,-0.7017,0.1512,0.0710
888,0.0,0.0,0.0,0.0,0.0,0.0,-0.2916,-0.9360,-0.1017,0.6962,-0.6982,0.1507,0.0719
889,0.0,0.0,0.0,0.0,0.0,0.0,-0.2726,-0.9152,-0.1192,0.6994,-0.6951,0.1498,0.0719
890,0.0,0.0,0.0,0.0,0.0,0.0,-0.2589,-0.8938,-0.1416,0.7010,-0.6938,0.1489,0.0710
891,0.0,0.0,0.0,0.0,0.0,0.0,-0.2604,-0.9210,-0.1367,0.7012,-0.6941,0.1471,0.0698
892,0.0,0.0,0.0,0.0,0.0,0.0,-0.2804,-0.9365,-0.1236,0.6991,-0.6970,0.1443,0.0681
893,0.0,0.0,0.0,0.0,0.0,0.0,-0.2775,-0.9006,-0.1485,0.6923,-0.7044,0.1417,0.0665
894,0.0,0.0,0.0,0.0,0.0,0.0,-0.2208,-0.9100,-0.1298,0.6860,-0.7114,0.1383,0.0645
895,0.0,0.0,0.0,0.0,0.0,0.0,-0.1972,-0.9805,-0.0810,0.6851,-0.7135,0.1326,0.0629
896,0.0,0.0,0.0,0.0,0.0,0.0,-0.2383,-1.0143,-0.0743,0.6888,-0.7109,0.1283,0.0614
897,0.0,0.0,0.0,0.0,0.0,0.0,-0.3434,-0.9843,-0.1174,0.6934,-0.7064,0.1292,0.0596
898,0.0,0.0,0.0,0.0,0.0,0.0,-0.3557,-0.9421,-0.1403,0.6945,-0.7046,0.1336,0.0580
899,0.0,0.0,0.0,0.0,0.0,0.0,-0.2711,-0.9477,-0.1411,0.6938,-0.7043,0.1389,0.0569
900,0.0,0.0,0.0,0.0,0.0,0.0,-0.2481,-0.9973,-0.1060,0.6945,-0.7029,0.1423,0.0573
901,0.0,0.0,0.0,0.0,0.0,0.0,-0.2799,-0.9540,-0.1329,0.6930,-0.7040,0.1433,0.0596
902,0.0,0.0,0.0,0.0,0.0,0.0,-0.2809,-0.9253,-0.1543,0.6882,-0.7082,0.1444,0.0624
903,0.0,0.0,0.0,0.0,0.0,0.0,-0.2701,-0.9749,-0.1070,0.6851,-0.7109,0.1451,0.0649
904,0.0,0.0,0.0,0.0,0.0,0.0,-0.2759,-0.9797,-0.0968,0.6837,-0.7118,0.1457,0.0680
905,0.0,0.0,0.0,0.0,0.0,0.0,-0.2492,-0.9114,-0.1567,0.6827,-0.7125,0.1460,0.0700
906,0.0,0.0,0.0,0.0,0.0,0.0,-0.2643,-0.9191,-0.1816,0.6804,-0.7146,0.1464,0.0701
907,0.0,0.0,0.0,0.0,0.0,0.0,-0.2926,-0.9632,-0.1397,0.6785,-0.7163,0.1475,0.0693
908,0.0,0.0,0.0,0.0,0.0,0.0,-0.2877,-0.9710,-0.1246,0.6777,-0.7169,0.1485,0.0684
909,0.0,0.0,0.0,0.0,0.0,0.0,-0.2819,-0.9292,-0.1612,0.6774,-0.7170,0.1499,0.0675
910,0.0,0.0,0.0,0.0,0.0,0.0,-0.2790,-0.9185,-0.1836,0.6760,-0.7183,0.1497,0.0684
911,0.0,0.0,0.0,0.0,0.0,0.0,-0.2535,-0.9347,-0.1606,0.6749,-0.7198,0.1463,0.0707
912,0.0,0.0,0.0,0.0,0.0,0.0,-0.2535,-0.9347,-0.1577,0.6749,-0.7205,0.1416,0.0733
913,0.0,0.0,0.0,0.0,0.0,0.0,-0.2697,-0.9399,-0.1670,0.6752,-0.7207,0.1377,0.0757
914,0.0,0.0,0.0,0.0,0.0,0.0,-0.2814,-0.9525,-0.1607,0.6752,-0.7211,0.1349,0.0769
915,0.0,0.0,0.0,0.0,0.0,0.0,-0.2838,-0.9549,-0.1548,0.6752,-0.7212,0.1344,0.0767
916,0.0,0.0,0.0,0.0,0.0,0.0,-0.2579,-0.9453,-0.1626,0.6759,-0.7206,0.1350,0.0746
917,0.0,0.0,0.0,0.0,0.0,0.0,-0.2594,-0.9385,-0.1796,0.6757,-0.7210,0.1354,0.0722
918,0.0,0.0,0.0,0.0,0.0,0.0,-0.2667,-0.9477,-0.1606,0.6753,-0.7215,0.1360,0.0698
919,0.0,0.0,0.0,0.0,0.0,0.0,-0.2623,-0.9507,-0.1582,0.6751,-0.7219,0.1360,0.0682
920,0.0,0.0,0.0,0.0,0.0,0.0,-0.2530,-0.9536,-0.1596,0.6751,-0.7222,0.1342,0.0686
921,0.0,0.0,0.0,0.0,0.0,0.0,-0.2643,-0.9424,-0.1645,0.6748,-0.7228,0.1316,0.0700
922,0.0,0.0,0.0,0.0,0.0,0.0,-0.2614,-0.9414,-0.1645,0.6744,-0.7233,0.1299,0.0715
923,0.0,0.0,0.0,0.0,0.0,0.0,-0.2457,-0.9507,-0.1543,0.6743,-0.7236,0.1283,0.0723
924,0.0,0.0,0.0,0.0,0.0,0.0,-0.2603,-0.9706,-0.1411,0.6751,-0.7230,0.1278,0.0724
925,0.0,0.0,0.0,0.0,0.0,0.0,-0.2657,-0.9506,-0.1514,0.6759,-0.7222,0.1286,0.0711
926,0.0,0.0,0.0,0.0,0.0,0.0,-0.2418,-0.9294,-0.1703,0.6760,-0.7220,0.1302,0.0693
927,0.0,0.0,0.0,0.0,0.0,0.0,-0.2437,-0.9653,-0.1513,0.6766,-0.7214,0.1315,0.0675
928,0.0,0.0,0.0,0.0,0.0,0.0,-0.2598,-0.9754,-0.1343,0.6780,-0.7200,0.1321,0.0665
929,0.0,0.0,0.0,0.0,0.0,0.0,-0.2667,-0.9531,-0.1587,0.6791,-0.7189,0.1327,0.0662
930,0.0,0.0,0.0,0.0,0.0,0.0,-0.2584,-0.9570,-0.1489,0.6803,-0.7176,0.1329,0.0670
931,0.0,0.0,0.0,0.0,0.0,0.0,-0.2511,-0.9585,-0.1396,0.6821,-0.7159,0.1323,0.0682
932,0.0,0.0,0.0,0.0,0.0,0.0,-0.2599,-0.9545,-0.1431,0.6839,-0.7141,0.1324,0.0690
933,0.0,0.0,0.0,0.0,0.0,0.0,-0.2799,-0.9564,-0.1251,0.6862,-0.7116,0.1339,0.0691
934,0.0,0.0,0.0,0.0,0.0,0.0,-0.2745,-0.9584,-0.1182,0.6903,-0.7072,0.1365,0.0686
935,0.0,0.0,0.0,0.0,0.0,0.0,-0.2838,-0.9647,-0.1100,0.6948,-0.7022,0.1403,0.0675
936,0.0,0.0,0.0,0.0,0.0,0.0,-0.2994,-0.9447,-0.1159,0.6985,-0.6977,0.1446,0.0665
937,0.0,0.0,0.0,0.0,0.0,0.0,-0.2921,-0.9161,-0.1378,0.7008,-0.6945,0.1490,0.0663
938,0.0,0.0,0.0,0.0,0.0,0.0,-0.2902,-0.9243,-0.1266,0.7019,-0.6926,0.1519,0.0672
939,0.0,0.0,0.0,0.0,0.0,0.0,-0.3063,-0.9539,-0.0925,0.7030,-0.6911,0.1532,0.0690
940,0.0,0.0,0.0,0.0,0.0,0.0,-0.3092,-0.9320,-0.1027,0.7026,-0.6910,0.1541,0.0717
941,0.0,0.0,0.0,0.0,0.0,0.0,-0.3004,-0.9301,-0.1032,0.7025,-0.6906,0.1553,0.0739
942,0.0,0.0,0.0,0.0,0.0,0.0,-0.2813,-0.9375,-0.0914,0.7025,-0.6904,0.1552,0.0753
943,0.0,0.0,0.0,0.0,0.0,0.0,-0.2838,-0.9146,-0.1046,0.7016,-0.6914,0.1547,0.0756
944,0.0,0.0,0.0,0.0,0.0,0.0,-0.2819,-0.9088,-0.1163,0.7004,-0.6928,0.1544,0.0752
945,0.0,0.0,0.0,0.0,0.0,0.0,-0.2813,-0.9433,-0.1007,0.6995,-0.6939,0.1537,0.0742
946,0.0,0.0,0.0,0.0,0.0,0.0,-0.3033,-0.9481,-0.0852,0.6988,-0.6950,0.1526,0.0735
947,0.0,0.0,0.0,0.0,0.0,0.0,-0.3033,-0.9432,-0.0866,0.6989,-0.6951,0.1517,0.0731
948,0.0,0.0,0.0,0.0,0.0,0.0,-0.2965,-0.9403,-0.1002,0.6991,-0.6951,0.1508,0.0730
949,0.0,0.0,0.0,0.0,0.0,0.0,-0.3150,-0.9529,-0.0842,0.6996,-0.6947,0.1502,0.0735
950,0.0,0.0,0.0,0.0,0.0,0.0,-0.3121,-0.9412,-0.0876,0.7009,-0.6932,0.1506,0.0743
951,0.0,0.0,0.0,0.0,0.0,0.0,-0.2843,-0.9190,-0.1178,0.7012,-0.6928,0.1509,0.0752
952,0.0,0.0,0.0,0.0,0.0,0.0,-0.2755,-0.9385,-0.1061,0.7013,-0.6927,0.1508,0.0755
953,0.0,0.0,0.0,0.0,0.0,0.0,-0.2945,-0.9549,-0.0876,0.7018,-0.6922,0.1506,0.0754
954,0.0,0.0,0.0,0.0,0.0,0.0,-0.3014,-0.9456,-0.0925,0.7026,-0.6914,0.1511,0.0747
955,0.0,0.0,0.0,0.0,0.0,0.0,-0.3068,-0.9306,-0.1047,0.7029,-0.6909,0.1523,0.0737
956,0.0,0.0,0.0,0.0,0.0,0.0,-0.2955,-0.9544,-0.0861,0.7036,-0.6901,0.1531,0.0728
957,0.0,0.0,0.0,0.0,0.0,0.0,-0.2916,-0.9496,-0.0822,0.7042,-0.6895,0.1533,0.0721
958,0.0,0.0,0.0,0.0,0.0,0.0,-0.2789,-0.9263,-0.1119,0.7040,-0.6898,0.1531,0.0720
959,0.0,0.0,0.0,0.0,0.0,0.0,-0.2686,-0.9424,-0.0953,0.7037,-0.6903,0.1517,0.0722
960,0.0,0.0,0.0,0.0,0.0,0.0,-0.2877,-0.9472,-0.0895,0.7036,-0.6909,0.1498,0.0722
961,0.0,0.0,0.0,0.0,0.0,0.0,-0.3038,-0.9340,-0.1081,0.7026,-0.6921,0.1491,0.0719
962,0.0,0.0,0.0,0.0,0.0,0.0,-0.2901,-0.9471,-0.0949,0.7018,-0.6931,0.1489,0.0705
963,0.0,0.0,0.0,0.0,0.0,0.0,-0.2847,-0.9549,-0.0954,0.7006,-0.6945,0.1491,0.0684
964,0.0,0.0,0.0,0.0,0.0,0.0,-0.2696,-0.9283,-0.1017,0.6996,-0.6957,0.1489,0.0667
965,0.0,0.0,0.0,0.0,0.0,0.0,-0.2715,-0.9632,-0.0982,0.7006,-0.6949,0.1484,0.0651
966,0.0,0.0,0.0,0.0,0.0,0.0,-0.3140,-0.9859,-0.0866,0.7012,-0.6945,0.1482,0.0644
967,0.0,0.0,0.0,0.0,0.0,0.0,-0.3209,-0.9655,-0.0803,0.7022,-0.6933,0.1485,0.0647
968,0.0,0.0,0.0,0.0,0.0,0.0,-0.2897,-0.9462,-0.1085,0.7024,-0.6929,0.1491,0.0657
969,0.0,0.0,0.0,0.0,0.0,0.0,-0.2706,-0.9390,-0.1095,0.7019,-0.6933,0.1489,0.0673
970,0.0,0.0,0.0,0.0,0.0,0.0,-0.2725,-0.9569,-0.0846,0.7019,-0.6933,0.1482,0.0688
971,0.0,0.0,0.0,0.0,0.0,0.0,-0.2960,-0.9617,-0.0842,0.7021,-0.6931,0.1479,0.0698
972,0.0,0.0,0.0,0.0,0.0,0.0,-0.2892,-0.9438,-0.0929,0.7020,-0.6929,0.1484,0.0705
973,0.0,0.0,0.0,0.0,0.0,0.0,-0.2808,-0.9481,-0.0861,0.7024,-0.6923,0.1494,0.0709
974,0.0,0.0,0.0,0.0,0.0,0.0,-0.2740,-0.9457,-0.0909,0.7031,-0.6914,0.1503,0.0709
975,0.0,0.0,0.0,0.0,0.0,0.0,-0.2760,-0.9341,-0.1017,0.7026,-0.6918,0.1506,0.0710
976,0.0,0.0,0.0,0.0,0.0,0.0,-0.2740,-0.9268,-0.0992,0.7015,-0.6928,0.1509,0.0714
977,0.0,0.0,0.0,0.0,0.0,0.0,-0.2594,-0.9332,-0.1046,0.7003,-0.6941,0.1502,0.0722
978,0.0,0.0,0.0,0.0,0.0,0.0,-0.2657,-0.9458,-0.1051,0.6988,-0.6958,0.1490,0.0729
979,0.0,0.0,0.0,0.0,0.0,0.0,-0.2848,-0.9443,-0.1017,0.6973,-0.6974,0.1483,0.0734
980,0.0,0.0,0.0,0.0,0.0,0.0,-0.2857,-0.9540,-0.1066,0.6961,-0.6987,0.1479,0.0734
981,0.0,0.0,0.0,0.0,0.0,0.0,-0.2872,-0.9603,-0.1002,0.6952,-0.6996,0.1481,0.0729
982,0.0,0.0,0.0,0.0,0.0,0.0,-0.2916,-0.9471,-0.1100,0.6948,-0.6999,0.1488,0.0723
983,0.0,0.0,0.0,0.0,0.0,0.0,-0.2867,-0.9491,-0.1207,0.6943,-0.7003,0.1494,0.0715
984,0.0,0.0,0.0,0.0,0.0,0.0,-0.2833,-0.9472,-0.1139,0.6934,-0.7013,0.1492,0.0712
985,0.0,0.0,0.0,0.0,0.0,0.0,-0.2779,-0.9355,-0.1202,0.6927,-0.7023,0.1480,0.0711
986,0.0,0.0,0.0,0.0,0.0,0.0,-0.2843,-0.9428,-0.1246,0.6918,-0.7035,0.1465,0.0710
987,0.0,0.0,0.0,0.0,0.0,0.0,-0.2911,-0.9505,-0.1144,0.6909,-0.7047,0.1449,0.0712
988,0.0,0.0,0.0,0.0,0.0,0.0,-0.2906,-0.9433,-0.1153,0.6908,-0.7052,0.1432,0.0709
989,0.0,0.0,0.0,0.0,0.0,0.0,-0.2951,-0.9311,-0.1275,0.6902,-0.7060,0.1421,0.0703
990,0.0,0.0,0.0,0.0,0.0,0.0,-0.2901,-0.9486,-0.1119,0.6899,-0.7065,0.1419,0.0693
991,0.0,0.0,0.0,0.0,0.0,0.0,-0.2848,-0.9549,-0.1105,0.6899,-0.7066,0.1416,0.0682
992,0.0,0.0,0.0,0.0,0.0,0.0,-0.2867,-0.9544,-0.1134,0.6898,-0.7069,0.1412,0.0676
993,0.0,0.0,0.0,0.0,0.0,0.0,-0.2745,-0.9530,-0.1129,0.6900,-0.7068,0.1406,0.0677
994,0.0,0.0,0.0,0.0,0.0,0.0,-0.2682,-0.9409,-0.1246,0.6900,-0.7070,0.1393,0.0683
995,0.0,0.0,0.0,0.0,0.0,0.0,-0.2638,-0.9453,-0.1207,0.6900,-0.7072,0.1377,0.0691
996,0.0,0.0,0.0,0.0,0.0,0.0,-0.2755,-0.9555,-0.1197,0.6896,-0.7079,0.1359,0.0696
997,0.0,0.0,0.0,0.0,0.0,0.0,-0.2897,-0.9583,-0.1275,0.6882,-0.7095,0.1350,0.0695
998,0.0,0.0,0.0,0.0,0.0,0.0,-0.2760,-0.9652,-0.1295,0.6853,-0.7125,0.1344,0.0687
999,0.0,0.0,0.0,0.0,0.0,0.0,-0.2647,-0.9618,-0.1270,0.6811,-0.7167,0.1337,0.0679
1000,0.0,0.0,0.0,0.0,0.0,0.0,-0.2442,-0.9570,-0.1245,0.6789,-0.7189,0.1333,0.0671
1001,0.0,0.0,0.0,0.0,0.0,0.0,-0.2505,-0.9832,-0.1250,0.6796,-0.7184,0.1325,0.0670
1002,0.0,0.0,0.0,0.0,0.0,0.0,-0.3053,-0.9952,-0.1198,0.6812,-0.7168,0.1326,0.0679
1003,0.0,0.0,0.0,0.0,0.0,0.0,-0.3136,-0.9519,-0.1339,0.6827,-0.7150,0.1342,0.0692
1004,0.0,0.0,0.0,0.0,0.0,0.0,-0.2716,-0.9244,-0.1538,0.6834,-0.7139,0.1353,0.0710
1005,0.0,0.0,0.0,0.0,0.0,0.0,-0.2491,-0.9303,-0.1396,0.6842,-0.7129,0.1354,0.0731
1006,0.0,0.0,0.0,0.0,0.0,0.0,-0.2677,-0.9331,-0.1363,0.6853,-0.7116,0.1356,0.0749
1007,0.0,0.0,0.0,0.0,0.0,0.0,-0.2789,-0.9331,-0.1285,0.6859,-0.7108,0.1360,0.0759
1008,0.0,0.0,0.0,0.0,0.0,0.0,-0.2687,-0.9283,-0.1319,0.6861,-0.7105,0.1362,0.0764
1009,0.0,0.0,0.0,0.0,0.0,0.0,-0.2696,-0.9283,-0.1299,0.6864,-0.7102,0.1364,0.0768
1010,0.0,0.0,0.0,0.0,0.0,0.0,-0.2765,-0.9457,-0.1256,0.6865,-0.7100,0.1368,0.0767
1011,0.0,0.0,0.0,0.0,0.0,0.0,-0.2745,-0.9433,-0.1280,0.6864,-0.7101,0.1370,0.0765
1012,0.0,0.0,0.0,0.0,0.0,0.0,-0.2682,-0.9322,-0.1358,0.6860,-0.7105,0.1370,0.0761
1013,0.0,0.0,0.0,0.0,0.0,0.0,-0.2775,-0.9487,-0.1256,0.6859,-0.7107,0.1372,0.0759
1014,0.0,0.0,0.0,0.0,0.0,0.0,-0.2789,-0.9525,-0.1236,0.6860,-0.7105,0.1371,0.0757
1015,0.0,0.0,0.0,0.0,0.0,0.0,-0.2716,-0.9375,-0.1426,0.6856,-0.7110,0.1369,0.0758
1016,0.0,0.0,0.0,0.0,0.0,0.0,-0.2794,-0.9394,-0.1436,0.6843,-0.7122,0.1367,0.0761
1017,0.0,0.0,0.0,0.0,0.0,0.0,-0.2784,-0.9457,-0.1304,0.6832,-0.7132,0.1367,0.0764
1018,0.0,0.0,0.0,0.0,0.0,0.0,-0.2589,-0.9342,-0.1465,0.6823,-0.7142,0.1363,0.0761
1019,0.0,0.0,0.0,0.0,0.0,0.0,-0.2530,-0.9366,-0.1543,0.6809,-0.7158,0.1354,0.0756
1020,0.0,0.0,0.0,0.0,0.0,0.0,-0.2594,-0.9424,-0.1455,0.6797,-0.7172,0.1344,0.0747
1021,0.0,0.0,0.0,0.0,0.0,0.0,-0.2711,-0.9467,-0.1543,0.6785,-0.7186,0.1337,0.0735
1022,0.0,0.0,0.0,0.0,0.0,0.0,-0.2638,-0.9482,-0.1562,0.6775,-0.7198,0.1331,0.0725
1023,0.0,0.0,0.0,0.0,0.0,0.0,-0.2584,-0.9458,-0.1650,0.6765,-0.7210,0.1321,0.0717
1024,0.0,0.0,0.0,0.0,0.0,0.0,-0.2589,-0.9448,-0.1635,0.6752,-0.7225,0.1307,0.0714
1025,0.0,0.0,0.0,0.0,0.0,0.0,-0.2555,-0.9502,-0.1577,0.6742,-0.7236,0.1293,0.0714
1026,0.0,0.0,0.0,0.0,0.0,0.0,-0.2457,-0.9527,-0.1611,0.6737,-0.7243,0.1283,0.0713
1027,0.0,0.0,0.0,0.0,0.0,0.0,-0.2526,-0.9502,-0.1655,0.6736,-0.7245,0.1274,0.0714
1028,0.0,0.0,0.0,0.0,0.0,0.0,-0.2584,-0.9584,-0.1553,0.6743,-0.7239,0.1270,0.0713
1029,0.0,0.0,0.0,0.0,0.0,0.0,-0.2628,-0.9506,-0.1660,0.6750,-0.7233,0.1274,0.0710
1030,0.0,0.0,0.0,0.0,0.0,0.0,-0.2604,-0.9497,-0.1645,0.6756,-0.7226,0.1281,0.0709
1031,0.0,0.0,0.0,0.0,0.0,0.0,-0.2482,-0.9556,-0.1562,0.6762,-0.7220,0.1283,0.0707
1032,0.0,0.0,0.0,0.0,0.0,0.0,-0.2413,-0.9536,-0.1630,0.6764,-0.7219,0.1282,0.0706
1033,0.0,0.0,0.0,0.0,0.0,0.0,-0.2452,-0.9561,-0.1621,0.6767,-0.7216,0.1278,0.0708
1034,0.0,0.0,0.0,0.0,0.0,0.0,-0.2521,-0.9546,-0.1582,0.6772,-0.7211,0.1274,0.0714
1035,0.0,0.0,0.0,0.0,0.0,0.0,-0.2437,-0.9565,-0.1504,0.6781,-0.7203,0.1275,0.0719
1036,0.0,0.0,0.0,0.0,0.0,0.0,-0.2369,-0.9571,-0.1494,0.6800,-0.7184,0.1276,0.0725
1037,0.0,0.0,0.0,0.0,0.0,0.0,-0.2770,-0.9729,-0.1436,0.6821,-0.7161,0.1288,0.0728
1038,0.0,0.0,0.0,0.0,0.0,0.0,-0.3146,-0.9539,-0.1402,0.6836,-0.7142,0.1314,0.0725
1039,0.0,0.0,0.0,0.0,0.0,0.0,-0.2707,-0.9161,-0.1655,0.6838,-0.7137,0.1339,0.0723
1040,0.0,0.0,0.0,0.0,0.0,0.0,-0.2262,-0.9275,-0.1649,0.6834,-0.7139,0.1346,0.0718
1041,0.0,0.0,0.0,0.0,0.0,0.0,-0.2560,-0.9414,-0.1470,0.6828,-0.7147,0.1331,0.0722
1042,0.0,0.0,0.0,0.0,0.0,0.0,-0.2838,-0.9418,-0.1431,0.6820,-0.7156,0.1322,0.0725
1043,0.0,0.0,0.0,0.0,0.0,0.0,-0.2794,-0.9409,-0.1529,0.6809,-0.7168,0.1316,0.0727
1044,0.0,0.0,0.0,0.0,0.0,0.0,-0.2770,-0.9389,-0.1494,0.6797,-0.7181,0.1307,0.0731
1045,0.0,0.0,0.0,0.0,0.0,0.0,-0.2726,-0.9424,-0.1431,0.6791,-0.7187,0.1307,0.0728
1046,0.0,0.0,0.0,0.0,0.0,0.0,-0.2662,-0.9438,-0.1523,0.6786,-0.7192,0.1304,0.0724
1047,0.0,0.0,0.0,0.0,0.0,0.0,-0.2667,-0.9516,-0.1416,0.6789,-0.7190,0.1303,0.0721
1048,0.0,0.0,0.0,0.0,0.0,0.0,-0.2711,-0.9501,-0.1446,0.6793,-0.7186,0.1303,0.0721
1049,0.0,0.0,0.0,0.0,0.0,0.0,-0.2692,-0.9424,-0.1485,0.6799,-0.7180,0.1298,0.0728
1050,0.0,0.0,0.0,0.0,0.0,0.0,-0.2565,-0.9468,-0.1479,0.6805,-0.7175,0.1287,0.0742
1051,0.0,0.0,0.0,0.0,0.0,0.0,-0.2560,-0.9512,-0.1450,0.6811,-0.7170,0.1272,0.0761
1052,0.0,0.0,0.0,0.0,0.0,0.0,-0.2545,-0.9497,-0.1455,0.6815,-0.7167,0.1256,0.0780
1053,0.0,0.0,0.0,0.0,0.0,0.0,-0.2467,-0.9497,-0.1411,0.6823,-0.7161,0.1241,0.0796
1054,0.0,0.0,0.0,0.0,0.0,0.0,-0.2403,-0.9493,-0.1416,0.6830,-0.7155,0.1232,0.0804
1055,0.0,0.0,0.0,0.0,0.0,0.0,-0.2628,-0.9579,-0.1285,0.6840,-0.7144,0.1232,0.0805
1056,0.0,0.0,0.0,0.0,0.0,0.0,-0.2691,-0.9540,-0.1314,0.6852,-0.7132,0.1239,0.0803
1057,0.0,0.0,0.0,0.0,0.0,0.0,-0.2657,-0.9555,-0.1309,0.6864,-0.7119,0.1252,0.0799
1058,0.0,0.0,0.0,0.0,0.0,0.0,-0.2638,-0.9599,-0.1226,0.6878,-0.7104,0.1262,0.0797
1059,0.0,0.0,0.0,0.0,0.0,0.0,-0.2691,-0.9608,-0.1187,0.6892,-0.7089,0.1270,0.0797
1060,0.0,0.0,0.0,0.0,0.0,0.0,-0.2706,-0.9477,-0.1212,0.6906,-0.7074,0.1273,0.0803
1061,0.0,0.0,0.0,0.0,0.0,0.0,-0.2677,-0.9516,-0.1168,0.6920,-0.7059,0.1277,0.0812
1062,0.0,0.0,0.0,0.0,0.0,0.0,-0.2672,-0.9385,-0.1241,0.6932,-0.7045,0.1283,0.0821
1063,0.0,0.0,0.0,0.0,0.0,0.0,-0.2589,-0.9264,-0.1294,0.6942,-0.7034,0.1285,0.0824
1064,0.0,0.0,0.0,0.0,0.0,0.0,-0.2652,-0.9438,-0.1168,0.6953,-0.7023,0.1287,0.0820
1065,0.0,0.0,0.0,0.0,0.0,0.0,-0.2867,-0.9520,-0.1032,0.6967,-0.7009,0.1298,0.0809
1066,0.0,0.0,0.0,0.0,0.0,0.0,-0.2926,-0.9374,-0.1115,0.6974,-0.6999,0.1320,0.0797
1067,0.0,0.0,0.0,0.0,0.0,0.0,-0.2594,-0.9230,-0.1207,0.6982,-0.6990,0.1335,0.0785
1068,0.0,0.0,0.0,0.0,0.0,0.0,-0.2384,-0.9216,-0.1304,0.6983,-0.6991,0.1331,0.0775
1069,0.0,0.0,0.0,0.0,0.0,0.0,-0.2526,-0.9196,-0.1319,0.6970,-0.7007,0.1316,0.0768
1070,0.0,0.0,0.0,0.0,0.0,0.0,-0.2667,-0.9404,-0.1177,0.6961,-0.7020,0.1297,0.0761
1071,0.0,0.0,0.0,0.0,0.0,0.0,-0.2589,-0.9477,-0.1250,0.6945,-0.7041,0.1273,0.0751
1072,0.0,0.0,0.0,0.0,0.0,0.0,-0.2491,-0.9361,-0.1304,0.6917,-0.7075,0.1250,0.0732
1073,0.0,0.0,0.0,0.0,0.0,0.0,-0.2491,-0.9560,-0.1270,0.6881,-0.7117,0.1229,0.0703
1074,0.0,0.0,0.0,0.0,0.0,0.0,-0.2579,-0.9725,-0.1148,0.6839,-0.7163,0.1220,0.0667
1075,0.0,0.0,0.0,0.0,0.0,0.0,-0.2286,-0.9619,-0.1289,0.6811,-0.7193,0.1214,0.0631
1076,0.0,0.0,0.0,0.0,0.0,0.0,-0.2266,-0.9702,-0.1484,0.6793,-0.7214,0.1204,0.0603
1077,0.0,0.0,0.0,0.0,0.0,0.0,-0.2374,-0.9813,-0.1372,0.6781,-0.7228,0.1197,0.0581
1078,0.0,0.0,0.0,0.0,0.0,0.0,-0.2374,-0.9813,-0.1489,0.6777,-0.7234,0.1192,0.0566
1079,0.0,0.0,0.0,0.0,0.0,0.0,-0.2281,-0.9736,-0.1513,0.6779,-0.7233,0.1187,0.0557
1080,0.0,0.0,0.0,0.0,0.0,0.0,-0.2183,-0.9702,-0.1474,0.6791,-0.7224,0.1183,0.0555
1081,0.0,0.0,0.0,0.0,0.0,0.0,-0.2213,-0.9600,-0.1625,0.6801,-0.7213,0.1186,0.0551
1082,0.0,0.0,0.0,0.0,0.0,0.0,-0.2257,-0.9552,-0.1620,0.6806,-0.7208,0.1191,0.0547
1083,0.0,0.0,0.0,0.0,0.0,0.0,-0.2369,-0.9886,-0.1450,0.6819,-0.7195,0.1205,0.0539
1084,0.0,0.0,0.0,0.0,0.0,0.0,-0.2535,-0.9856,-0.1323,0.6836,-0.7175,0.1225,0.0534
1085,0.0,0.0,0.0,0.0,0.0,0.0,-0.2427,-0.9731,-0.1396,0.6860,-0.7149,0.1249,0.0528
1086,0.0,0.0,0.0,0.0,0.0,0.0,-0.2413,-0.9808,-0.1372,0.6882,-0.7125,0.1266,0.0528
1087,0.0,0.0,0.0,0.0,0.0,0.0,-0.2525,-0.9677,-0.1255,0.6902,-0.7102,0.1280,0.0529
1088,0.0,0.0,0.0,0.0,0.0,0.0,-0.2403,-0.9376,-0.1425,0.6919,-0.7084,0.1285,0.0543
1089,0.0,0.0,0.0,0.0,0.0,0.0,-0.2310,-0.9410,-0.1406,0.6933,-0.7071,0.1278,0.0558
1090,0.0,0.0,0.0,0.0,0.0,0.0,-0.2281,-0.9571,-0.1152,0.6945,-0.7059,0.1270,0.0569
1091,0.0,0.0,0.0,0.0,0.0,0.0,-0.2325,-0.9420,-0.1187,0.6957,-0.7049,0.1258,0.0579
1092,0.0,0.0,0.0,0.0,0.0,0.0,-0.2281,-0.9309,-0.1289,0.6963,-0.7044,0.1254,0.0578
1093,0.0,0.0,0.0,0.0,0.0,0.0,-0.2384,-0.9410,-0.1221,0.6964,-0.7042,0.1262,0.0567
1094,0.0,0.0,0.0,0.0,0.0,0.0,-0.2379,-0.9454,-0.1216,0.6959,-0.7046,0.1273,0.0555
1095,0.0,0.0,0.0,0.0,0.0,0.0,-0.2447,-0.9527,-0.1216,0.6948,-0.7056,0.1282,0.0545
1096,0.0,0.0,0.0,0.0,0.0,0.0,-0.2515,-0.9599,-0.1119,0.6928,-0.7074,0.1290,0.0541
1097,0.0,0.0,0.0,0.0,0.0,0.0,-0.2153,-0.9698,-0.1084,0.6915,-0.7088,0.1282,0.0546
1098,0.0,0.0,0.0,0.0,0.0,0.0,-0.2265,-1.0158,-0.0996,0.6922,-0.7083,0.1265,0.0554
1099,0.0,0.0,0.0,0.0,0.0,0.0,-0.2891,-0.9981,-0.0914,0.6932,-0.7072,0.1263,0.0573
1100,0.0,0.0,0.0,0.0,0.0,0.0,-0.2608,-0.9385,-0.1250,0.6941,-0.7059,0.1279,0.0593
1101,0.0,0.0,0.0,0.0,0.0,0.0,-0.2203,-0.9644,-0.1235,0.6957,-0.7039,0.1296,0.0606
1102,0.0,0.0,0.0,0.0,0.0,0.0,-0.2329,-0.9872,-0.0884,0.6978,-0.7016,0.1306,0.0619
1103,0.0,0.0,0.0,0.0,0.0,0.0,-0.2608,-0.9516,-0.1085,0.6991,-0.6998,0.1322,0.0631
1104,0.0,0.0,0.0,0.0,0.0,0.0,-0.2604,-0.9307,-0.1250,0.6995,-0.6990,0.1340,0.0642
1105,0.0,0.0,0.0,0.0,0.0,0.0,-0.2340,-0.9299,-0.1265,0.6992,-0.6991,0.1347,0.0652
1106,0.0,0.0,0.0,0.0,0.0,0.0,-0.2320,-0.9372,-0.1230,0.6984,-0.7000,0.1341,0.0661
1107,0.0,0.0,0.0,0.0,0.0,0.0,-0.2315,-0.9556,-0.0967,0.6983,-0.7002,0.1331,0.0661
1108,0.0,0.0,0.0,0.0,0.0,0.0,-0.2593,-0.9434,-0.0982,0.6984,-0.7003,0.1320,0.0664
1109,0.0,0.0,0.0,0.0,0.0,0.0,-0.2691,-0.9409,-0.1060,0.6984,-0.7002,0.1322,0.0666
1110,0.0,0.0,0.0,0.0,0.0,0.0,-0.2750,-0.9477,-0.1207,0.6973,-0.7012,0.1332,0.0661
1111,0.0,0.0,0.0,0.0,0.0,0.0,-0.2760,-0.9559,-0.1158,0.6944,-0.7040,0.1338,0.0653
1112,0.0,0.0,0.0,0.0,0.0,0.0,-0.2745,-0.9584,-0.1197,0.6896,-0.7088,0.1341,0.0641
1113,0.0,0.0,0.0,0.0,0.0,0.0,-0.2701,-0.9822,-0.1041,0.6850,-0.7133,0.1335,0.0637
1114,0.0,0.0,0.0,0.0,0.0,0.0,-0.2705,-1.0128,-0.0797,0.6843,-0.7142,0.1324,0.0642
1115,0.0,0.0,0.0,0.0,0.0,0.0,-0.2759,-0.9856,-0.0978,0.6863,-0.7121,0.1323,0.0661
1116,0.0,0.0,0.0,0.0,0.0,0.0,-0.2926,-0.9637,-0.1378,0.6885,-0.7095,0.1342,0.0680
1117,0.0,0.0,0.0,0.0,0.0,0.0,-0.2857,-0.9569,-0.1217,0.6898,-0.7076,0.1364,0.0698
1118,0.0,0.0,0.0,0.0,0.0,0.0,-0.2408,-0.9308,-0.1328,0.6907,-0.7063,0.1371,0.0722
1119,0.0,0.0,0.0,0.0,0.0,0.0,-0.2467,-0.9289,-0.1284,0.6917,-0.7050,0.1377,0.0747
1120,0.0,0.0,0.0,0.0,0.0,0.0,-0.2604,-0.9167,-0.1202,0.6927,-0.7036,0.1383,0.0769
1121,0.0,0.0,0.0,0.0,0.0,0.0,-0.2638,-0.9196,-0.1241,0.6933,-0.7028,0.1384,0.0789
1122,0.0,0.0,0.0,0.0,0.0,0.0,-0.2657,-0.9312,-0.1095,0.6944,-0.7015,0.1386,0.0802
1123,0.0,0.0,0.0,0.0,0.0,0.0,-0.2721,-0.9283,-0.1124,0.6957,-0.7000,0.1394,0.0809
1124,0.0,0.0,0.0,0.0,0.0,0.0,-0.2833,-0.9365,-0.1027,0.6973,-0.6981,0.1409,0.0806
1125,0.0,0.0,0.0,0.0,0.0,0.0,-0.3004,-0.9510,-0.0968,0.6990,-0.6962,0.1423,0.0802
1126,0.0,0.0,0.0,0.0,0.0,0.0,-0.3058,-0.9398,-0.0964,0.7003,-0.6946,0.1441,0.0796
1127,0.0,0.0,0.0,0.0,0.0,0.0,-0.2970,-0.9224,-0.1110,0.7011,-0.6935,0.1455,0.0795
1128,0.0,0.0,0.0,0.0,0.0,0.0,-0.2965,-0.9219,-0.1207,0.7010,-0.6935,0.1458,0.0801
1129,0.0,0.0,0.0,0.0,0.0,0.0,-0.3028,-0.9432,-0.1032,0.7003,-0.6941,0.1455,0.0814
1130,0.0,0.0,0.0,0.0,0.0,0.0,-0.2999,-0.9471,-0.0993,0.6995,-0.6950,0.1447,0.0826
1131,0.0,0.0,0.0,0.0,0.0,0.0,-0.3053,-0.9379,-0.1193,0.6973,-0.6972,0.1440,0.0834
1132,0.0,0.0,0.0,0.0,0.0,0.0,-0.2960,-0.9423,-0.1139,0.6938,-0.7008,0.1436,0.0835
1133,0.0,0.0,0.0,0.0,0.0,0.0,-0.2794,-0.9569,-0.1104,0.6898,-0.7050,0.1427,0.0825
1134,0.0,0.0,0.0,0.0,0.0,0.0,-0.2466,-0.9381,-0.1075,0.6866,-0.7085,0.1412,0.0811
1135,0.0,0.0,0.0,0.0,0.0,0.0,-0.2501,-0.9424,-0.1240,0.6860,-0.7094,0.1406,0.0797
1136,0.0,0.0,0.0,0.0,0.0,0.0,-0.3292,-0.9640,-0.1213,0.6856,-0.7097,0.1419,0.0789
1137,0.0,0.0,0.0,0.0,0.0,0.0,-0.3146,-0.9417,-0.1125,0.6853,-0.7096,0.1442,0.0779
1138,0.0,0.0,0.0,0.0,0.0,0.0,-0.2584,-0.9380,-0.1538,0.6846,-0.7100,0.1457,0.0775
1139,0.0,0.0,0.0,0.0,0.0,0.0,-0.2691,-0.9501,-0.1333,0.6836,-0.7110,0.1456,0.0775
1140,0.0,0.0,0.0,0.0,0.0,0.0,-0.3122,-0.9306,-0.1398,0.6824,-0.7119,0.1463,0.0778
1141,0.0,0.0,0.0,0.0,0.0,0.0,-0.3293,-0.9378,-0.1612,0.6799,-0.7140,0.1484,0.0776
1142,0.0,0.0,0.0,0.0,0.0,0.0,-0.3283,-0.9543,-0.1364,0.6771,-0.7161,0.1511,0.0770
1143,0.0,0.0,0.0,0.0,0.0,0.0,-0.3239,-0.9499,-0.1383,0.6759,-0.7165,0.1549,0.0761
1144,0.0,0.0,0.0,0.0,0.0,0.0,-0.3010,-0.9296,-0.1602,0.6747,-0.7170,0.1582,0.0754
1145,0.0,0.0,0.0,0.0,0.0,0.0,-0.2980,-0.9156,-0.1656,0.6733,-0.7178,0.1603,0.0752
1146,0.0,0.0,0.0,0.0,0.0,0.0,-0.2966,-0.9248,-0.1636,0.6728,-0.7179,0.1621,0.0755
1147,0.0,0.0,0.0,0.0,0.0,0.0,-0.2868,-0.9069,-0.1738,0.6718,-0.7187,0.1626,0.0764
1148,0.0,0.0,0.0,0.0,0.0,0.0,-0.2590,-0.9060,-0.1699,0.6714,-0.7192,0.1612,0.0780
1149,0.0,0.0,0.0,0.0,0.0,0.0,-0.2477,-0.9182,-0.1752,0.6712,-0.7197,0.1586,0.0796
1150,0.0,0.0,0.0,0.0,0.0,0.0,-0.2731,-0.9161,-0.1787,0.6708,-0.7204,0.1576,0.0783
1151,0.0,0.0,0.0,0.0,0.0,0.0,-0.2985,-0.9398,-0.1685,0.6719,-0.7197,0.1583,0.0745
1152,0.0,0.0,0.0,0.0,0.0,0.0,-0.3215,-0.9650,-0.1529,0.6735,-0.7183,0.1600,0.0697
1153,0.0,0.0,0.0,0.0,0.0,0.0,-0.3249,-0.9543,-0.1603,0.6749,-0.7169,0.1614,0.0668
1154,0.0,0.0,0.0,0.0,0.0,0.0,-0.2619,-0.9259,-0.1631,0.6773,-0.7152,0.1603,0.0643
1155,0.0,0.0,0.0,0.0,0.0,0.0,-0.2482,-0.9381,-0.1660,0.6800,-0.7133,0.1581,0.0623
1156,0.0,0.0,0.0,0.0,0.0,0.0,-0.3005,-0.9476,-0.1719,0.6818,-0.7123,0.1552,0.0612
1157,0.0,0.0,0.0,0.0,0.0,0.0,-0.3225,-0.9213,-0.1866,0.6807,-0.7140,0.1520,0.0610
1158,0.0,0.0,0.0,0.0,0.0,0.0,-0.2834,-0.8821,-0.2002,0.6770,-0.7182,0.1487,0.0609
1159,0.0,0.0,0.0,0.0,0.0,0.0,-0.2126,-0.8858,-0.2127,0.6706,-0.7253,0.1437,0.0599
1160,0.0,0.0,0.0,0.0,0.0,0.0,-0.2150,-0.9280,-0.1859,0.6642,-0.7325,0.1373,0.0586
1161,0.0,0.0,0.0,0.0,0.0,0.0,-0.2500,-0.9915,-0.1206,0.6615,-0.7360,0.1327,0.0561
1162,0.0,0.0,0.0,0.0,0.0,0.0,-0.2672,-1.0031,-0.1616,0.6613,-0.7365,0.1323,0.0523
1163,0.0,0.0,0.0,0.0,0.0,0.0,-0.2585,-0.9342,-0.2016,0.6606,-0.7373,0.1328,0.0488
1164,0.0,0.0,0.0,0.0,0.0,0.0,-0.2091,-0.9309,-0.2112,0.6600,-0.7381,0.1322,0.0464
1165,0.0,0.0,0.0,0.0,0.0,0.0,-0.1949,-0.9543,-0.2024,0.6596,-0.7390,0.1298,0.0443
1166,0.0,0.0,0.0,0.0,0.0,0.0,-0.2169,-0.9698,-0.1947,0.6598,-0.7393,0.1269,0.0436
1167,0.0,0.0,0.0,0.0,0.0,0.0,-0.2208,-0.9649,-0.2049,0.6599,-0.7397,0.1244,0.0431
1168,0.0,0.0,0.0,0.0,0.0,0.0,-0.1998,-0.9625,-0.2019,0.6597,-0.7403,0.1220,0.0423
1169,0.0,0.0,0.0,0.0,0.0,0.0,-0.1871,-0.9679,-0.1995,0.6595,-0.7409,0.1201,0.0407
1170,0.0,0.0,0.0,0.0,0.0,0.0,-0.2022,-0.9785,-0.1932,0.6593,-0.7413,0.1196,0.0386
1171,0.0,0.0,0.0,0.0,0.0,0.0,-0.2208,-0.9901,-0.1932,0.6597,-0.7408,0.1208,0.0368
1172,0.0,0.0,0.0,0.0,0.0,0.0,-0.2130,-0.9863,-0.1878,0.6607,-0.7397,0.1227,0.0355
1173,0.0,0.0,0.0,0.0,0.0,0.0,-0.2105,-0.9809,-0.1893,0.6624,-0.7379,0.1243,0.0352
1174,0.0,0.0,0.0,0.0,0.0,0.0,-0.2252,-0.9950,-0.1781,0.6648,-0.7355,0.1256,0.0359
1175,0.0,0.0,0.0,0.0,0.0,0.0,-0.2291,-0.9964,-0.1547,0.6688,-0.7316,0.1270,0.0374
1176,0.0,0.0,0.0,0.0,0.0,0.0,-0.2232,-0.9736,-0.1742,0.6730,-0.7274,0.1280,0.0398
1177,0.0,0.0,0.0,0.0,0.0,0.0,-0.2130,-0.9537,-0.1781,0.6764,-0.7240,0.1283,0.0429
1178,0.0,0.0,0.0,0.0,0.0,0.0,-0.1978,-0.9383,-0.1712,0.6795,-0.7209,0.1284,0.0455
1179,0.0,0.0,0.0,0.0,0.0,0.0,-0.2111,-0.9275,-0.1810,0.6811,-0.7192,0.1294,0.0470
1180,0.0,0.0,0.0,0.0,0.0,0.0,-0.2276,-0.9406,-0.1601,0.6822,-0.7177,0.1309,0.0477
1181,0.0,0.0,0.0,0.0,0.0,0.0,-0.2183,-0.9411,-0.1503,0.6836,-0.7161,0.1324,0.0478
1182,0.0,0.0,0.0,0.0,0.0,0.0,-0.2325,-0.9449,-0.1693,0.6835,-0.7159,0.1344,0.0476
1183,0.0,0.0,0.0,0.0,0.0,0.0,-0.2496,-0.9556,-0.1523,0.6828,-0.7161,0.1369,0.0474
1184,0.0,0.0,0.0,0.0,0.0,0.0,-0.2213,-0.9532,-0.1464,0.6826,-0.7161,0.1378,0.0484
1185,0.0,0.0,0.0,0.0,0.0,0.0,-0.1880,-0.9548,-0.1634,0.6828,-0.7160,0.1366,0.0494
1186,0.0,0.0,0.0,0.0,0.0,0.0,-0.2110,-0.9499,-0.1610,0.6827,-0.7165,0.1344,0.0509
1187,0.0,0.0,0.0,0.0,0.0,0.0,-0.2291,-0.9493,-0.1567,0.6827,-0.7167,0.1325,0.0521
1188,0.0,0.0,0.0,0.0,0.0,0.0,-0.2379,-0.9663,-0.1513,0.6826,-0.7169,0.1316,0.0528
1189,0.0,0.0,0.0,0.0,0.0,0.0,-0.2369,-0.9498,-0.1518,0.6823,-0.7171,0.1317,0.0531
1190,0.0,0.0,0.0,0.0,0.0,0.0,-0.2184,-0.9387,-0.1591,0.6824,-0.7170,0.1329,0.0520
1191,0.0,0.0,0.0,0.0,0.0,0.0,-0.2364,-0.9663,-0.1572,0.6822,-0.7169,0.1345,0.0508
1192,0.0,0.0,0.0,0.0,0.0,0.0,-0.2540,-0.9483,-0.1533,0.6816,-0.7173,0.1358,0.0498
1193,0.0,0.0,0.0,0.0,0.0,0.0,-0.2511,-0.9303,-0.1811,0.6799,-0.7187,0.1371,0.0491
1194,0.0,0.0,0.0,0.0,0.0,0.0,-0.2452,-0.9502,-0.1713,0.6774,-0.7211,0.1369,0.0495
1195,0.0,0.0,0.0,0.0,0.0,0.0,-0.2481,-0.9706,-0.1416,0.6752,-0.7233,0.1354,0.0507
1196,0.0,0.0,0.0,0.0,0.0,0.0,-0.2628,-0.9555,-0.1626,0.6737,-0.7249,0.1338,0.0526
1197,0.0,0.0,0.0,0.0,0.0,0.0,-0.2736,-0.9438,-0.1806,0.6710,-0.7275,0.1326,0.0548
1198,0.0,0.0,0.0,0.0,0.0,0.0,-0.2599,-0.9429,-0.1767,0.6679,-0.7303,0.1319,0.0569
1199,0.0,0.0,0.0,0.0,0.0,0.0,-0.2081,-0.9416,-0.1751,0.6662,-0.7320,0.1299,0.0585
1200,0.0,0.0,0.0,0.0,0.0,0.0,-0.2115,-0.9562,-0.1820,0.6653,-0.7331,0.1282,0.0590
1201,0.0,0.0,0.0,0.0,0.0,0.0,-0.2643,-0.9662,-0.1869,0.6642,-0.7340,0.1287,0.0597
1202,0.0,0.0,0.0,0.0,0.0,0.0,-0.2609,-0.9482,-0.1904,0.6630,-0.7347,0.1306,0.0606
1203,0.0,0.0,0.0,0.0,0.0,0.0,-0.2468,-0.9269,-0.2113,0.6608,-0.7362,0.1329,0.0614
1204,0.0,0.0,0.0,0.0,0.0,0.0,-0.2492,-0.9400,-0.2050,0.6591,-0.7372,0.1348,0.0626
1205,0.0,0.0,0.0,0.0,0.0,0.0,-0.2135,-0.9664,-0.1800,0.6595,-0.7367,0.1350,0.0639
1206,0.0,0.0,0.0,0.0,0.0,0.0,-0.2071,-0.9606,-0.1932,0.6607,-0.7355,0.1349,0.0649
1207,0.0,0.0,0.0,0.0,0.0,0.0,-0.2531,-0.9390,-0.2098,0.6619,-0.7342,0.1356,0.0661
1208,0.0,0.0,0.0,0.0,0.0,0.0,-0.2570,-0.9429,-0.1957,0.6630,-0.7329,0.1373,0.0670
1209,0.0,0.0,0.0,0.0,0.0,0.0,-0.2501,-0.9473,-0.1898,0.6644,-0.7312,0.1393,0.0671
1210,0.0,0.0,0.0,0.0,0.0,0.0,-0.2634,-0.9366,-0.1977,0.6655,-0.7299,0.1410,0.0673
1211,0.0,0.0,0.0,0.0,0.0,0.0,-0.2677,-0.9390,-0.1938,0.6662,-0.7288,0.1428,0.0674
1212,0.0,0.0,0.0,0.0,0.0,0.0,-0.2516,-0.9284,-0.1972,0.6665,-0.7284,0.1439,0.0674
1213,0.0,0.0,0.0,0.0,0.0,0.0,-0.2336,-0.9211,-0.1991,0.6667,-0.7282,0.1440,0.0674
1214,0.0,0.0,0.0,0.0,0.0,0.0,-0.2511,-0.9356,-0.1884,0.6669,-0.7282,0.1431,0.0675
1215,0.0,0.0,0.0,0.0,0.0,0.0,-0.2829,-0.9428,-0.1763,0.6675,-0.7277,0.1423,0.0677
1216,0.0,0.0,0.0,0.0,0.0,0.0,-0.2751,-0.9351,-0.1782,0.6688,-0.7266,0.1415,0.0683
1217,0.0,0.0,0.0,0.0,0.0,0.0,-0.2487,-0.9342,-0.1772,0.6707,-0.7251,0.1402,0.0684
1218,0.0,0.0,0.0,0.0,0.0,0.0,-0.2511,-0.9429,-0.1684,0.6732,-0.7231,0.1384,0.0684
1219,0.0,0.0,0.0,0.0,0.0,0.0,-0.2706,-0.9438,-0.1538,0.6763,-0.7206,0.1368,0.0680
1220,0.0,0.0,0.0,0.0,0.0,0.0,-0.2667,-0.9414,-0.1499,0.6803,-0.7171,0.1361,0.0671
1221,0.0,0.0,0.0,0.0,0.0,0.0,-0.2531,-0.9351,-0.1660,0.6833,-0.7144,0.1356,0.0663
1222,0.0,0.0,0.0,0.0,0.0,0.0,-0.2462,-0.9240,-0.1640,0.6850,-0.7130,0.1343,0.0654
1223,0.0,0.0,0.0,0.0,0.0,0.0,-0.2555,-0.9094,-0.1791,0.6845,-0.7139,0.1328,0.0647
1224,0.0,0.0,0.0,0.0,0.0,0.0,-0.2516,-0.9512,-0.1538,0.6831,-0.7155,0.1316,0.0640
1225,0.0,0.0,0.0,0.0,0.0,0.0,-0.2637,-0.9817,-0.1148,0.6834,-0.7155,0.1301,0.0635
1226,0.0,0.0,0.0,0.0,0.0,0.0,-0.2774,-0.9686,-0.1304,0.6854,-0.7137,0.1300,0.0635
1227,0.0,0.0,0.0,0.0,0.0,0.0,-0.2912,-0.9559,-0.1573,0.6862,-0.7125,0.1321,0.0635
1228,0.0,0.0,0.0,0.0,0.0,0.0,-0.2857,-0.9748,-0.1285,0.6866,-0.7118,0.1343,0.0633
1229,0.0,0.0,0.0,0.0,0.0,0.0,-0.2545,-0.9657,-0.1143,0.6876,-0.7104,0.1361,0.0637
1230,0.0,0.0,0.0,0.0,0.0,0.0,-0.2159,-0.9338,-0.1488,0.6887,-0.7093,0.1361,0.0646
1231,0.0,0.0,0.0,0.0,0.0,0.0,-0.2335,-0.9512,-0.1533,0.6890,-0.7092,0.1344,0.0658
1232,0.0,0.0,0.0,0.0,0.0,0.0,-0.2681,-0.9662,-0.1216,0.6891,-0.7092,0.1328,0.0674
1233,0.0,0.0,0.0,0.0,0.0,0.0,-0.2760,-0.9487,-0.1299,0.6896,-0.7087,0.1323,0.0687
1234,0.0,0.0,0.0,0.0,0.0,0.0,-0.2628,-0.9414,-0.1367,0.6902,-0.7079,0.1330,0.0695
1235,0.0,0.0,0.0,0.0,0.0,0.0,-0.2667,-0.9560,-0.1246,0.6912,-0.7066,0.1341,0.0698
1236,0.0,0.0,0.0,0.0,0.0,0.0,-0.2799,-0.9550,-0.1260,0.6921,-0.7054,0.1364,0.0691
1237,0.0,0.0,0.0,0.0,0.0,0.0,-0.2701,-0.9327,-0.1446,0.6922,-0.7050,0.1385,0.0681
1238,0.0,0.0,0.0,0.0,0.0,0.0,-0.2633,-0.9128,-0.1528,0.6910,-0.7060,0.1392,0.0677
1239,0.0,0.0,0.0,0.0,0.0,0.0,-0.2794,-0.9161,-0.1446,0.6893,-0.7077,0.1393,0.0680
1240,0.0,0.0,0.0,0.0,0.0,0.0,-0.2525,-0.9497,-0.1318,0.6881,-0.7092,0.1373,0.0691
1241,0.0,0.0,0.0,0.0,0.0,0.0,-0.2799,-0.9666,-0.1153,0.6873,-0.7103,0.1348,0.0708
1242,0.0,0.0,0.0,0.0,0.0,0.0,-0.3200,-0.9470,-0.1339,0.6858,-0.7116,0.1345,0.0723
1243,0.0,0.0,0.0,0.0,0.0,0.0,-0.2741,-0.9477,-0.1475,0.6840,-0.7133,0.1343,0.0731
1244,0.0,0.0,0.0,0.0,0.0,0.0,-0.2418,-0.9638,-0.1260,0.6828,-0.7146,0.1330,0.0733
1245,0.0,0.0,0.0,0.0,0.0,0.0,-0.2691,-0.9516,-0.1309,0.6824,-0.7152,0.1320,0.0737
1246,0.0,0.0,0.0,0.0,0.0,0.0,-0.2525,-0.9366,-0.1416,0.6826,-0.7151,0.1317,0.0731
1247,0.0,0.0,0.0,0.0,0.0,0.0,-0.2193,-0.9455,-0.1464,0.6827,-0.7153,0.1304,0.0725
1248,0.0,0.0,0.0,0.0,0.0,0.0,-0.2359,-0.9473,-0.1440,0.6829,-0.7154,0.1285,0.0725
1249,0.0,0.0,0.0,0.0,0.0,0.0,-0.2701,-0.9487,-0.1446,0.6832,-0.7153,0.1277,0.0731
1250,0.0,0.0,0.0,0.0,0.0,0.0,-0.2726,-0.9569,-0.1431,0.6830,-0.7154,0.1283,0.0726
1251,0.0,0.0,0.0,0.0,0.0,0.0,-0.2604,-0.9575,-0.1494,0.6823,-0.7161,0.1282,0.0721
1252,0.0,0.0,0.0,0.0,0.0,0.0,-0.2633,-0.9565,-0.1626,0.6805,-0.7179,0.1286,0.0710
1253,0.0,0.0,0.0,0.0,0.0,0.0,-0.2980,-0.9612,-0.1636,0.6775,-0.7204,0.1308,0.0697
1254,0.0,0.0,0.0,0.0,0.0,0.0,-0.2936,-0.9641,-0.1636,0.6734,-0.7239,0.1334,0.0686
1255,0.0,0.0,0.0,0.0,0.0,0.0,-0.2824,-0.9462,-0.1855,0.6683,-0.7282,0.1358,0.0682
1256,0.0,0.0,0.0,0.0,0.0,0.0,-0.2741,-0.9205,-0.2011,0.6613,-0.7343,0.1372,0.0689
1257,0.0,0.0,0.0,0.0,0.0,0.0,-0.2785,-0.9317,-0.1831,0.6558,-0.7388,0.1377,0.0710
1258,0.0,0.0,0.0,0.0,0.0,0.0,-0.2677,-0.9472,-0.1923,0.6526,-0.7415,0.1375,0.0733
1259,0.0,0.0,0.0,0.0,0.0,0.0,-0.2140,-0.9231,-0.2098,0.6503,-0.7439,0.1340,0.0761
1260,0.0,0.0,0.0,0.0,0.0,0.0,-0.1891,-0.9160,-0.2156,0.6491,-0.7455,0.1302,0.0772
1261,0.0,0.0,0.0,0.0,0.0,0.0,-0.2824,-0.9535,-0.2094,0.6482,-0.7464,0.1288,0.0780
1262,0.0,0.0,0.0,0.0,0.0,0.0,-0.2800,-0.9516,-0.1889,0.6493,-0.7455,0.1287,0.0776
1263,0.0,0.0,0.0,0.0,0.0,0.0,-0.2208,-0.9367,-0.2054,0.6516,-0.7435,0.1295,0.0762
1264,0.0,0.0,0.0,0.0,0.0,0.0,-0.2262,-0.9343,-0.2054,0.6552,-0.7405,0.1297,0.0748
1265,0.0,0.0,0.0,0.0,0.0,0.0,-0.2707,-0.9380,-0.2030,0.6594,-0.7367,0.1306,0.0734
1266,0.0,0.0,0.0,0.0,0.0,0.0,-0.3049,-0.9631,-0.1831,0.6638,-0.7323,0.1336,0.0719
1267,0.0,0.0,0.0,0.0,0.0,0.0,-0.3137,-0.9524,-0.1729,0.6681,-0.7280,0.1365,0.0713
1268,0.0,0.0,0.0,0.0,0.0,0.0,-0.2785,-0.9127,-0.1933,0.6715,-0.7245,0.1377,0.0724
1269,0.0,0.0,0.0,0.0,0.0,0.0,-0.2390,-0.8910,-0.2186,0.6728,-0.7234,0.1367,0.0736
1270,0.0,0.0,0.0,0.0,0.0,0.0,-0.2394,-0.9163,-0.1889,0.6730,-0.7236,0.1334,0.0761
1271,0.0,0.0,0.0,0.0,0.0,0.0,-0.2628,-0.9536,-0.1523,0.6740,-0.7230,0.1309,0.0770
1272,0.0,0.0,0.0,0.0,0.0,0.0,-0.3004,-0.9583,-0.1548,0.6749,-0.7220,0.1319,0.0761
1273,0.0,0.0,0.0,0.0,0.0,0.0,-0.2970,-0.9413,-0.1646,0.6749,-0.7218,0.1334,0.0758
1274,0.0,0.0,0.0,0.0,0.0,0.0,-0.2525,-0.9609,-0.1465,0.6760,-0.7207,0.1347,0.0744
1275,0.0,0.0,0.0,0.0,0.0,0.0,-0.2389,-0.9629,-0.1489,0.6773,-0.7194,0.1363,0.0719
1276,0.0,0.0,0.0,0.0,0.0,0.0,-0.2565,-0.9298,-0.1699,0.6783,-0.7185,0.1375,0.0696
1277,0.0,0.0,0.0,0.0,0.0,0.0,-0.2726,-0.9482,-0.1616,0.6790,-0.7177,0.1362,0.0721
1278,0.0,0.0,0.0,0.0,0.0,0.0,-0.2692,-0.9540,-0.1387,0.6806,-0.7164,0.1353,0.0727
1279,0.0,0.0,0.0,0.0,0.0,0.0,-0.2848,-0.9316,-0.1577,0.6813,-0.7156,0.1355,0.0733
1280,0.0,0.0,0.0,0.0,0.0,0.0,-0.2565,-0.9322,-0.1562,0.6815,-0.7154,0.1351,0.0738
1281,0.0,0.0,0.0,0.0,0.0,0.0,-0.2418,-0.9366,-0.1567,0.6812,-0.7158,0.1353,0.0728
1282,0.0,0.0,0.0,0.0,0.0,0.0,-0.2701,-0.9497,-0.1499,0.6810,-0.7161,0.1357,0.0714
1283,0.0,0.0,0.0,0.0,0.0,0.0,-0.2740,-0.9589,-0.1485,0.6812,-0.7160,0.1358,0.0705
1284,0.0,0.0,0.0,0.0,0.0,0.0,-0.2677,-0.9370,-0.1562,0.6810,-0.7162,0.1358,0.0694
1285,0.0,0.0,0.0,0.0,0.0,0.0,-0.2710,-1.0594,-0.1606,0.6807,-0.7167,0.1355,0.0686
1286,0.0,0.0,0.0,0.0,0.0,0.0,-0.2648,-0.9443,-0.1548,0.6797,-0.7178,0.1344,0.0687
1287,0.0,0.0,0.0,0.0,0.0,0.0,-0.2648,-0.9487,-0.1441,0.6795,-0.7182,0.1324,0.0694
1288,0.0,0.0,0.0,0.0,0.0,0.0,-0.2667,-0.9637,-0.1416,0.6802,-0.7179,0.1309,0.0698
1289,0.0,0.0,0.0,0.0,0.0,0.0,-0.2623,-0.9492,-0.1460,0.6805,-0.7179,0.1289,0.0704
1290,0.0,0.0,0.0,0.0,0.0,0.0,-0.2662,-0.9448,-0.1460,0.6811,-0.7176,0.1273,0.0706
1291,0.0,0.0,0.0,0.0,0.0,0.0,-0.2740,-0.9574,-0.1411,0.6817,-0.7171,0.1272,0.0701
1292,0.0,0.0,0.0,0.0,0.0,0.0,-0.2745,-0.9433,-0.1421,0.6820,-0.7167,0.1278,0.0697
1293,0.0,0.0,0.0,0.0,0.0,0.0,-0.2467,-0.9308,-0.1635,0.6820,-0.7169,0.1272,0.0693
1294,0.0,0.0,0.0,0.0,0.0,0.0,-0.2682,-0.9516,-0.1616,0.6807,-0.7181,0.1271,0.0690
1295,0.0,0.0,0.0,0.0,0.0,0.0,-0.2740,-0.9525,-0.1392,0.6797,-0.7192,0.1265,0.0694
1296,0.0,0.0,0.0,0.0,0.0,0.0,-0.2413,-0.9473,-0.1562,0.6796,-0.7195,0.1244,0.0704
1297,0.0,0.0,0.0,0.0,0.0,0.0,-0.2388,-0.9828,-0.1391,0.6804,-0.7192,0.1217,0.0715
1298,0.0,0.0,0.0,0.0,0.0,0.0,-0.2833,-0.9860,-0.1270,0.6813,-0.7182,0.1217,0.0720
1299,0.0,0.0,0.0,0.0,0.0,0.0,-0.2775,-0.9389,-0.1572,0.6822,-0.7170,0.1234,0.0726
1300,0.0,0.0,0.0,0.0,0.0,0.0,-0.2335,-0.9401,-0.1557,0.6829,-0.7162,0.1240,0.0729
1301,0.0,0.0,0.0,0.0,0.0,0.0,-0.2349,-0.9629,-0.1386,0.6842,-0.7150,0.1239,0.0726
1302,0.0,0.0,0.0,0.0,0.0,0.0,-0.2579,-0.9584,-0.1338,0.6860,-0.7133,0.1237,0.0727
1303,0.0,0.0,0.0,0.0,0.0,0.0,-0.2740,-0.9642,-0.1314,0.6882,-0.7110,0.1247,0.0726
1304,0.0,0.0,0.0,0.0,0.0,0.0,-0.2750,-0.9666,-0.1207,0.6902,-0.7088,0.1262,0.0729
1305,0.0,0.0,0.0,0.0,0.0,0.0,-0.2653,-0.9264,-0.1353,0.6913,-0.7074,0.1271,0.0740
1306,0.0,0.0,0.0,0.0,0.0,0.0,-0.2579,-0.9244,-0.1475,0.6919,-0.7065,0.1286,0.0747
1307,0.0,0.0,0.0,0.0,0.0,0.0,-0.2628,-0.9443,-0.1207,0.6919,-0.7062,0.1302,0.0753
1308,0.0,0.0,0.0,0.0,0.0,0.0,-0.2701,-0.9511,-0.1153,0.6926,-0.7052,0.1316,0.0755
1309,0.0,0.0,0.0,0.0,0.0,0.0,-0.2643,-0.9298,-0.1304,0.6928,-0.7048,0.1329,0.0755
1310,0.0,0.0,0.0,0.0,0.0,0.0,-0.2662,-0.9283,-0.1299,0.6928,-0.7046,0.1340,0.0754
1311,0.0,0.0,0.0,0.0,0.0,0.0,-0.2828,-0.9384,-0.1231,0.6928,-0.7043,0.1353,0.0756
1312,0.0,0.0,0.0,0.0,0.0,0.0,-0.2975,-0.9462,-0.1188,0.6932,-0.7035,0.1372,0.0757
1313,0.0,0.0,0.0,0.0,0.0,0.0,-0.2906,-0.9549,-0.1163,0.6942,-0.7021,0.1390,0.0758
1314,0.0,0.0,0.0,0.0,0.0,0.0,-0.2838,-0.9593,-0.1114,0.6957,-0.7004,0.1401,0.0762
1315,0.0,0.0,0.0,0.0,0.0,0.0,-0.3004,-0.9476,-0.1149,0.6967,-0.6991,0.1412,0.0773
1316,0.0,0.0,0.0,0.0,0.0,0.0,-0.3078,-0.9364,-0.1164,0.6973,-0.6980,0.1427,0.0787
1317,0.0,0.0,0.0,0.0,0.0,0.0,-0.3009,-0.9466,-0.1081,0.6982,-0.6967,0.1445,0.0795
1318,0.0,0.0,0.0,0.0,0.0,0.0,-0.3063,-0.9369,-0.1188,0.6983,-0.6961,0.1461,0.0808
1319,0.0,0.0,0.0,0.0,0.0,0.0,-0.2946,-0.9243,-0.1193,0.6979,-0.6962,0.1468,0.0817
1320,0.0,0.0,0.0,0.0,0.0,0.0,-0.2985,-0.9447,-0.1115,0.6977,-0.6963,0.1473,0.0823
1321,0.0,0.0,0.0,0.0,0.0,0.0,-0.3005,-0.9083,-0.1256,0.6958,-0.6980,0.1476,0.0828
1322,0.0,0.0,0.0,0.0,0.0,0.0,-0.3000,-0.9170,-0.1207,0.6959,-0.6979,0.1473,0.0833
1323,0.0,0.0,0.0,0.0,0.0,0.0,-0.2647,-0.9599,-0.0968,0.6961,-0.6981,0.1454,0.0834
1324,0.0,0.0,0.0,0.0,0.0,0.0,-0.2975,-0.9520,-0.1149,0.6956,-0.6990,0.1434,0.0834
1325,0.0,0.0,0.0,0.0,0.0,0.0,-0.3151,-0.9335,-0.1052,0.6950,-0.6998,0.1425,0.0836
1326,0.0,0.0,0.0,0.0,0.0,0.0,-0.2862,-0.9578,-0.1007,0.6953,-0.6997,0.1416,0.0834
1327,0.0,0.0,0.0,0.0,0.0,0.0,-0.2867,-0.9535,-0.1090,0.6951,-0.7000,0.1408,0.0834
1328,0.0,0.0,0.0,0.0,0.0,0.0,-0.2838,-0.9297,-0.1153,0.6949,-0.7004,0.1403,0.0834
1329,0.0,0.0,0.0,0.0,0.0,0.0,-0.2686,-0.9409,-0.1138,0.6946,-0.7010,0.1387,0.0835
1330,0.0,0.0,0.0,0.0,0.0,0.0,-0.2682,-0.9419,-0.1090,0.6940,-0.7020,0.1368,0.0834
1331,0.0,0.0,0.0,0.0,0.0,0.0,-0.2774,-0.9462,-0.1119,0.6936,-0.7026,0.1356,0.0831
1332,0.0,0.0,0.0,0.0,0.0,0.0,-0.2677,-0.9453,-0.1085,0.6933,-0.7033,0.1340,0.0826
1333,0.0,0.0,0.0,0.0,0.0,0.0,-0.2520,-0.9283,-0.1226,0.6929,-0.7041,0.1319,0.0817
1334,0.0,0.0,0.0,0.0,0.0,0.0,-0.2535,-0.9351,-0.1206,0.6928,-0.7048,0.1298,0.0802
1335,0.0,0.0,0.0,0.0,0.0,0.0,-0.2716,-0.9623,-0.1065,0.6928,-0.7052,0.1284,0.0783
1336,0.0,0.0,0.0,0.0,0.0,0.0,-0.2779,-0.9550,-0.1075,0.6931,-0.7053,0.1276,0.0764
1337,0.0,0.0,0.0,0.0,0.0,0.0,-0.2711,-0.9472,-0.1168,0.6934,-0.7053,0.1269,0.0748
1338,0.0,0.0,0.0,0.0,0.0,0.0,-0.2633,-0.9516,-0.1124,0.6934,-0.7057,0.1258,0.0735
1339,0.0,0.0,0.0,0.0,0.0,0.0,-0.2628,-0.9511,-0.1085,0.6936,-0.7058,0.1246,0.0726
1340,0.0,0.0,0.0,0.0,0.0,0.0,-0.2735,-0.9637,-0.1148,0.6934,-0.7063,0.1231,0.0719
1341,0.0,0.0,0.0,0.0,0.0,0.0,-0.3048,-0.9738,-0.1173,0.6916,-0.7082,0.1224,0.0718
1342,0.0,0.0,0.0,0.0,0.0,0.0,-0.2843,-0.9773,-0.1153,0.6887,-0.7111,0.1223,0.0717
1343,0.0,0.0,0.0,0.0,0.0,0.0,-0.2237,-0.9717,-0.1142,0.6859,-0.7140,0.1209,0.0717
1344,0.0,0.0,0.0,0.0,0.0,0.0,-0.2266,-0.9619,-0.1279,0.6841,-0.7160,0.1191,0.0723
1345,0.0,0.0,0.0,0.0,0.0,0.0,-0.2422,-0.9672,-0.1279,0.6832,-0.7169,0.1183,0.0732
1346,0.0,0.0,0.0,0.0,0.0,0.0,-0.2373,-0.9842,-0.1201,0.6840,-0.7161,0.1184,0.0733
1347,0.0,0.0,0.0,0.0,0.0,0.0,-0.2403,-0.9609,-0.1352,0.6849,-0.7150,0.1192,0.0736
1348,0.0,0.0,0.0,0.0,0.0,0.0,-0.2281,-0.9231,-0.1620,0.6846,-0.7151,0.1206,0.0735
1349,0.0,0.0,0.0,0.0,0.0,0.0,-0.2237,-0.9168,-0.1596,0.6833,-0.7161,0.1219,0.0732
1350,0.0,0.0,0.0,0.0,0.0,0.0,-0.2198,-0.9333,-0.1430,0.6831,-0.7163,0.1222,0.0726
1351,0.0,0.0,0.0,0.0,0.0,0.0,-0.2330,-0.9396,-0.1518,0.6830,-0.7166,0.1221,0.0719
1352,0.0,0.0,0.0,0.0,0.0,0.0,-0.2589,-0.9400,-0.1514,0.6821,-0.7174,0.1229,0.0706
1353,0.0,0.0,0.0,0.0,0.0,0.0,-0.2745,-0.9511,-0.1460,0.6813,-0.7181,0.1239,0.0693
1354,0.0,0.0,0.0,0.0,0.0,0.0,-0.2765,-0.9608,-0.1377,0.6809,-0.7185,0.1247,0.0685
1355,0.0,0.0,0.0,0.0,0.0,0.0,-0.2780,-0.9501,-0.1475,0.6804,-0.7188,0.1260,0.0671
1356,0.0,0.0,0.0,0.0,0.0,0.0,-0.2838,-0.9661,-0.1426,0.6802,-0.7188,0.1274,0.0662
1357,0.0,0.0,0.0,0.0,0.0,0.0,-0.2701,-0.9715,-0.1309,0.6810,-0.7180,0.1280,0.0658
1358,0.0,0.0,0.0,0.0,0.0,0.0,-0.2614,-0.9405,-0.1562,0.6813,-0.7177,0.1284,0.0655
1359,0.0,0.0,0.0,0.0,0.0,0.0,-0.2716,-0.9438,-0.1553,0.6813,-0.7175,0.1292,0.0655
1360,0.0,0.0,0.0,0.0,0.0,0.0,-0.2589,-0.9633,-0.1333,0.6815,-0.7175,0.1283,0.0660
1361,0.0,0.0,0.0,0.0,0.0,0.0,-0.2555,-0.9516,-0.1362,0.6817,-0.7173,0.1276,0.0663
1362,0.0,0.0,0.0,0.0,0.0,0.0,-0.2652,-0.9502,-0.1441,0.6818,-0.7172,0.1282,0.0658
1363,0.0,0.0,0.0,0.0,0.0,0.0,-0.2599,-0.9507,-0.1270,0.6821,-0.7169,0.1287,0.0651
1364,0.0,0.0,0.0,0.0,0.0,0.0,-0.2560,-0.9366,-0.1475,0.6823,-0.7166,0.1293,0.0644
1365,0.0,0.0,0.0,0.0,0.0,0.0,-0.2462,-0.9289,-0.1591,0.6819,-0.7171,0.1297,0.0634
1366,0.0,0.0,0.0,0.0,0.0,0.0,-0.2394,-0.9430,-0.1489,0.6814,-0.7177,0.1290,0.0629
1367,0.0,0.0,0.0,0.0,0.0,0.0,-0.2486,-0.9628,-0.1367,0.6815,-0.7179,0.1274,0.0628
1368,0.0,0.0,0.0,0.0,0.0,0.0,-0.2540,-0.9536,-0.1470,0.6816,-0.7182,0.1256,0.0629
1369,0.0,0.0,0.0,0.0,0.0,0.0,-0.2433,-0.9235,-0.1762,0.6798,-0.7200,0.1242,0.0632
1370,0.0,0.0,0.0,0.0,0.0,0.0,-0.2335,-0.9211,-0.1747,0.6762,-0.7237,0.1226,0.0632
1371,0.0,0.0,0.0,0.0,0.0,0.0,-0.2198,-0.9396,-0.1591,0.6728,-0.7272,0.1209,0.0625
1372,0.0,0.0,0.0,0.0,0.0,0.0,-0.2027,-0.9387,-0.1820,0.6697,-0.7305,0.1187,0.0612
1373,0.0,0.0,0.0,0.0,0.0,0.0,-0.2017,-0.9499,-0.1824,0.6667,-0.7338,0.1161,0.0600
1374,0.0,0.0,0.0,0.0,0.0,0.0,-0.2081,-0.9688,-0.1654,0.6653,-0.7355,0.1139,0.0589
1375,0.0,0.0,0.0,0.0,0.0,0.0,-0.2081,-0.9649,-0.1761,0.6650,-0.7360,0.1126,0.0578
1376,0.0,0.0,0.0,0.0,0.0,0.0,-0.2110,-0.9571,-0.1951,0.6650,-0.7361,0.1122,0.0569
1377,0.0,0.0,0.0,0.0,0.0,0.0,-0.2056,-0.9654,-0.1849,0.6659,-0.7355,0.1118,0.0560
1378,0.0,0.0,0.0,0.0,0.0,0.0,-0.2228,-0.9673,-0.1942,0.6672,-0.7344,0.1117,0.0557
1379,0.0,0.0,0.0,0.0,0.0,0.0,-0.2276,-0.9721,-0.1878,0.6684,-0.7332,0.1119,0.0555
1380,0.0,0.0,0.0,0.0,0.0,0.0,-0.2257,-0.9736,-0.1810,0.6696,-0.7321,0.1123,0.0553
1381,0.0,0.0,0.0,0.0,0.0,0.0,-0.2203,-0.9591,-0.1815,0.6709,-0.7309,0.1126,0.0554
1382,0.0,0.0,0.0,0.0,0.0,0.0,-0.2208,-0.9663,-0.1795,0.6725,-0.7293,0.1130,0.0556
1383,0.0,0.0,0.0,0.0,0.0,0.0,-0.2310,-0.9736,-0.1693,0.6747,-0.7272,0.1139,0.0558
1384,0.0,0.0,0.0,0.0,0.0,0.0,-0.2345,-0.9600,-0.1630,0.6765,-0.7253,0.1147,0.0566
1385,0.0,0.0,0.0,0.0,0.0,0.0,-0.2208,-0.9581,-0.1566,0.6790,-0.7228,0.1153,0.0572
1386,0.0,0.0,0.0,0.0,0.0,0.0,-0.2266,-0.9644,-0.1606,0.6811,-0.7206,0.1159,0.0581
1387,0.0,0.0,0.0,0.0,0.0,0.0,-0.2359,-0.9794,-0.1440,0.6828,-0.7188,0.1170,0.0588
1388,0.0,0.0,0.0,0.0,0.0,0.0,-0.2149,-0.9552,-0.1435,0.6847,-0.7168,0.1174,0.0594
1389,0.0,0.0,0.0,0.0,0.0,0.0,-0.1944,-0.9300,-0.1585,0.6859,-0.7158,0.1167,0.0598
1390,0.0,0.0,0.0,0.0,0.0,0.0,-0.2457,-0.9560,-0.1411,0.6867,-0.7150,0.1173,0.0596
1391,0.0,0.0,0.0,0.0,0.0,0.0,-0.2916,-0.9802,-0.1290,0.6868,-0.7144,0.1195,0.0600
1392,0.0,0.0,0.0,0.0,0.0,0.0,-0.2565,-0.9448,-0.1470,0.6859,-0.7148,0.1220,0.0608
1393,0.0,0.0,0.0,0.0,0.0,0.0,-0.2262,-0.9294,-0.1620,0.6848,-0.7155,0.1240,0.0615
1394,0.0,0.0,0.0,0.0,0.0,0.0,-0.2110,-0.9571,-0.1474,0.6838,-0.7162,0.1245,0.0622
1395,0.0,0.0,0.0,0.0,0.0,0.0,-0.2305,-0.9726,-0.1406,0.6832,-0.7169,0.1237,0.0633
1396,0.0,0.0,0.0,0.0,0.0,0.0,-0.2569,-0.9788,-0.1289,0.6832,-0.7168,0.1235,0.0647
1397,0.0,0.0,0.0,0.0,0.0,0.0,-0.2369,-0.9575,-0.1396,0.6835,-0.7163,0.1235,0.0660
1398,0.0,0.0,0.0,0.0,0.0,0.0,-0.2227,-0.9411,-0.1562,0.6829,-0.7169,0.1233,0.0673
1399,0.0,0.0,0.0,0.0,0.0,0.0,-0.2389,-0.9517,-0.1474,0.6824,-0.7172,0.1240,0.0677
1400,0.0,0.0,0.0,0.0,0.0,0.0,-0.2506,-0.9619,-0.1377,0.6825,-0.7170,0.1248,0.0680
1401,0.0,0.0,0.0,0.0,0.0,0.0,-0.2364,-0.9609,-0.1372,0.6829,-0.7165,0.1254,0.0676
1402,0.0,0.0,0.0,0.0,0.0,0.0,-0.2379,-0.9503,-0.1445,0.6836,-0.7158,0.1258,0.0671
1403,0.0,0.0,0.0,0.0,0.0,0.0,-0.2393,-0.9512,-0.1425,0.6848,-0.7147,0.1259,0.0668
1404,0.0,0.0,0.0,0.0,0.0,0.0,-0.2545,-0.9643,-0.1226,0.6871,-0.7125,0.1257,0.0668
1405,0.0,0.0,0.0,0.0,0.0,0.0,-0.2506,-0.9512,-0.1299,0.6900,-0.7098,0.1248,0.0671
1406,0.0,0.0,0.0,0.0,0.0,0.0,-0.2433,-0.9201,-0.1552,0.6909,-0.7090,0.1242,0.0673
1407,0.0,0.0,0.0,0.0,0.0,0.0,-0.2222,-0.9387,-0.1279,0.6913,-0.7087,0.1235,0.0670
1408,0.0,0.0,0.0,0.0,0.0,0.0,-0.2026,-0.9722,-0.0991,0.6938,-0.7066,0.1222,0.0661
1409,0.0,0.0,0.0,0.0,0.0,0.0,-0.2569,-0.9769,-0.1016,0.6963,-0.7043,0.1222,0.0647
1410,0.0,0.0,0.0,0.0,0.0,0.0,-0.2940,-0.9578,-0.1139,0.6981,-0.7023,0.1245,0.0634
1411,0.0,0.0,0.0,0.0,0.0,0.0,-0.2481,-0.9488,-0.1089,0.6996,-0.7004,0.1271,0.0621
1412,0.0,0.0,0.0,0.0,0.0,0.0,-0.2310,-0.9619,-0.1089,0.7011,-0.6987,0.1287,0.0611
1413,0.0,0.0,0.0,0.0,0.0,0.0,-0.2511,-0.9410,-0.1279,0.7010,-0.6987,0.1293,0.0612
1414,0.0,0.0,0.0,0.0,0.0,0.0,-0.2350,-0.9070,-0.1416,0.6987,-0.7010,0.1288,0.0617
1415,0.0,0.0,0.0,0.0,0.0,0.0,-0.2101,-0.9047,-0.1649,0.6934,-0.7066,0.1264,0.0631
1416,0.0,0.0,0.0,0.0,0.0,0.0,-0.2179,-0.9222,-0.1498,0.6863,-0.7140,0.1225,0.0647
1417,0.0,0.0,0.0,0.0,0.0,0.0,-0.2281,-0.9430,-0.1440,0.6801,-0.7206,0.1179,0.0655
1418,0.0,0.0,0.0,0.0,0.0,0.0,-0.2344,-0.9784,-0.1294,0.6755,-0.7257,0.1134,0.0648
1419,0.0,0.0,0.0,0.0,0.0,0.0,-0.2534,-1.0021,-0.0997,0.6744,-0.7272,0.1114,0.0627
1420,0.0,0.0,0.0,0.0,0.0,0.0,-0.2599,-0.9759,-0.1421,0.6744,-0.7273,0.1124,0.0600
1421,0.0,0.0,0.0,0.0,0.0,0.0,-0.2501,-0.9386,-0.1733,0.6727,-0.7287,0.1147,0.0580
1422,0.0,0.0,0.0,0.0,0.0,0.0,-0.2291,-0.9590,-0.1762,0.6713,-0.7298,0.1166,0.0567
1423,0.0,0.0,0.0,0.0,0.0,0.0,-0.2037,-0.9756,-0.1634,0.6708,-0.7303,0.1156,0.0572
1424,0.0,0.0,0.0,0.0,0.0,0.0,-0.1939,-0.9718,-0.1693,0.6716,-0.7299,0.1131,0.0581
1425,0.0,0.0,0.0,0.0,0.0,0.0,-0.2076,-0.9547,-0.1815,0.6718,-0.7300,0.1104,0.0594
1426,0.0,0.0,0.0,0.0,0.0,0.0,-0.2223,-0.9493,-0.1771,0.6716,-0.7303,0.1089,0.0606
1427,0.0,0.0,0.0,0.0,0.0,0.0,-0.2271,-0.9736,-0.1683,0.6719,-0.7299,0.1096,0.0608
1428,0.0,0.0,0.0,0.0,0.0,0.0,-0.2179,-0.9673,-0.1698,0.6727,-0.7291,0.1110,0.0599
1429,0.0,0.0,0.0,0.0,0.0,0.0,-0.1930,-0.9407,-0.1854,0.6730,-0.7288,0.1122,0.0581
1430,0.0,0.0,0.0,0.0,0.0,0.0,-0.1925,-0.9460,-0.1873,0.6730,-0.7287,0.1139,0.0556
1431,0.0,0.0,0.0,0.0,0.0,0.0,-0.2159,-0.9513,-0.1825,0.6727,-0.7289,0.1160,0.0533
1432,0.0,0.0,0.0,0.0,0.0,0.0,-0.2228,-0.9333,-0.1952,0.6714,-0.7300,0.1164,0.0526
1433,0.0,0.0,0.0,0.0,0.0,0.0,-0.2189,-0.9392,-0.1903,0.6700,-0.7316,0.1145,0.0529
1434,0.0,0.0,0.0,0.0,0.0,0.0,-0.2110,-0.9717,-0.1805,0.6688,-0.7331,0.1110,0.0542
1435,0.0,0.0,0.0,0.0,0.0,0.0,-0.2037,-0.9790,-0.1610,0.6681,-0.7342,0.1074,0.0556
1436,0.0,0.0,0.0,0.0,0.0,0.0,-0.2198,-0.9824,-0.1625,0.6686,-0.7339,0.1055,0.0568
1437,0.0,0.0,0.0,0.0,0.0,0.0,-0.2198,-0.9858,-0.1752,0.6694,-0.7330,0.1060,0.0570
1438,0.0,0.0,0.0,0.0,0.0,0.0,-0.2164,-0.9683,-0.1756,0.6701,-0.7321,0.1088,0.0562
1439,0.0,0.0,0.0,0.0,0.0,0.0,-0.2169,-0.9435,-0.1883,0.6706,-0.7313,0.1113,0.0551
1440,0.0,0.0,0.0,0.0,0.0,0.0,-0.2174,-0.9576,-0.1766,0.6714,-0.7303,0.1134,0.0544
1441,0.0,0.0,0.0,0.0,0.0,0.0,-0.2335,-0.9779,-0.1635,0.6730,-0.7286,0.1153,0.0546
1442,0.0,0.0,0.0,0.0,0.0,0.0,-0.2437,-0.9731,-0.1640,0.6747,-0.7267,0.1162,0.0561
1443,0.0,0.0,0.0,0.0,0.0,0.0,-0.2467,-0.9526,-0.1738,0.6762,-0.7252,0.1163,0.0584
1444,0.0,0.0,0.0,0.0,0.0,0.0,-0.2389,-0.9337,-0.1811,0.6766,-0.7246,0.1165,0.0607
1445,0.0,0.0,0.0,0.0,0.0,0.0,-0.2301,-0.9425,-0.1688,0.6770,-0.7240,0.1169,0.0625
1446,0.0,0.0,0.0,0.0,0.0,0.0,-0.2389,-0.9517,-0.1611,0.6774,-0.7233,0.1173,0.0641
1447,0.0,0.0,0.0,0.0,0.0,0.0,-0.2609,-0.9545,-0.1635,0.6777,-0.7227,0.1193,0.0648
1448,0.0,0.0,0.0,0.0,0.0,0.0,-0.2604,-0.9643,-0.1538,0.6782,-0.7218,0.1217,0.0652
1449,0.0,0.0,0.0,0.0,0.0,0.0,-0.2613,-0.9788,-0.1382,0.6788,-0.7208,0.1234,0.0660
1450,0.0,0.0,0.0,0.0,0.0,0.0,-0.2618,-0.9759,-0.1343,0.6804,-0.7191,0.1243,0.0674
1451,0.0,0.0,0.0,0.0,0.0,0.0,-0.2613,-0.9676,-0.1367,0.6817,-0.7176,0.1242,0.0697
1452,0.0,0.0,0.0,0.0,0.0,0.0,-0.2677,-0.9623,-0.1314,0.6833,-0.7159,0.1241,0.0724
1453,0.0,0.0,0.0,0.0,0.0,0.0,-0.2706,-0.9632,-0.1411,0.6848,-0.7142,0.1238,0.0757
1454,0.0,0.0,0.0,0.0,0.0,0.0,-0.2652,-0.9662,-0.1338,0.6860,-0.7126,0.1241,0.0788
1455,0.0,0.0,0.0,0.0,0.0,0.0,-0.2472,-0.9454,-0.1338,0.6872,-0.7112,0.1246,0.0810
1456,0.0,0.0,0.0,0.0,0.0,0.0,-0.2320,-0.9211,-0.1494,0.6880,-0.7102,0.1245,0.0821
1457,0.0,0.0,0.0,0.0,0.0,0.0,-0.2311,-0.9027,-0.1552,0.6882,-0.7100,0.1250,0.0821
1458,0.0,0.0,0.0,0.0,0.0,0.0,-0.2355,-0.9007,-0.1518,0.6881,-0.7100,0.1255,0.0813
1459,0.0,0.0,0.0,0.0,0.0,0.0,-0.2491,-0.9177,-0.1387,0.6880,-0.7102,0.1257,0.0808
1460,0.0,0.0,0.0,0.0,0.0,0.0,-0.2735,-0.9424,-0.1265,0.6878,-0.7104,0.1261,0.0804
1461,0.0,0.0,0.0,0.0,0.0,0.0,-0.2833,-0.9637,-0.1139,0.6882,-0.7100,0.1263,0.0799
1462,0.0,0.0,0.0,0.0,0.0,0.0,-0.2838,-0.9564,-0.1163,0.6888,-0.7094,0.1262,0.0798
1463,0.0,0.0,0.0,0.0,0.0,0.0,-0.2872,-0.9535,-0.1188,0.6898,-0.7084,0.1264,0.0800
1464,0.0,0.0,0.0,0.0,0.0,0.0,-0.2809,-0.9486,-0.1207,0.6906,-0.7076,0.1264,0.0804
1465,0.0,0.0,0.0,0.0,0.0,0.0,-0.2730,-0.9458,-0.1153,0.6910,-0.7072,0.1263,0.0807
1466,0.0,0.0,0.0,0.0,0.0,0.0,-0.2716,-0.9438,-0.1202,0.6913,-0.7069,0.1262,0.0810
1467,0.0,0.0,0.0,0.0,0.0,0.0,-0.2701,-0.9453,-0.1182,0.6914,-0.7068,0.1259,0.0811
1468,0.0,0.0,0.0,0.0,0.0,0.0,-0.2642,-0.9463,-0.1119,0.6919,-0.7063,0.1258,0.0808
1469,0.0,0.0,0.0,0.0,0.0,0.0,-0.2692,-0.9234,-0.1270,0.6916,-0.7067,0.1258,0.0803
1470,0.0,0.0,0.0,0.0,0.0,0.0,-0.2721,-0.9108,-0.1373,0.6899,-0.7085,0.1256,0.0796
1471,0.0,0.0,0.0,0.0,0.0,0.0,-0.2692,-0.9259,-0.1294,0.6876,-0.7109,0.1252,0.0789
1472,0.0,0.0,0.0,0.0,0.0,0.0,-0.2608,-0.9385,-0.1270,0.6852,-0.7135,0.1242,0.0781
1473,0.0,0.0,0.0,0.0,0.0,0.0,-0.2545,-0.9390,-0.1348,0.6827,-0.7161,0.1228,0.0773
1474,0.0,0.0,0.0,0.0,0.0,0.0,-0.2511,-0.9415,-0.1411,0.6808,-0.7183,0.1214,0.0766
1475,0.0,0.0,0.0,0.0,0.0,0.0,-0.2467,-0.9468,-0.1479,0.6792,-0.7202,0.1196,0.0760
1476,0.0,0.0,0.0,0.0,0.0,0.0,-0.2540,-0.9541,-0.1513,0.6776,-0.7220,0.1181,0.0751
1477,0.0,0.0,0.0,0.0,0.0,0.0,-0.2579,-0.9604,-0.1499,0.6767,-0.7231,0.1174,0.0742
1478,0.0,0.0,0.0,0.0,0.0,0.0,-0.2472,-0.9590,-0.1499,0.6762,-0.7237,0.1168,0.0736
1479,0.0,0.0,0.0,0.0,0.0,0.0,-0.2428,-0.9541,-0.1494,0.6763,-0.7237,0.1162,0.0728
1480,0.0,0.0,0.0,0.0,0.0,0.0,-0.2462,-0.9551,-0.1543,0.6768,-0.7234,0.1160,0.0721
1481,0.0,0.0,0.0,0.0,0.0,0.0,-0.2413,-0.9517,-0.1518,0.6773,-0.7231,0.1161,0.0710
1482,0.0,0.0,0.0,0.0,0.0,0.0,-0.2428,-0.9546,-0.1547,0.6781,-0.7223,0.1162,0.0703
1483,0.0,0.0,0.0,0.0,0.0,0.0,-0.2432,-0.9629,-0.1416,0.6797,-0.7207,0.1168,0.0699
1484,0.0,0.0,0.0,0.0,0.0,0.0,-0.2471,-0.9818,-0.1260,0.6829,-0.7175,0.1182,0.0694
1485,0.0,0.0,0.0,0.0,0.0,0.0,-0.2813,-0.9729,-0.1329,0.6867,-0.7135,0.1208,0.0692
1486,0.0,0.0,0.0,0.0,0.0,0.0,-0.2916,-0.9554,-0.1300,0.6905,-0.7092,0.1242,0.0695
1487,0.0,0.0,0.0,0.0,0.0,0.0,-0.2623,-0.9662,-0.1172,0.6949,-0.7043,0.1274,0.0696
1488,0.0,0.0,0.0,0.0,0.0,0.0,-0.2681,-0.9642,-0.1129,0.6990,-0.6999,0.1290,0.0705
1489,0.0,0.0,0.0,0.0,0.0,0.0,-0.2892,-0.9491,-0.1110,0.7019,-0.6966,0.1304,0.0716
1490,0.0,0.0,0.0,0.0,0.0,0.0,-0.2921,-0.9423,-0.1076,0.7030,-0.6949,0.1323,0.0728
1491,0.0,0.0,0.0,0.0,0.0,0.0,-0.2462,-0.9206,-0.1138,0.7033,-0.6944,0.1326,0.0744
1492,0.0,0.0,0.0,0.0,0.0,0.0,-0.2061,-0.9227,-0.1235,0.7031,-0.6950,0.1305,0.0752
1493,0.0,0.0,0.0,0.0,0.0,0.0,-0.2847,-0.9598,-0.1012,0.7016,-0.6967,0.1290,0.0752
1494,0.0,0.0,0.0,0.0,0.0,0.0,-0.3214,-0.9509,-0.0876,0.6993,-0.6990,0.1293,0.0748
1495,0.0,0.0,0.0,0.0,0.0,0.0,-0.2608,-0.9458,-0.1129,0.6962,-0.7021,0.1303,0.0733
1496,0.0,0.0,0.0,0.0,0.0,0.0,-0.2242,-0.9241,-0.1216,0.6927,-0.7058,0.1299,0.0715
1497,0.0,0.0,0.0,0.0,0.0,0.0,-0.2056,-0.9343,-0.1025,0.6913,-0.7077,0.1271,0.0709
1498,0.0,0.0,0.0,0.0,0.0,0.0,-0.2280,-1.0124,-0.0918,0.6942,-0.7052,0.1254,0.0706
1499,0.0,0.0,0.0,0.0,0.0,0.0,-0.3605,-1.0124,-0.0955,0.6963,-0.7028,0.1269,0.0714
1500,0.0,0.0,0.0,0.0,0.0,0.0,-0.3288,-0.9315,-0.0959,0.6975,-0.7008,0.1306,0.0724
1501,0.0,0.0,0.0,0.0,0.0,0.0,-0.2115,-0.9353,-0.1332,0.6992,-0.6988,0.1320,0.0736
1502,0.0,0.0,0.0,0.0,0.0,0.0,-0.2373,-0.9770,-0.0787,0.7015,-0.6964,0.1313,0.0753
1503,0.0,0.0,0.0,0.0,0.0,0.0,-0.3106,-0.9660,-0.0774,0.7035,-0.6940,0.1326,0.0766
1504,0.0,0.0,0.0,0.0,0.0,0.0,-0.2809,-0.9176,-0.1148,0.7041,-0.6929,0.1346,0.0775
1505,0.0,0.0,0.0,0.0,0.0,0.0,-0.2359,-0.9148,-0.1328,0.7032,-0.6937,0.1348,0.0782
1506,0.0,0.0,0.0,0.0,0.0,0.0,-0.2511,-0.9308,-0.1046,0.7023,-0.6947,0.1343,0.0784
1507,0.0,0.0,0.0,0.0,0.0,0.0,-0.2784,-0.9404,-0.1002,0.7013,-0.6959,0.1337,0.0782
1508,0.0,0.0,0.0,0.0,0.0,0.0,-0.2603,-0.9579,-0.0904,0.7003,-0.6970,0.1336,0.0772
1509,0.0,0.0,0.0,0.0,0.0,0.0,-0.2398,-0.9580,-0.0958,0.6994,-0.6981,0.1332,0.0753
1510,0.0,0.0,0.0,0.0,0.0,0.0,-0.2706,-0.9351,-0.1017,0.6983,-0.6994,0.1328,0.0741
1511,0.0,0.0,0.0,0.0,0.0,0.0,-0.2686,-0.9390,-0.1124,0.6971,-0.7008,0.1332,0.0726
1512,0.0,0.0,0.0,0.0,0.0,0.0,-0.2755,-0.9448,-0.1304,0.6941,-0.7040,0.1327,0.0712
1513,0.0,0.0,0.0,0.0,0.0,0.0,-0.2873,-0.9394,-0.1446,0.6878,-0.7103,0.1319,0.0700
1514,0.0,0.0,0.0,0.0,0.0,0.0,-0.3034,-0.9452,-0.1475,0.6786,-0.7191,0.1330,0.0687
1515,0.0,0.0,0.0,0.0,0.0,0.0,-0.2872,-0.9947,-0.1031,0.6732,-0.7236,0.1366,0.0678
1516,0.0,0.0,0.0,0.0,0.0,0.0,-0.2676,-1.0312,-0.0982,0.6750,-0.7214,0.1391,0.0677
1517,0.0,0.0,0.0,0.0,0.0,0.0,-0.3068,-0.9801,-0.1475,0.6755,-0.7205,0.1412,0.0688
1518,0.0,0.0,0.0,0.0,0.0,0.0,-0.2990,-0.9034,-0.1778,0.6730,-0.7217,0.1466,0.0687
1519,0.0,0.0,0.0,0.0,0.0,0.0,-0.2443,-0.9114,-0.1825,0.6708,-0.7229,0.1509,0.0686
1520,0.0,0.0,0.0,0.0,0.0,0.0,-0.2160,-0.9061,-0.1786,0.6684,-0.7250,0.1490,0.0733
1521,0.0,0.0,0.0,0.0,0.0,0.0,-0.2321,-0.8939,-0.1840,0.6656,-0.7280,0.1455,0.0762
1522,0.0,0.0,0.0,0.0,0.0,0.0,-0.2956,-0.9102,-0.2041,0.6621,-0.7311,0.1466,0.0755
1523,0.0,0.0,0.0,0.0,0.0,0.0,-0.2746,-0.9399,-0.1758,0.6597,-0.7334,0.1462,0.0743
1524,0.0,0.0,0.0,0.0,0.0,0.0,-0.2814,-0.9554,-0.1865,0.6580,-0.7348,0.1483,0.0716
1525,0.0,0.0,0.0,0.0,0.0,0.0,-0.2711,-0.9555,-0.1855,0.6571,-0.7355,0.1515,0.0656
1526,0.0,0.0,0.0,0.0,0.0,0.0,-0.2981,-0.9510,-0.2128,0.6556,-0.7367,0.1530,0.0639
1527,0.0,0.0,0.0,0.0,0.0,0.0,-0.2756,-0.9477,-0.1953,0.6544,-0.7380,0.1515,0.0650
1528,0.0,0.0,0.0,0.0,0.0,0.0,-0.2609,-0.9434,-0.2064,0.6545,-0.7380,0.1519,0.0624
1529,0.0,0.0,0.0,0.0,0.0,0.0,-0.2555,-0.9410,-0.2142,0.6544,-0.7384,0.1497,0.0638
1530,0.0,0.0,0.0,0.0,0.0,0.0,-0.2604,-0.9511,-0.1996,0.6554,-0.7380,0.1469,0.0650
1531,0.0,0.0,0.0,0.0,0.0,0.0,-0.2643,-0.9589,-0.1865,0.6576,-0.7366,0.1434,0.0657
1532,0.0,0.0,0.0,0.0,0.0,0.0,-0.2741,-0.9438,-0.1875,0.6612,-0.7340,0.1408,0.0655
1533,0.0,0.0,0.0,0.0,0.0,0.0,-0.2946,-0.9374,-0.1909,0.6646,-0.7311,0.1397,0.0655
1534,0.0,0.0,0.0,0.0,0.0,0.0,-0.2917,-0.9394,-0.1831,0.6684,-0.7277,0.1397,0.0652
1535,0.0,0.0,0.0,0.0,0.0,0.0,-0.2692,-0.9419,-0.1714,0.6724,-0.7239,0.1400,0.0645
1536,0.0,0.0,0.0,0.0,0.0,0.0,-0.2790,-0.9317,-0.1782,0.6759,-0.7206,0.1403,0.0646
1537,0.0,0.0,0.0,0.0,0.0,0.0,-0.2995,-0.9432,-0.1768,0.6781,-0.7181,0.1420,0.0652
1538,0.0,0.0,0.0,0.0,0.0,0.0,-0.2892,-0.9637,-0.1412,0.6800,-0.7160,0.1435,0.0664
1539,0.0,0.0,0.0,0.0,0.0,0.0,-0.2775,-0.9521,-0.1402,0.6820,-0.7138,0.1439,0.0683
1540,0.0,0.0,0.0,0.0,0.0,0.0,-0.2477,-0.9221,-0.1640,0.6833,-0.7124,0.1435,0.0706
1541,0.0,0.0,0.0,0.0,0.0,0.0,-0.2506,-0.9400,-0.1484,0.6849,-0.7108,0.1428,0.0721
1542,0.0,0.0,0.0,0.0,0.0,0.0,-0.2863,-0.9496,-0.1339,0.6856,-0.7100,0.1429,0.0729
1543,0.0,0.0,0.0,0.0,0.0,0.0,-0.2775,-0.9331,-0.1319,0.6870,-0.7084,0.1445,0.0724
1544,0.0,0.0,0.0,0.0,0.0,0.0,-0.2633,-0.9341,-0.1445,0.6887,-0.7066,0.1462,0.0711
1545,0.0,0.0,0.0,0.0,0.0,0.0,-0.2643,-0.9380,-0.1402,0.6896,-0.7057,0.1470,0.0695
1546,0.0,0.0,0.0,0.0,0.0,0.0,-0.2819,-0.9341,-0.1421,0.6896,-0.7057,0.1477,0.0682
1547,0.0,0.0,0.0,0.0,0.0,0.0,-0.2829,-0.9229,-0.1431,0.6889,-0.7063,0.1479,0.0679
1548,0.0,0.0,0.0,0.0,0.0,0.0,-0.2643,-0.9244,-0.1441,0.6882,-0.7073,0.1465,0.0681
1549,0.0,0.0,0.0,0.0,0.0,0.0,-0.2638,-0.9346,-0.1489,0.6868,-0.7091,0.1444,0.0683
1550,0.0,0.0,0.0,0.0,0.0,0.0,-0.2794,-0.9365,-0.1524,0.6838,-0.7125,0.1420,0.0687
1551,0.0,0.0,0.0,0.0,0.0,0.0,-0.2785,-0.9292,-0.1529,0.6792,-0.7173,0.1391,0.0688
1552,0.0,0.0,0.0,0.0,0.0,0.0,-0.2564,-0.9410,-0.1304,0.6764,-0.7206,0.1359,0.0683
1553,0.0,0.0,0.0,0.0,0.0,0.0,-0.2496,-0.9774,-0.1162,0.6773,-0.7202,0.1345,0.0669
1554,0.0,0.0,0.0,0.0,0.0,0.0,-0.2911,-0.9899,-0.1382,0.6795,-0.7181,0.1355,0.0655
1555,0.0,0.0,0.0,0.0,0.0,0.0,-0.3092,-0.9549,-0.1544,0.6806,-0.7168,0.1373,0.0645
1556,0.0,0.0,0.0,0.0,0.0,0.0,-0.2726,-0.9152,-0.1636,0.6807,-0.7163,0.1391,0.0640
1557,0.0,0.0,0.0,0.0,0.0,0.0,-0.2311,-0.9357,-0.1669,0.6807,-0.7163,0.1393,0.0644
1558,0.0,0.0,0.0,0.0,0.0,0.0,-0.2413,-0.9740,-0.1269,0.6817,-0.7155,0.1378,0.0656
1559,0.0,0.0,0.0,0.0,0.0,0.0,-0.2589,-0.9521,-0.1465,0.6829,-0.7147,0.1357,0.0673
1560,0.0,0.0,0.0,0.0,0.0,0.0,-0.2638,-0.9366,-0.1587,0.6833,-0.7144,0.1343,0.0685
1561,0.0,0.0,0.0,0.0,0.0,0.0,-0.2672,-0.9526,-0.1324,0.6840,-0.7137,0.1339,0.0694
