,Position_X,Position_Y,Position_Z,Velocity_X,Velocity_Y,Velocity_Z,Acceleration_X,Acceleration_Y,Acceleration_Z,Quaterion_0,Quaterion_1,Quaterion_2,Quaterion_3
166.0,0.0,0.0,0.0,0.0,0.0,0.0,0.004719596356153488,0.014211557805538177,0.0026742443442344666,1.0,0.0,0.0,0.0
167.0,0.0,0.0,0.0,0.0,0.0,0.0,0.039261046797037125,-0.0021598427556455135,0.011062358506023884,1.0,0.0,1.0842021724855044e-19,7.835054762102278e-21
168.0,0.0,0.0,0.0,0.0,0.0,0.0,0.017787568271160126,0.00908388290554285,-0.0057130842469632626,1.0,0.0,2.168404344971009e-19,6.1409888675936775e-21
169.0,0.0,0.0,0.0,0.0,0.0,0.0,-0.021252745762467384,0.02601461112499237,-0.014750229194760323,1.0,1.0842021724855044e-19,0.0,-4.0657581468206416e-20
170.0,0.0,0.0,0.0,0.0,0.0,0.0,-0.04338547959923744,0.02885088510811329,-0.010168546810746193,1.0,0.0,0.0,9.09766324910322e-20
171.0,0.0,0.0,0.0,0.0,0.0,0.0,-0.03404607996344566,0.023016171529889107,-0.0036465106531977654,1.0,-5.421010862427522e-20,-2.168404344971009e-19,-2.2478136837760995e-19
172.0,0.0,0.0,0.0,0.0,0.0,0.0,-0.015832124277949333,0.013219702988862991,0.00030309861176647246,1.0,5.421010862427522e-20,0.0,3.843411998166388e-19
173.0,0.0,0.0,0.0,0.0,0.0,0.0,-0.0044789002276957035,0.014944663271307945,0.010254623368382454,1.0,-2.168404344971009e-19,0.0,-6.522153693858113e-19
174.0,0.0,0.0,0.0,0.0,0.0,0.0,-0.0017035506898537278,0.02023850940167904,0.00897291861474514,1.0,-1.0842021724855044e-19,0.0,-6.467096552286583e-19
175.0,0.0,0.0,0.0,0.0,0.0,0.0,-0.002768170554190874,0.01759643480181694,0.0021097632125020027,1.0,-3.2526065174565133e-19,0.0,-1.8888834723770898e-19
176.0,0.0,0.0,0.0,0.0,0.0,0.0,-0.003334421431645751,0.018275808542966843,-0.002810480771586299,1.0,-1.0842021724855044e-19,2.168404344971009e-19,3.646476837929763e-19
177.0,0.0,0.0,0.0,0.0,0.0,0.0,-0.0036155283451080322,0.020126046612858772,-0.0015293217729777098,1.0,0.0,2.168404344971009e-19,-2.270048298641525e-19
178.0,0.0,0.0,0.0,0.0,0.0,0.0,-0.0010842937044799328,0.017122017219662666,-0.0009503191686235368,1.0,-1.0842021724855044e-19,0.0,6.2087515033740215e-19
179.0,0.0,0.0,0.0,0.0,0.0,0.0,0.0017032318282872438,0.013208121061325073,-0.0020319160539656878,1.0,2.168404344971009e-19,0.0,1.0249098661777034e-19
180.0,0.0,0.0,0.0,0.0,0.0,0.0,-0.0012562012998387218,0.018324032425880432,0.0016157969366759062,1.0,1.0842021724855044e-19,4.336808689942018e-19,4.0149361699853836e-19
181.0,0.0,0.0,0.0,0.0,0.0,0.0,-0.015043246559798717,0.025212621316313744,0.004442042205482721,1.0,-1.0842021724855044e-19,4.336808689942018e-19,1.7448878713438587e-19
182.0,0.0,0.0,0.0,0.0,0.0,0.0,-0.023744776844978333,0.026883793994784355,0.002562375273555517,1.0,-3.2526065174565133e-19,4.336808689942018e-19,-2.1345230270808369e-19
183.0,0.0,0.0,0.0,0.0,0.0,0.0,-0.02349654771387577,0.026756348088383675,0.004351268522441387,1.0,-2.168404344971009e-19,0.0,3.5744790374131474e-19
184.0,0.0,0.0,0.0,0.0,0.0,0.0,-0.018710896372795105,0.02729252725839615,0.0076445601880550385,1.0,0.0,0.0,2.90532300908225e-19
185.0,0.0,0.0,0.0,0.0,0.0,0.0,-0.0173663217574358,0.024738924577832222,0.005126435775309801,1.0,2.710505431213761e-20,-8.673617379884035e-19,-1.3747344733937295e-18
186.0,0.0,0.0,0.0,0.0,0.0,0.0,-0.018969031050801277,0.020286520943045616,0.003212845418602228,1.0,0.0,0.0,-6.115577879176048e-19
187.0,0.0,0.0,0.0,0.0,0.0,0.0,-0.017816176638007164,0.026263032108545303,0.003430033568292856,1.0,0.0,-8.673617379884035e-19,-2.0176324803597434e-18
188.0,0.0,0.0,0.0,0.0,0.0,0.0,-0.013399877585470676,0.02749047614634037,0.0024636765010654926,1.0,0.0,-8.673617379884035e-19,5.454892180317694e-19
189.0,0.0,0.0,0.0,0.0,0.0,0.0,-0.008507722057402134,0.023094752803444862,0.0018803629791364074,1.0,0.0,0.0,-4.0318768289304696e-19
190.0,0.0,0.0,0.0,0.0,0.0,0.0,-0.007804498076438904,0.018860863521695137,-0.0016671784687787294,1.0,-2.168404344971009e-19,0.0,4.811147140404426e-19
191.0,0.0,0.0,0.0,0.0,0.0,0.0,-0.007422226015478373,0.017527982592582703,-0.0029771625995635986,1.0,0.0,4.336808689942018e-19,3.415236843329339e-18
192.0,0.0,0.0,0.0,0.0,0.0,0.0,-0.007189059630036354,0.019062625244259834,-0.0008612598176114261,1.0,-2.168404344971009e-19,4.336808689942018e-19,-5.014435047745458e-19
193.0,0.0,0.0,0.0,0.0,0.0,0.0,-0.006553906947374344,0.017325330525636673,-0.004724598955363035,1.0,0.0,4.336808689942018e-19,1.6263032587282567e-19
194.0,0.0,0.0,0.0,0.0,0.0,0.0,-0.005036743823438883,0.016229284927248955,-0.003502602456137538,1.0,-2.168404344971009e-19,8.673617379884035e-19,1.4568966692773966e-18
195.0,0.0,0.0,0.0,0.0,0.0,0.0,-0.005602912977337837,0.014239910058677197,-0.005533590447157621,1.0,-4.336808689942018e-19,4.336808689942018e-19,1.260385025514399e-18
196.0,0.0,0.0,0.0,0.0,0.0,0.0,-0.004305013921111822,0.01542817335575819,-0.004604046232998371,1.0,-2.168404344971009e-19,8.673617379884035e-19,-1.3213713977167085e-18
197.0,0.0,0.0,0.0,0.0,0.0,0.0,-0.0018350038444623351,0.01768205128610134,-0.0015938819851726294,1.0,0.0,0.0,-1.514494909690689e-18
198.0,0.0,0.0,0.0,0.0,0.0,0.0,-0.005336280446499586,0.017663348466157913,0.0026128750760108232,1.0,-4.336808689942018e-19,8.673617379884035e-19,1.1892342579450377e-18
199.0,0.0,0.0,0.0,0.0,0.0,0.0,-0.005943285301327705,0.017717352136969566,0.00312021397985518,1.0,2.168404344971009e-19,-8.673617379884035e-19,-2.7511630126819675e-18
200.0,0.0,0.0,0.0,0.0,0.0,0.0,-0.008469386026263237,0.02015414834022522,0.004552793689072132,1.0,-2.168404344971009e-19,4.336808689942018e-19,3.2763234399796337e-18
201.0,0.0,0.0,0.0,0.0,0.0,0.0,-0.004504336044192314,0.019626298919320107,0.0034545015078037977,1.0,2.168404344971009e-19,-4.336808689942018e-19,-2.1226645658192766e-18
202.0,0.0,0.0,0.0,0.0,0.0,0.0,0.01991613395512104,-0.010526730678975582,0.009726601652801037,1.0,-1.0842021724855044e-19,0.0,3.3881317890172014e-18
203.0,0.0,0.0,0.0,0.0,0.0,0.0,0.021138682961463928,-0.01033945195376873,-0.0007158776861615479,1.0,1.0842021724855044e-19,-8.673617379884035e-19,2.405573570202213e-19
204.0,0.0,0.0,0.0,0.0,0.0,0.0,0.0030060396529734135,-0.002224463503807783,-0.015034000389277935,1.0,-1.0842021724855044e-19,-8.673617379884035e-19,-4.929731753020028e-19
205.0,0.0,0.0,0.0,0.0,0.0,0.0,-0.02977493219077587,0.011991173960268497,-0.013779190368950367,1.0,-1.0842021724855044e-19,-2.6020852139652106e-18,2.2861419246393566e-18
206.0,0.0,0.0,0.0,0.0,0.0,0.0,-0.0329122319817543,0.01384775061160326,-0.005816237069666386,1.0,-1.0842021724855044e-19,8.673617379884035e-19,1.8600843521704435e-18
207.0,0.0,0.0,0.0,0.0,0.0,0.0,-0.023152891546487808,0.013075076043605804,-0.0006806037272326648,1.0,0.0,-1.734723475976807e-18,-2.7714918034160707e-18
208.0,0.0,0.0,0.0,0.0,0.0,0.0,-0.011882541701197624,0.016929270699620247,0.0029969459865242243,1.0,-2.168404344971009e-19,0.0,6.098637220230962e-20
209.0,0.0,0.0,0.0,0.0,0.0,0.0,-0.0025990651920437813,0.023887893185019493,0.004391069058328867,1.0,0.0,0.0,9.893344823930228e-19
210.0,0.0,0.0,0.0,0.0,0.0,0.0,0.006366599351167679,0.019656769931316376,0.0029182324651628733,1.0,2.168404344971009e-19,8.673617379884035e-19,-1.1180834903756764e-18
211.0,0.0,0.0,0.0,0.0,0.0,0.0,0.011531928554177284,-0.0014982132706791162,0.0033187149092555046,1.0,0.0,0.0,1.6872896309305663e-18
212.0,0.0,0.0,0.0,0.0,0.0,0.0,0.013356929644942284,-0.012713834643363953,0.0015391794731840491,1.0,-1.0842021724855044e-19,0.0,-9.385125055577648e-19
213.0,0.0,0.0,0.0,0.0,0.0,0.0,0.014317221939563751,-0.0023593308869749308,0.00929465051740408,1.0,0.0,0.0,8.131516293641283e-20
214.0,0.0,0.0,0.0,0.0,0.0,0.0,0.006657247897237539,0.007512984331697226,0.007869143970310688,1.0,-1.0842021724855044e-19,1.734723475976807e-18,5.285485590866834e-19
215.0,0.0,0.0,0.0,0.0,0.0,0.0,-0.0032127760350704193,0.008855903521180153,-2.6804318622453138e-05,1.0,0.0,-8.673617379884035e-19,1.1858461261560205e-18
216.0,0.0,0.0,0.0,0.0,0.0,0.0,-0.011811790987849236,0.011297137476503849,-0.002209828235208988,1.0,1.0842021724855044e-19,8.673617379884035e-19,-5.827586677109586e-19
217.0,0.0,0.0,0.0,0.0,0.0,0.0,-0.013685358688235283,0.013070442713797092,-0.005404983647167683,1.0,0.0,0.0,2.286988957586611e-20
218.0,0.0,0.0,0.0,0.0,0.0,0.0,-0.009738867171108723,0.017252959311008453,-0.0034900556784123182,1.0,-5.421010862427522e-20,-2.6020852139652106e-18,1.2002456862593436e-18
219.0,0.0,0.0,0.0,0.0,0.0,0.0,-0.00960488710552454,0.013265358284115791,-0.004729193635284901,1.0,-2.168404344971009e-19,8.673617379884035e-19,-7.962109704190423e-19
220.0,0.0,0.0,0.0,0.0,0.0,0.0,-0.008188004605472088,0.01287494320422411,-0.002756054513156414,1.0,-4.336808689942018e-19,-4.336808689942018e-19,1.7414997395548415e-18
221.0,0.0,0.0,0.0,0.0,0.0,0.0,-0.006791192106902599,0.013784192502498627,-0.0002196516579715535,1.0,0.0,4.336808689942018e-19,-6.572975670693371e-19
222.0,0.0,0.0,0.0,0.0,0.0,0.0,-0.004822904244065285,0.01235899142920971,0.0025195942725986242,1.0,-8.673617379884035e-19,8.673617379884035e-19,-1.4230153513872246e-18
223.0,0.0,0.0,0.0,0.0,0.0,0.0,-0.0010955791221931577,0.010109436698257923,0.003616766072809696,1.0,8.673617379884035e-19,0.0,-1.3552527156068805e-18
224.0,0.0,0.0,0.0,0.0,0.0,0.0,0.0024317712523043156,0.007957776077091694,0.004309169948101044,1.0,-8.673617379884035e-19,0.0,0.0
225.0,0.0,0.0,0.0,0.0,0.0,0.0,-0.0023089516907930374,0.0044575221836566925,0.0004224441072437912,1.0,0.0,-4.336808689942018e-19,-2.6291902682773483e-18
226.0,0.0,0.0,0.0,0.0,0.0,0.0,-0.006342938169836998,0.0072730910032987595,-0.0031176528427749872,1.0,8.673617379884035e-19,4.336808689942018e-19,-8.402566836762659e-19
227.0,0.0,0.0,0.0,0.0,0.0,0.0,-0.005608726292848587,0.007851684466004372,-0.0019123071106150746,1.0,-8.673617379884035e-19,-4.336808689942018e-19,5.421010862427522e-20
228.0,0.0,0.0,0.0,0.0,0.0,0.0,-0.005890573840588331,0.0065553211607038975,6.137686432339251e-05,1.0,-4.336808689942018e-19,0.0,-4.607859233063394e-19
229.0,0.0,0.0,0.0,0.0,0.0,0.0,-0.006528469268232584,0.0016279122792184353,-0.0009142389753833413,1.0,-4.336808689942018e-19,0.0,1.9786689647860456e-18
230.0,0.0,0.0,0.0,0.0,0.0,0.0,-0.006303857080638409,-0.004639737773686647,-0.0012568446109071374,1.0,4.336808689942018e-19,0.0,-3.0154372922253092e-18
231.0,0.0,0.0,0.0,0.0,0.0,0.0,-0.009068197570741177,-0.002256833016872406,0.0006078894948586822,1.0,8.673617379884035e-19,-8.673617379884035e-19,-4.54009659728305e-19
232.0,0.0,0.0,0.0,0.0,0.0,0.0,-0.012017020024359226,0.0037172939628362656,0.0008829861762933433,1.0,-8.673617379884035e-19,4.336808689942018e-19,4.0115480381963664e-18
233.0,0.0,0.0,0.0,0.0,0.0,0.0,-0.01407344825565815,0.004175580572336912,0.0036727034021168947,1.0,4.336808689942018e-19,0.0,3.9607260613611084e-18
234.0,0.0,0.0,0.0,0.0,0.0,0.0,0.003284412669017911,0.00023696837888564914,0.007084090728312731,1.0,0.0,0.0,2.8782179547701126e-18
235.0,0.0,0.0,0.0,0.0,0.0,0.0,0.04743601381778717,-0.04631361737847328,0.018661590293049812,1.0,0.0,-4.336808689942018e-19,-1.1401063470042883e-18
236.0,0.0,0.0,0.0,0.0,0.0,0.0,0.03529844433069229,-0.03719974309206009,-0.0004949521389789879,1.0,2.168404344971009e-19,-4.336808689942018e-19,-4.2690460541616737e-19
237.0,0.0,0.0,0.0,0.0,0.0,0.0,-0.005386491771787405,-0.00965961068868637,-0.01752082258462906,1.0,0.0,-4.336808689942018e-19,-1.9803630306805542e-18
238.0,0.0,0.0,0.0,0.0,0.0,0.0,-0.016709202900528908,-0.0012743818806484342,-0.005998415406793356,1.0,0.0,4.336808689942018e-19,-2.8612772958250265e-18
239.0,0.0,0.0,0.0,0.0,0.0,0.0,-0.011975357308983803,-0.0020911211613565683,-0.0021983745973557234,1.0,2.168404344971009e-19,-2.168404344971009e-19,-2.354751593366955e-19
240.0,0.0,0.0,0.0,0.0,0.0,0.0,-0.006241043098270893,-0.0002768504782579839,-0.003745908150449395,1.0,0.0,-4.336808689942018e-19,4.145379243862546e-18
241.0,0.0,0.0,0.0,0.0,0.0,0.0,0.0015947386855259538,0.004446241073310375,0.0030959374271333218,1.0,-6.505213034913027e-19,0.0,-2.3310346708438345e-18
242.0,0.0,0.0,0.0,0.0,0.0,0.0,-0.0007257931283675134,0.007855459116399288,-0.003634450724348426,1.0,6.505213034913027e-19,0.0,-1.1045309632196076e-18
243.0,0.0,0.0,0.0,0.0,0.0,0.0,-0.004476756788790226,0.005717867519706488,-0.011332952417433262,1.0,-8.673617379884035e-19,0.0,-2.710505431213761e-19
244.0,0.0,0.0,0.0,0.0,0.0,0.0,-0.0024507062043994665,0.004381923470646143,-0.006987152621150017,1.0,-8.673617379884035e-19,0.0,1.6432439176733427e-18
245.0,0.0,0.0,0.0,0.0,0.0,0.0,-0.0012189527042210102,0.0012433998053893447,-0.004877832718193531,1.0,2.168404344971009e-19,-2.168404344971009e-19,-1.799097979968134e-18
246.0,0.0,0.0,0.0,0.0,0.0,0.0,0.0007997710490599275,-0.001460338826291263,-0.004757474176585674,1.0,2.168404344971009e-19,-2.168404344971009e-19,-2.6300373012246026e-18
247.0,0.0,0.0,0.0,0.0,0.0,0.0,-0.0011385150719434023,-0.0038979146629571915,-0.004014788195490837,1.0,4.336808689942018e-19,-1.0842021724855044e-19,6.556035011748285e-19
248.0,0.0,0.0,0.0,0.0,0.0,0.0,0.00046288943849503994,-0.002587783383205533,-0.0009856900433078408,1.0,1.0842021724855044e-19,1.0842021724855044e-19,3.575326070360402e-18
249.0,0.0,0.0,0.0,0.0,0.0,0.0,0.0061723911203444,-0.0012882834998890758,-0.00048514167428947985,1.0,-5.421010862427522e-20,-1.0842021724855044e-19,9.744055266976658e-19
250.0,0.0,0.0,0.0,0.0,0.0,0.0,0.009968644939363003,0.0022494029253721237,-0.0009606896783225238,1.0,2.710505431213761e-20,1.0842021724855044e-19,-4.886427193591652e-18
251.0,0.0,0.0,0.0,0.0,0.0,0.0,0.01150433998554945,0.0028037840966135263,0.0013296265387907624,1.0,0.0,-1.0842021724855044e-19,2.7327400460791865e-19
252.0,0.0,0.0,0.0,0.0,0.0,0.0,0.011073419824242592,-0.002461473923176527,0.0054723285138607025,1.0,0.0,0.0,-2.6929824371174377e-18
253.0,0.0,0.0,0.0,0.0,0.0,0.0,0.007261013612151146,-0.005540831945836544,0.006447955965995789,1.0,2.710505431213761e-20,1.0842021724855044e-19,2.8578891640360093e-18
254.0,0.0,0.0,0.0,0.0,0.0,0.0,0.005377373658120632,-0.0041525294072926044,0.007564195431768894,1.0,5.421010862427522e-20,1.0842021724855044e-19,1.0856844801431995e-18
255.0,0.0,0.0,0.0,0.0,0.0,0.0,0.006535822991281748,-0.004361840896308422,0.005936451721936464,1.0,-5.421010862427522e-20,-1.0842021724855044e-19,1.6783957849843961e-18
256.0,0.0,0.0,0.0,0.0,0.0,0.0,0.00793509092181921,-0.0009505173657089472,0.004981983918696642,1.0,2.168404344971009e-19,-2.168404344971009e-19,-1.7016891910338894e-18
257.0,0.0,0.0,0.0,0.0,0.0,0.0,0.00217444053851068,0.008142448030412197,0.001797097735106945,1.0,0.0,0.0,-6.34427677493471e-19
258.0,0.0,0.0,0.0,0.0,0.0,0.0,-0.005034903064370155,0.017574867233633995,-0.0004931806470267475,1.0,4.336808689942018e-19,5.421010862427522e-20,-2.146381488342397e-18
259.0,0.0,0.0,0.0,0.0,0.0,0.0,-0.012879904359579086,0.02233496867120266,-0.0007950665312819183,1.0,4.336808689942018e-19,-1.3552527156068805e-20,-1.24090326772755e-19
260.0,0.0,0.0,0.0,0.0,0.0,0.0,-0.0070760236121714115,0.01819157600402832,0.0007146265124902129,1.0,8.673617379884035e-19,0.0,8.419507495707745e-19
261.0,0.0,0.0,0.0,0.0,0.0,0.0,-0.0007001652265898883,0.011188535019755363,-0.0008277023443952203,1.0,0.0,5.421010862427522e-20,-2.337810934421869e-19
262.0,0.0,0.0,0.0,0.0,0.0,0.0,0.0038406047970056534,0.004542842973023653,-0.005236065946519375,1.0,0.0,-8.131516293641283e-20,1.2121041475209038e-18
263.0,0.0,0.0,0.0,0.0,0.0,0.0,0.005311314482241869,0.001028684200718999,-0.0033594444394111633,1.0,-8.673617379884035e-19,5.421010862427522e-20,-8.978549240895584e-20
264.0,0.0,0.0,0.0,0.0,0.0,0.0,0.008819413371384144,-0.0016545779071748257,-0.004629775881767273,1.0,8.673617379884035e-19,1.3552527156068805e-20,-3.31105179081706e-18
265.0,0.0,0.0,0.0,0.0,0.0,0.0,0.010237487033009529,0.0002922720741480589,-0.006379672791808844,1.0,-2.6020852139652106e-18,6.776263578034403e-21,2.445913514315199e-18
266.0,0.0,0.0,0.0,0.0,0.0,0.0,0.007385843433439732,0.004030359908938408,-0.0068576158955693245,1.0,-1.734723475976807e-18,5.421010862427522e-20,-1.7747457827345728e-18
267.0,0.0,0.0,0.0,0.0,0.0,0.0,0.004565716255456209,0.004456984810531139,-0.004254004918038845,1.0,-8.673617379884035e-19,0.0,1.0028870095490916e-18
268.0,0.0,0.0,0.0,0.0,0.0,0.0,0.0014063509879633784,0.009071278385818005,-0.004513944499194622,1.0,0.0,1.3552527156068805e-20,-1.9015889665859043e-18
269.0,0.0,0.0,0.0,0.0,0.0,0.0,-0.0034628810826689005,0.016626344993710518,-0.002503426745533943,1.0,0.0,-4.0657581468206416e-20,1.2377268941753464e-18
270.0,0.0,0.0,0.0,0.0,0.0,0.0,-0.005930430721491575,0.02155398018658161,-0.002732653869315982,1.0,1.734723475976807e-18,-1.3552527156068805e-20,-7.394597629530042e-19
271.0,0.0,0.0,0.0,0.0,0.0,0.0,-0.0038551476318389177,0.01594853401184082,-0.0050600748509168625,1.0,8.673617379884035e-19,-2.710505431213761e-20,5.014435047745458e-19
272.0,0.0,0.0,0.0,0.0,0.0,0.0,0.0013438755413517356,0.0034130816347897053,-0.004346002358943224,1.0,2.6020852139652106e-18,-1.0842021724855044e-19,-1.9312351197398048e-19
273.0,0.0,0.0,0.0,0.0,0.0,0.0,0.00046602889779023826,0.002383211860433221,-0.007549348287284374,1.0,0.0,5.421010862427522e-20,8.792201992499638e-19
274.0,0.0,0.0,0.0,0.0,0.0,0.0,-0.00012554327258840203,0.011865485459566116,-0.00470521068200469,1.0,-1.734723475976807e-18,0.0,1.3129010682441655e-18
275.0,0.0,0.0,0.0,0.0,0.0,0.0,0.009214804507791996,0.005622138734906912,0.003459364641457796,1.0,8.673617379884035e-19,-1.0842021724855044e-19,5.624298769768554e-19
276.0,0.0,0.0,0.0,0.0,0.0,0.0,0.012035811319947243,-0.006848433054983616,0.0058930739760398865,1.0,1.734723475976807e-18,-1.0842021724855044e-19,-1.0401564592282808e-18
277.0,0.0,0.0,0.0,0.0,0.0,0.0,0.0102146090939641,-0.0036968737840652466,0.005767342634499073,1.0,-1.734723475976807e-18,0.0,3.6591823321385775e-19
278.0,0.0,0.0,0.0,0.0,0.0,0.0,0.006686225067824125,0.003656277898699045,0.0037434448022395372,1.0,-8.673617379884035e-19,2.168404344971009e-19,-1.0706496453294356e-18
279.0,0.0,0.0,0.0,0.0,0.0,0.0,0.004705802537500858,0.007880063727498055,0.0032379422336816788,1.0,-8.673617379884035e-19,-1.0842021724855044e-19,1.378969638130001e-18
280.0,0.0,0.0,0.0,0.0,0.0,0.0,0.0030112466774880886,0.011589271016418934,0.004287938121706247,1.0,8.673617379884035e-19,0.0,1.5619287547369298e-18
281.0,0.0,0.0,0.0,0.0,0.0,0.0,0.003122176043689251,0.012826582416892052,0.00324277114123106,1.0,0.0,-2.168404344971009e-19,-5.692061405548898e-19
282.0,0.0,0.0,0.0,0.0,0.0,0.0,-0.0007023986545391381,0.015318566001951694,0.0009879362769424915,1.0,0.0,0.0,2.574980159653073e-19
283.0,0.0,0.0,0.0,0.0,0.0,0.0,-0.0015597696183249354,0.011256125755608082,-0.0005958142573945224,1.0,1.734723475976807e-18,0.0,-3.482999479109683e-18
284.0,0.0,0.0,0.0,0.0,0.0,0.0,0.0009146290831267834,0.0051050870679318905,-0.0009843497537076473,1.0,0.0,-4.336808689942018e-19,2.574980159653073e-19
285.0,0.0,0.0,0.0,0.0,0.0,0.0,-0.00013917121395934373,0.0036846871953457594,-0.003182746469974518,1.0,2.6020852139652106e-18,-8.673617379884035e-19,5.692061405548898e-19
286.0,0.0,0.0,0.0,0.0,0.0,0.0,0.0011472463374957442,0.0017940662801265717,-0.006384905893355608,1.0,-1.734723475976807e-18,0.0,1.6263032587282567e-19
287.0,0.0,0.0,0.0,0.0,0.0,0.0,0.0027221187483519316,-0.0007769896765239537,-0.0051719616167247295,1.0,0.0,8.673617379884035e-19,-3.604972223514302e-18
288.0,0.0,0.0,0.0,0.0,0.0,0.0,0.001994399121031165,-0.003668226534500718,-0.0038175522349774837,1.0,8.673617379884035e-19,-8.673617379884035e-19,1.6263032587282567e-19
289.0,0.0,0.0,0.0,0.0,0.0,0.0,0.005558594595640898,-0.00565381022170186,-0.006356107536703348,1.0,8.673617379884035e-19,-8.673617379884035e-19,-6.640738306473715e-19
290.0,0.0,0.0,0.0,0.0,0.0,0.0,0.010084575973451138,-0.012644975446164608,-0.0075168670155107975,1.0,-4.336808689942018e-19,8.673617379884035e-19,-7.182839392716467e-19
291.0,0.0,0.0,0.0,0.0,0.0,0.0,0.008088832721114159,-0.011992398649454117,-0.003720072330906987,1.0,4.336808689942018e-19,-1.734723475976807e-18,-4.472333961502706e-19
292.0,0.0,0.0,0.0,0.0,0.0,0.0,0.005465684458613396,-0.014035290107131004,-0.004952176474034786,1.0,8.673617379884035e-19,1.734723475976807e-18,-1.6263032587282567e-18
293.0,0.0,0.0,0.0,0.0,0.0,0.0,-0.0008640987216494977,-0.015285938046872616,-0.0063295322470366955,1.0,2.168404344971009e-19,3.469446951953614e-18,1.5585406229479126e-19
294.0,0.0,0.0,0.0,0.0,0.0,0.0,-0.0026166941970586777,-0.015166877768933773,-0.00847926177084446,1.0,-2.0328790734103208e-19,0.0,2.3541163186565142e-18
295.0,0.0,0.0,0.0,0.0,0.0,0.0,-0.006302935071289539,-0.009265152737498283,-0.004466844256967306,1.0,0.0,0.0,-2.3445871979999033e-18
296.0,0.0,0.0,0.0,0.0,0.0,0.0,-0.004411547444760799,-0.007249168585985899,-0.007773115299642086,1.0,4.336808689942018e-19,0.0,1.4094628242311558e-18
297.0,0.0,0.0,0.0,0.0,0.0,0.0,0.0007861747872084379,-0.013139192946255207,-0.00941930990666151,1.0,-8.673617379884035e-19,1.734723475976807e-18,2.574980159653073e-18
298.0,0.0,0.0,0.0,0.0,0.0,0.0,0.007020981051027775,-0.02155209891498089,-0.008467298932373524,1.0,8.673617379884035e-19,3.469446951953614e-18,3.903127820947816e-18
299.0,0.0,0.0,0.0,0.0,0.0,0.0,0.017074478790163994,-0.02835915982723236,0.001627040095627308,1.0,-1.734723475976807e-18,-1.734723475976807e-18,-8.673617379884035e-19
300.0,0.0,0.0,0.0,0.0,0.0,0.0,0.020780494436621666,-0.03848875313997269,0.015022273175418377,1.0,-3.469446951953614e-18,0.0,-5.041540102057596e-18
301.0,0.0,0.0,0.0,0.0,0.0,0.0,0.021075481548905373,-0.0472380630671978,0.010157679207623005,1.0,1.734723475976807e-18,0.0,2.710505431213761e-18
302.0,0.0,0.0,0.0,0.0,0.0,0.0,0.01269395463168621,-0.05412199720740318,0.003405490191653371,1.0,0.0,0.0,7.589415207398531e-19
303.0,0.0,0.0,0.0,0.0,0.0,0.0,0.0027089612558484077,-0.04966558516025543,0.0015501570887863636,1.0,1.734723475976807e-18,1.734723475976807e-18,4.553649124439119e-18
304.0,0.0,0.0,0.0,0.0,0.0,0.0,-0.012122854590415955,-0.03541022166609764,0.0071973917074501514,1.0,-1.734723475976807e-18,0.0,-7.15573433840433e-18
305.0,0.0,0.0,0.0,0.0,0.0,0.0,-0.014061179012060165,-0.024554798379540443,0.011376761831343174,1.0,0.0,3.469446951953614e-18,6.179952383167375e-18
306.0,0.0,0.0,0.0,0.0,0.0,0.0,-0.013465684838593006,-0.01836659200489521,0.007898191921412945,1.0,0.0,-1.734723475976807e-18,3.903127820947816e-18
307.0,0.0,0.0,0.0,0.0,0.0,0.0,-0.01097863633185625,-0.014030283316969872,0.007576939184218645,1.0,-1.734723475976807e-18,-1.734723475976807e-18,-2.168404344971009e-19
308.0,0.0,0.0,0.0,0.0,0.0,0.0,-0.011732925660908222,-0.010688889771699905,0.009208566509187222,1.0,0.0,3.469446951953614e-18,3.0357660829594124e-18
309.0,0.0,0.0,0.0,0.0,0.0,0.0,-0.005958939902484417,-0.013102682307362556,0.005238676909357309,1.0,-1.734723475976807e-18,1.734723475976807e-18,-1.5178830414797062e-18
310.0,0.0,0.0,0.0,0.0,0.0,0.0,-0.004131448455154896,-0.01564897410571575,0.005256041418761015,1.0,3.469446951953614e-18,8.673617379884035e-19,2.222614453595284e-18
311.0,0.0,0.0,0.0,0.0,0.0,0.0,-0.005327918566763401,-0.021390054374933243,0.001279211021028459,1.0,-1.734723475976807e-18,8.673617379884035e-19,-8.131516293641283e-19
312.0,0.0,0.0,0.0,0.0,0.0,0.0,-0.007356973830610514,-0.02536695823073387,-0.004956621211022139,1.0,-1.734723475976807e-18,0.0,7.860465750519907e-18
313.0,0.0,0.0,0.0,0.0,0.0,0.0,-0.0056452201679348946,-0.022501032799482346,-0.0046448190696537495,1.0,1.734723475976807e-18,1.734723475976807e-18,1.6263032587282567e-19
314.0,0.0,0.0,0.0,0.0,0.0,0.0,-0.0012380668194964528,-0.01507570967078209,-0.005559819284826517,1.0,-3.469446951953614e-18,-8.673617379884035e-19,-3.3068166260807885e-18
315.0,0.0,0.0,0.0,0.0,0.0,0.0,0.0036030372139066458,-0.015045159496366978,-0.0058775488287210464,1.0,-1.734723475976807e-18,-4.336808689942018e-19,-1.599198204416119e-18
316.0,0.0,0.0,0.0,0.0,0.0,0.0,0.006693415343761444,-0.015263278968632221,-0.002077410463243723,1.0,1.734723475976807e-18,1.3010426069826053e-18,1.328147661294743e-18
317.0,0.0,0.0,0.0,0.0,0.0,0.0,0.007570589892566204,-0.01488353218883276,-0.0018708062125369906,1.0,-1.734723475976807e-18,4.336808689942018e-19,6.505213034913027e-19
318.0,0.0,0.0,0.0,0.0,0.0,0.0,0.006447555497288704,-0.013025193475186825,-0.0012480356963351369,1.0,0.0,-8.673617379884035e-19,-8.673617379884035e-19
319.0,0.0,0.0,0.0,0.0,0.0,0.0,0.0061914948746562,-0.013727247714996338,-0.006759234704077244,1.0,-6.938893903907228e-18,-2.168404344971009e-19,-2.0057740190981832e-18
320.0,0.0,0.0,0.0,0.0,0.0,0.0,0.00495105842128396,-0.013750573620200157,-0.005279127508401871,1.0,-3.469446951953614e-18,2.168404344971009e-19,1.599198204416119e-18
321.0,0.0,0.0,0.0,0.0,0.0,0.0,0.005145718343555927,-0.008379432372748852,0.0017944243736565113,1.0,-1.734723475976807e-18,-3.2526065174565133e-19,-1.7584403984999275e-18
322.0,0.0,0.0,0.0,0.0,0.0,0.0,0.003335692686960101,-0.007140118163079023,-0.003399863839149475,1.0,3.469446951953614e-18,-2.168404344971009e-19,-2.944286524655948e-18
323.0,0.0,0.0,0.0,0.0,0.0,0.0,0.006274547893553972,-0.004654043819755316,-0.0012662720400840044,1.0,0.0,0.0,2.507217523872729e-18
324.0,0.0,0.0,0.0,0.0,0.0,0.0,0.00981429498642683,-0.001159809296950698,-0.0031348378397524357,1.0,-1.734723475976807e-18,-4.336808689942018e-19,-1.8973538018496328e-19
325.0,0.0,0.0,0.0,0.0,0.0,0.0,0.008838288486003876,-0.002419842407107353,-0.0021753786131739616,1.0,1.734723475976807e-18,-4.336808689942018e-19,6.2341624917916505e-19
326.0,0.0,0.0,0.0,0.0,0.0,0.0,0.007354718167334795,-0.005377981346100569,-0.0046493252739310265,1.0,-1.734723475976807e-18,8.673617379884035e-19,-5.421010862427522e-20
327.0,0.0,0.0,0.0,0.0,0.0,0.0,0.0055669983848929405,-0.0015406523598358035,-0.0028697967063635588,1.0,1.734723475976807e-18,0.0,2.0057740190981832e-18
328.0,0.0,0.0,0.0,0.0,0.0,0.0,0.002976826159283519,0.0010643262648954988,-0.004001209512352943,1.0,1.734723475976807e-18,0.0,3.198396408832238e-18
329.0,0.0,0.0,0.0,0.0,0.0,0.0,-0.00121303740888834,-0.0005656651919707656,-0.0031630194280296564,1.0,-3.469446951953614e-18,0.0,-1.0842021724855044e-18
330.0,0.0,0.0,0.0,0.0,0.0,0.0,0.0022505978122353554,0.0016329175559803843,-0.0018029430648311973,1.0,0.0,0.0,1.734723475976807e-18
331.0,0.0,0.0,0.0,0.0,0.0,0.0,0.0011066143633797765,0.007418530061841011,-0.004438729491084814,1.0,3.469446951953614e-18,1.734723475976807e-18,2.0599841277224584e-18
332.0,0.0,0.0,0.0,0.0,0.0,0.0,-0.0015866155736148357,0.006836832966655493,-0.007375077810138464,1.0,-5.204170427930421e-18,1.734723475976807e-18,-1.734723475976807e-18
333.0,0.0,0.0,0.0,0.0,0.0,0.0,0.0019093869486823678,0.003359119175001979,-0.0012184818042442203,1.0,-1.734723475976807e-18,-1.734723475976807e-18,2.3852447794681098e-18
334.0,0.0,0.0,0.0,0.0,0.0,0.0,0.0016364770708605647,0.0021054870449006557,-0.0018416204256936908,1.0,0.0,0.0,-8.673617379884035e-19
335.0,0.0,0.0,0.0,0.0,0.0,0.0,-0.0024213341530412436,0.008174188435077667,0.0026425861287862062,1.0,0.0,-3.469446951953614e-18,-4.336808689942018e-18
336.0,0.0,0.0,0.0,0.0,0.0,0.0,-0.0038443508092314005,0.006950359791517258,0.0022935906890779734,1.0,-1.734723475976807e-18,-1.734723475976807e-18,8.673617379884035e-19
337.0,0.0,0.0,0.0,0.0,0.0,0.0,0.002938243793323636,0.008764848113059998,0.002990668173879385,1.0,0.0,0.0,4.87890977618477e-19
338.0,0.0,0.0,0.0,0.0,0.0,0.0,0.004295666702091694,0.00844233576208353,0.0024434123188257217,1.0,0.0,0.0,1.1926223897340549e-18
339.0,0.0,0.0,0.0,0.0,0.0,0.0,0.003017414128407836,0.011867964640259743,0.002402805956080556,1.0,0.0,0.0,1.8431436932253575e-18
340.0,0.0,0.0,0.0,0.0,0.0,0.0,-0.0011784193338826299,0.011732134036719799,0.007335873320698738,1.0,-1.734723475976807e-18,0.0,1.0842021724855044e-18
341.0,0.0,0.0,0.0,0.0,0.0,0.0,3.863369420287199e-05,0.0051855542697012424,0.008881636895239353,1.0,1.734723475976807e-18,4.336808689942018e-19,-5.014435047745458e-18
342.0,0.0,0.0,0.0,0.0,0.0,0.0,0.0029391529969871044,-0.001759704784490168,0.007369066122919321,1.0,0.0,-2.168404344971009e-19,-3.23227772672241e-18
343.0,0.0,0.0,0.0,0.0,0.0,0.0,0.007488966453820467,-0.007220213767141104,0.010074938647449017,1.0,1.734723475976807e-18,1.0842021724855044e-19,4.712891318522927e-18
344.0,0.0,0.0,0.0,0.0,0.0,0.0,0.013070936314761639,-0.009009662084281445,0.013886230066418648,1.0,-1.734723475976807e-18,-4.336808689942018e-19,-3.754050022231059e-18
345.0,0.0,0.0,0.0,0.0,0.0,0.0,0.019023530185222626,-0.012440319173038006,0.009186451323330402,1.0,1.734723475976807e-18,0.0,1.0570971181733668e-18
346.0,0.0,0.0,0.0,0.0,0.0,0.0,0.019406558945775032,-0.018954267725348473,0.00786938238888979,1.0,3.469446951953614e-18,-1.734723475976807e-18,-4.1470733097570545e-18
347.0,0.0,0.0,0.0,0.0,0.0,0.0,0.014814338646829128,-0.026965530589222908,0.006201897282153368,1.0,0.0,1.734723475976807e-18,2.8189256484623115e-18
348.0,0.0,0.0,0.0,0.0,0.0,0.0,0.00637885881587863,-0.030139151960611343,-0.00108128332067281,1.0,1.734723475976807e-18,0.0,4.7704895589362195e-18
349.0,0.0,0.0,0.0,0.0,0.0,0.0,0.013546284288167953,-0.024017486721277237,0.008462894707918167,1.0,1.734723475976807e-18,2.6020852139652106e-18,2.710505431213761e-18
350.0,0.0,0.0,0.0,0.0,0.0,0.0,0.01682639680802822,-0.02040248177945614,0.008781220763921738,1.0,0.0,0.0,-1.3552527156068805e-18
351.0,0.0,0.0,0.0,0.0,0.0,0.0,0.017842788249254227,-0.029900040477514267,-0.012521539814770222,1.0,1.734723475976807e-18,1.734723475976807e-18,5.963111948670274e-19
352.0,0.0,0.0,0.0,0.0,0.0,0.0,0.008623134344816208,-0.029533548280596733,-0.018251022323966026,1.0,-1.734723475976807e-18,0.0,-3.2526065174565133e-19
353.0,0.0,0.0,0.0,0.0,0.0,0.0,0.014583406038582325,-0.02858871780335903,-0.022013140842318535,1.0,-3.469446951953614e-18,0.0,-1.1926223897340549e-18
354.0,0.0,0.0,0.0,0.0,0.0,0.0,0.017288953065872192,-0.03414952754974365,-0.025504743680357933,1.0,0.0,0.0,4.336808689942018e-19
355.0,0.0,0.0,0.0,0.0,0.0,0.0,0.04042937606573105,-0.0543644092977047,-0.004867913201451302,1.0,-6.938893903907228e-18,1.734723475976807e-18,2.168404344971009e-18
356.0,0.0,0.0,0.0,0.0,0.0,0.0,0.02985122799873352,-0.05264749377965927,-0.0008675825083628297,1.0,-3.469446951953614e-18,0.0,1.1926223897340549e-18
357.0,0.0,0.0,0.0,0.0,0.0,0.0,-0.00033147618523798883,-0.044747911393642426,-0.017589958384633064,1.0,-3.469446951953614e-18,-3.469446951953614e-18,-1.6263032587282567e-18
358.0,0.0,0.0,0.0,0.0,0.0,0.0,0.018319787457585335,-0.04587271809577942,0.004592448938637972,1.0,1.0408340855860843e-17,0.0,1.0842021724855044e-19
359.0,0.0,0.0,0.0,0.0,0.0,0.0,0.0347956083714962,-0.039767295122146606,0.00614033080637455,1.0,3.469446951953614e-18,5.204170427930421e-18,2.0599841277224584e-18
360.0,0.0,0.0,0.0,0.0,0.0,0.0,-0.002277082297950983,-0.034007325768470764,-0.0036151029635220766,1.0,-3.469446951953614e-18,0.0,-2.168404344971009e-19
361.0,0.0,0.0,0.0,0.0,0.0,0.0,0.003261266741901636,-0.02996532805263996,-0.004927370697259903,1.0,-3.469446951953614e-18,-3.469446951953614e-18,-2.168404344971009e-18
362.0,0.0,0.0,0.0,0.0,0.0,0.0,-0.0013157278299331665,-0.02409502863883972,-0.004262696020305157,1.0,0.0,1.734723475976807e-18,2.168404344971009e-19
363.0,0.0,0.0,0.0,0.0,0.0,0.0,-0.01091216690838337,-0.018886927515268326,-0.006444951985031366,1.0,0.0,0.0,2.168404344971009e-19
364.0,0.0,0.0,0.0,0.0,0.0,0.0,-0.00990258902311325,-0.014043964445590973,-0.007255119737237692,1.0,3.469446951953614e-18,3.469446951953614e-18,-2.168404344971009e-19
365.0,0.0,0.0,0.0,0.0,0.0,0.0,-0.009467349387705326,-0.0034084476064890623,-0.010641049593687057,1.0,-1.0408340855860843e-17,0.0,-4.336808689942018e-19
366.0,0.0,0.0,0.0,0.0,0.0,0.0,-0.01127871684730053,0.008937347680330276,-0.011255104094743729,1.0,-1.0408340855860843e-17,8.673617379884035e-19,4.336808689942018e-19
367.0,0.0,0.0,0.0,0.0,0.0,0.0,-0.02236616052687168,0.018264027312397957,-0.008336161263287067,1.0,6.938893903907228e-18,0.0,0.0
368.0,0.0,0.0,0.0,0.0,0.0,0.0,-0.027478398755192757,0.011500314809381962,-0.0034842845052480698,1.0,-6.938893903907228e-18,-1.734723475976807e-18,-8.673617379884035e-19
369.0,0.0,0.0,0.0,0.0,0.0,0.0,-0.020470978692173958,0.0005552184302359819,0.0037328607868403196,1.0,0.0,4.336808689942018e-19,-9.75781955236954e-19
370.0,0.0,0.0,0.0,0.0,0.0,0.0,-0.017714517191052437,0.0033770634327083826,0.005810128524899483,1.0,1.3877787807814457e-17,-1.0842021724855044e-19,-1.4907779871675686e-19
371.0,0.0,0.0,0.0,0.0,0.0,0.0,-0.018123941496014595,0.010610760189592838,0.0007794925477355719,1.0,2.0816681711721685e-17,-1.0842021724855044e-19,1.3145951341386741e-18
372.0,0.0,0.0,0.0,0.0,0.0,0.0,-0.014912132173776627,0.01320998091250658,-0.004425332881510258,1.0,0.0,-2.168404344971009e-19,-2.710505431213761e-19
373.0,0.0,0.0,0.0,0.0,0.0,0.0,-0.006265875417739153,0.002185724675655365,0.0008707775850780308,1.0,0.0,-4.336808689942018e-19,-1.0299920638612292e-18
374.0,0.0,0.0,0.0,0.0,0.0,0.0,0.0023747861851006746,-0.009330471977591515,0.013540069572627544,1.0,-3.469446951953614e-18,0.0,-3.63207727782644e-18
375.0,0.0,0.0,0.0,0.0,0.0,0.0,-0.006109930574893951,-0.0036496766842901707,0.012411581352353096,1.0,-6.938893903907228e-18,0.0,1.8431436932253575e-18
376.0,0.0,0.0,0.0,0.0,0.0,0.0,-0.015361896716058254,0.00768775399774313,0.006160121411085129,1.0,0.0,-8.673617379884035e-19,2.168404344971009e-19
377.0,0.0,0.0,0.0,0.0,0.0,0.0,-0.01827230118215084,0.009808339178562164,0.013194321654736996,1.0,-6.938893903907228e-18,0.0,2.2768245622195593e-18
378.0,0.0,0.0,0.0,0.0,0.0,0.0,-0.018300333991646767,0.005148479249328375,0.011232142336666584,1.0,0.0,0.0,1.734723475976807e-18
379.0,0.0,0.0,0.0,0.0,0.0,0.0,-0.0177458468824625,-0.002516068983823061,0.0090900007635355,1.0,3.469446951953614e-18,0.0,1.8431436932253575e-18
380.0,0.0,0.0,0.0,0.0,0.0,0.0,-0.00489739840850234,-0.00678615365177393,0.01050032489001751,1.0,-1.0408340855860843e-17,5.204170427930421e-18,-2.8189256484623115e-18
381.0,0.0,0.0,0.0,0.0,0.0,0.0,0.007198336999863386,-0.009589486755430698,0.005964408628642559,1.0,3.469446951953614e-18,0.0,-2.3852447794681098e-18
382.0,0.0,0.0,0.0,0.0,0.0,0.0,0.013276690617203712,-0.003977187443524599,0.007345067802816629,1.0,0.0,0.0,-2.8189256484623115e-18
383.0,0.0,0.0,0.0,0.0,0.0,0.0,0.010020388290286064,-0.0026717367582023144,0.006356459576636553,1.0,3.469446951953614e-18,-1.734723475976807e-18,-3.469446951953614e-18
384.0,0.0,0.0,0.0,0.0,0.0,0.0,0.0068892245180904865,-0.005838809069246054,-0.00010153585026273504,1.0,0.0,0.0,4.553649124439119e-18
385.0,0.0,0.0,0.0,0.0,0.0,0.0,0.029352771118283272,-0.01889185979962349,0.007182258181273937,1.0,3.469446951953614e-18,0.0,1.6263032587282567e-18
386.0,0.0,0.0,0.0,0.0,0.0,0.0,0.03774072974920273,-0.012506927363574505,0.019160088151693344,1.0,0.0,0.0,2.927345865710862e-18
387.0,0.0,0.0,0.0,0.0,0.0,0.0,0.028410404920578003,-0.004219630733132362,0.006600174121558666,1.0,1.734723475976807e-18,-3.469446951953614e-18,5.421010862427522e-19
388.0,0.0,0.0,0.0,0.0,0.0,0.0,0.00940198078751564,0.001757088815793395,-0.0034265927970409393,1.0,3.469446951953614e-18,-1.734723475976807e-18,4.336808689942018e-19
389.0,0.0,0.0,0.0,0.0,0.0,0.0,0.0059484331868588924,0.0021842995192855597,0.0027190919499844313,1.0,-1.734723475976807e-18,-1.734723475976807e-18,1.3010426069826053e-18
390.0,0.0,0.0,0.0,0.0,0.0,0.0,0.0030898768454790115,0.007277956698089838,0.009149568155407906,1.0,3.469446951953614e-18,-1.734723475976807e-18,9.75781955236954e-19
391.0,0.0,0.0,0.0,0.0,0.0,0.0,-0.008645502850413322,0.01162740308791399,-0.010797536931931973,1.0,5.204170427930421e-18,0.0,8.673617379884035e-19
392.0,0.0,0.0,0.0,0.0,0.0,0.0,-0.003522755578160286,0.01594522036612034,-0.016275009140372276,1.0,-1.734723475976807e-18,0.0,-2.168404344971009e-19
393.0,0.0,0.0,0.0,0.0,0.0,0.0,0.018023280426859856,0.02002773992717266,-0.011898059397935867,1.0,3.469446951953614e-18,-5.204170427930421e-18,0.0
394.0,0.0,0.0,0.0,0.0,0.0,0.0,0.014258534647524357,0.019461320713162422,-0.024324944242835045,1.0,0.0,-8.673617379884035e-19,1.6263032587282567e-19
395.0,0.0,0.0,0.0,0.0,0.0,0.0,0.01191924698650837,0.00602973997592926,-0.02987399883568287,1.0,-1.734723475976807e-18,8.673617379884035e-19,7.860465750519907e-19
396.0,0.0,0.0,0.0,0.0,0.0,0.0,0.01545452419668436,0.003106586867943406,-0.01793363131582737,1.0,1.734723475976807e-18,2.168404344971009e-19,-2.574980159653073e-19
397.0,0.0,0.0,0.0,0.0,0.0,0.0,0.00711135845631361,0.006254306063055992,-0.010392236523330212,1.0,1.734723475976807e-18,-1.0842021724855044e-19,9.41900637346782e-19
398.0,0.0,0.0,0.0,0.0,0.0,0.0,-0.0019758357666432858,0.01241278275847435,-0.005111093632876873,1.0,3.469446951953614e-18,1.3010426069826053e-18,-5.692061405548898e-19
399.0,0.0,0.0,0.0,0.0,0.0,0.0,-0.0009708069264888763,0.018502796068787575,0.003332275664433837,1.0,-1.734723475976807e-18,0.0,6.2341624917916505e-19
400.0,0.0,0.0,0.0,0.0,0.0,0.0,-0.005751986522227526,0.01150191854685545,0.007981790229678154,1.0,0.0,0.0,-7.589415207398531e-19
401.0,0.0,0.0,0.0,0.0,0.0,0.0,-0.008834107778966427,0.008338316343724728,0.016965344548225403,1.0,3.469446951953614e-18,0.0,5.963111948670274e-19
402.0,0.0,0.0,0.0,0.0,0.0,0.0,-0.0037463298067450523,0.0036550406366586685,0.00337922852486372,1.0,-1.734723475976807e-18,-8.673617379884035e-19,9.75781955236954e-19
403.0,0.0,0.0,0.0,0.0,0.0,0.0,-0.009591026231646538,0.006415482610464096,0.007013699039816856,1.0,-1.734723475976807e-18,8.673617379884035e-19,-1.0299920638612292e-18
404.0,0.0,0.0,0.0,0.0,0.0,0.0,-0.013868614099919796,0.01136425044387579,0.012553323991596699,1.0,-1.734723475976807e-18,1.734723475976807e-18,-3.2526065174565133e-19
405.0,0.0,0.0,0.0,0.0,0.0,0.0,-0.026634560897946358,0.013757610693573952,0.0058387331664562225,1.0,5.204170427930421e-18,3.469446951953614e-18,-1.5178830414797062e-18
406.0,0.0,0.0,0.0,0.0,0.0,0.0,-0.028458913788199425,0.0031845448538661003,-0.002267670352011919,1.0,0.0,1.734723475976807e-18,-1.0842021724855044e-18
407.0,0.0,0.0,0.0,0.0,0.0,0.0,-0.021483371034264565,-0.00869189202785492,-0.012551110237836838,1.0,-1.734723475976807e-18,1.734723475976807e-18,-1.1926223897340549e-18
408.0,0.0,0.0,0.0,0.0,0.0,0.0,-0.024867866188287735,-0.009958072565495968,-0.01315546128898859,1.0,-1.734723475976807e-18,0.0,-1.4094628242311558e-18
409.0,0.0,0.0,0.0,0.0,0.0,0.0,-0.017196310684084892,-0.010041679255664349,-0.018284553661942482,1.0,1.734723475976807e-18,0.0,-1.734723475976807e-18
410.0,0.0,0.0,0.0,0.0,0.0,0.0,0.009680562652647495,-0.017187129706144333,-0.001289751147851348,1.0,0.0,0.0,-8.131516293641283e-19
411.0,0.0,0.0,0.0,0.0,0.0,0.0,0.01184645015746355,-0.024395335465669632,-0.003320057177916169,1.0,0.0,0.0,2.6020852139652106e-18
412.0,0.0,0.0,0.0,0.0,0.0,0.0,-0.00461603095754981,-0.024869926273822784,-0.012769775465130806,1.0,1.734723475976807e-18,1.734723475976807e-18,1.3010426069826053e-18
413.0,0.0,0.0,0.0,0.0,0.0,0.0,-0.011464775539934635,-0.023318327963352203,-0.01491585187613964,1.0,-1.734723475976807e-18,0.0,-5.421010862427522e-20
414.0,0.0,0.0,0.0,0.0,0.0,0.0,-0.003035982372239232,-0.02374980039894581,-0.012397577054798603,1.0,1.734723475976807e-18,8.673617379884035e-19,2.8189256484623115e-18
415.0,0.0,0.0,0.0,0.0,0.0,0.0,0.008680070750415325,-0.017782265320420265,-0.015792790800333023,1.0,3.469446951953614e-18,4.336808689942018e-19,6.911788849595091e-19
416.0,0.0,0.0,0.0,0.0,0.0,0.0,0.010154667310416698,-0.018987411633133888,-0.011466686613857746,1.0,1.734723475976807e-18,4.336808689942018e-19,-1.531435568635775e-18
417.0,0.0,0.0,0.0,0.0,0.0,0.0,0.01471786666661501,-0.020908700302243233,-0.003288517240434885,1.0,1.734723475976807e-18,0.0,5.759824041329242e-20
418.0,0.0,0.0,0.0,0.0,0.0,0.0,0.013182584196329117,-0.018839403986930847,0.0043112607672810555,1.0,-8.673617379884035e-18,0.0,-1.3552527156068805e-20
419.0,0.0,0.0,0.0,0.0,0.0,0.0,0.006954281125217676,-0.012280280701816082,0.0021460719872266054,1.0,-3.469446951953614e-18,0.0,-1.1655173354219173e-18
420.0,0.0,0.0,0.0,0.0,0.0,0.0,0.0011081998236477375,-0.0038827043026685715,-0.0035017719492316246,1.0,3.469446951953614e-18,0.0,5.421010862427522e-20
421.0,0.0,0.0,0.0,0.0,0.0,0.0,0.0036309780552983284,-0.003370049875229597,0.0015107746003195643,1.0,-6.938893903907228e-18,0.0,-6.505213034913027e-19
422.0,0.0,0.0,0.0,0.0,0.0,0.0,0.014016766101121902,-0.006376686040312052,0.005434795748442411,1.0,0.0,-1.734723475976807e-18,-1.3010426069826053e-18
423.0,0.0,0.0,0.0,0.0,0.0,0.0,0.018652381375432014,-0.0038833527360111475,0.005292793735861778,1.0,0.0,-5.204170427930421e-18,6.505213034913027e-19
424.0,0.0,0.0,0.0,0.0,0.0,0.0,0.012431126087903976,0.00253724935464561,0.006722277496010065,1.0,0.0,0.0,0.0
425.0,0.0,0.0,0.0,0.0,0.0,0.0,0.005387124605476856,0.0009947512298822403,-0.003853130852803588,1.0,3.469446951953614e-18,-5.204170427930421e-18,1.0842021724855044e-19
426.0,0.0,0.0,0.0,0.0,0.0,0.0,0.01949179731309414,-0.003278320888057351,0.0017205667681992054,1.0,3.469446951953614e-18,-1.734723475976807e-18,0.0
427.0,0.0,0.0,0.0,0.0,0.0,0.0,0.017741119489073753,-0.006429935805499554,0.002042548730969429,1.0,0.0,1.734723475976807e-18,-2.168404344971009e-19
428.0,0.0,0.0,0.0,0.0,0.0,0.0,0.015340426005423069,-0.0012864057207480073,0.0006084920605644584,1.0,3.469446951953614e-18,0.0,0.0
429.0,0.0,0.0,0.0,0.0,0.0,0.0,0.017190061509609222,-0.00278458371758461,-0.003212864976376295,1.0,0.0,0.0,0.0
430.0,0.0,0.0,0.0,0.0,0.0,0.0,0.013484809547662735,-0.0005262324120849371,-0.001724242465570569,1.0,0.0,-3.469446951953614e-18,6.505213034913027e-19
431.0,0.0,0.0,0.0,0.0,0.0,0.0,0.007224450819194317,0.009813828393816948,0.0003074379055760801,1.0,3.469446951953614e-18,-3.469446951953614e-18,4.336808689942018e-19
432.0,0.0,0.0,0.0,0.0,0.0,0.0,0.005835891701281071,0.019609998911619186,0.0032789530232548714,1.0,-6.938893903907228e-18,0.0,4.336808689942018e-19
433.0,0.0,0.0,0.0,0.0,0.0,0.0,0.0038669544737786055,0.027163907885551453,0.006962439510971308,1.0,3.469446951953614e-18,3.469446951953614e-18,-4.336808689942018e-19
434.0,0.0,0.0,0.0,0.0,0.0,0.0,0.006936550140380859,0.03303228318691254,0.012910966761410236,1.0,6.938893903907228e-18,3.469446951953614e-18,-1.0842021724855044e-18
435.0,0.0,0.0,0.0,0.0,0.0,0.0,0.011533612385392189,0.031696781516075134,0.01741204969584942,1.0,0.0,-3.469446951953614e-18,0.0
436.0,0.0,0.0,0.0,0.0,0.0,0.0,0.01434257160872221,0.03131919726729393,0.0194625873118639,1.0,-3.469446951953614e-18,0.0,2.168404344971009e-19
437.0,0.0,0.0,0.0,0.0,0.0,0.0,-0.001699805143289268,0.03432625159621239,0.016556669026613235,1.0,-1.734723475976807e-18,0.0,0.0
438.0,0.0,0.0,0.0,0.0,0.0,0.0,0.007693971507251263,0.025132859125733376,0.012827135622501373,1.0,-3.469446951953614e-18,3.469446951953614e-18,-2.2768245622195593e-18
439.0,0.0,0.0,0.0,0.0,0.0,0.0,0.014641978777945042,0.02574402093887329,0.013582175597548485,1.0,0.0,0.0,0.0
440.0,0.0,0.0,0.0,0.0,0.0,0.0,0.002283483510836959,0.023197948932647705,0.006855530198663473,1.0,1.734723475976807e-18,1.734723475976807e-18,5.421010862427522e-20
441.0,0.0,0.0,0.0,0.0,0.0,0.0,-0.009574748575687408,0.026408817619085312,0.004323507659137249,1.0,3.469446951953614e-18,0.0,1.0842021724855044e-19
442.0,0.0,0.0,0.0,0.0,0.0,0.0,-0.018474001437425613,0.024039288982748985,-0.009903697296977043,1.0,1.734723475976807e-18,8.673617379884035e-19,2.710505431213761e-20
443.0,0.0,0.0,0.0,0.0,0.0,0.0,-0.015662819147109985,0.014571444131433964,-0.017548473551869392,1.0,3.469446951953614e-18,0.0,-2.439454888092385e-19
444.0,0.0,0.0,0.0,0.0,0.0,0.0,-0.006005291361361742,0.009240050800144672,-0.01523116696625948,1.0,-8.673617379884035e-19,-2.168404344971009e-19,-2.303929616531697e-19
445.0,0.0,0.0,0.0,0.0,0.0,0.0,0.0017377912299707532,-0.00035122636472806334,-0.028495660051703453,1.0,-8.673617379884035e-19,0.0,-1.196010521523072e-18
446.0,0.0,0.0,0.0,0.0,0.0,0.0,0.015842119231820107,-0.006055592559278011,-0.01909533329308033,1.0,1.734723475976807e-18,-4.336808689942018e-19,-1.463672932855431e-18
447.0,0.0,0.0,0.0,0.0,0.0,0.0,0.024127671495079994,-0.012380532920360565,-0.008929318748414516,1.0,-8.673617379884035e-19,0.0,1.7076184216646695e-18
448.0,0.0,0.0,0.0,0.0,0.0,0.0,0.011198742315173149,-0.010716849006712437,-0.012920166365802288,1.0,-1.734723475976807e-18,-8.673617379884035e-19,1.0028870095490916e-18
449.0,0.0,0.0,0.0,0.0,0.0,0.0,-0.004299216438084841,-0.004631554242223501,-0.023368969559669495,1.0,0.0,0.0,-2.710505431213761e-19
450.0,0.0,0.0,0.0,0.0,0.0,0.0,-0.0007537112105637789,-0.0061958846636116505,-0.028722072020173073,1.0,-1.734723475976807e-18,-8.673617379884035e-19,-4.0657581468206416e-19
451.0,0.0,0.0,0.0,0.0,0.0,0.0,-0.0012328167213127017,-0.006166302133351564,-0.019249916076660156,1.0,-3.469446951953614e-18,0.0,1.1926223897340549e-18
452.0,0.0,0.0,0.0,0.0,0.0,0.0,0.017347892746329308,-0.015789609402418137,-0.00678979093208909,1.0,-1.734723475976807e-18,-1.734723475976807e-18,1.1384122811097797e-18
453.0,0.0,0.0,0.0,0.0,0.0,0.0,0.03523818403482437,-0.025335164740681648,0.011369765736162663,1.0,-5.204170427930421e-18,-8.673617379884035e-19,-2.927345865710862e-18
454.0,0.0,0.0,0.0,0.0,0.0,0.0,0.019777754321694374,-0.02273617312312126,0.007372434716671705,1.0,-3.469446951953614e-18,8.673617379884035e-19,2.3310346708438345e-18
455.0,0.0,0.0,0.0,0.0,0.0,0.0,0.018125848844647408,-0.028509443625807762,0.006681082770228386,1.0,0.0,-8.673617379884035e-19,4.0657581468206416e-19
456.0,0.0,0.0,0.0,0.0,0.0,0.0,0.01817665807902813,-0.02692372165620327,0.009530647657811642,1.0,0.0,-4.336808689942018e-19,1.7618285302889447e-18
457.0,0.0,0.0,0.0,0.0,0.0,0.0,0.0030394550412893295,-0.020589295774698257,0.0027750541921705008,1.0,-1.734723475976807e-18,-4.336808689942018e-19,-4.0657581468206416e-19
458.0,0.0,0.0,0.0,0.0,0.0,0.0,-0.005754736717790365,-0.016926662996411324,-0.006168727297335863,1.0,3.469446951953614e-18,-1.0842021724855044e-19,-3.2526065174565133e-19
459.0,0.0,0.0,0.0,0.0,0.0,0.0,-0.005077115260064602,-0.009538012556731701,-0.000450645515229553,1.0,-3.469446951953614e-18,-5.421010862427522e-20,2.5427929076574096e-18
460.0,0.0,0.0,0.0,0.0,0.0,0.0,-0.007231614086776972,-0.013179986737668514,0.003929115366190672,1.0,0.0,-4.336808689942018e-19,-5.014435047745458e-19
461.0,0.0,0.0,0.0,0.0,0.0,0.0,-0.0037110529374331236,-0.026395315304398537,0.013738696463406086,1.0,0.0,0.0,1.2197274440461925e-18
462.0,0.0,0.0,0.0,0.0,0.0,0.0,0.003908104728907347,-0.032375920563936234,0.017331646755337715,1.0,3.469446951953614e-18,0.0,-1.3010426069826053e-18
463.0,0.0,0.0,0.0,0.0,0.0,0.0,0.00774351367726922,-0.025156505405902863,0.026707179844379425,1.0,3.469446951953614e-18,-4.336808689942018e-19,1.5178830414797062e-18
464.0,0.0,0.0,0.0,0.0,0.0,0.0,0.011822935193777084,-0.01777837611734867,0.034080322831869125,1.0,1.734723475976807e-18,-1.734723475976807e-18,-1.1384122811097797e-18
465.0,0.0,0.0,0.0,0.0,0.0,0.0,0.0031205168925225735,-0.010444489307701588,0.020999956876039505,1.0,1.734723475976807e-18,0.0,7.047314121155779e-19
466.0,0.0,0.0,0.0,0.0,0.0,0.0,-0.0016786765772849321,-0.008870392106473446,0.016361746937036514,1.0,0.0,8.673617379884035e-19,1.6534083130403943e-18
467.0,0.0,0.0,0.0,0.0,0.0,0.0,0.0020894596818834543,-0.014093545265495777,0.014422312378883362,1.0,3.469446951953614e-18,0.0,2.981555974335137e-19
468.0,0.0,0.0,0.0,0.0,0.0,0.0,0.006340682972222567,-0.014551963657140732,0.018058056011795998,1.0,1.734723475976807e-18,0.0,-7.318364664277155e-19
469.0,0.0,0.0,0.0,0.0,0.0,0.0,0.009286534041166306,-0.01637682318687439,0.01215259451419115,1.0,8.673617379884035e-19,0.0,4.0657581468206416e-20
470.0,0.0,0.0,0.0,0.0,0.0,0.0,0.007046727929264307,-0.017456108704209328,0.005536637268960476,1.0,1.734723475976807e-18,-1.0842021724855044e-19,5.929230630780102e-19
471.0,0.0,0.0,0.0,0.0,0.0,0.0,0.00202550389803946,-0.01401128526777029,-0.00662967748939991,1.0,-4.336808689942018e-19,-5.421010862427522e-20,1.1612821706856458e-18
472.0,0.0,0.0,0.0,0.0,0.0,0.0,-0.003931593149900436,-0.00911083072423935,-0.012134085409343243,1.0,1.0842021724855044e-19,0.0,-1.3046424970084361e-18
473.0,0.0,0.0,0.0,0.0,0.0,0.0,-0.005809343419969082,-0.002307179616764188,-0.02772517316043377,1.0,2.168404344971009e-19,-4.336808689942018e-19,7.640237184233789e-19
474.0,0.0,0.0,0.0,0.0,0.0,0.0,-0.015166277065873146,0.00534837506711483,-0.030241886153817177,1.0,-8.673617379884035e-19,-4.336808689942018e-19,-1.2739375526704677e-18
475.0,0.0,0.0,0.0,0.0,0.0,0.0,-0.012138371355831623,0.0068703917786479,-0.028557339683175087,1.0,0.0,0.0,-1.0706496453294356e-18
476.0,0.0,0.0,0.0,0.0,0.0,0.0,0.0028195141348987818,0.010086463764309883,-0.035322293639183044,1.0,8.673617379884035e-19,1.734723475976807e-18,3.1170812458958252e-19
477.0,0.0,0.0,0.0,0.0,0.0,0.0,0.007955489680171013,0.008514625020325184,-0.030603770166635513,1.0,-8.673617379884035e-19,8.673617379884035e-19,-2.032879073410321e-18
478.0,0.0,0.0,0.0,0.0,0.0,0.0,0.005041988100856543,0.0077430675737559795,-0.020124148577451706,1.0,-8.673617379884035e-19,0.0,5.421010862427522e-19
479.0,0.0,0.0,0.0,0.0,0.0,0.0,0.00814144965261221,0.01665911264717579,-0.01769048348069191,1.0,-8.673617379884035e-19,8.673617379884035e-19,-6.2341624917916505e-19
480.0,0.0,0.0,0.0,0.0,0.0,0.0,0.008202356286346912,0.0214959979057312,-0.016801903024315834,1.0,-1.734723475976807e-18,0.0,-1.599198204416119e-18
481.0,0.0,0.0,0.0,0.0,0.0,0.0,-0.012847281992435455,0.021099835634231567,-0.01364871021360159,1.0,0.0,-8.673617379884035e-19,-1.4094628242311558e-18
482.0,0.0,0.0,0.0,0.0,0.0,0.0,-0.008269690908491611,0.018737487494945526,-0.009456345811486244,1.0,4.336808689942018e-19,8.673617379884035e-19,1.6263032587282567e-19
483.0,0.0,0.0,0.0,0.0,0.0,0.0,0.015152976848185062,0.0195101797580719,0.007286891341209412,1.0,-5.421010862427522e-20,0.0,1.7618285302889447e-19
484.0,0.0,0.0,0.0,0.0,0.0,0.0,0.005564553663134575,0.024459613487124443,0.009803527034819126,1.0,0.0,8.673617379884035e-19,-2.1141942363467336e-18
485.0,0.0,0.0,0.0,0.0,0.0,0.0,0.0026335911825299263,0.03622639551758766,0.007862687110900879,1.0,-4.336808689942018e-19,-3.469446951953614e-18,1.7618285302889447e-18
486.0,0.0,0.0,0.0,0.0,0.0,0.0,-0.0013417599257081747,0.046505317091941833,0.009068968705832958,1.0,0.0,-1.734723475976807e-18,7.318364664277155e-19
487.0,0.0,0.0,0.0,0.0,0.0,0.0,-0.008075252175331116,0.050198744982481,0.010829141363501549,1.0,0.0,1.734723475976807e-18,-3.333921680392926e-18
488.0,0.0,0.0,0.0,0.0,0.0,0.0,-0.01250647846609354,0.04366182163357735,0.015125210396945477,1.0,0.0,-1.734723475976807e-18,-2.3310346708438345e-18
489.0,0.0,0.0,0.0,0.0,0.0,0.0,-0.013129975646734238,0.03880275413393974,0.017993338406085968,1.0,0.0,0.0,7.047314121155779e-19
490.0,0.0,0.0,0.0,0.0,0.0,0.0,-0.011223504319787025,0.041278377175331116,0.01543138176202774,1.0,8.673617379884035e-19,5.204170427930421e-18,-4.2825985813177425e-18
491.0,0.0,0.0,0.0,0.0,0.0,0.0,-0.013315552845597267,0.04589613154530525,0.022079987451434135,1.0,1.734723475976807e-18,0.0,-4.553649124439119e-18
492.0,0.0,0.0,0.0,0.0,0.0,0.0,-0.012393448501825333,0.043350208550691605,0.023190196603536606,1.0,-1.734723475976807e-18,0.0,1.7889335846010823e-18
493.0,0.0,0.0,0.0,0.0,0.0,0.0,-0.0031481971964240074,0.0319678969681263,0.011327044107019901,1.0,1.734723475976807e-18,5.204170427930421e-18,1.4094628242311558e-18
494.0,0.0,0.0,0.0,0.0,0.0,0.0,0.0057943109422922134,0.023465100675821304,0.007979253306984901,1.0,0.0,0.0,1.0842021724855044e-19
495.0,0.0,0.0,0.0,0.0,0.0,0.0,-0.0108665581792593,0.0200650691986084,-0.0016449489630758762,1.0,0.0,0.0,1.0842021724855044e-19
496.0,0.0,0.0,0.0,0.0,0.0,0.0,-0.014675789512693882,0.006171045824885368,-0.018540034070611,1.0,1.734723475976807e-18,-3.469446951953614e-18,-1.734723475976807e-18
497.0,0.0,0.0,0.0,0.0,0.0,0.0,0.0029697027057409286,-0.0021954337134957314,-0.015676243230700493,1.0,3.469446951953614e-18,3.469446951953614e-18,-2.927345865710862e-18
498.0,0.0,0.0,0.0,0.0,0.0,0.0,0.0002920153201557696,-0.012205271981656551,-0.017617031931877136,1.0,-1.734723475976807e-18,-3.469446951953614e-18,3.7947076036992655e-18
499.0,0.0,0.0,0.0,0.0,0.0,0.0,0.027560152113437653,-0.022140204906463623,-0.017034020274877548,1.0,3.469446951953614e-18,0.0,-6.505213034913027e-19
500.0,0.0,0.0,0.0,0.0,0.0,0.0,0.03510378301143646,-0.01618620939552784,-0.008896847255527973,1.0,0.0,-3.469446951953614e-18,-1.0842021724855044e-18
501.0,0.0,0.0,0.0,0.0,0.0,0.0,0.018522655591368675,-0.01512684766203165,-0.02837400510907173,1.0,3.469446951953614e-18,-6.938893903907228e-18,1.5178830414797062e-18
502.0,0.0,0.0,0.0,0.0,0.0,0.0,0.026826458051800728,-0.0220695361495018,-0.01981700025498867,1.0,1.734723475976807e-18,6.938893903907228e-18,-3.2526065174565133e-18
503.0,0.0,0.0,0.0,0.0,0.0,0.0,0.020187342539429665,-0.027233688160777092,-0.015770012512803078,1.0,3.469446951953614e-18,0.0,-2.8189256484623115e-18
504.0,0.0,0.0,0.0,0.0,0.0,0.0,0.01434303354471922,-0.02085874043405056,-0.015901634469628334,1.0,1.0408340855860843e-17,3.469446951953614e-18,2.168404344971009e-18
505.0,0.0,0.0,0.0,0.0,0.0,0.0,0.020631929859519005,-0.019486987963318825,-0.009497362188994884,1.0,-6.938893903907228e-18,-3.469446951953614e-18,2.8189256484623115e-18
506.0,0.0,0.0,0.0,0.0,0.0,0.0,0.01495910994708538,-0.01949179917573929,-0.002941332058981061,1.0,6.938893903907228e-18,6.938893903907228e-18,-1.0842021724855044e-18
507.0,0.0,0.0,0.0,0.0,0.0,0.0,0.004441394936293364,-0.012900150381028652,0.003070239210501313,1.0,-3.469446951953614e-18,0.0,-2.168404344971009e-18
508.0,0.0,0.0,0.0,0.0,0.0,0.0,-0.0044402447529137135,-0.005963937845081091,-0.00122950435616076,1.0,0.0,-3.469446951953614e-18,8.673617379884035e-19
509.0,0.0,0.0,0.0,0.0,0.0,0.0,-0.014031533151865005,0.0005541755235753953,0.001841721241362393,1.0,-3.469446951953614e-18,0.0,0.0
510.0,0.0,0.0,0.0,0.0,0.0,0.0,-0.014256572350859642,0.001713170320726931,0.013168628327548504,1.0,-3.469446951953614e-18,-1.734723475976807e-18,1.734723475976807e-18
511.0,0.0,0.0,0.0,0.0,0.0,0.0,-0.016095545142889023,-0.006766592618077993,0.01141640730202198,1.0,0.0,0.0,1.734723475976807e-18
512.0,0.0,0.0,0.0,0.0,0.0,0.0,-0.018226346001029015,-0.006442889105528593,0.014565248973667622,1.0,-3.469446951953614e-18,-1.734723475976807e-18,2.3852447794681098e-18
513.0,0.0,0.0,0.0,0.0,0.0,0.0,-0.019073590636253357,-0.0047686658799648285,0.008558623492717743,1.0,3.469446951953614e-18,0.0,2.8189256484623115e-18
514.0,0.0,0.0,0.0,0.0,0.0,0.0,-0.020312786102294922,0.0017679935554042459,0.013730227947235107,1.0,3.469446951953614e-18,-3.469446951953614e-18,-6.505213034913027e-19
515.0,0.0,0.0,0.0,0.0,0.0,0.0,-0.021152611821889877,0.005122958216816187,0.006959415972232819,1.0,1.3877787807814457e-17,1.734723475976807e-18,-3.0357660829594124e-18
516.0,0.0,0.0,0.0,0.0,0.0,0.0,-0.022826941683888435,0.006066042929887772,0.006778046954423189,1.0,3.469446951953614e-18,0.0,4.336808689942018e-19
517.0,0.0,0.0,0.0,0.0,0.0,0.0,-0.02242092229425907,0.004117193166166544,0.010479647666215897,1.0,6.938893903907228e-18,1.734723475976807e-18,-6.938893903907228e-18
518.0,0.0,0.0,0.0,0.0,0.0,0.0,-0.024746546521782875,0.008838413283228874,0.011542443186044693,1.0,-1.3877787807814457e-17,-1.734723475976807e-18,-1.0842021724855044e-18
519.0,0.0,0.0,0.0,0.0,0.0,0.0,-0.023752955719828606,0.012499533593654633,0.010597676038742065,1.0,-3.469446951953614e-18,1.734723475976807e-18,4.336808689942018e-19
520.0,0.0,0.0,0.0,0.0,0.0,0.0,-0.017716696485877037,0.011143655516207218,0.017734702676534653,1.0,3.469446951953614e-18,1.734723475976807e-18,-4.336808689942018e-18
521.0,0.0,0.0,0.0,0.0,0.0,0.0,-0.015561102889478207,0.003667075652629137,0.01640639454126358,1.0,3.469446951953614e-18,0.0,-1.3010426069826053e-18
522.0,0.0,0.0,0.0,0.0,0.0,0.0,-0.01379826944321394,-0.0006042984314262867,0.012890800833702087,1.0,3.469446951953614e-18,0.0,3.2526065174565133e-19
523.0,0.0,0.0,0.0,0.0,0.0,0.0,-0.01024155505001545,0.0026153442449867725,0.011447649449110031,1.0,1.0408340855860843e-17,8.673617379884035e-19,2.2768245622195593e-18
524.0,0.0,0.0,0.0,0.0,0.0,0.0,-0.009571326896548271,0.0019646845757961273,0.005663712974637747,1.0,-6.938893903907228e-18,0.0,6.505213034913027e-19
525.0,0.0,0.0,0.0,0.0,0.0,0.0,-0.007326821330934763,0.001603349344804883,0.006279416382312775,1.0,0.0,0.0,-1.0842021724855044e-18
526.0,0.0,0.0,0.0,0.0,0.0,0.0,-0.002994501730427146,0.0027370003517717123,0.005584698636084795,1.0,-3.469446951953614e-18,0.0,1.9244588561617704e-18
527.0,0.0,0.0,0.0,0.0,0.0,0.0,0.0005303545040078461,-0.0020830300636589527,0.0035036953631788492,1.0,3.469446951953614e-18,2.168404344971009e-19,2.6834003769016235e-18
528.0,0.0,0.0,0.0,0.0,0.0,0.0,0.0052768574096262455,-0.004566970746964216,0.0017960051773115993,1.0,-3.469446951953614e-18,0.0,-3.6591823321385775e-19
529.0,0.0,0.0,0.0,0.0,0.0,0.0,0.008416729047894478,-0.006514661479741335,-0.004437943920493126,1.0,-6.938893903907228e-18,-2.168404344971009e-19,-4.2012834183813297e-19
530.0,0.0,0.0,0.0,0.0,0.0,0.0,0.01053577195852995,-0.008052312768995762,-0.0010214729700237513,1.0,0.0,0.0,5.014435047745458e-19
531.0,0.0,0.0,0.0,0.0,0.0,0.0,0.01229035947471857,-0.01192359160631895,-0.002687586471438408,1.0,0.0,0.0,-6.2341624917916505e-19
532.0,0.0,0.0,0.0,0.0,0.0,0.0,0.025828061625361443,-0.01026796456426382,-0.00021229492267593741,1.0,0.0,-4.336808689942018e-19,1.1655173354219173e-18
533.0,0.0,0.0,0.0,0.0,0.0,0.0,0.02733583003282547,-0.008191750384867191,0.0007790137315168977,1.0,0.0,0.0,-3.333921680392926e-18
534.0,0.0,0.0,0.0,0.0,0.0,0.0,0.018044544383883476,-0.01561478991061449,-0.008318760432302952,1.0,0.0,0.0,-2.439454888092385e-19
535.0,0.0,0.0,0.0,0.0,0.0,0.0,0.018224338069558144,-0.019535748288035393,-0.009083435870707035,1.0,6.938893903907228e-18,-2.168404344971009e-19,1.0299920638612292e-18
536.0,0.0,0.0,0.0,0.0,0.0,0.0,0.017273608595132828,-0.0179643165320158,-0.0013100875075906515,1.0,-3.469446951953614e-18,2.168404344971009e-19,2.3852447794681098e-18
537.0,0.0,0.0,0.0,0.0,0.0,0.0,0.013161979615688324,-0.016475766897201538,-0.005685171578079462,1.0,3.469446951953614e-18,2.168404344971009e-19,-2.846030702774449e-18
538.0,0.0,0.0,0.0,0.0,0.0,0.0,0.016451584175229073,-0.017702145501971245,-0.003539247438311577,1.0,6.938893903907228e-18,0.0,-7.589415207398531e-19
539.0,0.0,0.0,0.0,0.0,0.0,0.0,0.02459273859858513,-0.016338462010025978,0.0014819370117038488,1.0,-6.938893903907228e-18,0.0,4.336808689942018e-19
540.0,0.0,0.0,0.0,0.0,0.0,0.0,0.019799867644906044,-0.015426268801093102,0.0007877140305936337,1.0,6.938893903907228e-18,-4.336808689942018e-19,1.6263032587282567e-18
541.0,0.0,0.0,0.0,0.0,0.0,0.0,0.011470447294414043,-0.011078009381890297,-0.00020379885972943157,1.0,6.938893903907228e-18,-4.336808689942018e-19,8.673617379884035e-19
542.0,0.0,0.0,0.0,0.0,0.0,0.0,0.004576342646032572,-0.00593344122171402,0.0004524887481238693,1.0,3.469446951953614e-18,0.0,2.710505431213761e-19
543.0,0.0,0.0,0.0,0.0,0.0,0.0,0.0052263811230659485,-0.0064504980109632015,0.003200695151463151,1.0,-3.469446951953614e-18,8.673617379884035e-19,-1.6263032587282567e-19
544.0,0.0,0.0,0.0,0.0,0.0,0.0,0.004952473100274801,-0.012859980575740337,0.0070653511211276054,1.0,3.469446951953614e-18,0.0,8.673617379884035e-19
545.0,0.0,0.0,0.0,0.0,0.0,0.0,0.014216394163668156,-0.015571839176118374,0.01392035000026226,1.0,0.0,8.673617379884035e-19,0.0
546.0,0.0,0.0,0.0,0.0,0.0,0.0,0.010204962454736233,-0.016441049054265022,0.010010838508605957,1.0,-6.938893903907228e-18,-8.673617379884035e-19,5.421010862427522e-19
547.0,0.0,0.0,0.0,0.0,0.0,0.0,0.010609220713376999,-0.01890624687075615,-0.006210220977663994,1.0,0.0,0.0,-1.0842021724855044e-19
548.0,0.0,0.0,0.0,0.0,0.0,0.0,0.015127869322896004,-0.023383574560284615,-0.011009452864527702,1.0,-6.938893903907228e-18,-4.336808689942018e-19,-1.6263032587282567e-19
549.0,0.0,0.0,0.0,0.0,0.0,0.0,0.023380553349852562,-0.029681218788027763,-0.007036637980490923,1.0,3.469446951953614e-18,0.0,-9.215718466126788e-19
550.0,0.0,0.0,0.0,0.0,0.0,0.0,0.03226504847407341,-0.041136179119348526,0.0017372001893818378,1.0,6.938893903907228e-18,-4.336808689942018e-19,4.87890977618477e-19
551.0,0.0,0.0,0.0,0.0,0.0,0.0,0.03593937307596207,-0.04138290882110596,-0.0015857248799875379,1.0,0.0,4.336808689942018e-19,-2.710505431213761e-19
552.0,0.0,0.0,0.0,0.0,0.0,0.0,0.03882930055260658,-0.033511970192193985,0.006334966979920864,1.0,-6.938893903907228e-18,0.0,-6.776263578034403e-21
553.0,0.0,0.0,0.0,0.0,0.0,0.0,0.036111798137426376,-0.035977479070425034,0.00024958717403933406,1.0,-3.469446951953614e-18,2.168404344971009e-19,-2.439454888092385e-19
554.0,0.0,0.0,0.0,0.0,0.0,0.0,0.032207049429416656,-0.03585371375083923,0.003036366542801261,1.0,6.938893903907228e-18,0.0,9.75781955236954e-19
555.0,0.0,0.0,0.0,0.0,0.0,0.0,0.02781047485768795,-0.03544914722442627,2.911004048655741e-05,1.0,3.469446951953614e-18,0.0,7.589415207398531e-19
556.0,0.0,0.0,0.0,0.0,0.0,0.0,0.029266567900776863,-0.03321059048175812,0.0011621417943388224,1.0,3.469446951953614e-18,0.0,2.168404344971009e-19
557.0,0.0,0.0,0.0,0.0,0.0,0.0,0.02827128954231739,-0.034240711480379105,-0.0023573720827698708,1.0,3.469446951953614e-18,0.0,-7.589415207398531e-19
558.0,0.0,0.0,0.0,0.0,0.0,0.0,0.050526805222034454,-0.04048511013388634,-0.004684922751039267,1.0,0.0,1.734723475976807e-18,3.0357660829594124e-18
559.0,0.0,0.0,0.0,0.0,0.0,0.0,0.05435853824019432,-0.03492005541920662,-0.0036316553596407175,1.0,6.938893903907228e-18,0.0,2.168404344971009e-19
560.0,0.0,0.0,0.0,0.0,0.0,0.0,0.036723390221595764,-0.021885506808757782,-0.0011165697360411286,1.0,3.469446951953614e-18,3.469446951953614e-18,1.734723475976807e-18
561.0,0.0,0.0,0.0,0.0,0.0,0.0,0.012286688201129436,-0.020307647064328194,0.001267185783945024,1.0,0.0,0.0,2.8189256484623115e-18
562.0,0.0,0.0,0.0,0.0,0.0,0.0,0.02875271625816822,-0.05205007642507553,0.012094516307115555,1.0,0.0,0.0,-5.637851296924623e-18
563.0,0.0,0.0,0.0,0.0,0.0,0.0,0.0074635883793234825,-0.026071324944496155,0.006268701981753111,1.0,0.0,-6.938893903907228e-18,2.6020852139652106e-18
564.0,0.0,0.0,0.0,0.0,0.0,0.0,0.012035070918500423,-0.02353067882359028,-0.013518734835088253,1.0,-3.469446951953614e-18,3.469446951953614e-18,-1.0842021724855044e-18
565.0,0.0,0.0,0.0,0.0,0.0,0.0,0.05045031011104584,-0.056184321641922,-0.002521307673305273,1.0,0.0,-3.469446951953614e-18,2.168404344971009e-18
566.0,0.0,0.0,0.0,0.0,0.0,0.0,0.018081875517964363,-0.025738714262843132,-0.008613725192844868,1.0,0.0,0.0,-2.6020852139652106e-18
567.0,0.0,0.0,0.0,0.0,0.0,0.0,0.03217581287026405,-0.01967676170170307,-0.01019025407731533,1.0,-3.469446951953614e-18,0.0,1.951563910473908e-18
568.0,0.0,0.0,0.0,0.0,0.0,0.0,0.049001190811395645,-0.03566797077655792,-0.0046702283434569836,1.0,-6.938893903907228e-18,3.469446951953614e-18,-3.903127820947816e-18
569.0,0.0,0.0,0.0,0.0,0.0,0.0,0.030871886759996414,-0.022908447310328484,-0.0049081770703196526,1.0,-1.734723475976807e-18,0.0,1.734723475976807e-18
570.0,0.0,0.0,0.0,0.0,0.0,0.0,0.019021058455109596,-0.0013958854833617806,0.0027689028065651655,1.0,3.469446951953614e-18,0.0,-7.589415207398531e-18
571.0,0.0,0.0,0.0,0.0,0.0,0.0,0.01456538401544094,0.003551212605088949,0.005804846063256264,1.0,0.0,-3.469446951953614e-18,-1.734723475976807e-18
572.0,0.0,0.0,0.0,0.0,0.0,0.0,-0.0016641051042824984,0.0016561135416850448,-0.0006212422158569098,1.0,0.0,-3.469446951953614e-18,6.938893903907228e-18
573.0,0.0,0.0,0.0,0.0,0.0,0.0,0.011199544183909893,-0.019546035677194595,-0.001627748948521912,1.0,0.0,3.469446951953614e-18,-3.2526065174565133e-19
574.0,0.0,0.0,0.0,0.0,0.0,0.0,0.016984228044748306,-0.025939669460058212,0.004674243740737438,1.0,0.0,0.0,-7.806255641895632e-18
575.0,0.0,0.0,0.0,0.0,0.0,0.0,0.021673014387488365,-0.02625599130988121,-0.0009616157039999962,1.0,0.0,0.0,2.222614453595284e-18
576.0,0.0,0.0,0.0,0.0,0.0,0.0,0.028311586007475853,-0.029030628502368927,0.005943296477198601,1.0,-4.336808689942018e-19,0.0,2.0057740190981832e-18
577.0,0.0,0.0,0.0,0.0,0.0,0.0,-0.011572103016078472,-0.022134412080049515,-0.006792294792830944,1.0,3.2526065174565133e-19,-3.469446951953614e-18,4.160625836913123e-18
578.0,0.0,0.0,0.0,0.0,0.0,0.0,-0.020592661574482918,-0.018474387004971504,-0.018386734649538994,1.0,3.2526065174565133e-19,-3.469446951953614e-18,4.472333961502706e-18
579.0,0.0,0.0,0.0,0.0,0.0,0.0,-0.02634146250784397,0.003815110307186842,-0.010634581558406353,1.0,0.0,-3.469446951953614e-18,1.5449880957918438e-18
580.0,0.0,0.0,0.0,0.0,0.0,0.0,-0.027325507253408432,0.010008124634623528,-0.011579296551644802,1.0,0.0,-6.938893903907228e-18,-2.032879073410321e-18
581.0,0.0,0.0,0.0,0.0,0.0,0.0,-0.023446649312973022,0.009172149933874607,-0.011883183382451534,1.0,4.336808689942018e-19,0.0,1.3552527156068805e-19
582.0,0.0,0.0,0.0,0.0,0.0,0.0,-0.020241711288690567,0.0015180904883891344,-0.01427485328167677,1.0,0.0,5.204170427930421e-18,1.81603863891322e-18
583.0,0.0,0.0,0.0,0.0,0.0,0.0,-0.0059965611435472965,-0.006068811751902103,-0.015249507501721382,1.0,-8.673617379884035e-19,-1.734723475976807e-18,-5.204170427930421e-18
584.0,0.0,0.0,0.0,0.0,0.0,0.0,-0.004794200882315636,-0.0025053084827959538,-0.01133064366877079,1.0,-8.673617379884035e-19,1.734723475976807e-18,-3.577867169202165e-18
585.0,0.0,0.0,0.0,0.0,0.0,0.0,-0.009690352715551853,0.00155292684212327,-0.016088487580418587,1.0,8.673617379884035e-19,0.0,2.168404344971009e-18
586.0,0.0,0.0,0.0,0.0,0.0,0.0,-0.01001975778490305,0.0043238140642642975,-0.0163133405148983,1.0,0.0,-1.734723475976807e-18,2.520770051028798e-18
587.0,0.0,0.0,0.0,0.0,0.0,0.0,-0.008369538933038712,0.002616804325953126,-0.009660590440034866,1.0,1.3010426069826053e-18,-1.734723475976807e-18,1.6601845766184287e-18
588.0,0.0,0.0,0.0,0.0,0.0,0.0,-0.0048795538023114204,-0.0035788738168776035,-0.00943315215408802,1.0,-3.2526065174565133e-19,8.673617379884035e-19,1.765216662077962e-18
589.0,0.0,0.0,0.0,0.0,0.0,0.0,-0.008320295251905918,-0.0012984804343432188,-0.009776252321898937,1.0,1.0842021724855044e-19,0.0,1.886342373535327e-18
590.0,0.0,0.0,0.0,0.0,0.0,0.0,-0.016016343608498573,0.0007981890230439603,-0.012648921459913254,1.0,-4.336808689942018e-19,0.0,-3.8285889215894375e-19
591.0,0.0,0.0,0.0,0.0,0.0,0.0,-0.007968565449118614,-0.0008363459492102265,-0.008870482444763184,1.0,-4.336808689942018e-19,0.0,1.6771252355635147e-18
592.0,0.0,0.0,0.0,0.0,0.0,0.0,0.00017185817705467343,-0.006022321991622448,0.0001993984915316105,1.0,0.0,-1.0842021724855044e-19,-1.145188544687814e-18
593.0,0.0,0.0,0.0,0.0,0.0,0.0,0.003934571519494057,-0.01307670772075653,0.000904870277736336,1.0,0.0,2.168404344971009e-19,1.07742590890747e-18
594.0,0.0,0.0,0.0,0.0,0.0,0.0,0.005127021111547947,-0.010729874484241009,0.005601204931735992,1.0,1.734723475976807e-18,-4.336808689942018e-19,1.7618285302889447e-19
595.0,0.0,0.0,0.0,0.0,0.0,0.0,0.004376949742436409,-0.00941572804003954,0.009322835132479668,1.0,3.469446951953614e-18,0.0,-1.8973538018496328e-19
596.0,0.0,0.0,0.0,0.0,0.0,0.0,0.007279364857822657,-0.013524429872632027,0.008550858125090599,1.0,-1.734723475976807e-18,0.0,3.2526065174565133e-19
597.0,0.0,0.0,0.0,0.0,0.0,0.0,0.0051628947257995605,-0.01593286544084549,0.008983723819255829,1.0,1.734723475976807e-18,0.0,-1.1655173354219173e-18
598.0,0.0,0.0,0.0,0.0,0.0,0.0,0.008990582078695297,-0.014099323190748692,0.013294525444507599,1.0,0.0,1.734723475976807e-18,2.710505431213761e-20
599.0,0.0,0.0,0.0,0.0,0.0,0.0,-0.002423791214823723,-0.003742269240319729,0.007802464067935944,1.0,0.0,8.673617379884035e-19,4.87890977618477e-19
600.0,0.0,0.0,0.0,0.0,0.0,0.0,-0.014630299992859364,0.0048430380411446095,-0.0002310737909283489,1.0,3.469446951953614e-18,4.336808689942018e-19,-5.421010862427522e-19
601.0,0.0,0.0,0.0,0.0,0.0,0.0,-0.006707176566123962,0.004497869405895472,-0.0003262179670855403,1.0,-1.734723475976807e-18,4.336808689942018e-19,5.692061405548898e-19
602.0,0.0,0.0,0.0,0.0,0.0,0.0,-0.007732797879725695,0.008662327192723751,-0.0029771127738058567,1.0,3.469446951953614e-18,0.0,1.8973538018496328e-19
603.0,0.0,0.0,0.0,0.0,0.0,0.0,-0.0015194844454526901,0.006588897202163935,-0.0050893863663077354,1.0,-1.734723475976807e-18,-8.673617379884035e-19,0.0
604.0,0.0,0.0,0.0,0.0,0.0,0.0,0.0003292725596111268,0.011384905315935612,-0.001335963374003768,1.0,-3.469446951953614e-18,8.673617379884035e-19,5.421010862427522e-20
605.0,0.0,0.0,0.0,0.0,0.0,0.0,-0.0036898667458444834,0.0183400921523571,0.005275110248476267,1.0,3.469446951953614e-18,-8.673617379884035e-19,7.047314121155779e-19
606.0,0.0,0.0,0.0,0.0,0.0,0.0,0.0001178160309791565,0.008038554340600967,0.0042203981429338455,1.0,-3.469446951953614e-18,0.0,0.0
607.0,0.0,0.0,0.0,0.0,0.0,0.0,0.006829262711107731,-0.0027396781370043755,0.0006590804550796747,1.0,0.0,-8.673617379884035e-19,7.589415207398531e-19
608.0,0.0,0.0,0.0,0.0,0.0,0.0,0.0058586569502949715,0.0028465287759900093,0.0058126747608184814,1.0,3.469446951953614e-18,0.0,2.710505431213761e-19
609.0,0.0,0.0,0.0,0.0,0.0,0.0,-0.008156443014740944,0.011594747193157673,0.005599306896328926,1.0,0.0,3.469446951953614e-18,-5.421010862427522e-19
610.0,0.0,0.0,0.0,0.0,0.0,0.0,-0.014138109050691128,0.01776258833706379,0.0006911111413501203,1.0,0.0,1.734723475976807e-18,1.6263032587282567e-18
611.0,0.0,0.0,0.0,0.0,0.0,0.0,-0.021869193762540817,0.0168171264231205,-0.000957387441303581,1.0,0.0,0.0,4.336808689942018e-19
612.0,0.0,0.0,0.0,0.0,0.0,0.0,-0.012351388111710548,0.004186998587101698,0.0011590791400521994,1.0,-1.734723475976807e-18,0.0,-1.1926223897340549e-18
613.0,0.0,0.0,0.0,0.0,0.0,0.0,-0.00624879589304328,-0.005218341015279293,-0.0010196669027209282,1.0,-3.469446951953614e-18,-3.469446951953614e-18,-3.2526065174565133e-19
614.0,0.0,0.0,0.0,0.0,0.0,0.0,-0.0014354563318192959,-0.0038775086868554354,0.003566729137673974,1.0,1.734723475976807e-18,-3.469446951953614e-18,-4.336808689942018e-18
615.0,0.0,0.0,0.0,0.0,0.0,0.0,0.0006532688857987523,0.0032410151325166225,0.014141414314508438,1.0,-3.469446951953614e-18,0.0,-1.0842021724855044e-18
616.0,0.0,0.0,0.0,0.0,0.0,0.0,0.002344864886254072,-0.002751357154920697,-0.0009985790820792317,1.0,3.469446951953614e-18,6.938893903907228e-18,2.168404344971009e-19
617.0,0.0,0.0,0.0,0.0,0.0,0.0,0.006873331032693386,-0.005188617389649153,0.0033784566912800074,1.0,-3.469446951953614e-18,6.938893903907228e-18,-6.5052130349130266e-18
618.0,0.0,0.0,0.0,0.0,0.0,0.0,0.001948617398738861,0.0013675449881702662,0.01062717568129301,1.0,0.0,0.0,3.0357660829594124e-18
619.0,0.0,0.0,0.0,0.0,0.0,0.0,0.0007876129820942879,0.004858760628849268,-0.0021026816684752703,1.0,-3.469446951953614e-18,3.469446951953614e-18,6.5052130349130266e-18
620.0,0.0,0.0,0.0,0.0,0.0,0.0,-0.005393092054873705,0.004156840965151787,0.004726760555058718,1.0,-6.938893903907228e-18,0.0,-2.168404344971009e-19
621.0,0.0,0.0,0.0,0.0,0.0,0.0,-0.005944285541772842,0.0008841896196827292,0.0001057000772561878,1.0,-3.469446951953614e-18,3.469446951953614e-18,6.505213034913027e-19
622.0,0.0,0.0,0.0,0.0,0.0,0.0,-0.007860980927944183,0.002807475160807371,-0.004688021261245012,1.0,-3.469446951953614e-18,-3.469446951953614e-18,8.673617379884035e-19
623.0,0.0,0.0,0.0,0.0,0.0,0.0,-0.01039469800889492,0.00485742324963212,-0.003303555306047201,1.0,3.469446951953614e-18,-3.469446951953614e-18,-4.119968255444917e-18
624.0,0.0,0.0,0.0,0.0,0.0,0.0,-0.011177446693181992,0.0064794328063726425,0.0008013067417778075,1.0,6.938893903907228e-18,0.0,-1.3877787807814457e-17
625.0,0.0,0.0,0.0,0.0,0.0,0.0,-0.009454396553337574,0.0017769521800801158,-0.0017474181950092316,1.0,0.0,3.469446951953614e-18,-4.9873299934333204e-18
626.0,0.0,0.0,0.0,0.0,0.0,0.0,-0.003749772673472762,-0.006338604725897312,-0.01200106181204319,1.0,0.0,-3.469446951953614e-18,-2.8189256484623115e-18
627.0,0.0,0.0,0.0,0.0,0.0,0.0,-0.008050975389778614,-0.004262607078999281,-0.008749877102673054,1.0,-3.469446951953614e-18,0.0,5.204170427930421e-18
628.0,0.0,0.0,0.0,0.0,0.0,0.0,-0.006679325830191374,0.0030765363480895758,-0.0008024325943551958,1.0,0.0,0.0,2.168404344971009e-18
629.0,0.0,0.0,0.0,0.0,0.0,0.0,0.0022930060513317585,0.005204448010772467,-0.003198954975232482,1.0,6.938893903907228e-18,0.0,-3.686287386450715e-18
630.0,0.0,0.0,0.0,0.0,0.0,0.0,0.0015012200456112623,0.008602269925177097,0.006727354135364294,1.0,0.0,6.938893903907228e-18,3.903127820947816e-18
631.0,0.0,0.0,0.0,0.0,0.0,0.0,-0.002392728580161929,0.010058443993330002,0.010170183144509792,1.0,3.469446951953614e-18,-3.469446951953614e-18,-4.553649124439119e-18
632.0,0.0,0.0,0.0,0.0,0.0,0.0,-0.011384405195713043,0.01049626525491476,0.005364303942769766,1.0,3.469446951953614e-18,3.469446951953614e-18,-2.168404344971009e-18
633.0,0.0,0.0,0.0,0.0,0.0,0.0,-0.019162096083164215,0.012657453306019306,0.0016421240288764238,1.0,6.938893903907228e-18,-3.469446951953614e-18,-6.938893903907228e-18
634.0,0.0,0.0,0.0,0.0,0.0,0.0,-0.02716115117073059,0.014438627287745476,-0.003198920050635934,1.0,-3.469446951953614e-18,-6.938893903907228e-18,5.854691731421724e-18
635.0,0.0,0.0,0.0,0.0,0.0,0.0,-0.03201928362250328,0.01716235652565956,-0.0038185222074389458,1.0,3.469446951953614e-18,0.0,-5.854691731421724e-18
636.0,0.0,0.0,0.0,0.0,0.0,0.0,-0.03339887782931328,0.0195891372859478,0.0012521796161308885,1.0,-3.469446951953614e-18,3.469446951953614e-18,-4.553649124439119e-18
637.0,0.0,0.0,0.0,0.0,0.0,0.0,-0.030446665361523628,0.02545790746808052,-0.0027472295332700014,1.0,0.0,0.0,-2.3852447794681098e-18
638.0,0.0,0.0,0.0,0.0,0.0,0.0,-0.03502705320715904,0.026758382096886635,-0.006729989778250456,1.0,-6.938893903907228e-18,0.0,2.3852447794681098e-18
639.0,0.0,0.0,0.0,0.0,0.0,0.0,-0.02241148240864277,0.0333067812025547,0.003337668953463435,1.0,-3.469446951953614e-18,0.0,1.0842021724855044e-18
640.0,0.0,0.0,0.0,0.0,0.0,0.0,-0.01373818889260292,0.03259093686938286,0.0025272369384765625,1.0,3.469446951953614e-18,-1.734723475976807e-18,-2.168404344971009e-19
641.0,0.0,0.0,0.0,0.0,0.0,0.0,-0.009579166769981384,0.026684366166591644,0.013539662584662437,1.0,0.0,1.734723475976807e-18,-5.854691731421724e-18
642.0,0.0,0.0,0.0,0.0,0.0,0.0,0.0014853386674076319,0.02366534061729908,0.01662401296198368,1.0,6.938893903907228e-18,1.734723475976807e-18,-1.734723475976807e-18
643.0,0.0,0.0,0.0,0.0,0.0,0.0,-0.0065778447315096855,0.02693844586610794,0.012602167204022408,1.0,1.0408340855860843e-17,0.0,1.734723475976807e-18
644.0,0.0,0.0,0.0,0.0,0.0,0.0,-0.01365610957145691,0.028502169996500015,0.011278503574430943,1.0,3.469446951953614e-18,1.734723475976807e-18,3.469446951953614e-18
645.0,0.0,0.0,0.0,0.0,0.0,0.0,-0.012447120621800423,0.022146418690681458,0.008089146576821804,1.0,1.734723475976807e-18,3.469446951953614e-18,-5.421010862427522e-19
646.0,0.0,0.0,0.0,0.0,0.0,0.0,-0.008338808082044125,0.022610506042838097,0.014821365475654602,1.0,0.0,-5.204170427930421e-18,-9.75781955236954e-19
647.0,0.0,0.0,0.0,0.0,0.0,0.0,-0.010763416066765785,0.02945675328373909,0.010009230114519596,1.0,0.0,-3.469446951953614e-18,4.336808689942018e-19
648.0,0.0,0.0,0.0,0.0,0.0,0.0,-0.022431211546063423,0.03718848526477814,0.0018943875329568982,1.0,1.734723475976807e-18,0.0,1.6263032587282567e-18
649.0,0.0,0.0,0.0,0.0,0.0,0.0,-0.033456068485975266,0.0401902012526989,-2.5142506274278276e-05,1.0,0.0,-3.469446951953614e-18,1.951563910473908e-18
650.0,0.0,0.0,0.0,0.0,0.0,0.0,-0.02105586789548397,0.02764003723859787,-0.00991915725171566,1.0,-1.734723475976807e-18,-3.469446951953614e-18,-1.0842021724855044e-19
651.0,0.0,0.0,0.0,0.0,0.0,0.0,-0.013566539622843266,0.024837983772158623,0.0011464160634204745,1.0,-1.734723475976807e-18,-3.469446951953614e-18,-8.023096076392733e-18
652.0,0.0,0.0,0.0,0.0,0.0,0.0,-0.01074815634638071,0.02289193496108055,-0.008095198310911655,1.0,-1.734723475976807e-18,-1.0408340855860843e-17,6.5052130349130266e-18
653.0,0.0,0.0,0.0,0.0,0.0,0.0,-0.0041433977894485,0.022346610203385353,-0.006944540422409773,1.0,-1.734723475976807e-18,-3.469446951953614e-18,6.938893903907228e-18
654.0,0.0,0.0,0.0,0.0,0.0,0.0,0.011230255477130413,0.016782090067863464,-0.006584688555449247,1.0,1.734723475976807e-18,0.0,1.0842021724855044e-18
655.0,0.0,0.0,0.0,0.0,0.0,0.0,0.018666179850697517,0.010147854685783386,-0.00891977921128273,1.0,1.734723475976807e-18,3.469446951953614e-18,-1.3010426069826053e-18
656.0,0.0,0.0,0.0,0.0,0.0,0.0,0.015503019094467163,0.007972445338964462,-0.010137966834008694,1.0,-1.734723475976807e-18,0.0,1.0842021724855044e-17
657.0,0.0,0.0,0.0,0.0,0.0,0.0,0.013502685353159904,0.007640922907739878,-0.01597392000257969,1.0,1.734723475976807e-18,3.469446951953614e-18,-1.0842021724855044e-18
658.0,0.0,0.0,0.0,0.0,0.0,0.0,0.0017135681118816137,0.008142531849443913,-0.013323388993740082,1.0,-5.204170427930421e-18,0.0,-2.168404344971009e-19
659.0,0.0,0.0,0.0,0.0,0.0,0.0,-0.007618805859237909,0.008137427270412445,-0.015472355298697948,1.0,3.469446951953614e-18,3.469446951953614e-18,8.456776945386935e-18
660.0,0.0,0.0,0.0,0.0,0.0,0.0,-0.011308669112622738,0.00858108140528202,-0.013093019835650921,1.0,5.204170427930421e-18,-3.469446951953614e-18,-3.469446951953614e-18
661.0,0.0,0.0,0.0,0.0,0.0,0.0,-0.0037995162419974804,0.006670675240457058,-0.00153908203355968,1.0,0.0,-3.469446951953614e-18,4.7704895589362195e-18
662.0,0.0,0.0,0.0,0.0,0.0,0.0,0.002513627288863063,0.004938448779284954,0.004462825134396553,1.0,-3.469446951953614e-18,6.938893903907228e-18,-7.37257477290143e-18
663.0,0.0,0.0,0.0,0.0,0.0,0.0,0.007408519275486469,0.005867430940270424,0.00672703655436635,1.0,3.469446951953614e-18,3.469446951953614e-18,8.673617379884035e-19
664.0,0.0,0.0,0.0,0.0,0.0,0.0,0.011877298355102539,0.00046400705468840897,0.011951795779168606,1.0,6.938893903907228e-18,1.0408340855860843e-17,-6.5052130349130266e-18
665.0,0.0,0.0,0.0,0.0,0.0,0.0,0.013537807390093803,-0.006093622650951147,0.01318760309368372,1.0,6.938893903907228e-18,3.469446951953614e-18,2.8189256484623115e-18
666.0,0.0,0.0,0.0,0.0,0.0,0.0,0.017691556364297867,-0.009054910391569138,0.008111979812383652,1.0,0.0,-6.938893903907228e-18,6.5052130349130266e-18
667.0,0.0,0.0,0.0,0.0,0.0,0.0,0.012876998633146286,-0.007370706647634506,0.006968243513256311,1.0,-3.469446951953614e-18,-3.469446951953614e-18,4.9873299934333204e-18
668.0,0.0,0.0,0.0,0.0,0.0,0.0,0.006540688686072826,-0.008082645945250988,0.0031868326477706432,1.0,-3.469446951953614e-18,0.0,-6.288372600415926e-18
669.0,0.0,0.0,0.0,0.0,0.0,0.0,-0.0006279053050093353,-0.0075731766410171986,0.0027202197816222906,1.0,6.938893903907228e-18,0.0,-1.951563910473908e-18
670.0,0.0,0.0,0.0,0.0,0.0,0.0,-0.003927539102733135,-0.002871823962777853,0.003916265442967415,1.0,1.0408340855860843e-17,3.469446951953614e-18,-1.0842021724855044e-18
671.0,0.0,0.0,0.0,0.0,0.0,0.0,-0.004814117215573788,-0.002504773437976837,-0.0013977382332086563,1.0,3.469446951953614e-18,3.469446951953614e-18,0.0
672.0,0.0,0.0,0.0,0.0,0.0,0.0,-0.004991733469069004,-0.004067530389875174,-0.003913041669875383,1.0,0.0,6.938893903907228e-18,-5.854691731421724e-18
673.0,0.0,0.0,0.0,0.0,0.0,0.0,-0.004325631074607372,-0.0012055329279974103,3.535418727551587e-05,1.0,-3.469446951953614e-18,0.0,6.505213034913027e-19
674.0,0.0,0.0,0.0,0.0,0.0,0.0,-0.004813287407159805,-0.0053362054750323296,-0.0025139914359897375,1.0,1.0408340855860843e-17,3.469446951953614e-18,-1.734723475976807e-18
675.0,0.0,0.0,0.0,0.0,0.0,0.0,-0.006449168082326651,-0.0077457306906580925,-0.00809391774237156,1.0,0.0,0.0,1.0842021724855044e-18
676.0,0.0,0.0,0.0,0.0,0.0,0.0,-0.0075729964300990105,-0.006985703948885202,-0.0022735961247235537,1.0,-3.469446951953614e-18,0.0,2.3852447794681098e-18
677.0,0.0,0.0,0.0,0.0,0.0,0.0,-0.00593800051137805,-0.014128278009593487,-0.013362422585487366,1.0,-1.0408340855860843e-17,0.0,2.168404344971009e-18
678.0,0.0,0.0,0.0,0.0,0.0,0.0,-0.00804762914776802,-0.00954459048807621,-0.011424762196838856,1.0,1.0408340855860843e-17,3.469446951953614e-18,6.505213034913027e-19
679.0,0.0,0.0,0.0,0.0,0.0,0.0,-0.018695447593927383,0.004964420571923256,-0.01756291650235653,1.0,3.469446951953614e-18,3.469446951953614e-18,2.168404344971009e-19
680.0,0.0,0.0,0.0,0.0,0.0,0.0,-0.027996579185128212,0.011959773488342762,-0.02625293843448162,1.0,3.469446951953614e-18,6.938893903907228e-18,-1.5178830414797062e-18
681.0,0.0,0.0,0.0,0.0,0.0,0.0,-0.017387889325618744,-0.005709486082196236,-0.02078142575919628,1.0,6.938893903907228e-18,3.469446951953614e-18,2.168404344971009e-19
682.0,0.0,0.0,0.0,0.0,0.0,0.0,0.011403661221265793,-0.021681001409888268,0.008820298127830029,1.0,3.469446951953614e-18,-3.469446951953614e-18,2.168404344971009e-19
683.0,0.0,0.0,0.0,0.0,0.0,0.0,0.03339102864265442,-0.02897084504365921,0.02082880213856697,1.0,-6.938893903907228e-18,-6.938893903907228e-18,4.336808689942018e-19
684.0,0.0,0.0,0.0,0.0,0.0,0.0,0.029385261237621307,-0.03960945084691048,0.022902484983205795,1.0,-3.469446951953614e-18,3.469446951953614e-18,0.0
685.0,0.0,0.0,0.0,0.0,0.0,0.0,0.025577832013368607,-0.045434754341840744,0.026812516152858734,1.0,3.469446951953614e-18,-6.938893903907228e-18,2.168404344971009e-19
686.0,0.0,0.0,0.0,0.0,0.0,0.0,0.02465052343904972,-0.03202291205525398,0.018744122236967087,1.0,6.938893903907228e-18,0.0,0.0
687.0,0.0,0.0,0.0,0.0,0.0,0.0,0.02330205589532852,-0.01805332489311695,0.009185257367789745,1.0,-3.469446951953614e-18,0.0,2.168404344971009e-19
688.0,0.0,0.0,0.0,0.0,0.0,0.0,0.04258196800947189,-0.0253964401781559,0.02310658060014248,1.0,3.469446951953614e-18,1.734723475976807e-18,2.168404344971009e-19
689.0,0.0,0.0,0.0,0.0,0.0,0.0,0.061287492513656616,-0.049654245376586914,0.03010915219783783,1.0,0.0,-3.469446951953614e-18,2.168404344971009e-19
690.0,0.0,0.0,0.0,0.0,0.0,0.0,0.044373780488967896,-0.05068248510360718,0.020322512835264206,1.0,6.938893903907228e-18,3.469446951953614e-18,0.0
691.0,0.0,0.0,0.0,0.0,0.0,0.0,0.02395041100680828,-0.03436994552612305,0.006899851839989424,1.0,0.0,8.673617379884035e-19,2.168404344971009e-19
692.0,0.0,0.0,0.0,0.0,0.0,0.0,0.004275735467672348,-0.017786391079425812,-0.010926159098744392,1.0,6.938893903907228e-18,1.734723475976807e-18,0.0
693.0,0.0,0.0,0.0,0.0,0.0,0.0,-0.003255909075960517,-0.015139756724238396,-0.00694239791482687,1.0,3.469446951953614e-18,4.336808689942018e-19,-1.0842021724855044e-19
694.0,0.0,0.0,0.0,0.0,0.0,0.0,-0.005585596896708012,-0.014912405051290989,-0.013135751709342003,1.0,3.469446951953614e-18,2.168404344971009e-19,5.421010862427522e-20
695.0,0.0,0.0,0.0,0.0,0.0,0.0,-0.008436672389507294,-0.005261458922177553,-0.009748097509145737,1.0,6.938893903907228e-18,0.0,6.098637220230962e-20
696.0,0.0,0.0,0.0,0.0,0.0,0.0,0.008774686604738235,-0.003439616411924362,-0.005506225861608982,1.0,1.0408340855860843e-17,-2.168404344971009e-19,2.710505431213761e-20
697.0,0.0,0.0,0.0,0.0,0.0,0.0,0.020303715020418167,-0.011263161897659302,-0.0012125513749197125,1.0,0.0,4.336808689942018e-19,-8.131516293641283e-20
698.0,0.0,0.0,0.0,0.0,0.0,0.0,0.028981836512684822,-0.019224733114242554,0.0044299461878836155,1.0,6.938893903907228e-18,-4.336808689942018e-19,-1.0842021724855044e-19
699.0,0.0,0.0,0.0,0.0,0.0,0.0,0.019184917211532593,-0.01530602015554905,0.006200794596225023,1.0,3.469446951953614e-18,4.336808689942018e-19,-3.2526065174565133e-19
700.0,0.0,0.0,0.0,0.0,0.0,0.0,0.008900485932826996,-0.011608299799263477,0.010354449972510338,1.0,3.469446951953614e-18,1.3010426069826053e-18,6.505213034913027e-19
701.0,0.0,0.0,0.0,0.0,0.0,0.0,-0.009914270602166653,-0.01257451344281435,0.0014118289109319448,1.0,3.469446951953614e-18,0.0,-1.6263032587282567e-18
702.0,0.0,0.0,0.0,0.0,0.0,0.0,-0.007096390705555677,-0.004111696034669876,-0.0016587277641519904,1.0,0.0,0.0,4.336808689942018e-19
703.0,0.0,0.0,0.0,0.0,0.0,0.0,0.026870697736740112,-0.009908941574394703,0.0028574808966368437,1.0,-1.0408340855860843e-17,1.734723475976807e-18,-1.0842021724855044e-19
704.0,0.0,0.0,0.0,0.0,0.0,0.0,0.033078644424676895,-0.019098881632089615,0.005472051445394754,1.0,6.938893903907228e-18,-1.734723475976807e-18,3.2526065174565133e-19
705.0,0.0,0.0,0.0,0.0,0.0,0.0,0.02912822552025318,-0.01431408990174532,0.0059861913323402405,1.0,-3.469446951953614e-18,1.734723475976807e-18,-1.0842021724855044e-19
706.0,0.0,0.0,0.0,0.0,0.0,0.0,0.02790835313498974,-0.0060731591656804085,0.005011274013668299,1.0,0.0,0.0,2.168404344971009e-19
707.0,0.0,0.0,0.0,0.0,0.0,0.0,0.03310514613986015,0.0022278237156569958,0.005407301709055901,1.0,-6.938893903907228e-18,-1.734723475976807e-18,4.336808689942018e-19
708.0,0.0,0.0,0.0,0.0,0.0,0.0,0.022298574447631836,0.005472472403198481,-0.003971798345446587,1.0,0.0,-1.734723475976807e-18,4.336808689942018e-19
709.0,0.0,0.0,0.0,0.0,0.0,0.0,0.012094326317310333,0.015267511829733849,-0.005658918526023626,1.0,-6.938893903907228e-18,1.734723475976807e-18,4.336808689942018e-19
710.0,0.0,0.0,0.0,0.0,0.0,0.0,0.0032078330405056477,0.024445733055472374,-0.0009152903221547604,1.0,-3.469446951953614e-18,1.734723475976807e-18,6.505213034913027e-19
711.0,0.0,0.0,0.0,0.0,0.0,0.0,-0.0037864348851144314,0.029249422252178192,0.005604247096925974,1.0,-3.469446951953614e-18,-3.469446951953614e-18,4.336808689942018e-19
712.0,0.0,0.0,0.0,0.0,0.0,0.0,-0.003919093403965235,0.026852065697312355,0.008403056301176548,1.0,3.469446951953614e-18,-1.734723475976807e-18,0.0
713.0,0.0,0.0,0.0,0.0,0.0,0.0,-0.007299860008060932,0.02398824132978916,0.009158916771411896,1.0,-3.469446951953614e-18,5.204170427930421e-18,0.0
714.0,0.0,0.0,0.0,0.0,0.0,0.0,-0.008078076876699924,0.0213279128074646,0.0057818349450826645,1.0,-6.938893903907228e-18,-1.734723475976807e-18,-2.168404344971009e-19
715.0,0.0,0.0,0.0,0.0,0.0,0.0,-0.005838268436491489,0.024002745747566223,0.0028721627313643694,1.0,3.469446951953614e-18,-1.734723475976807e-18,-2.168404344971009e-19
716.0,0.0,0.0,0.0,0.0,0.0,0.0,0.00028337843832559884,0.02218320220708847,0.0006631255382671952,1.0,0.0,-3.469446951953614e-18,-3.2526065174565133e-19
717.0,0.0,0.0,0.0,0.0,0.0,0.0,-0.005644307937473059,0.024845188483595848,-0.0016527875559404492,1.0,3.469446951953614e-18,-3.469446951953614e-18,-5.421010862427522e-19
718.0,0.0,0.0,0.0,0.0,0.0,0.0,-0.014949989505112171,0.024672260507941246,-0.00436386140063405,1.0,0.0,1.734723475976807e-18,-2.168404344971009e-19
719.0,0.0,0.0,0.0,0.0,0.0,0.0,-0.009143748320639133,0.024664809927344322,0.005728266201913357,1.0,-3.469446951953614e-18,0.0,6.505213034913027e-19
720.0,0.0,0.0,0.0,0.0,0.0,0.0,-0.016687430441379547,0.02336815744638443,0.005776076577603817,1.0,0.0,-8.673617379884035e-19,4.87890977618477e-19
721.0,0.0,0.0,0.0,0.0,0.0,0.0,0.0056423586793243885,0.021972697228193283,0.009067666716873646,1.0,-3.469446951953614e-18,1.3010426069826053e-18,3.2526065174565133e-19
722.0,0.0,0.0,0.0,0.0,0.0,0.0,-0.014349414967000484,0.024647163227200508,-0.0027388548478484154,1.0,3.469446951953614e-18,0.0,-1.0570971181733668e-18
723.0,0.0,0.0,0.0,0.0,0.0,0.0,-0.014740998856723309,0.015367147512733936,-0.016765538603067398,1.0,3.469446951953614e-18,5.421010862427522e-20,-5.353248226647178e-19
724.0,0.0,0.0,0.0,0.0,0.0,0.0,-0.002616463229060173,0.016257574781775475,-0.0017714620335027575,1.0,0.0,-2.168404344971009e-19,-6.369687763352339e-19
725.0,0.0,0.0,0.0,0.0,0.0,0.0,-0.0012423498556017876,0.020729271695017815,0.003272351576015353,1.0,-3.469446951953614e-18,0.0,5.421010862427522e-19
726.0,0.0,0.0,0.0,0.0,0.0,0.0,-0.008960331790149212,0.011854858137667179,-0.01611570455133915,1.0,3.469446951953614e-18,4.336808689942018e-19,-2.439454888092385e-18
727.0,0.0,0.0,0.0,0.0,0.0,0.0,-0.007149153389036655,0.011546643450856209,-0.004804686177521944,1.0,-3.469446951953614e-18,1.734723475976807e-18,1.0299920638612292e-18
728.0,0.0,0.0,0.0,0.0,0.0,0.0,-0.0018380777910351753,0.010726617649197578,-0.008284727111458778,1.0,-3.469446951953614e-18,0.0,-1.2468324983583301e-18
729.0,0.0,0.0,0.0,0.0,0.0,0.0,0.006129108835011721,0.0008332023862749338,-0.01120314933359623,1.0,3.469446951953614e-18,-8.673617379884035e-19,2.0599841277224584e-18
730.0,0.0,0.0,0.0,0.0,0.0,0.0,0.01639472506940365,-0.00809321366250515,0.0007559876539744437,1.0,-3.469446951953614e-18,-1.734723475976807e-18,-1.734723475976807e-18
731.0,0.0,0.0,0.0,0.0,0.0,0.0,0.015567428432404995,-0.01654517836868763,-0.00990372709929943,1.0,3.469446951953614e-18,0.0,-7.589415207398531e-19
732.0,0.0,0.0,0.0,0.0,0.0,0.0,0.012677176855504513,-0.011069892905652523,0.0009348544990643859,1.0,-3.469446951953614e-18,-1.734723475976807e-18,-3.469446951953614e-18
733.0,0.0,0.0,0.0,0.0,0.0,0.0,0.011449485085904598,-0.010221447795629501,-0.0037583906669169664,1.0,0.0,-1.734723475976807e-18,2.6020852139652106e-18
734.0,0.0,0.0,0.0,0.0,0.0,0.0,0.007261795457452536,-0.007102875038981438,-0.005509732756763697,1.0,-3.469446951953614e-18,-1.734723475976807e-18,1.0842021724855044e-18
735.0,0.0,0.0,0.0,0.0,0.0,0.0,0.0012419447302818298,-0.009824228473007679,-0.010630181059241295,1.0,-3.469446951953614e-18,-5.204170427930421e-18,1.4094628242311558e-18
736.0,0.0,0.0,0.0,0.0,0.0,0.0,0.0007767875795252621,-0.014106467366218567,-0.009054308757185936,1.0,3.469446951953614e-18,-3.469446951953614e-18,3.0357660829594124e-18
737.0,0.0,0.0,0.0,0.0,0.0,0.0,-0.0001375505089526996,-0.010584278963506222,-0.007907547056674957,1.0,0.0,0.0,-1.0842021724855044e-19
738.0,0.0,0.0,0.0,0.0,0.0,0.0,-0.006189702078700066,-0.010107762180268764,-0.006538989022374153,1.0,0.0,5.204170427930421e-18,1.3010426069826053e-18
739.0,0.0,0.0,0.0,0.0,0.0,0.0,0.000987050123512745,-0.012880752794444561,-0.0020408499985933304,1.0,-3.469446951953614e-18,1.734723475976807e-18,1.951563910473908e-18
740.0,0.0,0.0,0.0,0.0,0.0,0.0,0.0027322566602379084,-0.010238941758871078,-0.0017323055071756244,1.0,-3.469446951953614e-18,0.0,-2.168404344971009e-19
741.0,0.0,0.0,0.0,0.0,0.0,0.0,-0.0063852290622889996,-0.00712131941691041,-0.005205763503909111,1.0,-6.938893903907228e-18,3.469446951953614e-18,-3.903127820947816e-18
742.0,0.0,0.0,0.0,0.0,0.0,0.0,-0.008046388626098633,-0.007234293036162853,0.0062367659993469715,1.0,-6.938893903907228e-18,-5.204170427930421e-18,-1.0842021724855044e-18
743.0,0.0,0.0,0.0,0.0,0.0,0.0,-0.0005776134203188121,-0.008841009810566902,0.006889079697430134,1.0,-6.938893903907228e-18,0.0,1.3010426069826053e-18
744.0,0.0,0.0,0.0,0.0,0.0,0.0,4.245928721502423e-05,-0.0037581275682896376,0.00312808551825583,1.0,-6.938893903907228e-18,0.0,-8.673617379884035e-19
745.0,0.0,0.0,0.0,0.0,0.0,0.0,-0.008165132254362106,-0.002035408280789852,0.00175601860973984,1.0,-3.469446951953614e-18,1.734723475976807e-18,-1.4094628242311558e-18
746.0,0.0,0.0,0.0,0.0,0.0,0.0,-0.011372189037501812,0.0007955287583172321,0.004125457257032394,1.0,-1.0408340855860843e-17,-1.734723475976807e-18,6.505213034913027e-19
747.0,0.0,0.0,0.0,0.0,0.0,0.0,-0.008379615843296051,0.0026748368982225657,0.0035537276417016983,1.0,6.938893903907228e-18,-8.673617379884035e-19,-2.6020852139652106e-18
748.0,0.0,0.0,0.0,0.0,0.0,0.0,-0.009852340444922447,-0.0014108986360952258,0.008542834781110287,1.0,0.0,8.673617379884035e-19,-7.589415207398531e-19
749.0,0.0,0.0,0.0,0.0,0.0,0.0,-0.00873622391372919,-0.003815948963165283,0.006770311389118433,1.0,0.0,-1.734723475976807e-18,-6.505213034913027e-19
750.0,0.0,0.0,0.0,0.0,0.0,0.0,-0.008447078987956047,-0.0026101607363671064,0.003711891593411565,1.0,6.938893903907228e-18,0.0,-1.0842021724855044e-19
751.0,0.0,0.0,0.0,0.0,0.0,0.0,-0.005666094366461039,-0.0024851723574101925,0.002589782699942589,1.0,-3.469446951953614e-18,1.734723475976807e-18,-3.2526065174565133e-19
752.0,0.0,0.0,0.0,0.0,0.0,0.0,-0.008581282570958138,0.0017425981350243092,0.0004832106060348451,1.0,6.938893903907228e-18,8.673617379884035e-19,-8.131516293641283e-19
753.0,0.0,0.0,0.0,0.0,0.0,0.0,-0.010723123326897621,-0.0006824277807027102,0.0008938128012232482,1.0,3.469446951953614e-18,-8.673617379884035e-19,9.215718466126788e-19
754.0,0.0,0.0,0.0,0.0,0.0,0.0,-0.006438244599848986,-0.003909651190042496,0.0020019637886434793,1.0,-3.469446951953614e-18,-4.336808689942018e-19,-1.0842021724855044e-19
755.0,0.0,0.0,0.0,0.0,0.0,0.0,-0.004749567247927189,-0.0013830203097313643,-0.0005394371110014617,1.0,-3.469446951953614e-18,8.673617379884035e-19,-1.0842021724855044e-18
756.0,0.0,0.0,0.0,0.0,0.0,0.0,-0.006605889648199081,-0.003576932242140174,-0.002394479000940919,1.0,3.469446951953614e-18,8.673617379884035e-19,-2.168404344971009e-19
757.0,0.0,0.0,0.0,0.0,0.0,0.0,-0.005766573362052441,-0.004990341607481241,0.0021098859142512083,1.0,-3.469446951953614e-18,-8.673617379884035e-19,-9.75781955236954e-19
758.0,0.0,0.0,0.0,0.0,0.0,0.0,0.0011983774602413177,-0.0063187433406710625,0.004765860736370087,1.0,3.469446951953614e-18,0.0,-2.710505431213761e-19
759.0,0.0,0.0,0.0,0.0,0.0,0.0,0.006322336383163929,-0.008734500966966152,0.003036281792446971,1.0,-3.469446951953614e-18,4.336808689942018e-19,-7.589415207398531e-19
760.0,0.0,0.0,0.0,0.0,0.0,0.0,0.0033823640551418066,-0.009128354489803314,-0.00031692246557213366,1.0,-3.469446951953614e-18,4.336808689942018e-19,-5.692061405548898e-19
761.0,0.0,0.0,0.0,0.0,0.0,0.0,0.00574659975245595,-0.009401552379131317,-0.0056667993776500225,1.0,-3.469446951953614e-18,1.3552527156068805e-20,-1.6093625997831706e-19
762.0,0.0,0.0,0.0,0.0,0.0,0.0,0.016027333214879036,-0.006984096020460129,-0.0027824221178889275,1.0,-6.938893903907228e-18,3.2526065174565133e-19,4.2012834183813297e-19
763.0,0.0,0.0,0.0,0.0,0.0,0.0,0.022851383313536644,-0.004483567085117102,-0.001077351626008749,1.0,0.0,2.168404344971009e-19,9.486769009248164e-19
764.0,0.0,0.0,0.0,0.0,0.0,0.0,0.014534464105963707,-0.0007807480869814754,-0.00131107063498348,1.0,-3.469446951953614e-18,0.0,0.0
765.0,0.0,0.0,0.0,0.0,0.0,0.0,0.007648895028978586,0.0015134213026612997,-0.0013898740289732814,1.0,-3.469446951953614e-18,4.336808689942018e-19,1.0842021724855044e-19
766.0,0.0,0.0,0.0,0.0,0.0,0.0,0.01709582470357418,-0.0005734763690270483,8.020244422368705e-06,1.0,3.469446951953614e-18,0.0,-1.0842021724855044e-19
767.0,0.0,0.0,0.0,0.0,0.0,0.0,0.019048787653446198,-0.0025472028646618128,0.004052781965583563,1.0,0.0,-8.673617379884035e-19,2.710505431213761e-19
768.0,0.0,0.0,0.0,0.0,0.0,0.0,0.018589667975902557,-0.004531979560852051,0.002985071623697877,1.0,0.0,-8.673617379884035e-19,5.421010862427522e-20
769.0,0.0,0.0,0.0,0.0,0.0,0.0,0.02042756974697113,-0.004484010860323906,0.007604050915688276,1.0,3.469446951953614e-18,0.0,5.421010862427522e-19
770.0,0.0,0.0,0.0,0.0,0.0,0.0,0.022600408643484116,-0.00020791025599464774,0.009833148680627346,1.0,0.0,0.0,4.87890977618477e-19
771.0,0.0,0.0,0.0,0.0,0.0,0.0,0.02141130529344082,0.007035792339593172,0.010154657997190952,1.0,3.469446951953614e-18,8.673617379884035e-19,4.336808689942018e-19
772.0,0.0,0.0,0.0,0.0,0.0,0.0,0.022663040086627007,0.005748325958848,0.011015539988875389,1.0,0.0,0.0,-4.336808689942018e-19
773.0,0.0,0.0,0.0,0.0,0.0,0.0,0.01623021438717842,0.004745312500745058,0.007339327596127987,1.0,3.469446951953614e-18,0.0,4.336808689942018e-19
774.0,0.0,0.0,0.0,0.0,0.0,0.0,0.004096921067684889,0.006075643468648195,0.0010378437582403421,1.0,-3.469446951953614e-18,2.6020852139652106e-18,-3.2526065174565133e-19
775.0,0.0,0.0,0.0,0.0,0.0,0.0,0.010048091411590576,0.014372497797012329,0.0001970998418983072,1.0,0.0,0.0,-5.421010862427522e-19
776.0,0.0,0.0,0.0,0.0,0.0,0.0,0.010312716476619244,0.019932130351662636,-0.00478338822722435,1.0,-3.469446951953614e-18,0.0,2.168404344971009e-19
777.0,0.0,0.0,0.0,0.0,0.0,0.0,0.009534121491014957,0.013668681494891644,-0.003250107169151306,1.0,-3.469446951953614e-18,0.0,3.2526065174565133e-19
778.0,0.0,0.0,0.0,0.0,0.0,0.0,0.013294674456119537,0.006380578503012657,-0.003332794876769185,1.0,0.0,-1.734723475976807e-18,0.0
779.0,0.0,0.0,0.0,0.0,0.0,0.0,0.01618870161473751,0.005367742385715246,0.0006203797529451549,1.0,0.0,4.336808689942018e-19,-5.421010862427522e-20
780.0,0.0,0.0,0.0,0.0,0.0,0.0,0.0071436138823628426,0.009455997496843338,-0.006158425007015467,1.0,0.0,4.336808689942018e-19,0.0
781.0,0.0,0.0,0.0,0.0,0.0,0.0,-0.009703065268695354,0.005816941615194082,-0.01150200143456459,1.0,-3.469446951953614e-18,0.0,8.131516293641283e-20
782.0,0.0,0.0,0.0,0.0,0.0,0.0,-0.002304455731064081,-0.0074572814628481865,-0.008766126818954945,1.0,0.0,2.168404344971009e-19,0.0
783.0,0.0,0.0,0.0,0.0,0.0,0.0,-0.004167140461504459,-0.011837675236165524,0.0009705675765872002,1.0,0.0,-1.0842021724855044e-19,2.981555974335137e-19
784.0,0.0,0.0,0.0,0.0,0.0,0.0,-0.018502252176404,-0.003855363931506872,-0.0028608497232198715,1.0,-3.469446951953614e-18,5.421010862427522e-20,1.5585406229479126e-19
785.0,0.0,0.0,0.0,0.0,0.0,0.0,-0.026864977553486824,0.006140140350908041,-0.009631604887545109,1.0,3.469446951953614e-18,0.0,-1.4230153513872246e-19
786.0,0.0,0.0,0.0,0.0,0.0,0.0,-0.021094506606459618,0.0047235949896276,-0.0036384921986609697,1.0,3.469446951953614e-18,0.0,-7.318364664277155e-19
787.0,0.0,0.0,0.0,0.0,0.0,0.0,-0.012570098042488098,0.005410312209278345,-0.009238000027835369,1.0,3.469446951953614e-18,-4.336808689942018e-19,-2.710505431213761e-19
788.0,0.0,0.0,0.0,0.0,0.0,0.0,-0.022007912397384644,0.008022261783480644,-0.012906917370855808,1.0,0.0,0.0,-3.9302328752599536e-19
789.0,0.0,0.0,0.0,0.0,0.0,0.0,-0.017455874010920525,0.0009527746005915105,-0.007396803703159094,1.0,0.0,2.168404344971009e-19,9.622294280808852e-19
790.0,0.0,0.0,0.0,0.0,0.0,0.0,-0.012472706846892834,-0.0007157039945013821,-0.0033042053692042828,1.0,1.0408340855860843e-17,4.336808689942018e-19,6.2341624917916505e-19
791.0,0.0,0.0,0.0,0.0,0.0,0.0,-0.01556746568530798,0.0034855070989578962,-0.0005847381544299424,1.0,-3.469446951953614e-18,-6.505213034913027e-19,5.149960319306146e-19
792.0,0.0,0.0,0.0,0.0,0.0,0.0,-0.01172561850398779,0.0008027722360566258,0.0008963894215412438,1.0,-3.469446951953614e-18,-4.336808689942018e-19,-6.2341624917916505e-19
793.0,0.0,0.0,0.0,0.0,0.0,0.0,-0.008741272613406181,0.0006492756656371057,0.003919775597751141,1.0,0.0,1.3010426069826053e-18,0.0
794.0,0.0,0.0,0.0,0.0,0.0,0.0,-0.0074618845246732235,0.0028205018024891615,0.001801519189029932,1.0,0.0,4.336808689942018e-19,1.6263032587282567e-18
795.0,0.0,0.0,0.0,0.0,0.0,0.0,-0.010049178265035152,-0.0028242790140211582,0.0008004557457752526,1.0,3.469446951953614e-18,-4.336808689942018e-19,7.589415207398531e-19
796.0,0.0,0.0,0.0,0.0,0.0,0.0,-0.008854806423187256,-0.009429804980754852,0.0024267451371997595,1.0,-3.469446951953614e-18,8.673617379884035e-19,2.3852447794681098e-18
797.0,0.0,0.0,0.0,0.0,0.0,0.0,-0.011708933860063553,-0.009275754913687706,0.003357577370479703,1.0,0.0,-8.673617379884035e-19,-3.2526065174565133e-19
798.0,0.0,0.0,0.0,0.0,0.0,0.0,-0.010044011287391186,-0.005953798070549965,0.003394726198166609,1.0,-6.938893903907228e-18,-1.734723475976807e-18,-1.951563910473908e-18
799.0,0.0,0.0,0.0,0.0,0.0,0.0,-0.011852986179292202,-0.006620548199862242,-8.420662197750062e-05,1.0,-6.938893903907228e-18,-8.673617379884035e-19,8.673617379884035e-19
800.0,0.0,0.0,0.0,0.0,0.0,0.0,-0.00905552040785551,-0.006058861035853624,-0.002287243725731969,1.0,-1.3877787807814457e-17,1.734723475976807e-18,1.6263032587282567e-18
801.0,0.0,0.0,0.0,0.0,0.0,0.0,-0.005975379608571529,-0.005814137402921915,-0.0036923245061188936,1.0,6.938893903907228e-18,-8.673617379884035e-19,1.0842021724855044e-18
802.0,0.0,0.0,0.0,0.0,0.0,0.0,-0.0013041129568591714,-0.007024229504168034,-0.006845295429229736,1.0,6.938893903907228e-18,1.734723475976807e-18,-6.505213034913027e-19
803.0,0.0,0.0,0.0,0.0,0.0,0.0,0.0036296534817665815,-0.0018603465287014842,7.099389040376991e-05,1.0,0.0,0.0,2.168404344971009e-19
804.0,0.0,0.0,0.0,0.0,0.0,0.0,0.001271946937777102,-0.0016176721546798944,0.0008254626300185919,1.0,-6.938893903907228e-18,0.0,-6.505213034913027e-19
805.0,0.0,0.0,0.0,0.0,0.0,0.0,0.0021629673428833485,-0.003671980230137706,0.004319092258810997,1.0,0.0,1.734723475976807e-18,0.0
806.0,0.0,0.0,0.0,0.0,0.0,0.0,-0.002088280627503991,0.003739607287570834,0.003887630533427,1.0,0.0,-1.734723475976807e-18,6.505213034913027e-19
807.0,0.0,0.0,0.0,0.0,0.0,0.0,-0.004111189860850573,0.010204387828707695,0.0009253659518435597,1.0,0.0,0.0,-2.168404344971009e-19
808.0,0.0,0.0,0.0,0.0,0.0,0.0,0.0029343264177441597,0.009151915088295937,0.007151548285037279,1.0,1.3877787807814457e-17,-1.734723475976807e-18,-2.168404344971009e-19
809.0,0.0,0.0,0.0,0.0,0.0,0.0,0.008874064311385155,0.0031325919553637505,0.012022321112453938,1.0,-2.7755575615628914e-17,0.0,2.168404344971009e-19
810.0,0.0,0.0,0.0,0.0,0.0,0.0,0.0019176641944795847,-0.00048500506090931594,0.013599024154245853,1.0,-6.938893903907228e-18,-3.469446951953614e-18,0.0
811.0,0.0,0.0,0.0,0.0,0.0,0.0,-0.004231720231473446,-0.0048269652761518955,0.01184053160250187,1.0,6.938893903907228e-18,0.0,-2.168404344971009e-19
812.0,0.0,0.0,0.0,0.0,0.0,0.0,-0.0031163645908236504,-0.0006740922690369189,0.01061664056032896,1.0,-6.938893903907228e-18,1.734723475976807e-18,-8.673617379884035e-19
813.0,0.0,0.0,0.0,0.0,0.0,0.0,-0.005149629898369312,0.009459967724978924,0.014086301438510418,1.0,0.0,0.0,4.336808689942018e-19
814.0,0.0,0.0,0.0,0.0,0.0,0.0,0.0004235751985106617,0.012618188746273518,0.020435135811567307,1.0,1.3877787807814457e-17,-3.469446951953614e-18,1.734723475976807e-18
815.0,0.0,0.0,0.0,0.0,0.0,0.0,5.596779374172911e-05,0.007563178427517414,0.01796366460621357,1.0,-6.938893903907228e-18,1.734723475976807e-18,-2.168404344971009e-19
816.0,0.0,0.0,0.0,0.0,0.0,0.0,0.01219481136649847,0.00202517444267869,0.022081639617681503,1.0,0.0,0.0,1.3010426069826053e-18
817.0,0.0,0.0,0.0,0.0,0.0,0.0,0.029225219041109085,-0.0011792867444455624,0.024900289252400398,1.0,-6.938893903907228e-18,0.0,-3.2526065174565133e-19
818.0,0.0,0.0,0.0,0.0,0.0,0.0,0.01821533590555191,0.0014695478603243828,0.01517108827829361,1.0,1.0408340855860843e-17,-4.336808689942018e-19,-1.4094628242311558e-18
819.0,0.0,0.0,0.0,0.0,0.0,0.0,0.008462954312562943,0.007844921201467514,0.007183659356087446,1.0,3.469446951953614e-18,-2.168404344971009e-19,-1.5720931501039814e-18
820.0,0.0,0.0,0.0,0.0,0.0,0.0,0.008210732601583004,0.007029898930341005,0.007595976814627647,1.0,-3.469446951953614e-18,-2.168404344971009e-19,-8.267041565201971e-19
821.0,0.0,0.0,0.0,0.0,0.0,0.0,0.017306163907051086,0.011517303995788097,0.013324322178959846,1.0,0.0,4.336808689942018e-19,2.168404344971009e-19
822.0,0.0,0.0,0.0,0.0,0.0,0.0,-0.034799300134181976,0.019115714356303215,-0.00883425958454609,1.0,-3.469446951953614e-18,8.673617379884035e-19,4.87890977618477e-19
823.0,0.0,0.0,0.0,0.0,0.0,0.0,-0.024186115711927414,0.008134618401527405,-0.029661893844604492,1.0,-3.469446951953614e-18,8.673617379884035e-19,5.421010862427522e-20
824.0,0.0,0.0,0.0,0.0,0.0,0.0,-0.029140401631593704,0.004045573994517326,-0.026327084749937057,1.0,0.0,0.0,1.0842021724855044e-19
825.0,0.0,0.0,0.0,0.0,0.0,0.0,-0.03107181377708912,0.01633612811565399,-0.01825721003115177,1.0,-3.469446951953614e-18,8.673617379884035e-19,0.0
826.0,0.0,0.0,0.0,0.0,0.0,0.0,-0.012020613998174667,0.008608577772974968,-0.03696797415614128,1.0,0.0,0.0,-1.0842021724855044e-19
827.0,0.0,0.0,0.0,0.0,0.0,0.0,0.003966756630688906,0.008247156627476215,-0.009866040199995041,1.0,-3.469446951953614e-18,-3.469446951953614e-18,4.336808689942018e-19
828.0,0.0,0.0,0.0,0.0,0.0,0.0,0.007712048478424549,-0.0018473351374268532,-0.027980688959360123,1.0,-3.469446951953614e-18,1.734723475976807e-18,-8.673617379884035e-19
829.0,0.0,0.0,0.0,0.0,0.0,0.0,0.012335484847426414,-0.004695361480116844,-0.011632203124463558,1.0,1.0408340855860843e-17,1.734723475976807e-18,-6.505213034913027e-19
830.0,0.0,0.0,0.0,0.0,0.0,0.0,0.017386844381690025,-0.016933422535657883,-0.023768829181790352,1.0,-3.469446951953614e-18,-3.469446951953614e-18,-6.505213034913027e-19
831.0,0.0,0.0,0.0,0.0,0.0,0.0,0.025287851691246033,-0.017523081973195076,-0.00563768669962883,1.0,3.469446951953614e-18,1.734723475976807e-18,-1.951563910473908e-18
832.0,0.0,0.0,0.0,0.0,0.0,0.0,0.018208879977464676,-0.017498044297099113,-0.008284803479909897,1.0,3.469446951953614e-18,-1.734723475976807e-18,0.0
833.0,0.0,0.0,0.0,0.0,0.0,0.0,0.015264780260622501,-0.02299172803759575,-0.005374457687139511,1.0,1.0408340855860843e-17,0.0,-1.0842021724855044e-18
834.0,0.0,0.0,0.0,0.0,0.0,0.0,0.025577694177627563,-0.016638273373246193,0.007201450876891613,1.0,0.0,3.469446951953614e-18,-1.5178830414797062e-18
835.0,0.0,0.0,0.0,0.0,0.0,0.0,0.009813744574785233,-0.012239933013916016,0.004361470229923725,1.0,0.0,0.0,-4.336808689942018e-19
836.0,0.0,0.0,0.0,0.0,0.0,0.0,0.00431195180863142,-0.012626062147319317,0.00087354687275365,1.0,-6.938893903907228e-18,0.0,-2.3852447794681098e-18
837.0,0.0,0.0,0.0,0.0,0.0,0.0,0.008166102692484856,-0.016908518970012665,0.005589325912296772,1.0,3.469446951953614e-18,3.469446951953614e-18,-4.336808689942018e-19
838.0,0.0,0.0,0.0,0.0,0.0,0.0,0.006102532148361206,-0.02118304930627346,0.004511314444243908,1.0,3.469446951953614e-18,1.734723475976807e-18,1.734723475976807e-18
839.0,0.0,0.0,0.0,0.0,0.0,0.0,0.006524568423628807,-0.025716058909893036,0.007700176909565926,1.0,6.938893903907228e-18,-3.469446951953614e-18,2.6020852139652106e-18
840.0,0.0,0.0,0.0,0.0,0.0,0.0,0.005470754113048315,-0.030007820576429367,0.005108406767249107,1.0,0.0,1.734723475976807e-18,2.168404344971009e-19
841.0,0.0,0.0,0.0,0.0,0.0,0.0,0.0077191744931042194,-0.034077875316143036,0.006684698164463043,1.0,-3.469446951953614e-18,0.0,-1.734723475976807e-18
842.0,0.0,0.0,0.0,0.0,0.0,0.0,0.01829097419977188,-0.03384004533290863,0.013538943603634834,1.0,0.0,1.734723475976807e-18,0.0
843.0,0.0,0.0,0.0,0.0,0.0,0.0,0.023581882938742638,-0.036351971328258514,0.015641815960407257,1.0,-3.469446951953614e-18,0.0,3.2526065174565133e-19
844.0,0.0,0.0,0.0,0.0,0.0,0.0,0.01719604805111885,-0.04413175955414772,0.009947799146175385,1.0,-3.469446951953614e-18,0.0,0.0
845.0,0.0,0.0,0.0,0.0,0.0,0.0,0.0002972817455884069,-0.03964969143271446,0.006712785456329584,1.0,3.469446951953614e-18,0.0,-1.0842021724855044e-19
846.0,0.0,0.0,0.0,0.0,0.0,0.0,-0.012127738445997238,-0.032276272773742676,0.006681371014565229,1.0,0.0,0.0,0.0
847.0,0.0,0.0,0.0,0.0,0.0,0.0,-0.011202366091310978,-0.027914054691791534,0.007604112382978201,1.0,3.469446951953614e-18,1.734723475976807e-18,5.421010862427522e-20
848.0,0.0,0.0,0.0,0.0,0.0,0.0,-0.009732313454151154,-0.023347033187747,0.01253234501928091,1.0,0.0,-4.336808689942018e-19,1.0028870095490916e-18
849.0,0.0,0.0,0.0,0.0,0.0,0.0,-0.008107504807412624,-0.026913942769169807,0.0026293525006622076,1.0,3.469446951953614e-18,-3.2526065174565133e-19,-5.55653613398821e-19
850.0,0.0,0.0,0.0,0.0,0.0,0.0,-0.0013269996270537376,-0.02753337472677231,0.00627887574955821,1.0,-6.938893903907228e-18,2.168404344971009e-19,-1.3552527156068805e-19
851.0,0.0,0.0,0.0,0.0,0.0,0.0,0.0023665991611778736,-0.025971848517656326,0.006057143677026033,1.0,-3.469446951953614e-18,0.0,-9.75781955236954e-19
852.0,0.0,0.0,0.0,0.0,0.0,0.0,0.0031301300041377544,-0.02355540730059147,0.00449006725102663,1.0,0.0,-8.673617379884035e-19,8.673617379884035e-19
853.0,0.0,0.0,0.0,0.0,0.0,0.0,-0.0018777952063828707,-0.016393428668379784,-0.0014023738913238049,1.0,-3.469446951953614e-18,-1.734723475976807e-18,-1.1926223897340549e-18
854.0,0.0,0.0,0.0,0.0,0.0,0.0,-0.021630456671118736,-0.005785227287560701,-0.00466989865526557,1.0,0.0,0.0,-2.927345865710862e-18
855.0,0.0,0.0,0.0,0.0,0.0,0.0,-0.022446608170866966,0.0050264145247638226,-0.011341337114572525,1.0,3.469446951953614e-18,1.734723475976807e-18,1.0842021724855044e-18
856.0,0.0,0.0,0.0,0.0,0.0,0.0,-0.015333186835050583,0.021908218041062355,-0.015890611335635185,1.0,3.469446951953614e-18,-3.469446951953614e-18,2.168404344971009e-18
857.0,0.0,0.0,0.0,0.0,0.0,0.0,-0.016116168349981308,0.0292603000998497,-0.007823154330253601,1.0,-3.469446951953614e-18,0.0,-1.3010426069826053e-18
858.0,0.0,0.0,0.0,0.0,0.0,0.0,-0.0121697336435318,0.028055798262357712,-0.002838008338585496,1.0,-3.469446951953614e-18,3.469446951953614e-18,-3.469446951953614e-18
859.0,0.0,0.0,0.0,0.0,0.0,0.0,-0.01917289011180401,0.030154641717672348,-0.005809886381030083,1.0,3.469446951953614e-18,0.0,-3.0357660829594124e-18
860.0,0.0,0.0,0.0,0.0,0.0,0.0,-0.0029978672973811626,0.01827838644385338,5.83821747568436e-05,1.0,0.0,0.0,1.3010426069826053e-18
861.0,0.0,0.0,0.0,0.0,0.0,0.0,0.003493664087727666,0.012584644369781017,0.002289943862706423,1.0,3.469446951953614e-18,3.469446951953614e-18,3.469446951953614e-18
862.0,0.0,0.0,0.0,0.0,0.0,0.0,0.00048428415902890265,0.022790629416704178,0.005180342588573694,1.0,0.0,-6.938893903907228e-18,-1.0842021724855044e-18
863.0,0.0,0.0,0.0,0.0,0.0,0.0,-0.0031866978388279676,0.025740206241607666,0.006102804560214281,1.0,3.469446951953614e-18,3.469446951953614e-18,2.168404344971009e-19
864.0,0.0,0.0,0.0,0.0,0.0,0.0,-0.011380903422832489,0.029363568872213364,0.00564152467995882,1.0,0.0,-3.469446951953614e-18,6.505213034913027e-19
865.0,0.0,0.0,0.0,0.0,0.0,0.0,-0.0007567838183604181,0.027545930817723274,0.0068098148331046104,1.0,-3.469446951953614e-18,3.469446951953614e-18,-2.6020852139652106e-18
866.0,0.0,0.0,0.0,0.0,0.0,0.0,-0.00014615259715355933,0.021925967186689377,0.011145113967359066,1.0,0.0,0.0,-6.505213034913027e-19
867.0,0.0,0.0,0.0,0.0,0.0,0.0,0.015853973105549812,0.005462407600134611,0.01156241912394762,1.0,-1.734723475976807e-18,3.469446951953614e-18,-9.75781955236954e-19
868.0,0.0,0.0,0.0,0.0,0.0,0.0,0.018981454893946648,-0.002196047455072403,0.0031977135222405195,1.0,-1.734723475976807e-18,-3.469446951953614e-18,1.0842021724855044e-19
869.0,0.0,0.0,0.0,0.0,0.0,0.0,0.01607677713036537,-0.0028348704800009727,0.0026845568791031837,1.0,1.734723475976807e-18,0.0,-4.336808689942018e-19
870.0,0.0,0.0,0.0,0.0,0.0,0.0,0.01932384818792343,-0.0017113698413595557,-0.0023554807994514704,1.0,0.0,-8.673617379884035e-19,2.168404344971009e-19
871.0,0.0,0.0,0.0,0.0,0.0,0.0,0.022094346582889557,0.00031576966284774244,-0.0032055331394076347,1.0,-5.204170427930421e-18,4.336808689942018e-19,-1.0842021724855044e-19
872.0,0.0,0.0,0.0,0.0,0.0,0.0,0.022290760651230812,0.0009437924600206316,-0.0032502624671906233,1.0,0.0,-5.421010862427522e-20,-4.70950318673391e-19
873.0,0.0,0.0,0.0,0.0,0.0,0.0,0.01232795137912035,0.00042168254731222987,-0.010634803213179111,1.0,0.0,0.0,-4.743384504624082e-19
874.0,0.0,0.0,0.0,0.0,0.0,0.0,0.016314402222633362,-4.8166908527491614e-05,-0.0040594046004116535,1.0,-1.734723475976807e-18,-4.336808689942018e-19,2.168404344971009e-19
875.0,0.0,0.0,0.0,0.0,0.0,0.0,0.010143009945750237,0.007777062244713306,-0.003933137282729149,1.0,-3.469446951953614e-18,0.0,1.3552527156068805e-19
876.0,0.0,0.0,0.0,0.0,0.0,0.0,0.0002480951079633087,0.009056084789335728,-0.020439228042960167,1.0,-3.469446951953614e-18,8.673617379884035e-19,-2.168404344971009e-19
877.0,0.0,0.0,0.0,0.0,0.0,0.0,0.008358028717339039,0.0015529015799984336,-0.009836423210799694,1.0,3.469446951953614e-18,8.673617379884035e-19,5.421010862427522e-20
878.0,0.0,0.0,0.0,0.0,0.0,0.0,0.02013291046023369,-0.011420835740864277,0.000383780017727986,1.0,-3.469446951953614e-18,0.0,5.421010862427522e-20
879.0,0.0,0.0,0.0,0.0,0.0,0.0,0.019111178815364838,-0.012559844180941582,0.002262347610667348,1.0,-1.734723475976807e-18,0.0,1.6263032587282567e-19
880.0,0.0,0.0,0.0,0.0,0.0,0.0,0.016090961173176765,-0.010700132697820663,0.00042745459359139204,1.0,0.0,0.0,3.2526065174565133e-19
881.0,0.0,0.0,0.0,0.0,0.0,0.0,0.01321058813482523,-0.011282067745923996,-0.00472108693793416,1.0,0.0,0.0,-1.0842021724855044e-19
882.0,0.0,0.0,0.0,0.0,0.0,0.0,0.006281423382461071,-0.012935256585478783,-0.002036025281995535,1.0,0.0,1.734723475976807e-18,2.168404344971009e-19
883.0,0.0,0.0,0.0,0.0,0.0,0.0,0.005086615681648254,-0.01307388860732317,0.0004777829453814775,1.0,0.0,-3.469446951953614e-18,6.505213034913027e-19
884.0,0.0,0.0,0.0,0.0,0.0,0.0,0.005554763600230217,-0.009447230026125908,0.004166828468441963,1.0,0.0,1.734723475976807e-18,-3.2526065174565133e-19
885.0,0.0,0.0,0.0,0.0,0.0,0.0,0.0037518751341849566,-0.00925107765942812,0.0043157110922038555,1.0,1.734723475976807e-18,1.734723475976807e-18,6.505213034913027e-19
886.0,0.0,0.0,0.0,0.0,0.0,0.0,0.0005871381727047265,-0.007751078810542822,0.0017748570535331964,1.0,0.0,0.0,-6.505213034913027e-19
887.0,0.0,0.0,0.0,0.0,0.0,0.0,-0.0017979779513552785,-0.007159189321100712,-0.0005815812037326396,1.0,-3.469446951953614e-18,0.0,2.168404344971009e-19
888.0,0.0,0.0,0.0,0.0,0.0,0.0,-0.006491048261523247,-0.00816364586353302,-0.000290441996185109,1.0,-3.469446951953614e-18,-8.673617379884035e-19,5.421010862427522e-20
889.0,0.0,0.0,0.0,0.0,0.0,0.0,-0.007683654315769672,-0.007718243170529604,-0.0013635315699502826,1.0,0.0,-1.734723475976807e-18,-1.6263032587282567e-19
890.0,0.0,0.0,0.0,0.0,0.0,0.0,-0.007913603447377682,-0.005681877490133047,-0.005685192067176104,1.0,3.469446951953614e-18,-8.673617379884035e-19,5.421010862427522e-20
891.0,0.0,0.0,0.0,0.0,0.0,0.0,-0.005204928107559681,-0.00298099871724844,-0.0012096554273739457,1.0,3.469446951953614e-18,8.673617379884035e-19,-1.6263032587282567e-19
892.0,0.0,0.0,0.0,0.0,0.0,0.0,-0.0052766352891922,-0.0004932537558488548,-0.00019039252947550267,1.0,-3.469446951953614e-18,8.673617379884035e-19,0.0
893.0,0.0,0.0,0.0,0.0,0.0,0.0,-0.01367783360183239,-0.006134724710136652,0.00042794158798642457,1.0,-3.469446951953614e-18,8.673617379884035e-19,5.421010862427522e-20
894.0,0.0,0.0,0.0,0.0,0.0,0.0,-0.023524217307567596,-0.014823541045188904,-0.00298841530457139,1.0,3.469446951953614e-18,-8.673617379884035e-19,1.6263032587282567e-19
895.0,0.0,0.0,0.0,0.0,0.0,0.0,-0.021248189732432365,-0.016247978433966637,-0.0026741218753159046,1.0,1.734723475976807e-18,1.734723475976807e-18,5.421010862427522e-20
896.0,0.0,0.0,0.0,0.0,0.0,0.0,-0.017500070855021477,-0.016759540885686874,-0.003297633258625865,1.0,1.734723475976807e-18,-1.734723475976807e-18,-2.168404344971009e-19
897.0,0.0,0.0,0.0,0.0,0.0,0.0,-0.01168508268892765,-0.014773835428059101,0.0013155991910025477,1.0,-3.469446951953614e-18,-8.673617379884035e-19,4.0657581468206416e-19
898.0,0.0,0.0,0.0,0.0,0.0,0.0,-0.0061703696846961975,-0.017802465707063675,-0.0020009183790534735,1.0,3.469446951953614e-18,0.0,1.8973538018496328e-19
899.0,0.0,0.0,0.0,0.0,0.0,0.0,-0.002216905355453491,-0.014253445900976658,0.005076643079519272,1.0,0.0,0.0,-1.7618285302889447e-19
900.0,0.0,0.0,0.0,0.0,0.0,0.0,-0.00013916548050474375,-0.00628543458878994,0.005774847697466612,1.0,1.734723475976807e-18,0.0,4.404571325722362e-20
901.0,0.0,0.0,0.0,0.0,0.0,0.0,-0.004475080408155918,-0.0018495754338800907,0.005832374095916748,1.0,0.0,1.0842021724855044e-19,-6.708500942254059e-19
902.0,0.0,0.0,0.0,0.0,0.0,0.0,-0.007286387495696545,0.006115336436778307,0.0027196069713681936,1.0,-3.469446951953614e-18,0.0,1.8973538018496328e-19
903.0,0.0,0.0,0.0,0.0,0.0,0.0,-0.007084243930876255,0.009674424305558205,-0.0012163663050159812,1.0,1.734723475976807e-18,0.0,-2.981555974335137e-19
904.0,0.0,0.0,0.0,0.0,0.0,0.0,-0.004667228553444147,0.008766368962824345,0.0015916498377919197,1.0,0.0,0.0,-1.1926223897340549e-18
905.0,0.0,0.0,0.0,0.0,0.0,0.0,0.002777094952762127,-0.0035180049017071724,-3.197571641067043e-05,1.0,1.734723475976807e-18,8.673617379884035e-19,-2.1141942363467336e-18
906.0,0.0,0.0,0.0,0.0,0.0,0.0,0.01096913032233715,-0.008509200997650623,-0.002285812282934785,1.0,-1.734723475976807e-18,1.734723475976807e-18,-5.963111948670274e-19
907.0,0.0,0.0,0.0,0.0,0.0,0.0,0.0171621385961771,-0.00589974969625473,-0.006288155447691679,1.0,-1.734723475976807e-18,-3.469446951953614e-18,7.589415207398531e-19
908.0,0.0,0.0,0.0,0.0,0.0,0.0,0.025417376309633255,-0.003688948694616556,-0.005559640005230904,1.0,1.734723475976807e-18,1.734723475976807e-18,-1.1926223897340549e-18
909.0,0.0,0.0,0.0,0.0,0.0,0.0,0.030984219163656235,-0.00703816581517458,-0.002732529304921627,1.0,1.734723475976807e-18,-1.734723475976807e-18,-2.168404344971009e-19
910.0,0.0,0.0,0.0,0.0,0.0,0.0,0.029702140018343925,-0.009162810631096363,-0.004208130296319723,1.0,1.734723475976807e-18,-1.734723475976807e-18,6.505213034913027e-19
911.0,0.0,0.0,0.0,0.0,0.0,0.0,0.029730085283517838,-0.017442135140299797,-0.009308855049312115,1.0,-3.469446951953614e-18,-1.734723475976807e-18,-5.421010862427522e-19
912.0,0.0,0.0,0.0,0.0,0.0,0.0,0.04450611025094986,-0.017603415995836258,-0.00683604646474123,1.0,1.734723475976807e-18,-1.734723475976807e-18,-8.673617379884035e-19
913.0,0.0,0.0,0.0,0.0,0.0,0.0,0.06189381331205368,-0.02356284111738205,-0.002426665276288986,1.0,3.469446951953614e-18,0.0,-2.8189256484623115e-18
914.0,0.0,0.0,0.0,0.0,0.0,0.0,0.04659934341907501,-0.010160679928958416,0.002632747869938612,1.0,6.938893903907228e-18,0.0,8.673617379884035e-19
915.0,0.0,0.0,0.0,0.0,0.0,0.0,0.017620326951146126,-0.0012699399376288056,-0.011521185748279095,1.0,0.0,3.469446951953614e-18,-2.6020852139652106e-18
916.0,0.0,0.0,0.0,0.0,0.0,0.0,0.028616400435566902,-0.0019741819705814123,-0.001565424376167357,1.0,0.0,-3.469446951953614e-18,-4.336808689942018e-19
917.0,0.0,0.0,0.0,0.0,0.0,0.0,0.020919134840369225,0.00032670580549165606,-0.0004459870979189873,1.0,3.469446951953614e-18,0.0,-8.673617379884035e-19
918.0,0.0,0.0,0.0,0.0,0.0,0.0,0.027883905917406082,-0.004385404288768768,0.0018353289924561977,1.0,0.0,-3.469446951953614e-18,-8.673617379884035e-19
919.0,0.0,0.0,0.0,0.0,0.0,0.0,0.017598887905478477,-0.008632280863821507,0.0014940942637622356,1.0,3.469446951953614e-18,-3.469446951953614e-18,1.3010426069826053e-18
920.0,0.0,0.0,0.0,0.0,0.0,0.0,-0.0011285596992820501,0.016865799203515053,-0.0015758494846522808,1.0,3.469446951953614e-18,0.0,-1.5178830414797062e-18
921.0,0.0,0.0,0.0,0.0,0.0,0.0,-0.015012796968221664,0.03274715691804886,-0.0023318936582654715,1.0,3.469446951953614e-18,0.0,2.3852447794681098e-18
922.0,0.0,0.0,0.0,0.0,0.0,0.0,-0.02151893451809883,0.031095921993255615,-0.0006396344979293644,1.0,-6.938893903907228e-18,0.0,2.8189256484623115e-18
923.0,0.0,0.0,0.0,0.0,0.0,0.0,-0.028484640643000603,0.026234392076730728,0.0009184299851767719,1.0,-3.469446951953614e-18,0.0,-1.734723475976807e-18
924.0,0.0,0.0,0.0,0.0,0.0,0.0,-0.02753257006406784,0.019716432318091393,0.0023809834383428097,1.0,-6.938893903907228e-18,-3.469446951953614e-18,1.0842021724855044e-18
925.0,0.0,0.0,0.0,0.0,0.0,0.0,-0.029021330177783966,0.01803448051214218,0.004524558316916227,1.0,6.938893903907228e-18,-1.0408340855860843e-17,2.3852447794681098e-18
926.0,0.0,0.0,0.0,0.0,0.0,0.0,-0.009974134154617786,0.01033262349665165,0.010697446763515472,1.0,-3.469446951953614e-18,-3.469446951953614e-18,3.686287386450715e-18
927.0,0.0,0.0,0.0,0.0,0.0,0.0,-0.00579786766320467,0.0041883853264153,0.010578826069831848,1.0,3.469446951953614e-18,0.0,-1.951563910473908e-18
928.0,0.0,0.0,0.0,0.0,0.0,0.0,-0.01010950282216072,0.0036521432921290398,0.005658441223204136,1.0,6.938893903907228e-18,3.469446951953614e-18,-3.469446951953614e-18
929.0,0.0,0.0,0.0,0.0,0.0,0.0,0.0012252030428498983,-0.00901887845247984,0.007149531040340662,1.0,-3.469446951953614e-18,6.938893903907228e-18,-1.0842021724855044e-18
930.0,0.0,0.0,0.0,0.0,0.0,0.0,0.02372572012245655,-0.017636680975556374,0.011106729507446289,1.0,6.938893903907228e-18,6.938893903907228e-18,-6.505213034913027e-19
931.0,0.0,0.0,0.0,0.0,0.0,0.0,0.013606108725070953,-0.002183927921578288,0.006326156202703714,1.0,0.0,3.469446951953614e-18,1.0842021724855044e-18
932.0,0.0,0.0,0.0,0.0,0.0,0.0,0.008182667195796967,-0.0035384020302444696,-0.0036658267490565777,1.0,-5.204170427930421e-18,6.938893903907228e-18,-1.5178830414797062e-18
933.0,0.0,0.0,0.0,0.0,0.0,0.0,0.012424027547240257,-0.005676882807165384,-0.009839584119617939,1.0,1.734723475976807e-18,0.0,-2.168404344971009e-18
934.0,0.0,0.0,0.0,0.0,0.0,0.0,0.01656162738800049,-0.011203790083527565,-0.015302407555282116,1.0,3.469446951953614e-18,0.0,8.673617379884035e-19
935.0,0.0,0.0,0.0,0.0,0.0,0.0,0.026940131559967995,-0.02099553868174553,-0.013909476809203625,1.0,0.0,3.469446951953614e-18,-1.5178830414797062e-18
936.0,0.0,0.0,0.0,0.0,0.0,0.0,0.028795910999178886,-0.03367168456315994,-0.012729841284453869,1.0,0.0,-3.469446951953614e-18,-1.0842021724855044e-18
937.0,0.0,0.0,0.0,0.0,0.0,0.0,0.052228882908821106,-0.045507315546274185,-0.01661425642669201,1.0,-1.734723475976807e-18,-3.469446951953614e-18,3.903127820947816e-18
938.0,0.0,0.0,0.0,0.0,0.0,0.0,0.06491728872060776,-0.049221839755773544,-0.015438464470207691,1.0,1.734723475976807e-18,0.0,0.0
