,Position_X,Position_Y,Position_Z,Velocity_X,Velocity_Y,Velocity_Z,Acceleration_X,Acceleration_Y,Acceleration_Z,Quaterion_0,Quaterion_1,Quaterion_2,Quaterion_3
166.0,0.0,0.0,0.0,0.0,0.0,0.0,-0.016142569482326508,-0.02124984934926033,-0.009404690936207771,1.0,-5.9631119486702744e-18,1.0408340855860843e-17,-2.7755575615628914e-17
167.0,0.0,0.0,0.0,0.0,0.0,0.0,-0.011895408853888512,-0.018701644614338875,-0.019559387117624283,0.9999967813491821,-0.00018325995188206434,0.0024711256846785545,-0.0004961332306265831
168.0,0.0,0.0,0.0,0.0,0.0,0.0,-0.00195324351079762,-0.030005766078829765,-0.07039103657007217,0.999992311000824,-0.000933766714297235,0.003764078952372074,-0.0005959173431620002
169.0,0.0,0.0,0.0,0.0,0.0,0.0,0.006846903823316097,-0.023227931931614876,-0.0538766011595726,0.9999915957450867,-0.0013464788207784295,0.003869112581014633,-0.00026419898495078087
170.0,0.0,0.0,0.0,0.0,0.0,0.0,-0.00289530330337584,-0.01818196102976799,-0.010121895931661129,0.9999926090240479,-0.0015064239269122481,0.003483756445348263,0.0005787017289549112
171.0,0.0,0.0,0.0,0.0,0.0,0.0,-0.010791085660457611,-0.013966427184641361,0.029206587001681328,0.9999940991401672,-0.0015549359377473593,0.002550350734964013,0.0016915337182581425
172.0,0.0,0.0,0.0,0.0,0.0,0.0,-0.010569500736892223,-0.015564106404781342,0.020974932238459587,0.9999933838844299,-0.0017914209747686982,0.0017732930136844516,0.0026170124765485525
173.0,0.0,0.0,0.0,0.0,0.0,0.0,-0.012037252075970173,-0.020464591681957245,0.00829063355922699,0.9999904632568359,-0.0021928437054157257,0.0017801703652366996,0.003324548713862896
174.0,0.0,0.0,0.0,0.0,0.0,0.0,-0.010203029029071331,-0.015353798866271973,-0.0013371094828471541,0.9999858736991882,-0.0025108440313488245,0.00224559404887259,0.00411207927390933
175.0,0.0,0.0,0.0,0.0,0.0,0.0,-0.00924579706043005,-0.010388423688709736,-0.00967933889478445,0.9999820590019226,-0.0029414354357868433,0.002798457397148013,0.004399390425533056
176.0,0.0,0.0,0.0,0.0,0.0,0.0,-0.00687307259067893,-0.004606341011822224,-0.013206347823143005,0.9999790787696838,-0.003017747076228261,0.0032260885927826166,0.004729497712105513
177.0,0.0,0.0,0.0,0.0,0.0,0.0,-0.00459389528259635,1.6450390830868855e-05,-0.011035329662263393,0.999975860118866,-0.0028111059218645096,0.0039077880792319775,0.0050103506073355675
178.0,0.0,0.0,0.0,0.0,0.0,0.0,-0.004534006118774414,0.0017396254697814584,-0.010415180586278439,0.9999743700027466,-0.0030530232470482588,0.004351189825683832,0.004794300068169832
179.0,0.0,0.0,0.0,0.0,0.0,0.0,-0.001284128986299038,-0.005231967195868492,-0.014877481386065483,0.9999712109565735,-0.0029207230545580387,0.004836107604205608,0.005069251637905836
180.0,0.0,0.0,0.0,0.0,0.0,0.0,0.0003696901258081198,-0.017076432704925537,-0.025132793933153152,0.9999675154685974,-0.003487163223326206,0.00505100330337882,0.005225405562669039
181.0,0.0,0.0,0.0,0.0,0.0,0.0,0.0011870942544192076,-0.01429704949259758,-0.019671009853482246,0.9999642372131348,-0.004440283868461847,0.0044031040742993355,0.005696301348507404
182.0,0.0,0.0,0.0,0.0,0.0,0.0,0.00027091457741335034,-0.004425354301929474,0.0038284757174551487,0.9999617338180542,-0.005457036197185516,0.003476082580164075,0.005884216632694006
183.0,0.0,0.0,0.0,0.0,0.0,0.0,-0.002041391097009182,-0.0012551202671602368,0.023266276344656944,0.9999570846557617,-0.006669830065220594,0.002145168138667941,0.006059706211090088
184.0,0.0,0.0,0.0,0.0,0.0,0.0,-0.005663482937961817,0.0019508652621880174,0.024883100762963295,0.9999479651451111,-0.00810044351965189,0.0008572475053369999,0.006146252620965242
185.0,0.0,0.0,0.0,0.0,0.0,0.0,-0.006781714968383312,0.00017154258966911584,0.0162883922457695,0.9999343156814575,-0.009724379517138004,-0.0005805663531646132,0.006041002459824085
186.0,0.0,0.0,0.0,0.0,0.0,0.0,-0.011125007644295692,-0.0026172201614826918,0.012472068890929222,0.9999172687530518,-0.011226211674511433,-0.002127966610714793,0.005904972553253174
187.0,0.0,0.0,0.0,0.0,0.0,0.0,-0.012599845416843891,-0.0050280108116567135,0.009822176769375801,0.9999061822891235,-0.012132306583225727,-0.002877820748835802,0.005667735356837511
188.0,0.0,0.0,0.0,0.0,0.0,0.0,-0.012725348584353924,-0.005700137931853533,0.006248410325497389,0.999897301197052,-0.012735706754028797,-0.003279337426647544,0.0056903185322880745
189.0,0.0,0.0,0.0,0.0,0.0,0.0,-0.013614407740533352,-0.007264064624905586,-6.166609091451392e-05,0.9998905658721924,-0.013192102313041687,-0.0032328804954886436,0.005866032559424639
190.0,0.0,0.0,0.0,0.0,0.0,0.0,-0.010116643272340298,-0.00844656303524971,-0.00592489680275321,0.999881386756897,-0.01389793399721384,-0.00316646252758801,0.00583222322165966
191.0,0.0,0.0,0.0,0.0,0.0,0.0,-0.006792883854359388,-0.006264972034841776,-0.0064772507175803185,0.9998751878738403,-0.013906578533351421,-0.003634592518210411,0.006558386608958244
192.0,0.0,0.0,0.0,0.0,0.0,0.0,-0.007149206008762121,-0.0034053176641464233,-0.003598183626309037,0.9998688101768494,-0.014058832079172134,-0.003865921637043357,0.0070525724440813065
193.0,0.0,0.0,0.0,0.0,0.0,0.0,-0.005179211031645536,-0.0017676767893135548,0.0017212963430210948,0.999862551689148,-0.014378414489328861,-0.00425739586353302,0.00707672955468297
194.0,0.0,0.0,0.0,0.0,0.0,0.0,-0.002796402433887124,-0.0007735224207863212,0.004056206438690424,0.9998568296432495,-0.014049018733203411,-0.004652838222682476,0.008202282711863518
195.0,0.0,0.0,0.0,0.0,0.0,0.0,0.0005266016814857721,0.0003826063184533268,0.0038243073504418135,0.9998610019683838,-0.013700967654585838,-0.004098984878510237,0.008573596365749836
196.0,0.0,0.0,0.0,0.0,0.0,0.0,0.0014310614205896854,-5.1997292757732794e-05,0.0011146353790536523,0.9998619556427002,-0.013723582960665226,-0.0034867292270064354,0.00869235023856163
197.0,0.0,0.0,0.0,0.0,0.0,0.0,0.0009814695222303271,-0.0029137113597244024,-0.006325242575258017,0.9998567700386047,-0.013688680715858936,-0.003343356540426612,0.009377182461321354
198.0,0.0,0.0,0.0,0.0,0.0,0.0,0.00034231177414767444,-0.006919672712683678,-0.008948436938226223,0.9998553395271301,-0.01376172062009573,-0.0034433496184647083,0.009383881464600563
199.0,0.0,0.0,0.0,0.0,0.0,0.0,-0.004240693990141153,-0.01204129122197628,-0.007590413559228182,0.999853253364563,-0.014015286229550838,-0.003504272550344467,0.009208555333316326
200.0,0.0,0.0,0.0,0.0,0.0,0.0,-0.0073728179559111595,-0.01630195416510105,-0.006664610933512449,0.9998449683189392,-0.014423592947423458,-0.0036603810731321573,0.009411889128386974
201.0,0.0,0.0,0.0,0.0,0.0,0.0,-0.006126409862190485,-0.01572015881538391,-0.0007282106089405715,0.9998635649681091,-0.014362586662173271,-0.002750625368207693,0.007684465032070875
202.0,0.0,0.0,0.0,0.0,0.0,0.0,-0.006205342710018158,-0.011107330210506916,0.0046477001160383224,0.9998672008514404,-0.0145519794896245,-0.0018396549858152866,0.007102400530129671
203.0,0.0,0.0,0.0,0.0,0.0,0.0,0.005116133950650692,-0.013124181888997555,-0.021695155650377274,0.9998682737350464,-0.014798859134316444,-0.001202261890284717,0.006557503715157509
204.0,0.0,0.0,0.0,0.0,0.0,0.0,0.017856255173683167,-0.03940119221806526,-0.017458418384194374,0.9998642802238464,-0.015316951088607311,-0.0005820792866870761,0.006046658847481012
205.0,0.0,0.0,0.0,0.0,0.0,0.0,0.020295223221182823,-0.030393477529287338,-0.0020173219963908195,0.9998612403869629,-0.015382913872599602,-0.0011266493238508701,0.0062980349175632
206.0,0.0,0.0,0.0,0.0,0.0,0.0,0.007264883257448673,-0.026696979999542236,0.027132542803883553,0.9998628497123718,-0.014954269863665104,-0.001981994602829218,0.006840007845312357
207.0,0.0,0.0,0.0,0.0,0.0,0.0,0.001791911548934877,-0.013582509011030197,0.04706506431102753,0.9998614192008972,-0.014561534859240055,-0.0028491783887147903,0.007553106173872948
208.0,0.0,0.0,0.0,0.0,0.0,0.0,-0.0005053199711255729,-0.0017626950284466147,0.037430569529533386,0.999862015247345,-0.014248771592974663,-0.0032990239560604095,0.007875918410718441
209.0,0.0,0.0,0.0,0.0,0.0,0.0,-0.0018510808004066348,0.003740260610356927,0.020935799926519394,0.9998639225959778,-0.013965189456939697,-0.0032929102890193462,0.008138500154018402
210.0,0.0,0.0,0.0,0.0,0.0,0.0,0.0012152229901403189,0.015140981413424015,0.005211580544710159,0.9998684525489807,-0.013419178314507008,-0.0024370101746171713,0.008779605850577354
211.0,0.0,0.0,0.0,0.0,0.0,0.0,0.005020849406719208,0.025598235428333282,-0.006706069223582745,0.9998757839202881,-0.012804558500647545,-0.0014749029651284218,0.009072724729776382
212.0,0.0,0.0,0.0,0.0,0.0,0.0,0.004132229369133711,0.024749156087636948,-0.012084413319826126,0.9998877644538879,-0.01197196077555418,-0.0010224919533357024,0.00894815381616354
213.0,0.0,0.0,0.0,0.0,0.0,0.0,0.0025915249716490507,0.018213151022791862,-0.017232030630111694,0.9998934864997864,-0.011245200410485268,-0.0005090229096822441,0.009293735958635807
214.0,0.0,0.0,0.0,0.0,0.0,0.0,0.004948371555656195,0.016112906858325005,-0.019196419045329094,0.9998897910118103,-0.011104347184300423,-0.0009327102452516556,0.009808297269046307
215.0,0.0,0.0,0.0,0.0,0.0,0.0,0.003810138674452901,0.011067795567214489,-0.016108667477965355,0.9998860955238342,-0.01120196096599102,-0.0018269161228090525,0.009946915321052074
216.0,0.0,0.0,0.0,0.0,0.0,0.0,0.0009966829093173146,0.005653837230056524,-0.0053580142557621,0.999879777431488,-0.011723644100129604,-0.002699323697015643,0.009782562032341957
217.0,0.0,0.0,0.0,0.0,0.0,0.0,0.0006090439856052399,0.002232254482805729,0.007214907556772232,0.9998699426651001,-0.012430389411747456,-0.0038783883210271597,0.009520705789327621
218.0,0.0,0.0,0.0,0.0,0.0,0.0,-0.0002109442575601861,-0.0021788638550788164,0.008663484826683998,0.9998469948768616,-0.013919615186750889,-0.0052003031596541405,0.009232028387486935
219.0,0.0,0.0,0.0,0.0,0.0,0.0,-0.0007254260708577931,-0.004999133292585611,0.0022686244919896126,0.9998149275779724,-0.01648727059364319,-0.00580653827637434,0.008039664477109909
220.0,0.0,0.0,0.0,0.0,0.0,0.0,-0.0014481277903541923,-0.0037182308733463287,-0.00018845727026928216,0.9997768402099609,-0.01907932385802269,-0.0060634431429207325,0.006744433660060167
221.0,0.0,0.0,0.0,0.0,0.0,0.0,-0.003836309537291527,-0.0014436203055083752,0.0020942536648362875,0.9997395873069763,-0.020855091512203217,-0.006653961725533009,0.006452537607401609
222.0,0.0,0.0,0.0,0.0,0.0,0.0,-0.0067931003868579865,0.001782138366252184,0.008969173766672611,0.9997021555900574,-0.022356845438480377,-0.007365687750279903,0.006442477460950613
223.0,0.0,0.0,0.0,0.0,0.0,0.0,-0.007410725578665733,0.0033900996204465628,0.008165146224200726,0.9996787905693054,-0.023548513650894165,-0.0073625631630420685,0.005795826204121113
224.0,0.0,0.0,0.0,0.0,0.0,0.0,-0.004844889044761658,0.0005322626093402505,-0.0030042934231460094,0.9996609091758728,-0.02451019175350666,-0.006855982821434736,0.005507080815732479
225.0,0.0,0.0,0.0,0.0,0.0,0.0,-0.0044193631038069725,-0.003567345906049013,-0.00808799359947443,0.9996472001075745,-0.025056017562747,-0.0067323422990739346,0.005695406347513199
226.0,0.0,0.0,0.0,0.0,0.0,0.0,-0.004579098895192146,-0.008693083189427853,-0.006713795475661755,0.9996381998062134,-0.025392213836312294,-0.006771299056708813,0.005734396167099476
227.0,0.0,0.0,0.0,0.0,0.0,0.0,-0.004470123443752527,-0.010264776647090912,0.0005731276469305158,0.9996252059936523,-0.025952305644750595,-0.00685699051246047,0.005378116853535175
228.0,0.0,0.0,0.0,0.0,0.0,0.0,-0.004150107968598604,-0.012380292639136314,0.006348414346575737,0.9996155500411987,-0.026364348828792572,-0.006720248144119978,0.005350143648684025
229.0,0.0,0.0,0.0,0.0,0.0,0.0,-0.0027119042351841927,-0.014497112482786179,0.006583751644939184,0.9996113181114197,-0.02644396387040615,-0.006948056165128946,0.005454150028526783
230.0,0.0,0.0,0.0,0.0,0.0,0.0,-0.001042175223119557,-0.013210618868470192,0.004979461431503296,0.9996076822280884,-0.026490576565265656,-0.0072812363505363464,0.005469941534101963
231.0,0.0,0.0,0.0,0.0,0.0,0.0,-0.0021307955030351877,-0.01186519954353571,0.007695595733821392,0.9996122717857361,-0.026006733998656273,-0.007918814197182655,0.006024573463946581
232.0,0.0,0.0,0.0,0.0,0.0,0.0,-0.0044652544893324375,-0.009925763122737408,0.01619238778948784,0.9996221661567688,-0.025070074945688248,-0.008504422381520271,0.007407324388623238
233.0,0.0,0.0,0.0,0.0,0.0,0.0,-0.00893442053347826,-0.007642516866326332,0.02950390800833702,0.9996301531791687,-0.023852823302149773,-0.009415348060429096,0.009052802808582783
234.0,0.0,0.0,0.0,0.0,0.0,0.0,-0.010369915515184402,-0.00629362091422081,0.03312055766582489,0.9996426701545715,-0.02264675311744213,-0.009230991825461388,0.010795355774462223
235.0,0.0,0.0,0.0,0.0,0.0,0.0,-0.008783170953392982,-0.008102871477603912,0.021539505571126938,0.9996841549873352,-0.021336043253540993,-0.007503510918468237,0.010960676707327366
236.0,0.0,0.0,0.0,0.0,0.0,0.0,0.006813647225499153,-0.026432326063513756,-0.0463477224111557,0.9997180104255676,-0.02039605937898159,-0.006167382467538118,0.010482742451131344
237.0,0.0,0.0,0.0,0.0,0.0,0.0,0.013380068354308605,-0.03386591002345085,-0.0454893484711647,0.9997199773788452,-0.02032517082989216,-0.006352708209306002,0.010323520749807358
238.0,0.0,0.0,0.0,0.0,0.0,0.0,0.001771228271536529,-0.022819804027676582,-0.01685701124370098,0.9997161030769348,-0.02010633610188961,-0.007311847992241383,0.01048927754163742
239.0,0.0,0.0,0.0,0.0,0.0,0.0,-0.006867859046906233,-0.0104674668982625,0.011346444487571716,0.9997106194496155,-0.019857123494148254,-0.008287851698696613,0.010757333599030972
240.0,0.0,0.0,0.0,0.0,0.0,0.0,-0.008610337041318417,-0.008642357774078846,0.00521443597972393,0.9997043609619141,-0.02019081637263298,-0.009074871428310871,0.010062789544463158
241.0,0.0,0.0,0.0,0.0,0.0,0.0,-0.011379712261259556,-0.012817488983273506,-0.00010461646161274984,0.9996914863586426,-0.020834803581237793,-0.009694184176623821,0.009427097626030445
242.0,0.0,0.0,0.0,0.0,0.0,0.0,-0.008673258125782013,-0.007609044201672077,-0.005043132230639458,0.9996899962425232,-0.021203678101301193,-0.009494733065366745,0.008954369463026524
243.0,0.0,0.0,0.0,0.0,0.0,0.0,-0.0065526943653821945,-0.00426601804792881,-0.00899758655577898,0.9996903538703918,-0.021329564973711967,-0.009796744212508202,0.008263042196631432
244.0,0.0,0.0,0.0,0.0,0.0,0.0,-0.00667521683499217,-0.0020428893622010946,-0.006071489304304123,0.9996927380561829,-0.021209698170423508,-0.010037079453468323,0.007991687394678593
245.0,0.0,0.0,0.0,0.0,0.0,0.0,-0.004975735675543547,0.002855907427147031,-0.004554846324026585,0.9997096061706543,-0.020613187924027443,-0.009914356283843517,0.0075891525484621525
246.0,0.0,0.0,0.0,0.0,0.0,0.0,-0.0025523894000798464,-0.000942820159252733,-0.002857371000573039,0.9997268915176392,-0.019730985164642334,-0.010135618038475513,0.007359679788351059
247.0,0.0,0.0,0.0,0.0,0.0,0.0,-0.001342036877758801,-0.0008811730658635497,-0.006971624214202166,0.9997414946556091,-0.019049767404794693,-0.010132880881428719,0.007173271384090185
248.0,0.0,0.0,0.0,0.0,0.0,0.0,-0.0033260690979659557,-0.0016321344301104546,-0.004826023243367672,0.9997538328170776,-0.018723230808973312,-0.010236519388854504,0.006093142554163933
249.0,0.0,0.0,0.0,0.0,0.0,0.0,-0.005871966481208801,-0.0010812933323904872,-0.0033372542820870876,0.9997549057006836,-0.018769819289445877,-0.010469895787537098,0.005317808128893375
250.0,0.0,0.0,0.0,0.0,0.0,0.0,-0.003179830266162753,0.002424350706860423,-0.007200506515800953,0.9997543096542358,-0.018877176567912102,-0.010618148371577263,0.004727450665086508
251.0,0.0,0.0,0.0,0.0,0.0,0.0,0.0012219635536894202,0.004276352934539318,-0.01247487310320139,0.9997493624687195,-0.019482320174574852,-0.010381889529526234,0.003740329062566161
252.0,0.0,0.0,0.0,0.0,0.0,0.0,0.0019729568157345057,0.0039038637187331915,-0.012359711341559887,0.9997317790985107,-0.02040368691086769,-0.010511934757232666,0.003101424779742956
253.0,0.0,0.0,0.0,0.0,0.0,0.0,0.0012989913811907172,0.004633123055100441,-0.012342235073447227,0.9996981024742126,-0.021753929555416107,-0.011161732487380505,0.0024532724637538195
254.0,0.0,0.0,0.0,0.0,0.0,0.0,0.0015072420937940478,0.009359068237245083,-0.001954078208655119,0.9996723532676697,-0.02260042168200016,-0.0118558369576931,0.001970863901078701
255.0,0.0,0.0,0.0,0.0,0.0,0.0,0.001569982967339456,0.013403631746768951,0.0012955600395798683,0.9996458888053894,-0.023521998897194862,-0.012361687608063221,0.0014132317155599594
256.0,0.0,0.0,0.0,0.0,0.0,0.0,0.0017060741083696485,0.012831395491957664,-0.005423194263130426,0.9995880722999573,-0.025433553382754326,-0.01330255251377821,-5.893576144444523e-06
257.0,0.0,0.0,0.0,0.0,0.0,0.0,0.002086808905005455,0.00959554873406887,-0.011073999106884003,0.9995079040527344,-0.027767416089773178,-0.014519226737320423,-0.001494355732575059
258.0,0.0,0.0,0.0,0.0,0.0,0.0,0.001268961583264172,0.008403198793530464,-0.0074496036395430565,0.99940025806427,-0.03037761151790619,-0.016385518014431,-0.002803744748234749
259.0,0.0,0.0,0.0,0.0,0.0,0.0,-0.00030967395287007093,0.008919371291995049,0.0056193675845861435,0.9992898106575012,-0.032841674983501434,-0.0180487222969532,-0.003950351849198341
260.0,0.0,0.0,0.0,0.0,0.0,0.0,-0.0018288609571754932,0.007581875193864107,0.01861611008644104,0.9992079734802246,-0.03472213074564934,-0.01868491619825363,-0.005356887821108103
261.0,0.0,0.0,0.0,0.0,0.0,0.0,-0.001962086418643594,0.005055148620158434,0.020773857831954956,0.9991315603256226,-0.03625654801726341,-0.0194272268563509,-0.0066490378230810165
262.0,0.0,0.0,0.0,0.0,0.0,0.0,0.0010672358330339193,0.0025631003081798553,0.008872689679265022,0.9990717172622681,-0.037345848977565765,-0.020149243995547295,-0.007425235118716955
263.0,0.0,0.0,0.0,0.0,0.0,0.0,0.0026888845022767782,0.0010105408728122711,5.864724244020181e-06,0.9990231394767761,-0.03803127631545067,-0.020911525934934616,-0.00831439159810543
264.0,0.0,0.0,0.0,0.0,0.0,0.0,0.0015465585747733712,0.0025046474765986204,-0.0034686443395912647,0.9989845156669617,-0.03845122829079628,-0.021719982847571373,-0.008926775306463242
265.0,0.0,0.0,0.0,0.0,0.0,0.0,0.0020820137578994036,0.004726571496576071,-0.009453521110117435,0.9989351630210876,-0.03913343697786331,-0.02235407382249832,-0.009876166470348835
266.0,0.0,0.0,0.0,0.0,0.0,0.0,0.0055183894000947475,0.005289751570671797,-0.013780394569039345,0.9988808035850525,-0.04007347300648689,-0.02256925031542778,-0.01104733720421791
267.0,0.0,0.0,0.0,0.0,0.0,0.0,0.003574204398319125,0.0025597545318305492,-0.01404147781431675,0.9988178610801697,-0.04111833870410919,-0.023000309243798256,-0.011972016654908657
268.0,0.0,0.0,0.0,0.0,0.0,0.0,0.0015189892146736383,0.007223181426525116,-0.006607466842979193,0.9987484812736511,-0.04203742742538452,-0.024053659290075302,-0.012480267323553562
269.0,0.0,0.0,0.0,0.0,0.0,0.0,0.0013767387717962265,0.00891528744250536,-0.0025228902231901884,0.9986708760261536,-0.043074920773506165,-0.025149064138531685,-0.012982288375496864
270.0,0.0,0.0,0.0,0.0,0.0,0.0,0.0006440936122089624,0.00970908347517252,0.005201161839067936,0.9986342787742615,-0.04360106587409973,-0.025745585560798645,-0.012869558297097683
271.0,0.0,0.0,0.0,0.0,0.0,0.0,0.00023346346279140562,0.011297782883048058,0.01749548688530922,0.9986657500267029,-0.0431981086730957,-0.025698905810713768,-0.011844798922538757
272.0,0.0,0.0,0.0,0.0,0.0,0.0,0.00332831172272563,0.013288673013448715,0.020500417798757553,0.9986841678619385,-0.04278333857655525,-0.026068706065416336,-0.010950079187750816
273.0,0.0,0.0,0.0,0.0,0.0,0.0,0.005429970566183329,0.012237808667123318,0.01713220588862896,0.9987040758132935,-0.04216323420405388,-0.02652238868176937,-0.010440457612276077
274.0,0.0,0.0,0.0,0.0,0.0,0.0,0.007529746275395155,0.011601991951465607,0.009340621531009674,0.9987173676490784,-0.04156492277979851,-0.02698003686964512,-0.010399053804576397
275.0,0.0,0.0,0.0,0.0,0.0,0.0,0.0039644199423491955,0.02208230458199978,0.0006745132268406451,0.9987567067146301,-0.04035180062055588,-0.02752993069589138,-0.009960096329450607
276.0,0.0,0.0,0.0,0.0,0.0,0.0,0.0027158178854733706,0.003637806512415409,0.0015432152431458235,0.9987607598304749,-0.03940070420503616,-0.02878236398100853,-0.009812855161726475
277.0,0.0,0.0,0.0,0.0,0.0,0.0,0.003377338405698538,-0.01933201774954796,0.016475720331072807,0.9987164735794067,-0.03968549147248268,-0.029808809980750084,-0.01010366715490818
278.0,0.0,0.0,0.0,0.0,0.0,0.0,0.0004048773553222418,-0.01875922456383705,0.004551509860903025,0.9986855983734131,-0.0408390648663044,-0.029311547055840492,-0.01000882126390934
279.0,0.0,0.0,0.0,0.0,0.0,0.0,-5.324075391399674e-05,0.009431418962776661,-0.0075036040507256985,0.9987000823020935,-0.041410233825445175,-0.02811126969754696,-0.009662753902375698
280.0,0.0,0.0,0.0,0.0,0.0,0.0,-0.004006757866591215,0.0027451144997030497,-0.004415666684508324,0.9987173080444336,-0.04173002392053604,-0.027139876037836075,-0.009264642372727394
281.0,0.0,0.0,0.0,0.0,0.0,0.0,-0.004810575861483812,-0.001276704715564847,-0.003393390914425254,0.9987457394599915,-0.04192877560853958,-0.025798341259360313,-0.009140153415501118
282.0,0.0,0.0,0.0,0.0,0.0,0.0,-0.004871376324445009,-0.0019078789046034217,-0.002207390032708645,0.9987978935241699,-0.041825149208307266,-0.024094687774777412,-0.008547984063625336
283.0,0.0,0.0,0.0,0.0,0.0,0.0,-0.0021898364648222923,-0.0027982350438833237,-0.00028362570446915925,0.9988415241241455,-0.04156072437763214,-0.023033857345581055,-0.007607906125485897
284.0,0.0,0.0,0.0,0.0,0.0,0.0,-0.0003237710625398904,-0.000515592226292938,0.0007281407015398145,0.9989016652107239,-0.04094977676868439,-0.021605707705020905,-0.007208283990621567
285.0,0.0,0.0,0.0,0.0,0.0,0.0,0.0015344555722549558,0.0016610638704150915,0.0023178751580417156,0.9989664554595947,-0.04035362973809242,-0.019858261570334435,-0.006578859873116016
286.0,0.0,0.0,0.0,0.0,0.0,0.0,0.003441435983404517,0.005126682575792074,-0.0006146982777863741,0.9990297555923462,-0.03931460157036781,-0.019181741401553154,-0.005128156393766403
287.0,0.0,0.0,0.0,0.0,0.0,0.0,0.00509850587695837,0.00882017519325018,0.001277304021641612,0.999086856842041,-0.038399651646614075,-0.01827533170580864,-0.004125677049160004
288.0,0.0,0.0,0.0,0.0,0.0,0.0,0.006112787872552872,0.012353941798210144,0.005900784861296415,0.9991496205329895,-0.037376273423433304,-0.01713659055531025,-0.0030751486774533987
289.0,0.0,0.0,0.0,0.0,0.0,0.0,0.005651865620166063,0.014154354110360146,0.010742691345512867,0.9992252588272095,-0.03577540069818497,-0.01628572680056095,-0.0019444335484877229
290.0,0.0,0.0,0.0,0.0,0.0,0.0,0.008395841345191002,0.012194753624498844,0.001930315513163805,0.999304473400116,-0.034134361892938614,-0.014990908093750477,-0.000985770020633936
291.0,0.0,0.0,0.0,0.0,0.0,0.0,0.009647047147154808,0.009454506449401379,-0.004742980003356934,0.9993840456008911,-0.03241387754678726,-0.013452763669192791,0.00026092008920386434
292.0,0.0,0.0,0.0,0.0,0.0,0.0,0.009013780392706394,0.008367550559341908,-0.001230189809575677,0.9994614124298096,-0.030545078217983246,-0.011865736916661263,0.0017731253756210208
293.0,0.0,0.0,0.0,0.0,0.0,0.0,0.008721587248146534,0.004313772544264793,0.0030341623350977898,0.9995236992835999,-0.02876570075750351,-0.010602891445159912,0.0035422625951468945
294.0,0.0,0.0,0.0,0.0,0.0,0.0,0.007163028698414564,0.00298846117220819,0.011220305226743221,0.9995800256729126,-0.026632441207766533,-0.009732897393405437,0.005971448961645365
295.0,0.0,0.0,0.0,0.0,0.0,0.0,0.003811737522482872,0.001539947814308107,0.012401655316352844,0.999625027179718,-0.024589570239186287,-0.008708818815648556,0.008322452194988728
296.0,0.0,0.0,0.0,0.0,0.0,0.0,0.000929554458707571,-0.0015411349013447762,0.013264557346701622,0.9996760487556458,-0.022015240043401718,-0.007288982626050711,0.010495984926819801
297.0,0.0,0.0,0.0,0.0,0.0,0.0,0.0050935205072164536,-0.008275083266198635,0.017053905874490738,0.9997372031211853,-0.01866053231060505,-0.0029935333877801895,0.012984800152480602
298.0,0.0,0.0,0.0,0.0,0.0,0.0,0.00873042643070221,-0.011473598890006542,0.008026696741580963,0.9997648596763611,-0.015559333376586437,-0.0008184324251487851,0.015088655985891819
299.0,0.0,0.0,0.0,0.0,0.0,0.0,0.01296889316290617,-0.013824256137013435,0.002333365846425295,0.9997798204421997,-0.012364181689918041,0.0017450384330004454,0.016865283250808716
300.0,0.0,0.0,0.0,0.0,0.0,0.0,0.01842036470770836,-0.01761612668633461,-0.01049070619046688,0.9997878670692444,-0.009222504682838917,0.004107976332306862,0.01795795001089573
301.0,0.0,0.0,0.0,0.0,0.0,0.0,0.0216345377266407,-0.01913253217935562,-0.020627357065677643,0.9997817873954773,-0.006596870254725218,0.00557653559371829,0.019021855667233467
302.0,0.0,0.0,0.0,0.0,0.0,0.0,0.020188113674521446,-0.01969386823475361,-0.016710223630070686,0.999771773815155,-0.004244571551680565,0.006375540979206562,0.019949622452259064
303.0,0.0,0.0,0.0,0.0,0.0,0.0,0.018033117055892944,-0.017981091514229774,-0.009160758927464485,0.9997612237930298,-0.0023954289499670267,0.006634960416704416,0.02068653143942356
304.0,0.0,0.0,0.0,0.0,0.0,0.0,0.012982828542590141,-0.01626759208738804,0.004992353264242411,0.9997594356536865,-0.0011824448592960835,0.006184346973896027,0.021017136052250862
305.0,0.0,0.0,0.0,0.0,0.0,0.0,0.0067324270494282246,-0.014693085104227066,0.020911388099193573,0.9997557401657104,-0.0004278599808458239,0.004634452983736992,0.021614274010062218
306.0,0.0,0.0,0.0,0.0,0.0,0.0,0.001755374833010137,-0.016013670712709427,0.022101914510130882,0.9997536540031433,-5.003469414077699e-05,0.0029115520883351564,0.022009659558534622
307.0,0.0,0.0,0.0,0.0,0.0,0.0,-0.0017338446341454983,-0.01919689029455185,0.020554611459374428,0.9997687339782715,-0.00041844818042591214,0.0014028926379978657,0.02145577222108841
308.0,0.0,0.0,0.0,0.0,0.0,0.0,-0.005488768685609102,-0.02216414548456669,0.013002322986721992,0.9997854232788086,-0.0011110784253105521,-1.9208680896554142e-05,0.020687373355031013
309.0,0.0,0.0,0.0,0.0,0.0,0.0,-0.00870897900313139,-0.021113194525241852,0.006434830371290445,0.9998182654380798,-0.0018885353347286582,-0.0011284197680652142,0.018934205174446106
310.0,0.0,0.0,0.0,0.0,0.0,0.0,-0.009079372510313988,-0.019951866939663887,-0.0022323059383779764,0.9998526573181152,-0.0028724356088787317,-0.001919590518809855,0.01681605353951454
311.0,0.0,0.0,0.0,0.0,0.0,0.0,-0.01324621681123972,-0.017361201345920563,-0.005515403114259243,0.9998725056648254,-0.004181870259344578,-0.0031461080070585012,0.015089037828147411
312.0,0.0,0.0,0.0,0.0,0.0,0.0,-0.012088574469089508,-0.010910888202488422,-0.011718310415744781,0.999885618686676,-0.0051643261685967445,-0.004245685413479805,0.013571447692811489
313.0,0.0,0.0,0.0,0.0,0.0,0.0,-0.011049442924559116,-0.005619894713163376,-0.014649681746959686,0.9998941421508789,-0.005890934262424707,-0.005318154115229845,0.01220887154340744
314.0,0.0,0.0,0.0,0.0,0.0,0.0,-0.012205716222524643,-0.0034609888680279255,-0.01453071366995573,0.9998897910118103,-0.006615735590457916,-0.006749708671122789,0.011454734951257706
315.0,0.0,0.0,0.0,0.0,0.0,0.0,-0.009335252456367016,0.001054365187883377,-0.011999914422631264,0.9998818635940552,-0.00755911972373724,-0.007912291213870049,0.010807044804096222
316.0,0.0,0.0,0.0,0.0,0.0,0.0,-0.007104278076440096,0.002109219552949071,-0.013541917316615582,0.999880313873291,-0.008722699247300625,-0.008362878113985062,0.009666889905929565
317.0,0.0,0.0,0.0,0.0,0.0,0.0,-0.004343136679381132,0.0006283416878432035,-0.014568902552127838,0.9998676180839539,-0.009626118466258049,-0.009313358925282955,0.009247813373804092
318.0,0.0,0.0,0.0,0.0,0.0,0.0,-0.002193508902564645,0.0013841133331879973,-0.014246729202568531,0.9998561143875122,-0.010213816538453102,-0.0104010459035635,0.008676143363118172
319.0,0.0,0.0,0.0,0.0,0.0,0.0,0.00037058445741422474,0.0031708853784948587,-0.009547185152769089,0.9998450875282288,-0.011084925383329391,-0.011140326969325542,0.007943583652377129
320.0,0.0,0.0,0.0,0.0,0.0,0.0,0.005360731855034828,0.005635658744722605,-0.006637185346335173,0.9998274445533752,-0.012244058772921562,-0.012160713784396648,0.0069113243371248245
321.0,0.0,0.0,0.0,0.0,0.0,0.0,0.007909713312983513,0.008906486444175243,-0.0033374314662069082,0.9998031854629517,-0.013173230923712254,-0.013728982768952847,0.0056409696117043495
322.0,0.0,0.0,0.0,0.0,0.0,0.0,0.006567967124283314,0.007855097763240337,0.004112238995730877,0.9997636079788208,-0.014005695469677448,-0.015854431316256523,0.005060319788753986
323.0,0.0,0.0,0.0,0.0,0.0,0.0,0.004507747944444418,0.009485334157943726,0.007879814133048058,0.9997170567512512,-0.014529320411384106,-0.018188362941145897,0.004887140356004238
324.0,0.0,0.0,0.0,0.0,0.0,0.0,0.004014647100120783,0.009304353035986423,0.007604922633618116,0.9996643662452698,-0.015215976163744926,-0.02043282426893711,0.004676757846027613
325.0,0.0,0.0,0.0,0.0,0.0,0.0,0.004794307518750429,0.007975156418979168,0.004114051349461079,0.9996141791343689,-0.01606149412691593,-0.022260136902332306,0.004247800447046757
326.0,0.0,0.0,0.0,0.0,0.0,0.0,0.004835317377001047,0.005132588092237711,0.00012142279592808336,0.999556303024292,-0.01683100499212742,-0.024342922493815422,0.003392481477931142
327.0,0.0,0.0,0.0,0.0,0.0,0.0,0.0031591951847076416,0.005168904550373554,0.0015018259873613715,0.999496579170227,-0.017233073711395264,-0.026486897841095924,0.0028697720263153315
328.0,0.0,0.0,0.0,0.0,0.0,0.0,0.0005131542566232383,0.004810747224837542,2.7106616471428424e-05,0.9994363188743591,-0.017398733645677567,-0.02864653430879116,0.0020572911016643047
329.0,0.0,0.0,0.0,0.0,0.0,0.0,-0.0008270633406937122,0.0033585866913199425,0.0018745814450085163,0.9993675947189331,-0.017282383516430855,-0.03107607737183571,0.00048312434228137136
330.0,0.0,0.0,0.0,0.0,0.0,0.0,0.0003942303010262549,0.006478870753198862,0.005831572692841291,0.9993167519569397,-0.01701916940510273,-0.032776378095149994,-0.0015545408241450787
331.0,0.0,0.0,0.0,0.0,0.0,0.0,-0.003996134735643864,0.0046977936290204525,0.003773455275222659,0.9992722868919373,-0.016791347414255142,-0.03413647785782814,-0.0028299919795244932
332.0,0.0,0.0,0.0,0.0,0.0,0.0,-0.011726664379239082,0.006182644981890917,-6.488258804893121e-05,0.9992576837539673,-0.01712273806333542,-0.034333568066358566,-0.003531412919983268
333.0,0.0,0.0,0.0,0.0,0.0,0.0,-0.01590117998421192,0.010078822262585163,0.0032345913350582123,0.9992868900299072,-0.01789887249469757,-0.033019546419382095,-0.003913452383130789
334.0,0.0,0.0,0.0,0.0,0.0,0.0,-0.015378095209598541,0.008880361914634705,-0.005382229574024677,0.9993321895599365,-0.017932459712028503,-0.031613729894161224,-0.003812165232375264
335.0,0.0,0.0,0.0,0.0,0.0,0.0,-0.015316418372094631,0.004220356233417988,-0.01736905798316002,0.999370813369751,-0.018426477909088135,-0.030075978487730026,-0.003762544598430395
336.0,0.0,0.0,0.0,0.0,0.0,0.0,-0.013977272436022758,0.004748204723000526,-0.01487224455922842,0.9994010925292969,-0.018548209220170975,-0.028926463797688484,-0.0040659597143530846
337.0,0.0,0.0,0.0,0.0,0.0,0.0,-0.011816384270787239,0.00600851234048605,-0.005103438161313534,0.999464213848114,-0.018122762441635132,-0.02692195400595665,-0.004276687745004892
338.0,0.0,0.0,0.0,0.0,0.0,0.0,-0.011664777994155884,0.004159236792474985,-0.0031750400085002184,0.9995163679122925,-0.018125561997294426,-0.024926820769906044,-0.0041677202098071575
339.0,0.0,0.0,0.0,0.0,0.0,0.0,-0.011006277054548264,0.0015760642709210515,-0.0011318890610709786,0.9995583891868591,-0.018566614016890526,-0.02298571914434433,-0.0031490654218941927
340.0,0.0,0.0,0.0,0.0,0.0,0.0,-0.009191173128783703,0.0048857624642550945,0.003510185284540057,0.9996178150177002,-0.0186255294829607,-0.02036648988723755,-0.001599975279532373
341.0,0.0,0.0,0.0,0.0,0.0,0.0,-0.006837267428636551,0.005316911265254021,0.013312160037457943,0.999670684337616,-0.018434520810842514,-0.01785248890519142,-0.00012841632997151464
342.0,0.0,0.0,0.0,0.0,0.0,0.0,-0.005500814411789179,0.002098436001688242,0.012326269410550594,0.9997118711471558,-0.018175503239035606,-0.015672512352466583,0.0006254028412513435
343.0,0.0,0.0,0.0,0.0,0.0,0.0,-0.004935664590448141,0.0004916090983897448,0.012117666192352772,0.9997578263282776,-0.01740318536758423,-0.013405210338532925,0.0013931755675002933
344.0,0.0,0.0,0.0,0.0,0.0,0.0,-0.0032138563692569733,0.00023982959100976586,0.006870269775390625,0.9998003840446472,-0.01652693934738636,-0.011144149117171764,0.00141237978823483
345.0,0.0,0.0,0.0,0.0,0.0,0.0,-0.0024714043829590082,-0.002986716805025935,-9.681691153673455e-05,0.9998304843902588,-0.015584716573357582,-0.00975508987903595,0.0010323739843443036
346.0,0.0,0.0,0.0,0.0,0.0,0.0,-0.0016818165313452482,-0.00807328149676323,-0.0006922991015017033,0.9998639822006226,-0.014186094515025616,-0.008234655484557152,0.0017368862172588706
347.0,0.0,0.0,0.0,0.0,0.0,0.0,0.0023904754780232906,-0.007453730795532465,-0.005557785741984844,0.9999000430107117,-0.012074758298695087,-0.006992749869823456,0.002331923460587859
348.0,0.0,0.0,0.0,0.0,0.0,0.0,0.004279312677681446,8.799429633654654e-05,-0.014554904773831367,0.9999117255210876,-0.01162018533796072,-0.0058893547393381596,0.0026566244196146727
349.0,0.0,0.0,0.0,0.0,0.0,0.0,0.010425534099340439,0.0031192894093692303,-0.0136213768273592,0.9999396800994873,-0.008840917609632015,-0.006066853180527687,0.0023991260677576065
350.0,0.0,0.0,0.0,0.0,0.0,0.0,0.0164030771702528,0.0047435578890144825,-0.006896942388266325,0.9999580979347229,-0.0052701495587825775,-0.0071721309795975685,0.0020991547498852015
351.0,0.0,0.0,0.0,0.0,0.0,0.0,0.017798351123929024,0.009249580092728138,0.010870850645005703,0.9999572038650513,-0.001018505310639739,-0.009041624143719673,0.0017126984894275665
352.0,0.0,0.0,0.0,0.0,0.0,0.0,0.01904439739882946,0.011650013737380505,-0.009585445746779442,0.9999232292175293,0.0033080298453569412,-0.011814127676188946,0.001757993595674634
353.0,0.0,0.0,0.0,0.0,0.0,0.0,0.01761743612587452,0.012183034792542458,-0.010568510740995407,0.999886155128479,0.006524587981402874,-0.013507743366062641,0.0017030854942277074
354.0,0.0,0.0,0.0,0.0,0.0,0.0,0.01466511469334364,0.011310611851513386,0.008276745676994324,0.9998777508735657,0.007852285169064999,-0.013444377109408379,0.0014323387295007706
355.0,0.0,0.0,0.0,0.0,0.0,0.0,0.01254214346408844,0.007118554785847664,0.010596921667456627,0.9998871684074402,0.008770246058702469,-0.012172217480838299,0.0007566704880446196
356.0,0.0,0.0,0.0,0.0,0.0,0.0,0.018579905852675438,0.0026246786583215,-0.025965478271245956,0.9998804330825806,0.010051225312054157,-0.01175004243850708,0.0004513575986493379
357.0,0.0,0.0,0.0,0.0,0.0,0.0,0.021161586046218872,1.6916079403017648e-05,-0.033795807510614395,0.999875545501709,0.010876066982746124,-0.011437330394983292,-5.723568392568268e-05
358.0,0.0,0.0,0.0,0.0,0.0,0.0,0.010734527371823788,-0.0037046419456601143,-0.009187658317387104,0.9998359680175781,0.013199656270444393,-0.012187648564577103,-0.0023516137152910233
359.0,0.0,0.0,0.0,0.0,0.0,0.0,0.008724978193640709,-0.0030573823023587465,-0.02738148160278797,0.9998173713684082,0.014296766370534897,-0.011800176464021206,-0.004663251340389252
360.0,0.0,0.0,0.0,0.0,0.0,0.0,0.012674429453909397,-0.006864484399557114,-0.015169686637818813,0.9997918605804443,0.014760347083210945,-0.012806916609406471,-0.005882723722606897
361.0,0.0,0.0,0.0,0.0,0.0,0.0,0.011493110097944736,-0.005680762697011232,0.000452997162938118,0.9997419714927673,0.015705827623605728,-0.014325184747576714,-0.00800656620413065
362.0,0.0,0.0,0.0,0.0,0.0,0.0,0.008207670412957668,-0.005581715144217014,-0.0025646002031862736,0.9996868371963501,0.016676897183060646,-0.01574007049202919,-0.010023175738751888
363.0,0.0,0.0,0.0,0.0,0.0,0.0,0.006877464707940817,-0.0037326067686080933,-0.0010885612573474646,0.9996055364608765,0.018053673207759857,-0.018307767808437347,-0.011309871450066566
364.0,0.0,0.0,0.0,0.0,0.0,0.0,0.004217691253870726,0.00382984708994627,0.015246880240738392,0.9994822144508362,0.019468795508146286,-0.021880919113755226,-0.01332054939121008
365.0,0.0,0.0,0.0,0.0,0.0,0.0,0.005616439506411552,0.004357501864433289,0.013531055301427841,0.999351978302002,0.020633703097701073,-0.02558598667383194,-0.014697007834911346
366.0,0.0,0.0,0.0,0.0,0.0,0.0,0.0031870536040514708,0.003683369839563966,0.022217202931642532,0.9992570877075195,0.020910130813717842,-0.02873929776251316,-0.014922522939741611
367.0,0.0,0.0,0.0,0.0,0.0,0.0,0.0014322096249088645,0.012305847369134426,0.026724282652139664,0.9991797804832458,0.02047226019203663,-0.031815189868211746,-0.014439817517995834
368.0,0.0,0.0,0.0,0.0,0.0,0.0,-0.003472737269476056,0.025770237669348717,0.037107307463884354,0.9990983605384827,0.01954079233109951,-0.03505078703165054,-0.013858417980372906
369.0,0.0,0.0,0.0,0.0,0.0,0.0,-0.004811046179383993,0.026172708719968796,0.0493321418762207,0.9990376830101013,0.018707090988755226,-0.03733861446380615,-0.013418139889836311
370.0,0.0,0.0,0.0,0.0,0.0,0.0,-0.007141538430005312,0.015491655096411705,0.025146130472421646,0.9989922046661377,0.017977356910705566,-0.03896749019622803,-0.013165161944925785
371.0,0.0,0.0,0.0,0.0,0.0,0.0,-0.013009979389607906,0.015191656537353992,0.038648784160614014,0.9989708065986633,0.017151938751339912,-0.03980277478694916,-0.013383053243160248
372.0,0.0,0.0,0.0,0.0,0.0,0.0,-0.013722136616706848,0.011894939467310905,0.029393017292022705,0.9990107417106628,0.015483664348721504,-0.039314091205596924,-0.013873924501240253
373.0,0.0,0.0,0.0,0.0,0.0,0.0,-0.015275038778781891,0.005069886799901724,0.008706442080438137,0.9991008043289185,0.013415641151368618,-0.037630222737789154,-0.014207746833562851
374.0,0.0,0.0,0.0,0.0,0.0,0.0,-0.015524543821811676,0.005496341735124588,-0.013491854071617126,0.9991657733917236,0.011460727080702782,-0.0362505204975605,-0.014922776259481907
375.0,0.0,0.0,0.0,0.0,0.0,0.0,-0.018794065341353416,-0.00024360590032301843,-0.03698907047510147,0.9991816282272339,0.00978130754083395,-0.036148205399513245,-0.015301243402063847
376.0,0.0,0.0,0.0,0.0,0.0,0.0,-0.02196645736694336,-0.0005224105552770197,-0.02837967500090599,0.999210000038147,0.007680696435272694,-0.03638743981719017,-0.014034789986908436
377.0,0.0,0.0,0.0,0.0,0.0,0.0,-0.025629546493291855,-0.000951100024394691,-0.006077300291508436,0.9992639422416687,0.004978841636329889,-0.03597266599535942,-0.012382685206830502
378.0,0.0,0.0,0.0,0.0,0.0,0.0,-0.026374109089374542,-0.002470593200996518,0.0041475133039057255,0.999272882938385,0.002272278070449829,-0.03646858409047127,-0.010915142484009266
379.0,0.0,0.0,0.0,0.0,0.0,0.0,-0.021765220910310745,-0.00045110980863682926,-0.002420511795207858,0.9992502331733704,-7.033436850178987e-05,-0.03738103806972504,-0.010105300694704056
380.0,0.0,0.0,0.0,0.0,0.0,0.0,-0.020897770300507545,-0.0039321365766227245,-0.00925577711313963,0.9991979002952576,-0.0017448841826990247,-0.03877127170562744,-0.009891843423247337
381.0,0.0,0.0,0.0,0.0,0.0,0.0,-0.022399798035621643,-0.00848536565899849,-0.011889289133250713,0.9991101026535034,-0.003629348473623395,-0.040857795625925064,-0.009855705313384533
382.0,0.0,0.0,0.0,0.0,0.0,0.0,-0.019234057515859604,-0.015270331874489784,-0.014264929108321667,0.9990336894989014,-0.00611141137778759,-0.042074769735336304,-0.011174500919878483
383.0,0.0,0.0,0.0,0.0,0.0,0.0,-0.01630636490881443,-0.01873779110610485,-0.020417962223291397,0.9989822506904602,-0.009625693783164024,-0.0422198660671711,-0.012636693194508553
384.0,0.0,0.0,0.0,0.0,0.0,0.0,-0.008937292732298374,-0.02067468874156475,-0.007302324287593365,0.9988908171653748,-0.013626234605908394,-0.042744144797325134,-0.014300852082669735
385.0,0.0,0.0,0.0,0.0,0.0,0.0,-0.002842236077412963,-0.024121016263961792,-0.008440123870968819,0.9987626075744629,-0.017286105081439018,-0.04338005930185318,-0.01711626723408699
386.0,0.0,0.0,0.0,0.0,0.0,0.0,0.0023877720814198256,-0.015835683792829514,-0.037141624838113785,0.9985828995704651,-0.020296689122915268,-0.04447795823216438,-0.0210309736430645
387.0,0.0,0.0,0.0,0.0,0.0,0.0,0.004795555025339127,-0.011233624070882797,-0.02397150732576847,0.9983368515968323,-0.023730667307972908,-0.0461304634809494,-0.02515377476811409
388.0,0.0,0.0,0.0,0.0,0.0,0.0,0.004930902738124132,-0.009773184545338154,-0.014257051981985569,0.9980517029762268,-0.027397820726037025,-0.048085767775774,-0.028813952580094337
389.0,0.0,0.0,0.0,0.0,0.0,0.0,0.0022467912640422583,-0.008452505804598331,-0.0014716524165123701,0.997762143611908,-0.030906260013580322,-0.05006915703415871,-0.031757500022649765
390.0,0.0,0.0,0.0,0.0,0.0,0.0,0.002289962489157915,-0.0015803889837116003,0.007635250221937895,0.997527003288269,-0.0329812653362751,-0.05159585922956467,-0.03450160101056099
391.0,0.0,0.0,0.0,0.0,0.0,0.0,0.0015419613337144256,0.00693478574976325,0.03608069196343422,0.9973397254943848,-0.033406950533390045,-0.05322786420583725,-0.03693652153015137
392.0,0.0,0.0,0.0,0.0,0.0,0.0,-0.0009981474140658975,0.00040604459354653955,0.02551002986729145,0.9972207546234131,-0.03243947774171829,-0.054157454520463943,-0.03957563638687134
393.0,0.0,0.0,0.0,0.0,0.0,0.0,-0.0004840301990043372,0.0017557779792696238,0.010317166335880756,0.9973611831665039,-0.02934233471751213,-0.0509309321641922,-0.04261339083313942
394.0,0.0,0.0,0.0,0.0,0.0,0.0,0.003504884894937277,0.006815160624682903,-0.021110452711582184,0.9974890947341919,-0.02844492346048355,-0.047345828264951706,-0.04432954639196396
395.0,0.0,0.0,0.0,0.0,0.0,0.0,0.005555812269449234,0.011511219665408134,-0.029208548367023468,0.9976876378059387,-0.02762702666223049,-0.042480360716581345,-0.04530123621225357
396.0,0.0,0.0,0.0,0.0,0.0,0.0,0.010996579192578793,0.011745517142117023,-0.052895136177539825,0.9978827238082886,-0.026529284194111824,-0.03813718259334564,-0.0455227792263031
397.0,0.0,0.0,0.0,0.0,0.0,0.0,0.015539899468421936,0.012944001704454422,-0.06163990497589111,0.9980354905128479,-0.02547239512205124,-0.03602775186300278,-0.044480882585048676
398.0,0.0,0.0,0.0,0.0,0.0,0.0,0.015329104848206043,0.018057597801089287,-0.04796541482210159,0.998143196105957,-0.02448098175227642,-0.03580298274755478,-0.04276828095316887
399.0,0.0,0.0,0.0,0.0,0.0,0.0,0.014297358691692352,0.02130797505378723,-0.01978646032512188,0.9982211589813232,-0.02414647862315178,-0.0361064150929451,-0.04083584249019623
400.0,0.0,0.0,0.0,0.0,0.0,0.0,0.014102878980338573,0.027200736105442047,-0.001968712778761983,0.9982995390892029,-0.024163801223039627,-0.03651250898838043,-0.0384940505027771
401.0,0.0,0.0,0.0,0.0,0.0,0.0,0.009717033244669437,0.03314089775085449,0.007329809479415417,0.998328685760498,-0.023937765508890152,-0.038019098341464996,-0.036354247480630875
402.0,0.0,0.0,0.0,0.0,0.0,0.0,0.006632119417190552,0.028288614004850388,0.016270102933049202,0.9983477592468262,-0.024021467193961143,-0.038757193833589554,-0.03496481478214264
403.0,0.0,0.0,0.0,0.0,0.0,0.0,0.005171593744307756,0.027548959478735924,0.018821168690919876,0.9983561635017395,-0.024557126685976982,-0.03905497491359711,-0.034020278602838516
404.0,0.0,0.0,0.0,0.0,0.0,0.0,0.0043007079511880875,0.0263640359044075,0.013227739371359348,0.9983793497085571,-0.024986781179904938,-0.03879208490252495,-0.03331642970442772
405.0,0.0,0.0,0.0,0.0,0.0,0.0,0.0017221308080479503,0.02942505106329918,0.02512085810303688,0.9983651041984558,-0.02546537108719349,-0.03985488414764404,-0.03210669010877609
406.0,0.0,0.0,0.0,0.0,0.0,0.0,-0.004818135406821966,0.033293217420578,0.03517312929034233,0.9983315467834473,-0.026048092171549797,-0.041244987398386,-0.03089659847319126
407.0,0.0,0.0,0.0,0.0,0.0,0.0,-0.0076509155333042145,0.03493010252714157,0.0493764691054821,0.9983142018318176,-0.02637874148786068,-0.04206328094005585,-0.03006547875702381
408.0,0.0,0.0,0.0,0.0,0.0,0.0,-0.005379536654800177,0.03366459161043167,0.05721605196595192,0.9983180165290833,-0.026750875636935234,-0.04289289936423302,-0.028382746502757072
409.0,0.0,0.0,0.0,0.0,0.0,0.0,-0.005756288301199675,0.03376847505569458,0.05744986981153488,0.9983004927635193,-0.02704046294093132,-0.04384512081742287,-0.02726770006120205
410.0,0.0,0.0,0.0,0.0,0.0,0.0,0.0008464994607493281,0.03300798311829567,0.04772832989692688,0.9982774257659912,-0.02688770554959774,-0.04461260512471199,-0.026999231427907944
411.0,0.0,0.0,0.0,0.0,0.0,0.0,0.008985868655145168,0.022795332595705986,0.00883844867348671,0.9982389211654663,-0.025928920134902,-0.04604731872677803,-0.026952926069498062
412.0,0.0,0.0,0.0,0.0,0.0,0.0,0.010270020924508572,0.017777379602193832,0.010285284370183945,0.998164713382721,-0.024400755763053894,-0.04813825339078903,-0.027475299313664436
413.0,0.0,0.0,0.0,0.0,0.0,0.0,0.003529881127178669,0.02792123146355152,0.02951326034963131,0.9981053471565247,-0.022447481751441956,-0.050237637013196945,-0.027536917477846146
414.0,0.0,0.0,0.0,0.0,0.0,0.0,-0.005311591550707817,0.02691233530640602,0.03853144124150276,0.9980396628379822,-0.02005906030535698,-0.051884718239307404,-0.028687873855233192
415.0,0.0,0.0,0.0,0.0,0.0,0.0,-0.009034593589603901,0.015425967052578926,0.019231153652071953,0.9979994893074036,-0.01958080194890499,-0.05215682461857796,-0.029897738248109818
416.0,0.0,0.0,0.0,0.0,0.0,0.0,-0.010435685515403748,0.010597052983939648,-0.005785500165075064,0.998034656047821,-0.019557392224669456,-0.0508468933403492,-0.030972206965088844
417.0,0.0,0.0,0.0,0.0,0.0,0.0,-0.00876640249043703,0.0039665792137384415,-0.031365033239126205,0.9980578422546387,-0.019314460456371307,-0.049612682312726974,-0.03234414756298065
418.0,0.0,0.0,0.0,0.0,0.0,0.0,-0.007402066141366959,-0.005976694170385599,-0.04656966030597687,0.998038113117218,-0.01904097944498062,-0.049691714346408844,-0.03298729285597801
419.0,0.0,0.0,0.0,0.0,0.0,0.0,-0.00953010842204094,-0.013299115933477879,-0.037369586527347565,0.9979694485664368,-0.018904486671090126,-0.051082585006952286,-0.03301815688610077
420.0,0.0,0.0,0.0,0.0,0.0,0.0,-0.011637656949460506,-0.013777250424027443,-0.02365158498287201,0.997886061668396,-0.019364940002560616,-0.052990399301052094,-0.03225897252559662
421.0,0.0,0.0,0.0,0.0,0.0,0.0,-0.012133447453379631,-0.017357807606458664,-0.006213512737303972,0.9978144764900208,-0.020302459597587585,-0.054297346621751785,-0.03172348812222481
422.0,0.0,0.0,0.0,0.0,0.0,0.0,-0.008656222373247147,-0.022203756496310234,-0.005311544518917799,0.997738242149353,-0.021263232454657555,-0.05545588210225105,-0.031475730240345
423.0,0.0,0.0,0.0,0.0,0.0,0.0,-0.0033569468650966883,-0.022651465609669685,-0.0080152852460742,0.9976829290390015,-0.021886682137846947,-0.056476663798093796,-0.030984416604042053
424.0,0.0,0.0,0.0,0.0,0.0,0.0,-0.0029232483357191086,-0.021261164918541908,-0.013991817831993103,0.9975854158401489,-0.022748872637748718,-0.0581660158932209,-0.03037051111459732
425.0,0.0,0.0,0.0,0.0,0.0,0.0,-0.0024339628871530294,-0.021759644150733948,-0.0020336490124464035,0.9974948763847351,-0.023591231554746628,-0.05958901718258858,-0.029948502779006958
426.0,0.0,0.0,0.0,0.0,0.0,0.0,0.0002904691791627556,-0.02034897357225418,0.012486430816352367,0.9974544048309326,-0.02406795509159565,-0.05995102599263191,-0.030193086713552475
427.0,0.0,0.0,0.0,0.0,0.0,0.0,0.0021812329068779945,-0.02046014927327633,-0.005562357604503632,0.9973952174186707,-0.023796921595931053,-0.061020392924547195,-0.030219541862607002
428.0,0.0,0.0,0.0,0.0,0.0,0.0,0.006499199196696281,-0.01431879773736,-0.007713964208960533,0.997343122959137,-0.02345970645546913,-0.06199425831437111,-0.030223440378904343
429.0,0.0,0.0,0.0,0.0,0.0,0.0,0.004850117024034262,-0.010301233269274235,0.0007772337994538248,0.99724280834198,-0.02379460819065571,-0.0635102167725563,-0.030127376317977905
430.0,0.0,0.0,0.0,0.0,0.0,0.0,0.0034507191739976406,-0.009118014946579933,-0.004532848484814167,0.9971293807029724,-0.024355323985219002,-0.06521100550889969,-0.02979334071278572
431.0,0.0,0.0,0.0,0.0,0.0,0.0,0.0023166651371866465,-0.009605400264263153,-0.01071220450103283,0.9970224499702454,-0.02502603456377983,-0.06684380769729614,-0.0291878841817379
432.0,0.0,0.0,0.0,0.0,0.0,0.0,-0.0013395198620855808,-0.009914710186421871,0.0004411738773342222,0.996935248374939,-0.02604573406279087,-0.06808462738990784,-0.028405893594026566
433.0,0.0,0.0,0.0,0.0,0.0,0.0,-0.006194942630827427,-0.008666968904435635,0.0011697766603901982,0.9968622922897339,-0.027170972898602486,-0.0689489096403122,-0.027823934331536293
434.0,0.0,0.0,0.0,0.0,0.0,0.0,-0.008451082743704319,-0.012925345450639725,0.0020302364137023687,0.9968176484107971,-0.028424227610230446,-0.06923805922269821,-0.02743968740105629
435.0,0.0,0.0,0.0,0.0,0.0,0.0,-0.012324498035013676,-0.019056538119912148,0.0025489821564406157,0.9968402981758118,-0.02988547459244728,-0.06837765872478485,-0.0272208284586668
436.0,0.0,0.0,0.0,0.0,0.0,0.0,-0.014404191635549068,-0.022747959941625595,-0.0036742512602359056,0.9969109296798706,-0.0324983075261116,-0.06589993834495544,-0.027751097455620766
437.0,0.0,0.0,0.0,0.0,0.0,0.0,-0.013492122292518616,-0.02399914152920246,-0.008077968843281269,0.9970422983169556,-0.035569172352552414,-0.062035366892814636,-0.028178254142403603
438.0,0.0,0.0,0.0,0.0,0.0,0.0,-0.014223342761397362,-0.019872816279530525,-0.001567801577039063,0.9971593022346497,-0.037733931094408035,-0.05840602144598961,-0.028955545276403427
439.0,0.0,0.0,0.0,0.0,0.0,0.0,-0.01235097087919712,-0.017935309559106827,-0.022472379729151726,0.9972939491271973,-0.039368391036987305,-0.054177261888980865,-0.03033238835632801
440.0,0.0,0.0,0.0,0.0,0.0,0.0,-0.005808398127555847,-0.01118339505046606,-0.021598616614937782,0.9973812103271484,-0.04069867730140686,-0.05072273686528206,-0.03165077045559883
441.0,0.0,0.0,0.0,0.0,0.0,0.0,-0.001665970659814775,-0.004164524842053652,-0.01380107831209898,0.9974077939987183,-0.04155924543738365,-0.04905183985829353,-0.03232048451900482
442.0,0.0,0.0,0.0,0.0,0.0,0.0,-0.0011046773288398981,0.00897143967449665,-0.003978240303695202,0.9974538683891296,-0.041593726724386215,-0.04772118851542473,-0.032845985144376755
443.0,0.0,0.0,0.0,0.0,0.0,0.0,0.001509250607341528,0.019340675324201584,0.012309376150369644,0.9975520372390747,-0.04040303826332092,-0.046324796974658966,-0.033346377313137054
444.0,0.0,0.0,0.0,0.0,0.0,0.0,0.004603465553373098,0.02767409197986126,0.013001685962080956,0.9976720213890076,-0.03826698660850525,-0.04510002210736275,-0.03394658863544464
445.0,0.0,0.0,0.0,0.0,0.0,0.0,0.009337145835161209,0.03023420087993145,0.007586467545479536,0.9978178143501282,-0.03635124862194061,-0.04281497746706009,-0.03471560403704643
446.0,0.0,0.0,0.0,0.0,0.0,0.0,0.01444939523935318,0.03381938487291336,0.002364432904869318,0.9979760646820068,-0.034864913672208786,-0.03982260078191757,-0.03524703159928322
447.0,0.0,0.0,0.0,0.0,0.0,0.0,0.020827824249863625,0.04215581342577934,-0.01099409256130457,0.9981192350387573,-0.03333871811628342,-0.03795313462615013,-0.03473437950015068
448.0,0.0,0.0,0.0,0.0,0.0,0.0,0.027160387486219406,0.04564381018280983,-0.022849764674901962,0.9982504844665527,-0.03143814951181412,-0.03795301169157028,-0.03266965225338936
449.0,0.0,0.0,0.0,0.0,0.0,0.0,0.027261273935437202,0.05358199030160904,-0.005737272556871176,0.9983491897583008,-0.028905846178531647,-0.04000995308160782,-0.02936818078160286
450.0,0.0,0.0,0.0,0.0,0.0,0.0,0.018077293410897255,0.057868994772434235,0.03022908605635166,0.9984079003334045,-0.02721637301146984,-0.04188072308897972,-0.026204565539956093
451.0,0.0,0.0,0.0,0.0,0.0,0.0,0.012123596854507923,0.05037194490432739,0.03176956623792648,0.9984540939331055,-0.026743220165371895,-0.042609162628650665,-0.02364940755069256
452.0,0.0,0.0,0.0,0.0,0.0,0.0,0.0129783246666193,0.04067029803991318,0.0319213792681694,0.9985290765762329,-0.026171313598752022,-0.04221297800540924,-0.021744411438703537
453.0,0.0,0.0,0.0,0.0,0.0,0.0,0.015138066373765469,0.03474416211247444,-0.006250042002648115,0.9985772371292114,-0.025356410071253777,-0.04200368747115135,-0.020897306501865387
454.0,0.0,0.0,0.0,0.0,0.0,0.0,0.015592704527080059,0.025484351441264153,-0.02015623077750206,0.9985798001289368,-0.025067584589123726,-0.042472586035728455,-0.02015712484717369
455.0,0.0,0.0,0.0,0.0,0.0,0.0,0.007906859740614891,0.01920110359787941,-0.0029251109808683395,0.9985384941101074,-0.024566099047660828,-0.043680742383003235,-0.02024064213037491
456.0,0.0,0.0,0.0,0.0,0.0,0.0,0.006727570202201605,0.013774257153272629,-0.00977624487131834,0.998447060585022,-0.024124646559357643,-0.04534204676747322,-0.02158154919743538
457.0,0.0,0.0,0.0,0.0,0.0,0.0,0.005758690182119608,0.007154317107051611,-0.008992336690425873,0.998324990272522,-0.02410014346241951,-0.04738888889551163,-0.022822905331850052
458.0,0.0,0.0,0.0,0.0,0.0,0.0,0.00017465234850533307,-0.0010028030956164002,0.0006439412827603519,0.998199462890625,-0.024452941492199898,-0.049317631870508194,-0.02383609674870968
459.0,0.0,0.0,0.0,0.0,0.0,0.0,-0.005190799944102764,-0.0036406535655260086,0.013478055596351624,0.9980583786964417,-0.025089416652917862,-0.05146707221865654,-0.024519426748156548
460.0,0.0,0.0,0.0,0.0,0.0,0.0,-0.008615213446319103,-0.010896344669163227,0.013506387360394001,0.9979102611541748,-0.02661558799445629,-0.05310763046145439,-0.025423629209399223
461.0,0.0,0.0,0.0,0.0,0.0,0.0,-0.010933722369372845,-0.017118196934461594,0.008857463486492634,0.9977820515632629,-0.028130773454904556,-0.0542394295334816,-0.026418181136250496
462.0,0.0,0.0,0.0,0.0,0.0,0.0,-0.013264618813991547,-0.029528556391596794,0.008667849004268646,0.9976497292518616,-0.029503285884857178,-0.055373843759298325,-0.027540219947695732
463.0,0.0,0.0,0.0,0.0,0.0,0.0,-0.013531421311199665,-0.03990361467003822,0.00628981227055192,0.9975016117095947,-0.031053327023983,-0.05595849081873894,-0.029921606183052063
464.0,0.0,0.0,0.0,0.0,0.0,0.0,-0.016681749373674393,-0.04996214434504509,0.0012647564290091395,0.9973514676094055,-0.03307356685400009,-0.056116487830877304,-0.0323675312101841
465.0,0.0,0.0,0.0,0.0,0.0,0.0,-0.01804707571864128,-0.057274311780929565,-0.0010611731559038162,0.9972068071365356,-0.035663243383169174,-0.055552929639816284,-0.03493998199701309
466.0,0.0,0.0,0.0,0.0,0.0,0.0,-0.020245451480150223,-0.06033293530344963,0.011058595962822437,0.9970569610595703,-0.03903790935873985,-0.05449197068810463,-0.0372086837887764
467.0,0.0,0.0,0.0,0.0,0.0,0.0,-0.01926666498184204,-0.05986674875020981,0.007065161596983671,0.9969241619110107,-0.04200596362352371,-0.05325576290488243,-0.039269328117370605
468.0,0.0,0.0,0.0,0.0,0.0,0.0,-0.014768526889383793,-0.05947009101510048,-0.009013335220515728,0.9967999458312988,-0.04456298053264618,-0.051937285810709,-0.04131489247083664
469.0,0.0,0.0,0.0,0.0,0.0,0.0,-0.012578005902469158,-0.05194969102740288,-0.013237937353551388,0.9966394305229187,-0.0469307079911232,-0.051350366324186325,-0.04325741529464722
470.0,0.0,0.0,0.0,0.0,0.0,0.0,-0.010852979496121407,-0.04210863262414932,-0.015853723511099815,0.9964719414710999,-0.0491582415997982,-0.05097608640789986,-0.045036714524030685
471.0,0.0,0.0,0.0,0.0,0.0,0.0,-0.00952203944325447,-0.03489247336983681,-0.023006392642855644,0.9963007569313049,-0.05089918524026871,-0.051810648292303085,-0.045935846865177155
472.0,0.0,0.0,0.0,0.0,0.0,0.0,-0.009049699641764164,-0.028644580394029617,-0.02275780960917473,0.9961080551147461,-0.052859824150800705,-0.05287453159689903,-0.046681229025125504
473.0,0.0,0.0,0.0,0.0,0.0,0.0,-0.008096391335129738,-0.019316013902425766,-0.011093594133853912,0.9959611892700195,-0.05416569486260414,-0.053707513958215714,-0.04735715687274933
474.0,0.0,0.0,0.0,0.0,0.0,0.0,-0.005869716871529818,-0.011592956259846687,0.007098077796399593,0.9959288239479065,-0.055060841143131256,-0.05363773554563522,-0.04708630591630936
475.0,0.0,0.0,0.0,0.0,0.0,0.0,-0.0012317985529080033,0.005164432805031538,0.0363900363445282,0.9959191679954529,-0.05519162863492966,-0.053665075451135635,-0.047107815742492676
476.0,0.0,0.0,0.0,0.0,0.0,0.0,0.00831617321819067,0.014448288828134537,0.04153935983777046,0.9959805011749268,-0.05414075031876564,-0.05366721749305725,-0.04702894017100334
477.0,0.0,0.0,0.0,0.0,0.0,0.0,0.013971996493637562,0.0212276428937912,0.03917352855205536,0.9961115717887878,-0.052879102528095245,-0.05309252440929413,-0.04633551836013794
478.0,0.0,0.0,0.0,0.0,0.0,0.0,0.01745486818253994,0.027540599927306175,0.0325726643204689,0.9962388277053833,-0.05129722133278847,-0.05253506451845169,-0.046007897704839706
479.0,0.0,0.0,0.0,0.0,0.0,0.0,0.016018684953451157,0.03649969398975372,0.02243024669587612,0.9963860511779785,-0.04923434928059578,-0.05228793993592262,-0.04535156115889549
480.0,0.0,0.0,0.0,0.0,0.0,0.0,0.010701124556362629,0.03497322276234627,0.01717275008559227,0.9966321587562561,-0.04732771962881088,-0.05070114880800247,-0.04375250265002251
481.0,0.0,0.0,0.0,0.0,0.0,0.0,0.004724117461591959,0.03127393499016762,0.013906818814575672,0.9968932271003723,-0.045890532433986664,-0.048666901886463165,-0.04159295931458473
482.0,0.0,0.0,0.0,0.0,0.0,0.0,-0.000616271048784256,0.029453404247760773,0.014308816753327847,0.9971487522125244,-0.04301166534423828,-0.047767143696546555,-0.0395306758582592
483.0,0.0,0.0,0.0,0.0,0.0,0.0,-0.003186310874298215,0.030348366126418114,-0.007096665445715189,0.9974215626716614,-0.039804693311452866,-0.045298557728528976,-0.03890926018357277
484.0,0.0,0.0,0.0,0.0,0.0,0.0,-0.006821633316576481,0.02622528187930584,-0.01822047121822834,0.9976438283920288,-0.0371125265955925,-0.0427057258784771,-0.03880815953016281
485.0,0.0,0.0,0.0,0.0,0.0,0.0,-0.01129577960819006,0.023850828409194946,-0.01423625648021698,0.9978469610214233,-0.0346800833940506,-0.03989125043153763,-0.038825877010822296
486.0,0.0,0.0,0.0,0.0,0.0,0.0,-0.016595374792814255,0.02560112252831459,-0.04186844080686569,0.9980660080909729,-0.03279859945178032,-0.03612283989787102,-0.03851946070790291
487.0,0.0,0.0,0.0,0.0,0.0,0.0,-0.017116641625761986,0.02929503098130226,-0.044099289923906326,0.9982766509056091,-0.03130531311035156,-0.032375600188970566,-0.03763129934668541
488.0,0.0,0.0,0.0,0.0,0.0,0.0,-0.020633071660995483,0.03262868523597717,-0.021845322102308273,0.9984595775604248,-0.030221974477171898,-0.029466604813933372,-0.03601938858628273
489.0,0.0,0.0,0.0,0.0,0.0,0.0,-0.02451610192656517,0.03250068426132202,-0.008703131228685379,0.9986265301704407,-0.02899863012135029,-0.027137305587530136,-0.03417536988854408
490.0,0.0,0.0,0.0,0.0,0.0,0.0,-0.019257348030805588,0.032437410205602646,-0.01717543415725231,0.9988016486167908,-0.02727232314646244,-0.025531509891152382,-0.03162110596895218
491.0,0.0,0.0,0.0,0.0,0.0,0.0,-0.013200563378632069,0.04053659364581108,-0.018409723415970802,0.9989699125289917,-0.024770934134721756,-0.02490556798875332,-0.028730863705277443
492.0,0.0,0.0,0.0,0.0,0.0,0.0,-0.009328561834990978,0.037342485040426254,-0.014268174767494202,0.9991198778152466,-0.0223823431879282,-0.024524180218577385,-0.02564040757715702
493.0,0.0,0.0,0.0,0.0,0.0,0.0,-0.006553214974701405,0.029725072905421257,-0.006274907849729061,0.9992468357086182,-0.01992717944085598,-0.02465185709297657,-0.02238844335079193
494.0,0.0,0.0,0.0,0.0,0.0,0.0,-0.00498741352930665,0.02787458337843418,0.01003385242074728,0.9993466734886169,-0.017597340047359467,-0.024929629638791084,-0.019378433004021645
495.0,0.0,0.0,0.0,0.0,0.0,0.0,0.0032407811377197504,0.020966554060578346,0.0064122844487428665,0.9994335174560547,-0.01554768718779087,-0.025051405653357506,-0.0162283293902874
496.0,0.0,0.0,0.0,0.0,0.0,0.0,0.003463038941845298,0.0019390162779018283,0.018003687262535095,0.9994940161705017,-0.014125627465546131,-0.02417372167110443,-0.015091286040842533
497.0,0.0,0.0,0.0,0.0,0.0,0.0,0.005019152071326971,-0.011986917816102505,0.033737216144800186,0.9995406270027161,-0.012358434498310089,-0.02359524369239807,-0.014463500119745731
498.0,0.0,0.0,0.0,0.0,0.0,0.0,0.015201106667518616,0.003132081823423505,0.013477609492838383,0.9995718598365784,-0.009620430879294872,-0.02420864999294281,-0.013337979093194008
499.0,0.0,0.0,0.0,0.0,0.0,0.0,0.015370609238743782,0.01870863139629364,0.013274544849991798,0.9995954632759094,-0.005827730055898428,-0.02457622066140175,-0.013095826841890812
500.0,0.0,0.0,0.0,0.0,0.0,0.0,0.017040325328707695,0.02100197970867157,0.0018270632717758417,0.9996245503425598,-0.003387093311175704,-0.02437014691531658,-0.012056252919137478
501.0,0.0,0.0,0.0,0.0,0.0,0.0,0.018824955448508263,0.021114293485879898,-0.01471724733710289,0.99965900182724,-0.0025578048080205917,-0.023842472583055496,-0.01036533061414957
502.0,0.0,0.0,0.0,0.0,0.0,0.0,0.012239360250532627,0.02688104473054409,-0.003034633118659258,0.9997037649154663,-0.002087987493723631,-0.02247558906674385,-0.009139490313827991
503.0,0.0,0.0,0.0,0.0,0.0,0.0,0.016225842759013176,0.022594885900616646,-0.025026896968483925,0.9997302889823914,-0.001853173947893083,-0.021583249792456627,-0.008410003036260605
504.0,0.0,0.0,0.0,0.0,0.0,0.0,0.014975347556173801,0.01666940003633499,-0.024043884128332138,0.9997351169586182,-0.001951787038706243,-0.021772228181362152,-0.0072181751020252705
505.0,0.0,0.0,0.0,0.0,0.0,0.0,0.009937338531017303,0.013732288964092731,-0.01919640600681305,0.9997323155403137,-0.002123679267242551,-0.022100094705820084,-0.006503698416054249
506.0,0.0,0.0,0.0,0.0,0.0,0.0,0.010973035357892513,-0.002730804728344083,-0.024679463356733322,0.9997187256813049,-0.003087165765464306,-0.02254960499703884,-0.006702180486172438
507.0,0.0,0.0,0.0,0.0,0.0,0.0,0.010747327469289303,-0.01356538012623787,-0.028212646022439003,0.9996861815452576,-0.004735575523227453,-0.02355128899216652,-0.007187711540609598
508.0,0.0,0.0,0.0,0.0,0.0,0.0,0.006315519101917744,-0.027425166219472885,-0.02519909106194973,0.9996426105499268,-0.007141610607504845,-0.02466479316353798,-0.007474649231880903
509.0,0.0,0.0,0.0,0.0,0.0,0.0,-0.002221377333626151,-0.03776879608631134,-0.012607448734343052,0.999596357345581,-0.010310592129826546,-0.025373753160238266,-0.0076028951443731785
510.0,0.0,0.0,0.0,0.0,0.0,0.0,-0.013307061046361923,-0.043824490159749985,0.005079308524727821,0.9995488524436951,-0.014275669120252132,-0.025439631193876266,-0.007175769191235304
511.0,0.0,0.0,0.0,0.0,0.0,0.0,-0.013226187787950039,-0.04092441871762276,0.0013217295054346323,0.9994974732398987,-0.018046021461486816,-0.025163138285279274,-0.006821332965046167
512.0,0.0,0.0,0.0,0.0,0.0,0.0,-0.011144079267978668,-0.03985988348722458,-0.0051595051772892475,0.9994251728057861,-0.021368611603975296,-0.025348657742142677,-0.007153424434363842
513.0,0.0,0.0,0.0,0.0,0.0,0.0,-0.012850584462285042,-0.03067784383893013,0.0027157384902238846,0.9993444681167603,-0.024327915161848068,-0.026028349995613098,-0.006509062834084034
514.0,0.0,0.0,0.0,0.0,0.0,0.0,-0.014802462421357632,-0.018592149019241333,0.0061906385235488415,0.9992640018463135,-0.026606280356645584,-0.027073068544268608,-0.005600334610790014
515.0,0.0,0.0,0.0,0.0,0.0,0.0,-0.015798330307006836,-0.0015945549821481109,0.003798192599788308,0.9991887211799622,-0.028487734496593475,-0.02810770273208618,-0.004622317850589752
516.0,0.0,0.0,0.0,0.0,0.0,0.0,-0.01615176908671856,0.009046354331076145,-0.0016325420001521707,0.9990792870521545,-0.03041731007397175,-0.030067695304751396,-0.0033797752112150192
517.0,0.0,0.0,0.0,0.0,0.0,0.0,-0.011377074755728245,0.0032918225042521954,0.033143121749162674,0.9989465475082397,-0.032571353018283844,-0.03226180747151375,-0.0021963228937238455
518.0,0.0,0.0,0.0,0.0,0.0,0.0,-0.013997046276926994,0.01563671976327896,0.03939780592918396,0.9988450407981873,-0.03477153927087784,-0.033162590116262436,-0.0009295710478909314
519.0,0.0,0.0,0.0,0.0,0.0,0.0,-0.017978977411985397,0.028856342658400536,0.024660412222146988,0.9987467527389526,-0.03669760376214981,-0.03404467552900314,0.0006651327130384743
520.0,0.0,0.0,0.0,0.0,0.0,0.0,-0.017821351066231728,0.030372919514775276,0.027633192017674446,0.9986534118652344,-0.038359858095645905,-0.03487537056207657,0.0021987317595630884
521.0,0.0,0.0,0.0,0.0,0.0,0.0,-0.01584426872432232,0.020176725462079048,0.01951965130865574,0.998545229434967,-0.04000650718808174,-0.03600848466157913,0.0033286120742559433
522.0,0.0,0.0,0.0,0.0,0.0,0.0,-0.01803974062204361,0.01370693277567625,0.014851407147943974,0.998449444770813,-0.04121103510260582,-0.0372549444437027,0.0037504422944039106
523.0,0.0,0.0,0.0,0.0,0.0,0.0,-0.01871691644191742,0.005842654034495354,0.012404035776853561,0.9983682036399841,-0.04215995594859123,-0.03833124786615372,0.0037839512806385756
524.0,0.0,0.0,0.0,0.0,0.0,0.0,-0.018676187843084335,0.002048780443146825,0.004594163037836552,0.9982961416244507,-0.04320547729730606,-0.03906581550836563,0.003383879316970706
525.0,0.0,0.0,0.0,0.0,0.0,0.0,-0.01940951682627201,0.0007484449306502938,-0.003886816091835499,0.9982361793518066,-0.04406566172838211,-0.03970284387469292,0.002743965247645974
526.0,0.0,0.0,0.0,0.0,0.0,0.0,-0.01677209883928299,0.0006513441912829876,-0.014134480617940426,0.998209536075592,-0.04440860450267792,-0.03999195620417595,0.0025399234145879745
527.0,0.0,0.0,0.0,0.0,0.0,0.0,-0.02139168791472912,0.015643857419490814,-0.041267815977334976,0.998163640499115,-0.04415042698383331,-0.04144496098160744,0.0018878285773098469
528.0,0.0,0.0,0.0,0.0,0.0,0.0,-0.01247209683060646,0.008300283923745155,-0.02758631855249405,0.9980152249336243,-0.0443415641784668,-0.04470512643456459,0.000982679077424109
529.0,0.0,0.0,0.0,0.0,0.0,0.0,-0.007824676111340523,-0.028902972117066383,0.03827007859945297,0.9979382157325745,-0.045100800693035126,-0.04567224904894829,0.00020548563043121248
530.0,0.0,0.0,0.0,0.0,0.0,0.0,-0.006727108731865883,-0.023723626509308815,0.022352753207087517,0.9979135394096375,-0.046359479427337646,-0.044952135533094406,-3.4586577385198325e-05
531.0,0.0,0.0,0.0,0.0,0.0,0.0,-0.004714311566203833,0.009182468056678772,0.0018320019589737058,0.997961163520813,-0.046317633241415024,-0.0439143106341362,4.113053364562802e-05
532.0,0.0,0.0,0.0,0.0,0.0,0.0,-0.0007899178308434784,0.001364667434245348,0.0011981070274487138,0.9980592727661133,-0.04586494714021683,-0.042127661406993866,-0.0007962554227560759
533.0,0.0,0.0,0.0,0.0,0.0,0.0,0.0016860786126926541,-0.007575714960694313,0.005315187852829695,0.9981157779693604,-0.04562976956367493,-0.04100913554430008,-0.00149863853584975
534.0,0.0,0.0,0.0,0.0,0.0,0.0,0.011266491375863552,-0.0042793964967131615,-0.024896010756492615,0.9981744289398193,-0.04478318244218826,-0.04048856720328331,-0.001849341206252575
535.0,0.0,0.0,0.0,0.0,0.0,0.0,0.009392946027219296,-0.003600086085498333,-0.01451772078871727,0.998232901096344,-0.04368947818875313,-0.04022955894470215,-0.0022520883940160275
536.0,0.0,0.0,0.0,0.0,0.0,0.0,0.006596327759325504,-0.003975571598857641,0.004265108145773411,0.9982958436012268,-0.04235396534204483,-0.04009975492954254,-0.0021790117025375366
537.0,0.0,0.0,0.0,0.0,0.0,0.0,0.007514767348766327,-0.004694940522313118,0.01189437136054039,0.9983651041984558,-0.04079493135213852,-0.04000343009829521,-0.0017727030208334327
538.0,0.0,0.0,0.0,0.0,0.0,0.0,0.006800156086683273,-0.01287019532173872,0.012047190219163895,0.9984617829322815,-0.0388728603720665,-0.03948132321238518,-0.002162944758310914
539.0,0.0,0.0,0.0,0.0,0.0,0.0,0.007061581593006849,-0.016996899619698524,0.011442081071436405,0.9985795021057129,-0.036699552088975906,-0.038474034518003464,-0.003520586993545294
540.0,0.0,0.0,0.0,0.0,0.0,0.0,0.013313430361449718,-0.018075570464134216,0.0023875900078564882,0.9986892938613892,-0.034633103758096695,-0.03738405182957649,-0.00477608060464263
541.0,0.0,0.0,0.0,0.0,0.0,0.0,0.008747629821300507,-0.016031889244914055,0.014940141700208187,0.9987934231758118,-0.032708894461393356,-0.03605102747678757,-0.00653086556121707
542.0,0.0,0.0,0.0,0.0,0.0,0.0,0.0022108580451458693,-0.01897261291742325,0.0300144013017416,0.998899519443512,-0.030592180788517,-0.03483547270298004,-0.007143210619688034
543.0,0.0,0.0,0.0,0.0,0.0,0.0,0.000562571978662163,-0.013674509711563587,0.03778630122542381,0.9990469813346863,-0.02803915925323963,-0.03271595388650894,-0.006994492374360561
544.0,0.0,0.0,0.0,0.0,0.0,0.0,0.0017678547883406281,-0.008221217431128025,0.032254647463560104,0.9992033243179321,-0.02522405982017517,-0.02999032288789749,-0.007579046301543713
545.0,0.0,0.0,0.0,0.0,0.0,0.0,0.0010261452989652753,-0.006121732760220766,0.058492664247751236,0.9993309378623962,-0.022493084892630577,-0.02769773080945015,-0.00807592086493969
546.0,0.0,0.0,0.0,0.0,0.0,0.0,0.006239629816263914,-0.007808761205524206,0.029674332588911057,0.9994477033615112,-0.01860244758427143,-0.026394912973046303,-0.007854224182665348
547.0,0.0,0.0,0.0,0.0,0.0,0.0,-0.0007778462604619563,-0.0030399924144148827,0.0015882308362051845,0.999545156955719,-0.01482898835092783,-0.02497655339539051,-0.00813120137900114
548.0,0.0,0.0,0.0,0.0,0.0,0.0,-0.0013078441843390465,-0.006263237912207842,0.000167812715517357,0.9996299743652344,-0.01163637638092041,-0.023069918155670166,-0.008523070253431797
549.0,0.0,0.0,0.0,0.0,0.0,0.0,-0.002651219954714179,-0.0005880140233784914,0.0019290564814582467,0.9996995329856873,-0.008239518851041794,-0.02134632132947445,-0.0088100740686059
550.0,0.0,0.0,0.0,0.0,0.0,0.0,0.0028358844574540854,0.0011500081745907664,-0.02002490498125553,0.9997421503067017,-0.0038048680871725082,-0.020484382286667824,-0.009063553996384144
551.0,0.0,0.0,0.0,0.0,0.0,0.0,0.005198291968554258,0.002974885515868664,-0.05029064416885376,0.9997427463531494,0.0013082146178930998,-0.0208108089864254,-0.008939466439187527
552.0,0.0,0.0,0.0,0.0,0.0,0.0,0.0030457766260951757,0.0017493285704404116,-0.04931602627038956,0.9997076392173767,0.005194040946662426,-0.021760428324341774,-0.009173526428639889
553.0,0.0,0.0,0.0,0.0,0.0,0.0,0.006774461828172207,0.003899518633261323,-0.038192715495824814,0.9996377229690552,0.008039305917918682,-0.023813746869564056,-0.009630532003939152
554.0,0.0,0.0,0.0,0.0,0.0,0.0,0.0020492563489824533,0.0049703726544976234,0.00666014663875103,0.999525249004364,0.01095083262771368,-0.02706262469291687,-0.009847660548985004
555.0,0.0,0.0,0.0,0.0,0.0,0.0,-0.0019856360740959644,-0.013954891823232174,0.0036818659864366055,0.9993873238563538,0.013792626559734344,-0.03038031980395317,-0.010580161586403847
556.0,0.0,0.0,0.0,0.0,0.0,0.0,-0.0033901380375027657,-0.02182590216398239,-0.018620915710926056,0.999251127243042,0.015063955448567867,-0.03351907059550285,-0.012118935585021973
557.0,0.0,0.0,0.0,0.0,0.0,0.0,-0.0005055773071944714,-0.03440491855144501,0.013308463618159294,0.9990918636322021,0.015104514546692371,-0.03716079145669937,-0.014381365850567818
558.0,0.0,0.0,0.0,0.0,0.0,0.0,0.00303408270701766,-0.03964392468333244,0.020285196602344513,0.998945951461792,0.014906437136232853,-0.04029124975204468,-0.016179660335183144
559.0,0.0,0.0,0.0,0.0,0.0,0.0,0.005796676967293024,-0.047266941517591476,-0.03222815319895744,0.9987840056419373,0.01407055463641882,-0.044480737298727036,-0.01594965159893036
560.0,0.0,0.0,0.0,0.0,0.0,0.0,0.004765378776937723,-0.05087926238775253,-0.06657356023788452,0.998634397983551,0.011736572720110416,-0.048909422010183334,-0.014142373576760292
561.0,0.0,0.0,0.0,0.0,0.0,0.0,0.003038753755390644,-0.04580142721533775,-0.02175312116742134,0.9985719919204712,0.007074038963764906,-0.051787666976451874,-0.01103957649320364
562.0,0.0,0.0,0.0,0.0,0.0,0.0,0.005783142521977425,-0.05187930539250374,0.03719796612858772,0.9984307885169983,0.0028152787126600742,-0.05488639697432518,-0.010764528065919876
563.0,0.0,0.0,0.0,0.0,0.0,0.0,0.0051595973782241344,-0.05375839024782181,-0.011988810263574123,0.9981637001037598,0.0018772511975839734,-0.05934832990169525,-0.01199544407427311
564.0,0.0,0.0,0.0,0.0,0.0,0.0,3.327385275042616e-05,-0.049358069896698,0.02540854550898075,0.9979221820831299,1.9258790416643023e-05,-0.06292133033275604,-0.013895648531615734
565.0,0.0,0.0,0.0,0.0,0.0,0.0,-0.00668996712192893,-0.05038371682167053,0.003767305286601186,0.9977285265922546,-0.0025881798937916756,-0.06495732814073563,-0.017649242654442787
566.0,0.0,0.0,0.0,0.0,0.0,0.0,-0.0009607954998500645,-0.04567963257431984,-0.07310296595096588,0.9974696040153503,-0.004745589103549719,-0.06722582876682281,-0.022641604766249657
567.0,0.0,0.0,0.0,0.0,0.0,0.0,-0.0011173036182299256,-0.030086658895015717,-0.03797118365764618,0.9972427487373352,-0.008301299065351486,-0.06841199100017548,-0.027529200538992882
568.0,0.0,0.0,0.0,0.0,0.0,0.0,-0.003936405759304762,-0.026287561282515526,-0.032256241887807846,0.9970272183418274,-0.013439509086310863,-0.06915833801031113,-0.03120466135442257
569.0,0.0,0.0,0.0,0.0,0.0,0.0,-0.007537901401519775,-0.02748844213783741,-0.05248529464006424,0.9967061281204224,-0.01864352636039257,-0.0711662545800209,-0.034144286066293716
570.0,0.0,0.0,0.0,0.0,0.0,0.0,-0.014367859810590744,-0.03385274112224579,-0.04083258658647537,0.9963143467903137,-0.02362482249736786,-0.0740785226225853,-0.03622124716639519
571.0,0.0,0.0,0.0,0.0,0.0,0.0,-0.013558109290897846,-0.022786296904087067,0.0049584899097681046,0.9959681630134583,-0.028801126405596733,-0.07581238448619843,-0.03835823014378548
572.0,0.0,0.0,0.0,0.0,0.0,0.0,-0.014529319480061531,-0.022364450618624687,0.03983249515295029,0.9956822991371155,-0.034967754036188126,-0.07616066932678223,-0.03993813693523407
573.0,0.0,0.0,0.0,0.0,0.0,0.0,-0.011878354474902153,-0.028765041381120682,0.05397229641675949,0.9954347610473633,-0.04069248586893082,-0.07555454969406128,-0.041775621473789215
574.0,0.0,0.0,0.0,0.0,0.0,0.0,-0.009579590521752834,-0.02497650869190693,0.011911704204976559,0.9952614903450012,-0.045223284512758255,-0.07406487315893173,-0.043859682977199554
575.0,0.0,0.0,0.0,0.0,0.0,0.0,-0.011604062281548977,-0.024740105494856834,-0.006310202181339264,0.9950488805770874,-0.048553768545389175,-0.07348433881998062,-0.0460418201982975
576.0,0.0,0.0,0.0,0.0,0.0,0.0,-0.009024170227348804,-0.02509915828704834,-0.01648256741464138,0.9948329329490662,-0.05236101523041725,-0.07270898669958115,-0.04774670675396919
577.0,0.0,0.0,0.0,0.0,0.0,0.0,-0.00814152229577303,-0.023143000900745392,-0.029334407299757004,0.9944895505905151,-0.0576351173222065,-0.07230497896671295,-0.0494130440056324
578.0,0.0,0.0,0.0,0.0,0.0,0.0,-0.007987638004124165,-0.02134811133146286,-0.01081185694783926,0.9940792322158813,-0.06204741448163986,-0.07292795926332474,-0.05138077959418297
579.0,0.0,0.0,0.0,0.0,0.0,0.0,-0.010418214835226536,-0.014993663877248764,-0.015346293337643147,0.9936960339546204,-0.0658842995762825,-0.07373476773500443,-0.0528353787958622
580.0,0.0,0.0,0.0,0.0,0.0,0.0,-0.012212708592414856,-0.00033129824441857636,0.02142542600631714,0.9934031963348389,-0.06908515095710754,-0.07364683598279953,-0.054356664419174194
581.0,0.0,0.0,0.0,0.0,0.0,0.0,-0.009229686111211777,0.00751048419624567,0.039373092353343964,0.9931572675704956,-0.0718320980668068,-0.07311180979013443,-0.05598274990916252
582.0,0.0,0.0,0.0,0.0,0.0,0.0,-0.0036598527804017067,0.017002349719405174,0.03800700232386589,0.9930534362792969,-0.0736689493060112,-0.07179200649261475,-0.05714218690991402
583.0,0.0,0.0,0.0,0.0,0.0,0.0,-0.0015933976974338293,0.018158597871661186,0.03362715616822243,0.9930213093757629,-0.07468508929014206,-0.07045368105173111,-0.05803978443145752
584.0,0.0,0.0,0.0,0.0,0.0,0.0,0.005505889188498259,0.017830098047852516,0.01121313776820898,0.993105411529541,-0.07478906959295273,-0.06857235729694366,-0.058711349964141846
585.0,0.0,0.0,0.0,0.0,0.0,0.0,0.008758559823036194,0.029213164001703262,0.007388738449662924,0.9932646155357361,-0.07426907867193222,-0.06725148111581802,-0.058200493454933167
586.0,0.0,0.0,0.0,0.0,0.0,0.0,0.007184536196291447,0.02987148053944111,0.01451640110462904,0.9935023188591003,-0.07266461104154587,-0.06617813557386398,-0.05738730728626251
587.0,0.0,0.0,0.0,0.0,0.0,0.0,0.0056307511404156685,0.03163861110806465,0.01430699322372675,0.9937818646430969,-0.07052476704120636,-0.0657726600766182,-0.055656153708696365
588.0,0.0,0.0,0.0,0.0,0.0,0.0,0.004596095532178879,0.03851345181465149,0.015556789003312588,0.9940757751464844,-0.06750659644603729,-0.06590539216995239,-0.05398018658161163
589.0,0.0,0.0,0.0,0.0,0.0,0.0,0.0036218988243490458,0.0389237180352211,0.010039209388196468,0.99439537525177,-0.06476286053657532,-0.06533414125442505,-0.05210870876908302
590.0,0.0,0.0,0.0,0.0,0.0,0.0,0.000663718965370208,0.03624430671334267,0.011321856640279293,0.9947409629821777,-0.06216678395867348,-0.06394809484481812,-0.050370365381240845
591.0,0.0,0.0,0.0,0.0,0.0,0.0,-0.0011502178385853767,0.03812277317047119,0.009649049490690231,0.9950984120368958,-0.05940965563058853,-0.06213400140404701,-0.048885345458984375
592.0,0.0,0.0,0.0,0.0,0.0,0.0,-4.753493340103887e-05,0.03955991566181183,0.00276376074180007,0.9954821467399597,-0.05675206705927849,-0.059401050209999084,-0.047611966729164124
593.0,0.0,0.0,0.0,0.0,0.0,0.0,0.005786211229860783,0.03542907536029816,-0.010433275252580643,0.9958329796791077,-0.05431526526808739,-0.056675639003515244,-0.046410031616687775
594.0,0.0,0.0,0.0,0.0,0.0,0.0,0.0069163646548986435,0.03299068287014961,-0.008444986306130886,0.9961574077606201,-0.051861148327589035,-0.05500510707497597,-0.04423064738512039
595.0,0.0,0.0,0.0,0.0,0.0,0.0,0.009416235610842705,0.030585313215851784,-0.003277737647294998,0.9964483976364136,-0.049887340515851974,-0.05331025645136833,-0.041964393109083176
596.0,0.0,0.0,0.0,0.0,0.0,0.0,0.010695368982851505,0.02945159375667572,-0.004938866943120956,0.9966207146644592,-0.048624876886606216,-0.05217036232352257,-0.040762536227703094
597.0,0.0,0.0,0.0,0.0,0.0,0.0,0.009503962472081184,0.024721499532461166,-0.005886525381356478,0.9967695474624634,-0.04721797630190849,-0.05139414966106415,-0.03975041210651398
598.0,0.0,0.0,0.0,0.0,0.0,0.0,0.010468170046806335,0.01666545495390892,-0.007789631839841604,0.9968497157096863,-0.04607558995485306,-0.050836965441703796,-0.039800841361284256
599.0,0.0,0.0,0.0,0.0,0.0,0.0,0.011428368277847767,0.012594238854944706,-0.015328826382756233,0.9968206882476807,-0.04531397297978401,-0.0513298325240612,-0.040749840438365936
600.0,0.0,0.0,0.0,0.0,0.0,0.0,0.009724806994199753,0.006820935755968094,-0.008525175973773003,0.9967771172523499,-0.04445970430970192,-0.05258973315358162,-0.041141998022794724
601.0,0.0,0.0,0.0,0.0,0.0,0.0,0.0011993077350780368,0.006674546282738447,0.014766859821975231,0.9967439770698547,-0.04347383230924606,-0.0533025786280632,-0.04207789897918701
602.0,0.0,0.0,0.0,0.0,0.0,0.0,-0.0018056640401482582,0.006296262145042419,0.01211074460297823,0.9967382550239563,-0.04271538555622101,-0.05332577973604202,-0.042958226054906845
603.0,0.0,0.0,0.0,0.0,0.0,0.0,-0.001098699402064085,0.004384244326502085,0.0048086815513670444,0.9967251420021057,-0.04239116236567497,-0.05285751447081566,-0.04413561895489693
604.0,0.0,0.0,0.0,0.0,0.0,0.0,0.0006111647235229611,0.0004617046215571463,-0.0027283120434731245,0.9967430830001831,-0.04227016121149063,-0.05231587961316109,-0.0444941371679306
605.0,0.0,0.0,0.0,0.0,0.0,0.0,0.0014080314431339502,-0.007004795596003532,-0.015719329938292503,0.9967803359031677,-0.04200863465666771,-0.05173026770353317,-0.04459463059902191
606.0,0.0,0.0,0.0,0.0,0.0,0.0,0.0019332771189510822,-0.0036793220788240433,-0.01022889744490385,0.9968439936637878,-0.041273150593042374,-0.050824008882045746,-0.04489830881357193
607.0,0.0,0.0,0.0,0.0,0.0,0.0,0.003261028788983822,-0.0033213438000530005,-0.010802321135997772,0.996913731098175,-0.04047100618481636,-0.05011637508869171,-0.04487836733460426
608.0,0.0,0.0,0.0,0.0,0.0,0.0,0.004503559786826372,-0.004305168520659208,-0.017651569098234177,0.9969891905784607,-0.04042113199830055,-0.04864941164851189,-0.044856008142232895
609.0,0.0,0.0,0.0,0.0,0.0,0.0,0.004713461268693209,-0.0003000729193445295,-0.009044296108186245,0.9970169067382812,-0.041206005960702896,-0.04730280861258507,-0.04497021064162254
610.0,0.0,0.0,0.0,0.0,0.0,0.0,0.003214576281607151,0.0021257312037050724,-0.002217601053416729,0.9970345497131348,-0.04219835251569748,-0.04606151580810547,-0.044949453324079514
611.0,0.0,0.0,0.0,0.0,0.0,0.0,0.002763038268312812,0.0016482832143083215,0.004412694834172726,0.9971393942832947,-0.042701322585344315,-0.044104140251874924,-0.0441008135676384
612.0,0.0,0.0,0.0,0.0,0.0,0.0,0.003713503945618868,0.0029970831237733364,0.007663461845368147,0.997261106967926,-0.04286198318004608,-0.04214677959680557,-0.04310150444507599
613.0,0.0,0.0,0.0,0.0,0.0,0.0,0.006297830026596785,0.006374646909534931,0.0034755489323288202,0.9973586201667786,-0.042493101209402084,-0.0408565029501915,-0.042437952011823654
614.0,0.0,0.0,0.0,0.0,0.0,0.0,0.008894992992281914,0.00750979408621788,0.0006730054738000035,0.9974711537361145,-0.04151831939816475,-0.03946651518344879,-0.04206562042236328
615.0,0.0,0.0,0.0,0.0,0.0,0.0,0.015531438402831554,0.003610495012253523,-0.0038725961931049824,0.997550904750824,-0.040231939405202866,-0.038747597485780716,-0.04210894554853439
616.0,0.0,0.0,0.0,0.0,0.0,0.0,0.018714986741542816,0.008113499730825424,-0.006130724214017391,0.9975798726081848,-0.03884183242917061,-0.038199618458747864,-0.04321335256099701
617.0,0.0,0.0,0.0,0.0,0.0,0.0,0.019275179132819176,0.011377564631402493,-0.0028091829735785723,0.9975643754005432,-0.03745224326848984,-0.037241801619529724,-0.045563630759716034
618.0,0.0,0.0,0.0,0.0,0.0,0.0,0.015821604058146477,0.0069619943387806416,0.0013615965144708753,0.9975393414497375,-0.035969462245702744,-0.037770140916109085,-0.04686501994729042
619.0,0.0,0.0,0.0,0.0,0.0,0.0,0.01780284009873867,0.009672358632087708,0.0003631813742686063,0.9975225925445557,-0.03472539782524109,-0.03837684914469719,-0.047656841576099396
620.0,0.0,0.0,0.0,0.0,0.0,0.0,0.016817264258861542,0.011179927736520767,0.00259214430116117,0.9975152611732483,-0.03382464125752449,-0.03882250189781189,-0.04809105396270752
621.0,0.0,0.0,0.0,0.0,0.0,0.0,0.011133105494081974,0.015771951526403427,0.006886739749461412,0.9974995851516724,-0.0328822135925293,-0.03982844576239586,-0.04825173690915108
622.0,0.0,0.0,0.0,0.0,0.0,0.0,0.007761781569570303,0.020511789247393608,0.0024145387578755617,0.9974387884140015,-0.032441798597574234,-0.04047686606645584,-0.049248602241277695
623.0,0.0,0.0,0.0,0.0,0.0,0.0,0.0038125035353004932,0.01741122640669346,0.0046366737224161625,0.9973737001419067,-0.032679129391908646,-0.04050155356526375,-0.05038676783442497
624.0,0.0,0.0,0.0,0.0,0.0,0.0,0.0012928224168717861,0.01959184557199478,0.005987104494124651,0.9973499178886414,-0.032886192202568054,-0.04048880189657211,-0.050727829337120056
625.0,0.0,0.0,0.0,0.0,0.0,0.0,0.0020067498553544283,0.02433987706899643,0.005307078827172518,0.9973475933074951,-0.03327462822198868,-0.040408629924058914,-0.05059419199824333
626.0,0.0,0.0,0.0,0.0,0.0,0.0,0.007909419015049934,0.03317873552441597,-0.012269188649952412,0.9973347187042236,-0.033538419753313065,-0.040601521730422974,-0.0505107082426548
627.0,0.0,0.0,0.0,0.0,0.0,0.0,0.007236467208713293,0.03100902959704399,-0.014840935356914997,0.9973027110099792,-0.03389052301645279,-0.04091882333159447,-0.050647564232349396
628.0,0.0,0.0,0.0,0.0,0.0,0.0,-0.003854402806609869,0.0321359820663929,0.002923901192843914,0.9973233342170715,-0.03434770181775093,-0.04108615964651108,-0.04979587718844414
629.0,0.0,0.0,0.0,0.0,0.0,0.0,-0.003625743556767702,0.0337555818259716,-0.0015387888997793198,0.9973667860031128,-0.03476860374212265,-0.041241567581892014,-0.04848700761795044
630.0,0.0,0.0,0.0,0.0,0.0,0.0,0.00491663021966815,0.03131725266575813,-0.017647281289100647,0.9973962903022766,-0.03509122505784035,-0.042109016329050064,-0.046877454966306686
631.0,0.0,0.0,0.0,0.0,0.0,0.0,0.0037665064446628094,0.03315410763025284,-0.020751211792230606,0.9973798990249634,-0.03523151949048042,-0.04367831349372864,-0.04565096274018288
632.0,0.0,0.0,0.0,0.0,0.0,0.0,0.00016280062845908105,0.02918895334005356,-0.009508466348052025,0.9973118305206299,-0.03599875420331955,-0.045781657099723816,-0.04447160288691521
633.0,0.0,0.0,0.0,0.0,0.0,0.0,-0.004927759524434805,0.02391890436410904,0.009337250143289566,0.9972069263458252,-0.03683088719844818,-0.0485793873667717,-0.043149612843990326
634.0,0.0,0.0,0.0,0.0,0.0,0.0,-0.012888100929558277,0.018166963011026382,0.02736450359225273,0.9970797896385193,-0.037972886115312576,-0.051636721938848495,-0.04152270406484604
635.0,0.0,0.0,0.0,0.0,0.0,0.0,-0.017603743821382523,0.01206175610423088,0.04385681822896004,0.9969417452812195,-0.03952658176422119,-0.05416335538029671,-0.040153179317712784
636.0,0.0,0.0,0.0,0.0,0.0,0.0,-0.019899306818842888,0.007474562153220177,0.04732753336429596,0.9967880249023438,-0.040406640619039536,-0.05625440180301666,-0.0402102917432785
637.0,0.0,0.0,0.0,0.0,0.0,0.0,-0.016429757699370384,0.0028592536691576242,0.04162706062197685,0.9966829419136047,-0.04064616560935974,-0.05804837867617607,-0.040030449628829956
638.0,0.0,0.0,0.0,0.0,0.0,0.0,-0.019975366070866585,-0.0015162781346589327,0.03772273287177086,0.996601939201355,-0.040172722190618515,-0.06029396131634712,-0.039201490581035614
639.0,0.0,0.0,0.0,0.0,0.0,0.0,-0.029353581368923187,-0.008620266802608967,0.03445911779999733,0.996612548828125,-0.03908908739686012,-0.0613839365541935,-0.038313090801239014
640.0,0.0,0.0,0.0,0.0,0.0,0.0,-0.02991342544555664,-0.0116139966994524,0.02805807814002037,0.9966554045677185,-0.039241109043359756,-0.06066928058862686,-0.038179874420166016
641.0,0.0,0.0,0.0,0.0,0.0,0.0,-0.02089119702577591,-0.016435855999588966,-0.005659703630954027,0.996721088886261,-0.039689820259809494,-0.05894068628549576,-0.038703553378582
642.0,0.0,0.0,0.0,0.0,0.0,0.0,-0.01680309697985649,-0.01654130034148693,-0.030213065445423126,0.9968599677085876,-0.04032985493540764,-0.05634117126464844,-0.03833811730146408
643.0,0.0,0.0,0.0,0.0,0.0,0.0,-0.015365056693553925,-0.01860448531806469,-0.041324373334646225,0.996963620185852,-0.041484713554382324,-0.05390927568078041,-0.037904541939496994
644.0,0.0,0.0,0.0,0.0,0.0,0.0,-0.01693679764866829,-0.025536825880408287,-0.04118166118860245,0.9970623850822449,-0.042704105377197266,-0.0517134889960289,-0.036999352276325226
645.0,0.0,0.0,0.0,0.0,0.0,0.0,-0.0192741546779871,-0.026458309963345528,-0.03314127027988434,0.9971270561218262,-0.04377184808254242,-0.0499236099421978,-0.0364701971411705
646.0,0.0,0.0,0.0,0.0,0.0,0.0,-0.01795472949743271,-0.024639395996928215,-0.04371574893593788,0.9971242547035217,-0.04450698569417,-0.04856017976999283,-0.037477415055036545
647.0,0.0,0.0,0.0,0.0,0.0,0.0,-0.012516830116510391,-0.026170073077082634,-0.05457575246691704,0.9970772862434387,-0.044742096215486526,-0.04776216298341751,-0.03942878916859627
648.0,0.0,0.0,0.0,0.0,0.0,0.0,-0.012539454735815525,-0.021564366295933723,-0.045615531504154205,0.9970406293869019,-0.04485403746366501,-0.04758670926094055,-0.04042797163128853
649.0,0.0,0.0,0.0,0.0,0.0,0.0,-0.019543465226888657,-0.01470981165766716,-0.025571614503860474,0.9970465898513794,-0.04507722333073616,-0.04731330648064613,-0.040348511189222336
650.0,0.0,0.0,0.0,0.0,0.0,0.0,-0.029456492513418198,-0.0016336380504071712,0.010304587893188,0.9971160292625427,-0.04523271694779396,-0.04565998539328575,-0.04036229848861694
651.0,0.0,0.0,0.0,0.0,0.0,0.0,-0.021019017323851585,0.0069989473558962345,0.0028113527223467827,0.9972220659255981,-0.0450654998421669,-0.043309640139341354,-0.04053761810064316
652.0,0.0,0.0,0.0,0.0,0.0,0.0,-0.005095803644508123,0.013507017865777016,-0.020459961146116257,0.9973523616790771,-0.04415546730160713,-0.041643351316452026,-0.04006170853972435
653.0,0.0,0.0,0.0,0.0,0.0,0.0,-0.003961816895753145,0.023815488442778587,-0.01125958189368248,0.9974873065948486,-0.04261808469891548,-0.04061712324619293,-0.03941658139228821
654.0,0.0,0.0,0.0,0.0,0.0,0.0,-0.000847071351017803,0.0359581783413887,-0.011509762145578861,0.9976080060005188,-0.04086124897003174,-0.039977677166461945,-0.03888136148452759
655.0,0.0,0.0,0.0,0.0,0.0,0.0,0.005470581352710724,0.04892798885703087,-0.015872573480010033,0.9977624416351318,-0.038529541343450546,-0.039551496505737305,-0.03770904988050461
656.0,0.0,0.0,0.0,0.0,0.0,0.0,0.007155020721256733,0.05292648449540138,-0.010054346174001694,0.9978692531585693,-0.036402784287929535,-0.03966687247157097,-0.03687030449509621
657.0,0.0,0.0,0.0,0.0,0.0,0.0,0.006521850824356079,0.06075188145041466,-0.0050322734750807285,0.997913658618927,-0.03470214083790779,-0.040707025676965714,-0.03615927696228027
658.0,0.0,0.0,0.0,0.0,0.0,0.0,0.0006654776516370475,0.06624449044466019,0.000681994657497853,0.9979618787765503,-0.03346223756670952,-0.041634175926446915,-0.03492201119661331
659.0,0.0,0.0,0.0,0.0,0.0,0.0,-0.005553262308239937,0.07551068812608719,0.007222649175673723,0.9980058670043945,-0.03199642524123192,-0.043578825891017914,-0.03260226175189018
660.0,0.0,0.0,0.0,0.0,0.0,0.0,-0.0138429319486022,0.0848865732550621,0.022039281204342842,0.9980251789093018,-0.03071524202823639,-0.04588441178202629,-0.029963107779622078
661.0,0.0,0.0,0.0,0.0,0.0,0.0,-0.02429063990712166,0.08245990425348282,0.04816213995218277,0.9980535507202148,-0.029837580397725105,-0.047550249844789505,-0.027197133749723434
662.0,0.0,0.0,0.0,0.0,0.0,0.0,-0.02181342802941799,0.0688750371336937,0.052121955901384354,0.9980902671813965,-0.029411429539322853,-0.04826897755265236,-0.024965882301330566
663.0,0.0,0.0,0.0,0.0,0.0,0.0,-0.012441268190741539,0.04858274757862091,0.044653188437223434,0.9981422424316406,-0.02899497002363205,-0.04840139299631119,-0.023021113127470016
664.0,0.0,0.0,0.0,0.0,0.0,0.0,-0.004397760145366192,0.026428649201989174,0.02677399106323719,0.9981729388237,-0.02876303717494011,-0.04882773756980896,-0.02101454883813858
665.0,0.0,0.0,0.0,0.0,0.0,0.0,0.0028840643353760242,0.008619597181677818,0.00851194467395544,0.9981521964073181,-0.02880728431046009,-0.04950247332453728,-0.020320503041148186
666.0,0.0,0.0,0.0,0.0,0.0,0.0,0.0056150807067751884,-0.0038060988299548626,-0.013530684635043144,0.9980922341346741,-0.02897692658007145,-0.05081671476364136,-0.01973547413945198
667.0,0.0,0.0,0.0,0.0,0.0,0.0,0.0022751023061573505,-0.013300939463078976,-0.030894553288817406,0.9979835152626038,-0.029306473210453987,-0.05286632478237152,-0.01940307579934597
668.0,0.0,0.0,0.0,0.0,0.0,0.0,0.0017904001288115978,-0.04374919459223747,-0.016396068036556244,0.9977970123291016,-0.03117717057466507,-0.055001839995384216,-0.020143695175647736
669.0,0.0,0.0,0.0,0.0,0.0,0.0,-0.005210007540881634,-0.05004056543111801,0.002440105890855193,0.9976409673690796,-0.03357059136033058,-0.05614825710654259,-0.020829495042562485
670.0,0.0,0.0,0.0,0.0,0.0,0.0,-0.0163118913769722,-0.04439276084303856,0.005234140902757645,0.9975246787071228,-0.03632828965783119,-0.056408077478408813,-0.02107299119234085
671.0,0.0,0.0,0.0,0.0,0.0,0.0,-0.02149249240756035,-0.036154646426439285,0.004497102461755276,0.9974375367164612,-0.038903504610061646,-0.056070439517498016,-0.021467413753271103
672.0,0.0,0.0,0.0,0.0,0.0,0.0,-0.021115418523550034,-0.03897589072585106,0.005324001889675856,0.9973480701446533,-0.04132746160030365,-0.05585158243775368,-0.021693037822842598
673.0,0.0,0.0,0.0,0.0,0.0,0.0,-0.018377846106886864,-0.038444068282842636,0.0039191944524645805,0.9973119497299194,-0.04310879856348038,-0.05535512417554855,-0.02113206498324871
674.0,0.0,0.0,0.0,0.0,0.0,0.0,-0.011512880213558674,-0.0354464091360569,-0.003094720421358943,0.9972842931747437,-0.0442747138440609,-0.05499926581978798,-0.020982183516025543
675.0,0.0,0.0,0.0,0.0,0.0,0.0,-0.01381003763526678,-0.031922563910484314,-0.00035004023811779916,0.99726802110672,-0.04478507861495018,-0.055079393088817596,-0.020430509001016617
676.0,0.0,0.0,0.0,0.0,0.0,0.0,-0.016146373003721237,-0.026138104498386383,0.0018266363767907023,0.9972794055938721,-0.04459267854690552,-0.05541926622390747,-0.019322684034705162
677.0,0.0,0.0,0.0,0.0,0.0,0.0,-0.024008363485336304,-0.011417653411626816,0.02321559377014637,0.9973487257957458,-0.043147601187229156,-0.05581161379814148,-0.017862891778349876
678.0,0.0,0.0,0.0,0.0,0.0,0.0,-0.02327796258032322,-0.0280219204723835,0.0438348650932312,0.9974102973937988,-0.04136188328266144,-0.056500885635614395,-0.016412382945418358
679.0,0.0,0.0,0.0,0.0,0.0,0.0,-0.032640744000673294,-0.025352366268634796,0.10047467797994614,0.9975910782814026,-0.03937337175011635,-0.05530055612325668,-0.014272656291723251
680.0,0.0,0.0,0.0,0.0,0.0,0.0,-0.042632490396499634,-0.0016967691481113434,0.16653908789157867,0.9979814291000366,-0.03711119294166565,-0.05033090338110924,-0.011103848926723003
681.0,0.0,0.0,0.0,0.0,0.0,0.0,-0.04357673227787018,0.004055328201502562,0.1686975657939911,0.9986127018928528,-0.0332128182053566,-0.039984725415706635,-0.008460226468741894
682.0,0.0,0.0,0.0,0.0,0.0,0.0,-0.004864988382905722,-0.00508603360503912,0.06761691719293594,0.9991683959960938,-0.02776038646697998,-0.02907884307205677,-0.006822454277426004
683.0,0.0,0.0,0.0,0.0,0.0,0.0,0.031504321843385696,-0.021345026791095734,-0.06445027887821198,0.9995174407958984,-0.021398095414042473,-0.021841537207365036,-0.005514898337423801
684.0,0.0,0.0,0.0,0.0,0.0,0.0,0.037678640335798264,-0.030817385762929916,-0.1270279735326767,0.9996655583381653,-0.01593238115310669,-0.02000518888235092,-0.003962005954235792
685.0,0.0,0.0,0.0,0.0,0.0,0.0,0.024058060720562935,-0.01804242469370365,-0.10017585754394531,0.9997578859329224,-0.010452735237777233,-0.01894621178507805,-0.003976594191044569
686.0,0.0,0.0,0.0,0.0,0.0,0.0,0.020447753369808197,-0.01946146972477436,-0.10017535090446472,0.9997870326042175,-0.006044676993042231,-0.01911160908639431,-0.004953996744006872
687.0,0.0,0.0,0.0,0.0,0.0,0.0,0.008776562288403511,-0.012413669377565384,-0.07195502519607544,0.9997836947441101,-0.003452676348388195,-0.01988883875310421,-0.00505093764513731
688.0,0.0,0.0,0.0,0.0,0.0,0.0,-0.007830494083464146,-5.3858493629377335e-05,-0.006573239341378212,0.9997778534889221,-0.0028253442142158747,-0.02030792273581028,-0.004955170210450888
689.0,0.0,0.0,0.0,0.0,0.0,0.0,-0.0016279605915769935,-0.011272219941020012,-0.027950434014201164,0.9997793436050415,-0.003709743730723858,-0.02007647044956684,-0.004967960994690657
690.0,0.0,0.0,0.0,0.0,0.0,0.0,0.006984753534197807,-0.02273554727435112,-0.06790163367986679,0.9997738003730774,-0.004338701255619526,-0.020218808203935623,-0.005019244737923145
691.0,0.0,0.0,0.0,0.0,0.0,0.0,-0.00625695800408721,-0.03278307989239693,-0.05599769577383995,0.9997271299362183,-0.005070425570011139,-0.022229477763175964,-0.005089630838483572
692.0,0.0,0.0,0.0,0.0,0.0,0.0,-0.0259220190346241,-0.03547044098377228,-0.005549834109842777,0.9996341466903687,-0.00630592368543148,-0.025748401880264282,-0.005401952192187309
693.0,0.0,0.0,0.0,0.0,0.0,0.0,-0.029471037909388542,-0.03580080345273018,0.01859208196401596,0.9995291829109192,-0.0077584292739629745,-0.02875019982457161,-0.007399220485240221
694.0,0.0,0.0,0.0,0.0,0.0,0.0,-0.034859079867601395,-0.032422374933958054,0.0188156571239233,0.9994043111801147,-0.008777238428592682,-0.03177325800061226,-0.010240765288472176
695.0,0.0,0.0,0.0,0.0,0.0,0.0,-0.03627452626824379,-0.04293018952012062,0.03397103399038315,0.9992800951004028,-0.00986398570239544,-0.03425595164299011,-0.013017418794333935
696.0,0.0,0.0,0.0,0.0,0.0,0.0,-0.027852987870573997,-0.029681025072932243,0.025368211790919304,0.9992132186889648,-0.010752533562481403,-0.035155799239873886,-0.014904969371855259
697.0,0.0,0.0,0.0,0.0,0.0,0.0,-0.019102970138192177,-0.03676231950521469,-0.004533123224973679,0.9992059469223022,-0.012051314115524292,-0.034871652722358704,-0.015046464279294014
698.0,0.0,0.0,0.0,0.0,0.0,0.0,-0.020076189190149307,-0.03489474579691887,-0.008549569174647331,0.9992122054100037,-0.013502989895641804,-0.034602876752614975,-0.013981400988996029
699.0,0.0,0.0,0.0,0.0,0.0,0.0,-0.015149695798754692,-0.034136537462472916,-0.04780706390738487,0.9992149472236633,-0.015421060845255852,-0.034592390060424805,-0.011661325581371784
700.0,0.0,0.0,0.0,0.0,0.0,0.0,-0.012264526449143887,-0.026927128434181213,-0.03469698131084442,0.9992022514343262,-0.01836620271205902,-0.034022193402051926,-0.010038163512945175
701.0,0.0,0.0,0.0,0.0,0.0,0.0,-0.005280747078359127,-0.016028789803385735,-0.00639956071972847,0.9991534352302551,-0.0212920643389225,-0.033800527453422546,-0.009843659587204456
702.0,0.0,0.0,0.0,0.0,0.0,0.0,0.0016150163719430566,-0.01115394476801157,0.00629627937451005,0.9990613460540771,-0.022290704771876335,-0.0357314758002758,-0.01016135886311531
703.0,0.0,0.0,0.0,0.0,0.0,0.0,0.0034819890279322863,-0.0046046082861721516,0.0009804548462852836,0.9989842772483826,-0.022243401035666466,-0.03775633126497269,-0.010513447225093842
704.0,0.0,0.0,0.0,0.0,0.0,0.0,0.005913122091442347,-0.0031819988507777452,-0.004707372281700373,0.998897910118103,-0.022309890016913414,-0.039353255182504654,-0.012528459541499615
705.0,0.0,0.0,0.0,0.0,0.0,0.0,0.013332128524780273,-0.009176136925816536,-0.01944820024073124,0.9987542629241943,-0.021519800648093224,-0.04196072369813919,-0.01631670445203781
706.0,0.0,0.0,0.0,0.0,0.0,0.0,0.015150529332458973,-0.008241977542638779,-0.017201978713274002,0.9985353946685791,-0.02088043838739395,-0.04572725668549538,-0.02000315859913826
707.0,0.0,0.0,0.0,0.0,0.0,0.0,0.00947583094239235,-0.006319582462310791,-0.011378518305718899,0.9983000159263611,-0.0209962148219347,-0.04910530894994736,-0.02335381507873535
708.0,0.0,0.0,0.0,0.0,0.0,0.0,0.0037797195836901665,-0.001135553466156125,-0.010310912504792213,0.9980759024620056,-0.021413005888462067,-0.05188002064824104,-0.02635783702135086
709.0,0.0,0.0,0.0,0.0,0.0,0.0,0.00035382527858018875,-0.0038629239425063133,-0.012199215590953827,0.9978538751602173,-0.022704245522618294,-0.05466342717409134,-0.0280014481395483
710.0,0.0,0.0,0.0,0.0,0.0,0.0,-0.003449996467679739,-0.007199409883469343,-0.01040359865874052,0.9976180195808411,-0.024617105722427368,-0.05739811807870865,-0.029294496402144432
711.0,0.0,0.0,0.0,0.0,0.0,0.0,-0.00735317962244153,-0.0016285463934764266,0.001332297339104116,0.9974278211593628,-0.02704487182199955,-0.059385038912296295,-0.029674213379621506
712.0,0.0,0.0,0.0,0.0,0.0,0.0,-0.009838725440204144,0.0038583087734878063,0.013621488586068153,0.9972529411315918,-0.029559364542365074,-0.060830339789390564,-0.030215026810765266
713.0,0.0,0.0,0.0,0.0,0.0,0.0,-0.013441569171845913,0.0024637163151055574,0.01535280141979456,0.9971001148223877,-0.03178929165005684,-0.06192689761519432,-0.03076549619436264
714.0,0.0,0.0,0.0,0.0,0.0,0.0,-0.012631028890609741,-0.00037519464967772365,0.012561258859932423,0.9970043897628784,-0.03300099074840546,-0.06260256469249725,-0.031228482723236084
715.0,0.0,0.0,0.0,0.0,0.0,0.0,-0.008634176105260849,-0.0009290752932429314,0.0029696812853217125,0.9969693422317505,-0.0336964875459671,-0.06253745406866074,-0.03171292692422867
716.0,0.0,0.0,0.0,0.0,0.0,0.0,-0.01123105175793171,0.0005959054105915129,0.002215046202763915,0.9969165921211243,-0.034774698317050934,-0.0623323954641819,-0.03260411322116852
717.0,0.0,0.0,0.0,0.0,0.0,0.0,-0.012040829285979271,-0.002608789596706629,-0.004340090323239565,0.996910035610199,-0.036446403712034225,-0.06128637492656708,-0.032961972057819366
718.0,0.0,0.0,0.0,0.0,0.0,0.0,-0.007787532173097134,0.0018745006527751684,-0.0002721179916989058,0.996924877166748,-0.03738054260611534,-0.05996573716402054,-0.03387587144970894
719.0,0.0,0.0,0.0,0.0,0.0,0.0,-0.00826176069676876,-0.000735400477424264,0.003440558910369873,0.9969449043273926,-0.037424515932798386,-0.058783724904060364,-0.035289935767650604
720.0,0.0,0.0,0.0,0.0,0.0,0.0,-0.007128926459699869,0.0019437514711171389,0.005183985456824303,0.9969796538352966,-0.03660568967461586,-0.058103833347558975,-0.036278363317251205
721.0,0.0,0.0,0.0,0.0,0.0,0.0,-0.009646717458963394,0.004031118471175432,0.02616477943956852,0.9970552921295166,-0.03527173772454262,-0.05668320879340172,-0.03773196041584015
722.0,0.0,0.0,0.0,0.0,0.0,0.0,-0.006973782554268837,0.002887739334255457,0.009812594391405582,0.9971153140068054,-0.034834735095500946,-0.055163681507110596,-0.038796503096818924
723.0,0.0,0.0,0.0,0.0,0.0,0.0,-0.0015538280131295323,0.006118843797594309,0.007834150455892086,0.997215747833252,-0.03401326388120651,-0.05398859083652496,-0.038597408682107925
724.0,0.0,0.0,0.0,0.0,0.0,0.0,0.0004404828359838575,0.01038806140422821,-0.004196252208203077,0.9973563551902771,-0.032581038773059845,-0.052380092442035675,-0.0384165458381176
725.0,0.0,0.0,0.0,0.0,0.0,0.0,0.0036142289172858,0.012080494314432144,-0.009692619554698467,0.9974758625030518,-0.030776213854551315,-0.05141931027173996,-0.03809235244989395
726.0,0.0,0.0,0.0,0.0,0.0,0.0,0.0016261350829154253,0.013699058443307877,-0.006360645871609449,0.9975522756576538,-0.02934044972062111,-0.05123523995280266,-0.037476081401109695
727.0,0.0,0.0,0.0,0.0,0.0,0.0,-0.0010740577708929777,0.014669257216155529,0.00491646584123373,0.9976479411125183,-0.02816832810640335,-0.05030519887804985,-0.037079405039548874
728.0,0.0,0.0,0.0,0.0,0.0,0.0,0.0009719309746287763,0.016617760062217712,0.005678046960383654,0.9977792501449585,-0.026507578790187836,-0.049502454698085785,-0.035827480256557465
729.0,0.0,0.0,0.0,0.0,0.0,0.0,-0.0006423372542485595,0.024260573089122772,0.004996307194232941,0.9979279041290283,-0.02503160946071148,-0.0483333021402359,-0.03431747481226921
730.0,0.0,0.0,0.0,0.0,0.0,0.0,0.000898233032785356,0.022455040365457535,-0.0030121835879981518,0.9980214238166809,-0.02418348751962185,-0.04694720730185509,-0.03412524238228798
731.0,0.0,0.0,0.0,0.0,0.0,0.0,0.007550335954874754,0.02102440968155861,-0.022004660218954086,0.9981312155723572,-0.02268354222178459,-0.045662280172109604,-0.03369147330522537
732.0,0.0,0.0,0.0,0.0,0.0,0.0,0.007229623384773731,0.021754328161478043,-0.028276948258280754,0.9982194304466248,-0.020799120888113976,-0.045579951256513596,-0.032376185059547424
733.0,0.0,0.0,0.0,0.0,0.0,0.0,0.0034471198450773954,0.016430044546723366,-0.017219675704836845,0.9982504844665527,-0.019897110760211945,-0.04565151780843735,-0.03188101947307587
734.0,0.0,0.0,0.0,0.0,0.0,0.0,0.0019164023688063025,0.02216983400285244,-0.010036315768957138,0.9983096718788147,-0.019623633474111557,-0.04536373168230057,-0.030570510774850845
735.0,0.0,0.0,0.0,0.0,0.0,0.0,0.001454874174669385,0.020479198545217514,-0.00514944875612855,0.9983753561973572,-0.019566182047128677,-0.04503082484006882,-0.028917592018842697
736.0,0.0,0.0,0.0,0.0,0.0,0.0,0.0013178453082218766,0.019073819741606712,0.0015015947865322232,0.9983922839164734,-0.019350288435816765,-0.04528027027845383,-0.02808779664337635
737.0,0.0,0.0,0.0,0.0,0.0,0.0,0.0011115600354969501,0.018477322533726692,0.00399574963375926,0.9983962774276733,-0.01921762153506279,-0.04590506851673126,-0.026995621621608734
738.0,0.0,0.0,0.0,0.0,0.0,0.0,0.0017907172441482544,0.013489156030118465,0.006023082882165909,0.9983969330787659,-0.019563887268304825,-0.046138081699609756,-0.026317933574318886
739.0,0.0,0.0,0.0,0.0,0.0,0.0,-0.0025025149807333946,0.010669241659343243,0.013657532632350922,0.9983773827552795,-0.020121047273278236,-0.04652127996087074,-0.025952309370040894
740.0,0.0,0.0,0.0,0.0,0.0,0.0,-6.607930845348164e-05,0.0017950801411643624,0.0036170687526464462,0.9983352422714233,-0.02036811225116253,-0.047609321773052216,-0.025392059236764908
741.0,0.0,0.0,0.0,0.0,0.0,0.0,-0.000933658448047936,-0.001249489956535399,-0.0007710934150964022,0.998313307762146,-0.020749486982822418,-0.048166997730731964,-0.02492178976535797
742.0,0.0,0.0,0.0,0.0,0.0,0.0,-0.008060733787715435,-0.004270053468644619,0.009152121841907501,0.9982701539993286,-0.021014990285038948,-0.04893935099244118,-0.024922991171479225
743.0,0.0,0.0,0.0,0.0,0.0,0.0,-0.008358921855688095,-0.005262244492769241,0.006813057232648134,0.9982096552848816,-0.020312108099460602,-0.05038321763277054,-0.025025498121976852
744.0,0.0,0.0,0.0,0.0,0.0,0.0,-0.007810046896338463,-0.008454089052975178,-0.0016099864151328802,0.9981554746627808,-0.02036014385521412,-0.05143893510103226,-0.02501276507973671
745.0,0.0,0.0,0.0,0.0,0.0,0.0,-0.010933112353086472,-0.010348043404519558,0.0008996448013931513,0.9980977773666382,-0.021294424310326576,-0.05214909091591835,-0.02506793849170208
746.0,0.0,0.0,0.0,0.0,0.0,0.0,-0.0130747826769948,-0.00955166295170784,0.0010932395234704018,0.9980360269546509,-0.022226806730031967,-0.05304574966430664,-0.02483551576733589
747.0,0.0,0.0,0.0,0.0,0.0,0.0,-0.013424070551991463,-0.010548572987318039,0.0034124585799872875,0.9979999661445618,-0.0231827050447464,-0.053484272211790085,-0.024465912953019142
748.0,0.0,0.0,0.0,0.0,0.0,0.0,-0.012478099204599857,-0.008878297172486782,0.008670377545058727,0.997938334941864,-0.02433624677360058,-0.05388844385743141,-0.024955669417977333
749.0,0.0,0.0,0.0,0.0,0.0,0.0,-0.014495672658085823,-0.01096845231950283,0.00998416356742382,0.9978747963905334,-0.02518090233206749,-0.05466632917523384,-0.02497192844748497
750.0,0.0,0.0,0.0,0.0,0.0,0.0,-0.014080777764320374,-0.011827049776911736,0.008411198854446411,0.9977984428405762,-0.02582692913711071,-0.055691927671432495,-0.025111891329288483
751.0,0.0,0.0,0.0,0.0,0.0,0.0,-0.012985609471797943,-0.010648423805832863,0.009358983486890793,0.9977439045906067,-0.026377027854323387,-0.05612168088555336,-0.02575397677719593
752.0,0.0,0.0,0.0,0.0,0.0,0.0,-0.011670760810375214,-0.013070812448859215,0.006323947571218014,0.9977430701255798,-0.0272388756275177,-0.05577973276376724,-0.025615163147449493
753.0,0.0,0.0,0.0,0.0,0.0,0.0,-0.01309586688876152,-0.01064697653055191,0.012458340264856815,0.9977090358734131,-0.028024399653077126,-0.05640967935323715,-0.024688052013516426
754.0,0.0,0.0,0.0,0.0,0.0,0.0,-0.01441024150699377,-0.006802446208894253,0.014704586938023567,0.9976868629455566,-0.028284138068556786,-0.056848324835300446,-0.02428029105067253
755.0,0.0,0.0,0.0,0.0,0.0,0.0,-0.015565095469355583,-0.008740895427763462,0.016336491331458092,0.9976688027381897,-0.028707066550850868,-0.05696553364396095,-0.02425467222929001
756.0,0.0,0.0,0.0,0.0,0.0,0.0,-0.015145141631364822,-0.005131615791469812,0.02211834490299225,0.997657299041748,-0.028231561183929443,-0.0575282946228981,-0.023943323642015457
757.0,0.0,0.0,0.0,0.0,0.0,0.0,-0.016036106273531914,-0.001158511033281684,0.026885416358709335,0.9976617693901062,-0.027135713025927544,-0.05803946405649185,-0.023806793615221977
758.0,0.0,0.0,0.0,0.0,0.0,0.0,-0.018070094287395477,-0.003096749307587743,0.04931206256151199,0.9977205991744995,-0.025883318856358528,-0.057480160146951675,-0.024073241278529167
759.0,0.0,0.0,0.0,0.0,0.0,0.0,-0.008269359357655048,-0.0029614088125526905,0.045223794877529144,0.9978384375572205,-0.023872343823313713,-0.0561535470187664,-0.024409452453255653
760.0,0.0,0.0,0.0,0.0,0.0,0.0,0.0011129282647743821,-0.00014210000517778099,0.02967885509133339,0.9979820847511292,-0.021219376474618912,-0.05450455844402313,-0.024725817143917084
761.0,0.0,0.0,0.0,0.0,0.0,0.0,0.006414688657969236,0.003064090386033058,0.010706912726163864,0.9981145858764648,-0.017887327820062637,-0.053187597543001175,-0.024884629994630814
762.0,0.0,0.0,0.0,0.0,0.0,0.0,0.009654546156525612,0.0030359697993844748,-0.00786634348332882,0.9981746673583984,-0.014664696529507637,-0.052639782428741455,-0.025738202035427094
763.0,0.0,0.0,0.0,0.0,0.0,0.0,0.009286300279200077,-0.006219545844942331,-0.02613593079149723,0.9981876611709595,-0.012494813650846481,-0.05203144624829292,-0.02754555083811283
764.0,0.0,0.0,0.0,0.0,0.0,0.0,0.005802659317851067,-0.012948395684361458,-0.04637114331126213,0.998231828212738,-0.010922817513346672,-0.05113501101732254,-0.02826882153749466
765.0,0.0,0.0,0.0,0.0,0.0,0.0,0.00392815051600337,-0.014122279360890388,-0.03801320120692253,0.9982830882072449,-0.009896988980472088,-0.05042857304215431,-0.02811622992157936
766.0,0.0,0.0,0.0,0.0,0.0,0.0,0.0014490938046947122,-0.013165437616407871,-0.018992919474840164,0.9983367919921875,-0.010025940835475922,-0.04946191608905792,-0.027877701446413994
767.0,0.0,0.0,0.0,0.0,0.0,0.0,0.0006096636643633246,-0.01289889495819807,-0.01424608938395977,0.9983863830566406,-0.010518357157707214,-0.04855812340974808,-0.02750675566494465
768.0,0.0,0.0,0.0,0.0,0.0,0.0,0.004315824713557959,-0.016230665147304535,-0.020575808361172676,0.9984168410301208,-0.011153747327625751,-0.04815535247325897,-0.02686064876616001
769.0,0.0,0.0,0.0,0.0,0.0,0.0,0.005483740009367466,-0.020351024344563484,-0.02331768162548542,0.9984560608863831,-0.011733906343579292,-0.04743928089737892,-0.026417098939418793
770.0,0.0,0.0,0.0,0.0,0.0,0.0,0.0031656199134886265,-0.018116803839802742,-0.015260937623679638,0.9984706044197083,-0.012385891750454903,-0.0464792400598526,-0.02725878171622753
771.0,0.0,0.0,0.0,0.0,0.0,0.0,-0.002074297983199358,-0.019635573029518127,-0.007924207486212254,0.9984613060951233,-0.013621476478874683,-0.04618197679519653,-0.0275263674557209
772.0,0.0,0.0,0.0,0.0,0.0,0.0,-0.0021631570998579264,-0.020873738452792168,-0.0025645699352025986,0.99845290184021,-0.01444174163043499,-0.046312931925058365,-0.027179831638932228
773.0,0.0,0.0,0.0,0.0,0.0,0.0,0.0014801176730543375,-0.020947253331542015,-0.014525550417602062,0.9984062314033508,-0.01467154361307621,-0.047272417694330215,-0.02712148427963257
774.0,0.0,0.0,0.0,0.0,0.0,0.0,0.0005321195931173861,-0.015779992565512657,-0.005959286354482174,0.9983010292053223,-0.014882614836096764,-0.04890359938144684,-0.027970897033810616
775.0,0.0,0.0,0.0,0.0,0.0,0.0,-0.001175422454252839,-0.019763711839914322,0.012339162640273571,0.9981897473335266,-0.014945226721465588,-0.05023946240544319,-0.029499880969524384
776.0,0.0,0.0,0.0,0.0,0.0,0.0,0.002226178767159581,-0.021838979795575142,0.004821011330932379,0.9981354475021362,-0.015230279415845871,-0.05065016821026802,-0.030476564541459084
777.0,0.0,0.0,0.0,0.0,0.0,0.0,0.0008915066719055176,-0.012836305424571037,-0.0013139612274244428,0.998087465763092,-0.015616885386407375,-0.05098312720656395,-0.031280819326639175
778.0,0.0,0.0,0.0,0.0,0.0,0.0,-0.0020643146708607674,-0.007898611016571522,-0.006909549236297607,0.9980311393737793,-0.016346193850040436,-0.050986792892217636,-0.03267119824886322
779.0,0.0,0.0,0.0,0.0,0.0,0.0,0.0023110955953598022,-0.005878004245460033,-0.01833990588784218,0.9980259537696838,-0.016723990440368652,-0.05019308626651764,-0.03384299948811531
780.0,0.0,0.0,0.0,0.0,0.0,0.0,0.006363194435834885,-0.004260406829416752,-0.028798498213291168,0.9980365037918091,-0.01778440736234188,-0.04908733069896698,-0.03460687771439552
781.0,0.0,0.0,0.0,0.0,0.0,0.0,0.0032159911934286356,-0.000346373300999403,-0.013106770813465118,0.9980382323265076,-0.019953513517975807,-0.04825065657496452,-0.034562062472105026
782.0,0.0,0.0,0.0,0.0,0.0,0.0,0.0017280568135902286,0.0025811984669417143,0.00437151500955224,0.998050332069397,-0.021479329094290733,-0.04729808121919632,-0.034597232937812805
783.0,0.0,0.0,0.0,0.0,0.0,0.0,0.002613871358335018,0.0006757508381269872,-0.0018352812621742487,0.9980567097663879,-0.02224239520728588,-0.04644826427102089,-0.03509223833680153
784.0,0.0,0.0,0.0,0.0,0.0,0.0,0.005688420031219721,-0.00253182090818882,-0.00012150894326623529,0.9980260133743286,-0.02230612188577652,-0.04695364460349083,-0.035249851644039154
785.0,0.0,0.0,0.0,0.0,0.0,0.0,0.001060330425389111,0.0020204689353704453,0.019970249384641647,0.9980055093765259,-0.021465841680765152,-0.04797962307929993,-0.03496972471475601
786.0,0.0,0.0,0.0,0.0,0.0,0.0,-0.003111826255917549,0.007087515667080879,0.05088093876838684,0.9979270100593567,-0.02049124799668789,-0.049276843667030334,-0.03596924617886543
787.0,0.0,0.0,0.0,0.0,0.0,0.0,-0.002291854005306959,0.0040922341868281364,0.05204247683286667,0.9978653192520142,-0.018892142921686172,-0.05029882490634918,-0.037131279706954956
788.0,0.0,0.0,0.0,0.0,0.0,0.0,-0.0072047594003379345,-0.00017486132855992764,0.058647263795137405,0.9978926181793213,-0.017616651952266693,-0.04962145537137985,-0.037930868566036224
789.0,0.0,0.0,0.0,0.0,0.0,0.0,-0.002187513280659914,0.0024361058603972197,0.054228782653808594,0.9979283809661865,-0.01624930091202259,-0.04788648709654808,-0.03977176174521446
790.0,0.0,0.0,0.0,0.0,0.0,0.0,0.00629311241209507,0.0005218523438088596,0.004544020630419254,0.9979772567749023,-0.014263283461332321,-0.04592593014240265,-0.04158717766404152
791.0,0.0,0.0,0.0,0.0,0.0,0.0,0.003820451209321618,-0.002175089670345187,-0.008227812126278877,0.9980558753013611,-0.012408002279698849,-0.04373729228973389,-0.04263823479413986
792.0,0.0,0.0,0.0,0.0,0.0,0.0,0.0011939828982576728,-0.002441429765895009,-0.013842254877090454,0.9981003403663635,-0.011295297183096409,-0.04188251867890358,-0.0437503345310688
793.0,0.0,0.0,0.0,0.0,0.0,0.0,0.0004957631463184953,-0.008076009340584278,-0.021964391693472862,0.9981524348258972,-0.010744525119662285,-0.04080871865153313,-0.043715283274650574
794.0,0.0,0.0,0.0,0.0,0.0,0.0,0.002106663305312395,-0.007702930364757776,-0.027636785060167313,0.9982379674911499,-0.009980118833482265,-0.04002591595053673,-0.04265892133116722
795.0,0.0,0.0,0.0,0.0,0.0,0.0,-0.002497992478311062,-0.005266707856208086,-0.022801974788308144,0.9983599781990051,-0.00987880490720272,-0.0390644408762455,-0.04066981375217438
796.0,0.0,0.0,0.0,0.0,0.0,0.0,-0.0052110119722783566,-0.0021399736870080233,-0.011711928993463516,0.9984893798828125,-0.009606915526092052,-0.03836192190647125,-0.038149695843458176
797.0,0.0,0.0,0.0,0.0,0.0,0.0,-0.002763374475762248,-0.004834088962525129,-0.013979436829686165,0.9986050128936768,-0.009166385978460312,-0.03836086392402649,-0.035109009593725204
798.0,0.0,0.0,0.0,0.0,0.0,0.0,-0.004036526661366224,-0.0024555509444326162,-0.01491097453981638,0.9987207651138306,-0.008568047545850277,-0.03811963275074959,-0.0321141742169857
799.0,0.0,0.0,0.0,0.0,0.0,0.0,-0.009638148359954357,-0.006801986135542393,-4.6945591748226434e-05,0.9988111853599548,-0.008081918582320213,-0.037903279066085815,-0.029572967439889908
800.0,0.0,0.0,0.0,0.0,0.0,0.0,-0.00889689289033413,-0.008032234385609627,0.008848661556839943,0.9988557696342468,-0.007455941289663315,-0.03823057562112808,-0.027743997052311897
801.0,0.0,0.0,0.0,0.0,0.0,0.0,-0.0069510056637227535,-0.007104294374585152,0.01594437099993229,0.9988731145858765,-0.006568802986294031,-0.03880733624100685,-0.02653968147933483
802.0,0.0,0.0,0.0,0.0,0.0,0.0,-0.005723778158426285,-0.006791981402784586,0.026108337566256523,0.9988933801651001,-0.005581399891525507,-0.038828589022159576,-0.025952836498618126
803.0,0.0,0.0,0.0,0.0,0.0,0.0,0.0008454174967482686,-0.005469414871186018,0.0025576932821422815,0.9989370703697205,-0.004602405708283186,-0.0386158749461174,-0.0247629564255476
804.0,0.0,0.0,0.0,0.0,0.0,0.0,0.001209742738865316,-0.0043851640075445175,-0.011246281675994396,0.9989805221557617,-0.004030229058116674,-0.038997843861579895,-0.022398198023438454
805.0,0.0,0.0,0.0,0.0,0.0,0.0,0.002217432949692011,0.00038227514596655965,0.004998099524527788,0.999014139175415,-0.0037157838232815266,-0.0391266830265522,-0.020657232031226158
806.0,0.0,0.0,0.0,0.0,0.0,0.0,0.008306356146931648,-0.0008128281915560365,-0.019341809675097466,0.999051570892334,-0.003028601873666048,-0.03868638351559639,-0.019775932654738426
807.0,0.0,0.0,0.0,0.0,0.0,0.0,0.007839472964406013,-0.011014365591108799,-0.01603885181248188,0.9990803599357605,-0.00258607417345047,-0.038491569459438324,-0.01871395669877529
808.0,0.0,0.0,0.0,0.0,0.0,0.0,0.0012098088627681136,-0.015373180620372295,-0.0224212147295475,0.9991389513015747,-0.003606036538258195,-0.037264760583639145,-0.017902445048093796
809.0,0.0,0.0,0.0,0.0,0.0,0.0,0.004689847119152546,-0.01127398107200861,-0.03860967978835106,0.9991916418075562,-0.006010903045535088,-0.035707391798496246,-0.0174875408411026
810.0,0.0,0.0,0.0,0.0,0.0,0.0,0.010363713838160038,0.0019033285789191723,0.009306020103394985,0.9992116093635559,-0.008628131821751595,-0.03464248776435852,-0.017394166439771652
811.0,0.0,0.0,0.0,0.0,0.0,0.0,0.005409772973507643,0.009462227113544941,0.050405967980623245,0.9992548227310181,-0.00944554340094328,-0.03330978751182556,-0.017100326716899872
812.0,0.0,0.0,0.0,0.0,0.0,0.0,0.003613929497078061,-0.004658111371099949,0.024177055805921555,0.999318540096283,-0.008650003932416439,-0.032233234494924545,-0.015782490372657776
813.0,0.0,0.0,0.0,0.0,0.0,0.0,-0.0004938316997140646,-0.01445804350078106,0.0032621538266539574,0.9993587732315063,-0.0075657120905816555,-0.03165407478809357,-0.014955411665141582
814.0,0.0,0.0,0.0,0.0,0.0,0.0,-0.0036260471679270267,-0.019360827282071114,-0.007770172320306301,0.9993961453437805,-0.006643876899033785,-0.03090987354516983,-0.014388768002390862
815.0,0.0,0.0,0.0,0.0,0.0,0.0,-0.003232635324820876,-0.015125004574656487,-0.015196360647678375,0.9994311332702637,-0.006350953131914139,-0.02994801476597786,-0.014178485609591007
816.0,0.0,0.0,0.0,0.0,0.0,0.0,-0.005321679171174765,-0.008549855090677738,-0.005738462787121534,0.999445915222168,-0.006856602616608143,-0.029040899127721786,-0.014767192304134369
817.0,0.0,0.0,0.0,0.0,0.0,0.0,-0.015171742998063564,-0.020503947511315346,-0.1331891566514969,0.99948650598526,-0.00802947860211134,-0.026733428239822388,-0.015767432749271393
818.0,0.0,0.0,0.0,0.0,0.0,0.0,-0.0006251230370253325,-0.021298391744494438,-0.034710656851530075,0.9994919896125793,-0.009791760705411434,-0.024931203573942184,-0.01727312058210373
819.0,0.0,0.0,0.0,0.0,0.0,0.0,-0.0026516292709857225,-0.021002834662795067,-0.037093620747327805,0.9994762539863586,-0.012064393609762192,-0.023155245929956436,-0.019144423305988312
820.0,0.0,0.0,0.0,0.0,0.0,0.0,-0.001751196337863803,-0.024106107652187347,-0.0318218469619751,0.9994348883628845,-0.013666396960616112,-0.022067509591579437,-0.021374380216002464
821.0,0.0,0.0,0.0,0.0,0.0,0.0,0.003893196349963546,-0.025181692093610764,-0.03917936235666275,0.999363362789154,-0.015197494998574257,-0.021933097392320633,-0.02368542179465294
822.0,0.0,0.0,0.0,0.0,0.0,0.0,0.0021978565491735935,-0.030117426067590714,-0.04974490776658058,0.9992830753326416,-0.017247015610337257,-0.02278181165456772,-0.024847272783517838
823.0,0.0,0.0,0.0,0.0,0.0,0.0,-0.006305392365902662,-0.012816892005503178,0.02481934055685997,0.9992284774780273,-0.018999621272087097,-0.02387748844921589,-0.024731310084462166
824.0,0.0,0.0,0.0,0.0,0.0,0.0,-0.001907242345623672,-0.008827266283333302,0.011804641224443913,0.9991990923881531,-0.019789759069681168,-0.025403358042240143,-0.02376108057796955
825.0,0.0,0.0,0.0,0.0,0.0,0.0,0.005268297158181667,0.00010717807890614495,0.028097528964281082,0.9991794228553772,-0.019015364348888397,-0.027561038732528687,-0.022789791226387024
826.0,0.0,0.0,0.0,0.0,0.0,0.0,0.008286062628030777,0.001093392726033926,0.03942772001028061,0.9991747140884399,-0.018004322424530983,-0.028452234342694283,-0.022722844034433365
827.0,0.0,0.0,0.0,0.0,0.0,0.0,0.01529788039624691,0.0094277523458004,0.04206529259681702,0.9992072582244873,-0.016702188178896904,-0.02795216627418995,-0.022913340479135513
828.0,0.0,0.0,0.0,0.0,0.0,0.0,0.02366824448108673,0.016167672351002693,0.025465499609708786,0.9992428421974182,-0.01457164902240038,-0.028393181040883064,-0.022257907316088676
829.0,0.0,0.0,0.0,0.0,0.0,0.0,0.02664673514664173,0.0307055301964283,0.01866297796368599,0.9992958307266235,-0.01232830062508583,-0.02828412503004074,-0.021359778940677643
830.0,0.0,0.0,0.0,0.0,0.0,0.0,0.026814747601747513,0.03661791980266571,0.01522617693990469,0.9993624091148376,-0.010158855468034744,-0.027007346972823143,-0.02103247307240963
831.0,0.0,0.0,0.0,0.0,0.0,0.0,0.024347389116883278,0.03704758733510971,0.009388435631990433,0.9994304180145264,-0.00825483351945877,-0.025833595544099808,-0.0200938880443573
832.0,0.0,0.0,0.0,0.0,0.0,0.0,0.024998977780342102,0.037736136466264725,-0.0008828580612316728,0.9994900226593018,-0.00651891203597188,-0.0253360066562891,-0.018316103145480156
833.0,0.0,0.0,0.0,0.0,0.0,0.0,0.02137984149158001,0.03896215930581093,0.004745141603052616,0.9995308518409729,-0.004297380801290274,-0.025235921144485474,-0.01681610569357872
834.0,0.0,0.0,0.0,0.0,0.0,0.0,0.017666710540652275,0.031183263286948204,0.0013047175016254187,0.9995657205581665,-0.0025567880365997553,-0.024731900542974472,-0.015830663964152336
835.0,0.0,0.0,0.0,0.0,0.0,0.0,0.01661364734172821,0.024098191410303116,0.0016856641741469502,0.9995965957641602,-0.0014926117146387696,-0.02421359345316887,-0.0147721441462636
