,Position_X,Position_Y,Position_Z,Velocity_X,Velocity_Y,Velocity_Z,Acceleration_X,Acceleration_Y,Acceleration_Z,Quaterion_0,Quaterion_1,Quaterion_2,Quaterion_3
166.0,0.0,0.0,0.0,0.0,0.0,0.0,0.041154809296131134,-0.035778164863586426,-0.04030607268214226,1.0,-4.336808689942018e-19,6.938893903907228e-18,-2.7755575615628914e-17
167.0,0.0,0.0,0.0,0.0,0.0,0.0,0.047793690115213394,-0.02218935638666153,-0.05843854323029518,0.9999970197677612,-0.0021343210246413946,0.0009070656960830092,-0.0007964788819663227
168.0,0.0,0.0,0.0,0.0,0.0,0.0,0.023613207042217255,-0.00827415194362402,-0.014907829463481903,0.9999949932098389,-0.0030665025115013123,0.00036276315222494304,-0.0006974248099140823
169.0,0.0,0.0,0.0,0.0,0.0,0.0,-0.00040335877565667033,-0.005214631091803312,0.026765218004584312,0.9999943375587463,-0.0031524065416306257,-0.001115565886721015,0.0003919800219591707
170.0,0.0,0.0,0.0,0.0,0.0,0.0,-0.003023528028279543,-0.004491656087338924,0.027063822373747826,0.9999929666519165,-0.0033796716015785933,-0.0006827042088843882,0.0014945553848519921
171.0,0.0,0.0,0.0,0.0,0.0,0.0,0.005311451852321625,-0.013433235697448254,0.01722118817269802,0.9999892711639404,-0.0038341418839991093,-0.0005181051674298942,0.002556913299486041
172.0,0.0,0.0,0.0,0.0,0.0,0.0,0.01073005236685276,-0.006279888562858105,-0.003548231441527605,0.9999834895133972,-0.0040010372176766396,-0.0014393387828022242,0.0038597334641963243
173.0,0.0,0.0,0.0,0.0,0.0,0.0,0.011042457073926926,0.0004444857477210462,-0.007591607514768839,0.9999764561653137,-0.0038312878459692,-0.002513610292226076,0.005105998832732439
174.0,0.0,0.0,0.0,0.0,0.0,0.0,0.012177619151771069,0.004000977613031864,-0.014012716710567474,0.9999727606773376,-0.00387643463909626,-0.0026331793051213026,0.005703271366655827
175.0,0.0,0.0,0.0,0.0,0.0,0.0,0.011362940073013306,0.009160012938082218,-0.012887769378721714,0.9999722242355347,-0.004180823918431997,-0.0022427998483181,0.0057485452853143215
176.0,0.0,0.0,0.0,0.0,0.0,0.0,0.01196313090622425,0.010446920059621334,-0.009226484224200249,0.9999686479568481,-0.004078701604157686,-0.0027134364936500788,0.006218546070158482
177.0,0.0,0.0,0.0,0.0,0.0,0.0,0.015326686203479767,0.003252602880820632,-0.008023705333471298,0.9999672174453735,-0.004427238833159208,-0.002652351278811693,0.006241682451218367
178.0,0.0,0.0,0.0,0.0,0.0,0.0,0.021361686289310455,-0.014431649819016457,-0.01233177911490202,0.9999638199806213,-0.005403752904385328,-0.0029297927394509315,0.005880284588783979
179.0,0.0,0.0,0.0,0.0,0.0,0.0,0.02495357021689415,-0.012172733433544636,-0.018309200182557106,0.9999566674232483,-0.006726175080984831,-0.003076403634622693,0.0056583392433822155
180.0,0.0,0.0,0.0,0.0,0.0,0.0,0.01786990649998188,0.0038233986124396324,0.00416362751275301,0.9999497532844543,-0.008165113627910614,-0.0021617114543914795,0.005394154693931341
181.0,0.0,0.0,0.0,0.0,0.0,0.0,0.004439565818756819,0.009408313781023026,0.020524395629763603,0.9999379515647888,-0.008710315451025963,-0.0034842591267079115,0.006005866918712854
182.0,0.0,0.0,0.0,0.0,0.0,0.0,-0.001699277781881392,0.01575380750000477,0.02083553560078144,0.999925971031189,-0.009385117329657078,-0.00470829289406538,0.006148337386548519
183.0,0.0,0.0,0.0,0.0,0.0,0.0,0.0013222956331446767,0.01595228537917137,0.016486290842294693,0.9999197721481323,-0.010234445333480835,-0.005062610376626253,0.0054799411445856094
184.0,0.0,0.0,0.0,0.0,0.0,0.0,0.0018248996930196881,0.013933626934885979,0.008245715871453285,0.999906599521637,-0.011088230647146702,-0.006075464189052582,0.005185059271752834
185.0,0.0,0.0,0.0,0.0,0.0,0.0,0.00035435869358479977,0.007145931478589773,0.008934425190091133,0.9998868107795715,-0.012075760401785374,-0.007518322207033634,0.004893513862043619
186.0,0.0,0.0,0.0,0.0,0.0,0.0,-9.408837286173366e-06,0.0036846415605396032,0.009034348651766777,0.9998624324798584,-0.01330644078552723,-0.008599738590419292,0.004908992443233728
187.0,0.0,0.0,0.0,0.0,0.0,0.0,0.0030161410104483366,0.00547244306653738,0.0025633329059928656,0.9998469352722168,-0.014136730693280697,-0.009179072454571724,0.004688246641308069
188.0,0.0,0.0,0.0,0.0,0.0,0.0,0.006890154909342527,0.0023294794373214245,-0.0030804218258708715,0.9998337626457214,-0.01501542516052723,-0.009180579334497452,0.004762483295053244
189.0,0.0,0.0,0.0,0.0,0.0,0.0,0.011133178137242794,0.003953841980546713,-0.005079285241663456,0.9998211860656738,-0.015782874077558517,-0.009184654802083969,0.0049108038656413555
190.0,0.0,0.0,0.0,0.0,0.0,0.0,0.011532695963978767,0.0035301130264997482,-0.0011896130163222551,0.9998078346252441,-0.016409093514084816,-0.009583201259374619,0.00482057174667716
191.0,0.0,0.0,0.0,0.0,0.0,0.0,0.010364077985286713,0.004612026270478964,0.0034601553343236446,0.9997897148132324,-0.0163864828646183,-0.010695962235331535,0.0061259339563548565
192.0,0.0,0.0,0.0,0.0,0.0,0.0,0.009731805883347988,0.008202817291021347,0.005031679291278124,0.9997825026512146,-0.016381969675421715,-0.011044538579881191,0.006681289989501238
193.0,0.0,0.0,0.0,0.0,0.0,0.0,0.010817702859640121,0.010269089601933956,0.007564145140349865,0.9997856020927429,-0.016934556886553764,-0.01017493475228548,0.006199393421411514
194.0,0.0,0.0,0.0,0.0,0.0,0.0,0.011073978617787361,0.009477362036705017,0.0046247742138803005,0.9997802972793579,-0.016670333221554756,-0.010480212047696114,0.00718520674854517
195.0,0.0,0.0,0.0,0.0,0.0,0.0,0.011437147855758667,0.007050986401736736,-0.0031530791893601418,0.9997670650482178,-0.016403261572122574,-0.011296279728412628,0.008315925486385822
196.0,0.0,0.0,0.0,0.0,0.0,0.0,0.011275273747742176,0.004493820946663618,-0.007330191787332296,0.9997504353523254,-0.016509655863046646,-0.012060709297657013,0.00900058913975954
197.0,0.0,0.0,0.0,0.0,0.0,0.0,0.01128951832652092,-0.0015351807232946157,-0.006910599302500486,0.9997373223304749,-0.01697222702205181,-0.01202358491718769,0.009627076797187328
198.0,0.0,0.0,0.0,0.0,0.0,0.0,0.013332927599549294,-0.0051232292316854,-0.004302171990275383,0.9997419714927673,-0.018004054203629494,-0.010679316706955433,0.008819304406642914
199.0,0.0,0.0,0.0,0.0,0.0,0.0,0.0132460817694664,-0.0021343394182622433,-0.0008238759473897517,0.9997372627258301,-0.018836550414562225,-0.009811856783926487,0.008615300990641117
200.0,0.0,0.0,0.0,0.0,0.0,0.0,0.009995268657803535,-0.00010922082583419979,0.00445814523845911,0.9997170567512512,-0.018495094031095505,-0.011374755762517452,0.009713897481560707
201.0,0.0,0.0,0.0,0.0,0.0,0.0,0.016668809577822685,-0.004195263143628836,0.0007717499393038452,0.9997245073318481,-0.01782819628715515,-0.012578782625496387,0.008653189986944199
202.0,0.0,0.0,0.0,0.0,0.0,0.0,0.038960717618465424,-0.040391724556684494,-0.016751961782574654,0.9997087717056274,-0.019195612519979477,-0.012361777015030384,0.007815432734787464
203.0,0.0,0.0,0.0,0.0,0.0,0.0,0.03323684260249138,-0.017729468643665314,-0.013745438307523727,0.9996886849403381,-0.02060301974415779,-0.012166210450232029,0.00707251625135541
204.0,0.0,0.0,0.0,0.0,0.0,0.0,0.014446360059082508,-0.009132595732808113,0.02198920026421547,0.9996973276138306,-0.02110220305621624,-0.010746793821454048,0.0066625382751226425
205.0,0.0,0.0,0.0,0.0,0.0,0.0,0.0009921486489474773,-0.0007614964270032942,0.03799249976873398,0.9996973872184753,-0.020845718681812286,-0.010622055269777775,0.007598281837999821
206.0,0.0,0.0,0.0,0.0,0.0,0.0,-0.003958746790885925,0.016147887334227562,0.03604399040341377,0.9997063279151917,-0.020160585641860962,-0.010435374453663826,0.008480125106871128
207.0,0.0,0.0,0.0,0.0,0.0,0.0,0.004633237142115831,0.019207781180739403,0.021853230893611908,0.9997178316116333,-0.019542399793863297,-0.010014930739998817,0.009052986279129982
208.0,0.0,0.0,0.0,0.0,0.0,0.0,0.008099672384560108,0.033451832830905914,0.0002541667490731925,0.9997319579124451,-0.01853782683610916,-0.010198655538260937,0.00939975306391716
209.0,0.0,0.0,0.0,0.0,0.0,0.0,0.011636498384177685,0.04342576116323471,-0.00965941697359085,0.9997512698173523,-0.01719154231250286,-0.01036697719246149,0.009711568243801594
210.0,0.0,0.0,0.0,0.0,0.0,0.0,0.011834985576570034,0.03704744949936867,-0.008383480831980705,0.999769389629364,-0.016225222498178482,-0.010095645673573017,0.009796200320124626
211.0,0.0,0.0,0.0,0.0,0.0,0.0,0.014718933030962944,0.021990761160850525,-0.003177079139277339,0.9997825026512146,-0.016117015853524208,-0.00937893521040678,0.009338499046862125
212.0,0.0,0.0,0.0,0.0,0.0,0.0,0.017443688586354256,0.02197812683880329,-0.013296432793140411,0.9997851252555847,-0.016391783952713013,-0.009152745828032494,0.00878477469086647
213.0,0.0,0.0,0.0,0.0,0.0,0.0,0.01498216949403286,0.024541892111301422,-0.009860635735094547,0.9997802972793579,-0.016043974086642265,-0.010002515278756618,0.009047288447618484
214.0,0.0,0.0,0.0,0.0,0.0,0.0,0.010855150409042835,0.018924996256828308,-0.006815906148403883,0.9997657537460327,-0.016434578225016594,-0.010877048596739769,0.008943209424614906
215.0,0.0,0.0,0.0,0.0,0.0,0.0,0.005869599059224129,0.020499177277088165,0.005087849218398333,0.999748945236206,-0.017185337841510773,-0.011412588879466057,0.008741472847759724
216.0,0.0,0.0,0.0,0.0,0.0,0.0,0.0041128708980977535,0.014797141775488853,0.01094051357358694,0.9997275471687317,-0.01809919998049736,-0.012002705596387386,0.008553128689527512
217.0,0.0,0.0,0.0,0.0,0.0,0.0,0.005963518284261227,0.010141061618924141,0.002523813396692276,0.9996963739395142,-0.019209787249565125,-0.012876166962087154,0.008508033119142056
218.0,0.0,0.0,0.0,0.0,0.0,0.0,0.0048437523655593395,0.011296495795249939,0.0003024389734491706,0.9996408224105835,-0.020490223541855812,-0.014917319640517235,0.008711603470146656
219.0,0.0,0.0,0.0,0.0,0.0,0.0,0.0046975016593933105,0.012184564024209976,0.0027321195229887962,0.9995763301849365,-0.023067252710461617,-0.0158530343323946,0.007977491244673729
220.0,0.0,0.0,0.0,0.0,0.0,0.0,0.0040037259459495544,0.016353722661733627,0.008526829071342945,0.9995223879814148,-0.025857629254460335,-0.01550991553813219,0.006767548155039549
221.0,0.0,0.0,0.0,0.0,0.0,0.0,0.0024262454826384783,0.020403316244482994,0.00956975482404232,0.9994801878929138,-0.027895422652363777,-0.014916706830263138,0.006215645465999842
222.0,0.0,0.0,0.0,0.0,0.0,0.0,0.006193145178258419,0.02064349316060543,0.0016404064372181892,0.9994497895240784,-0.02926642820239067,-0.014357970096170902,0.006121773272752762
223.0,0.0,0.0,0.0,0.0,0.0,0.0,0.012167369946837425,0.015835726633667946,-0.008457029238343239,0.999422013759613,-0.03056550770998001,-0.013783005066215992,0.005602675024420023
224.0,0.0,0.0,0.0,0.0,0.0,0.0,0.011819710023701191,0.009741250425577164,-0.0071463510394096375,0.9993906021118164,-0.03156799450516701,-0.013877016492187977,0.005414941348135471
225.0,0.0,0.0,0.0,0.0,0.0,0.0,0.008837935514748096,0.005779837723821402,0.0008970677736215293,0.9993651509284973,-0.032203592360019684,-0.014014637097716331,0.005989653989672661
226.0,0.0,0.0,0.0,0.0,0.0,0.0,0.0059245130978524685,0.006050793919712305,0.005654953420162201,0.9993369579315186,-0.032474931329488754,-0.015035061165690422,0.006701913196593523
227.0,0.0,0.0,0.0,0.0,0.0,0.0,0.007066178135573864,0.005123070906847715,0.005730111617594957,0.9993121027946472,-0.03288602456450462,-0.015644438564777374,0.0069974190555512905
228.0,0.0,0.0,0.0,0.0,0.0,0.0,0.008355684578418732,0.0040160613134503365,0.003923309501260519,0.9993165135383606,-0.03274741396307945,-0.015581261366605759,0.007156572304666042
229.0,0.0,0.0,0.0,0.0,0.0,0.0,0.006250693928450346,0.005354538559913635,0.006838741712272167,0.9993216395378113,-0.032482001930475235,-0.015535078942775726,0.007732108701020479
230.0,0.0,0.0,0.0,0.0,0.0,0.0,0.005265961866825819,0.007187028881162405,0.013270272873342037,0.9993299245834351,-0.03259742632508278,-0.01482587493956089,0.00756397470831871
231.0,0.0,0.0,0.0,0.0,0.0,0.0,-0.0007955912733450532,0.01517216581851244,0.020639166235923767,0.9993515014648438,-0.03150659054517746,-0.015298767015337944,0.00836166925728321
232.0,0.0,0.0,0.0,0.0,0.0,0.0,-0.0071308487094938755,0.01829962246119976,0.02520134113729,0.9993877410888672,-0.029653972014784813,-0.015551293268799782,0.01014620903879404
233.0,0.0,0.0,0.0,0.0,0.0,0.0,-0.0036506217438727617,0.01612580567598343,0.02015690691769123,0.9994348883628845,-0.027473533526062965,-0.01526245754212141,0.0119235310703516
234.0,0.0,0.0,0.0,0.0,0.0,0.0,0.02533143386244774,-0.014050113037228584,-0.014965644106268883,0.9994586110115051,-0.025917958468198776,-0.015054484829306602,0.013565334491431713
235.0,0.0,0.0,0.0,0.0,0.0,0.0,0.04507218673825264,-0.03475669398903847,-0.04782918840646744,0.9994679093360901,-0.025999270379543304,-0.014587679877877235,0.013233596459031105
236.0,0.0,0.0,0.0,0.0,0.0,0.0,0.020797468721866608,-0.0036801001988351345,-0.029936326667666435,0.9994816780090332,-0.02588358335196972,-0.014215423725545406,0.012820483185350895
237.0,0.0,0.0,0.0,0.0,0.0,0.0,0.0014604890020564198,0.0018463886808604002,0.01949635148048401,0.9994915127754211,-0.025485623627901077,-0.014301926828920841,0.012752423994243145
238.0,0.0,0.0,0.0,0.0,0.0,0.0,-0.002402791054919362,0.007870189845561981,0.010659837163984776,0.9994857907295227,-0.025033822283148766,-0.014929752796888351,0.01336176972836256
239.0,0.0,0.0,0.0,0.0,0.0,0.0,0.0012350012548267841,-0.00035968588781543076,0.0024134062696248293,0.9994674324989319,-0.024927416816353798,-0.01579013094305992,0.013934237882494926
240.0,0.0,0.0,0.0,0.0,0.0,0.0,0.0052297101356089115,0.007070527877658606,-0.004241790622472763,0.9994438290596008,-0.02532126009464264,-0.016781702637672424,0.013752971775829792
241.0,0.0,0.0,0.0,0.0,0.0,0.0,0.00804896280169487,0.011942289769649506,-0.0024730530567467213,0.9994399547576904,-0.02570304088294506,-0.016846997663378716,0.013232137076556683
242.0,0.0,0.0,0.0,0.0,0.0,0.0,0.008373995311558247,0.013446882367134094,-0.007091789040714502,0.9994423389434814,-0.025931822136044502,-0.01682826317846775,0.012626131065189838
243.0,0.0,0.0,0.0,0.0,0.0,0.0,0.009751345962285995,0.018962418660521507,-0.0010083966189995408,0.9994511604309082,-0.025920458137989044,-0.016959700733423233,0.011736269108951092
244.0,0.0,0.0,0.0,0.0,0.0,0.0,0.009111972525715828,0.008025625720620155,0.002579424064606428,0.9994677305221558,-0.0259824488312006,-0.016507895663380623,0.010800695978105068
245.0,0.0,0.0,0.0,0.0,0.0,0.0,0.011313739232718945,0.010834364220499992,0.0015695049660280347,0.9994674324989319,-0.026206476613879204,-0.016352133825421333,0.010522415861487389
246.0,0.0,0.0,0.0,0.0,0.0,0.0,0.010180439800024033,0.011747668497264385,-0.0002526910975575447,0.9994683265686035,-0.026152027770876884,-0.016574323177337646,0.010217410512268543
247.0,0.0,0.0,0.0,0.0,0.0,0.0,0.008173875510692596,0.007670044433325529,0.004354468081146479,0.9994654059410095,-0.026082979515194893,-0.016975201666355133,0.010018196888267994
248.0,0.0,0.0,0.0,0.0,0.0,0.0,0.011671626009047031,0.014349214732646942,-0.0013424011413007975,0.9994614720344543,-0.02622075565159321,-0.01741008087992668,0.009276501834392548
249.0,0.0,0.0,0.0,0.0,0.0,0.0,0.014254181645810604,0.021023696288466454,-0.012660969980061054,0.9994543194770813,-0.02619118243455887,-0.018138056620955467,0.008724928833544254
250.0,0.0,0.0,0.0,0.0,0.0,0.0,0.0150715047493577,0.021790914237499237,-0.010236482135951519,0.99945068359375,-0.026316514238715172,-0.018461566418409348,0.008058781735599041
251.0,0.0,0.0,0.0,0.0,0.0,0.0,0.015679068863391876,0.021635375916957855,-0.012145303189754486,0.9994369745254517,-0.026820266619324684,-0.01890292391180992,0.007005308289080858
252.0,0.0,0.0,0.0,0.0,0.0,0.0,0.012403340078890324,0.025947684422135353,-0.005263593979179859,0.9994039535522461,-0.027628352865576744,-0.019727593287825584,0.0062645114958286285
253.0,0.0,0.0,0.0,0.0,0.0,0.0,0.008205653168261051,0.03023347072303295,0.005971197504550219,0.9993689656257629,-0.028741972520947456,-0.02026836946606636,0.0049787648022174835
254.0,0.0,0.0,0.0,0.0,0.0,0.0,0.010649621486663818,0.0293138325214386,-0.0037188653368502855,0.9993333220481873,-0.029421497136354446,-0.021202651783823967,0.00420790258795023
255.0,0.0,0.0,0.0,0.0,0.0,0.0,0.008767143823206425,0.02593790553510189,-0.009171687997877598,0.9992701411247253,-0.029889658093452454,-0.02346814051270485,0.0038691582158207893
256.0,0.0,0.0,0.0,0.0,0.0,0.0,0.007940005511045456,0.02369040995836258,-0.009091340936720371,0.9991872310638428,-0.031545914709568024,-0.02501213736832142,0.002002471126616001
257.0,0.0,0.0,0.0,0.0,0.0,0.0,0.004066863097250462,0.024572791531682014,-0.0008136872784234583,0.9990645051002502,-0.03328453749418259,-0.027601996436715126,0.0006525939679704607
258.0,0.0,0.0,0.0,0.0,0.0,0.0,-0.0031508419197052717,0.026432782411575317,0.010508636943995953,0.9989258050918579,-0.03527434915304184,-0.030046354979276657,0.00012039756256854162
259.0,0.0,0.0,0.0,0.0,0.0,0.0,-0.0023227164056152105,0.0243216585367918,0.01839945837855339,0.9988057017326355,-0.03732284903526306,-0.03151808679103851,-0.0009386169840581715
260.0,0.0,0.0,0.0,0.0,0.0,0.0,0.001537731965072453,0.016824256628751755,0.011773096397519112,0.9986960887908936,-0.03908328339457512,-0.03278486058115959,-0.0019335070392116904
261.0,0.0,0.0,0.0,0.0,0.0,0.0,0.004358716309070587,0.012803327292203903,0.0016945359529927373,0.9985944032669067,-0.04055781662464142,-0.03401954099535942,-0.0026271375827491283
262.0,0.0,0.0,0.0,0.0,0.0,0.0,0.0033288125414401293,0.011908439919352531,-0.0018968067597597837,0.9984867572784424,-0.04159701615571976,-0.03588702902197838,-0.002456164453178644
263.0,0.0,0.0,0.0,0.0,0.0,0.0,0.003479215083643794,0.014473398216068745,-0.0029595622327178717,0.9984065890312195,-0.042821723967790604,-0.03661221265792847,-0.0031592834275215864
264.0,0.0,0.0,0.0,0.0,0.0,0.0,0.007492138538509607,0.014883065596222878,-0.007007558364421129,0.998365044593811,-0.04381942376494408,-0.03640981763601303,-0.004609131719917059
265.0,0.0,0.0,0.0,0.0,0.0,0.0,0.007456392981112003,0.010938926599919796,-0.012413082644343376,0.9982902407646179,-0.045105818659067154,-0.03672128543257713,-0.005761045962572098
266.0,0.0,0.0,0.0,0.0,0.0,0.0,0.006263588555157185,0.021071217954158783,-0.004764735698699951,0.9982062578201294,-0.04677113518118858,-0.03661449998617172,-0.007478554733097553
267.0,0.0,0.0,0.0,0.0,0.0,0.0,0.001519161043688655,0.02048466168344021,0.002304321387782693,0.9981021881103516,-0.04796116426587105,-0.037797961384058,-0.007932215929031372
268.0,0.0,0.0,0.0,0.0,0.0,0.0,-0.0037192036397755146,0.02299449034035206,0.0020771347917616367,0.9979583024978638,-0.04842504858970642,-0.04103270173072815,-0.007097493391484022
269.0,0.0,0.0,0.0,0.0,0.0,0.0,-0.008338808082044125,0.02821744792163372,0.009501996450126171,0.9978604316711426,-0.04904886335134506,-0.04265443608164787,-0.00703164329752326
270.0,0.0,0.0,0.0,0.0,0.0,0.0,-0.00824262946844101,0.03169066458940506,0.014827407896518707,0.9978517889976501,-0.04949858784675598,-0.04235558211803436,-0.006895527709275484
271.0,0.0,0.0,0.0,0.0,0.0,0.0,-0.0037309874314814806,0.033805105835199356,0.014451141469180584,0.9978991150856018,-0.04889093339443207,-0.042139433324337006,-0.005575847811996937
272.0,0.0,0.0,0.0,0.0,0.0,0.0,0.009884919039905071,0.05831745266914368,0.014612667262554169,0.9979857802391052,-0.04567593336105347,-0.04356730356812477,-0.006320452317595482
273.0,0.0,0.0,0.0,0.0,0.0,0.0,-0.005196244455873966,0.12647974491119385,0.00402106111869216,0.9982666373252869,-0.03270401433110237,-0.046502768993377686,-0.015217514708638191
274.0,0.0,0.0,0.0,0.0,0.0,0.0,-0.05411181226372719,-0.04385286569595337,-0.030688658356666565,0.9983011484146118,-0.02750290557742119,-0.047069430351257324,-0.020560622215270996
275.0,0.0,0.0,0.0,0.0,0.0,0.0,-0.011551176197826862,-0.140690416097641,0.0408182255923748,0.9982619881629944,-0.0322796106338501,-0.0455959215760231,-0.018757006153464317
276.0,0.0,0.0,0.0,0.0,0.0,0.0,-0.012308881618082523,-0.06435809284448624,0.017534758895635605,0.9982736110687256,-0.03722924739122391,-0.04387728497385979,-0.011781597509980202
277.0,0.0,0.0,0.0,0.0,0.0,0.0,0.005353762302547693,0.06017623841762543,-0.025995910167694092,0.9981487393379211,-0.04238056764006615,-0.04339330270886421,-0.004481990821659565
278.0,0.0,0.0,0.0,0.0,0.0,0.0,0.006907000206410885,0.06831205636262894,-0.013007225468754768,0.9980200529098511,-0.04553310573101044,-0.043170422315597534,-0.004368785303086042
279.0,0.0,0.0,0.0,0.0,0.0,0.0,-0.004482475575059652,0.03461388871073723,-0.0048653618432581425,0.9979758858680725,-0.0461137481033802,-0.043666623532772064,-0.003277822397649288
280.0,0.0,0.0,0.0,0.0,0.0,0.0,-0.003468975191935897,0.022160908207297325,-0.006161559838801622,0.9979901909828186,-0.04668973386287689,-0.04275050014257431,-0.002804053947329521
281.0,0.0,0.0,0.0,0.0,0.0,0.0,-0.004833717830479145,0.018269842490553856,-0.0010137276258319616,0.9979972243309021,-0.04717573523521423,-0.042071383446455,-0.002413451438769698
282.0,0.0,0.0,0.0,0.0,0.0,0.0,-0.006235336419194937,0.01358750183135271,0.000956245232373476,0.9980093836784363,-0.0471954345703125,-0.04182317480444908,-0.0008359246421605349
283.0,0.0,0.0,0.0,0.0,0.0,0.0,-0.0033357625361531973,0.015031032264232635,0.004236496053636074,0.9980747699737549,-0.0475066602230072,-0.039870768785476685,4.615950820152648e-05
284.0,0.0,0.0,0.0,0.0,0.0,0.0,-0.00031436237622983754,0.01807709038257599,0.003747687442228198,0.9981483221054077,-0.047620728611946106,-0.037839557975530624,0.00047847485984675586
285.0,0.0,0.0,0.0,0.0,0.0,0.0,-0.0001784387422958389,0.022533033043146133,0.000392499117879197,0.998222827911377,-0.04730057343840599,-0.03621600568294525,0.0014575750101357698
286.0,0.0,0.0,0.0,0.0,0.0,0.0,-0.0018530291272327304,0.02443389780819416,0.005054157227277756,0.9982848763465881,-0.04670293256640434,-0.0351603738963604,0.003108073491603136
287.0,0.0,0.0,0.0,0.0,0.0,0.0,-0.004598378669470549,0.02569870837032795,0.01176454033702612,0.9983353018760681,-0.04591649770736694,-0.03459332883358002,0.004649475682526827
288.0,0.0,0.0,0.0,0.0,0.0,0.0,0.10444992780685425,0.05894959717988968,0.017594587057828903,0.9984054565429688,-0.04260699450969696,-0.036485716700553894,0.006322573870420456
289.0,0.0,0.0,0.0,0.0,0.0,0.0,-0.0036094621755182743,0.019811466336250305,-0.003198957070708275,0.9984845519065857,-0.041521862149238586,-0.03524808958172798,0.007883002981543541
290.0,0.0,0.0,0.0,0.0,0.0,0.0,-0.006063919514417648,0.017836373299360275,-0.0033017070963978767,0.9985651969909668,-0.04072493314743042,-0.033524289727211,0.009226448833942413
291.0,0.0,0.0,0.0,0.0,0.0,0.0,-0.0067704664543271065,0.016588587313890457,0.003244758816435933,0.9986193180084229,-0.03982939571142197,-0.03227514401078224,0.011455127038061619
292.0,0.0,0.0,0.0,0.0,0.0,0.0,-0.012149528600275517,0.022044822573661804,0.008893206715583801,0.9986871480941772,-0.03833804279565811,-0.031175589188933372,0.013497977517545223
293.0,0.0,0.0,0.0,0.0,0.0,0.0,-0.01619795523583889,0.0111306793987751,0.009974531829357147,0.9987365007400513,-0.03702470287680626,-0.03001251257956028,0.015927156433463097
294.0,0.0,0.0,0.0,0.0,0.0,0.0,-0.015302922576665878,0.016363581642508507,0.0072798351757228374,0.9987894892692566,-0.035407062619924545,-0.02833699621260166,0.01904142275452614
295.0,0.0,0.0,0.0,0.0,0.0,0.0,-0.01231591310352087,0.015718337148427963,0.009339315816760063,0.9988718032836914,-0.03337554261088371,-0.025812657549977303,0.021784307435154915
296.0,0.0,0.0,0.0,0.0,0.0,0.0,-0.0048038773238658905,0.009940183721482754,0.0029467723798006773,0.9989649057388306,-0.03061983548104763,-0.023209860548377037,0.024345234036445618
297.0,0.0,0.0,0.0,0.0,0.0,0.0,0.0014749903930351138,0.008607260882854462,-0.002539308974519372,0.9990487098693848,-0.02770332060754299,-0.020033186301589012,0.027071956545114517
298.0,0.0,0.0,0.0,0.0,0.0,0.0,0.007306059822440147,0.0047419629991054535,-0.011768369004130363,0.9990984201431274,-0.024169018492102623,-0.017970792949199677,0.029914971441030502
299.0,0.0,0.0,0.0,0.0,0.0,0.0,0.01279481966048479,-0.0017742343479767442,-0.018429486081004143,0.9991202354431152,-0.02087114006280899,-0.0163083728402853,0.03251342102885246
300.0,0.0,0.0,0.0,0.0,0.0,0.0,0.0114344647154212,-0.004804674070328474,-0.014553804881870747,0.9991414546966553,-0.01830132305622101,-0.01455358974635601,0.03419695794582367
301.0,0.0,0.0,0.0,0.0,0.0,0.0,0.0050543732941150665,-0.005914308130741119,-0.007736146915704012,0.9991351962089539,-0.01617152988910675,-0.0136365732178092,0.03579747676849365
302.0,0.0,0.0,0.0,0.0,0.0,0.0,-0.0029503549449145794,-0.0018466002075001597,0.003558536758646369,0.9991281628608704,-0.014806075021624565,-0.012497936375439167,0.0369780994951725
303.0,0.0,0.0,0.0,0.0,0.0,0.0,-0.010852640494704247,0.00533287925645709,0.015436225570738316,0.9991472959518433,-0.013839131221175194,-0.010984264314174652,0.037316251546144485
304.0,0.0,0.0,0.0,0.0,0.0,0.0,-0.015002819709479809,0.006726395338773727,0.01751887798309326,0.9991316199302673,-0.012919651344418526,-0.011088654398918152,0.03802770748734474
305.0,0.0,0.0,0.0,0.0,0.0,0.0,-0.013557893224060535,0.006090342532843351,0.014327884651720524,0.9991075992584229,-0.012150024063885212,-0.011068088933825493,0.038906462490558624
306.0,0.0,0.0,0.0,0.0,0.0,0.0,-0.010555085726082325,0.006760929711163044,0.008048640564084053,0.999089777469635,-0.011567759327590466,-0.011132564395666122,0.03952223062515259
307.0,0.0,0.0,0.0,0.0,0.0,0.0,-0.008418889716267586,0.006337835919111967,-0.0005707141244783998,0.9990749955177307,-0.011212007142603397,-0.012169024907052517,0.039690952748060226
308.0,0.0,0.0,0.0,0.0,0.0,0.0,-0.007170334458351135,0.004553175996989012,-0.005301409866660833,0.9990745782852173,-0.011243513785302639,-0.01317102462053299,0.039372120052576065
309.0,0.0,0.0,0.0,0.0,0.0,0.0,-0.006809866987168789,0.0046771373599767685,-0.007248448207974434,0.9991267919540405,-0.011867976747453213,-0.013186616823077202,0.03782432898879051
310.0,0.0,0.0,0.0,0.0,0.0,0.0,-0.005345556419342756,0.008385095745325089,-0.01253882423043251,0.9991785883903503,-0.012739274650812149,-0.013313369825482368,0.03609219565987587
311.0,0.0,0.0,0.0,0.0,0.0,0.0,-0.00900738313794136,0.012834368273615837,-0.01146103534847498,0.9992104172706604,-0.013483187183737755,-0.014521597884595394,0.03443816304206848
312.0,0.0,0.0,0.0,0.0,0.0,0.0,-0.010183261707425117,0.013735436834394932,-0.010384595021605492,0.9992427229881287,-0.014414857141673565,-0.0152242137119174,0.03278004378080368
313.0,0.0,0.0,0.0,0.0,0.0,0.0,-0.008927445858716965,0.020212119445204735,-0.010992449708282948,0.9992114901542664,-0.014544567093253136,-0.01802433282136917,0.03224923089146614
314.0,0.0,0.0,0.0,0.0,0.0,0.0,-0.008057947270572186,0.021845828741788864,-0.013301335275173187,0.999176025390625,-0.014338755048811436,-0.020549455657601357,0.0319250263273716
315.0,0.0,0.0,0.0,0.0,0.0,0.0,-0.006091102492064238,0.01870771124958992,-0.01417366974055767,0.9991616606712341,-0.014413819648325443,-0.022156238555908203,0.03125903382897377
316.0,0.0,0.0,0.0,0.0,0.0,0.0,-0.0037323504220694304,0.018822310492396355,-0.013877350836992264,0.9991590976715088,-0.015567469410598278,-0.022486137226223946,0.030544184148311615
317.0,0.0,0.0,0.0,0.0,0.0,0.0,0.00030315160984173417,0.0222313292324543,-0.009983951225876808,0.9991677403450012,-0.016587775200605392,-0.022356143221259117,0.029812846332788467
318.0,0.0,0.0,0.0,0.0,0.0,0.0,0.00014010307495482266,0.02403874509036541,-0.0038068171124905348,0.9991579651832581,-0.016986439004540443,-0.02346503734588623,0.029052041471004486
319.0,0.0,0.0,0.0,0.0,0.0,0.0,-0.0011583608575165272,0.022855019196867943,-0.00031909364042803645,0.9991297721862793,-0.0172213576734066,-0.025126392021775246,0.028497975319623947
320.0,0.0,0.0,0.0,0.0,0.0,0.0,-0.0027721168007701635,0.021140143275260925,0.0030056526884436607,0.9990598559379578,-0.01797185279428959,-0.027091162279248238,0.02867739275097847
321.0,0.0,0.0,0.0,0.0,0.0,0.0,-0.0016789049841463566,0.02595576085150242,0.007703553419560194,0.9990338683128357,-0.018581317737698555,-0.028763148933649063,0.027544204145669937
322.0,0.0,0.0,0.0,0.0,0.0,0.0,-0.003465069690719247,0.024735327810049057,0.010260452516376972,0.9989754557609558,-0.018848612904548645,-0.030736517161130905,0.0273552518337965
323.0,0.0,0.0,0.0,0.0,0.0,0.0,-0.0034929874818772078,0.02474811300635338,0.0028261328116059303,0.9988661408424377,-0.018478985875844955,-0.033760327845811844,0.028018908575177193
324.0,0.0,0.0,0.0,0.0,0.0,0.0,-0.0044310372322797775,0.021765856072306633,0.0005513621144928038,0.9987843036651611,-0.01848524436354637,-0.036055419594049454,0.028069324791431427
325.0,0.0,0.0,0.0,0.0,0.0,0.0,-0.004974042065441608,0.02362750843167305,-0.005682390183210373,0.9987183213233948,-0.01888878270983696,-0.03785603120923042,0.02778029814362526
326.0,0.0,0.0,0.0,0.0,0.0,0.0,-0.008413662202656269,0.021256662905216217,-0.0014440830564126372,0.9985929727554321,-0.018722685053944588,-0.040766455233097076,0.028274308890104294
327.0,0.0,0.0,0.0,0.0,0.0,0.0,-0.010272589512169361,0.02090744487941265,-0.00498921237885952,0.9984520077705383,-0.01837628148496151,-0.04395107552409172,0.028710627928376198
328.0,0.0,0.0,0.0,0.0,0.0,0.0,-0.015365817584097385,0.027157112956047058,-0.007141795940697193,0.998332142829895,-0.017938820645213127,-0.046494659036397934,0.029145734384655952
329.0,0.0,0.0,0.0,0.0,0.0,0.0,-0.016264846548438072,0.02427811734378338,-0.002883653622120619,0.9982843399047852,-0.017302801832556725,-0.04821955785155296,0.02834910899400711
330.0,0.0,0.0,0.0,0.0,0.0,0.0,-0.01829342171549797,0.02250155620276928,-0.005317773669958115,0.9982922077178955,-0.016727682203054428,-0.049388233572244644,0.0263352170586586
331.0,0.0,0.0,0.0,0.0,0.0,0.0,-0.020222658291459084,0.02689376287162304,-0.0072982050478458405,0.9983261227607727,-0.016171423718333244,-0.04969411715865135,0.02477848343551159
332.0,0.0,0.0,0.0,0.0,0.0,0.0,-0.017412621527910233,0.024981707334518433,-0.009364979341626167,0.998380184173584,-0.015868080779910088,-0.04927152022719383,0.023610912263393402
333.0,0.0,0.0,0.0,0.0,0.0,0.0,-0.014897936955094337,0.018082203343510628,-0.014817753806710243,0.9984592199325562,-0.016734790056943893,-0.0475117489695549,0.023274466395378113
334.0,0.0,0.0,0.0,0.0,0.0,0.0,-0.011367757804691792,0.02047313190996647,-0.017118854448199272,0.9985328912734985,-0.017260052263736725,-0.045777060091495514,0.023210803046822548
335.0,0.0,0.0,0.0,0.0,0.0,0.0,-0.0101001663133502,0.023576516658067703,-0.012050042860209942,0.9986127614974976,-0.01762290857732296,-0.043850820511579514,0.023214783519506454
336.0,0.0,0.0,0.0,0.0,0.0,0.0,-0.012288562022149563,0.020995328202843666,-0.005784987937659025,0.9986419677734375,-0.017303168773651123,-0.04315231740474701,0.023506132885813713
337.0,0.0,0.0,0.0,0.0,0.0,0.0,-0.011606644839048386,0.018577907234430313,-0.007863566279411316,0.9986653923988342,-0.016240285709500313,-0.04264998435974121,0.024177394807338715
338.0,0.0,0.0,0.0,0.0,0.0,0.0,-0.011416980996727943,0.02237800881266594,-0.005855139344930649,0.9987497925758362,-0.01546088419854641,-0.040667034685611725,0.02461876906454563
339.0,0.0,0.0,0.0,0.0,0.0,0.0,-0.01055173296481371,0.025584518909454346,0.005115028470754623,0.9988241195678711,-0.014919392764568329,-0.038512907922267914,0.025384433567523956
340.0,0.0,0.0,0.0,0.0,0.0,0.0,-0.009029056876897812,0.025380253791809082,0.002261536428704858,0.998866856098175,-0.01397578977048397,-0.036345139145851135,0.02736073173582554
341.0,0.0,0.0,0.0,0.0,0.0,0.0,-0.0032212126534432173,0.019137119874358177,-0.0005637899157591164,0.9989483952522278,-0.013330058194696903,-0.03329434618353844,0.02856522426009178
342.0,0.0,0.0,0.0,0.0,0.0,0.0,-0.0013899934710934758,0.01564810238778591,0.0030910230707377195,0.9990149140357971,-0.01285336073487997,-0.03095274791121483,0.029084796085953712
343.0,0.0,0.0,0.0,0.0,0.0,0.0,-0.0006405307212844491,0.011068852618336678,0.0005336101748980582,0.9990112781524658,-0.011522481217980385,-0.030297257006168365,0.03042598068714142
344.0,0.0,0.0,0.0,0.0,0.0,0.0,0.0021725285332649946,-0.0015030651120468974,-0.0076902215369045734,0.9990096092224121,-0.010563754476606846,-0.02993449755012989,0.031178733333945274
345.0,0.0,0.0,0.0,0.0,0.0,0.0,0.0026551918126642704,-0.0035061936359852552,-0.007652217522263527,0.9990506768226624,-0.009916207753121853,-0.02918984740972519,0.030779698863625526
346.0,0.0,0.0,0.0,0.0,0.0,0.0,0.003448748728260398,-0.0066726054064929485,-0.007615888025611639,0.999064564704895,-0.009425295516848564,-0.028196770697832108,0.03140265494585037
347.0,0.0,0.0,0.0,0.0,0.0,0.0,0.001720789005048573,-0.005072605796158314,0.00022325271856971085,0.9989714622497559,-0.008303300477564335,-0.029697829857468605,0.03324069827795029
348.0,0.0,0.0,0.0,0.0,0.0,0.0,0.003389905206859112,-0.004008496645838022,-0.002108571585267782,0.9989164471626282,-0.00664759986102581,-0.030930008739233017,0.03413083776831627
349.0,0.0,0.0,0.0,0.0,0.0,0.0,0.002072852337732911,0.006355541292577982,0.007124988362193108,0.9989524483680725,-0.0049977973103523254,-0.03104090504348278,0.03324465453624725
350.0,0.0,0.0,0.0,0.0,0.0,0.0,-0.0003883677418343723,0.004091094247996807,0.009644710458815098,0.9989411234855652,-0.002232828876003623,-0.032635416835546494,0.03235122561454773
351.0,0.0,0.0,0.0,0.0,0.0,0.0,-0.003233069321140647,0.001456054742448032,0.0027024017181247473,0.9989327192306519,8.71581505634822e-05,-0.03379426524043083,0.03148066624999046
352.0,0.0,0.0,0.0,0.0,0.0,0.0,-0.008125118911266327,0.006930456962436438,0.013344284147024155,0.9989333152770996,0.002347923582419753,-0.03464747592806816,0.030434131622314453
353.0,0.0,0.0,0.0,0.0,0.0,0.0,-0.013097274117171764,0.003915203735232353,0.015866128727793694,0.9989023208618164,0.004953582771122456,-0.03570758178830147,0.029911337420344353
354.0,0.0,0.0,0.0,0.0,0.0,0.0,0.0018575391732156277,-0.002538535511121154,-0.009291492402553558,0.9988988637924194,0.005936622619628906,-0.03582819923758507,0.029697904363274574
355.0,0.0,0.0,0.0,0.0,0.0,0.0,0.010447698645293713,-0.008332377299666405,-0.03253103792667389,0.9989810585975647,0.005918700713664293,-0.03439484164118767,0.02860906720161438
356.0,0.0,0.0,0.0,0.0,0.0,0.0,-0.0037802031729370356,-0.005614809226244688,-0.011401358991861343,0.9990420937538147,0.006020115222781897,-0.03340546414256096,0.027616025879979134
357.0,0.0,0.0,0.0,0.0,0.0,0.0,-0.010285594500601292,-0.0028994660824537277,-0.007742023561149836,0.9990277886390686,0.006461383309215307,-0.03410579636693001,0.02717437408864498
358.0,0.0,0.0,0.0,0.0,0.0,0.0,0.0015361770056188107,-0.01193524431437254,-0.02436544932425022,0.998984158039093,0.008488909341394901,-0.03623698279261589,0.025408092886209488
359.0,0.0,0.0,0.0,0.0,0.0,0.0,-0.00837592501193285,-0.012970644049346447,0.011422742158174515,0.9990657567977905,0.008766788989305496,-0.03567880392074585,0.022743428125977516
360.0,0.0,0.0,0.0,0.0,0.0,0.0,-0.011211591772735119,-0.004634731914848089,-0.0051950509659945965,0.999119758605957,0.008928985334932804,-0.03545030951499939,0.020571881905198097
361.0,0.0,0.0,0.0,0.0,0.0,0.0,-0.008978004567325115,-0.008021875284612179,-0.0040314337238669395,0.9991379380226135,0.009705821983516216,-0.03601790964603424,0.018205562606453896
362.0,0.0,0.0,0.0,0.0,0.0,0.0,-0.01765238493680954,-0.00151595170609653,0.02371343970298767,0.9991609454154968,0.009831028059124947,-0.03655082359910011,0.015635553747415543
363.0,0.0,0.0,0.0,0.0,0.0,0.0,-0.01743997260928154,0.004938484635204077,0.019858431071043015,0.9990842342376709,0.011114838533103466,-0.0389232374727726,0.013859064318239689
364.0,0.0,0.0,0.0,0.0,0.0,0.0,-0.017981886863708496,0.0002487369056325406,0.01942639984190464,0.9989402890205383,0.012782054021954536,-0.042515188455581665,0.012135871686041355
365.0,0.0,0.0,0.0,0.0,0.0,0.0,-0.023026594892144203,0.009775180369615555,0.021255744621157646,0.9988176822662354,0.01400000974535942,-0.045303281396627426,0.010730091482400894
366.0,0.0,0.0,0.0,0.0,0.0,0.0,-0.02992713823914528,0.02954341284930706,0.021207114681601524,0.9987310171127319,0.01487096305936575,-0.046942826360464096,0.010571116581559181
367.0,0.0,0.0,0.0,0.0,0.0,0.0,-0.03709501028060913,0.03606254607439041,0.037928998470306396,0.9986255764961243,0.015421709977090359,-0.04871944710612297,0.01162419468164444
368.0,0.0,0.0,0.0,0.0,0.0,0.0,-0.025663990527391434,0.02493101730942726,0.017026690766215324,0.998621940612793,0.014974677935242653,-0.04896257817745209,0.01150550413876772
369.0,0.0,0.0,0.0,0.0,0.0,0.0,-0.02543479949235916,0.02461031824350357,0.015231327153742313,0.9985999464988708,0.014598017558455467,-0.049442701041698456,0.011852845549583435
370.0,0.0,0.0,0.0,0.0,0.0,0.0,-0.029000217095017433,0.026754064485430717,0.015742924064397812,0.9985306859016418,0.015174363739788532,-0.050568267703056335,0.012206101790070534
371.0,0.0,0.0,0.0,0.0,0.0,0.0,-0.026542069390416145,0.020398922264575958,-8.832560706650838e-05,0.9985096454620361,0.015467002056539059,-0.0507357195019722,0.012853485532104969
372.0,0.0,0.0,0.0,0.0,0.0,0.0,-0.01596493273973465,0.02320392243564129,-0.024843554943799973,0.9986208081245422,0.014598214067518711,-0.048797693103551865,0.012740065343677998
373.0,0.0,0.0,0.0,0.0,0.0,0.0,-0.007244909647852182,0.012820924632251263,-0.035057567059993744,0.9987738132476807,0.012859740294516087,-0.04629749432206154,0.01190824992954731
374.0,0.0,0.0,0.0,0.0,0.0,0.0,-0.010566352866590023,0.005236465483903885,-0.018687250092625618,0.998883843421936,0.010642282664775848,-0.0447503887116909,0.01074758730828762
375.0,0.0,0.0,0.0,0.0,0.0,0.0,-0.015293730422854424,0.009317697957158089,-0.0009774729842320085,0.9989615082740784,0.008091199211776257,-0.043711159378290176,0.009985833428800106
376.0,0.0,0.0,0.0,0.0,0.0,0.0,-0.016021041199564934,0.01240853127092123,0.00581619655713439,0.9989623427391052,0.006063961889594793,-0.04371335729956627,0.011261120438575745
377.0,0.0,0.0,0.0,0.0,0.0,0.0,-0.012539121322333813,0.01013533491641283,-0.005667689722031355,0.998909056186676,0.004037553910166025,-0.04435145482420921,0.014054042287170887
378.0,0.0,0.0,0.0,0.0,0.0,0.0,-0.006799138151109219,0.009679777547717094,-0.011794690042734146,0.9988481998443604,0.0019200275419279933,-0.04513520002365112,0.01616859994828701
379.0,0.0,0.0,0.0,0.0,0.0,0.0,-0.003894394962117076,0.0028123329393565655,-0.009091819636523724,0.9988444447517395,-0.00037537000025622547,-0.04521879181265831,0.016281383112072945
380.0,0.0,0.0,0.0,0.0,0.0,0.0,0.0009738322114571929,-0.005952902138233185,-0.005594674963504076,0.9987706542015076,-0.002274337224662304,-0.0467616431415081,0.01628369837999344
381.0,0.0,0.0,0.0,0.0,0.0,0.0,0.0066619073040783405,-0.008010382764041424,-0.01886504516005516,0.9986328482627869,-0.0038795119617134333,-0.0493926927447319,0.01667075790464878
382.0,0.0,0.0,0.0,0.0,0.0,0.0,0.012899298220872879,-0.00391975836828351,-0.01633775234222412,0.9985599517822266,-0.006176194176077843,-0.0510660819709301,0.015237507410347462
383.0,0.0,0.0,0.0,0.0,0.0,0.0,0.012666699476540089,-0.016529839485883713,-0.005171972792595625,0.9984674453735352,-0.009374091401696205,-0.05271385610103607,0.014009036123752594
384.0,0.0,0.0,0.0,0.0,0.0,0.0,0.02049253135919571,-0.010464909486472607,-0.03204705938696861,0.9983325004577637,-0.012514261528849602,-0.054807595908641815,0.013105214573442936
385.0,0.0,0.0,0.0,0.0,0.0,0.0,0.022148333489894867,-0.008733361028134823,-0.02618156187236309,0.9981904625892639,-0.015648260712623596,-0.057144153863191605,0.01026395708322525
386.0,0.0,0.0,0.0,0.0,0.0,0.0,0.021097566932439804,-0.004693273454904556,-0.015425694175064564,0.9980689883232117,-0.01863565854728222,-0.05897591635584831,0.0057183923199772835
387.0,0.0,0.0,0.0,0.0,0.0,0.0,0.013455734588205814,-0.0010851265396922827,-0.008386487141251564,0.9978614449501038,-0.021441098302602768,-0.061721738427877426,0.0017894016345962882
388.0,0.0,0.0,0.0,0.0,0.0,0.0,0.0022659117821604013,0.003965942654758692,0.0036266108509153128,0.9975735545158386,-0.02375069633126259,-0.06544061750173569,-0.000464563665445894
389.0,0.0,0.0,0.0,0.0,0.0,0.0,-0.0008092962671071291,0.014136151410639286,0.02135181427001953,0.9974387288093567,-0.025545747950673103,-0.06673705577850342,-0.0030270153656601906
390.0,0.0,0.0,0.0,0.0,0.0,0.0,-0.0005035135545767844,0.007291608955711126,0.01628251001238823,0.997387707233429,-0.02624567598104477,-0.06706602871417999,-0.005560195539146662
391.0,0.0,0.0,0.0,0.0,0.0,0.0,0.0025996866170316935,0.006509939208626747,0.003072632011026144,0.9973212480545044,-0.02519861049950123,-0.06826843321323395,-0.007392632309347391
392.0,0.0,0.0,0.0,0.0,0.0,0.0,0.007811348419636488,0.008388473652303219,-0.02331637032330036,0.9973269104957581,-0.023093698546290398,-0.06856528669595718,-0.010215084068477154
393.0,0.0,0.0,0.0,0.0,0.0,0.0,0.009556222707033157,0.00830081757158041,-0.03690080717206001,0.9975805282592773,-0.019777994602918625,-0.06529052555561066,-0.013366825878620148
394.0,0.0,0.0,0.0,0.0,0.0,0.0,0.01502958219498396,0.0031049081590026617,-0.029162662103772163,0.9977392554283142,-0.019089557230472565,-0.06267371028661728,-0.014964094385504723
395.0,0.0,0.0,0.0,0.0,0.0,0.0,0.01941080391407013,-0.0026262870524078608,-0.035753026604652405,0.9979124069213867,-0.019563749432563782,-0.05943493917584419,-0.01598646491765976
396.0,0.0,0.0,0.0,0.0,0.0,0.0,0.0141254011541605,0.009917556308209896,-0.039244260638952255,0.9979984760284424,-0.019248105585575104,-0.05809558928012848,-0.01592154987156391
397.0,0.0,0.0,0.0,0.0,0.0,0.0,0.005122232250869274,0.011921113356947899,-0.018126657232642174,0.9980356097221375,-0.01830223575234413,-0.05804600939154625,-0.014851232059299946
398.0,0.0,0.0,0.0,0.0,0.0,0.0,-0.0064122858457267284,0.017426490783691406,0.0008295492152683437,0.9980254769325256,-0.017221279442310333,-0.05897553637623787,-0.013059286400675774
399.0,0.0,0.0,0.0,0.0,0.0,0.0,-0.01731591485440731,0.024725478142499924,0.011437656357884407,0.9979641437530518,-0.015835098922252655,-0.060889169573783875,-0.010431038215756416
400.0,0.0,0.0,0.0,0.0,0.0,0.0,-0.02052065171301365,0.018860993906855583,0.01327602006494999,0.9979350566864014,-0.015232215635478497,-0.061860810965299606,-0.008164589293301105
401.0,0.0,0.0,0.0,0.0,0.0,0.0,-0.022851914167404175,0.015913745388388634,0.01631568744778633,0.9978984594345093,-0.014634999446570873,-0.06276949495077133,-0.0066604092717170715
402.0,0.0,0.0,0.0,0.0,0.0,0.0,-0.01882305182516575,0.017887817695736885,0.0034170695580542088,0.9978418946266174,-0.014057128690183163,-0.0639105811715126,-0.005406306125223637
403.0,0.0,0.0,0.0,0.0,0.0,0.0,-0.027413390576839447,0.0208586398512125,0.006801070179790258,0.9978522062301636,-0.014078395441174507,-0.06376674026250839,-0.00511671369895339
404.0,0.0,0.0,0.0,0.0,0.0,0.0,-0.03929578885436058,0.024184873327612877,0.026420891284942627,0.9978929162025452,-0.013981145806610584,-0.06319572776556015,-0.004527141805738211
405.0,0.0,0.0,0.0,0.0,0.0,0.0,-0.044173866510391235,0.025164462625980377,0.030606070533394814,0.9978918433189392,-0.013591805472970009,-0.06338382512331009,-0.0030683858785778284
406.0,0.0,0.0,0.0,0.0,0.0,0.0,-0.04986976459622383,0.01940792426466942,0.04336918517947197,0.9979225397109985,-0.013582153245806694,-0.06294090300798416,-0.0020115592051297426
407.0,0.0,0.0,0.0,0.0,0.0,0.0,-0.04866022989153862,0.01792832463979721,0.0476689450442791,0.9979668855667114,-0.013974696397781372,-0.06215856596827507,-0.0015813778154551983
408.0,0.0,0.0,0.0,0.0,0.0,0.0,-0.040770892053842545,0.020150380209088326,0.04070449620485306,0.998049795627594,-0.015369618311524391,-0.06048913300037384,-0.0011328475084155798
409.0,0.0,0.0,0.0,0.0,0.0,0.0,-0.02110656164586544,0.00721006141975522,0.011240256950259209,0.9980593323707581,-0.016517382115125656,-0.060036223381757736,-0.0004444291989784688
410.0,0.0,0.0,0.0,0.0,0.0,0.0,-0.013705375604331493,-0.0031565846875309944,0.0008896255167201161,0.998005211353302,-0.018370529636740685,-0.06038610637187958,0.0011043474078178406
411.0,0.0,0.0,0.0,0.0,0.0,0.0,-0.02452375367283821,0.023368651047348976,0.02618369460105896,0.9979570508003235,-0.019207850098609924,-0.06088818237185478,0.0022340230643749237
412.0,0.0,0.0,0.0,0.0,0.0,0.0,-0.0421244353055954,0.02186177484691143,0.035412322729825974,0.9979106783866882,-0.018056580796837807,-0.06201084330677986,0.001622855430468917
413.0,0.0,0.0,0.0,0.0,0.0,0.0,-0.04199066013097763,0.0033528117928653955,0.016887683421373367,0.997900128364563,-0.017504267394542694,-0.06234441697597504,0.0014346956741064787
414.0,0.0,0.0,0.0,0.0,0.0,0.0,-0.029402432963252068,0.007097106426954269,-0.005478560924530029,0.9978817105293274,-0.017316440120339394,-0.06270346790552139,0.00022972938313614577
415.0,0.0,0.0,0.0,0.0,0.0,0.0,-0.023967670276761055,0.004763211589306593,-0.02282792143523693,0.9979044198989868,-0.017982853576540947,-0.06214649975299835,-0.0010856862645596266
416.0,0.0,0.0,0.0,0.0,0.0,0.0,-0.012514760717749596,-0.00105961540248245,-0.03303409367799759,0.9980199337005615,-0.019726501777768135,-0.05964616686105728,-0.0030180674511939287
417.0,0.0,0.0,0.0,0.0,0.0,0.0,-0.00934118777513504,-0.007205631118267775,-0.03365766629576683,0.9980649352073669,-0.02110566571354866,-0.05828772485256195,-0.00483795115724206
418.0,0.0,0.0,0.0,0.0,0.0,0.0,-0.013993313536047935,-0.00467325933277607,-0.025821788236498833,0.9979971647262573,-0.021618563681840897,-0.059194114059209824,-0.005484947934746742
419.0,0.0,0.0,0.0,0.0,0.0,0.0,-0.016335511580109596,-0.003708306699991226,-0.006389680318534374,0.9979246258735657,-0.022162681445479393,-0.06020067632198334,-0.005562488455325365
420.0,0.0,0.0,0.0,0.0,0.0,0.0,-0.010466676205396652,-0.00678250752389431,-0.009400873444974422,0.9978469014167786,-0.022644277662038803,-0.06135247275233269,-0.004956177435815334
421.0,0.0,0.0,0.0,0.0,0.0,0.0,-0.0020673193503171206,-0.009084371849894524,-0.008263882249593735,0.9978330135345459,-0.023786019533872604,-0.06115260347723961,-0.0048097590915858746
422.0,0.0,0.0,0.0,0.0,0.0,0.0,0.007170365657657385,-0.008959976956248283,-0.010406065732240677,0.9977659583091736,-0.024447085335850716,-0.06200426444411278,-0.004562316928058863
423.0,0.0,0.0,0.0,0.0,0.0,0.0,0.008107049390673637,-0.0035517425276339054,-0.01451162714511156,0.9977270364761353,-0.025089653208851814,-0.06239035725593567,-0.004311878699809313
424.0,0.0,0.0,0.0,0.0,0.0,0.0,0.00603904202580452,-0.003924391698092222,0.008006636053323746,0.9977063536643982,-0.025333119556307793,-0.06263184547424316,-0.004134964197874069
425.0,0.0,0.0,0.0,0.0,0.0,0.0,0.013392907567322254,-0.005796204321086407,-0.004335402976721525,0.9976257085800171,-0.025231655687093735,-0.0640106126666069,-0.0029584188014268875
426.0,0.0,0.0,0.0,0.0,0.0,0.0,0.014868599362671375,-0.00011954510409850627,-0.013857110403478146,0.997586727142334,-0.0251545999199152,-0.06465534120798111,-0.002759532770141959
427.0,0.0,0.0,0.0,0.0,0.0,0.0,0.009057695046067238,0.0011018220102414489,0.00036619845195673406,0.9974954128265381,-0.024149244651198387,-0.06643693894147873,-0.002369238529354334
428.0,0.0,0.0,0.0,0.0,0.0,0.0,0.003355336608365178,-0.0011917524971067905,-0.0013296251418069005,0.9973437190055847,-0.02289941906929016,-0.06913460791110992,-0.001303028897382319
429.0,0.0,0.0,0.0,0.0,0.0,0.0,0.00303194229491055,-0.0007890471024438739,-0.011738122440874577,0.9972229599952698,-0.022748049348592758,-0.07091066986322403,-0.0005058796959929168
430.0,0.0,0.0,0.0,0.0,0.0,0.0,0.0001834705617511645,-0.0014203563332557678,0.0007164657581597567,0.9971619844436646,-0.0229140967130661,-0.07171391695737839,0.0002521082351449877
431.0,0.0,0.0,0.0,0.0,0.0,0.0,0.0009378098766319454,0.0042354874312877655,-0.004389145877212286,0.9970810413360596,-0.023209821432828903,-0.07273126393556595,0.000906911154743284
432.0,0.0,0.0,0.0,0.0,0.0,0.0,-0.0023560922127217054,0.004254763480275869,-0.011109035462141037,0.9969812631607056,-0.02340550161898136,-0.07400507479906082,0.001911483472213149
433.0,0.0,0.0,0.0,0.0,0.0,0.0,-0.0029692864045500755,0.0023052506148815155,-0.007512797135859728,0.9969144463539124,-0.023482294753193855,-0.07484497129917145,0.002917350037023425
434.0,0.0,0.0,0.0,0.0,0.0,0.0,-0.0008533207001164556,-6.534805288538337e-05,-0.009487980976700783,0.996999204158783,-0.023621879518032074,-0.0736418291926384,0.003431708784773946
435.0,0.0,0.0,0.0,0.0,0.0,0.0,0.0034292659256607294,-0.003629271872341633,-0.007456029299646616,0.9972289800643921,-0.023210495710372925,-0.07057233899831772,0.0038892081938683987
436.0,0.0,0.0,0.0,0.0,0.0,0.0,0.009022069163620472,-0.009975096210837364,-0.012266453355550766,0.9974331855773926,-0.0237426720559597,-0.06743871420621872,0.003914414905011654
437.0,0.0,0.0,0.0,0.0,0.0,0.0,0.014698358252644539,-0.005340089090168476,-0.03869793936610222,0.9975790977478027,-0.025550514459609985,-0.06457123160362244,0.0036765739787369967
438.0,0.0,0.0,0.0,0.0,0.0,0.0,0.01428260374814272,-0.0023044149857014418,-0.04212310537695885,0.9976111054420471,-0.02655503712594509,-0.06371824443340302,0.002608494833111763
439.0,0.0,0.0,0.0,0.0,0.0,0.0,0.008152167312800884,-0.005571577697992325,-0.015131805092096329,0.9976315498352051,-0.027530554682016373,-0.06302361190319061,0.0011860041413456202
440.0,0.0,0.0,0.0,0.0,0.0,0.0,0.0002426232531433925,0.005243233405053616,-0.01022159494459629,0.9976428747177124,-0.028302352875471115,-0.06250634789466858,0.0004285769537091255
441.0,0.0,0.0,0.0,0.0,0.0,0.0,-0.009272760711610317,0.015195712447166443,0.013073734007775784,0.9976971745491028,-0.02862943522632122,-0.06148425489664078,-0.0001337836147285998
442.0,0.0,0.0,0.0,0.0,0.0,0.0,-0.011912279762327671,0.01878581941127777,0.022795822471380234,0.9977665543556213,-0.028340786695480347,-0.06048399955034256,-0.0005248344969004393
443.0,0.0,0.0,0.0,0.0,0.0,0.0,-0.011878633871674538,0.014549300074577332,0.021053243428468704,0.9978304505348206,-0.027104955166578293,-0.05999698117375374,-0.0002642551844473928
444.0,0.0,0.0,0.0,0.0,0.0,0.0,-0.00851454772055149,0.012468764558434486,0.02001674473285675,0.9979695677757263,-0.025566838681697845,-0.05833502486348152,-0.00014330745034385473
445.0,0.0,0.0,0.0,0.0,0.0,0.0,0.0012461011065170169,0.01688477210700512,0.011244664900004864,0.9981774687767029,-0.02482864074409008,-0.05499366670846939,-0.0008339618216268718
446.0,0.0,0.0,0.0,0.0,0.0,0.0,0.007132299244403839,0.021334651857614517,0.0033752650488168,0.9983305335044861,-0.025066569447517395,-0.052011847496032715,-0.0014911899343132973
447.0,0.0,0.0,0.0,0.0,0.0,0.0,0.004447889514267445,0.027376284822821617,0.018319370225071907,0.9984647035598755,-0.025529544800519943,-0.04911931976675987,-0.001805902924388647
448.0,0.0,0.0,0.0,0.0,0.0,0.0,-0.020731961354613304,0.03392855077981949,0.04645664989948273,0.9985516667366028,-0.02528495341539383,-0.04748282581567764,-0.0005407764110714197
449.0,0.0,0.0,0.0,0.0,0.0,0.0,-0.022237058728933334,0.046319689601659775,0.021444180980324745,0.998578667640686,-0.023621613159775734,-0.047705236822366714,0.0026164862792938948
450.0,0.0,0.0,0.0,0.0,0.0,0.0,-0.019351471215486526,0.0373137965798378,0.015364282764494419,0.9986187219619751,-0.022516384720802307,-0.047251418232917786,0.004548610188066959
451.0,0.0,0.0,0.0,0.0,0.0,0.0,-0.013183471746742725,0.034187138080596924,-0.00011098432150902227,0.9986651539802551,-0.022503593936562538,-0.045987021178007126,0.0068072066642344
452.0,0.0,0.0,0.0,0.0,0.0,0.0,0.0025145269464701414,0.026925615966320038,-0.03078521601855755,0.9986939430236816,-0.021982140839099884,-0.04537268728017807,0.00827079452574253
453.0,0.0,0.0,0.0,0.0,0.0,0.0,-0.0067364913411438465,0.014208897016942501,-0.008084660395979881,0.9987212419509888,-0.02190314792096615,-0.04478135704994202,0.008390274830162525
454.0,0.0,0.0,0.0,0.0,0.0,0.0,-0.009690411388874054,0.015257933177053928,-0.009628991596400738,0.998724102973938,-0.02256370149552822,-0.04438091441988945,0.008442260324954987
455.0,0.0,0.0,0.0,0.0,0.0,0.0,-0.004257067572325468,0.009326397441327572,-0.014519419521093369,0.9986903071403503,-0.022843239828944206,-0.04518037289381027,0.00739020062610507
456.0,0.0,0.0,0.0,0.0,0.0,0.0,-0.010256392881274223,0.0008537790854461491,-0.006280157715082169,0.9985716938972473,-0.022486597299575806,-0.048080358654260635,0.006092382594943047
457.0,0.0,0.0,0.0,0.0,0.0,0.0,-0.022192100062966347,-0.0013536808546632528,0.00933005940169096,0.9984580874443054,-0.022637801244854927,-0.05039621517062187,0.005357938818633556
458.0,0.0,0.0,0.0,0.0,0.0,0.0,-0.015780040994286537,-0.0022056535817682743,0.00599187146872282,0.9984177947044373,-0.0234083104878664,-0.05100080743432045,0.0035399103071540594
459.0,0.0,0.0,0.0,0.0,0.0,0.0,-0.013098293915390968,-0.0067381360568106174,-0.0033502152655273676,0.9983389377593994,-0.023688944056630135,-0.05246911197900772,0.0022265540901571512
460.0,0.0,0.0,0.0,0.0,0.0,0.0,-0.015936238691210747,-0.02263430692255497,0.0040674516931176186,0.9982531666755676,-0.024589374661445618,-0.05368855968117714,0.0017841828521341085
461.0,0.0,0.0,0.0,0.0,0.0,0.0,-0.013227861374616623,-0.025273283943533897,-0.006751020904630423,0.9981793761253357,-0.025692043825984,-0.05454658716917038,0.0015321295941248536
462.0,0.0,0.0,0.0,0.0,0.0,0.0,-0.005419251509010792,-0.034142956137657166,-0.009230833500623703,0.9981294274330139,-0.02638348564505577,-0.055134665220975876,0.0011561323190107942
463.0,0.0,0.0,0.0,0.0,0.0,0.0,-0.0022739109117537737,-0.03898486867547035,-0.006447006016969681,0.9980857968330383,-0.026570145040750504,-0.0558406300842762,-0.0003159930929541588
464.0,0.0,0.0,0.0,0.0,0.0,0.0,0.0044816723093390465,-0.04438669607043266,-0.00406769011169672,0.9980822801589966,-0.0277998223900795,-0.05518922582268715,-0.003587225917726755
465.0,0.0,0.0,0.0,0.0,0.0,0.0,-0.004030176438391209,-0.0368015430867672,-0.00946128461509943,0.9980850219726562,-0.02933340333402157,-0.05401181802153587,-0.006963856052607298
466.0,0.0,0.0,0.0,0.0,0.0,0.0,0.007159044966101646,-0.035583946853876114,-0.02667994797229767,0.9980570673942566,-0.03092930093407631,-0.05314982682466507,-0.01002835389226675
467.0,0.0,0.0,0.0,0.0,0.0,0.0,0.006717306096106768,-0.036499302834272385,-0.028221962973475456,0.9979967474937439,-0.03179208189249039,-0.053431618958711624,-0.011683518998324871
468.0,0.0,0.0,0.0,0.0,0.0,0.0,0.0070664361119270325,-0.03874894976615906,-0.00971408374607563,0.9979138374328613,-0.031833160668611526,-0.054693762212991714,-0.012773624621331692
469.0,0.0,0.0,0.0,0.0,0.0,0.0,0.0070408303290605545,-0.03437439352273941,-0.01768900454044342,0.9978266954421997,-0.03309733420610428,-0.05498421564698219,-0.014932761900126934
470.0,0.0,0.0,0.0,0.0,0.0,0.0,0.0027028662152588367,-0.033829037100076675,-0.02076054736971855,0.9976722598075867,-0.03423261642456055,-0.05668191239237785,-0.01629454828798771
471.0,0.0,0.0,0.0,0.0,0.0,0.0,-0.004084804095327854,-0.03055400960147381,0.0010227574966847897,0.9975339770317078,-0.03512217104434967,-0.058420661836862564,-0.01670854538679123
472.0,0.0,0.0,0.0,0.0,0.0,0.0,-0.006237237714231014,-0.030706023797392845,0.017057012766599655,0.9974307417869568,-0.036809321492910385,-0.05878210440278053,-0.01792231947183609
473.0,0.0,0.0,0.0,0.0,0.0,0.0,-0.006713377311825752,-0.013817370869219303,0.02916433848440647,0.9973644018173218,-0.03816426545381546,-0.058915071189403534,-0.01834128051996231
474.0,0.0,0.0,0.0,0.0,0.0,0.0,-0.00757145881652832,-0.005646204575896263,0.04544594883918762,0.997366726398468,-0.03936062380671501,-0.058442503213882446,-0.0171602051705122
475.0,0.0,0.0,0.0,0.0,0.0,0.0,-0.003203311003744602,-2.218373083451297e-05,0.0455225333571434,0.9973840117454529,-0.03997713327407837,-0.0578293576836586,-0.01680661365389824
476.0,0.0,0.0,0.0,0.0,0.0,0.0,-0.00035214729723520577,-0.0010525253601372242,0.04481649771332741,0.9974876046180725,-0.040426287800073624,-0.055844780057668686,-0.01628943718969822
477.0,0.0,0.0,0.0,0.0,0.0,0.0,0.004063330125063658,0.013207386247813702,0.03013789840042591,0.9975881576538086,-0.04099071025848389,-0.05402195826172829,-0.01480068638920784
478.0,0.0,0.0,0.0,0.0,0.0,0.0,0.0003725719579961151,0.020800163969397545,0.019931510090827942,0.9976621866226196,-0.04105217009782791,-0.05279263108968735,-0.014044576324522495
479.0,0.0,0.0,0.0,0.0,0.0,0.0,-0.00716541800647974,0.017139660194516182,0.02456766366958618,0.9977990984916687,-0.04054412618279457,-0.05085177347064018,-0.012914351187646389
480.0,0.0,0.0,0.0,0.0,0.0,0.0,-0.011904427781701088,0.02477424219250679,0.01449078693985939,0.9979696869850159,-0.03965229541063309,-0.04879961907863617,-0.010121168568730354
481.0,0.0,0.0,0.0,0.0,0.0,0.0,-0.015283090993762016,0.026626495644450188,0.0055323936976492405,0.9981950521469116,-0.03827691823244095,-0.045801568776369095,-0.006587446201592684
482.0,0.0,0.0,0.0,0.0,0.0,0.0,-0.011380878277122974,0.02780335210263729,-0.018253464251756668,0.9984155297279358,-0.03510316088795662,-0.04385176673531532,-0.003276125993579626
483.0,0.0,0.0,0.0,0.0,0.0,0.0,-0.012720782309770584,0.023847531527280807,-0.016051774844527245,0.9986586570739746,-0.030891792848706245,-0.041547153145074844,-0.0005979971610940993
484.0,0.0,0.0,0.0,0.0,0.0,0.0,-0.0024022888392210007,0.017304884269833565,-0.029787328094244003,0.9988867044448853,-0.028347738087177277,-0.037700753659009933,0.00042109162313863635
485.0,0.0,0.0,0.0,0.0,0.0,0.0,-0.0012498525902628899,0.0371110625565052,-0.056318238377571106,0.9990348815917969,-0.02627195045351982,-0.03518783673644066,0.0009742302936501801
486.0,0.0,0.0,0.0,0.0,0.0,0.0,-0.03233341500163078,0.04250931739807129,-0.03357962891459465,0.9991395473480225,-0.02339186519384384,-0.03402583301067352,0.003879029303789139
487.0,0.0,0.0,0.0,0.0,0.0,0.0,-0.02739628031849861,0.035162754356861115,-0.0018148990347981453,0.9992946982383728,-0.020397696644067764,-0.030894631519913673,0.006275646388530731
488.0,0.0,0.0,0.0,0.0,0.0,0.0,-0.01621473766863346,0.03339508920907974,-0.024417990818619728,0.9994240403175354,-0.01875692792236805,-0.027110321447253227,0.008016997948288918
489.0,0.0,0.0,0.0,0.0,0.0,0.0,-0.026334170252084732,0.05075559392571449,-0.017878230661153793,0.9995312690734863,-0.016510045155882835,-0.023682372644543648,0.010168570093810558
490.0,0.0,0.0,0.0,0.0,0.0,0.0,-0.00805700197815895,0.03434886410832405,-0.0010705903405323625,0.999584972858429,-0.01349617075175047,-0.021959399804472923,0.012862954288721085
491.0,0.0,0.0,0.0,0.0,0.0,0.0,0.003804753301665187,0.0317554734647274,-0.021709972992539406,0.999619722366333,-0.010928589850664139,-0.020766595378518105,0.014477431774139404
492.0,0.0,0.0,0.0,0.0,0.0,0.0,-0.022766131907701492,0.03266555070877075,0.014290264807641506,0.9996276497840881,-0.008153664879500866,-0.019876999780535698,0.016813796013593674
493.0,0.0,0.0,0.0,0.0,0.0,0.0,-0.014030849561095238,0.015891453251242638,0.019640948623418808,0.9996087551116943,-0.0025673513300716877,-0.018396588042378426,0.02090299502015114
494.0,0.0,0.0,0.0,0.0,0.0,0.0,0.010437374003231525,-0.0064389812760055065,0.016662390902638435,0.9995916485786438,-0.0004166951694060117,-0.01651044376194477,0.023315753787755966
495.0,0.0,0.0,0.0,0.0,0.0,0.0,0.014903555624186993,-0.02940654195845127,0.03526797890663147,0.9995726346969604,0.00023918804072309285,-0.01510772854089737,0.02501910924911499
496.0,0.0,0.0,0.0,0.0,0.0,0.0,0.01660018041729927,-0.023533575236797333,0.020998677238821983,0.9995479583740234,0.0009293043985962868,-0.014429734088480473,0.026360420510172844
497.0,0.0,0.0,0.0,0.0,0.0,0.0,-0.0005480976542457938,-0.00214048707857728,0.024253012612462044,0.9995101690292358,0.002170319203287363,-0.012746657244861126,0.028496501967310905
498.0,0.0,0.0,0.0,0.0,0.0,0.0,0.006643786560744047,-0.01317537296563387,0.024493878707289696,0.9994892477989197,0.0036365638952702284,-0.011670931242406368,0.0295332670211792
499.0,0.0,0.0,0.0,0.0,0.0,0.0,0.01662628911435604,-0.006808185949921608,0.0030300584621727467,0.999501645565033,0.0049405088648200035,-0.009562126360833645,0.029679464176297188
500.0,0.0,0.0,0.0,0.0,0.0,0.0,0.027906976640224457,-0.0003632104198914021,0.010138146579265594,0.9995321035385132,0.004853409249335527,-0.008537925779819489,0.02895350009202957
501.0,0.0,0.0,0.0,0.0,0.0,0.0,0.006199033930897713,0.014873555861413479,-0.03014778532087803,0.9995312690734863,0.003723164089024067,-0.007253695745021105,0.029506389051675797
502.0,0.0,0.0,0.0,0.0,0.0,0.0,-1.7819036656874232e-05,0.0055202399380505085,0.0025465223006904125,0.9995047450065613,0.00250239297747612,-0.003789216745644808,0.031137365847826004
503.0,0.0,0.0,0.0,0.0,0.0,0.0,0.041174229234457016,-0.016981273889541626,-0.11475633084774017,0.9995175004005432,0.0008879858069121838,-0.0020704418420791626,0.03097357414662838
504.0,0.0,0.0,0.0,0.0,0.0,0.0,0.026660850271582603,-0.007054155692458153,-0.025848055258393288,0.9995402097702026,-0.0008378528873436153,-0.00429920107126236,0.029995473101735115
505.0,0.0,0.0,0.0,0.0,0.0,0.0,0.010852944105863571,-0.015695128589868546,-0.023477118462324142,0.9994851350784302,-0.002635455457493663,-0.006983986124396324,0.031194116920232773
506.0,0.0,0.0,0.0,0.0,0.0,0.0,0.011394421570003033,-0.029200119897723198,-0.006299624219536781,0.9994498491287231,-0.004685094114392996,-0.008491145446896553,0.03170955553650856
507.0,0.0,0.0,0.0,0.0,0.0,0.0,0.00962392333894968,-0.03733043000102043,-0.012758065946400166,0.999464750289917,-0.007687102537602186,-0.008829165250062943,0.03054906614124775
508.0,0.0,0.0,0.0,0.0,0.0,0.0,0.009815475903451443,-0.04076628014445305,-0.003978555556386709,0.9994438290596008,-0.011633696965873241,-0.008537253364920616,0.030060647055506706
509.0,0.0,0.0,0.0,0.0,0.0,0.0,0.011274975724518299,-0.031496573239564896,-0.0068765548057854176,0.9994097948074341,-0.016130927950143814,-0.007551924791187048,0.029366416856646538
510.0,0.0,0.0,0.0,0.0,0.0,0.0,-0.0020512654446065426,-0.020066706463694572,-0.017107602208852768,0.999340832233429,-0.01927185244858265,-0.007346220314502716,0.029866522178053856
511.0,0.0,0.0,0.0,0.0,0.0,0.0,0.004716355819255114,-0.025560839101672173,0.00609714025631547,0.9992672204971313,-0.022290226072072983,-0.006536389235407114,0.03042174130678177
512.0,0.0,0.0,0.0,0.0,0.0,0.0,-0.0015853856457397342,-0.008773291483521461,-0.01653008535504341,0.9992026686668396,-0.024422679096460342,-0.0076650832779705524,0.03063490428030491
513.0,0.0,0.0,0.0,0.0,0.0,0.0,-0.0009724745759740472,0.04608482867479324,0.009226041845977306,0.9992514848709106,-0.023303048685193062,-0.009390570223331451,0.029425235465168953
514.0,0.0,0.0,0.0,0.0,0.0,0.0,0.002584525616839528,0.05192309990525246,-0.024320712313055992,0.9995954632759094,-0.01811842992901802,-0.011376377195119858,0.01873241364955902
515.0,0.0,0.0,0.0,0.0,0.0,0.0,-0.04717342555522919,-0.08916555345058441,0.031237037852406502,0.9995778799057007,-0.02172272466123104,-0.009337094612419605,0.016885461285710335
516.0,0.0,0.0,0.0,0.0,0.0,0.0,-0.01823793537914753,-0.028378650546073914,0.06296676397323608,0.9993024468421936,-0.027665169909596443,-0.007416840642690659,0.023955952376127243
517.0,0.0,0.0,0.0,0.0,0.0,0.0,-0.002657534321770072,0.05604381114244461,-0.006720195058733225,0.9990572333335876,-0.03034244291484356,-0.008024215698242188,0.029992004856467247
518.0,0.0,0.0,0.0,0.0,0.0,0.0,-0.016323864459991455,0.059815943241119385,-0.0008803069358691573,0.9989163875579834,-0.030949408188462257,-0.009087485261261463,0.03353894501924515
519.0,0.0,0.0,0.0,0.0,0.0,0.0,-0.016578583046793938,0.034524738788604736,0.01605239510536194,0.9988088011741638,-0.030491922050714493,-0.011267240159213543,0.0363733172416687
520.0,0.0,0.0,0.0,0.0,0.0,0.0,-0.01348038949072361,0.025957709178328514,0.005425320938229561,0.9987481236457825,-0.030764484778046608,-0.012347950600087643,0.03743976354598999
521.0,0.0,0.0,0.0,0.0,0.0,0.0,-0.0073323436081409454,0.009321682155132294,0.0022349762730300426,0.9986931681632996,-0.03115011379122734,-0.013687040656805038,0.038137830793857574
522.0,0.0,0.0,0.0,0.0,0.0,0.0,-0.002071624854579568,0.0005787102272734046,0.0015101355966180563,0.998650074005127,-0.0316181480884552,-0.01533022802323103,0.03825344890356064
523.0,0.0,0.0,0.0,0.0,0.0,0.0,-0.0016738239210098982,0.007338615600019693,-0.010563335381448269,0.9986376762390137,-0.032224755734205246,-0.016587354242801666,0.03753416985273361
524.0,0.0,0.0,0.0,0.0,0.0,0.0,0.013475842773914337,0.03796719014644623,-0.0031731054186820984,0.9987601637840271,-0.030707402154803276,-0.019205661490559578,0.0341513566672802
525.0,0.0,0.0,0.0,0.0,0.0,0.0,0.009225067682564259,0.0853797122836113,-0.03640516474843025,0.9992508888244629,-0.022490091621875763,-0.02303970605134964,0.0214553065598011
526.0,0.0,0.0,0.0,0.0,0.0,0.0,-0.03307854384183884,-0.06527533382177353,-0.049599114805459976,0.9994006752967834,-0.02151903510093689,-0.023937076330184937,0.012729795649647713
527.0,0.0,0.0,0.0,0.0,0.0,0.0,0.010621720924973488,-0.12695260345935822,0.08303823322057724,0.9993014931678772,-0.02612895518541336,-0.023630568757653236,0.012433262541890144
528.0,0.0,0.0,0.0,0.0,0.0,0.0,0.006338054314255714,-0.0660695731639862,0.035766005516052246,0.9991069436073303,-0.0296756774187088,-0.023287475109100342,0.019020386040210724
529.0,0.0,0.0,0.0,0.0,0.0,0.0,-0.0014864146942272782,0.03436091169714928,-0.019862761721014977,0.9988511204719543,-0.03156546130776405,-0.023284409195184708,0.027530452236533165
530.0,0.0,0.0,0.0,0.0,0.0,0.0,0.020565835759043694,0.0335216298699379,-0.009844907559454441,0.9987592101097107,-0.032157253473997116,-0.022827070206403732,0.030414441600441933
531.0,0.0,0.0,0.0,0.0,0.0,0.0,0.022634275257587433,0.005199456587433815,-0.015994951128959656,0.9987475872039795,-0.03138340637087822,-0.023128947243094444,0.03135773539543152
532.0,0.0,0.0,0.0,0.0,0.0,0.0,0.024014584720134735,-0.0036240420304238796,-0.0062842839397490025,0.998763382434845,-0.03021395206451416,-0.023688260465860367,0.03157562017440796
533.0,0.0,0.0,0.0,0.0,0.0,0.0,0.02651250921189785,-0.011587894521653652,-0.00533906277269125,0.998816967010498,-0.02953864447772503,-0.02358859032392502,0.030589038506150246
534.0,0.0,0.0,0.0,0.0,0.0,0.0,0.013810754753649235,-0.010561314411461353,-0.0025372840464115143,0.9988451600074768,-0.028751768171787262,-0.023891044780611992,0.030175691470503807
535.0,0.0,0.0,0.0,0.0,0.0,0.0,0.011284700594842434,-0.012126071378588676,0.026085365563631058,0.9988720417022705,-0.027389081194996834,-0.024065935984253883,0.030421163886785507
536.0,0.0,0.0,0.0,0.0,0.0,0.0,0.02111371047794819,-0.02143298089504242,0.007401844020932913,0.9989063143730164,-0.026705803349614143,-0.023678913712501526,0.030207792297005653
537.0,0.0,0.0,0.0,0.0,0.0,0.0,0.022292833775281906,-0.02075386419892311,-0.004239597357809544,0.9989097714424133,-0.025237251073122025,-0.024133963510394096,0.030979372560977936
538.0,0.0,0.0,0.0,0.0,0.0,0.0,0.020540663972496986,-0.020251186564564705,-3.308575469418429e-05,0.9989194273948669,-0.02236875705420971,-0.025425394997000694,0.03183411806821823
539.0,0.0,0.0,0.0,0.0,0.0,0.0,0.015624606050550938,-0.025533294305205345,0.012899836525321007,0.9990105628967285,-0.019815118983387947,-0.024761885404586792,0.03117998130619526
540.0,0.0,0.0,0.0,0.0,0.0,0.0,0.012030893005430698,-0.023248832672834396,0.016114408150315285,0.9991186857223511,-0.017428115010261536,-0.023492496460676193,0.03010333888232708
541.0,0.0,0.0,0.0,0.0,0.0,0.0,0.00477087777107954,-0.01892757974565029,0.026017634198069572,0.9992218017578125,-0.015227301977574825,-0.02190503291785717,0.029055742546916008
542.0,0.0,0.0,0.0,0.0,0.0,0.0,0.002176915295422077,-0.01526470948010683,0.029300283640623093,0.9992848634719849,-0.012368392199277878,-0.0201842300593853,0.029478007927536964
543.0,0.0,0.0,0.0,0.0,0.0,0.0,0.004707907792180777,-0.008668877184391022,0.030569002032279968,0.9993676543235779,-0.009797254577279091,-0.01700957864522934,0.02964361570775509
544.0,0.0,0.0,0.0,0.0,0.0,0.0,0.0031355428509414196,-0.008047952316701412,0.020745661109685898,0.9994323253631592,-0.00700866524130106,-0.014287439174950123,0.029690934345126152
545.0,0.0,0.0,0.0,0.0,0.0,0.0,0.002857811050489545,-0.017967162653803825,0.04239235445857048,0.9994745254516602,-0.004112414084374905,-0.011830145493149757,0.02989347092807293
546.0,0.0,0.0,0.0,0.0,0.0,0.0,0.0014273237902671099,-0.012869153171777725,0.012742812745273113,0.9995067119598389,-0.0017978836549445987,-0.008629628457129002,0.030142495408654213
547.0,0.0,0.0,0.0,0.0,0.0,0.0,-0.000532765407115221,-0.003653446678072214,0.014298352412879467,0.9995134472846985,0.001172235468402505,-0.004321843385696411,0.0308659840375185
548.0,0.0,0.0,0.0,0.0,0.0,0.0,-0.009688201360404491,-0.0035273139365017414,0.011711832135915756,0.9994665384292603,0.004692901391535997,-0.000587225949857384,0.032313406467437744
549.0,0.0,0.0,0.0,0.0,0.0,0.0,0.013792626559734344,-0.011758842505514622,-0.003091393271461129,0.9993804693222046,0.00883744191378355,0.0029085595160722733,0.03394381329417229
550.0,0.0,0.0,0.0,0.0,0.0,0.0,0.05461197718977928,-0.01779066026210785,-0.04167287051677704,0.9993683099746704,0.01138343382626772,0.004516915418207645,0.033359967172145844
551.0,0.0,0.0,0.0,0.0,0.0,0.0,-0.009913687594234943,0.009360983967781067,-0.02722402848303318,0.9992676973342896,0.014861027710139751,0.004004643764346838,0.035030122846364975
552.0,0.0,0.0,0.0,0.0,0.0,0.0,0.010491455905139446,0.009187338873744011,0.019072294235229492,0.9989896416664124,0.020144358277320862,0.0034114504233002663,0.04002632945775986
553.0,0.0,0.0,0.0,0.0,0.0,0.0,0.07815748453140259,-0.017640937119722366,-0.03573165461421013,0.9990360736846924,0.021865367889404297,0.0029503547120839357,0.037947699427604675
554.0,0.0,0.0,0.0,0.0,0.0,0.0,0.037699006497859955,-0.01892639696598053,-0.008991689421236515,0.9992557168006897,0.021061547100543976,0.0024380264803767204,0.03222491592168808
555.0,0.0,0.0,0.0,0.0,0.0,0.0,0.03080275095999241,-0.02246704138815403,-0.004867079667747021,0.9993961453437805,0.020848508924245834,-0.0007925239624455571,0.02778426557779312
556.0,0.0,0.0,0.0,0.0,0.0,0.0,0.041737932711839676,-0.03357069566845894,-0.015697555616497993,0.999488353729248,0.021314440295100212,-0.006107964552938938,0.023054072633385658
557.0,0.0,0.0,0.0,0.0,0.0,0.0,0.041343480348587036,-0.04957449808716774,-0.030400991439819336,0.9994814395904541,0.021570639684796333,-0.013848395086824894,0.019494161009788513
558.0,0.0,0.0,0.0,0.0,0.0,0.0,0.027803145349025726,-0.04649868234992027,-0.016180317848920822,0.999416172504425,0.021299006417393684,-0.020368387922644615,0.017288465052843094
559.0,0.0,0.0,0.0,0.0,0.0,0.0,0.04162987321615219,-0.04523951932787895,0.002669172128662467,0.9993342757225037,0.020079495385289192,-0.02609805203974247,0.015710437670350075
560.0,0.0,0.0,0.0,0.0,0.0,0.0,0.024428673088550568,-0.046554986387491226,0.03181588649749756,0.9991281628608704,0.01824519783258438,-0.03316508233547211,0.017613954842090607
561.0,0.0,0.0,0.0,0.0,0.0,0.0,0.017851868644356728,-0.04444091394543648,0.01656884327530861,0.9989427328109741,0.015502313151955605,-0.03726344555616379,0.02201312780380249
562.0,0.0,0.0,0.0,0.0,0.0,0.0,0.03689124062657356,-0.06228684261441231,0.012673654593527317,0.9988505244255066,0.012743321247398853,-0.04027339071035385,0.02265791781246662
563.0,0.0,0.0,0.0,0.0,0.0,0.0,0.01664050854742527,-0.056033410131931305,0.042322445660829544,0.9985724091529846,0.01319846697151661,-0.046708472073078156,0.02230316400527954
564.0,0.0,0.0,0.0,0.0,0.0,0.0,0.031858377158641815,-0.06373269110918045,-0.03329475224018097,0.998483419418335,0.011659749783575535,-0.04929535090923309,0.02156856469810009
565.0,0.0,0.0,0.0,0.0,0.0,0.0,0.031225809827446938,-0.04640801623463631,-0.028629828244447708,0.9984851479530334,0.00940224714577198,-0.05102416127920151,0.018312597647309303
566.0,0.0,0.0,0.0,0.0,0.0,0.0,0.003598254406824708,-0.02656252309679985,-0.019251292571425438,0.9984122514724731,0.00839267298579216,-0.05358457192778587,0.015198768116533756
567.0,0.0,0.0,0.0,0.0,0.0,0.0,0.027874330058693886,-0.0369570292532444,-0.002884621499106288,0.9984362125396729,0.007357426919043064,-0.05390026420354843,0.012886762619018555
568.0,0.0,0.0,0.0,0.0,0.0,0.0,0.042389534413814545,-0.053254738450050354,-0.0645768865942955,0.9985178112983704,0.003295015310868621,-0.053822118788957596,0.007376194931566715
569.0,0.0,0.0,0.0,0.0,0.0,0.0,0.008405769243836403,-0.023415004834532738,-0.036293499171733856,0.9983997941017151,-0.0005536462995223701,-0.056453999131917953,0.0032552836928516626
570.0,0.0,0.0,0.0,0.0,0.0,0.0,0.007433973252773285,-0.013857625424861908,0.003312845481559634,0.9982001185417175,-0.002693097572773695,-0.05989028513431549,0.0015008910559117794
571.0,0.0,0.0,0.0,0.0,0.0,0.0,0.004237364511936903,-0.021929411217570305,0.01741490140557289,0.9981023669242859,-0.005745559930801392,-0.06130535900592804,-0.0005415100022219121
572.0,0.0,0.0,0.0,0.0,0.0,0.0,0.008534710854291916,-0.024987846612930298,0.0028296131640672684,0.99796062707901,-0.009647179394960403,-0.06307099759578705,-0.001914961845614016
573.0,0.0,0.0,0.0,0.0,0.0,0.0,0.013516723178327084,-0.041474126279354095,-0.02359706349670887,0.997776985168457,-0.01376148872077465,-0.065162792801857,-0.0022740112617611885
574.0,0.0,0.0,0.0,0.0,0.0,0.0,0.009445280767977238,-0.04258096218109131,-0.0069797588512301445,0.9977023005485535,-0.01829572208225727,-0.06512696295976639,-0.003716751467436552
575.0,0.0,0.0,0.0,0.0,0.0,0.0,0.008282343856990337,-0.0373811349272728,-0.03282344341278076,0.9975207448005676,-0.02172190509736538,-0.06677691638469696,-0.00459937984123826
576.0,0.0,0.0,0.0,0.0,0.0,0.0,0.011690468527376652,-0.04684148728847504,-0.0036176361609250307,0.9973092079162598,-0.026298629119992256,-0.06813807785511017,-0.006333161145448685
577.0,0.0,0.0,0.0,0.0,0.0,0.0,0.0006001887377351522,-0.03407975658774376,-0.013878252357244492,0.9970669150352478,-0.032598573714494705,-0.06872562319040298,-0.008463988080620766
578.0,0.0,0.0,0.0,0.0,0.0,0.0,-0.008825460448861122,-0.015321719460189342,0.0020214729011058807,0.9967390298843384,-0.037846218794584274,-0.07058122754096985,-0.009867873042821884
579.0,0.0,0.0,0.0,0.0,0.0,0.0,-0.00870154146105051,-0.003883738536387682,0.03204939141869545,0.9964079260826111,-0.042058881372213364,-0.07266617566347122,-0.011036712676286697
580.0,0.0,0.0,0.0,0.0,0.0,0.0,-0.013878438621759415,0.0063796755857765675,0.034730855375528336,0.9961667656898499,-0.045195322483778,-0.07398306578397751,-0.011622022837400436
581.0,0.0,0.0,0.0,0.0,0.0,0.0,-0.009814484976232052,0.00322669162414968,0.03752879798412323,0.996113121509552,-0.0484808087348938,-0.0722666010260582,-0.013619952835142612
582.0,0.0,0.0,0.0,0.0,0.0,0.0,-0.011839228682219982,0.006280574481934309,0.02095424383878708,0.9961227774620056,-0.05090796947479248,-0.0701589584350586,-0.015021615661680698
583.0,0.0,0.0,0.0,0.0,0.0,0.0,-0.006914490833878517,0.009124643169343472,0.017211271449923515,0.9961077570915222,-0.052111998200416565,-0.06938330084085464,-0.015463893301784992
584.0,0.0,0.0,0.0,0.0,0.0,0.0,-0.0018089708173647523,0.012060989625751972,0.020681088790297508,0.9961787462234497,-0.053355779498815536,-0.0670083537697792,-0.017054803669452667
585.0,0.0,0.0,0.0,0.0,0.0,0.0,-0.0032222066074609756,0.02381768822669983,0.006334842182695866,0.9962033033370972,-0.05406961962580681,-0.06576909124851227,-0.018151041120290756
586.0,0.0,0.0,0.0,0.0,0.0,0.0,-0.020058153197169304,0.031174447387456894,0.01716700568795204,0.9963022470474243,-0.0533938929438591,-0.06495102494955063,-0.017679255455732346
587.0,0.0,0.0,0.0,0.0,0.0,0.0,-0.015789588913321495,0.027549613267183304,0.031774647533893585,0.9965401887893677,-0.05185234546661377,-0.06282616406679153,-0.016477985307574272
588.0,0.0,0.0,0.0,0.0,0.0,0.0,-0.003977225162088871,0.02652626670897007,0.0019745738245546818,0.9967462420463562,-0.04965683072805405,-0.061409417539834976,-0.016126040369272232
589.0,0.0,0.0,0.0,0.0,0.0,0.0,-0.013808638788759708,0.029255468398332596,0.006894487421959639,0.9969497919082642,-0.0474785640835762,-0.060141026973724365,-0.01482041273266077
590.0,0.0,0.0,0.0,0.0,0.0,0.0,-0.008224966935813427,0.030199389904737473,0.011331540532410145,0.9971792697906494,-0.044948745518922806,-0.05869576334953308,-0.012948235496878624
591.0,0.0,0.0,0.0,0.0,0.0,0.0,-0.006463395897299051,0.02671370469033718,-0.006560380104929209,0.9973914623260498,-0.042304906994104385,-0.057451389729976654,-0.01094273291528225
592.0,0.0,0.0,0.0,0.0,0.0,0.0,-0.007489099632948637,0.023427126929163933,-0.004886390175670385,0.9976027607917786,-0.0400921106338501,-0.055672019720077515,-0.009044388309121132
593.0,0.0,0.0,0.0,0.0,0.0,0.0,-0.008813111111521721,0.02288791723549366,0.004408371634781361,0.9978104829788208,-0.03791877254843712,-0.05369386076927185,-0.007281941827386618
594.0,0.0,0.0,0.0,0.0,0.0,0.0,-0.002858436433598399,0.022619709372520447,-0.005771601106971502,0.9979985952377319,-0.03625219315290451,-0.05150208622217178,-0.005632976535707712
595.0,0.0,0.0,0.0,0.0,0.0,0.0,-0.007448177319020033,0.018885690718889236,-0.00786187220364809,0.9980312585830688,-0.034085486084222794,-0.05254555866122246,-0.003164011752232909
596.0,0.0,0.0,0.0,0.0,0.0,0.0,-0.008546845056116581,0.014760561287403107,-0.008306974545121193,0.998055100440979,-0.033106401562690735,-0.052781522274017334,-0.001886273268610239
597.0,0.0,0.0,0.0,0.0,0.0,0.0,-0.007603255100548267,0.00923475343734026,-0.012171778827905655,0.9980857968330383,-0.03256130963563919,-0.052568092942237854,-0.0010350453667342663
598.0,0.0,0.0,0.0,0.0,0.0,0.0,-0.005874203983694315,0.005288942717015743,-0.013515960425138474,0.9981173872947693,-0.03197529539465904,-0.05232534557580948,-0.0010399004677310586
599.0,0.0,0.0,0.0,0.0,0.0,0.0,-0.018567116931080818,0.004693754483014345,0.007753689307719469,0.9981265068054199,-0.03155648708343506,-0.052374567836523056,-0.0020813154987990856
600.0,0.0,0.0,0.0,0.0,0.0,0.0,-0.01707485131919384,0.007636571768671274,0.004909445531666279,0.9981159567832947,-0.030607981607317924,-0.05310842767357826,-0.00270388787612319
601.0,0.0,0.0,0.0,0.0,0.0,0.0,-0.01628800295293331,0.005089911632239819,-0.0027908540796488523,0.9981221556663513,-0.029466921463608742,-0.053599387407302856,-0.00323279551230371
602.0,0.0,0.0,0.0,0.0,0.0,0.0,-0.011117111891508102,0.0018606125377118587,0.00502754794433713,0.9981870055198669,-0.028705263510346413,-0.05273597687482834,-0.0041625527665019035
603.0,0.0,0.0,0.0,0.0,0.0,0.0,-0.0002791340812109411,-0.006258589215576649,-0.027344342321157455,0.9981906414031982,-0.027985313907265663,-0.05305803194642067,-0.004119150340557098
604.0,0.0,0.0,0.0,0.0,0.0,0.0,-0.005105958785861731,-0.007312439382076263,-0.01377726998180151,0.9982222318649292,-0.027407953515648842,-0.05278690531849861,-0.0037544495426118374
605.0,0.0,0.0,0.0,0.0,0.0,0.0,-0.008777027018368244,-0.009243533946573734,-0.00030181213514879346,0.9982645511627197,-0.026860054582357407,-0.052311111241579056,-0.0030670787673443556
606.0,0.0,0.0,0.0,0.0,0.0,0.0,-0.002647923771291971,-0.01073182187974453,-0.01989441178739071,0.9982580542564392,-0.026270264759659767,-0.05279191583395004,-0.0019047934329137206
607.0,0.0,0.0,0.0,0.0,0.0,0.0,-0.007122548762708902,-0.00803309679031372,-0.011397070251405239,0.9982606768608093,-0.02596016600728035,-0.052916623651981354,-0.0010091684525832534
608.0,0.0,0.0,0.0,0.0,0.0,0.0,-0.010120517574250698,-0.0050421725027263165,0.007862023077905178,0.9983310103416443,-0.02644977904856205,-0.05133318156003952,-0.0006498289876617491
609.0,0.0,0.0,0.0,0.0,0.0,0.0,-0.011385250836610794,0.002579261315986514,-0.012987575493752956,0.9983389377593994,-0.027459410950541496,-0.050649967044591904,0.00035578638198785484
610.0,0.0,0.0,0.0,0.0,0.0,0.0,-0.0174045879393816,0.004534073639661074,0.001350904698483646,0.998369038105011,-0.028134895488619804,-0.04963750019669533,0.0017415316542610526
611.0,0.0,0.0,0.0,0.0,0.0,0.0,-0.01821177452802658,0.004420415032655001,0.003927782643586397,0.9984486103057861,-0.028116781264543533,-0.04790632054209709,0.0038183091674000025
612.0,0.0,0.0,0.0,0.0,0.0,0.0,-0.00777328060939908,-0.0004541147209238261,-0.0023316582664847374,0.9985070824623108,-0.028110943734645844,-0.046520985662937164,0.005362142343074083
613.0,0.0,0.0,0.0,0.0,0.0,0.0,-0.007051988039165735,-0.004788877442479134,-0.0016807321226224303,0.9985123872756958,-0.028157178312540054,-0.04617892578244209,0.006834023632109165
614.0,0.0,0.0,0.0,0.0,0.0,0.0,-0.006581444293260574,0.0033087104093283415,-0.0067322030663490295,0.9985764026641846,-0.027283841744065285,-0.0451652966439724,0.0077591645531356335
615.0,0.0,0.0,0.0,0.0,0.0,0.0,-0.009693377651274204,-8.353366865776479e-05,-0.0001922879455378279,0.998619556427002,-0.02593695931136608,-0.04485335946083069,0.00859515555202961
616.0,0.0,0.0,0.0,0.0,0.0,0.0,-0.0037283061537891626,-0.0024815392680466175,-0.007511277683079243,0.9986535310745239,-0.024794291704893112,-0.04485686868429184,0.008019063621759415
617.0,0.0,0.0,0.0,0.0,0.0,0.0,-0.010111413896083832,-0.0009284496190957725,2.9672532036784105e-05,0.9986990094184875,-0.023491546511650085,-0.044771429151296616,0.006585007533431053
618.0,0.0,0.0,0.0,0.0,0.0,0.0,-0.013589954003691673,-0.0002696585434023291,-0.005516710691154003,0.998682975769043,-0.021569695323705673,-0.046086881309747696,0.006514278240501881
619.0,0.0,0.0,0.0,0.0,0.0,0.0,-0.02190748043358326,0.00026686873752623796,0.0009816080564633012,0.9986835718154907,-0.020159784704446793,-0.04675864055752754,0.006171011365950108
620.0,0.0,0.0,0.0,0.0,0.0,0.0,-0.02312198095023632,0.0013778405264019966,0.002077011624351144,0.9986787438392639,-0.019577229395508766,-0.047150589525699615,0.0058807977475225925
621.0,0.0,0.0,0.0,0.0,0.0,0.0,-0.024064328521490097,0.0044366754591465,-0.004134679213166237,0.9986139535903931,-0.019165800884366035,-0.048654425889253616,0.0059564500115811825
622.0,0.0,0.0,0.0,0.0,0.0,0.0,-0.03232679143548012,0.00841129943728447,0.0017426884733140469,0.9985966086387634,-0.019384460523724556,-0.04898129403591156,0.005431720521301031
623.0,0.0,0.0,0.0,0.0,0.0,0.0,-0.03532154858112335,0.01327156275510788,-0.0036654609721153975,0.9986095428466797,-0.0197838693857193,-0.04860350489616394,0.004958026576787233
624.0,0.0,0.0,0.0,0.0,0.0,0.0,-0.03574841096997261,0.01693253219127655,-0.0009386318852193654,0.9985852241516113,-0.01954641565680504,-0.04915161058306694,0.005436446983367205
625.0,0.0,0.0,0.0,0.0,0.0,0.0,-0.0324939601123333,0.01762167178094387,-0.014550148509442806,0.9985594153404236,-0.019912023097276688,-0.04951199144124985,0.005561690777540207
626.0,0.0,0.0,0.0,0.0,0.0,0.0,-0.04399717226624489,0.017049124464392662,0.0007512443116866052,0.9985126852989197,-0.020100785419344902,-0.050306398421525955,0.006144660525023937
627.0,0.0,0.0,0.0,0.0,0.0,0.0,-0.044340942054986954,0.018567238003015518,-1.4739839571120683e-05,0.9985333681106567,-0.0207878015935421,-0.049661390483379364,0.005634373985230923
628.0,0.0,0.0,0.0,0.0,0.0,0.0,-0.03289570286870003,0.024167940020561218,-0.02037876844406128,0.9986092448234558,-0.021922491490840912,-0.04770505800843239,0.0048040528781712055
629.0,0.0,0.0,0.0,0.0,0.0,0.0,-0.021942272782325745,0.02565293200314045,-0.02751701883971691,0.9986204504966736,-0.02267519384622574,-0.04707212746143341,0.0051596881821751595
630.0,0.0,0.0,0.0,0.0,0.0,0.0,-0.0238746777176857,0.017533354461193085,-0.01585681177675724,0.9985367059707642,-0.0228718314319849,-0.04861070215702057,0.00618018489331007
631.0,0.0,0.0,0.0,0.0,0.0,0.0,-0.030448609963059425,0.014541229233145714,-0.005959582515060902,0.9984666109085083,-0.023677101358771324,-0.04964819923043251,0.00612260727211833
632.0,0.0,0.0,0.0,0.0,0.0,0.0,-0.03915363922715187,0.011537034995853901,0.010717139579355717,0.9983921647071838,-0.025605570524930954,-0.05027061700820923,0.005529781337827444
633.0,0.0,0.0,0.0,0.0,0.0,0.0,-0.04100029170513153,0.008749006316065788,0.018678832799196243,0.9983092546463013,-0.02717714011669159,-0.05113008990883827,0.005046817008405924
634.0,0.0,0.0,0.0,0.0,0.0,0.0,-0.04315102845430374,0.006653925403952599,0.02302837185561657,0.9981921911239624,-0.028208883479237556,-0.05276169627904892,0.005667659919708967
635.0,0.0,0.0,0.0,0.0,0.0,0.0,-0.04136921092867851,0.004343768581748009,0.022873293608427048,0.9980769753456116,-0.0290434118360281,-0.05430914834141731,0.006914698518812656
636.0,0.0,0.0,0.0,0.0,0.0,0.0,-0.039808809757232666,0.0025067476090043783,0.015914490446448326,0.9980225563049316,-0.029232915490865707,-0.05517829209566116,0.007103331852704287
637.0,0.0,0.0,0.0,0.0,0.0,0.0,-0.038698405027389526,-0.005814107600599527,0.01266395952552557,0.9980083703994751,-0.028665974736213684,-0.05564519762992859,0.007833132520318031
638.0,0.0,0.0,0.0,0.0,0.0,0.0,-0.030515294522047043,-0.007243589032441378,0.010061928071081638,0.9980116486549377,-0.027861708775162697,-0.05581750348210335,0.008966205641627312
639.0,0.0,0.0,0.0,0.0,0.0,0.0,-0.013011058792471886,-0.011226583272218704,-0.010273472405970097,0.9980493783950806,-0.026247985661029816,-0.055719029158353806,0.01016905251890421
640.0,0.0,0.0,0.0,0.0,0.0,0.0,-0.009596933610737324,-0.012707910500466824,-0.007822176441550255,0.9981032013893127,-0.02630983665585518,-0.054553620517253876,0.01098665688186884
641.0,0.0,0.0,0.0,0.0,0.0,0.0,-0.006088913418352604,-0.017319411039352417,-0.021871281787753105,0.998113214969635,-0.0265748780220747,-0.05409761145710945,0.01166508998721838
642.0,0.0,0.0,0.0,0.0,0.0,0.0,-0.003409269032999873,-0.023043304681777954,-0.039635203778743744,0.9980596899986267,-0.026707950979471207,-0.05454587936401367,0.013712851330637932
643.0,0.0,0.0,0.0,0.0,0.0,0.0,-0.01009789202362299,-0.0225926972925663,-0.02930605411529541,0.9980417490005493,-0.027857940644025803,-0.053845468908548355,0.015399863943457603
644.0,0.0,0.0,0.0,0.0,0.0,0.0,-0.00705327233299613,-0.019764605909585953,-0.029456496238708496,0.998045802116394,-0.029134325683116913,-0.05267241224646568,0.01678064838051796
645.0,0.0,0.0,0.0,0.0,0.0,0.0,0.0010495649185031652,-0.021691489964723587,-0.05078854039311409,0.998004138469696,-0.0299526359885931,-0.052607838064432144,0.017917821183800697
646.0,0.0,0.0,0.0,0.0,0.0,0.0,-0.0012750590685755014,-0.020248427987098694,-0.045397669076919556,0.9979952573776245,-0.029919106513261795,-0.05293923243880272,0.017509832978248596
647.0,0.0,0.0,0.0,0.0,0.0,0.0,-0.010667596943676472,-0.017149390652775764,-0.03047756664454937,0.9979763627052307,-0.02913946844637394,-0.054005928337574005,0.016639050096273422
648.0,0.0,0.0,0.0,0.0,0.0,0.0,-0.028239285573363304,-0.009280350990593433,-0.007769652176648378,0.9979496598243713,-0.027838578447699547,-0.05514801666140556,0.01672704890370369
649.0,0.0,0.0,0.0,0.0,0.0,0.0,-0.03317674994468689,-0.0038377863820642233,-0.0009564848733134568,0.9979344010353088,-0.026791593059897423,-0.055608250200748444,0.017799707129597664
650.0,0.0,0.0,0.0,0.0,0.0,0.0,-0.01710679568350315,-0.003492159303277731,-0.013650145381689072,0.9980061054229736,-0.026256298646330833,-0.0544034019112587,0.01826765388250351
651.0,0.0,0.0,0.0,0.0,0.0,0.0,-0.02104070410132408,0.0036810003221035004,-0.005048608873039484,0.9980681538581848,-0.025554347783327103,-0.05347597971558571,0.01861662231385708
652.0,0.0,0.0,0.0,0.0,0.0,0.0,-0.020593611523509026,0.007709622848778963,-0.002342754043638706,0.998110830783844,-0.02452443353831768,-0.05275620520114899,0.019720343872904778
653.0,0.0,0.0,0.0,0.0,0.0,0.0,-0.01598583348095417,0.01833416521549225,-0.010247084312140942,0.9981388449668884,-0.02306102029979229,-0.052605271339416504,0.020447829738259315
654.0,0.0,0.0,0.0,0.0,0.0,0.0,-0.01818937622010708,0.018390484154224396,-0.00365785276517272,0.9981433153152466,-0.02164583094418049,-0.05296766012907028,0.02084420807659626
655.0,0.0,0.0,0.0,0.0,0.0,0.0,-0.023279720917344093,0.021093567833304405,-0.0024541637394577265,0.9981389045715332,-0.02032097801566124,-0.053161926567554474,0.021848902106285095
656.0,0.0,0.0,0.0,0.0,0.0,0.0,-0.03469923511147499,0.028345739468932152,0.002083320403471589,0.9981103539466858,-0.019020801410079002,-0.05398781970143318,0.022330570966005325
657.0,0.0,0.0,0.0,0.0,0.0,0.0,-0.045574236661195755,0.03219626098871231,0.009375669993460178,0.9981464147567749,-0.01894024945795536,-0.05357499420642853,0.021761782467365265
658.0,0.0,0.0,0.0,0.0,0.0,0.0,-0.06067275628447533,0.04138019308447838,0.017299359664320946,0.998201310634613,-0.018962755799293518,-0.05262450873851776,0.021509481593966484
659.0,0.0,0.0,0.0,0.0,0.0,0.0,-0.07553784549236298,0.04784201458096504,0.02794768661260605,0.9981977939605713,-0.017997801303863525,-0.05271465331315994,0.022335290908813477
660.0,0.0,0.0,0.0,0.0,0.0,0.0,-0.06741847842931747,0.041987981647253036,0.03038763254880905,0.9982404708862305,-0.01762973889708519,-0.05171128362417221,0.02300221659243107
661.0,0.0,0.0,0.0,0.0,0.0,0.0,-0.05333268269896507,0.03310273215174675,0.02233247086405754,0.9982733726501465,-0.017059380188584328,-0.05094703659415245,0.023714346811175346
662.0,0.0,0.0,0.0,0.0,0.0,0.0,-0.033953409641981125,0.015983641147613525,0.017197413370013237,0.9983476996421814,-0.016448603942990303,-0.04957126826047897,0.023976251482963562
663.0,0.0,0.0,0.0,0.0,0.0,0.0,-0.008917544968426228,0.006095023825764656,0.003393853548914194,0.9984714984893799,-0.01667560078203678,-0.04719509556889534,0.023417359218001366
664.0,0.0,0.0,0.0,0.0,0.0,0.0,0.015077097341418266,0.016357997432351112,-0.0065599363297224045,0.9985353350639343,-0.015381977893412113,-0.047027602791786194,0.02185247279703617
665.0,0.0,0.0,0.0,0.0,0.0,0.0,0.010864128358662128,0.030239908024668694,-0.01721901260316372,0.9986910223960876,-0.008886375464498997,-0.0488399937748909,0.012327780947089195
666.0,0.0,0.0,0.0,0.0,0.0,0.0,0.0034293748904019594,-0.0863175094127655,-0.04446403309702873,0.9987612366676331,-0.007799826562404633,-0.048946067690849304,0.004316095728427172
667.0,0.0,0.0,0.0,0.0,0.0,0.0,0.00764353247359395,-0.13317228853702545,0.01470766868442297,0.9987414479255676,-0.013614035211503506,-0.04799223318696022,0.0051023345440626144
668.0,0.0,0.0,0.0,0.0,0.0,0.0,0.005266511347144842,-0.06349295377731323,0.004622145090252161,0.9985254406929016,-0.019998952746391296,-0.04917732998728752,0.011338470503687859
669.0,0.0,0.0,0.0,0.0,0.0,0.0,0.004605284426361322,0.00508996332064271,-0.017832506448030472,0.9982265830039978,-0.023867158219218254,-0.05205826088786125,0.01623137667775154
670.0,0.0,0.0,0.0,0.0,0.0,0.0,0.001767821260727942,-0.023676639422774315,0.002881435677409172,0.9981052875518799,-0.026917699724435806,-0.05258546769618988,0.017215680330991745
671.0,0.0,0.0,0.0,0.0,0.0,0.0,0.00013255237718112767,-0.034131888300180435,0.011391016654670238,0.9980573654174805,-0.02985682152211666,-0.05176277086138725,0.017582964152097702
672.0,0.0,0.0,0.0,0.0,0.0,0.0,0.010137355886399746,-0.03527578338980675,-0.0010065259411931038,0.9981425404548645,-0.02969207614660263,-0.05012020096182823,0.017795752733945847
673.0,0.0,0.0,0.0,0.0,0.0,0.0,0.012219167314469814,-0.030790312215685844,0.011820625513792038,0.9981545805931091,-0.030627483502030373,-0.049316130578517914,0.01780928485095501
674.0,0.0,0.0,0.0,0.0,0.0,0.0,0.019190920516848564,-0.015320701524615288,0.010531849227845669,0.9982489943504333,-0.0290683526545763,-0.049162786453962326,0.01537313498556614
675.0,0.0,0.0,0.0,0.0,0.0,0.0,0.010984904132783413,0.03337681293487549,0.003857274539768696,0.9984812140464783,-0.02206192910671234,-0.05001756548881531,0.006836558226495981
676.0,0.0,0.0,0.0,0.0,0.0,0.0,-0.016246050596237183,-0.06336801499128342,-0.014640037901699543,0.9986206889152527,-0.018792374059557915,-0.04901409521698952,0.0009430003701709211
677.0,0.0,0.0,0.0,0.0,0.0,0.0,-0.014053757302463055,-0.14121581614017487,0.08556107431650162,0.9986893534660339,-0.021251853555440903,-0.04646630957722664,0.00297220959328115
678.0,0.0,0.0,0.0,0.0,0.0,0.0,-0.023985013365745544,-0.06545725464820862,0.0912679135799408,0.9986059665679932,-0.022723078727722168,-0.04558786749839783,0.01379803940653801
679.0,0.0,0.0,0.0,0.0,0.0,0.0,-0.034344084560871124,0.06136541813611984,0.06374629586935043,0.9984707236289978,-0.021228142082691193,-0.044444210827350616,0.02509857714176178
680.0,0.0,0.0,0.0,0.0,0.0,0.0,-0.01120332907885313,0.028698598966002464,0.07260143011808395,0.9985451102256775,-0.01777748204767704,-0.03938261419534683,0.03225461021065712
681.0,0.0,0.0,0.0,0.0,0.0,0.0,0.036833468824625015,-0.021202459931373596,0.010166645050048828,0.9985908269882202,-0.014798004180192947,-0.03342163935303688,0.038466960191726685
682.0,0.0,0.0,0.0,0.0,0.0,0.0,0.06129869818687439,-0.034219834953546524,-0.04066018760204315,0.9986338019371033,-0.012337299063801765,-0.028245482593774796,0.04218301549553871
683.0,0.0,0.0,0.0,0.0,0.0,0.0,0.044347282499074936,-0.02822757139801979,-0.022923657670617104,0.9986572265625,-0.00931304506957531,-0.02474742755293846,0.044544510543346405
684.0,0.0,0.0,0.0,0.0,0.0,0.0,0.042322106659412384,-0.027126172557473183,-0.032456789165735245,0.9986603260040283,-0.005990755744278431,-0.022135373204946518,0.046393983066082
685.0,0.0,0.0,0.0,0.0,0.0,0.0,0.038121964782476425,-0.018185360357165337,-0.03505066782236099,0.998769998550415,-0.002059975638985634,-0.0201107244938612,0.0452713705599308
686.0,0.0,0.0,0.0,0.0,0.0,0.0,0.009560175240039825,-0.0043500447645783424,0.016005396842956543,0.9989099502563477,0.002468598773702979,-0.01941337250173092,0.04237380996346474
687.0,0.0,0.0,0.0,0.0,0.0,0.0,0.00037818323471583426,-0.002393152331933379,0.006538294721394777,0.998973548412323,0.006794886197894812,-0.018256301060318947,0.040890421718358994
688.0,0.0,0.0,0.0,0.0,0.0,0.0,0.024968868121504784,-0.021755458787083626,-0.030815819278359413,0.9990332126617432,0.009862158447504044,-0.014593243598937988,0.04028020799160004
689.0,0.0,0.0,0.0,0.0,0.0,0.0,0.036106862127780914,-0.04085465893149376,-0.028644980862736702,0.9991292953491211,0.010862219147384167,-0.011204851791262627,0.03869102522730827
690.0,0.0,0.0,0.0,0.0,0.0,0.0,0.04154769331216812,-0.048312462866306305,-0.012444859370589256,0.9992762207984924,0.010474782437086105,-0.009411459788680077,0.035335808992385864
691.0,0.0,0.0,0.0,0.0,0.0,0.0,0.022280225530266762,-0.04033840075135231,-0.0015456448309123516,0.9993311166763306,0.00994118768721819,-0.010034489445388317,0.03373377397656441
692.0,0.0,0.0,0.0,0.0,0.0,0.0,0.031017983332276344,-0.03839176893234253,-0.003409476252272725,0.9994506239891052,0.008641929365694523,-0.010175995528697968,0.030338121578097343
693.0,0.0,0.0,0.0,0.0,0.0,0.0,0.03567139804363251,-0.052124667912721634,-0.034506380558013916,0.9995689392089844,0.005566794890910387,-0.010554715059697628,0.026818156242370605
694.0,0.0,0.0,0.0,0.0,0.0,0.0,0.01969335786998272,-0.022685067728161812,0.017874447628855705,0.9995617866516113,0.005157800391316414,-0.014550539664924145,0.02525692991912365
695.0,0.0,0.0,0.0,0.0,0.0,0.0,0.012162985280156136,-0.028707187622785568,0.01384982094168663,0.9995530247688293,0.006109214853495359,-0.017651701346039772,0.023340024054050446
696.0,0.0,0.0,0.0,0.0,0.0,0.0,0.028464892879128456,-0.049947891384363174,0.012387968599796295,0.9995766878128052,0.005911087151616812,-0.018367566168308258,0.021768419072031975
697.0,0.0,0.0,0.0,0.0,0.0,0.0,0.04474357143044472,-0.055408377200365067,-0.032038941979408264,0.9995968341827393,0.004567299038171768,-0.01832781918346882,0.02119254693388939
698.0,0.0,0.0,0.0,0.0,0.0,0.0,0.040878452360630035,-0.04270721226930618,-0.01384095661342144,0.9995695352554321,0.0028233351185917854,-0.019178850576281548,0.022019486874341965
699.0,0.0,0.0,0.0,0.0,0.0,0.0,0.031118035316467285,-0.022675637155771255,0.011583906598389149,0.9994974732398987,0.0010223344434052706,-0.01994560845196247,0.02461971528828144
700.0,0.0,0.0,0.0,0.0,0.0,0.0,0.038028571754693985,-0.017957713454961777,0.0017566740280017257,0.9994627237319946,-0.0012637575855478644,-0.019856007769703865,0.0260462686419487
701.0,0.0,0.0,0.0,0.0,0.0,0.0,0.030318303033709526,-0.013371133245527744,0.013232407160103321,0.9994925260543823,-0.0035109519958496094,-0.0192676093429327,0.02511463314294815
702.0,0.0,0.0,0.0,0.0,0.0,0.0,0.031773630529642105,-0.009833947755396366,0.0009891345398500562,0.9995113015174866,-0.003356092842295766,-0.020019225776195526,0.023772241547703743
703.0,0.0,0.0,0.0,0.0,0.0,0.0,0.05084416642785072,-0.014803322032094002,-0.022239673882722855,0.9995064735412598,-0.002398851327598095,-0.022074976935982704,0.022224625572562218
704.0,0.0,0.0,0.0,0.0,0.0,0.0,0.0433109812438488,-0.016492903232574463,-0.011682950891554356,0.9995151162147522,-0.0017750227125361562,-0.024356184527277946,0.01932261884212494
705.0,0.0,0.0,0.0,0.0,0.0,0.0,0.03341314569115639,-0.01210290938615799,0.012170744128525257,0.9995508193969727,-0.0002527864126022905,-0.02560877986252308,0.015564529225230217
706.0,0.0,0.0,0.0,0.0,0.0,0.0,0.03837982192635536,-0.014037189073860645,0.005901756696403027,0.9995618462562561,0.0018955058185383677,-0.026916490867733955,0.012154830619692802
707.0,0.0,0.0,0.0,0.0,0.0,0.0,0.03892339766025543,-0.018794650211930275,-0.018187755718827248,0.9995236992835999,0.003678274806588888,-0.029097411781549454,0.009621101431548595
708.0,0.0,0.0,0.0,0.0,0.0,0.0,0.034835778176784515,-0.02024286612868309,-0.011910567991435528,0.9994639158248901,0.0043320138938724995,-0.03160850703716278,0.007353762164711952
709.0,0.0,0.0,0.0,0.0,0.0,0.0,0.03127698227763176,-0.017817135900259018,-0.008420249447226524,0.9994272589683533,0.0034697181545197964,-0.03312833607196808,0.005991914309561253
710.0,0.0,0.0,0.0,0.0,0.0,0.0,0.025216782465577126,-0.01060506422072649,-0.001714282319881022,0.999338686466217,0.0025947396643459797,-0.03589033707976341,0.005206671077758074
711.0,0.0,0.0,0.0,0.0,0.0,0.0,0.02299642190337181,-0.006649570539593697,0.0001310986262978986,0.9992252588272095,0.0017354839947074652,-0.039017628878355026,0.004861108027398586
712.0,0.0,0.0,0.0,0.0,0.0,0.0,0.01938035897910595,-0.01200232096016407,0.0007952887681312859,0.9991782307624817,-0.00034790203790180385,-0.04040096327662468,0.0032683396711945534
713.0,0.0,0.0,0.0,0.0,0.0,0.0,0.013248883187770844,-0.009800220839679241,0.0036043080035597086,0.9991627335548401,-0.001810732064768672,-0.040826354175806046,0.001979219261556864
714.0,0.0,0.0,0.0,0.0,0.0,0.0,0.02143467776477337,-0.015111044980585575,0.005376108456403017,0.9991187453269958,-0.001625357079319656,-0.0419166274368763,0.0014508605236187577
715.0,0.0,0.0,0.0,0.0,0.0,0.0,0.024346964433789253,-0.019468579441308975,-0.01904570311307907,0.9990519881248474,-0.0017702588811516762,-0.04349006712436676,0.000769994396250695
716.0,0.0,0.0,0.0,0.0,0.0,0.0,0.02137349173426628,-0.015806058421730995,-0.005991704296320677,0.9990321397781372,-0.002616827841848135,-0.043903712183237076,-0.0005142379086464643
717.0,0.0,0.0,0.0,0.0,0.0,0.0,0.01415911316871643,-0.02297735959291458,0.007736007682979107,0.9990370273590088,-0.0040626912377774715,-0.0436851792037487,-0.00041260465513914824
718.0,0.0,0.0,0.0,0.0,0.0,0.0,0.016696814447641373,-0.015131961554288864,-0.010011931881308556,0.9990049004554749,-0.00475103035569191,-0.04434504732489586,-0.00033197045559063554
719.0,0.0,0.0,0.0,0.0,0.0,0.0,0.007507949601858854,-0.017154550179839134,0.01905222050845623,0.9989924430847168,-0.004464450757950544,-0.044650912284851074,-0.00062447355594486
720.0,0.0,0.0,0.0,0.0,0.0,0.0,0.014504456892609596,-0.021319055929780006,0.011986218392848969,0.9989951848983765,-0.0032357233576476574,-0.04468688368797302,-0.0010371245443820953
721.0,0.0,0.0,0.0,0.0,0.0,0.0,0.01325193140655756,-0.021977152675390244,0.00893358513712883,0.9990256428718567,-0.002277013845741749,-0.04402058944106102,-0.0021539258304983377
722.0,0.0,0.0,0.0,0.0,0.0,0.0,0.007275189273059368,-0.02089621126651764,0.01903737522661686,0.9990494847297668,-0.001893319538794458,-0.0434977263212204,-0.0021180016919970512
723.0,0.0,0.0,0.0,0.0,0.0,0.0,0.006583188660442829,-0.014944775030016899,0.005574033595621586,0.9991028308868408,-0.0012314394116401672,-0.04232143610715866,-0.0009312533074989915
724.0,0.0,0.0,0.0,0.0,0.0,0.0,0.016802795231342316,-0.021225759759545326,0.012828942388296127,0.9991762042045593,-5.186917042010464e-05,-0.040577858686447144,-0.0007129869190976024
725.0,0.0,0.0,0.0,0.0,0.0,0.0,0.011511668562889099,-0.023199455812573433,0.01142833661288023,0.9991946220397949,0.0012196010211482644,-0.040103811770677567,-0.00021674208983313292
726.0,0.0,0.0,0.0,0.0,0.0,0.0,0.007589190732687712,-0.01844070851802826,0.007420784793794155,0.999218761920929,0.0021463229786604643,-0.039461031556129456,0.0003903301549144089
727.0,0.0,0.0,0.0,0.0,0.0,0.0,0.0031639288645237684,-0.010676802136003971,0.001718554412946105,0.9992433190345764,0.002787014003843069,-0.03877931460738182,0.0010232721688225865
728.0,0.0,0.0,0.0,0.0,0.0,0.0,0.001339566777460277,-0.008009866811335087,0.011208065785467625,0.999260425567627,0.0037152341101318598,-0.03822869807481766,0.001884522964246571
729.0,0.0,0.0,0.0,0.0,0.0,0.0,0.009222582913935184,-0.01129820290952921,-0.00833055004477501,0.999314546585083,0.004208661150187254,-0.0367065966129303,0.0023364941589534283
730.0,0.0,0.0,0.0,0.0,0.0,0.0,0.006274121813476086,-0.013429619371891022,-0.006878508720546961,0.9993628859519958,0.004296319093555212,-0.03538139536976814,0.001860239077359438
731.0,0.0,0.0,0.0,0.0,0.0,0.0,0.009882607497274876,-0.019588714465498924,-0.002213168190792203,0.9994298219680786,0.0038557315710932016,-0.033482104539871216,0.001915880013257265
732.0,0.0,0.0,0.0,0.0,0.0,0.0,0.0044333599507808685,-0.00999291893094778,-0.0010167815489694476,0.9994128346443176,0.00464196503162384,-0.033768124878406525,0.0034779326524585485
733.0,0.0,0.0,0.0,0.0,0.0,0.0,0.006785307079553604,-0.011699159629642963,0.001356071443296969,0.9994218349456787,0.004443347454071045,-0.03350754827260971,0.003653670195490122
734.0,0.0,0.0,0.0,0.0,0.0,0.0,-9.526772191748023e-05,-0.009123316034674644,0.003125063143670559,0.9994631409645081,0.0033484536688774824,-0.03241528570652008,0.0034059430472552776
735.0,0.0,0.0,0.0,0.0,0.0,0.0,-0.0033219654578715563,-0.008873479440808296,0.011899664998054504,0.9994428753852844,0.0028579668141901493,-0.03287012502551079,0.005046931095421314
736.0,0.0,0.0,0.0,0.0,0.0,0.0,0.002640561666339636,-0.01174432598054409,0.008792678825557232,0.9994388818740845,0.0022618379443883896,-0.03286802023649216,0.006016833707690239
737.0,0.0,0.0,0.0,0.0,0.0,0.0,-0.001296981587074697,-0.010572372935712337,0.013425905257463455,0.999481201171875,0.0011216900311410427,-0.031599998474121094,0.00613762391731143
738.0,0.0,0.0,0.0,0.0,0.0,0.0,-0.0023845075629651546,-0.012440032325685024,0.0026142671704292297,0.9994616508483887,0.00023417951888404787,-0.03199835866689682,0.007219631224870682
739.0,0.0,0.0,0.0,0.0,0.0,0.0,0.0007532978197559714,-0.02126789093017578,0.0074145118705928326,0.9994055032730103,0.00018172565614804626,-0.033470213413238525,0.008253506384789944
740.0,0.0,0.0,0.0,0.0,0.0,0.0,0.0030007902532815933,-0.021124929189682007,-0.0023186018224805593,0.9994022846221924,-0.0006383294239640236,-0.03361751139163971,0.008031412959098816
741.0,0.0,0.0,0.0,0.0,0.0,0.0,0.0015476439148187637,-0.017874879762530327,0.01333263237029314,0.9994374513626099,-0.002263150177896023,-0.03256550431251526,0.007685083895921707
742.0,0.0,0.0,0.0,0.0,0.0,0.0,0.004821098875254393,-0.021810058504343033,-0.0007658630493097007,0.9994353652000427,-0.003312238259240985,-0.0328405536711216,0.006282762624323368
743.0,0.0,0.0,0.0,0.0,0.0,0.0,0.003326862119138241,-0.02483905665576458,-0.005675795022398233,0.9993820190429688,-0.003559710457921028,-0.034484829753637314,0.005787338595837355
744.0,0.0,0.0,0.0,0.0,0.0,0.0,-0.00046710539027117193,-0.022457778453826904,0.012233939953148365,0.9993569850921631,-0.004456857219338417,-0.03513728454709053,0.005567383021116257
745.0,0.0,0.0,0.0,0.0,0.0,0.0,0.0005285054794512689,-0.01727937161922455,-0.00046587514225393534,0.9993523359298706,-0.005945480894297361,-0.03504431992769241,0.005570531822741032
746.0,0.0,0.0,0.0,0.0,0.0,0.0,0.0002844172122422606,-0.013736017048358917,0.0024249341804534197,0.9992944002151489,-0.006357919424772263,-0.03653303161263466,0.005990085657685995
747.0,0.0,0.0,0.0,0.0,0.0,0.0,-0.0006414538365788758,-0.01708337850868702,0.008782965131103992,0.9992607831954956,-0.007011834532022476,-0.03722098469734192,0.006557589862495661
748.0,0.0,0.0,0.0,0.0,0.0,0.0,0.0012061501620337367,-0.016463419422507286,0.008881550282239914,0.9992482662200928,-0.008138183504343033,-0.037375304847955704,0.0062719411216676235
749.0,0.0,0.0,0.0,0.0,0.0,0.0,0.0007937715272419155,-0.01776707172393799,0.009214182384312153,0.9992018342018127,-0.008284682407975197,-0.03854891657829285,0.006413159891963005
750.0,0.0,0.0,0.0,0.0,0.0,0.0,-0.0005529139307327569,-0.021567393094301224,0.009693918749690056,0.9991721510887146,-0.008575523272156715,-0.039203569293022156,0.006682445295155048
751.0,0.0,0.0,0.0,0.0,0.0,0.0,0.0018315096385776997,-0.017307886853814125,0.006607959978282452,0.9991706013679504,-0.008987262845039368,-0.03925606235861778,0.006033653859049082
752.0,0.0,0.0,0.0,0.0,0.0,0.0,0.0010323466267436743,-0.016272174194455147,0.014616910368204117,0.9991887807846069,-0.009493858553469181,-0.03871568664908409,0.005734432954341173
753.0,0.0,0.0,0.0,0.0,0.0,0.0,0.0036009291652590036,-0.01695989817380905,0.004032143857330084,0.999176025390625,-0.009744802489876747,-0.038827866315841675,0.006659067701548338
754.0,0.0,0.0,0.0,0.0,0.0,0.0,0.004758881870657206,-0.007962717674672604,0.004976198077201843,0.9991878867149353,-0.009642424061894417,-0.03851983696222305,0.006817324552685022
755.0,0.0,0.0,0.0,0.0,0.0,0.0,0.00046443071914836764,-0.006736115552484989,0.01868278905749321,0.9992448687553406,-0.009743278846144676,-0.03701264038681984,0.006654573604464531
756.0,0.0,0.0,0.0,0.0,0.0,0.0,0.006487230304628611,-0.005794816184788942,0.014586910605430603,0.9992663264274597,-0.008804013021290302,-0.03658074513077736,0.007168100215494633
757.0,0.0,0.0,0.0,0.0,0.0,0.0,0.00591033510863781,-0.0044281696900725365,0.016965121030807495,0.999257504940033,-0.007137645967304707,-0.03701956942677498,0.007912483997642994
758.0,0.0,0.0,0.0,0.0,0.0,0.0,0.005613112356513739,-0.006346139591187239,0.023853443562984467,0.9992454051971436,-0.00477126520127058,-0.037532106041908264,0.008773854933679104
759.0,0.0,0.0,0.0,0.0,0.0,0.0,0.01087398361414671,-0.009011603891849518,0.012016314081847668,0.9992033243179321,-0.0021877249237149954,-0.038524527102708817,0.010188627988100052
760.0,0.0,0.0,0.0,0.0,0.0,0.0,0.01118969265371561,-0.004943076521158218,0.012168964371085167,0.9991878271102905,0.0003116509469691664,-0.038858745247125626,0.010654311627149582
761.0,0.0,0.0,0.0,0.0,0.0,0.0,0.016261961311101913,-0.01089063473045826,-0.004662432707846165,0.9991520047187805,0.0029487621504813433,-0.03967338055372238,0.01062224991619587
762.0,0.0,0.0,0.0,0.0,0.0,0.0,0.021204691380262375,-0.015913425013422966,-0.00913893710821867,0.9991625547409058,0.004614061675965786,-0.039508748799562454,0.009575403295457363
763.0,0.0,0.0,0.0,0.0,0.0,0.0,0.02065429277718067,-0.017908412963151932,-0.006311715114861727,0.9991728663444519,0.005666423588991165,-0.039445944130420685,0.008082146756350994
764.0,0.0,0.0,0.0,0.0,0.0,0.0,0.017072763293981552,-0.014032316394150257,0.005412596743553877,0.9991575479507446,0.00697534391656518,-0.039671335369348526,0.007860551588237286
765.0,0.0,0.0,0.0,0.0,0.0,0.0,0.017908766865730286,-0.011449000798165798,-0.009609180502593517,0.9991562366485596,0.007850656285881996,-0.03944229707121849,0.008332674391567707
766.0,0.0,0.0,0.0,0.0,0.0,0.0,0.01958583854138851,-0.019762197509407997,0.0037388685159385204,0.9991504549980164,0.008275738917291164,-0.03935771808028221,0.00898823607712984
767.0,0.0,0.0,0.0,0.0,0.0,0.0,0.027190616354346275,-0.02270539663732052,-0.008158243261277676,0.9992383122444153,0.0073526399210095406,-0.03731235861778259,0.008739965036511421
768.0,0.0,0.0,0.0,0.0,0.0,0.0,0.02866355888545513,-0.01441190391778946,-0.00823883805423975,0.9993321299552917,0.006268644239753485,-0.03516893461346626,0.007706222124397755
769.0,0.0,0.0,0.0,0.0,0.0,0.0,0.027166886255145073,-0.025110473856329918,-0.0006209874991327524,0.999366283416748,0.005757773295044899,-0.034359902143478394,0.007287699729204178
770.0,0.0,0.0,0.0,0.0,0.0,0.0,0.034172169864177704,-0.02081824280321598,-0.007620498072355986,0.9994356036186218,0.004672474227845669,-0.032781876623630524,0.005659047514200211
771.0,0.0,0.0,0.0,0.0,0.0,0.0,0.03469526767730713,-0.017470842227339745,-0.011566112749278545,0.9995000958442688,0.0032841558568179607,-0.031143736094236374,0.0043536098673939705
772.0,0.0,0.0,0.0,0.0,0.0,0.0,0.03469955176115036,-0.01596422865986824,-0.00798105075955391,0.9994818568229675,0.002891450421884656,-0.031717173755168915,0.004648877773433924
773.0,0.0,0.0,0.0,0.0,0.0,0.0,0.02522892691195011,-0.012521411292254925,0.006265830248594284,0.9994598627090454,0.0025984751991927624,-0.03241679072380066,0.004718881566077471
774.0,0.0,0.0,0.0,0.0,0.0,0.0,0.026999223977327347,-0.01739913783967495,-0.00098004553001374,0.9994078874588013,0.0030101200100034475,-0.0339837372303009,0.004463035613298416
775.0,0.0,0.0,0.0,0.0,0.0,0.0,0.023082928732037544,-0.013312267139554024,-0.008914141915738583,0.999320924282074,0.004185719881206751,-0.03638337552547455,0.004043461289256811
776.0,0.0,0.0,0.0,0.0,0.0,0.0,0.02148473635315895,-0.012150459922850132,-0.008194513618946075,0.9992703795433044,0.004811516031622887,-0.037684038281440735,0.003957805689424276
777.0,0.0,0.0,0.0,0.0,0.0,0.0,0.023504195734858513,-0.012390141375362873,-0.017194485291838646,0.999267578125,0.004623637069016695,-0.03781157359480858,0.003646598430350423
778.0,0.0,0.0,0.0,0.0,0.0,0.0,0.027797460556030273,-0.012096877209842205,-0.021798796951770782,0.9992752075195312,0.003736811922863126,-0.037816572934389114,0.0022711502388119698
779.0,0.0,0.0,0.0,0.0,0.0,0.0,0.02091977372765541,-0.012610441073775291,-0.014825676567852497,0.999250590801239,0.0027934617828577757,-0.03858548775315285,0.0012448643101379275
780.0,0.0,0.0,0.0,0.0,0.0,0.0,0.005517319310456514,-0.005784166976809502,0.007945412769913673,0.9992324709892273,0.001384390634484589,-0.0391339510679245,0.0009980561444535851
781.0,0.0,0.0,0.0,0.0,0.0,0.0,0.0038397309836000204,-0.005378450732678175,0.004542157053947449,0.9992499351501465,-0.000386715866625309,-0.03869520500302315,0.0014357377076521516
782.0,0.0,0.0,0.0,0.0,0.0,0.0,0.009645423851907253,-0.014904579147696495,-0.0038884792011231184,0.9992380142211914,-0.0016305366298183799,-0.03894554451107979,0.0019659113604575396
783.0,0.0,0.0,0.0,0.0,0.0,0.0,0.003745999885722995,-0.013344824314117432,0.01095652487128973,0.9992379546165466,-0.002723454963415861,-0.03887702152132988,0.002160644391551614
784.0,0.0,0.0,0.0,0.0,0.0,0.0,-0.008712176233530045,-0.004284182097762823,0.03442524001002312,0.9991900324821472,-0.003152834950014949,-0.04000767692923546,0.0029131548944860697
785.0,0.0,0.0,0.0,0.0,0.0,0.0,-0.014003635384142399,0.00037752394564449787,0.024900566786527634,0.9991261959075928,-0.002315158024430275,-0.04149571806192398,0.004446718841791153
786.0,0.0,0.0,0.0,0.0,0.0,0.0,-0.011670263484120369,-0.006474656984210014,0.028797587379813194,0.999093234539032,-0.0011094732908532023,-0.04233308136463165,0.004384398460388184
787.0,0.0,0.0,0.0,0.0,0.0,0.0,-0.01046394556760788,-0.007047431543469429,0.02922772616147995,0.9990847706794739,0.00017671626119408756,-0.0425812304019928,0.004048164468258619
788.0,0.0,0.0,0.0,0.0,0.0,0.0,-0.006229720544070005,-0.005948647391051054,0.017973503097891808,0.9991117119789124,0.0012476795818656683,-0.04188926890492439,0.004422588739544153
789.0,0.0,0.0,0.0,0.0,0.0,0.0,-0.0010926008690148592,-0.008902149274945259,0.0037445425987243652,0.999137818813324,0.0019913010764867067,-0.04130331426858902,0.0037059797905385494
790.0,0.0,0.0,0.0,0.0,0.0,0.0,-0.006282968446612358,-0.011974350549280643,0.008012965321540833,0.9991287589073181,0.003198629477992654,-0.04146585240960121,0.003463796339929104
791.0,0.0,0.0,0.0,0.0,0.0,0.0,-0.007549599278718233,-0.012982186861336231,0.007130028214305639,0.9991143345832825,0.004529126919806004,-0.041679784655570984,0.0034973155707120895
792.0,0.0,0.0,0.0,0.0,0.0,0.0,-0.007493050768971443,-0.011256136931478977,-0.006825278513133526,0.9991357326507568,0.004908204544335604,-0.041165150701999664,0.0029958162922412157
793.0,0.0,0.0,0.0,0.0,0.0,0.0,-0.009774263016879559,-0.0038158202078193426,0.000566238712053746,0.9991814494132996,0.004922286607325077,-0.040071405470371246,0.0025301293935626745
794.0,0.0,0.0,0.0,0.0,0.0,0.0,-0.01327133271843195,-0.004475266207009554,0.004515220411121845,0.9992186427116394,0.005236992612481117,-0.0390634760260582,0.002861851593479514
795.0,0.0,0.0,0.0,0.0,0.0,0.0,-0.008332941681146622,-0.0072674923576414585,0.005875230301171541,0.9993087649345398,0.0043366397731006145,-0.036793872714042664,0.0030651309061795473
796.0,0.0,0.0,0.0,0.0,0.0,0.0,-0.0024958609137684107,-0.0010207606246694922,-0.007369278464466333,0.9993721842765808,0.0031994555611163378,-0.0351320281624794,0.0032915729098021984
797.0,0.0,0.0,0.0,0.0,0.0,0.0,-0.00692907627671957,-0.004856375977396965,-0.001390847028233111,0.999402642250061,0.002410545479506254,-0.03424159064888954,0.00396669190376997
798.0,0.0,0.0,0.0,0.0,0.0,0.0,-0.007296267431229353,-0.004393609240651131,0.0029711283277720213,0.9994054436683655,0.0022690212354063988,-0.03397752344608307,0.005400686990469694
799.0,0.0,0.0,0.0,0.0,0.0,0.0,-0.003025545971468091,-0.003797016339376569,0.005031348671764135,0.9994109869003296,0.0025972810108214617,-0.03349980339407921,0.007022482343018055
800.0,0.0,0.0,0.0,0.0,0.0,0.0,-0.0031079610344022512,-0.004309374373406172,0.002105238614603877,0.999411404132843,0.0031262217089533806,-0.03315642476081848,0.008195629343390465
801.0,0.0,0.0,0.0,0.0,0.0,0.0,-0.0005793619202449918,-0.005157663952559233,3.399405613890849e-05,0.999402642250061,0.004050837364047766,-0.033044394105672836,0.009265485219657421
802.0,0.0,0.0,0.0,0.0,0.0,0.0,-0.0015883281594142318,-0.011689025908708572,-0.002930711256340146,0.9993695616722107,0.004891571588814259,-0.03310384973883629,0.01185799203813076
803.0,0.0,0.0,0.0,0.0,0.0,0.0,0.0029650218784809113,0.0116056427359581,-0.003479530569165945,0.9992830157279968,0.00606954051181674,-0.03380485624074936,0.01594330184161663
804.0,0.0,0.0,0.0,0.0,0.0,0.0,0.006507599260658026,0.012747758999466896,-0.013312943279743195,0.9992303252220154,0.007566176820546389,-0.034070778638124466,0.01790059730410576
805.0,0.0,0.0,0.0,0.0,0.0,0.0,0.000503810471855104,-0.006347943097352982,-0.011357427574694157,0.9991822838783264,0.008798867464065552,-0.03436892852187157,0.019407089799642563
806.0,0.0,0.0,0.0,0.0,0.0,0.0,0.0035328916274011135,-0.0015571918338537216,-0.01413545198738575,0.9991500377655029,0.009615750052034855,-0.034223202615976334,0.02087816409766674
807.0,0.0,0.0,0.0,0.0,0.0,0.0,0.0031409424263983965,-0.0029187253676354885,-0.011134136468172073,0.999067485332489,0.011169693432748318,-0.03484935685992241,0.022905422374606133
808.0,0.0,0.0,0.0,0.0,0.0,0.0,0.001087940065190196,4.5931647036923096e-05,-0.010203721933066845,0.9990264177322388,0.011923212558031082,-0.0347176194190979,0.024475639685988426
809.0,0.0,0.0,0.0,0.0,0.0,0.0,-0.005094309337437153,0.015304786153137684,-0.012190701439976692,0.9990261793136597,0.01242071483284235,-0.03369694575667381,0.02564200572669506
810.0,0.0,0.0,0.0,0.0,0.0,0.0,-0.0025219302624464035,0.012045151554048061,-0.01318895909935236,0.9990206360816956,0.013638012111186981,-0.03273801878094673,0.026461372151970863
811.0,0.0,0.0,0.0,0.0,0.0,0.0,0.0008754848968237638,-0.0072769527323544025,-0.010007001459598541,0.9990128874778748,0.014584417454898357,-0.03211322799324989,0.027012646198272705
812.0,0.0,0.0,0.0,0.0,0.0,0.0,0.002244364470243454,-0.009653778746724129,-0.01064150221645832,0.998929500579834,0.015914272516965866,-0.03276129066944122,0.02851874940097332
813.0,0.0,0.0,0.0,0.0,0.0,0.0,-0.0027571578975766897,-0.004544055089354515,-0.005806623958051205,0.998848021030426,0.01758177950978279,-0.033541250973939896,0.029471533372998238
814.0,0.0,0.0,0.0,0.0,0.0,0.0,-0.003010169602930546,-0.0025609005242586136,0.0013453972060233355,0.9988577365875244,0.018982630223035812,-0.03275470435619354,0.02914981171488762
815.0,0.0,0.0,0.0,0.0,0.0,0.0,0.005804320331662893,-0.008161644451320171,-0.012926292605698109,0.9988946914672852,0.019435279071331024,-0.031839244067668915,0.02860094979405403
816.0,0.0,0.0,0.0,0.0,0.0,0.0,0.012756460346281528,-0.01873192936182022,-0.03865405172109604,0.9989171028137207,0.018636155873537064,-0.03189349174499512,0.028290437534451485
817.0,0.0,0.0,0.0,0.0,0.0,0.0,0.014149756170809269,-0.023551395162940025,-0.022004663944244385,0.9989317059516907,0.017590846866369247,-0.03270595520734787,0.02751000225543976
818.0,0.0,0.0,0.0,0.0,0.0,0.0,0.010595270432531834,-0.028158606961369514,-0.026103809475898743,0.9989321231842041,0.015991440042853355,-0.03409245237708092,0.026762235909700394
819.0,0.0,0.0,0.0,0.0,0.0,0.0,0.011694367043673992,-0.029975341632962227,-0.021333741024136543,0.9989921450614929,0.013443097472190857,-0.03429046645760536,0.025657126680016518
820.0,0.0,0.0,0.0,0.0,0.0,0.0,0.028597285971045494,-0.042538177222013474,-0.04040816053748131,0.9991092681884766,0.010772730223834515,-0.03410638868808746,0.022393951192498207
821.0,0.0,0.0,0.0,0.0,0.0,0.0,-0.0010381743777543306,-0.031890228390693665,0.01417604647576809,0.9991859793663025,0.00815835315734148,-0.0342734232544899,0.019642934203147888
822.0,0.0,0.0,0.0,0.0,0.0,0.0,-0.008627756498754025,-0.024201465770602226,0.02628629468381405,0.9991874098777771,0.005947065073996782,-0.03509894385933876,0.018893007189035416
823.0,0.0,0.0,0.0,0.0,0.0,0.0,-0.004600576125085354,-0.022621171548962593,0.01804114133119583,0.9991589784622192,0.003709816373884678,-0.036073729395866394,0.01913357339799404
824.0,0.0,0.0,0.0,0.0,0.0,0.0,-0.008549053221940994,-0.02020568773150444,0.04531698301434517,0.999147355556488,0.001949909026734531,-0.03625524044036865,0.019643520936369896
825.0,0.0,0.0,0.0,0.0,0.0,0.0,-0.007646249607205391,-0.015244165435433388,0.04996806010603905,0.9991002082824707,0.002126649022102356,-0.03706883266568184,0.020505188032984734
826.0,0.0,0.0,0.0,0.0,0.0,0.0,0.002290676347911358,-0.003919216338545084,0.03281911462545395,0.9990554451942444,0.0028009903617203236,-0.03758552670478821,0.02162235975265503
827.0,0.0,0.0,0.0,0.0,0.0,0.0,0.0052067795768380165,0.004093323368579149,0.025149192661046982,0.9990766644477844,0.003589375177398324,-0.036751244217157364,0.021959124132990837
828.0,0.0,0.0,0.0,0.0,0.0,0.0,0.0007297901320271194,0.01634584553539753,0.015571700409054756,0.999091386795044,0.005043805111199617,-0.03587142005562782,0.02244465984404087
829.0,0.0,0.0,0.0,0.0,0.0,0.0,-0.000989206600934267,0.015606744214892387,0.01234030444175005,0.9991119503974915,0.00614618556573987,-0.03463553637266159,0.023187749087810516
830.0,0.0,0.0,0.0,0.0,0.0,0.0,0.0012316694483160973,0.01481135655194521,0.013833124190568924,0.9991560578346252,0.00707021402195096,-0.033115070313215256,0.023250093683600426
831.0,0.0,0.0,0.0,0.0,0.0,0.0,-0.0028548191767185926,0.020144609734416008,0.010814499109983444,0.9992483854293823,0.007513766642659903,-0.03031078353524208,0.02295851707458496
832.0,0.0,0.0,0.0,0.0,0.0,0.0,-0.004844074137508869,0.02185886912047863,0.004627388436347246,0.9992920756340027,0.00801797490566969,-0.0280900988727808,0.02370592951774597
833.0,0.0,0.0,0.0,0.0,0.0,0.0,-0.0009090349194593728,0.015482678078114986,-0.003936442546546459,0.9992632269859314,0.009251749143004417,-0.027804752811789513,0.02478267252445221
834.0,0.0,0.0,0.0,0.0,0.0,0.0,-0.0043087066151201725,0.01023950893431902,0.005413990933448076,0.9992794990539551,0.010154438205063343,-0.026746490970253944,0.024925174191594124
835.0,0.0,0.0,0.0,0.0,0.0,0.0,-0.011661429889500141,0.012110577896237373,0.016649391502141953,0.9993099570274353,0.010599925182759762,-0.02484062872827053,0.02549021877348423
836.0,0.0,0.0,0.0,0.0,0.0,0.0,-0.013470862992107868,0.009018190205097198,0.015941081568598747,0.9992809295654297,0.01186571829020977,-0.024477435275912285,0.02641971968114376
837.0,0.0,0.0,0.0,0.0,0.0,0.0,-0.00804752204567194,0.0053990487940609455,0.0014350266428664327,0.9992462992668152,0.013490436598658562,-0.024241993203759193,0.027153661474585533
