,Position_X,Position_Y,Position_Z,Velocity_X,Velocity_Y,Velocity_Z,Acceleration_X,Acceleration_Y,Acceleration_Z,Quaterion_0,Quaterion_1,Quaterion_2,Quaterion_3
166.0,0.0,0.0,0.0,0.0,0.0,0.0,-0.018121827393770218,0.003918446600437164,-0.0011667655780911446,1.0,3.469446951953614e-18,1.3877787807814457e-17,2.407412430484045e-35
167.0,0.0,0.0,0.0,0.0,0.0,0.0,-0.01936783269047737,0.006428054999560118,-0.013871384784579277,0.9999961256980896,-4.606951188179664e-05,0.0026253326795995235,-0.0009300621459260583
168.0,0.0,0.0,0.0,0.0,0.0,0.0,-0.015702562406659126,0.005522811319679022,-0.025536874309182167,0.9999873638153076,0.0003134967410005629,0.00480933440849185,-0.001409413991495967
169.0,0.0,0.0,0.0,0.0,0.0,0.0,-0.0004786242498084903,-0.0015683089150115848,-0.07987131178379059,0.999983549118042,0.00022357824491336942,0.0057062203995883465,-0.0005242236657068133
170.0,0.0,0.0,0.0,0.0,0.0,0.0,0.010299518704414368,0.005257158074527979,-0.06036798283457756,0.99998539686203,0.00018939885194413364,0.005269860383123159,0.001189874717965722
171.0,0.0,0.0,0.0,0.0,0.0,0.0,0.0021724195685237646,0.00793091394007206,-0.01676362380385399,0.9999869465827942,0.0001161294276244007,0.004227922298014164,0.002862815046682954
172.0,0.0,0.0,0.0,0.0,0.0,0.0,-0.0042104339227080345,0.006079970858991146,0.022752689197659492,0.9999845027923584,0.00026141165290027857,0.003732447512447834,0.004127502907067537
173.0,0.0,0.0,0.0,0.0,0.0,0.0,-0.003635625122115016,0.006035247351974249,0.015359281562268734,0.999978244304657,0.00029260257724672556,0.004102644510567188,0.0051548657938838005
174.0,0.0,0.0,0.0,0.0,0.0,0.0,-0.0055394284427165985,0.0024677275214344263,-0.0006536425207741559,0.9999706745147705,0.00041803723433986306,0.004802693147212267,0.00594815518707037
175.0,0.0,0.0,0.0,0.0,0.0,0.0,9.098469308810309e-05,0.005547008011490107,-0.005672193598002195,0.9999616146087646,5.5576456361450255e-05,0.0056878807954490185,0.006667342036962509
176.0,0.0,0.0,0.0,0.0,0.0,0.0,0.003916813060641289,0.009516279213130474,-0.01037372462451458,0.9999527931213379,4.984744009561837e-05,0.00636829761788249,0.007337427232414484
177.0,0.0,0.0,0.0,0.0,0.0,0.0,0.006140897516161203,0.012756049633026123,-0.014370571821928024,0.9999414682388306,0.00020182676962576807,0.007040348835289478,0.008214211091399193
178.0,0.0,0.0,0.0,0.0,0.0,0.0,0.008466802537441254,0.0166998989880085,-0.014942925423383713,0.9999326467514038,0.00020113083883188665,0.007609917316585779,0.00876061711460352
179.0,0.0,0.0,0.0,0.0,0.0,0.0,0.009635945782065392,0.01758803240954876,-0.017425579950213432,0.999920666217804,0.0007193556521087885,0.008045303635299206,0.009668138809502125
180.0,0.0,0.0,0.0,0.0,0.0,0.0,0.007237593177706003,0.011459076777100563,-0.02419385313987732,0.9999120235443115,0.0009468726930208504,0.008126921020448208,0.010438671335577965
181.0,0.0,0.0,0.0,0.0,0.0,0.0,0.0033615606371313334,0.0021065310575067997,-0.03741317614912987,0.9999045133590698,0.0009872770169749856,0.00796747487038374,0.011248191818594933
182.0,0.0,0.0,0.0,0.0,0.0,0.0,0.005208637099713087,0.004125921055674553,-0.029586948454380035,0.9999013543128967,0.00015693012392148376,0.006918661296367645,0.012220473960042
183.0,0.0,0.0,0.0,0.0,0.0,0.0,0.010153407230973244,0.009737192653119564,-0.0036795507185161114,0.9999008178710938,-0.0005214122938923538,0.00527564762160182,0.01304573006927967
184.0,0.0,0.0,0.0,0.0,0.0,0.0,0.00927002727985382,0.01029807049781084,0.013749719597399235,0.9998964667320251,-0.0018222377402707934,0.0038354387506842613,0.013750672340393066
185.0,0.0,0.0,0.0,0.0,0.0,0.0,0.007973279803991318,0.009400451555848122,0.023304643109440804,0.9998913407325745,-0.003187276190146804,0.0024216766469180584,0.014186833053827286
186.0,0.0,0.0,0.0,0.0,0.0,0.0,0.006421207450330257,0.009032106958329678,0.017558623105287552,0.9998849034309387,-0.004401087295264006,0.0013346502091735601,0.01445713546127081
187.0,0.0,0.0,0.0,0.0,0.0,0.0,0.0025179251097142696,0.005881228018552065,0.011150488629937172,0.9998765587806702,-0.0051406379789114,0.00048827286809682846,0.014839684590697289
188.0,0.0,0.0,0.0,0.0,0.0,0.0,-0.002079225843772292,0.004179221112281084,0.007955058477818966,0.99986732006073,-0.005601758137345314,-0.0001133915939135477,0.015296081081032753
189.0,0.0,0.0,0.0,0.0,0.0,0.0,-0.004763736389577389,0.0034960461780428886,0.0023823215160518885,0.9998630285263062,-0.0058663454838097095,-0.00015018174599390477,0.015475930646061897
190.0,0.0,0.0,0.0,0.0,0.0,0.0,-0.005689939018338919,0.0026178890839219093,-0.0026207652408629656,0.9998651742935181,-0.006308439187705517,0.00010353162360843271,0.015161541290581226
191.0,0.0,0.0,0.0,0.0,0.0,0.0,-0.005712452810257673,0.001163761829957366,-0.008223547600209713,0.9998588562011719,-0.006015121005475521,-0.00010350223601562902,0.015686308965086937
192.0,0.0,0.0,0.0,0.0,0.0,0.0,-0.0009458129643462598,0.0035041652154177427,-0.01216630358248949,0.9998523592948914,-0.005716617219150066,-0.00034655144554562867,0.016201084479689598
193.0,0.0,0.0,0.0,0.0,0.0,0.0,0.0024775187484920025,0.004358078818768263,-0.010466860607266426,0.9998490214347839,-0.005741525441408157,-0.00033098444691859186,0.016398899257183075
194.0,0.0,0.0,0.0,0.0,0.0,0.0,0.005057529546320438,0.0050498140044510365,-0.005615000147372484,0.9998288154602051,-0.005374294240027666,-0.0007970735314302146,0.0176860298961401
195.0,0.0,0.0,0.0,0.0,0.0,0.0,0.00686869490891695,0.004861691500991583,-0.0026564321015030146,0.9998151063919067,-0.0051342798396945,-0.0010937443003058434,0.01849783957004547
196.0,0.0,0.0,0.0,0.0,0.0,0.0,0.00919714942574501,0.006295457947999239,-0.0022321927826851606,0.9998071193695068,-0.005041843745857477,-0.0012242179363965988,0.018940912559628487
197.0,0.0,0.0,0.0,0.0,0.0,0.0,0.012515432201325893,0.00886695459485054,-0.005034710746258497,0.9997842907905579,-0.006612448487430811,0.00027729710564017296,0.019685637205839157
198.0,0.0,0.0,0.0,0.0,0.0,0.0,0.011420933529734612,0.0067240335047245026,-0.01136317104101181,0.9997788667678833,-0.006573827005922794,0.00016282805881928653,0.01997317373752594
199.0,0.0,0.0,0.0,0.0,0.0,0.0,0.008060072548687458,0.0036590942181646824,-0.012312415987253189,0.9997772574424744,-0.00650497293099761,0.00027415770455263555,0.020075302571058273
200.0,0.0,0.0,0.0,0.0,0.0,0.0,0.003401358611881733,-0.0007933190790936351,-0.011188501492142677,0.9997740983963013,-0.006383048370480537,0.00045933856745250523,0.020267784595489502
201.0,0.0,0.0,0.0,0.0,0.0,0.0,6.68470238451846e-05,-0.003755375510081649,-0.01109252031892538,0.9997658729553223,-0.006103971507400274,0.0007099377107806504,0.02074754424393177
202.0,0.0,0.0,0.0,0.0,0.0,0.0,-0.0017551305936649442,-0.004564207512885332,-0.005426238290965557,0.9997719526290894,-0.006221729330718517,0.0018168940441682935,0.020348940044641495
203.0,0.0,0.0,0.0,0.0,0.0,0.0,-0.000999333569779992,-0.0038072937168180943,0.0007919308263808489,0.9997852444648743,-0.006031649187207222,0.0028731971979141235,0.019617347046732903
204.0,0.0,0.0,0.0,0.0,0.0,0.0,0.00941138993948698,-0.00894035492092371,-0.027954906225204468,0.9997850656509399,-0.00560676958411932,0.0037446951027959585,0.019605576992034912
205.0,0.0,0.0,0.0,0.0,0.0,0.0,0.01893564686179161,-0.025908401235938072,-0.030343400314450264,0.9997723698616028,-0.005755772348493338,0.0030821310356259346,0.02031397819519043
206.0,0.0,0.0,0.0,0.0,0.0,0.0,0.02421882003545761,-0.020549677312374115,-0.008674109354615211,0.9997512698173523,-0.005693283397704363,0.0014141442952677608,0.0215173177421093
207.0,0.0,0.0,0.0,0.0,0.0,0.0,0.012883277609944344,-0.01782020926475525,0.01856200583279133,0.9997333288192749,-0.0054262843914330006,-0.0003036892449017614,0.022443288937211037
208.0,0.0,0.0,0.0,0.0,0.0,0.0,0.009734000079333782,-0.008068101480603218,0.038104988634586334,0.9997212290763855,-0.005375837907195091,-0.0010083995293825865,0.02297031134366989
209.0,0.0,0.0,0.0,0.0,0.0,0.0,0.009456736035645008,0.0012473443057388067,0.030141012743115425,0.999714732170105,-0.0051968698389828205,-0.0012349541066214442,0.02327967807650566
210.0,0.0,0.0,0.0,0.0,0.0,0.0,0.01066968496888876,0.00849375780671835,0.019188854843378067,0.9997001886367798,-0.005038209725171328,-0.0006942236213944852,0.02395082451403141
211.0,0.0,0.0,0.0,0.0,0.0,0.0,0.013870078139007092,0.018956413492560387,0.007562948856502771,0.999695360660553,-0.004891098942607641,0.00036694310256280005,0.024190502241253853
212.0,0.0,0.0,0.0,0.0,0.0,0.0,0.020122025161981583,0.02710779570043087,-0.004276799503713846,0.9996932148933411,-0.004143776372075081,0.001025448669679463,0.024397090077400208
213.0,0.0,0.0,0.0,0.0,0.0,0.0,0.020718544721603394,0.026889322325587273,-0.017277216538786888,0.999679446220398,-0.002885676920413971,0.0013401772594079375,0.025118423625826836
214.0,0.0,0.0,0.0,0.0,0.0,0.0,0.017115244641900063,0.022578155621886253,-0.030619481578469276,0.9996604323387146,-0.0022770569194108248,0.0010843001073226333,0.025935668498277664
215.0,0.0,0.0,0.0,0.0,0.0,0.0,0.018185598775744438,0.020270632579922676,-0.02838248386979103,0.999640941619873,-0.001982820453122258,5.195330595597625e-05,0.026720833033323288
216.0,0.0,0.0,0.0,0.0,0.0,0.0,0.015766609460115433,0.016252510249614716,-0.022328592836856842,0.9996254444122314,-0.00227873376570642,-0.0013484563678503036,0.02723996713757515
217.0,0.0,0.0,0.0,0.0,0.0,0.0,0.01006407756358385,0.01118618343025446,-0.01084492914378643,0.9996103644371033,-0.0029654637910425663,-0.0031671526376158,0.027573585510253906
218.0,0.0,0.0,0.0,0.0,0.0,0.0,0.008725586347281933,0.00713863130658865,-0.00045469083124771714,0.9995981454849243,-0.004235423170030117,-0.004613453987985849,0.027646923437714577
219.0,0.0,0.0,0.0,0.0,0.0,0.0,0.004276808351278305,0.0024394397623836994,0.0011162186274304986,0.9996070861816406,-0.006815109867602587,-0.005540783051401377,0.026617862284183502
220.0,0.0,0.0,0.0,0.0,0.0,0.0,0.000980358337983489,-0.00013671665510628372,-0.0041801962070167065,0.999618649482727,-0.009153269231319427,-0.006101157516241074,0.025328950956463814
221.0,0.0,0.0,0.0,0.0,0.0,0.0,0.0005093813524581492,0.0020361337810754776,-0.007598145864903927,0.9996063113212585,-0.010833218693733215,-0.006845947355031967,0.024959199130535126
222.0,0.0,0.0,0.0,0.0,0.0,0.0,-0.0024174265563488007,0.004730628337711096,-0.0054915789514780045,0.9995929002761841,-0.012097276747226715,-0.00728259701281786,0.024791715666651726
223.0,0.0,0.0,0.0,0.0,0.0,0.0,-0.004289565607905388,0.0068972427397966385,0.004200347699224949,0.9995912313461304,-0.013286907225847244,-0.007197756320238113,0.02426932193338871
224.0,0.0,0.0,0.0,0.0,0.0,0.0,-0.003504890715703368,0.006674282718449831,0.006087866611778736,0.9995859265327454,-0.014254688285291195,-0.0070334565825760365,0.023986058309674263
225.0,0.0,0.0,0.0,0.0,0.0,0.0,-0.0025138715282082558,0.004307793918997049,-0.004460829310119152,0.9995704293251038,-0.014750138856470585,-0.007182017434388399,0.024287259206175804
226.0,0.0,0.0,0.0,0.0,0.0,0.0,-0.00232310825958848,0.001177410245873034,-0.009322164580225945,0.999563455581665,-0.014911476522684097,-0.007586643099784851,0.02435116656124592
227.0,0.0,0.0,0.0,0.0,0.0,0.0,-0.005030820611864328,-0.0027205299120396376,-0.010923481546342373,0.9995565414428711,-0.015377435833215714,-0.007818255573511124,0.024272700771689415
228.0,0.0,0.0,0.0,0.0,0.0,0.0,-0.006494767032563686,-0.00560231227427721,-0.005198721773922443,0.9995550513267517,-0.015526976436376572,-0.008048249408602715,0.024161603301763535
229.0,0.0,0.0,0.0,0.0,0.0,0.0,-0.006957743316888809,-0.009065684862434864,0.002274709288030863,0.9995496869087219,-0.015627946704626083,-0.00818486139178276,0.02427472360432148
230.0,0.0,0.0,0.0,0.0,0.0,0.0,-0.006173713132739067,-0.010470160283148289,0.0036812748294323683,0.9995490312576294,-0.015917943790555,-0.008482002653181553,0.02401105687022209
231.0,0.0,0.0,0.0,0.0,0.0,0.0,-0.004248536191880703,-0.009638650342822075,0.000522852991707623,0.9995410442352295,-0.015389367938041687,-0.009117255918681622,0.024448594078421593
232.0,0.0,0.0,0.0,0.0,0.0,0.0,-0.0019312187796458602,-0.00870976597070694,0.0032037512864917517,0.999514102935791,-0.014557274989783764,-0.009984695352613926,0.02569020725786686
233.0,0.0,0.0,0.0,0.0,0.0,0.0,-0.003610966494306922,-0.007427890319377184,0.011897677555680275,0.9994771480560303,-0.013664309866726398,-0.010679973289370537,0.027288338169455528
234.0,0.0,0.0,0.0,0.0,0.0,0.0,-0.005417081993073225,-0.005792876705527306,0.027778325602412224,0.999441921710968,-0.013096705079078674,-0.010616465471684933,0.028839103877544403
235.0,0.0,0.0,0.0,0.0,0.0,0.0,-0.00648728059604764,-0.006276110652834177,0.03403274714946747,0.9994689226150513,-0.012570044957101345,-0.009201335720717907,0.028623390942811966
236.0,0.0,0.0,0.0,0.0,0.0,0.0,-0.007760414853692055,-0.007289882283657789,0.022447943687438965,0.9995132684707642,-0.011627486906945705,-0.008114347234368324,0.027788233011960983
237.0,0.0,0.0,0.0,0.0,0.0,0.0,0.002172017702832818,-0.019367186352610588,-0.05238882079720497,0.999529242515564,-0.011154738254845142,-0.0073458650149405,0.027621028944849968
238.0,0.0,0.0,0.0,0.0,0.0,0.0,0.010814451612532139,-0.021630164235830307,-0.05199095606803894,0.9995110630989075,-0.011376280337572098,-0.008150837384164333,0.02796213887631893
239.0,0.0,0.0,0.0,0.0,0.0,0.0,-0.002589505398645997,-0.016217248514294624,-0.022337906062602997,0.9994948506355286,-0.011449919082224369,-0.009467526338994503,0.028096996247768402
240.0,0.0,0.0,0.0,0.0,0.0,0.0,-0.011404451914131641,-0.007791719399392605,0.003688214113935828,0.9995091557502747,-0.011643161997199059,-0.010257394053041935,0.027215884998440742
241.0,0.0,0.0,0.0,0.0,0.0,0.0,-0.01013526413589716,-0.003952750004827976,-0.0015187935205176473,0.9995262622833252,-0.011817436665296555,-0.010655160062015057,0.02634415403008461
242.0,0.0,0.0,0.0,0.0,0.0,0.0,-0.016122836619615555,-0.007165242452174425,-0.008315429091453552,0.9995499849319458,-0.012106762267649174,-0.010623607784509659,0.025305956602096558
243.0,0.0,0.0,0.0,0.0,0.0,0.0,-0.014213891699910164,-0.002424579579383135,-0.008200142532587051,0.9995691776275635,-0.012259989976882935,-0.010569081641733646,0.024483922868967056
244.0,0.0,0.0,0.0,0.0,0.0,0.0,-0.012137134559452534,0.00189189612865448,-0.01047601643949747,0.9995912313461304,-0.011998269706964493,-0.010406030341982841,0.023772791028022766
245.0,0.0,0.0,0.0,0.0,0.0,0.0,-0.010622110217809677,0.0034837243147194386,-0.010398175567388535,0.9996119141578674,-0.011451277881860733,-0.010220910422503948,0.023247582837939262
246.0,0.0,0.0,0.0,0.0,0.0,0.0,-0.006024071481078863,0.005274942610412836,-0.010094896890223026,0.9996281862258911,-0.010317478328943253,-0.010358167812228203,0.023018334060907364
247.0,0.0,0.0,0.0,0.0,0.0,0.0,-0.00665899645537138,0.002738700481131673,-0.011371510103344917,0.9996465444564819,-0.009297732263803482,-0.010534235276281834,0.022570986300706863
248.0,0.0,0.0,0.0,0.0,0.0,0.0,-0.007190273143351078,0.002754624467343092,-0.014630746096372604,0.9996742010116577,-0.008641095831990242,-0.010355973616242409,0.021670790389180183
249.0,0.0,0.0,0.0,0.0,0.0,0.0,-0.006143203470855951,0.00245802104473114,-0.013845561072230339,0.9996967315673828,-0.008100047707557678,-0.010299746878445148,0.0208524651825428
250.0,0.0,0.0,0.0,0.0,0.0,0.0,-0.007302436511963606,0.0010610754834488034,-0.012876293621957302,0.9997133016586304,-0.007951386272907257,-0.010211782529950142,0.020147517323493958
251.0,0.0,0.0,0.0,0.0,0.0,0.0,-0.002907357644289732,0.002926054410636425,-0.014530268497765064,0.9997209906578064,-0.0084685692563653,-0.010010913014411926,0.01964876614511013
252.0,0.0,0.0,0.0,0.0,0.0,0.0,0.001996641745790839,0.004252513870596886,-0.015645384788513184,0.9997168779373169,-0.009341311641037464,-0.01009616069495678,0.019416991621255875
253.0,0.0,0.0,0.0,0.0,0.0,0.0,0.004454755689948797,0.005024888087064028,-0.013552977703511715,0.9997061491012573,-0.01044340431690216,-0.010402685962617397,0.019244417548179626
254.0,0.0,0.0,0.0,0.0,0.0,0.0,0.0057149906642735004,0.005390356760472059,-0.014858251437544823,0.9996861815452576,-0.011309504508972168,-0.01096287090331316,0.019478214904665947
255.0,0.0,0.0,0.0,0.0,0.0,0.0,0.00628495030105114,0.008331101387739182,-0.0065969303250312805,0.999666154384613,-0.012095442973077297,-0.011597548611462116,0.019666146486997604
256.0,0.0,0.0,0.0,0.0,0.0,0.0,0.0056841508485376835,0.011232766322791576,0.00016054813750088215,0.999652624130249,-0.013746248558163643,-0.012189852073788643,0.01889767497777939
257.0,0.0,0.0,0.0,0.0,0.0,0.0,0.007392219267785549,0.008764595724642277,-0.006194905377924442,0.9996251463890076,-0.015687979757785797,-0.013391765765845776,0.018003353849053383
258.0,0.0,0.0,0.0,0.0,0.0,0.0,0.005500427447259426,0.007225531153380871,-0.013848540373146534,0.9995743632316589,-0.01798407919704914,-0.01509449165314436,0.01731588877737522
259.0,0.0,0.0,0.0,0.0,0.0,0.0,0.0033293769229203463,0.006348930764943361,-0.011260013096034527,0.9995120763778687,-0.020205819979310036,-0.016973743215203285,0.0167105570435524
260.0,0.0,0.0,0.0,0.0,0.0,0.0,-0.0007100032526068389,0.005150670185685158,0.004216312896460295,0.9994599223136902,-0.02218484878540039,-0.018496951088309288,0.01566968485713005
261.0,0.0,0.0,0.0,0.0,0.0,0.0,-0.0031596459448337555,0.0038474355824291706,0.017685988917946815,0.9994314312934875,-0.023600488901138306,-0.019353514537215233,0.014329712837934494
262.0,0.0,0.0,0.0,0.0,0.0,0.0,-0.0035269460640847683,0.0010097597260028124,0.018577661365270615,0.9994089007377625,-0.024421799927949905,-0.019939668476581573,0.013705804012715816
263.0,0.0,0.0,0.0,0.0,0.0,0.0,-0.0028301295824348927,-0.0018845596350729465,0.0077528501860797405,0.9993920922279358,-0.025039497762918472,-0.020573178306221962,0.012855135835707188
264.0,0.0,0.0,0.0,0.0,0.0,0.0,-0.0014262603363022208,-0.0018887176411226392,-0.004562273621559143,0.9993855953216553,-0.025188492611050606,-0.021005230024456978,0.012359768152236938
265.0,0.0,0.0,0.0,0.0,0.0,0.0,-0.0006308326264843345,-0.0011333015281707048,-0.012078148312866688,0.9993807077407837,-0.025477470830082893,-0.02138398215174675,0.011481713503599167
266.0,0.0,0.0,0.0,0.0,0.0,0.0,0.0009816749952733517,-0.00013254021177999675,-0.015301795676350594,0.9993596076965332,-0.026226544752717018,-0.02189534343779087,0.010632423684000969
267.0,0.0,0.0,0.0,0.0,0.0,0.0,0.0037788567133247852,0.00043663359247148037,-0.020341774448752403,0.999333918094635,-0.02707655169069767,-0.022359250113368034,0.009929941035807133
268.0,0.0,0.0,0.0,0.0,0.0,0.0,0.0005863202386535704,-0.0009728299919515848,-0.021935997530817986,0.9992997050285339,-0.02765762247145176,-0.02332315780222416,0.009548003785312176
269.0,0.0,0.0,0.0,0.0,0.0,0.0,0.0003980524488724768,0.0038748974911868572,-0.012123445980250835,0.9992604851722717,-0.028372421860694885,-0.024212652817368507,0.009338569827377796
270.0,0.0,0.0,0.0,0.0,0.0,0.0,7.418458699248731e-05,0.0033016367815434933,-0.00785556435585022,0.9992276430130005,-0.028815561905503273,-0.024849839508533478,0.009812895208597183
271.0,0.0,0.0,0.0,0.0,0.0,0.0,-0.00016647168376948684,0.0036813197657465935,0.0020495785865932703,0.9992064237594604,-0.02862885780632496,-0.02528993971645832,0.01128543820232153
272.0,0.0,0.0,0.0,0.0,0.0,0.0,-0.00042623531771823764,0.004185051191598177,0.016300758346915245,0.9991989731788635,-0.028339702636003494,-0.02543112449347973,0.012309614568948746
273.0,0.0,0.0,0.0,0.0,0.0,0.0,0.003659825073555112,0.0034854586701840162,0.019039373844861984,0.9991889595985413,-0.02795957401394844,-0.025845663622021675,0.013105432502925396
274.0,0.0,0.0,0.0,0.0,0.0,0.0,0.007855336181819439,0.0036646651569753885,0.012721057049930096,0.9991768598556519,-0.02762608230113983,-0.02636067010462284,0.013696979731321335
275.0,0.0,0.0,0.0,0.0,0.0,0.0,0.0088406503200531,0.0010594865307211876,0.007385638542473316,0.9991747140884399,-0.027396632358431816,-0.026197118684649467,0.014596025459468365
276.0,0.0,0.0,0.0,0.0,0.0,0.0,0.0019870882388204336,-0.003639326198026538,0.011104268953204155,0.9991917610168457,-0.02680918201804161,-0.024943964555859566,0.016581721603870392
277.0,0.0,0.0,0.0,0.0,0.0,0.0,0.00940916407853365,-0.0029644041787832975,-0.00024525815388187766,0.9991798400878906,-0.026548702269792557,-0.023435339331626892,0.019635722041130066
278.0,0.0,0.0,0.0,0.0,0.0,0.0,0.01752997562289238,-0.001260587596334517,-0.0013115530600771308,0.9991649389266968,-0.02668815664947033,-0.02283616177737713,0.02087376080453396
279.0,0.0,0.0,0.0,0.0,0.0,0.0,0.010619944892823696,-0.0055355713702738285,-0.01469844114035368,0.9991597533226013,-0.02701834961771965,-0.02366570383310318,0.019740721210837364
280.0,0.0,0.0,0.0,0.0,0.0,0.0,2.600978950795252e-05,-0.004004094284027815,-0.00613097520545125,0.9991658329963684,-0.02773766964673996,-0.02420913614332676,0.017670216038823128
281.0,0.0,0.0,0.0,0.0,0.0,0.0,-0.006382582243531942,-0.006441940553486347,-0.0005334175075404346,0.9991816878318787,-0.028326239436864853,-0.023707590997219086,0.01648271642625332
282.0,0.0,0.0,0.0,0.0,0.0,0.0,-0.007504329085350037,-0.005912878550589085,-0.0023351034615188837,0.9992013573646545,-0.028454551473259926,-0.022967543452978134,0.0161103755235672
283.0,0.0,0.0,0.0,0.0,0.0,0.0,-0.008946346119046211,-0.0062835682183504105,-0.0019155408954247832,0.999223530292511,-0.02837582677602768,-0.022059697657823563,0.016144387423992157
284.0,0.0,0.0,0.0,0.0,0.0,0.0,-0.008186525665223598,-0.0059862867929041386,-0.0007219385588541627,0.9992682337760925,-0.027984265238046646,-0.02064937725663185,0.01592317223548889
285.0,0.0,0.0,0.0,0.0,0.0,0.0,-0.0060229054652154446,-0.004225271753966808,-0.0001613325293874368,0.999311089515686,-0.027410347014665604,-0.01913285255432129,0.016124768182635307
286.0,0.0,0.0,0.0,0.0,0.0,0.0,-0.0021526566706597805,-0.0025819134898483753,-0.0017748946556821465,0.9993467330932617,-0.026209784671664238,-0.018067320808768272,0.01710902340710163
287.0,0.0,0.0,0.0,0.0,0.0,0.0,0.0026767433155328035,8.018787775654346e-05,-0.005978450644761324,0.9993783235549927,-0.025223666802048683,-0.01704256795346737,0.01778465136885643
288.0,0.0,0.0,0.0,0.0,0.0,0.0,0.006223522126674652,0.0036913114599883556,-0.005884768906980753,0.9994120001792908,-0.02407350204885006,-0.015815766528248787,0.01860007829964161
289.0,0.0,0.0,0.0,0.0,0.0,0.0,0.009406679309904575,0.00580913620069623,-0.000529528537299484,0.9994373321533203,-0.022618405520915985,-0.014657099731266499,0.01996682956814766
290.0,0.0,0.0,0.0,0.0,0.0,0.0,0.01168948132544756,0.005461676046252251,0.0036165406927466393,0.9994656443595886,-0.021111002191901207,-0.013385438360273838,0.021060947328805923
291.0,0.0,0.0,0.0,0.0,0.0,0.0,0.013685641810297966,0.005106010008603334,-0.0038375481963157654,0.9994863867759705,-0.0194315854460001,-0.012139204889535904,0.02240472100675106
292.0,0.0,0.0,0.0,0.0,0.0,0.0,0.014958028681576252,0.004960899241268635,-0.008885186165571213,0.9994838237762451,-0.017902066931128502,-0.010945472866296768,0.024328066036105156
293.0,0.0,0.0,0.0,0.0,0.0,0.0,0.014474979601800442,0.003812802257016301,-0.007734701037406921,0.9994723200798035,-0.016139306128025055,-0.010051405057311058,0.02633501961827278
294.0,0.0,0.0,0.0,0.0,0.0,0.0,0.01267401035875082,0.0013520747888833284,-0.004938374739140272,0.9994370341300964,-0.014158518984913826,-0.009230072610080242,0.02898251824080944
295.0,0.0,0.0,0.0,0.0,0.0,0.0,0.013347971253097057,0.0008067361195571721,0.0023408345878124237,0.9993964433670044,-0.011990940198302269,-0.008570816367864609,0.031457286328077316
296.0,0.0,0.0,0.0,0.0,0.0,0.0,0.008567584678530693,-0.0036022465210407972,0.0037368296179920435,0.9993537068367004,-0.009733940474689007,-0.00753638194873929,0.033772390335798264
297.0,0.0,0.0,0.0,0.0,0.0,0.0,0.006598610896617174,-0.0037169544957578182,0.008587989024817944,0.9993122220039368,-0.00740768201649189,-0.0057747201062738895,0.03587465360760689
298.0,0.0,0.0,0.0,0.0,0.0,0.0,0.004736553877592087,-0.009183109737932682,0.01386073138564825,0.9992716312408447,-0.004879519809037447,-0.0036931869108229876,0.03766755014657974
299.0,0.0,0.0,0.0,0.0,0.0,0.0,0.009026141837239265,-0.010586556047201157,0.005615799222141504,0.9992191791534424,-0.0025298609398305416,-0.0012804109137505293,0.03940967097878456
300.0,0.0,0.0,0.0,0.0,0.0,0.0,0.011565370485186577,-0.011243337765336037,-0.0034836612176150084,0.9991706609725952,-0.00011315107985865325,0.0008363223168998957,0.040710657835006714
301.0,0.0,0.0,0.0,0.0,0.0,0.0,0.015054197050631046,-0.013556040823459625,-0.013649187050759792,0.9991236329078674,0.001934210886247456,0.0022887687664479017,0.041750382632017136
302.0,0.0,0.0,0.0,0.0,0.0,0.0,0.018146492540836334,-0.014481769874691963,-0.026314375922083855,0.9990710020065308,0.0039846207946538925,0.0030839573591947556,0.042800527065992355
303.0,0.0,0.0,0.0,0.0,0.0,0.0,0.018031930550932884,-0.014287947677075863,-0.02455996349453926,0.9990144371986389,0.005672129336744547,0.0034323991276323795,0.04389146342873573
304.0,0.0,0.0,0.0,0.0,0.0,0.0,0.017277270555496216,-0.013405864126980305,-0.018983149901032448,0.9989702701568604,0.0066614639945328236,0.002533694263547659,0.04480892792344093
305.0,0.0,0.0,0.0,0.0,0.0,0.0,0.014167633838951588,-0.012917433865368366,-0.007215061690658331,0.9989216327667236,0.00739126605913043,0.0006375492666848004,0.045833081007003784
306.0,0.0,0.0,0.0,0.0,0.0,0.0,0.0059910002164542675,-0.010730181820690632,0.010756916366517544,0.9988945126533508,0.0075815338641405106,-0.0012830927735194564,0.046378862112760544
307.0,0.0,0.0,0.0,0.0,0.0,0.0,-0.00018606345111038536,-0.011757934466004372,0.016376996412873268,0.9989193677902222,0.0070975786074995995,-0.0029268416110426188,0.045837994664907455
308.0,0.0,0.0,0.0,0.0,0.0,0.0,-0.005847716238349676,-0.012144362553954124,0.018019182607531548,0.998961329460144,0.0062160855159163475,-0.004403560422360897,0.04492560401558876
309.0,0.0,0.0,0.0,0.0,0.0,0.0,-0.010707967914640903,-0.01435183547437191,0.012447957880795002,0.9990502595901489,0.005241145845502615,-0.005695175379514694,0.04288017377257347
310.0,0.0,0.0,0.0,0.0,0.0,0.0,-0.0155720766633749,-0.012569504790008068,0.007490161340683699,0.9991556406021118,0.004172015469521284,-0.006221285089850426,0.04039749875664711
311.0,0.0,0.0,0.0,0.0,0.0,0.0,-0.019643567502498627,-0.010331669822335243,-0.0025419762823730707,0.9992469549179077,0.0030255522578954697,-0.00680841039866209,0.0380801260471344
312.0,0.0,0.0,0.0,0.0,0.0,0.0,-0.019790641963481903,-0.00744264479726553,-0.008320929482579231,0.9993177056312561,0.002287364099174738,-0.007417540065944195,0.036109697073698044
313.0,0.0,0.0,0.0,0.0,0.0,0.0,-0.017807703465223312,-0.0027156213764101267,-0.015530041418969631,0.9993707537651062,0.0018186257220804691,-0.008333721198141575,0.03443189710378647
314.0,0.0,0.0,0.0,0.0,0.0,0.0,-0.016372380778193474,0.002226667245849967,-0.018440023064613342,0.9994028210639954,0.0015925955958664417,-0.009341039694845676,0.03323068097233772
315.0,0.0,0.0,0.0,0.0,0.0,0.0,-0.014864625409245491,0.004462286829948425,-0.017015734687447548,0.9994264841079712,0.001029837061651051,-0.010080051608383656,0.03231290727853775
316.0,0.0,0.0,0.0,0.0,0.0,0.0,-0.011403166688978672,0.006373808719217777,-0.01350182294845581,0.9994605183601379,1.6289537597913295e-05,-0.010165873914957047,0.031229859218001366
317.0,0.0,0.0,0.0,0.0,0.0,0.0,-0.008279962465167046,0.007281764410436153,-0.013889411464333534,0.9994689226150513,-0.0007761231972835958,-0.01068297028541565,0.030777165666222572
318.0,0.0,0.0,0.0,0.0,0.0,0.0,-0.007287125568836927,0.00799629744142294,-0.01603793352842331,0.9994691014289856,-0.0012593704741448164,-0.011676158756017685,0.030391672626137733
319.0,0.0,0.0,0.0,0.0,0.0,0.0,-0.005138139706104994,0.006665895693004131,-0.01739816926419735,0.9994768500328064,-0.0017920834943652153,-0.012585577555000782,0.029741905629634857
320.0,0.0,0.0,0.0,0.0,0.0,0.0,-0.0029850159771740437,0.007601656019687653,-0.013845116831362247,0.9994778037071228,-0.0027160625904798508,-0.013818114995956421,0.029085610061883926
321.0,0.0,0.0,0.0,0.0,0.0,0.0,0.00012074921687599272,0.00942017138004303,-0.011311995796859264,0.9994805455207825,-0.0035766141954809427,-0.015431338921189308,0.028066912665963173
322.0,0.0,0.0,0.0,0.0,0.0,0.0,0.003794232150539756,0.011335049755871296,-0.008268686942756176,0.9994467496871948,-0.004145447630435228,-0.01762888766825199,0.027898598462343216
323.0,0.0,0.0,0.0,0.0,0.0,0.0,0.0020550501067191362,0.010498479939997196,-0.0018183460924774408,0.9993959665298462,-0.004424480255693197,-0.02002171240746975,0.028061654418706894
324.0,0.0,0.0,0.0,0.0,0.0,0.0,0.00438695540651679,0.01176112424582243,0.0038103307597339153,0.9993429780006409,-0.004797457251697779,-0.022314202040433884,0.02815435640513897
325.0,0.0,0.0,0.0,0.0,0.0,0.0,0.0016531625296920538,0.010816788300871849,0.004147205036133528,0.9993044137954712,-0.005598876625299454,-0.02422383427619934,0.02779591828584671
326.0,0.0,0.0,0.0,0.0,0.0,0.0,0.00150649668648839,0.010600163601338863,0.0029417872428894043,0.9992742538452148,-0.006403319071978331,-0.02603527344763279,0.02705911174416542
327.0,0.0,0.0,0.0,0.0,0.0,0.0,0.0007062670192681253,0.008561201393604279,-0.000777743523940444,0.9992132186889648,-0.006768622901290655,-0.02825254388153553,0.027004214003682137
328.0,0.0,0.0,0.0,0.0,0.0,0.0,-0.001704282476566732,0.007201723288744688,0.00021281131193973124,0.9991531372070312,-0.007078453898429871,-0.030659442767500877,0.026517188176512718
329.0,0.0,0.0,0.0,0.0,0.0,0.0,-0.001860155025497079,0.008072098717093468,-2.8974804081371985e-05,0.999114453792572,-0.0070136659778654575,-0.032999537885189056,0.02514258399605751
330.0,0.0,0.0,0.0,0.0,0.0,0.0,-0.0032991706393659115,0.007828987203538418,0.0035936615895479918,0.9990981817245483,-0.006890090182423592,-0.0349668525159359,0.023077847436070442
331.0,0.0,0.0,0.0,0.0,0.0,0.0,-0.0034573557786643505,0.010298468172550201,0.007838437333703041,0.9990808367729187,-0.006816434673964977,-0.036226920783519745,0.021884480491280556
332.0,0.0,0.0,0.0,0.0,0.0,0.0,-0.008033320307731628,0.009281067177653313,0.006145842839032412,0.9990944862365723,-0.007249465677887201,-0.03629658371210098,0.02098562940955162
333.0,0.0,0.0,0.0,0.0,0.0,0.0,-0.016448592767119408,0.011389655992388725,0.004897888749837875,0.9991545081138611,-0.008056811057031155,-0.03486739844083786,0.02024124749004841
334.0,0.0,0.0,0.0,0.0,0.0,0.0,-0.0188604686409235,0.013095584698021412,0.0074459463357925415,0.9992119073867798,-0.008385587483644485,-0.03338584676384926,0.01976810023188591
335.0,0.0,0.0,0.0,0.0,0.0,0.0,-0.016833022236824036,0.013767523691058159,-0.004550907760858536,0.99928218126297,-0.008623703382909298,-0.03151653707027435,0.019172795116901398
336.0,0.0,0.0,0.0,0.0,0.0,0.0,-0.02111503854393959,0.010067498311400414,-0.015669522807002068,0.9993422627449036,-0.008535702712833881,-0.030101493000984192,0.018333641812205315
337.0,0.0,0.0,0.0,0.0,0.0,0.0,-0.017090018838644028,0.010704444721341133,-0.011314868927001953,0.9994089007377625,-0.00837467610836029,-0.02823938988149166,0.017731867730617523
338.0,0.0,0.0,0.0,0.0,0.0,0.0,-0.015886807814240456,0.008278930559754372,-0.003285386133939028,0.9994798302650452,-0.008374621160328388,-0.025927871465682983,0.01725578121840954
339.0,0.0,0.0,0.0,0.0,0.0,0.0,-0.016471657902002335,0.006365780718624592,0.00018503628962207586,0.9995324611663818,-0.008744643069803715,-0.02350456267595291,0.017491668462753296
340.0,0.0,0.0,0.0,0.0,0.0,0.0,-0.01650039106607437,0.0036009205505251884,0.00420242827385664,0.9995733499526978,-0.009114038199186325,-0.020579395815730095,0.018615372478961945
341.0,0.0,0.0,0.0,0.0,0.0,0.0,-0.013077906332910061,0.005152095574885607,0.010792051441967487,0.9996039271354675,-0.009324024431407452,-0.01772196777164936,0.019773902371525764
342.0,0.0,0.0,0.0,0.0,0.0,0.0,-0.010053220205008984,0.004834424238651991,0.02242760732769966,0.9996411800384521,-0.009593140333890915,-0.015118658542633057,0.01992231421172619
343.0,0.0,0.0,0.0,0.0,0.0,0.0,-0.00814051367342472,0.001005969475954771,0.020178459584712982,0.9996718764305115,-0.00915719848126173,-0.012657240964472294,0.02030220441520214
344.0,0.0,0.0,0.0,0.0,0.0,0.0,-0.006152378395199776,-0.00018860459385905415,0.014031619764864445,0.9997141361236572,-0.008466324768960476,-0.010265741497278214,0.019866757094860077
345.0,0.0,0.0,0.0,0.0,0.0,0.0,-0.005067100748419762,-0.0005798173951916397,0.005237942561507225,0.999763548374176,-0.0074087707325816154,-0.00783737376332283,0.01888265833258629
346.0,0.0,0.0,0.0,0.0,0.0,0.0,-0.004399842582643032,-0.003994474187493324,-0.0023432131856679916,0.9997903108596802,-0.005903484299778938,-0.005667179357260466,0.01877511478960514
347.0,0.0,0.0,0.0,0.0,0.0,0.0,-0.004964768420904875,-0.007595168426632881,-0.003515527117997408,0.9998025298118591,-0.004178098402917385,-0.004013124853372574,0.019012462347745895
348.0,0.0,0.0,0.0,0.0,0.0,0.0,-0.001360049587674439,-0.0065218922682106495,-0.012698821723461151,0.9998188614845276,-0.0014748935354873538,-0.0030087116174399853,0.018737874925136566
349.0,0.0,0.0,0.0,0.0,0.0,0.0,0.0033848879393190145,-0.007221158128231764,-0.027819300070405006,0.9998350143432617,0.0014509098837152123,-0.00250397645868361,0.01793357916176319
350.0,0.0,0.0,0.0,0.0,0.0,0.0,0.008232396095991135,-0.0057027884759008884,-0.024808110669255257,0.999833881855011,0.005038100760430098,-0.003219223814085126,0.01721804589033127
351.0,0.0,0.0,0.0,0.0,0.0,0.0,0.01649588532745838,-0.0029018439818173647,-0.011904829181730747,0.9998149275779724,0.008658556267619133,-0.004190453793853521,0.016658488661050797
352.0,0.0,0.0,0.0,0.0,0.0,0.0,0.02106904238462448,-0.0008756515453569591,0.004547691438347101,0.9997812509536743,0.012063320726156235,-0.005984085146337748,0.016009483486413956
353.0,0.0,0.0,0.0,0.0,0.0,0.0,0.026182100176811218,-0.000920415623113513,-0.017570775002241135,0.9997369050979614,0.015032732859253883,-0.007362422067672014,0.015688277781009674
354.0,0.0,0.0,0.0,0.0,0.0,0.0,0.027084171772003174,-0.0027589891105890274,-0.028135430067777634,0.9997267723083496,0.01616704650223255,-0.007195579819381237,0.015276527032256126
355.0,0.0,0.0,0.0,0.0,0.0,0.0,0.026005052030086517,-0.004392076283693314,-0.00444133672863245,0.999724268913269,0.01691315323114395,-0.006164282560348511,0.015075460076332092
356.0,0.0,0.0,0.0,0.0,0.0,0.0,0.02237199991941452,-0.007989868521690369,0.002672758884727955,0.999706506729126,0.018053026869893074,-0.0052480874583125114,0.015277219004929066
357.0,0.0,0.0,0.0,0.0,0.0,0.0,0.030462030321359634,-0.012618801556527615,-0.03684645891189575,0.9996893405914307,0.01875600963830948,-0.005049902480095625,0.015623957850039005
358.0,0.0,0.0,0.0,0.0,0.0,0.0,0.03618650510907173,-0.011232308112084866,-0.04083763808012009,0.999643862247467,0.021448880434036255,-0.0064150867983698845,0.014524097554385662
359.0,0.0,0.0,0.0,0.0,0.0,0.0,0.023074159398674965,-0.01409558393061161,-0.01898331008851528,0.9996264576911926,0.022990331053733826,-0.006520307622849941,0.013260518200695515
360.0,0.0,0.0,0.0,0.0,0.0,0.0,0.02017216756939888,-0.014227776788175106,-0.034279581159353256,0.9995939135551453,0.024257628247141838,-0.007216451223939657,0.01309774536639452
361.0,0.0,0.0,0.0,0.0,0.0,0.0,0.02561114728450775,-0.0174813661724329,-0.022859925404191017,0.9995500445365906,0.025732330977916718,-0.009090813808143139,0.012447008863091469
362.0,0.0,0.0,0.0,0.0,0.0,0.0,0.02368897572159767,-0.01754608005285263,-0.004437047056853771,0.9994973540306091,0.02704276517033577,-0.0116154495626688,0.011788686737418175
363.0,0.0,0.0,0.0,0.0,0.0,0.0,0.015842296183109283,-0.017490185797214508,-0.007831803523004055,0.999406099319458,0.028837675228714943,-0.014993136748671532,0.011445929296314716
364.0,0.0,0.0,0.0,0.0,0.0,0.0,0.01528120506554842,-0.013393656350672245,-0.005636738613247871,0.9992888569831848,0.030691035091876984,-0.019237637519836426,0.010478484444320202
365.0,0.0,0.0,0.0,0.0,0.0,0.0,0.011588500812649727,-0.010096530430018902,0.005331806372851133,0.9991393685340881,0.0325324647128582,-0.023709282279014587,0.010020099580287933
366.0,0.0,0.0,0.0,0.0,0.0,0.0,0.011610904708504677,-0.008164581842720509,0.004930596798658371,0.9989941716194153,0.033440712839365005,-0.02781897410750389,0.010908850468695164
367.0,0.0,0.0,0.0,0.0,0.0,0.0,0.008372810669243336,-0.008855193853378296,0.01369570568203926,0.9988672733306885,0.033142346888780594,-0.03186729922890663,0.012260951101779938
368.0,0.0,0.0,0.0,0.0,0.0,0.0,0.0017095792572945356,3.298703086329624e-05,0.026667706668376923,0.9987689852714539,0.03210170194506645,-0.03544186055660248,0.013186552561819553
369.0,0.0,0.0,0.0,0.0,0.0,0.0,0.0016904070507735014,0.00971646886318922,0.039870597422122955,0.9986780881881714,0.03096027299761772,-0.038569092750549316,0.014010130427777767
370.0,0.0,0.0,0.0,0.0,0.0,0.0,0.000647020700853318,0.010663431137800217,0.051300495862960815,0.9985899329185486,0.030093563720583916,-0.041228797286748886,0.014587795361876488
371.0,0.0,0.0,0.0,0.0,0.0,0.0,-0.0020212295930832624,0.004550833720713854,0.027232414111495018,0.9985383749008179,0.028983965516090393,-0.04314357787370682,0.014817728661000729
372.0,0.0,0.0,0.0,0.0,0.0,0.0,-0.008673332631587982,0.004455690272152424,0.03717173635959625,0.9985924363136292,0.02653699740767479,-0.04360422492027283,0.014424417167901993
373.0,0.0,0.0,0.0,0.0,0.0,0.0,-0.013575426302850246,0.003948047291487455,0.03372997045516968,0.9987141489982605,0.023776168003678322,-0.042641445994377136,0.013659815303981304
374.0,0.0,0.0,0.0,0.0,0.0,0.0,-0.018508734181523323,8.003125549294055e-05,0.01992790400981903,0.9988358020782471,0.02108823135495186,-0.041577648371458054,0.012408560141921043
375.0,0.0,0.0,0.0,0.0,0.0,0.0,-0.018333956599235535,0.003672196064144373,-0.00503642950206995,0.9988894462585449,0.01919103041291237,-0.04142589122056961,0.01164515782147646
376.0,0.0,0.0,0.0,0.0,0.0,0.0,-0.02083519846200943,0.0005514163640327752,-0.02983211912214756,0.9988983869552612,0.017124749720096588,-0.04190817102789879,0.012357080355286598
377.0,0.0,0.0,0.0,0.0,0.0,0.0,-0.02898802049458027,0.0004921177169308066,-0.022932037711143494,0.9989080429077148,0.014368535950779915,-0.04240475594997406,0.013363839127123356
378.0,0.0,0.0,0.0,0.0,0.0,0.0,-0.03522813320159912,0.0003501622413750738,-0.0027030876372009516,0.9989092350006104,0.011433917097747326,-0.043098580092191696,0.013875598087906837
379.0,0.0,0.0,0.0,0.0,0.0,0.0,-0.0388483889400959,-0.00264198100194335,0.01090717688202858,0.9988986253738403,0.008842075243592262,-0.044034332036972046,0.013587330467998981
380.0,0.0,0.0,0.0,0.0,0.0,0.0,-0.033936962485313416,-0.0002633836993481964,0.005148241296410561,0.9988496899604797,0.006935947109013796,-0.04562899097800255,0.013022596016526222
381.0,0.0,0.0,0.0,0.0,0.0,0.0,-0.03377756476402283,-0.0028404141776263714,-0.003964817151427269,0.9988035559654236,0.005189413670450449,-0.04709843173623085,0.012107458896934986
382.0,0.0,0.0,0.0,0.0,0.0,0.0,-0.034819744527339935,-0.006905196234583855,-0.009153738617897034,0.9988074898719788,0.0026911632157862186,-0.047745123505592346,0.009866133332252502
383.0,0.0,0.0,0.0,0.0,0.0,0.0,-0.03440466895699501,-0.010771315544843674,-0.015292559750378132,0.9988192915916443,-0.0006627377588301897,-0.04798286408185959,0.007579111494123936
384.0,0.0,0.0,0.0,0.0,0.0,0.0,-0.0314946286380291,-0.014182410202920437,-0.01861554943025112,0.9988252520561218,-0.004520948510617018,-0.04794856533408165,0.005364811513572931
385.0,0.0,0.0,0.0,0.0,0.0,0.0,-0.025340715423226357,-0.01659797504544258,-0.008092605508863926,0.9987825751304626,-0.00827720295637846,-0.04858328402042389,0.0021479884162545204
386.0,0.0,0.0,0.0,0.0,0.0,0.0,-0.022807782515883446,-0.020910074934363365,-0.010315625928342342,0.9987115859985352,-0.011298779398202896,-0.04941774159669876,-0.0023388818372040987
387.0,0.0,0.0,0.0,0.0,0.0,0.0,-0.015008850954473019,-0.014258284121751785,-0.03459791839122772,0.998606264591217,-0.014657511375844479,-0.05031184107065201,-0.006302691530436277
388.0,0.0,0.0,0.0,0.0,0.0,0.0,-0.008094068616628647,-0.008973071351647377,-0.022267432883381844,0.9984665513038635,-0.018187323585152626,-0.05140146240592003,-0.009580114856362343
389.0,0.0,0.0,0.0,0.0,0.0,0.0,-0.006898637395352125,-0.008179164491593838,-0.012246180325746536,0.9983230233192444,-0.021086832508444786,-0.052484218031167984,-0.012330600060522556
390.0,0.0,0.0,0.0,0.0,0.0,0.0,-0.008971608243882656,-0.007960093207657337,-0.002591113792732358,0.9981979131698608,-0.022820057347416878,-0.05347514525055885,-0.01485679391771555
391.0,0.0,0.0,0.0,0.0,0.0,0.0,-0.009207658469676971,-0.002874364610761404,0.009045436047017574,0.9981219172477722,-0.02291530929505825,-0.054157551378011703,-0.01716255024075508
392.0,0.0,0.0,0.0,0.0,0.0,0.0,-0.004536696244031191,0.0021506070625036955,0.033962003886699677,0.9981177449226379,-0.02163594216108322,-0.053990401327610016,-0.019442472606897354
393.0,0.0,0.0,0.0,0.0,0.0,0.0,-0.00618139049038291,-0.002397943288087845,0.027905268594622612,0.9983136653900146,-0.018326058983802795,-0.050193656235933304,-0.0226842500269413
394.0,0.0,0.0,0.0,0.0,0.0,0.0,-0.00644304696470499,-0.0031803282909095287,0.013475906103849411,0.9984921813011169,-0.017480596899986267,-0.04591069743037224,-0.024499356746673584
395.0,0.0,0.0,0.0,0.0,0.0,0.0,-0.00016751118528191,0.0022479903418570757,-0.019947312772274017,0.9987205266952515,-0.016453921794891357,-0.040541309863328934,-0.02535393089056015
396.0,0.0,0.0,0.0,0.0,0.0,0.0,0.003928725142031908,0.007658188696950674,-0.03183269873261452,0.998927116394043,-0.014954875223338604,-0.035808101296424866,-0.025277432054281235
397.0,0.0,0.0,0.0,0.0,0.0,0.0,0.009710643440485,0.007800612132996321,-0.05725206062197685,0.9990903735160828,-0.012948363088071346,-0.03273285925388336,-0.024072647094726562
398.0,0.0,0.0,0.0,0.0,0.0,0.0,0.017280837520956993,0.00782683864235878,-0.06429281085729599,0.9992155432701111,-0.011089333333075047,-0.030977213755249977,-0.022041380405426025
399.0,0.0,0.0,0.0,0.0,0.0,0.0,0.023858604952692986,0.007232868578284979,-0.050013408064842224,0.9992931485176086,-0.009827098809182644,-0.030612265691161156,-0.019485456869006157
400.0,0.0,0.0,0.0,0.0,0.0,0.0,0.025145461782813072,0.008470340631902218,-0.025313735008239746,0.9993504285812378,-0.00895962305366993,-0.03086940012872219,-0.016296112909913063
401.0,0.0,0.0,0.0,0.0,0.0,0.0,0.026328951120376587,0.0113115468993783,-0.002033726777881384,0.9993627667427063,-0.008122093044221401,-0.032033637166023254,-0.013489448465406895
402.0,0.0,0.0,0.0,0.0,0.0,0.0,0.026612507179379463,0.014674766920506954,0.011001469567418098,0.9993758201599121,-0.007396351546049118,-0.03270259127020836,-0.011125464923679829
403.0,0.0,0.0,0.0,0.0,0.0,0.0,0.025539137423038483,0.0077431220561265945,0.018781689926981926,0.9993826746940613,-0.0072980159893631935,-0.03303937241435051,-0.009458696469664574
404.0,0.0,0.0,0.0,0.0,0.0,0.0,0.023834312334656715,0.00494072400033474,0.022462142631411552,0.9993847608566284,-0.007468780502676964,-0.033310096710920334,-0.008068861439824104
405.0,0.0,0.0,0.0,0.0,0.0,0.0,0.02124379761517048,0.0063825687393546104,0.019256649538874626,0.9993579983711243,-0.0076996139250695705,-0.03440028056502342,-0.006409759633243084
406.0,0.0,0.0,0.0,0.0,0.0,0.0,0.018831273540854454,0.00874878466129303,0.03143925219774246,0.9993163347244263,-0.007999449968338013,-0.03575502336025238,-0.0049658180214464664
407.0,0.0,0.0,0.0,0.0,0.0,0.0,0.016030672937631607,0.00900549627840519,0.0418187752366066,0.9992609024047852,-0.008233665488660336,-0.037357885390520096,-0.003796865465119481
408.0,0.0,0.0,0.0,0.0,0.0,0.0,0.014425435103476048,0.008815675042569637,0.04769197851419449,0.9991987943649292,-0.008621159940958023,-0.03904135525226593,-0.0018851881613954902
409.0,0.0,0.0,0.0,0.0,0.0,0.0,0.01619935967028141,0.006698272190988064,0.049834124743938446,0.9991321563720703,-0.008832411840558052,-0.04070132598280907,-0.0007388288504444063
410.0,0.0,0.0,0.0,0.0,0.0,0.0,0.01784285344183445,0.00569541472941637,0.04955477640032768,0.9990721344947815,-0.008527159690856934,-0.04220889136195183,-0.0005941413110122085
411.0,0.0,0.0,0.0,0.0,0.0,0.0,0.021708035841584206,0.005755809601396322,0.04106535762548447,0.9989913105964661,-0.007630120497196913,-0.044246453791856766,-0.0006065735942684114
412.0,0.0,0.0,0.0,0.0,0.0,0.0,0.0283584613353014,0.0019196256762370467,0.005691104102879763,0.9988892078399658,-0.0062067327089607716,-0.04670499265193939,-0.0007914028246887028
413.0,0.0,0.0,0.0,0.0,0.0,0.0,0.027746625244617462,-0.002120337449014187,-0.0003807690227404237,0.9987422227859497,-0.0044158026576042175,-0.04994150623679161,-0.0007494958117604256
414.0,0.0,0.0,0.0,0.0,0.0,0.0,0.02652212604880333,0.007319525349885225,0.016516197472810745,0.9985870718955994,-0.0024925614707171917,-0.05305798351764679,-0.0016219307435676455
415.0,0.0,0.0,0.0,0.0,0.0,0.0,0.015211016871035099,0.005504615604877472,0.027508368715643883,0.9985401034355164,-0.0020900482777506113,-0.05389399081468582,-0.0029475821647793055
416.0,0.0,0.0,0.0,0.0,0.0,0.0,0.0058961305767297745,-0.002347828820347786,0.010418582707643509,0.99857097864151,-0.00246566254645586,-0.05322045460343361,-0.004193903878331184
417.0,0.0,0.0,0.0,0.0,0.0,0.0,0.0032572802156209946,-0.0002942676073871553,-0.011585142463445663,0.9985814690589905,-0.002826373791322112,-0.05288594588637352,-0.005501653999090195
418.0,0.0,0.0,0.0,0.0,0.0,0.0,0.0014233628753572702,-0.003627726575359702,-0.03324243426322937,0.9985449910163879,-0.003013106295838952,-0.053480204194784164,-0.006220267154276371
419.0,0.0,0.0,0.0,0.0,0.0,0.0,-0.003352114697918296,-0.009917962364852428,-0.04572590813040733,0.9984571933746338,-0.00346098723821342,-0.055074237287044525,-0.006187123246490955
420.0,0.0,0.0,0.0,0.0,0.0,0.0,-0.007898423820734024,-0.014298273250460625,-0.0391361340880394,0.9983503222465515,-0.0044233063235878944,-0.05696161091327667,-0.0056926230899989605
421.0,0.0,0.0,0.0,0.0,0.0,0.0,-0.010128599591553211,-0.01623917743563652,-0.021994248032569885,0.9982597231864929,-0.005968613550066948,-0.05840807035565376,-0.005513297859579325
422.0,0.0,0.0,0.0,0.0,0.0,0.0,-0.013732725754380226,-0.017920395359396935,-0.004856406711041927,0.9981653094291687,-0.007716043386608362,-0.05982790142297745,-0.005240040831267834
423.0,0.0,0.0,0.0,0.0,0.0,0.0,-0.014341341331601143,-0.021746911108493805,-0.001953351544216275,0.9980910420417786,-0.009187057614326477,-0.060861069709062576,-0.005108456593006849
424.0,0.0,0.0,0.0,0.0,0.0,0.0,-0.013202187605202198,-0.02198709174990654,-0.005870656110346317,0.9980084896087646,-0.010610976256430149,-0.06199313700199127,-0.004814370535314083
425.0,0.0,0.0,0.0,0.0,0.0,0.0,-0.010747958905994892,-0.017847798764705658,-0.011975327506661415,0.9979256391525269,-0.012012563645839691,-0.06308266520500183,-0.0045538307167589664
426.0,0.0,0.0,0.0,0.0,0.0,0.0,-0.01264235284179449,-0.017213916406035423,-0.00033330541918985546,0.9978567361831665,-0.013213385827839375,-0.06390064209699631,-0.004906865302473307
427.0,0.0,0.0,0.0,0.0,0.0,0.0,-0.012756415642797947,-0.01636866107583046,0.01379362028092146,0.9977808594703674,-0.013629267923533916,-0.06498429924249649,-0.0050041768699884415
428.0,0.0,0.0,0.0,0.0,0.0,0.0,-0.009921851567924023,-0.014880990609526634,-0.005246871151030064,0.9977003931999207,-0.014028893783688545,-0.06613543629646301,-0.004869443364441395
429.0,0.0,0.0,0.0,0.0,0.0,0.0,-0.005697525106370449,-0.008737276308238506,-0.007523400243371725,0.9975989460945129,-0.014857860282063484,-0.06748238205909729,-0.004713044036179781
430.0,0.0,0.0,0.0,0.0,0.0,0.0,-0.005452797282487154,-0.004653176758438349,-0.0006699284422211349,0.9974837303161621,-0.01574825309216976,-0.06898148357868195,-0.004474820103496313
431.0,0.0,0.0,0.0,0.0,0.0,0.0,-0.00830355565994978,-0.005272895097732544,-0.006311509758234024,0.9973456263542175,-0.016545720398426056,-0.07080865651369095,-0.003732925048097968
432.0,0.0,0.0,0.0,0.0,0.0,0.0,-0.007777085527777672,-0.0019057522295042872,-0.011133329942822456,0.9972046613693237,-0.017890186980366707,-0.07249366492033005,-0.0027406136505305767
433.0,0.0,0.0,0.0,0.0,0.0,0.0,-0.01734747737646103,-0.002378088654950261,0.002830422716215253,0.9971110820770264,-0.019256776198744774,-0.07343988120555878,-0.002357638208195567
434.0,0.0,0.0,0.0,0.0,0.0,0.0,-0.020419741049408913,0.0006088872323743999,0.008122924715280533,0.9970744252204895,-0.02089274860918522,-0.07349163293838501,-0.0022739574778825045
435.0,0.0,0.0,0.0,0.0,0.0,0.0,-0.023890677839517593,0.00024988973746076226,0.013439265079796314,0.9971070885658264,-0.022765468806028366,-0.07247687131166458,-0.002524764509871602
436.0,0.0,0.0,0.0,0.0,0.0,0.0,-0.031093880534172058,-0.005477592349052429,0.014212827198207378,0.9972330331802368,-0.02556975558400154,-0.06970155239105225,-0.0037853154353797436
437.0,0.0,0.0,0.0,0.0,0.0,0.0,-0.03675837069749832,-0.008360955864191055,0.011054295115172863,0.9974469542503357,-0.028990410268306732,-0.06503617763519287,-0.005449711345136166
438.0,0.0,0.0,0.0,0.0,0.0,0.0,-0.035148102790117264,-0.00866958312690258,0.007098177447915077,0.9976456761360168,-0.03137769177556038,-0.06051481515169144,-0.007521245162934065
439.0,0.0,0.0,0.0,0.0,0.0,0.0,-0.03415459021925926,-0.008395923301577568,0.011229705065488815,0.9978649616241455,-0.03304841369390488,-0.05539897456765175,-0.010206945240497589
440.0,0.0,0.0,0.0,0.0,0.0,0.0,-0.03179328888654709,-0.00695815309882164,-0.010275567881762981,0.9980605244636536,-0.03426149860024452,-0.05042203143239021,-0.012601267546415329
441.0,0.0,0.0,0.0,0.0,0.0,0.0,-0.02467074804008007,-0.0036915347445756197,-0.010537291876971722,0.9982187151908875,-0.03450734168291092,-0.046473633497953415,-0.014448379166424274
442.0,0.0,0.0,0.0,0.0,0.0,0.0,-0.019553907215595245,-0.0023822560906410217,-0.011068381369113922,0.9983599781990051,-0.03386864811182022,-0.04336434602737427,-0.015807898715138435
443.0,0.0,0.0,0.0,0.0,0.0,0.0,-0.012965421192348003,0.006867873482406139,-0.004447858780622482,0.9985011219978333,-0.031943000853061676,-0.041113317012786865,-0.01688324846327305
444.0,0.0,0.0,0.0,0.0,0.0,0.0,-0.005391701124608517,0.014514751732349396,0.008494759909808636,0.9986684918403625,-0.028815247118473053,-0.03884624317288399,-0.017936650663614273
445.0,0.0,0.0,0.0,0.0,0.0,0.0,0.0013817920116707683,0.01804826781153679,0.0034056268632411957,0.9988459944725037,-0.025965023785829544,-0.035755254328250885,-0.01882197894155979
446.0,0.0,0.0,0.0,0.0,0.0,0.0,0.01140251662582159,0.02000388689339161,-0.0047276923432946205,0.9990177154541016,-0.023522360250353813,-0.03219645097851753,-0.0193355493247509
447.0,0.0,0.0,0.0,0.0,0.0,0.0,0.019819350913167,0.02304498665034771,-0.011816058307886124,0.9991737008094788,-0.02090916968882084,-0.029502199962735176,-0.018554162234067917
448.0,0.0,0.0,0.0,0.0,0.0,0.0,0.03374703601002693,0.028853902593255043,-0.027001965790987015,0.9992873668670654,-0.018116921186447144,-0.029066119343042374,-0.01586764305830002
449.0,0.0,0.0,0.0,0.0,0.0,0.0,0.04488759860396385,0.031072231009602547,-0.03850337490439415,0.9993562698364258,-0.014759717509150505,-0.030677838250994682,-0.011320835910737514
450.0,0.0,0.0,0.0,0.0,0.0,0.0,0.05340568348765373,0.038489148020744324,-0.018829165026545525,0.9993743896484375,-0.012243404984474182,-0.032438211143016815,-0.006992490962147713
451.0,0.0,0.0,0.0,0.0,0.0,0.0,0.04588444158434868,0.03767237067222595,0.016758495941758156,0.9993731379508972,-0.011347724124789238,-0.033391911536455154,-0.003099188208580017
452.0,0.0,0.0,0.0,0.0,0.0,0.0,0.04325113445520401,0.031081177294254303,0.025911344215273857,0.9993702173233032,-0.010809199884533882,-0.033800069242715836,7.154711784096435e-05
453.0,0.0,0.0,0.0,0.0,0.0,0.0,0.04364593327045441,0.025303330272436142,0.028230013325810432,0.9993557333946228,-0.010337073355913162,-0.03430691733956337,0.0021286988630890846
454.0,0.0,0.0,0.0,0.0,0.0,0.0,0.042718254029750824,0.02023053728044033,-0.0005880130338482559,0.9993246793746948,-0.010170331224799156,-0.03506023436784744,0.004192881286144257
455.0,0.0,0.0,0.0,0.0,0.0,0.0,0.04444160684943199,0.015542149543762207,-0.01802205480635166,0.999263346195221,-0.009978068992495537,-0.03664476424455643,0.005525933112949133
456.0,0.0,0.0,0.0,0.0,0.0,0.0,0.036510128527879715,0.011976324021816254,-0.0023485973943024874,0.9991851449012756,-0.009796254336833954,-0.0387994609773159,0.005282723344862461
457.0,0.0,0.0,0.0,0.0,0.0,0.0,0.030072057619690895,0.007803381886333227,-0.009088007733225822,0.9990819692611694,-0.010004326701164246,-0.04133009538054466,0.005201020743697882
458.0,0.0,0.0,0.0,0.0,0.0,0.0,0.026977846398949623,0.002201125957071781,-0.010034553706645966,0.998955488204956,-0.010457750409841537,-0.04417479783296585,0.005190721247345209
459.0,0.0,0.0,0.0,0.0,0.0,0.0,0.018027430400252342,-0.0055069406516849995,-3.569879845599644e-05,0.9988261461257935,-0.011394654400646687,-0.04679105430841446,0.005200227722525597
460.0,0.0,0.0,0.0,0.0,0.0,0.0,0.007482374086976051,-0.008817358873784542,0.01357339695096016,0.99871426820755,-0.013100221753120422,-0.048745978623628616,0.004693968687206507
461.0,0.0,0.0,0.0,0.0,0.0,0.0,3.887055936502293e-05,-0.01382638793438673,0.015729017555713654,0.9985896944999695,-0.015118252485990524,-0.05074087902903557,0.003923968877643347
462.0,0.0,0.0,0.0,0.0,0.0,0.0,-0.0021549828816205263,-0.01738574169576168,0.014129198156297207,0.9984613060951233,-0.016686391085386276,-0.05279180407524109,0.0031349598430097103
463.0,0.0,0.0,0.0,0.0,0.0,0.0,-0.00939718447625637,-0.030001649633049965,0.009865817613899708,0.99837327003479,-0.018522368744015694,-0.053920432925224304,0.0008705400978215039
464.0,0.0,0.0,0.0,0.0,0.0,0.0,-0.012786893174052238,-0.037461865693330765,0.009741437621414661,0.9982969760894775,-0.020915543660521507,-0.05443774536252022,-0.0015772095648571849
465.0,0.0,0.0,0.0,0.0,0.0,0.0,-0.014932814054191113,-0.043934259563684464,0.011024972423911095,0.9982119202613831,-0.024289974942803383,-0.05444416031241417,-0.004347937647253275
466.0,0.0,0.0,0.0,0.0,0.0,0.0,-0.02206115424633026,-0.05086018517613411,0.012519804760813713,0.998121440410614,-0.02843104489147663,-0.05380403995513916,-0.00710058119148016
467.0,0.0,0.0,0.0,0.0,0.0,0.0,-0.027639174833893776,-0.055667441338300705,0.023257164284586906,0.9980235695838928,-0.03224891424179077,-0.053027816116809845,-0.009840068407356739
468.0,0.0,0.0,0.0,0.0,0.0,0.0,-0.03165203332901001,-0.05645851045846939,0.023076131939888,0.9979279637336731,-0.03553261235356331,-0.052111588418483734,-0.012713697738945484
469.0,0.0,0.0,0.0,0.0,0.0,0.0,-0.030411221086978912,-0.05538136512041092,0.007722517475485802,0.997808039188385,-0.03855079412460327,-0.05155042186379433,-0.01535168569535017
470.0,0.0,0.0,0.0,0.0,0.0,0.0,-0.02961559407413006,-0.048350706696510315,-0.00019724738376680762,0.9976933598518372,-0.040994927287101746,-0.05102842301130295,-0.017984185367822647
471.0,0.0,0.0,0.0,0.0,0.0,0.0,-0.02857138402760029,-0.042834024876356125,-0.00848350953310728,0.9975740313529968,-0.04254227131605148,-0.05148274078965187,-0.01963549479842186
472.0,0.0,0.0,0.0,0.0,0.0,0.0,-0.027666151523590088,-0.036642011255025864,-0.02136375568807125,0.9974400401115417,-0.04394656419754028,-0.052148278802633286,-0.021512871608138084
473.0,0.0,0.0,0.0,0.0,0.0,0.0,-0.028599128127098083,-0.0316595584154129,-0.024885574355721474,0.9973455667495728,-0.04487732797861099,-0.052344441413879395,-0.023411918431520462
474.0,0.0,0.0,0.0,0.0,0.0,0.0,-0.026226043701171875,-0.022350482642650604,-0.016916261985898018,0.9973238110542297,-0.04531051591038704,-0.052139777690172195,-0.023955876007676125
475.0,0.0,0.0,0.0,0.0,0.0,0.0,-0.022847972810268402,-0.017653267830610275,-0.004817506764084101,0.9973133206367493,-0.045007675886154175,-0.052039679139852524,-0.025143688544631004
476.0,0.0,0.0,0.0,0.0,0.0,0.0,-0.013560295104980469,-0.007004908751696348,0.01664598286151886,0.9973574876785278,-0.043597206473350525,-0.05207955092191696,-0.025783967226743698
477.0,0.0,0.0,0.0,0.0,0.0,0.0,-0.003826443338766694,0.0009419419802725315,0.01614619791507721,0.9974561929702759,-0.04189388453960419,-0.0516328327357769,-0.025692583993077278
478.0,0.0,0.0,0.0,0.0,0.0,0.0,0.00890220608562231,0.010333873331546783,0.012098322622478008,0.9975655674934387,-0.03987254202365875,-0.051202163100242615,-0.025527996942400932
479.0,0.0,0.0,0.0,0.0,0.0,0.0,0.015019175596535206,0.0178175438195467,0.007761954329907894,0.9977012872695923,-0.03708533197641373,-0.05097026377916336,-0.024877801537513733
480.0,0.0,0.0,0.0,0.0,0.0,0.0,0.01700282283127308,0.024125009775161743,0.0018969147931784391,0.99787837266922,-0.034774571657180786,-0.04997545853257179,-0.023069074377417564
481.0,0.0,0.0,0.0,0.0,0.0,0.0,0.01256709173321724,0.024494120851159096,-0.00014000893861521035,0.9980843663215637,-0.032826002687215805,-0.04814133420586586,-0.020792698487639427
482.0,0.0,0.0,0.0,0.0,0.0,0.0,0.006232249550521374,0.023191912099719048,0.001245014718733728,0.9982770085334778,-0.029773017391562462,-0.04699165001511574,-0.018669310957193375
483.0,0.0,0.0,0.0,0.0,0.0,0.0,0.0033366431016474962,0.021015021950006485,0.011331429705023766,0.9984661936759949,-0.02677660435438156,-0.04495050013065338,-0.018107330426573753
484.0,0.0,0.0,0.0,0.0,0.0,0.0,0.002138345967978239,0.022122085094451904,-0.0043106661178171635,0.9986647367477417,-0.023847997188568115,-0.04210088774561882,-0.018094902858138084
485.0,0.0,0.0,0.0,0.0,0.0,0.0,0.003278495045378804,0.02308950014412403,-0.0172137264162302,0.9988510012626648,-0.021197941154241562,-0.03916245698928833,-0.017708197236061096
486.0,0.0,0.0,0.0,0.0,0.0,0.0,0.0012480099685490131,0.022410031408071518,-0.01357275154441595,0.9990285038948059,-0.019045216962695122,-0.03596172854304314,-0.01691495254635811
487.0,0.0,0.0,0.0,0.0,0.0,0.0,-0.006127474829554558,0.022390544414520264,-0.0253183301538229,0.9991855025291443,-0.017305197194218636,-0.03273448720574379,-0.01605132408440113
488.0,0.0,0.0,0.0,0.0,0.0,0.0,-0.008314217440783978,0.02597031183540821,-0.023692848160862923,0.9993330240249634,-0.01615835912525654,-0.029217921197414398,-0.014787040650844574
489.0,0.0,0.0,0.0,0.0,0.0,0.0,-0.008200588636100292,0.028768390417099,-0.009419101290404797,0.999455988407135,-0.014703289605677128,-0.026567108929157257,-0.012874064035713673
490.0,0.0,0.0,0.0,0.0,0.0,0.0,-0.003903488162904978,0.028844187036156654,-0.003535471623763442,0.9995591044425964,-0.012670265510678291,-0.024909013882279396,-0.010038387030363083
491.0,0.0,0.0,0.0,0.0,0.0,0.0,-0.0012530222302302718,0.028282184153795242,-0.0028927635867148638,0.9996365904808044,-0.010354433208703995,-0.02370322495698929,-0.0075913784094154835
492.0,0.0,0.0,0.0,0.0,0.0,0.0,0.0073871854692697525,0.03220917657017708,0.0051216925494372845,0.9996804594993591,-0.008077561855316162,-0.023446684703230858,-0.004940449260175228
493.0,0.0,0.0,0.0,0.0,0.0,0.0,0.012371418997645378,0.02564484067261219,0.006709104869514704,0.9997029304504395,-0.005467333365231752,-0.023618856444954872,-0.0025049319956451654
494.0,0.0,0.0,0.0,0.0,0.0,0.0,0.012628016993403435,0.016463693231344223,0.011790286749601364,0.999720573425293,-0.0032127052545547485,-0.02341659739613533,-0.0005083446158096194
495.0,0.0,0.0,0.0,0.0,0.0,0.0,0.01589203253388405,0.015032670460641384,0.022490637376904488,0.9997245073318481,-0.0010155434720218182,-0.023372307419776917,0.0019011270487681031
496.0,0.0,0.0,0.0,0.0,0.0,0.0,0.02431304380297661,0.009800655767321587,0.009564945474267006,0.9997409582138062,0.0012758803786709905,-0.022592224180698395,0.0024687331169843674
497.0,0.0,0.0,0.0,0.0,0.0,0.0,0.01792832277715206,-0.009251397103071213,0.012235880829393864,0.9997581243515015,0.0035109559539705515,-0.021626414731144905,0.0019766155164688826
498.0,0.0,0.0,0.0,0.0,0.0,0.0,0.017170079052448273,-0.02227763831615448,0.020149854943156242,0.9997491836547852,0.006343935616314411,-0.021392105147242546,0.0019659511744976044
499.0,0.0,0.0,0.0,0.0,0.0,0.0,0.03579001501202583,-0.006874488200992346,-0.0032565693836659193,0.9997223019599915,0.009964598342776299,-0.021298978477716446,0.0015930570662021637
500.0,0.0,0.0,0.0,0.0,0.0,0.0,0.04051853343844414,0.0068453457206487656,-0.003079317044466734,0.9997072219848633,0.012666444294154644,-0.020495226606726646,0.0021977792493999004
501.0,0.0,0.0,0.0,0.0,0.0,0.0,0.044181566685438156,0.010031919926404953,-0.02700379304587841,0.9997140765190125,0.013782781548798084,-0.01915840432047844,0.0038874060846865177
502.0,0.0,0.0,0.0,0.0,0.0,0.0,0.05113983154296875,0.013339532539248466,-0.03610006347298622,0.9997279047966003,0.014169201254844666,-0.017587849870324135,0.005859491880983114
503.0,0.0,0.0,0.0,0.0,0.0,0.0,0.04904041439294815,0.018010282889008522,-0.017427844926714897,0.9997285604476929,0.014344667084515095,-0.016737502068281174,0.00754117127507925
504.0,0.0,0.0,0.0,0.0,0.0,0.0,0.04793603718280792,0.019179683178663254,-0.03180978447198868,0.9997125267982483,0.014068523421883583,-0.016829684376716614,0.009684334509074688
505.0,0.0,0.0,0.0,0.0,0.0,0.0,0.05023347958922386,0.017184896394610405,-0.03518661484122276,0.99969482421875,0.013686949387192726,-0.017071643844246864,0.011464418843388557
506.0,0.0,0.0,0.0,0.0,0.0,0.0,0.043792083859443665,0.010592513717710972,-0.03158727288246155,0.9996856451034546,0.012943021021783352,-0.01739734224975109,0.012584254145622253
507.0,0.0,0.0,0.0,0.0,0.0,0.0,0.039547521620988846,-0.00042719580233097076,-0.03376070782542229,0.9996734857559204,0.011452318169176579,-0.018358906731009483,0.013605880551040173
508.0,0.0,0.0,0.0,0.0,0.0,0.0,0.03308502584695816,-0.008938423357903957,-0.03459708020091057,0.9996533989906311,0.00940992496907711,-0.019655391573905945,0.014764897525310516
509.0,0.0,0.0,0.0,0.0,0.0,0.0,0.02216164581477642,-0.018294354900717735,-0.02978900447487831,0.9996442794799805,0.00635916693136096,-0.02041759341955185,0.015953008085489273
510.0,0.0,0.0,0.0,0.0,0.0,0.0,0.009468147531151772,-0.029460474848747253,-0.013254928402602673,0.9996392130851746,0.002597705228254199,-0.02056201919913292,0.017101725563406944
511.0,0.0,0.0,0.0,0.0,0.0,0.0,-0.0024320408701896667,-0.03206086531281471,0.007435825653374195,0.9996321797370911,-0.0011961597483605146,-0.02054108865559101,0.01768256351351738
512.0,0.0,0.0,0.0,0.0,0.0,0.0,-0.0037200269289314747,-0.030959073454141617,0.007835892029106617,0.9996224641799927,-0.0045659104362130165,-0.020531006157398224,0.017683731392025948
513.0,0.0,0.0,0.0,0.0,0.0,0.0,-0.002406483283266425,-0.02922663278877735,0.003789461450651288,0.9995839595794678,-0.007544754538685083,-0.020847700536251068,0.018464945256710052
514.0,0.0,0.0,0.0,0.0,0.0,0.0,-0.002135845134034753,-0.021494269371032715,0.009496807120740414,0.9995272755622864,-0.010095557197928429,-0.021444203332066536,0.01958092674612999
515.0,0.0,0.0,0.0,0.0,0.0,0.0,-0.0006057886639609933,-0.011239888146519661,0.015422588214278221,0.9994567632675171,-0.012554270215332508,-0.0221081729978323,0.02097979746758938
516.0,0.0,0.0,0.0,0.0,0.0,0.0,-0.0029786790255457163,-0.003838370321318507,0.023989591747522354,0.9993690252304077,-0.015324119478464127,-0.022474925965070724,0.02285568229854107
517.0,0.0,0.0,0.0,0.0,0.0,0.0,0.005673618987202644,0.011280818842351437,0.023286918178200722,0.9992464184761047,-0.017734169960021973,-0.02241216041147709,0.02626873552799225
518.0,0.0,0.0,0.0,0.0,0.0,0.0,0.01310147624462843,0.019080663099884987,0.021651241928339005,0.9991078972816467,-0.019700756296515465,-0.023438895121216774,0.02909734845161438
519.0,0.0,0.0,0.0,0.0,0.0,0.0,0.010460439138114452,0.025216029956936836,0.0349862314760685,0.9989703893661499,-0.021702490746974945,-0.025683697313070297,0.030478963628411293
520.0,0.0,0.0,0.0,0.0,0.0,0.0,0.004714193753898144,0.026826821267604828,0.04178587719798088,0.9988403916358948,-0.02384641394019127,-0.027756398543715477,0.031286951154470444
521.0,0.0,0.0,0.0,0.0,0.0,0.0,0.0062927925027906895,0.03198453038930893,0.04611944407224655,0.9987135529518127,-0.02576456218957901,-0.029759174212813377,0.03196638077497482
522.0,0.0,0.0,0.0,0.0,0.0,0.0,0.005071019288152456,0.0246717669069767,0.03793581575155258,0.9986045360565186,-0.02724575437605381,-0.031784046441316605,0.03220716863870621
523.0,0.0,0.0,0.0,0.0,0.0,0.0,-0.00010938558989437297,0.01705164462327957,0.031067216768860817,0.9985204935073853,-0.02845006249845028,-0.033667612820863724,0.03185788914561272
524.0,0.0,0.0,0.0,0.0,0.0,0.0,-0.0039526610635221004,0.011185085400938988,0.024085618555545807,0.9984676837921143,-0.02966439723968506,-0.0351041778922081,0.03080584667623043
525.0,0.0,0.0,0.0,0.0,0.0,0.0,-0.008585808798670769,0.006537225563079119,0.012445845641195774,0.9984443783760071,-0.030692793428897858,-0.03606919199228287,0.029414702206850052
526.0,0.0,0.0,0.0,0.0,0.0,0.0,-0.011347516439855099,0.004109351895749569,0.0069571491330862045,0.9984228014945984,-0.03161780163645744,-0.0367223285138607,0.02836758643388748
527.0,0.0,0.0,0.0,0.0,0.0,0.0,-0.014329833909869194,0.002393364440649748,0.00244167004711926,0.9984402656555176,-0.032275792211294174,-0.036613259464502335,0.02712208777666092
528.0,0.0,0.0,0.0,0.0,0.0,0.0,-0.015155691653490067,0.0006531122489832342,-0.006110717076808214,0.998447835445404,-0.03304319456219673,-0.03493289276957512,0.028118744492530823
529.0,0.0,0.0,0.0,0.0,0.0,0.0,0.002783604199066758,0.013881835155189037,-0.013866979628801346,0.9984418153762817,-0.03316238522529602,-0.0336034782230854,0.029756229370832443
530.0,0.0,0.0,0.0,0.0,0.0,0.0,0.0005967721226625144,0.0028862329199910164,0.003161172615364194,0.9984701871871948,-0.033278029412031174,-0.03316935896873474,0.02915610559284687
531.0,0.0,0.0,0.0,0.0,0.0,0.0,0.0019991518929600716,3.8701877201674506e-05,-0.0015969115775078535,0.9984865188598633,-0.03333711624145508,-0.03421749174594879,0.02724318392574787
532.0,0.0,0.0,0.0,0.0,0.0,0.0,0.00164276291616261,0.007922534830868244,0.00556610245257616,0.9985294342041016,-0.03339799493551254,-0.035352401435375214,0.023969819769263268
533.0,0.0,0.0,0.0,0.0,0.0,0.0,6.87516076141037e-05,0.002013387158513069,0.00735464645549655,0.9985641241073608,-0.033271387219429016,-0.03596698120236397,0.02166125737130642
534.0,0.0,0.0,0.0,0.0,0.0,0.0,0.00604785094037652,-0.001576789072714746,-0.0010380982421338558,0.9985657334327698,-0.03297014534473419,-0.03700147569179535,0.020263614133000374
535.0,0.0,0.0,0.0,0.0,0.0,0.0,0.00793988723307848,-0.0031918035820126534,-0.01484930794686079,0.998563289642334,-0.032559484243392944,-0.03792022913694382,0.019327284768223763
536.0,0.0,0.0,0.0,0.0,0.0,0.0,0.008230702951550484,-0.001415924751199782,-0.006249893922358751,0.9985525012016296,-0.031799912452697754,-0.03894711285829544,0.019109006971120834
537.0,0.0,0.0,0.0,0.0,0.0,0.0,0.006636005826294422,-0.0020744658540934324,0.0012438672129064798,0.9985448122024536,-0.030515849590301514,-0.0399225614964962,0.019577771425247192
538.0,0.0,0.0,0.0,0.0,0.0,0.0,0.00436987541615963,-0.0029958242084831,0.006030763033777475,0.9985789060592651,-0.028960661962628365,-0.04036932438611984,0.01928267441689968
539.0,0.0,0.0,0.0,0.0,0.0,0.0,0.0022312523797154427,-0.0065241712145507336,0.01154290046542883,0.9986678957939148,-0.02752276323735714,-0.039811812341213226,0.017893679440021515
540.0,0.0,0.0,0.0,0.0,0.0,0.0,0.003966459073126316,-0.009249862283468246,0.01202778797596693,0.998757004737854,-0.026216013357043266,-0.03911631181836128,0.016348233446478844
541.0,0.0,0.0,0.0,0.0,0.0,0.0,0.009386522695422173,-0.011377363465726376,0.005985646974295378,0.9988324046134949,-0.025346383452415466,-0.03840347006917,0.0147284846752882
542.0,0.0,0.0,0.0,0.0,0.0,0.0,0.005801094695925713,-0.009187779389321804,0.012190110050141811,0.9988956451416016,-0.02409864217042923,-0.037776269018650055,0.01413755863904953
543.0,0.0,0.0,0.0,0.0,0.0,0.0,-0.0017641403246670961,-0.009647924453020096,0.02298734337091446,0.9989848732948303,-0.022675152868032455,-0.03633555397391319,0.013949675485491753
544.0,0.0,0.0,0.0,0.0,0.0,0.0,-0.003251951653510332,-0.0043310848996043205,0.03491533175110817,0.9990655779838562,-0.02122904360294342,-0.035222575068473816,0.01329813152551651
545.0,0.0,0.0,0.0,0.0,0.0,0.0,-0.002301279455423355,0.0016671083867549896,0.03254563733935356,0.999136209487915,-0.01957397349178791,-0.03451436012983322,0.01235612016171217
546.0,0.0,0.0,0.0,0.0,0.0,0.0,-0.0028138274792581797,0.001376737025566399,0.04529913142323494,0.9991917610168457,-0.017550017684698105,-0.03423374518752098,0.011660773307085037
547.0,0.0,0.0,0.0,0.0,0.0,0.0,-0.0027538896538317204,0.0045496090315282345,0.033233992755413055,0.9992621541023254,-0.015442035160958767,-0.033644575625658035,0.010244723409414291
548.0,0.0,0.0,0.0,0.0,0.0,0.0,-0.00495438976213336,0.008172326721251011,-0.0014696386642754078,0.9993245601654053,-0.01333850622177124,-0.033142611384391785,0.008617015555500984
549.0,0.0,0.0,0.0,0.0,0.0,0.0,-0.010068335570394993,0.0049958014860749245,-0.005759356543421745,0.999384880065918,-0.011446885764598846,-0.032306183129549026,0.007461382541805506
550.0,0.0,0.0,0.0,0.0,0.0,0.0,-0.006326109170913696,0.016612350940704346,-0.0013597760116681457,0.9994304776191711,-0.009041317738592625,-0.03185844048857689,0.00649043545126915
551.0,0.0,0.0,0.0,0.0,0.0,0.0,-0.002244133036583662,0.016137447208166122,-0.012227361090481281,0.9994277954101562,-0.006213682238012552,-0.032747603952884674,0.005787239409983158
552.0,0.0,0.0,0.0,0.0,0.0,0.0,0.0070840101689100266,0.015947185456752777,-0.05067453533411026,0.9993845820426941,-0.003838874865323305,-0.0344356968998909,0.005493177566677332
553.0,0.0,0.0,0.0,0.0,0.0,0.0,0.0063279177993535995,0.014671111479401588,-0.055051665753126144,0.9993045330047607,-0.002383159939199686,-0.03674715384840965,0.005854937247931957
554.0,0.0,0.0,0.0,0.0,0.0,0.0,0.008265583775937557,0.020944325253367424,-0.030557511374354362,0.9991793632507324,-0.001533034141175449,-0.0399513840675354,0.006497540511190891
555.0,0.0,0.0,0.0,0.0,0.0,0.0,0.010133033618330956,0.021344244480133057,0.006054470781236887,0.9990017414093018,-0.0007837219163775444,-0.04412848502397537,0.0069033922627568245
556.0,0.0,0.0,0.0,0.0,0.0,0.0,-0.004813508130609989,0.007608378771692514,-0.0014258584706112742,0.9988403916358948,-0.0009513980476185679,-0.047816790640354156,0.0055276271887123585
557.0,0.0,0.0,0.0,0.0,0.0,0.0,-0.010695014148950577,-0.0050177788361907005,-0.03708789125084877,0.9986340403556824,-0.0021958621218800545,-0.052079442888498306,0.0036483323201537132
558.0,0.0,0.0,0.0,0.0,0.0,0.0,-0.013983119279146194,-0.014722149819135666,-0.010373027995228767,0.9984098672866821,-0.004179410636425018,-0.05617193132638931,0.002291414886713028
559.0,0.0,0.0,0.0,0.0,0.0,0.0,-0.01551451813429594,-0.014469348825514317,0.025206267833709717,0.9981191158294678,-0.006839248351752758,-0.06087034195661545,0.002514372579753399
560.0,0.0,0.0,0.0,0.0,0.0,0.0,-0.020138874650001526,-0.015133903361856937,0.006615530699491501,0.9977976679801941,-0.010695649310946465,-0.06533212959766388,0.004203358665108681
561.0,0.0,0.0,0.0,0.0,0.0,0.0,-0.024529602378606796,-0.020709775388240814,-0.0637332946062088,0.9974992871284485,-0.016189780086278915,-0.06842202693223953,0.007171624340116978
562.0,0.0,0.0,0.0,0.0,0.0,0.0,-0.023881198838353157,-0.02113860473036766,-0.05619959533214569,0.9971855282783508,-0.020994707942008972,-0.07162207365036011,0.007136117666959763
563.0,0.0,0.0,0.0,0.0,0.0,0.0,-0.029287898913025856,-0.022842582315206528,0.02595442719757557,0.9968713521957397,-0.022843757644295692,-0.07547508180141449,0.005461696069687605
564.0,0.0,0.0,0.0,0.0,0.0,0.0,-0.030390240252017975,-0.022026419639587402,0.0038023577071726322,0.9966182112693787,-0.02510104887187481,-0.07817157357931137,0.0034545196685940027
565.0,0.0,0.0,0.0,0.0,0.0,0.0,-0.03255029022693634,-0.01615547016263008,0.02397446520626545,0.9964150190353394,-0.027300290763378143,-0.08007349073886871,-0.0005532968789339066
566.0,0.0,0.0,0.0,0.0,0.0,0.0,-0.049115441739559174,-0.021443253383040428,0.0017529807519167662,0.9962547421455383,-0.02791236713528633,-0.08165361732244492,-0.005492664873600006
567.0,0.0,0.0,0.0,0.0,0.0,0.0,-0.03580617904663086,-0.013804052956402302,-0.0766507089138031,0.9960868954658508,-0.029052745550870895,-0.08296802639961243,-0.009133606217801571
568.0,0.0,0.0,0.0,0.0,0.0,0.0,-0.039374954998493195,-0.0034151491709053516,-0.04345261678099632,0.9959405660629272,-0.031089691445231438,-0.08365005999803543,-0.011796003207564354
569.0,0.0,0.0,0.0,0.0,0.0,0.0,-0.045870594680309296,0.001896055182442069,-0.02271045185625553,0.9957880973815918,-0.03266749158501625,-0.08462559431791306,-0.01334291696548462
570.0,0.0,0.0,0.0,0.0,0.0,0.0,-0.039689891040325165,-0.001280503231100738,-0.040873780846595764,0.9956154227256775,-0.03434300795197487,-0.08590620011091232,-0.013791918754577637
571.0,0.0,0.0,0.0,0.0,0.0,0.0,-0.043255649507045746,-0.002579331863671541,-0.024343645200133324,0.9954970479011536,-0.03772689029574394,-0.08567541837692261,-0.014890455640852451
572.0,0.0,0.0,0.0,0.0,0.0,0.0,-0.04331519827246666,0.002879007486626506,0.01722641848027706,0.9953875541687012,-0.0427154004573822,-0.08436916768550873,-0.01617112196981907
573.0,0.0,0.0,0.0,0.0,0.0,0.0,-0.04275735095143318,0.002296475227922201,0.04796253889799118,0.9953028559684753,-0.04762044548988342,-0.08241934329271317,-0.017647726461291313
574.0,0.0,0.0,0.0,0.0,0.0,0.0,-0.04591769352555275,-0.0016202357364818454,0.05977911502122879,0.9952353835105896,-0.05154602974653244,-0.08032741397619247,-0.01994423195719719
575.0,0.0,0.0,0.0,0.0,0.0,0.0,-0.046553462743759155,-0.003553544171154499,0.019999565556645393,0.9951751232147217,-0.05394035950303078,-0.07885558158159256,-0.022333422675728798
576.0,0.0,0.0,0.0,0.0,0.0,0.0,-0.044126953929662704,-0.005784634966403246,-0.00823439471423626,0.9951191544532776,-0.05679909139871597,-0.07701541483402252,-0.02408703789114952
577.0,0.0,0.0,0.0,0.0,0.0,0.0,-0.04800243303179741,-0.004545359872281551,-0.012568265199661255,0.9949767589569092,-0.06071791052818298,-0.0752096101641655,-0.026052894070744514
578.0,0.0,0.0,0.0,0.0,0.0,0.0,-0.04661167412996292,-0.005551489535719156,-0.024120058864355087,0.9947884678840637,-0.06349711120128632,-0.07462379336357117,-0.028206491842865944
579.0,0.0,0.0,0.0,0.0,0.0,0.0,-0.0429869219660759,-0.008094058372080326,-0.014533093199133873,0.9946216344833374,-0.06551681458950043,-0.07461550831794739,-0.029461044818162918
580.0,0.0,0.0,0.0,0.0,0.0,0.0,-0.04590754210948944,-0.0029585096053779125,-0.022673793137073517,0.9945195913314819,-0.06722350418567657,-0.07381140440702438,-0.03105222061276436
581.0,0.0,0.0,0.0,0.0,0.0,0.0,-0.04644995927810669,0.0021755255293101072,0.020331162959337234,0.9944912791252136,-0.06846567243337631,-0.07219310104846954,-0.03297891467809677
582.0,0.0,0.0,0.0,0.0,0.0,0.0,-0.039325062185525894,0.005673019215464592,0.03855200111865997,0.9945775270462036,-0.06906590610742569,-0.06982093304395676,-0.034216657280921936
583.0,0.0,0.0,0.0,0.0,0.0,0.0,-0.028227033093571663,0.01046393346041441,0.03750094398856163,0.9947381615638733,-0.06851936876773834,-0.06745932996273041,-0.03536480292677879
584.0,0.0,0.0,0.0,0.0,0.0,0.0,-0.023818468675017357,0.00889719557017088,0.028921721503138542,0.9949992299079895,-0.06722886115312576,-0.06466122716665268,-0.03571930527687073
585.0,0.0,0.0,0.0,0.0,0.0,0.0,-0.014610475860536098,0.00932744238525629,0.006120416335761547,0.9952502846717834,-0.06576363742351532,-0.06256110221147537,-0.03518753871321678
586.0,0.0,0.0,0.0,0.0,0.0,0.0,-0.00530761294066906,0.015759196132421494,0.0025259535759687424,0.9955534338951111,-0.06332284957170486,-0.060919005423784256,-0.03395326808094978
587.0,0.0,0.0,0.0,0.0,0.0,0.0,-0.004592647776007652,0.016785601153969765,0.010567935183644295,0.9958887100219727,-0.06028798222541809,-0.059550002217292786,-0.032019276171922684
588.0,0.0,0.0,0.0,0.0,0.0,0.0,-0.002631885465234518,0.017089230939745903,0.01161273568868637,0.9962151646614075,-0.05680699646472931,-0.058435097336769104,-0.030229875817894936
589.0,0.0,0.0,0.0,0.0,0.0,0.0,0.002442409982904792,0.02159487083554268,0.01596917025744915,0.996558427810669,-0.053516801446676254,-0.05666429176926613,-0.028223639354109764
590.0,0.0,0.0,0.0,0.0,0.0,0.0,0.0063650235533714294,0.021305888891220093,0.009421237744390965,0.9969215393066406,-0.05002196505665779,-0.054479386657476425,-0.026029197499155998
591.0,0.0,0.0,0.0,0.0,0.0,0.0,0.0053920140489935875,0.016393356025218964,0.009217767976224422,0.9972677826881409,-0.04686712846159935,-0.05162964016199112,-0.02438824437558651
592.0,0.0,0.0,0.0,0.0,0.0,0.0,0.007507225498557091,0.018160786479711533,0.011228256858885288,0.9975984692573547,-0.04389398917555809,-0.04843484237790108,-0.022913215681910515
593.0,0.0,0.0,0.0,0.0,0.0,0.0,0.009922832250595093,0.019373707473278046,0.004586389753967524,0.9978811144828796,-0.041090335696935654,-0.04563187062740326,-0.021516215056180954
594.0,0.0,0.0,0.0,0.0,0.0,0.0,0.017521187663078308,0.015346834436058998,-0.00827619805932045,0.9981253743171692,-0.03849570080637932,-0.043715305626392365,-0.018788231536746025
595.0,0.0,0.0,0.0,0.0,0.0,0.0,0.021895205602049828,0.013089265674352646,-0.008214853703975677,0.9983389973640442,-0.0362100824713707,-0.04184313863515854,-0.016043955460190773
596.0,0.0,0.0,0.0,0.0,0.0,0.0,0.023847930133342743,0.010339652188122272,-0.0004513543681241572,0.9984709024429321,-0.034903526306152344,-0.04041724652051926,-0.01429089903831482
597.0,0.0,0.0,0.0,0.0,0.0,0.0,0.02675555646419525,0.009279836900532246,0.00018759335216600448,0.9985724687576294,-0.033555809408426285,-0.03961768373847008,-0.012557515874505043
598.0,0.0,0.0,0.0,0.0,0.0,0.0,0.027983512729406357,0.005542868282645941,-0.0009857898112386465,0.9986300468444824,-0.03240522742271423,-0.0394287034869194,-0.011542480438947678
599.0,0.0,0.0,0.0,0.0,0.0,0.0,0.02575075440108776,0.00034814010723493993,-0.0018840004922822118,0.9986301064491272,-0.03156130015850067,-0.04001818969845772,-0.01184577215462923
600.0,0.0,0.0,0.0,0.0,0.0,0.0,0.026936016976833344,-0.003760941792279482,-0.01059833262115717,0.9986087679862976,-0.03067798912525177,-0.041258808225393295,-0.011730767786502838
601.0,0.0,0.0,0.0,0.0,0.0,0.0,0.0232546329498291,-0.0056735496036708355,-0.0052439128048717976,0.9985823631286621,-0.029844705015420914,-0.04243897274136543,-0.011912825517356396
602.0,0.0,0.0,0.0,0.0,0.0,0.0,0.013270660303533077,-0.00579470582306385,0.018641607835888863,0.9985781311988831,-0.0290195532143116,-0.042894840240478516,-0.0126295555382967
603.0,0.0,0.0,0.0,0.0,0.0,0.0,0.007249773014336824,-0.007233835756778717,0.016610894352197647,0.99859619140625,-0.028616085648536682,-0.042427562177181244,-0.013656899333000183
604.0,0.0,0.0,0.0,0.0,0.0,0.0,0.008478261530399323,-0.006835293956100941,0.009035312570631504,0.9986382126808167,-0.028027694672346115,-0.04158706218004227,-0.014375075697898865
605.0,0.0,0.0,0.0,0.0,0.0,0.0,0.009449944831430912,-0.012113566510379314,-0.00045785403926856816,0.9986885190010071,-0.027285492047667503,-0.0407898910343647,-0.01459471881389618
606.0,0.0,0.0,0.0,0.0,0.0,0.0,0.00785717461258173,-0.015473849140107632,-0.011946365237236023,0.9987270832061768,-0.026736145839095116,-0.040106650441884995,-0.01486497838050127
607.0,0.0,0.0,0.0,0.0,0.0,0.0,0.009556318633258343,-0.013751156628131866,-0.005348160397261381,0.9987809658050537,-0.02581782080233097,-0.039229828864336014,-0.015211062505841255
608.0,0.0,0.0,0.0,0.0,0.0,0.0,0.010937678627669811,-0.01504112035036087,-0.010170120745897293,0.9988523721694946,-0.02525404468178749,-0.03763362020254135,-0.015503854490816593
609.0,0.0,0.0,0.0,0.0,0.0,0.0,0.012072360143065453,-0.015565549954771996,-0.020313741639256477,0.9989063143730164,-0.025483543053269386,-0.03599579259753227,-0.01553351804614067
610.0,0.0,0.0,0.0,0.0,0.0,0.0,0.015585840679705143,-0.012453751638531685,-0.013372867368161678,0.9989593029022217,-0.02590980753302574,-0.034296050667762756,-0.0152581837028265
611.0,0.0,0.0,0.0,0.0,0.0,0.0,0.01747295632958412,-0.010351511649787426,-0.002656587166711688,0.9990310668945312,-0.026257961988449097,-0.0323915109038353,-0.014085671864449978
612.0,0.0,0.0,0.0,0.0,0.0,0.0,0.015113444067537785,-0.009976898320019245,0.007798703853040934,0.9990993142127991,-0.026292355731129646,-0.03063945844769478,-0.013071348890662193
613.0,0.0,0.0,0.0,0.0,0.0,0.0,0.013690926134586334,-0.0101464306935668,0.014039503410458565,0.9991648197174072,-0.02581922709941864,-0.029069334268569946,-0.012576260603964329
614.0,0.0,0.0,0.0,0.0,0.0,0.0,0.02072797156870365,-0.009920289739966393,0.009453864768147469,0.9992518424987793,-0.024418113753199577,-0.027410531416535378,-0.012188125401735306
615.0,0.0,0.0,0.0,0.0,0.0,0.0,0.029055451974272728,-0.008089376613497734,0.006304480135440826,0.999323844909668,-0.022596510127186775,-0.02644461952149868,-0.011914586648344994
616.0,0.0,0.0,0.0,0.0,0.0,0.0,0.03494758903980255,-0.011086085811257362,-0.0020336902234703302,0.9993712902069092,-0.020870758220553398,-0.025766979902982712,-0.012589768506586552
617.0,0.0,0.0,0.0,0.0,0.0,0.0,0.03963802382349968,-0.006722459103912115,0.0002044222055701539,0.999411940574646,-0.018879873678088188,-0.024952733889222145,-0.014018554240465164
618.0,0.0,0.0,0.0,0.0,0.0,0.0,0.042739298194646835,-0.004612607415765524,0.0005162463639862835,0.999431848526001,-0.016408246010541916,-0.025651488453149796,-0.014451227150857449
619.0,0.0,0.0,0.0,0.0,0.0,0.0,0.043509189039468765,-0.007895704358816147,-0.0017063225386664271,0.9994380474090576,-0.014394871890544891,-0.026537107303738594,-0.014589627273380756
620.0,0.0,0.0,0.0,0.0,0.0,0.0,0.04671623557806015,-0.004212350118905306,-0.0008946952875703573,0.9994266629219055,-0.012882495298981667,-0.027770880609750748,-0.014469044283032417
621.0,0.0,0.0,0.0,0.0,0.0,0.0,0.045873645693063736,-0.0014950752956792712,0.0023175824899226427,0.9994034171104431,-0.011843474581837654,-0.02930193394422531,-0.013940376229584217
622.0,0.0,0.0,0.0,0.0,0.0,0.0,0.04292086884379387,0.0011124933371320367,0.0059480927884578705,0.9993726015090942,-0.011025556363165379,-0.030621064826846123,-0.014014062471687794
623.0,0.0,0.0,0.0,0.0,0.0,0.0,0.03651697561144829,0.003750538919121027,0.009407833218574524,0.9993540644645691,-0.010556367225944996,-0.03130219876766205,-0.014192327857017517
624.0,0.0,0.0,0.0,0.0,0.0,0.0,0.03504636138677597,0.004142238758504391,0.012056803330779076,0.9993276596069336,-0.010198906995356083,-0.03233084827661514,-0.013976844027638435
625.0,0.0,0.0,0.0,0.0,0.0,0.0,0.032643385231494904,0.004686294123530388,0.013066108338534832,0.9993000030517578,-0.0101822754368186,-0.03336233273148537,-0.013544389046728611
626.0,0.0,0.0,0.0,0.0,0.0,0.0,0.0343942791223526,0.010012820363044739,0.010404854081571102,0.9992729425430298,-0.010284281335771084,-0.03435688465833664,-0.012933718040585518
627.0,0.0,0.0,0.0,0.0,0.0,0.0,0.038832444697618484,0.015070067718625069,0.0005314367008395493,0.9992526173591614,-0.010231822729110718,-0.035285014659166336,-0.01200086623430252
628.0,0.0,0.0,0.0,0.0,0.0,0.0,0.037180762737989426,0.0156698115170002,-0.002045628847554326,0.999238908290863,-0.010581303387880325,-0.03612029552459717,-0.010264222510159016
629.0,0.0,0.0,0.0,0.0,0.0,0.0,0.03467043116688728,0.018244152888655663,0.007883381098508835,0.999222457408905,-0.011057721450924873,-0.036857061088085175,-0.008654068224132061
630.0,0.0,0.0,0.0,0.0,0.0,0.0,0.03322535753250122,0.01822555996477604,0.006549435667693615,0.999191164970398,-0.011557972058653831,-0.03785257413983345,-0.007111472077667713
631.0,0.0,0.0,0.0,0.0,0.0,0.0,0.03741167485713959,0.018022768199443817,-0.00711341155692935,0.9991218447685242,-0.012155371718108654,-0.03966187685728073,-0.005859524942934513
632.0,0.0,0.0,0.0,0.0,0.0,0.0,0.039062049239873886,0.02048156037926674,-0.008919203653931618,0.9990028142929077,-0.013253768905997276,-0.04239661246538162,-0.004636811092495918
633.0,0.0,0.0,0.0,0.0,0.0,0.0,0.033156782388687134,0.015842659398913383,0.0011799792991951108,0.9988471865653992,-0.01402742974460125,-0.045780956745147705,-0.0033809319138526917
634.0,0.0,0.0,0.0,0.0,0.0,0.0,0.023761454969644547,0.008820959366858006,0.01657961495220661,0.9986668229103088,-0.01524248719215393,-0.04926775395870209,-0.0018901816802099347
635.0,0.0,0.0,0.0,0.0,0.0,0.0,0.015371162444353104,0.003560312557965517,0.030240453779697418,0.9984679222106934,-0.016887621954083443,-0.05270206555724144,-0.0006983094499446452
636.0,0.0,0.0,0.0,0.0,0.0,0.0,0.006140870042145252,-0.0025067422538995743,0.046504296362400055,0.998271107673645,-0.018155401572585106,-0.05589950457215309,-0.000788857345469296
637.0,0.0,0.0,0.0,0.0,0.0,0.0,0.0009158402099274099,-0.006653181742876768,0.04994712769985199,0.9980707764625549,-0.01886671595275402,-0.0591532401740551,-0.000865102862007916
638.0,0.0,0.0,0.0,0.0,0.0,0.0,-0.000500900496263057,-0.01052851602435112,0.04291699081659317,0.9979020357131958,-0.01873674988746643,-0.06196168437600136,-0.000909628695808351
639.0,0.0,0.0,0.0,0.0,0.0,0.0,-0.007909370586276054,-0.013055002316832542,0.04094306379556656,0.9978063702583313,-0.018120840191841125,-0.06366748362779617,-0.000942332437261939
640.0,0.0,0.0,0.0,0.0,0.0,0.0,-0.022060897201299667,-0.01854453794658184,0.03811342269182205,0.9978018403053284,-0.018715277314186096,-0.06354498863220215,-0.002121018711477518
641.0,0.0,0.0,0.0,0.0,0.0,0.0,-0.02734014391899109,-0.023048365488648415,0.030215993523597717,0.9978488087654114,-0.019710727035999298,-0.06238439306616783,-0.004129956476390362
642.0,0.0,0.0,0.0,0.0,0.0,0.0,-0.020580986514687538,-0.02461184188723564,0.00030123526812531054,0.9979305863380432,-0.020912518724799156,-0.06060078740119934,-0.005070215556770563
643.0,0.0,0.0,0.0,0.0,0.0,0.0,-0.019207613542675972,-0.02368590049445629,-0.01689327135682106,0.9980077147483826,-0.02237766608595848,-0.05868634209036827,-0.0060549285262823105
644.0,0.0,0.0,0.0,0.0,0.0,0.0,-0.01969725266098976,-0.02376502752304077,-0.032052766531705856,0.9980828762054443,-0.023583294823765755,-0.05684259533882141,-0.006667659617960453
645.0,0.0,0.0,0.0,0.0,0.0,0.0,-0.02481718920171261,-0.02747502364218235,-0.03459983319044113,0.9981510639190674,-0.02479361556470394,-0.05493828281760216,-0.007865624502301216
646.0,0.0,0.0,0.0,0.0,0.0,0.0,-0.02845674194395542,-0.030050141736865044,-0.02799226902425289,0.9982222318649292,-0.025387078523635864,-0.0528627447783947,-0.010625336319208145
647.0,0.0,0.0,0.0,0.0,0.0,0.0,-0.023157108575105667,-0.029306869953870773,-0.03178751468658447,0.998260498046875,-0.02556225284934044,-0.05134359374642372,-0.013657438568770885
648.0,0.0,0.0,0.0,0.0,0.0,0.0,-0.020084524527192116,-0.029044223949313164,-0.04183291643857956,0.9983124136924744,-0.02547355927526951,-0.04976819455623627,-0.015698181465268135
649.0,0.0,0.0,0.0,0.0,0.0,0.0,-0.017088662832975388,-0.024515662342309952,-0.03857028856873512,0.9983674883842468,-0.02547251246869564,-0.04829361289739609,-0.01677795872092247
650.0,0.0,0.0,0.0,0.0,0.0,0.0,-0.02158619649708271,-0.021673932671546936,-0.0206438135355711,0.9984611868858337,-0.025440694764256477,-0.045845404267311096,-0.018047045916318893
651.0,0.0,0.0,0.0,0.0,0.0,0.0,-0.02918284200131893,-0.014965060167014599,0.013302093371748924,0.9985729455947876,-0.025005536153912544,-0.0431186780333519,-0.01917838305234909
652.0,0.0,0.0,0.0,0.0,0.0,0.0,-0.016758611425757408,-0.006942414678633213,0.006351945456117392,0.9986954927444458,-0.02388574182987213,-0.04078438878059387,-0.019351812079548836
653.0,0.0,0.0,0.0,0.0,0.0,0.0,0.0010628829477354884,-0.00019118007912766188,-0.014161402359604836,0.9988207221031189,-0.022010020911693573,-0.03877294808626175,-0.019230861216783524
654.0,0.0,0.0,0.0,0.0,0.0,0.0,0.006943773943930864,0.008198016323149204,-0.008586707524955273,0.9989331364631653,-0.01981048472225666,-0.037005916237831116,-0.01924336701631546
655.0,0.0,0.0,0.0,0.0,0.0,0.0,0.014898672699928284,0.014875467866659164,-0.009350842796266079,0.9990483522415161,-0.017227262258529663,-0.035730112344026566,-0.018145477399230003
656.0,0.0,0.0,0.0,0.0,0.0,0.0,0.031462837010622025,0.029598405584692955,-0.01560797169804573,0.9991427063941956,-0.014376730658113956,-0.03513885661959648,-0.016517365351319313
657.0,0.0,0.0,0.0,0.0,0.0,0.0,0.039380207657814026,0.03499658405780792,-0.016525546088814735,0.9992019534111023,-0.012193197384476662,-0.03505866602063179,-0.014771150425076485
658.0,0.0,0.0,0.0,0.0,0.0,0.0,0.04374534636735916,0.04275098443031311,-0.011520054191350937,0.9992300271987915,-0.010554362088441849,-0.03576779365539551,-0.012212379835546017
659.0,0.0,0.0,0.0,0.0,0.0,0.0,0.042355217039585114,0.0479341559112072,-0.0006016807747073472,0.9992260336875916,-0.008941381238400936,-0.037412986159324646,-0.008306664414703846
660.0,0.0,0.0,0.0,0.0,0.0,0.0,0.038399312645196915,0.05527542904019356,0.013698588125407696,0.9991765022277832,-0.007551541086286306,-0.039668597280979156,-0.003999027889221907
661.0,0.0,0.0,0.0,0.0,0.0,0.0,0.03255010023713112,0.060668084770441055,0.033938098698854446,0.999101996421814,-0.0067536006681621075,-0.04183877259492874,0.00023664908076170832
662.0,0.0,0.0,0.0,0.0,0.0,0.0,0.028793221339583397,0.058759674429893494,0.05803336948156357,0.9990156292915344,-0.006353165954351425,-0.04375076666474342,0.003721133340150118
663.0,0.0,0.0,0.0,0.0,0.0,0.0,0.0338931530714035,0.049545034766197205,0.0587894506752491,0.9989305734634399,-0.006527942139655352,-0.04528363049030304,0.0066803316585719585
664.0,0.0,0.0,0.0,0.0,0.0,0.0,0.03533143177628517,0.034864865243434906,0.05323132500052452,0.998820960521698,-0.007020173594355583,-0.047176968306303024,0.009061228483915329
665.0,0.0,0.0,0.0,0.0,0.0,0.0,0.032370127737522125,0.01364720705896616,0.03687845543026924,0.9987073540687561,-0.008151273243129253,-0.04920521378517151,0.009845094755291939
666.0,0.0,0.0,0.0,0.0,0.0,0.0,0.03180248662829399,-0.000953233742620796,0.019665012136101723,0.9985756278038025,-0.009346244856715202,-0.05152801051735878,0.010288696736097336
667.0,0.0,0.0,0.0,0.0,0.0,0.0,0.02685064822435379,-0.01596296764910221,-0.00014123902656137943,0.9984544515609741,-0.010873307473957539,-0.05348953232169151,0.010487658903002739
668.0,0.0,0.0,0.0,0.0,0.0,0.0,0.015609518624842167,-0.02792513743042946,-0.010571815073490143,0.9983521103858948,-0.013207526877522469,-0.05498002842068672,0.009855957701802254
669.0,0.0,0.0,0.0,0.0,0.0,0.0,0.007529957219958305,-0.03959985822439194,-0.019445817917585373,0.9982720017433167,-0.016018861904740334,-0.05578706040978432,0.00922696478664875
670.0,0.0,0.0,0.0,0.0,0.0,0.0,0.0027292815502732992,-0.03773149102926254,-0.013010255992412567,0.9981623888015747,-0.019014369696378708,-0.05691220983862877,0.008521713316440582
671.0,0.0,0.0,0.0,0.0,0.0,0.0,-0.014150393195450306,-0.04103391617536545,0.0014277645386755466,0.998049795627594,-0.0221315398812294,-0.0580100454390049,0.006468989886343479
672.0,0.0,0.0,0.0,0.0,0.0,0.0,-0.024711426347494125,-0.040864165872335434,0.007948823273181915,0.9979425072669983,-0.024863868951797485,-0.058895498514175415,0.004924601875245571
673.0,0.0,0.0,0.0,0.0,0.0,0.0,-0.026397084817290306,-0.03847954794764519,0.0055797165259718895,0.9978463649749756,-0.026874152943491936,-0.05967377871274948,0.00443036574870348
674.0,0.0,0.0,0.0,0.0,0.0,0.0,-0.028992626816034317,-0.04063887894153595,0.005994858685880899,0.9977627396583557,-0.028656259179115295,-0.06029137596487999,0.0036258872132748365
675.0,0.0,0.0,0.0,0.0,0.0,0.0,-0.02716732770204544,-0.037460807710886,0.004642180632799864,0.9977201819419861,-0.029786907136440277,-0.06049751117825508,0.0028211658354848623
676.0,0.0,0.0,0.0,0.0,0.0,0.0,-0.026783334091305733,-0.034820400178432465,0.007845493033528328,0.997704267501831,-0.030189979821443558,-0.0605546198785305,0.002782143885269761
677.0,0.0,0.0,0.0,0.0,0.0,0.0,-0.03020901046693325,-0.0334867499768734,0.00990363396704197,0.9977560043334961,-0.029645562171936035,-0.059928473085165024,0.0036617594305425882
678.0,0.0,0.0,0.0,0.0,0.0,0.0,-0.031997308135032654,-0.026525430381298065,0.03279463201761246,0.9978697896003723,-0.02805578149855137,-0.058531224727630615,0.006537809036672115
679.0,0.0,0.0,0.0,0.0,0.0,0.0,-0.016690880060195923,-0.018829282373189926,0.03529859706759453,0.997973620891571,-0.025778884068131447,-0.056761302053928375,0.012752272188663483
680.0,0.0,0.0,0.0,0.0,0.0,0.0,-0.007783721201121807,0.0009713787003420293,0.0888587087392807,0.9979836940765381,-0.022385865449905396,-0.05565207451581955,0.02075120620429516
681.0,0.0,0.0,0.0,0.0,0.0,0.0,-0.02506016567349434,0.018517473712563515,0.14661912620067596,0.9979543685913086,-0.018189456313848495,-0.055035024881362915,0.026975808665156364
682.0,0.0,0.0,0.0,0.0,0.0,0.0,-0.0799776241183281,-0.01421869732439518,0.14758895337581635,0.9981811046600342,-0.016049550846219063,-0.04834514856338501,0.03224737569689751
683.0,0.0,0.0,0.0,0.0,0.0,0.0,-0.02261193096637726,-0.009307793341577053,0.09940328449010849,0.998350977897644,-0.013366411440074444,-0.0429089218378067,0.03571130707859993
684.0,0.0,0.0,0.0,0.0,0.0,0.0,0.02547401189804077,-0.02303185872733593,-0.03996475413441658,0.9983818531036377,-0.009967531077563763,-0.04133738949894905,0.03776601329445839
685.0,0.0,0.0,0.0,0.0,0.0,0.0,0.04345672205090523,-0.02674229070544243,-0.12617196142673492,0.9984064102172852,-0.0066232443787157536,-0.04166492447257042,0.037493254989385605
686.0,0.0,0.0,0.0,0.0,0.0,0.0,0.04144417122006416,-0.01752251759171486,-0.11107126623392105,0.9984127283096313,-0.002750772051513195,-0.04322046414017677,0.03600529581308365
687.0,0.0,0.0,0.0,0.0,0.0,0.0,0.030473174527287483,-0.016772445291280746,-0.11993163079023361,0.9984001517295837,-0.00033817676012404263,-0.04412582516670227,0.0353587381541729
688.0,0.0,0.0,0.0,0.0,0.0,0.0,0.0217896681278944,-0.0030015406664460897,-0.08814910054206848,0.9984939098358154,0.0001646247401367873,-0.0431075282394886,0.033946238458156586
689.0,0.0,0.0,0.0,0.0,0.0,0.0,0.008797157555818558,0.010828579775989056,-0.012225352227687836,0.9986590147018433,-0.0007565211271867156,-0.04144899919629097,0.031013406813144684
690.0,0.0,0.0,0.0,0.0,0.0,0.0,0.0005130564095452428,0.006967322900891304,-0.008378871716558933,0.9988420605659485,-0.0022342808078974485,-0.03948041424155235,0.027405235916376114
691.0,0.0,0.0,0.0,0.0,0.0,0.0,0.00715875718742609,0.005472765304148197,-0.034017689526081085,0.9989705681800842,-0.004084100481122732,-0.03842606768012047,0.023762114346027374
692.0,0.0,0.0,0.0,0.0,0.0,0.0,0.002737963804975152,0.004332346376031637,-0.027871672064065933,0.9990253448486328,-0.006211897358298302,-0.038662299513816833,0.0203752089291811
693.0,0.0,0.0,0.0,0.0,0.0,0.0,-0.021130697801709175,-0.0030487445183098316,-0.0010102733504027128,0.999032735824585,-0.007301927078515291,-0.04010644555091858,0.016488470137119293
694.0,0.0,0.0,0.0,0.0,0.0,0.0,-0.035968828946352005,-0.007108611986041069,0.006835547741502523,0.999005138874054,-0.007968779653310776,-0.041983917355537415,0.012748056091368198
695.0,0.0,0.0,0.0,0.0,0.0,0.0,-0.03606223687529564,-0.003623978001996875,0.008816877380013466,0.9989693760871887,-0.008395418524742126,-0.04351529851555824,0.009808066301047802
696.0,0.0,0.0,0.0,0.0,0.0,0.0,-0.043029770255088806,-0.012344683520495892,0.01372203603386879,0.9989540576934814,-0.009627653285861015,-0.04405210539698601,0.007617270108312368
697.0,0.0,0.0,0.0,0.0,0.0,0.0,-0.03709859773516655,-0.0035014322493225336,0.01725786365568638,0.9989656805992126,-0.011400791816413403,-0.04355427250266075,0.006403988227248192
698.0,0.0,0.0,0.0,0.0,0.0,0.0,-0.038372717797756195,-0.0073860944248735905,-0.008187411352992058,0.9989692568778992,-0.013180351816117764,-0.042929280549287796,0.006617291830480099
699.0,0.0,0.0,0.0,0.0,0.0,0.0,-0.036489494144916534,-0.006364983972162008,-0.019039366394281387,0.9989582896232605,-0.015199806541204453,-0.04222339019179344,0.008273650892078876
700.0,0.0,0.0,0.0,0.0,0.0,0.0,-0.02848668582737446,-0.005072875879704952,-0.04628723859786987,0.9989650249481201,-0.017827147617936134,-0.040829818695783615,0.009164988063275814
701.0,0.0,0.0,0.0,0.0,0.0,0.0,-0.026376621797680855,-0.000653228082228452,-0.03359619900584221,0.9989452362060547,-0.020800521597266197,-0.039968300610780716,0.008849557489156723
702.0,0.0,0.0,0.0,0.0,0.0,0.0,-0.015731820836663246,0.008609567768871784,-0.0033074282109737396,0.9988939166069031,-0.021508196368813515,-0.04100574925541878,0.008195975795388222
703.0,0.0,0.0,0.0,0.0,0.0,0.0,-0.006357660051435232,0.010710681788623333,0.010496185161173344,0.998837411403656,-0.021440768614411354,-0.04256584867835045,0.007255803793668747
704.0,0.0,0.0,0.0,0.0,0.0,0.0,-0.004024441819638014,0.015422062948346138,0.006596521008759737,0.9988064169883728,-0.021624933928251266,-0.04353829845786095,0.004773318767547607
705.0,0.0,0.0,0.0,0.0,0.0,0.0,-0.00156429095659405,0.016381002962589264,-0.00010120306251337752,0.9987472295761108,-0.021129606291651726,-0.045353278517723083,0.000763860996812582
706.0,0.0,0.0,0.0,0.0,0.0,0.0,0.006817347835749388,0.009612212888896465,-0.016095884144306183,0.9986527562141418,-0.021079713478684425,-0.04731672257184982,-0.0031174058094620705
707.0,0.0,0.0,0.0,0.0,0.0,0.0,0.010043657384812832,0.013678113929927349,-0.015099992975592613,0.9985408782958984,-0.021764090284705162,-0.04898301884531975,-0.006621263921260834
708.0,0.0,0.0,0.0,0.0,0.0,0.0,0.004949892871081829,0.017198072746396065,-0.00898197665810585,0.9984036684036255,-0.022737106308341026,-0.05088382959365845,-0.00919755082577467
709.0,0.0,0.0,0.0,0.0,0.0,0.0,0.0003927507495973259,0.020593807101249695,-0.008026293478906155,0.9982759952545166,-0.024234678596258163,-0.05241372436285019,-0.010533811524510384
710.0,0.0,0.0,0.0,0.0,0.0,0.0,-0.005666661541908979,0.018822936341166496,-0.01008619461208582,0.99815434217453,-0.026187628507614136,-0.05354170873761177,-0.011642247438430786
711.0,0.0,0.0,0.0,0.0,0.0,0.0,-0.01050987746566534,0.0170297734439373,-0.008947379887104034,0.9980378150939941,-0.028412722051143646,-0.05451164022088051,-0.011917605996131897
712.0,0.0,0.0,0.0,0.0,0.0,0.0,-0.015575162135064602,0.020294858142733574,0.0034048783127218485,0.9979302287101746,-0.030610891059041023,-0.055135857313871384,-0.012600538320839405
713.0,0.0,0.0,0.0,0.0,0.0,0.0,-0.01718760095536709,0.02462679333984852,0.02112896554172039,0.9978637099266052,-0.032459698617458344,-0.05512396618723869,-0.013278241269290447
714.0,0.0,0.0,0.0,0.0,0.0,0.0,-0.01766861043870449,0.022458571940660477,0.023993154987692833,0.9978408813476562,-0.033327315002679825,-0.054915495216846466,-0.013680322095751762
715.0,0.0,0.0,0.0,0.0,0.0,0.0,-0.01744871959090233,0.01764613762497902,0.02284427359700203,0.9978287816047668,-0.03392130136489868,-0.054589033126831055,-0.01441402267664671
716.0,0.0,0.0,0.0,0.0,0.0,0.0,-0.015412233769893646,0.016089463606476784,0.011415359564125538,0.9978475570678711,-0.03468271344900131,-0.05345334857702255,-0.015492977574467659
717.0,0.0,0.0,0.0,0.0,0.0,0.0,-0.018059667199850082,0.014645973220467567,0.007119258865714073,0.9978987574577332,-0.035836800932884216,-0.05148954316973686,-0.016207614913582802
718.0,0.0,0.0,0.0,0.0,0.0,0.0,-0.019043339416384697,0.011394974775612354,-0.0006435979739762843,0.9979331493377686,-0.03661397099494934,-0.04989093169569969,-0.01731669157743454
719.0,0.0,0.0,0.0,0.0,0.0,0.0,-0.013668795116245747,0.012566809542477131,0.0015550038078799844,0.9979870319366455,-0.036344293504953384,-0.04833848401904106,-0.019095376133918762
720.0,0.0,0.0,0.0,0.0,0.0,0.0,-0.01640474796295166,0.009863474406301975,0.002892583142966032,0.9980621933937073,-0.03505798056721687,-0.04705619066953659,-0.020711950957775116
721.0,0.0,0.0,0.0,0.0,0.0,0.0,-0.014614876359701157,0.010531652718782425,0.0057985526509583,0.998173713684082,-0.033379070460796356,-0.044951003044843674,-0.022685743868350983
722.0,0.0,0.0,0.0,0.0,0.0,0.0,-0.013674835674464703,0.009598440490663052,0.024051807820796967,0.9982843995094299,-0.03233110159635544,-0.042486466467380524,-0.024043016135692596
723.0,0.0,0.0,0.0,0.0,0.0,0.0,-0.009822004474699497,0.007358753588050604,0.004954818170517683,0.9984138607978821,-0.031246664002537727,-0.040051162242889404,-0.024286087602376938
724.0,0.0,0.0,0.0,0.0,0.0,0.0,-0.002338180085644126,0.008280511014163494,0.008033561520278454,0.9985508918762207,-0.029510628432035446,-0.037666257470846176,-0.024620292708277702
725.0,0.0,0.0,0.0,0.0,0.0,0.0,0.0007693457300774753,0.008349312469363213,-0.0016850001411512494,0.9986675977706909,-0.027695298194885254,-0.03595300763845444,-0.024565327912569046
726.0,0.0,0.0,0.0,0.0,0.0,0.0,0.0068602487444877625,0.009578601457178593,-0.007796240039169788,0.9987708926200867,-0.025704387575387955,-0.034748926758766174,-0.02425345778465271
727.0,0.0,0.0,0.0,0.0,0.0,0.0,0.011242318898439407,0.011659687384963036,-0.00595750380307436,0.998875617980957,-0.023817066103219986,-0.03325432166457176,-0.023965666070580482
728.0,0.0,0.0,0.0,0.0,0.0,0.0,0.009938175790011883,0.009315257892012596,0.0028588257264345884,0.998982846736908,-0.021836057305336,-0.032139964401721954,-0.022885914891958237
729.0,0.0,0.0,0.0,0.0,0.0,0.0,0.013980984687805176,0.01020702626556158,0.003800870617851615,0.9991007447242737,-0.020070048049092293,-0.030350886285305023,-0.02176775597035885
730.0,0.0,0.0,0.0,0.0,0.0,0.0,0.018115341663360596,0.016212040558457375,0.004210113547742367,0.9991826415061951,-0.018640028312802315,-0.02871796488761902,-0.02149565890431404
731.0,0.0,0.0,0.0,0.0,0.0,0.0,0.021080758422613144,0.01436369214206934,-0.006499762646853924,0.999269425868988,-0.016711020842194557,-0.02737358585000038,-0.02079533040523529
732.0,0.0,0.0,0.0,0.0,0.0,0.0,0.026367805898189545,0.01405203528702259,-0.02298995479941368,0.9993572235107422,-0.01426514983177185,-0.02672502212226391,-0.01917402073740959
733.0,0.0,0.0,0.0,0.0,0.0,0.0,0.03199110925197601,0.017656076699495316,-0.030613530427217484,0.9994165897369385,-0.0126152653247118,-0.02611946314573288,-0.018040480092167854
734.0,0.0,0.0,0.0,0.0,0.0,0.0,0.027205966413021088,0.01031833328306675,-0.023524435237050056,0.9994614720344543,-0.011804839596152306,-0.02576015330851078,-0.016550233587622643
735.0,0.0,0.0,0.0,0.0,0.0,0.0,0.027681764215230942,0.0142663037404418,-0.013401810079813004,0.9995070099830627,-0.011126705445349216,-0.025781765580177307,-0.014044981449842453
736.0,0.0,0.0,0.0,0.0,0.0,0.0,0.028133472427725792,0.012215587310492992,-0.008562801405787468,0.9995233416557312,-0.010618002153933048,-0.026241689920425415,-0.012324043549597263
737.0,0.0,0.0,0.0,0.0,0.0,0.0,0.02719934470951557,0.01002591010183096,2.810771911754273e-05,0.9995349645614624,-0.010218021459877491,-0.026784077286720276,-0.010401902720332146
738.0,0.0,0.0,0.0,0.0,0.0,0.0,0.026321910321712494,0.008393418043851852,0.0025538785848766565,0.9995256662368774,-0.01041143573820591,-0.027651537209749222,-0.008700183592736721
739.0,0.0,0.0,0.0,0.0,0.0,0.0,0.026193879544734955,0.005570488516241312,0.00407296372577548,0.9995033740997314,-0.010859519243240356,-0.028602732345461845,-0.007569698616862297
740.0,0.0,0.0,0.0,0.0,0.0,0.0,0.02232436090707779,0.0035188542678952217,0.012911215424537659,0.9994708299636841,-0.011166516691446304,-0.029886335134506226,-0.006354792043566704
741.0,0.0,0.0,0.0,0.0,0.0,0.0,0.020222796127200127,-0.0019552409648895264,0.006357729900628328,0.9994388222694397,-0.01185920275747776,-0.030892077833414078,-0.0052169919945299625
742.0,0.0,0.0,0.0,0.0,0.0,0.0,0.01991906762123108,-0.0030435454100370407,0.0015706339618191123,0.9993883967399597,-0.012421161867678165,-0.03238934278488159,-0.004481613170355558
743.0,0.0,0.0,0.0,0.0,0.0,0.0,0.010728196240961552,-0.006920971907675266,0.010525461286306381,0.9993288516998291,-0.012226530350744724,-0.03425926715135574,-0.0043325708247721195
744.0,0.0,0.0,0.0,0.0,0.0,0.0,0.0063819182105362415,-0.007526225410401821,0.009085382334887981,0.9992699027061462,-0.012515828013420105,-0.035904597491025925,-0.003769252449274063
745.0,0.0,0.0,0.0,0.0,0.0,0.0,0.005595636088401079,-0.009945758618414402,-0.0010467562824487686,0.9992225766181946,-0.01351630687713623,-0.03687441721558571,-0.0034730425104498863
746.0,0.0,0.0,0.0,0.0,0.0,0.0,0.000987969571724534,-0.012135020457208157,0.003416317282244563,0.9991708993911743,-0.014423016458749771,-0.037952251732349396,-0.003074734238907695
747.0,0.0,0.0,0.0,0.0,0.0,0.0,-0.0013030614936724305,-0.00968139711767435,0.0047394889406859875,0.9991196990013123,-0.015334418043494225,-0.03898376226425171,-0.002358032390475273
748.0,0.0,0.0,0.0,0.0,0.0,0.0,-0.004097010940313339,-0.011160866357386112,0.009075081907212734,0.9990664124488831,-0.016682326793670654,-0.03975854441523552,-0.0026710464153438807
749.0,0.0,0.0,0.0,0.0,0.0,0.0,-0.0031166812404990196,-0.008434178307652473,0.014510833658277988,0.9990082383155823,-0.017695967108011246,-0.04077284783124924,-0.002591561758890748
750.0,0.0,0.0,0.0,0.0,0.0,0.0,-0.004082249011844397,-0.009902031160891056,0.015068309381604195,0.9989510774612427,-0.018633408471941948,-0.04174076393246651,-0.0026955551002174616
751.0,0.0,0.0,0.0,0.0,0.0,0.0,-0.0066114915534853935,-0.011580769903957844,0.013379644602537155,0.9988976120948792,-0.01962086372077465,-0.042537856847047806,-0.0031431997194886208
752.0,0.0,0.0,0.0,0.0,0.0,0.0,-0.007792931515723467,-0.010217955335974693,0.012681195512413979,0.9988577365875244,-0.0207161083817482,-0.04295143857598305,-0.0031464197672903538
753.0,0.0,0.0,0.0,0.0,0.0,0.0,-0.00896296463906765,-0.010853186249732971,0.009832127951085567,0.9988231062889099,-0.021641988307237625,-0.04333214461803436,-0.0025802995078265667
754.0,0.0,0.0,0.0,0.0,0.0,0.0,-0.011188400909304619,-0.009580566547811031,0.014540587551891804,0.9988018870353699,-0.022187530994415283,-0.04353776574134827,-0.0026299937162548304
755.0,0.0,0.0,0.0,0.0,0.0,0.0,-0.010822143405675888,-0.006181228440254927,0.016290076076984406,0.9987865686416626,-0.022850556299090385,-0.04352453723549843,-0.0031204111874103546
756.0,0.0,0.0,0.0,0.0,0.0,0.0,-0.009085031226277351,-0.006207345053553581,0.013025660067796707,0.9987872242927551,-0.022866835817694664,-0.04349904879927635,-0.003096014028415084
757.0,0.0,0.0,0.0,0.0,0.0,0.0,-0.006175483576953411,-0.0009727275464683771,0.02208033949136734,0.9987879395484924,-0.022250652313232422,-0.043779972940683365,-0.0032364625949412584
758.0,0.0,0.0,0.0,0.0,0.0,0.0,-0.0037460096646100283,0.0010534863686189055,0.025671038776636124,0.9987925887107849,-0.021482238546013832,-0.044045474380254745,-0.0034557387698441744
759.0,0.0,0.0,0.0,0.0,0.0,0.0,-0.0030113416723906994,-0.0008912867051549256,0.033290162682533264,0.9987797737121582,-0.020435137674212456,-0.04484541714191437,-0.0032439897768199444
760.0,0.0,0.0,0.0,0.0,0.0,0.0,-0.0017953274073079228,0.001857173745520413,0.03819452226161957,0.998748242855072,-0.019211510196328163,-0.04608214274048805,-0.0031001484021544456
761.0,0.0,0.0,0.0,0.0,0.0,0.0,0.0021795062348246574,0.002245980780571699,0.024640336632728577,0.9986913800239563,-0.017485732212662697,-0.04798480123281479,-0.002776380395516753
762.0,0.0,0.0,0.0,0.0,0.0,0.0,0.004617351107299328,0.0017028922447934747,0.011519024148583412,0.9986228942871094,-0.015863392502069473,-0.049906838685274124,-0.0032071357127279043
763.0,0.0,0.0,0.0,0.0,0.0,0.0,0.00889481883496046,0.003124628448858857,0.007311765570193529,0.9985594749450684,-0.014769905246794224,-0.05142757669091225,-0.00403164979070425
764.0,0.0,0.0,0.0,0.0,0.0,0.0,0.008397134952247143,-0.0002687523083295673,-0.021839722990989685,0.9984951019287109,-0.013691754080355167,-0.05297716706991196,-0.003740501357242465
765.0,0.0,0.0,0.0,0.0,0.0,0.0,0.0017641602316871285,-0.0038574407808482647,-0.030110521242022514,0.9984537959098816,-0.013303738087415695,-0.05384511500597,-0.003697846317663789
766.0,0.0,0.0,0.0,0.0,0.0,0.0,-0.002125198021531105,-0.002681227633729577,-0.022390779107809067,0.9984539151191711,-0.013857433572411537,-0.053640685975551605,-0.004540597088634968
767.0,0.0,0.0,0.0,0.0,0.0,0.0,-0.0032999308314174414,-0.0024100637529045343,-0.009892533533275127,0.9984946250915527,-0.01468376163393259,-0.05254404991865158,-0.005649361293762922
768.0,0.0,0.0,0.0,0.0,0.0,0.0,-0.0023783312644809484,-0.0019510326674208045,-0.007978329434990883,0.9985441565513611,-0.015489968471229076,-0.05124462768435478,-0.006636616308242083
769.0,0.0,0.0,0.0,0.0,0.0,0.0,-0.0010405504144728184,-0.00444694422185421,-0.0157788023352623,0.998595654964447,-0.01611270383000374,-0.04989573732018471,-0.007616675924509764
770.0,0.0,0.0,0.0,0.0,0.0,0.0,-0.003886729246005416,-0.005609116982668638,-0.015752002596855164,0.9986699223518372,-0.01656489260494709,-0.04798837751150131,-0.009029893204569817
771.0,0.0,0.0,0.0,0.0,0.0,0.0,-0.005466889124363661,-0.0038339621387422085,-0.010173384100198746,0.9987355470657349,-0.01731652021408081,-0.04613867774605751,-0.009963766671717167
772.0,0.0,0.0,0.0,0.0,0.0,0.0,-0.006638548336923122,-0.0031407808419317007,-0.00865007285028696,0.9987836480140686,-0.017841264605522156,-0.044876083731651306,-0.00995418056845665
773.0,0.0,0.0,0.0,0.0,0.0,0.0,-0.006748890038579702,-0.002875750418752432,-0.004853134509176016,0.9988037347793579,-0.017933297902345657,-0.04437503218650818,-0.010016188956797123
774.0,0.0,0.0,0.0,0.0,0.0,0.0,-0.004781070165336132,-0.0022920279297977686,-0.013395214453339577,0.998781144618988,-0.01785648986697197,-0.04473789781332016,-0.010772434994578362
775.0,0.0,0.0,0.0,0.0,0.0,0.0,-0.0033326949924230576,0.0029148352332413197,-0.007394202519208193,0.9987603425979614,-0.017554646357893944,-0.04497021436691284,-0.012164067476987839
776.0,0.0,0.0,0.0,0.0,0.0,0.0,-0.0076634204015135765,-0.0026337127201259136,0.0063992030918598175,0.9987594485282898,-0.01754753105342388,-0.044695641845464706,-0.013201367110013962
777.0,0.0,0.0,0.0,0.0,0.0,0.0,-0.008412009105086327,-0.0033220755867660046,0.0031871828250586987,0.9987841248512268,-0.01798740029335022,-0.04370172694325447,-0.014037510380148888
778.0,0.0,0.0,0.0,0.0,0.0,0.0,-0.009937033988535404,0.0030344987753778696,-0.0022469558753073215,0.9988159537315369,-0.018351370468735695,-0.0421530157327652,-0.015912717208266258
779.0,0.0,0.0,0.0,0.0,0.0,0.0,-0.008947488851845264,0.00620753038674593,-0.007928527891635895,0.9988439083099365,-0.018502850085496902,-0.04080237075686455,-0.017429811879992485
780.0,0.0,0.0,0.0,0.0,0.0,0.0,-0.004111069720238447,0.0066860211081802845,-0.019589873030781746,0.9988768696784973,-0.019205423071980476,-0.03930016979575157,-0.0182233564555645
781.0,0.0,0.0,0.0,0.0,0.0,0.0,0.0016028530662879348,0.00894181989133358,-0.03062424622476101,0.9989131689071655,-0.02060430869460106,-0.037863362580537796,-0.01773691177368164
782.0,0.0,0.0,0.0,0.0,0.0,0.0,-0.001073103048838675,0.008852630853652954,-0.015857994556427002,0.9989339113235474,-0.02150668390095234,-0.036809660494327545,-0.017713572829961777
783.0,0.0,0.0,0.0,0.0,0.0,0.0,-0.0028426088392734528,0.009515664540231228,0.0005389534635469317,0.998960018157959,-0.02168986015021801,-0.035882409662008286,-0.01793149672448635
784.0,0.0,0.0,0.0,0.0,0.0,0.0,-0.001088323537260294,0.008076443336904049,-0.005937753710895777,0.9989679455757141,-0.021081244572997093,-0.03616006299853325,-0.01764070987701416
785.0,0.0,0.0,0.0,0.0,0.0,0.0,0.0028207930736243725,0.005307958927005529,-0.007376044522970915,0.9989887475967407,-0.019478365778923035,-0.03692362457513809,-0.01669417694211006
786.0,0.0,0.0,0.0,0.0,0.0,0.0,0.0030435980297625065,0.007405180484056473,0.010965545661747456,0.9989690780639648,-0.01780606247484684,-0.03812449797987938,-0.0170503631234169
787.0,0.0,0.0,0.0,0.0,0.0,0.0,-0.002851333236321807,0.009834835305809975,0.03584464639425278,0.998961329460144,-0.015801671892404556,-0.03902676701545715,-0.017417198047041893
788.0,0.0,0.0,0.0,0.0,0.0,0.0,0.0011187735944986343,0.008537672460079193,0.03578914701938629,0.998988926410675,-0.01419549435377121,-0.03909378871321678,-0.017062854021787643
789.0,0.0,0.0,0.0,0.0,0.0,0.0,0.002980131423100829,0.0048061455599963665,0.03146088868379593,0.9989867806434631,-0.012758452445268631,-0.03947330266237259,-0.017446227371692657
790.0,0.0,0.0,0.0,0.0,0.0,0.0,-0.00027815543580800295,0.004165234975516796,0.038285523653030396,0.9989800453186035,-0.0110467579215765,-0.039997223764657974,-0.017809173092246056
791.0,0.0,0.0,0.0,0.0,0.0,0.0,0.0022124052047729492,0.0058304062113165855,0.005525644402951002,0.9989784955978394,-0.008933022618293762,-0.0407189317047596,-0.01743529736995697
792.0,0.0,0.0,0.0,0.0,0.0,0.0,0.0027976452838629484,0.0012657971819862723,-0.0037823908496648073,0.9989743828773499,-0.007460194639861584,-0.041045088320970535,-0.017608821392059326
793.0,0.0,0.0,0.0,0.0,0.0,0.0,0.0002641111786942929,-0.0002947532047983259,-0.0019989488646388054,0.9989803433418274,-0.006216490175575018,-0.04125397652387619,-0.01725468598306179
794.0,0.0,0.0,0.0,0.0,0.0,0.0,-0.0037463263142853975,-0.001459180493839085,-0.008739591576159,0.9990150928497314,-0.005004773382097483,-0.04100290685892105,-0.016210196539759636
795.0,0.0,0.0,0.0,0.0,0.0,0.0,-0.0006221183575689793,0.001526865060441196,-0.01113230548799038,0.9990828633308411,-0.004706225823611021,-0.03974122181534767,-0.015224449336528778
796.0,0.0,0.0,0.0,0.0,0.0,0.0,0.00014335179002955556,0.004904497880488634,-0.008489835076034069,0.9991530179977417,-0.004583568777889013,-0.03836813196539879,-0.014157633297145367
797.0,0.0,0.0,0.0,0.0,0.0,0.0,0.0008687696536071599,0.005790794268250465,-0.0038853823207318783,0.999213695526123,-0.00398176908493042,-0.03721523657441139,-0.013074854388833046
798.0,0.0,0.0,0.0,0.0,0.0,0.0,0.002439686795696616,0.0048637306317687035,-0.008294323459267616,0.9992719888687134,-0.003286600112915039,-0.03608495369553566,-0.011935806833207607
799.0,0.0,0.0,0.0,0.0,0.0,0.0,0.004085741937160492,0.005972420796751976,-0.009658983908593655,0.9993242621421814,-0.002518976340070367,-0.03512470796704292,-0.01057279109954834
800.0,0.0,0.0,0.0,0.0,0.0,0.0,0.0014651573728770018,0.0016345175681635737,-0.0059599494561553,0.999362587928772,-0.0014958694810047746,-0.03434079885482788,-0.009642905555665493
801.0,0.0,0.0,0.0,0.0,0.0,0.0,0.0024117485154420137,0.0026631506625562906,-0.0006370331975631416,0.999392032623291,-0.0003686391864903271,-0.03383677825331688,-0.008404393680393696
802.0,0.0,0.0,0.0,0.0,0.0,0.0,0.0063013858161866665,0.0033491766080260277,0.0019101377110928297,0.9994067549705505,0.0008810072322376072,-0.033694397658109665,-0.007078033406287432
803.0,0.0,0.0,0.0,0.0,0.0,0.0,0.006186577025800943,0.004272927064448595,0.0019473035354167223,0.9994191527366638,0.001787645393051207,-0.03365736082196236,-0.00507448660209775
804.0,0.0,0.0,0.0,0.0,0.0,0.0,0.0074065374210476875,0.005840159486979246,-0.0062026833184063435,0.9994254112243652,0.002534497296437621,-0.033732179552316666,-0.0022331196814775467
805.0,0.0,0.0,0.0,0.0,0.0,0.0,0.008869973942637444,0.00659779692068696,-0.011716406792402267,0.9994240403175354,0.0029715029522776604,-0.033815644681453705,-9.047386993188411e-05
806.0,0.0,0.0,0.0,0.0,0.0,0.0,0.013499417342245579,0.009623856283724308,-0.003287977073341608,0.9994248151779175,0.003195602912455797,-0.03372952714562416,0.0016578846843913198
807.0,0.0,0.0,0.0,0.0,0.0,0.0,0.014762395061552525,0.01199305523186922,-0.005434748250991106,0.9994121789932251,0.0033802755642682314,-0.03396085277199745,0.00328034907579422
808.0,0.0,0.0,0.0,0.0,0.0,0.0,0.010019182227551937,0.0019456257577985525,-0.007018643897026777,0.9994373917579651,0.002650755224749446,-0.033173780888319016,0.004245701711624861
809.0,0.0,0.0,0.0,0.0,0.0,0.0,0.011702656745910645,-0.009940839372575283,-0.03481171280145645,0.9994746446609497,0.001970775658264756,-0.03169773146510124,0.0065703135915100574
810.0,0.0,0.0,0.0,0.0,0.0,0.0,0.008195302449166775,-0.006076874677091837,-0.04405030980706215,0.9994766116142273,0.004242124501615763,-0.029892100021243095,0.011657502502202988
811.0,0.0,0.0,0.0,0.0,0.0,0.0,0.014160784892737865,0.012350855395197868,0.027015021070837975,0.9994251728057861,0.007640843279659748,-0.028420371934771538,0.01683967374265194
812.0,0.0,0.0,0.0,0.0,0.0,0.0,0.023473193868994713,0.032058678567409515,0.07927622646093369,0.999371349811554,0.009730495512485504,-0.027999017387628555,0.019454684108495712
813.0,0.0,0.0,0.0,0.0,0.0,0.0,0.0191522017121315,0.022097084671258926,0.0488688163459301,0.9993928670883179,0.009353365749120712,-0.027522627264261246,0.01921527460217476
814.0,0.0,0.0,0.0,0.0,0.0,0.0,0.008286703377962112,0.005522225517779589,0.016286494210362434,0.9994562268257141,0.007591587956994772,-0.027052832767367363,0.017247401177883148
815.0,0.0,0.0,0.0,0.0,0.0,0.0,-0.0022255422081798315,-0.002480759285390377,0.003000495256856084,0.9995453953742981,0.004723980091512203,-0.025951288640499115,0.0146150728687644
816.0,0.0,0.0,0.0,0.0,0.0,0.0,-0.002910301787778735,-0.00020924989075865597,-0.003953759092837572,0.999630868434906,0.0019070951966568828,-0.024546416476368904,0.011501887813210487
817.0,0.0,0.0,0.0,0.0,0.0,0.0,1.2659341336984653e-05,0.0017059188103303313,-0.0011473777703940868,0.9997110366821289,-0.0006414725794456899,-0.022504128515720367,0.008450361900031567
818.0,0.0,0.0,0.0,0.0,0.0,0.0,-0.003599358256906271,-0.0031414737459272146,-0.006292632780969143,0.9997759461402893,-0.0032776021398603916,-0.020255455747246742,0.005212509538978338
819.0,0.0,0.0,0.0,0.0,0.0,0.0,-0.006055635865777731,-0.009082196280360222,-0.032769255340099335,0.9998251795768738,-0.005744610447436571,-0.01767706125974655,0.0021253477316349745
820.0,0.0,0.0,0.0,0.0,0.0,0.0,-0.006684667430818081,-0.00939076580107212,-0.03975792974233627,0.9998487830162048,-0.007162353955209255,-0.0158087145537138,-0.00125784648116678
821.0,0.0,0.0,0.0,0.0,0.0,0.0,-0.015071902424097061,-0.01067278441041708,-0.029855407774448395,0.9998525381088257,-0.008367106318473816,-0.014255189336836338,-0.0046768500469625
822.0,0.0,0.0,0.0,0.0,0.0,0.0,-0.01150945108383894,-0.012619822286069393,-0.03626159206032753,0.999841034412384,-0.009498878382146358,-0.01363223884254694,-0.006474372930824757
823.0,0.0,0.0,0.0,0.0,0.0,0.0,-0.010388976894319057,-0.01805925741791725,-0.051520079374313354,0.9998239278793335,-0.010630305856466293,-0.013659844174981117,-0.007249974645674229
824.0,0.0,0.0,0.0,0.0,0.0,0.0,-0.01644730381667614,-0.010004538111388683,0.014673154801130295,0.9998152256011963,-0.010554887354373932,-0.014112148433923721,-0.007678836118429899
825.0,0.0,0.0,0.0,0.0,0.0,0.0,-0.014133925549685955,-0.009819896891713142,-0.0015506520867347717,0.9998120069503784,-0.008991975337266922,-0.015359912067651749,-0.00769771495833993
826.0,0.0,0.0,0.0,0.0,0.0,0.0,-0.002174769062548876,-0.005106342490762472,0.011909403838217258,0.999810516834259,-0.007223430555313826,-0.01608111709356308,-0.008244505152106285
827.0,0.0,0.0,0.0,0.0,0.0,0.0,0.004139288328588009,-0.006050006486475468,0.02234959602355957,0.9998261332511902,-0.005646549630910158,-0.015297222882509232,-0.009053966030478477
828.0,0.0,0.0,0.0,0.0,0.0,0.0,0.014702911488711834,-0.0018852961948141456,0.02395380660891533,0.9998444318771362,-0.003502083010971546,-0.014773408882319927,-0.008980435319244862
829.0,0.0,0.0,0.0,0.0,0.0,0.0,0.026671553030610085,0.005698814056813717,0.011843464337289333,0.9998673796653748,-0.001379836001433432,-0.013954469934105873,-0.00829881988465786
830.0,0.0,0.0,0.0,0.0,0.0,0.0,0.038617588579654694,0.01787438616156578,0.008992667309939861,0.9998899698257446,0.0007651351625099778,-0.012795624323189259,-0.007487542927265167
831.0,0.0,0.0,0.0,0.0,0.0,0.0,0.04495641589164734,0.022811368107795715,0.005803497973829508,0.9999159574508667,0.0028803653549402952,-0.011195601895451546,-0.005883231293410063
832.0,0.0,0.0,0.0,0.0,0.0,0.0,0.047558143734931946,0.024158118292689323,-0.001018814160488546,0.9999321103096008,0.004625767469406128,-0.010238097049295902,-0.00310141290538013
833.0,0.0,0.0,0.0,0.0,0.0,0.0,0.05155981332063675,0.02558014541864395,-0.008535757660865784,0.9999268651008606,0.0067421686835587025,-0.010038189589977264,-0.0004197699308861047
834.0,0.0,0.0,0.0,0.0,0.0,0.0,0.05137071758508682,0.02835799753665924,-0.0004361701721791178,0.99991375207901,0.008608458563685417,-0.009758932515978813,0.0017623227322474122
835.0,0.0,0.0,0.0,0.0,0.0,0.0,0.04794936999678612,0.023842470720410347,-0.0011992384679615498,0.9998993873596191,0.009363941848278046,-0.009760485962033272,0.004319249652326107
