,Position_X,Position_Y,Position_Z,Velocity_X,Velocity_Y,Velocity_Z,Acceleration_X,Acceleration_Y,Acceleration_Z,Quaterion_0,Quaterion_1,Quaterion_2,Quaterion_3
166.0,0.0,0.0,0.0,0.0,0.0,0.0,-0.0012247227132320404,0.005087956786155701,-0.013093119487166405,1.0,1.3877787807814457e-17,1.214306433183765e-17,-2.7755575615628914e-17
167.0,0.0,0.0,0.0,0.0,0.0,0.0,0.004900729283690453,-0.003559970995411277,-0.0627264752984047,0.999998152256012,-0.0004002675705123693,0.001789974165149033,-0.0005270050605759025
168.0,0.0,0.0,0.0,0.0,0.0,0.0,0.019598307088017464,-0.0063263969495892525,-0.06001574173569679,0.9999974370002747,-0.001009287778288126,0.002016710815951228,-2.774770837277174e-05
169.0,0.0,0.0,0.0,0.0,0.0,0.0,0.01958327554166317,-0.0005617504357360303,-0.022246550768613815,0.9999974966049194,-0.0012525343336164951,0.0014063832350075245,0.0011897297808900476
170.0,0.0,0.0,0.0,0.0,0.0,0.0,0.008969232439994812,0.0012427967740222812,0.015836071223020554,0.9999951124191284,-0.0011396430199965835,0.0006382199935615063,0.0028379636351019144
171.0,0.0,0.0,0.0,0.0,0.0,0.0,0.009056456387043,-0.0015891335206106305,0.01612790673971176,0.9999909400939941,-0.0005846396088600159,-0.00011453565821284428,0.004216358531266451
172.0,0.0,0.0,0.0,0.0,0.0,0.0,0.005671836901456118,-0.004189374856650829,0.0007003153441473842,0.9999867677688599,-0.00039775800541974604,-0.00031523697543889284,0.005113465711474419
173.0,0.0,0.0,0.0,0.0,0.0,0.0,0.00928726140409708,-0.003697205102071166,-0.0007200805121101439,0.9999813437461853,-0.00024795831996016204,-0.0001927298872033134,0.00610432680696249
174.0,0.0,0.0,0.0,0.0,0.0,0.0,0.015153203159570694,-0.0033108831848949194,5.290068293106742e-05,0.9999755620956421,4.2945448512909934e-05,-6.625853711739182e-05,0.006987622939050198
175.0,0.0,0.0,0.0,0.0,0.0,0.0,0.01699928566813469,-7.26496145944111e-05,-0.004452114459127188,0.9999706149101257,-0.00033696426544338465,-7.688695040997118e-05,0.00766200665384531
176.0,0.0,0.0,0.0,0.0,0.0,0.0,0.019154855981469154,0.003246821230277419,-0.00915011577308178,0.9999661445617676,-0.0004000349435955286,-0.00027756381314247847,0.008213790133595467
177.0,0.0,0.0,0.0,0.0,0.0,0.0,0.020077228546142578,0.006108198780566454,-0.011669589206576347,0.9999614357948303,-0.00032978280796669424,-0.00013411154213827103,0.008778033778071404
178.0,0.0,0.0,0.0,0.0,0.0,0.0,0.01652464270591736,0.006644091103225946,-0.016867320984601974,0.9999593496322632,-0.0008947792812250555,3.9279631891986355e-05,0.008969007059931755
179.0,0.0,0.0,0.0,0.0,0.0,0.0,0.009130499325692654,0.00205557351000607,-0.03204856440424919,0.9999502897262573,-0.0012608262477442622,-1.6611002138233744e-05,0.009891741909086704
180.0,0.0,0.0,0.0,0.0,0.0,0.0,0.00575031666085124,0.0012809779727831483,-0.03046468459069729,0.9999405145645142,-0.001980863744392991,-0.00039228846435435116,0.010720092803239822
181.0,0.0,0.0,0.0,0.0,0.0,0.0,0.013881060294806957,0.004573875106871128,-0.006246717646718025,0.9999253153800964,-0.00255005550570786,-0.001150995260104537,0.011895847506821156
182.0,0.0,0.0,0.0,0.0,0.0,0.0,0.01567245088517666,0.004657051991671324,0.00934910960495472,0.9999045729637146,-0.0033354205079376698,-0.0024617065209895372,0.013179926201701164
183.0,0.0,0.0,0.0,0.0,0.0,0.0,0.015653494745492935,0.0026615378446877003,0.02308168262243271,0.9998860359191895,-0.004367054905742407,-0.004080282524228096,0.01386235374957323
184.0,0.0,0.0,0.0,0.0,0.0,0.0,0.01483779028058052,0.0013866639928892255,0.020337259396910667,0.9998652935028076,-0.005968568846583366,-0.0054205190390348434,0.014297740533947945
185.0,0.0,0.0,0.0,0.0,0.0,0.0,0.009849999099969864,0.0014031504979357123,0.018190758302807808,0.9998481273651123,-0.007287944667041302,-0.00667216069996357,0.014355919323861599
186.0,0.0,0.0,0.0,0.0,0.0,0.0,0.0035499264486134052,0.0016653402708470821,0.012350667268037796,0.9998401999473572,-0.008086612448096275,-0.00730409100651741,0.014170273207128048
187.0,0.0,0.0,0.0,0.0,0.0,0.0,-0.0003194338351022452,0.0032453087624162436,0.006156873889267445,0.99983149766922,-0.00878338422626257,-0.007751870434731245,0.014134475961327553
188.0,0.0,0.0,0.0,0.0,0.0,0.0,-0.0012410697527229786,0.0037566721439361572,0.00473278621211648,0.9998167753219604,-0.009482000023126602,-0.008180936798453331,0.014477931894361973
189.0,0.0,0.0,0.0,0.0,0.0,0.0,-0.003420814173296094,0.0017203767783939838,0.0010351345408707857,0.9998171329498291,-0.009604663588106632,-0.007983595132827759,0.014483165927231312
190.0,0.0,0.0,0.0,0.0,0.0,0.0,0.001603099750354886,0.0023853513412177563,-0.0047064656391739845,0.9998195767402649,-0.009767274372279644,-0.007646486163139343,0.014387400820851326
191.0,0.0,0.0,0.0,0.0,0.0,0.0,0.005111636593937874,0.0020718900486826897,-0.008231297135353088,0.9998061060905457,-0.009671090170741081,-0.008118776604533195,0.01510876975953579
192.0,0.0,0.0,0.0,0.0,0.0,0.0,0.008992152288556099,0.0020917404908686876,-0.004984630737453699,0.9997923970222473,-0.009559973143041134,-0.008432057686150074,0.015893906354904175
193.0,0.0,0.0,0.0,0.0,0.0,0.0,0.012134760618209839,0.0022393763065338135,-0.0013653029454872012,0.9997836947441101,-0.009817197918891907,-0.008609973825514317,0.01618906296789646
194.0,0.0,0.0,0.0,0.0,0.0,0.0,0.014225558377802372,0.0028365084435790777,1.528872780909296e-05,0.999761164188385,-0.009567387402057648,-0.009063012897968292,0.017434515058994293
195.0,0.0,0.0,0.0,0.0,0.0,0.0,0.015213560312986374,0.0010477937757968903,-0.003182421438395977,0.9997440576553345,-0.009450746700167656,-0.009428653866052628,0.018265575170516968
196.0,0.0,0.0,0.0,0.0,0.0,0.0,0.013260564766824245,-0.0011170691577717662,-0.007068302016705275,0.999737024307251,-0.00952359288930893,-0.009371357969939709,0.01863887533545494
197.0,0.0,0.0,0.0,0.0,0.0,0.0,0.010762965306639671,-0.002242080634459853,-0.007633568719029427,0.9997241497039795,-0.00938233733177185,-0.009397807531058788,0.01937198080122471
198.0,0.0,0.0,0.0,0.0,0.0,0.0,0.0027144434861838818,-0.004809129983186722,-0.006301017012447119,0.9997192621231079,-0.00949864462018013,-0.009377109818160534,0.019577495753765106
199.0,0.0,0.0,0.0,0.0,0.0,0.0,-0.0009699274087324739,-0.006980870384722948,-0.005674396175891161,0.9997190237045288,-0.009705969132483006,-0.009136800654232502,0.019602181389927864
200.0,0.0,0.0,0.0,0.0,0.0,0.0,-0.0018151216208934784,-0.007541854400187731,-0.001749514602124691,0.9997158646583557,-0.009682043455541134,-0.008762824349105358,0.019940877333283424
201.0,0.0,0.0,0.0,0.0,0.0,0.0,-0.0027072576340287924,-0.007348557468503714,0.003946339711546898,0.999711275100708,-0.00900659617036581,-0.008276410400867462,0.020684247836470604
202.0,0.0,0.0,0.0,0.0,0.0,0.0,0.0028476957231760025,-0.011172964237630367,-0.00865151733160019,0.9997290372848511,-0.008877310901880264,-0.0071706585586071014,0.020288269966840744
203.0,0.0,0.0,0.0,0.0,0.0,0.0,0.013816211372613907,-0.025475582107901573,-0.04541506990790367,0.9997314810752869,-0.00925497617572546,-0.006972685921937227,0.020067157223820686
204.0,0.0,0.0,0.0,0.0,0.0,0.0,0.13642318546772003,-0.014765957370400429,-0.008835162036120892,0.9996520280838013,-0.009426494129002094,-0.009712924249470234,0.022643139585852623
205.0,0.0,0.0,0.0,0.0,0.0,0.0,0.008190308697521687,-0.02562544122338295,0.0043348101899027824,0.9996262788772583,-0.009341226890683174,-0.010423505678772926,0.023481009528040886
206.0,0.0,0.0,0.0,0.0,0.0,0.0,0.003806937485933304,-0.018209947273135185,0.03130821883678436,0.999596893787384,-0.008634193800389767,-0.011253061704337597,0.024594802409410477
207.0,0.0,0.0,0.0,0.0,0.0,0.0,0.006581539753824472,-0.010970793664455414,0.02762983739376068,0.9995704889297485,-0.007807336747646332,-0.012146273627877235,0.025503067299723625
208.0,0.0,0.0,0.0,0.0,0.0,0.0,0.007732725702226162,-0.004943190608173609,0.02123081684112549,0.9995706081390381,-0.00697920098900795,-0.012122738175094128,0.0257482398301363
209.0,0.0,0.0,0.0,0.0,0.0,0.0,0.013336232863366604,0.0016892983112484217,0.0144460154697299,0.9995719194412231,-0.006269522942602634,-0.012148450128734112,0.025865748524665833
210.0,0.0,0.0,0.0,0.0,0.0,0.0,0.02130017802119255,0.00882563553750515,0.005544392392039299,0.9995755553245544,-0.005233603063970804,-0.011824537999927998,0.026105551049113274
211.0,0.0,0.0,0.0,0.0,0.0,0.0,0.02454221062362194,0.010120363906025887,-0.0077757262624800205,0.99959397315979,-0.00417017238214612,-0.011070584878325462,0.025922520086169243
212.0,0.0,0.0,0.0,0.0,0.0,0.0,0.01841963641345501,0.008171437308192253,-0.029147004708647728,0.9996090531349182,-0.0038170788902789354,-0.010653599165380001,0.025566603988409042
213.0,0.0,0.0,0.0,0.0,0.0,0.0,0.01873514987528324,0.008344296365976334,-0.030177658423781395,0.9995996952056885,-0.003973471000790596,-0.010666686110198498,0.0259000975638628
214.0,0.0,0.0,0.0,0.0,0.0,0.0,0.017448386177420616,0.007045280188322067,-0.019698968157172203,0.9995733499526978,-0.0045499675907194614,-0.011396857909858227,0.02650538831949234
215.0,0.0,0.0,0.0,0.0,0.0,0.0,0.010100281797349453,0.0027873667422682047,-0.009909277781844139,0.9995415806770325,-0.005179777275770903,-0.01249105017632246,0.027088141068816185
216.0,0.0,0.0,0.0,0.0,0.0,0.0,0.0098196379840374,0.001044701086357236,-0.00205500447191298,0.999511182308197,-0.006110427435487509,-0.013774557039141655,0.027392065152525902
217.0,0.0,0.0,0.0,0.0,0.0,0.0,0.004390026442706585,-0.003219619859009981,0.0002564423775766045,0.9994807839393616,-0.00718096736818552,-0.015104111284017563,0.027540195733308792
218.0,0.0,0.0,0.0,0.0,0.0,0.0,-0.00212272722274065,-0.004786150064319372,-0.0019209440797567368,0.9994656443595886,-0.008655369281768799,-0.016002528369426727,0.027156788855791092
219.0,0.0,0.0,0.0,0.0,0.0,0.0,-0.0023338941391557455,-0.002045493107289076,-0.005921598523855209,0.9994569420814514,-0.01163377147167921,-0.0165567509829998,0.026005389168858528
220.0,0.0,0.0,0.0,0.0,0.0,0.0,-0.0025872804690152407,0.0027552812825888395,-0.006685297936201096,0.9994423389434814,-0.014646741561591625,-0.016689352691173553,0.024939294904470444
221.0,0.0,0.0,0.0,0.0,0.0,0.0,-0.004339228849858046,0.006357991602271795,0.002800460672006011,0.9994094967842102,-0.01655559055507183,-0.017110737040638924,0.02477436140179634
222.0,0.0,0.0,0.0,0.0,0.0,0.0,-0.0034469235688447952,0.006494403351098299,0.009502951987087727,0.9993759989738464,-0.018274612724781036,-0.01722618006169796,0.02483859285712242
223.0,0.0,0.0,0.0,0.0,0.0,0.0,-0.0020448246505111456,0.003045470919460058,0.0028488703537732363,0.9993616342544556,-0.019708113744854927,-0.01705026999115944,0.024438481777906418
224.0,0.0,0.0,0.0,0.0,0.0,0.0,-0.0030160644091665745,-0.0002547331096138805,-0.0026763188652694225,0.9993495941162109,-0.020758571103215218,-0.016838235780596733,0.02420651912689209
225.0,0.0,0.0,0.0,0.0,0.0,0.0,-0.005297651048749685,-0.0035179059486836195,-0.004912076983600855,0.9993391036987305,-0.02118638902902603,-0.01669961027801037,0.02436460740864277
226.0,0.0,0.0,0.0,0.0,0.0,0.0,-0.00680465716868639,-0.005694648716598749,-0.0038681861478835344,0.9993284344673157,-0.021453289315104485,-0.016793759539723396,0.02450362965464592
227.0,0.0,0.0,0.0,0.0,0.0,0.0,-0.007562197744846344,-0.006968438159674406,0.004823497962206602,0.9993101954460144,-0.02217017486691475,-0.016893204301595688,0.024540318176150322
228.0,0.0,0.0,0.0,0.0,0.0,0.0,-0.008809395134449005,-0.007390631828457117,0.0070508630014956,0.9992988705635071,-0.022540772333741188,-0.01693081669509411,0.024638166651129723
229.0,0.0,0.0,0.0,0.0,0.0,0.0,-0.006298580672591925,-0.008558525703847408,0.005117896478623152,0.999305009841919,-0.022272365167737007,-0.016685843467712402,0.02479971945285797
230.0,0.0,0.0,0.0,0.0,0.0,0.0,-0.0035267097409814596,-0.009814818389713764,0.0030794916674494743,0.9993036389350891,-0.0223259124904871,-0.01670990325510502,0.024791989475488663
231.0,0.0,0.0,0.0,0.0,0.0,0.0,-0.0026761323679238558,-0.010721809230744839,0.008033799938857555,0.9992846846580505,-0.0221659354865551,-0.017153901979327202,0.025387749075889587
232.0,0.0,0.0,0.0,0.0,0.0,0.0,-0.0025804839096963406,-0.008617471903562546,0.026253005489706993,0.9992673397064209,-0.02113187499344349,-0.017452845349907875,0.026714177802205086
233.0,0.0,0.0,0.0,0.0,0.0,0.0,-0.0008275571744889021,-0.007206633687019348,0.03817419335246086,0.9992542266845703,-0.019681675359606743,-0.01768672466278076,0.02812185510993004
234.0,0.0,0.0,0.0,0.0,0.0,0.0,-0.002595931524410844,-0.008799487724900246,0.030785297974944115,0.9992595911026001,-0.018163463100790977,-0.01684068888425827,0.0294403787702322
235.0,0.0,0.0,0.0,0.0,0.0,0.0,-0.004010987468063831,-0.01747458428144455,-0.012548406608402729,0.9993315935134888,-0.01702522486448288,-0.01498253270983696,0.028672264888882637
236.0,0.0,0.0,0.0,0.0,0.0,0.0,0.0079477084800601,-0.02771800570189953,-0.054631561040878296,0.9993522763252258,-0.01705986075103283,-0.014488223008811474,0.028179937973618507
237.0,0.0,0.0,0.0,0.0,0.0,0.0,0.005442738067358732,-0.01914498768746853,-0.024335211142897606,0.9993458986282349,-0.01731017790734768,-0.014655565842986107,0.028167111799120903
238.0,0.0,0.0,0.0,0.0,0.0,0.0,-0.008836489170789719,-0.009866198524832726,-0.0005210523959249258,0.9993381500244141,-0.017286960035562515,-0.015076681971549988,0.028233496472239494
239.0,0.0,0.0,0.0,0.0,0.0,0.0,-0.005618769209831953,-0.004628485534340143,0.0011516882805153728,0.9993316531181335,-0.016947628930211067,-0.015786493197083473,0.02828141115605831
240.0,0.0,0.0,0.0,0.0,0.0,0.0,-0.010935681872069836,-0.004621132742613554,-0.007415715605020523,0.9993497729301453,-0.01719537004828453,-0.01596791297197342,0.027376452460885048
241.0,0.0,0.0,0.0,0.0,0.0,0.0,-0.010386410169303417,-0.002888681832700968,-0.004063086584210396,0.9993664622306824,-0.0173387099057436,-0.016084617003798485,0.026596132665872574
242.0,0.0,0.0,0.0,0.0,0.0,0.0,-0.006063397042453289,0.00010611736070131883,-0.004715577699244022,0.9993908405303955,-0.017093641683459282,-0.01611967943608761,0.02580428682267666
243.0,0.0,0.0,0.0,0.0,0.0,0.0,-0.005200602114200592,0.0017020973609760404,-0.007384791970252991,0.9994143843650818,-0.01680419035255909,-0.016119975596666336,0.02507319673895836
244.0,0.0,0.0,0.0,0.0,0.0,0.0,-0.0015210831770673394,0.0015917543787509203,-0.011174002662301064,0.9994277954101562,-0.016650041565299034,-0.016037767753005028,0.024690771475434303
245.0,0.0,0.0,0.0,0.0,0.0,0.0,0.00026739531313069165,0.0032614748924970627,-0.006698140874505043,0.9994475245475769,-0.016013769432902336,-0.015892300754785538,0.024405786767601967
246.0,0.0,0.0,0.0,0.0,0.0,0.0,-0.0021389927715063095,0.0026649031788110733,-0.013012763112783432,0.9994640350341797,-0.014999170787632465,-0.016159426420927048,0.024199476465582848
247.0,0.0,0.0,0.0,0.0,0.0,0.0,-0.0001952193269971758,0.001501573482528329,-0.01699250005185604,0.9994743466377258,-0.014221220277249813,-0.016418827697634697,0.024067817255854607
248.0,0.0,0.0,0.0,0.0,0.0,0.0,-0.0032404507510364056,7.217149686766788e-05,-0.0127559844404459,0.9994966387748718,-0.013793188147246838,-0.01653619110584259,0.023297177627682686
249.0,0.0,0.0,0.0,0.0,0.0,0.0,-0.0009797984967008233,-0.0010173909831792116,-0.010961798019707203,0.9995100498199463,-0.013617144897580147,-0.01662205532193184,0.022758791223168373
250.0,0.0,0.0,0.0,0.0,0.0,0.0,0.0048263464123010635,-0.001389903947710991,-0.010775463655591011,0.9995077252388,-0.013730645179748535,-0.01715836301445961,0.022393038496375084
251.0,0.0,0.0,0.0,0.0,0.0,0.0,0.008131466805934906,-0.0008683996275067329,-0.007361080497503281,0.9994931221008301,-0.014438987709581852,-0.017677156254649162,0.02219357341527939
252.0,0.0,0.0,0.0,0.0,0.0,0.0,0.006637055426836014,-0.0022437397856265306,-0.009765536524355412,0.9994746446609497,-0.01541607640683651,-0.018338138237595558,0.021828100085258484
253.0,0.0,0.0,0.0,0.0,0.0,0.0,0.008977350778877735,-0.0010717044351622462,-0.0038645488675683737,0.99945467710495,-0.016456235200166702,-0.018966954201459885,0.021442541852593422
254.0,0.0,0.0,0.0,0.0,0.0,0.0,0.010980348102748394,0.0020376434549689293,0.004338997416198254,0.9994205236434937,-0.0173170268535614,-0.02005939930677414,0.02136189676821232
255.0,0.0,0.0,0.0,0.0,0.0,0.0,0.011239205487072468,0.0019056390738114715,0.000517400330863893,0.9993769526481628,-0.018472084775567055,-0.02113368734717369,0.021398164331912994
256.0,0.0,0.0,0.0,0.0,0.0,0.0,0.008869984187185764,0.0010679023107513785,-0.006468466017395258,0.9993336796760559,-0.020668724551796913,-0.022166339680552483,0.020339632406830788
257.0,0.0,0.0,0.0,0.0,0.0,0.0,0.006863684393465519,0.0023830507416278124,-0.007683558855205774,0.9992705583572388,-0.023035628721117973,-0.02367928810417652,0.019155224785208702
258.0,0.0,0.0,0.0,0.0,0.0,0.0,0.0018500016303732991,0.004748068284243345,0.002721241209656,0.9991719126701355,-0.02585890330374241,-0.025613129138946533,0.018187090754508972
259.0,0.0,0.0,0.0,0.0,0.0,0.0,-0.0014672221150249243,0.004085545428097248,0.01869877800345421,0.9990740418434143,-0.028266331180930138,-0.027362337335944176,0.017416315153241158
260.0,0.0,0.0,0.0,0.0,0.0,0.0,-0.0037714720238000154,0.004211646504700184,0.023722611367702484,0.9990096688270569,-0.030179735273122787,-0.028455320745706558,0.01610047183930874
261.0,0.0,0.0,0.0,0.0,0.0,0.0,-0.00405376311391592,0.003969164099544287,0.012731228023767471,0.9989813566207886,-0.03136507421731949,-0.028907153755426407,0.01472691260278225
262.0,0.0,0.0,0.0,0.0,0.0,0.0,-0.0027787478175014257,0.002998060081154108,0.0005429795710369945,0.9989644289016724,-0.03209327906370163,-0.029110567644238472,0.013877598568797112
263.0,0.0,0.0,0.0,0.0,0.0,0.0,-0.0009809810435399413,0.000564092886634171,-0.009372618049383163,0.9989420175552368,-0.0327579565346241,-0.02950405888259411,0.013087194412946701
264.0,0.0,0.0,0.0,0.0,0.0,0.0,0.0004195559595245868,0.000319569167913869,-0.0130270691588521,0.9989370107650757,-0.032858800143003464,-0.029789267107844353,0.012558001093566418
265.0,0.0,0.0,0.0,0.0,0.0,0.0,0.0025524727534502745,0.0014473283663392067,-0.019167054444551468,0.9989026784896851,-0.03358103707432747,-0.0304283257573843,0.011826747097074986
266.0,0.0,0.0,0.0,0.0,0.0,0.0,-0.0013890528352931142,0.0027228458784520626,-0.018833385780453682,0.998843252658844,-0.03497588634490967,-0.031090103089809418,0.01105359848588705
267.0,0.0,0.0,0.0,0.0,0.0,0.0,0.0010125944390892982,0.003261466510593891,-0.012493058107793331,0.9987940192222595,-0.03605302423238754,-0.03161635994911194,0.010540896095335484
268.0,0.0,0.0,0.0,0.0,0.0,0.0,0.0011000882368534803,0.003963456954807043,-0.00757848983630538,0.9987496733665466,-0.03653367608785629,-0.032568927854299545,0.010180791839957237
269.0,0.0,0.0,0.0,0.0,0.0,0.0,-0.001314871129579842,0.005009419750422239,-0.002217328641563654,0.9987016320228577,-0.037223272025585175,-0.033304307609796524,0.010012755170464516
270.0,0.0,0.0,0.0,0.0,0.0,0.0,-0.0004332321113906801,0.005042492412030697,0.01419108733534813,0.9986565113067627,-0.03768109530210495,-0.03393694758415222,0.010652967728674412
271.0,0.0,0.0,0.0,0.0,0.0,0.0,0.0032941936515271664,0.002779209753498435,0.022256722673773766,0.998637318611145,-0.03726103901863098,-0.03446675091981888,0.01213144138455391
272.0,0.0,0.0,0.0,0.0,0.0,0.0,0.009808926843106747,0.0004731768276542425,0.014804502949118614,0.9986540675163269,-0.03651084005832672,-0.03442061319947243,0.013125197030603886
273.0,0.0,0.0,0.0,0.0,0.0,0.0,0.011903355829417706,-0.002981289057061076,0.001366148702800274,0.9986468553543091,-0.03611109405755997,-0.03476810082793236,0.013839847408235073
274.0,0.0,0.0,0.0,0.0,0.0,0.0,-0.004868018440902233,-0.004391731694340706,-0.0019842153415083885,0.9986414313316345,-0.03663012012839317,-0.03426564857363701,0.014122323133051395
275.0,0.0,0.0,0.0,0.0,0.0,0.0,-0.0034958699252456427,-0.0029913168400526047,-0.0056254444643855095,0.9986059665679932,-0.038050711154937744,-0.03338304162025452,0.014961043372750282
276.0,0.0,0.0,0.0,0.0,0.0,0.0,0.0197122935205698,-0.0002755445893853903,0.017976757138967514,0.9985880255699158,-0.038524579256772995,-0.03294739872217178,0.015882939100265503
277.0,0.0,0.0,0.0,0.0,0.0,0.0,0.01947391964495182,-0.007792279589921236,0.017527081072330475,0.9986401796340942,-0.03741486370563507,-0.03273441269993782,0.01569833979010582
278.0,0.0,0.0,0.0,0.0,0.0,0.0,0.0004141849058214575,-0.010279768146574497,-0.007747221738100052,0.9986693859100342,-0.03643663227558136,-0.033006273210048676,0.01556775439530611
279.0,0.0,0.0,0.0,0.0,0.0,0.0,-0.010938943363726139,-0.008188647218048573,0.00040192619781009853,0.9986879229545593,-0.035981129854917526,-0.032973550260066986,0.015509095974266529
280.0,0.0,0.0,0.0,0.0,0.0,0.0,-0.0062906863167881966,-0.007668549660593271,0.006564181298017502,0.9987270832061768,-0.035626377910375595,-0.032376471906900406,0.015055910684168339
281.0,0.0,0.0,0.0,0.0,0.0,0.0,-0.010750233195722103,-0.00578728225082159,0.0012107811635360122,0.9987635016441345,-0.03556936979293823,-0.031510964035987854,0.01460929587483406
282.0,0.0,0.0,0.0,0.0,0.0,0.0,-0.010846049524843693,-0.005496050696820021,0.0004912384902127087,0.9987921118736267,-0.03557601943612099,-0.030501142144203186,0.014777587726712227
283.0,0.0,0.0,0.0,0.0,0.0,0.0,-0.008346734568476677,-0.0048548998311161995,0.0006813071086071432,0.9988511204719543,-0.034953948110342026,-0.029130185022950172,0.015039113350212574
284.0,0.0,0.0,0.0,0.0,0.0,0.0,-0.004018433857709169,-0.003583695273846388,-0.0029697397258132696,0.9989144802093506,-0.034241512417793274,-0.027751833200454712,0.015071495436131954
285.0,0.0,0.0,0.0,0.0,0.0,0.0,0.0028368448838591576,-0.003322301898151636,-0.0054412283934652805,0.998977780342102,-0.03328242152929306,-0.026285361498594284,0.015641309320926666
286.0,0.0,0.0,0.0,0.0,0.0,0.0,0.008569595403969288,-0.003264638129621744,-0.008488778956234455,0.9990379810333252,-0.03177111968398094,-0.025177422910928726,0.016725530847907066
287.0,0.0,0.0,0.0,0.0,0.0,0.0,0.012288475409150124,-0.0025872238911688328,-0.0053008487448096275,0.9990768432617188,-0.030683057382702827,-0.0243817325681448,0.01759454794228077
288.0,0.0,0.0,0.0,0.0,0.0,0.0,0.01702972874045372,-0.0018185313092544675,0.0007356538553722203,0.9991127252578735,-0.02958158776164055,-0.023523444309830666,0.01858612149953842
289.0,0.0,0.0,0.0,0.0,0.0,0.0,0.017434487119317055,-0.0034117763862013817,-0.00140945625025779,0.9991607666015625,-0.02796761319041252,-0.022516373544931412,0.019710542634129524
290.0,0.0,0.0,0.0,0.0,0.0,0.0,0.019512392580509186,-0.007369588129222393,-0.01035216636955738,0.999206006526947,-0.02653285674750805,-0.021297147497534752,0.02073041722178459
291.0,0.0,0.0,0.0,0.0,0.0,0.0,0.018711071461439133,-0.00744230579584837,-0.009750165976583958,0.9992378354072571,-0.02501823380589485,-0.020273258909583092,0.022064948454499245
292.0,0.0,0.0,0.0,0.0,0.0,0.0,0.014601435512304306,-0.008696341887116432,-0.008058612234890461,0.9992489814758301,-0.023873109370470047,-0.019115710631012917,0.02379266731441021
293.0,0.0,0.0,0.0,0.0,0.0,0.0,0.015560457482933998,-0.008541565388441086,-0.0011143031297251582,0.999252200126648,-0.022317612543702126,-0.018270939588546753,0.025750640779733658
294.0,0.0,0.0,0.0,0.0,0.0,0.0,0.008000574074685574,-0.011312576942145824,-6.04946180828847e-05,0.9992428421974182,-0.020346546545624733,-0.017568834125995636,0.02812550961971283
295.0,0.0,0.0,0.0,0.0,0.0,0.0,0.006484558805823326,-0.01203661598265171,0.0034796190448105335,0.999213695526123,-0.018876783549785614,-0.016499463468790054,0.030716219916939735
296.0,0.0,0.0,0.0,0.0,0.0,0.0,0.002915159799158573,-0.012946585193276405,0.01580922119319439,0.9992051720619202,-0.016533473506569862,-0.015077718533575535,0.032990142703056335
297.0,0.0,0.0,0.0,0.0,0.0,0.0,0.004558296408504248,-0.015941480174660683,0.009728526696562767,0.9992004036903381,-0.013907515443861485,-0.012787818908691406,0.03523813933134079
298.0,0.0,0.0,0.0,0.0,0.0,0.0,0.009075120091438293,-0.020365700125694275,-0.0005459430394694209,0.9991893172264099,-0.011237716302275658,-0.010631075128912926,0.03716808557510376
299.0,0.0,0.0,0.0,0.0,0.0,0.0,0.012859538197517395,-0.021579114720225334,-0.008609488606452942,0.999172031879425,-0.00884962733834982,-0.007995940744876862,0.038897909224033356
300.0,0.0,0.0,0.0,0.0,0.0,0.0,0.014351448975503445,-0.02432626113295555,-0.0180549044162035,0.9991410374641418,-0.006901306100189686,-0.006132115144282579,0.04039743170142174
301.0,0.0,0.0,0.0,0.0,0.0,0.0,0.017535867169499397,-0.023878978565335274,-0.020560331642627716,0.9991078972816467,-0.005294655915349722,-0.004859444685280323,0.04161561280488968
302.0,0.0,0.0,0.0,0.0,0.0,0.0,0.018394019454717636,-0.023956621065735817,-0.02043859101831913,0.9990713000297546,-0.0034959830809384584,-0.00413076626136899,0.04274660348892212
303.0,0.0,0.0,0.0,0.0,0.0,0.0,0.0163338053971529,-0.022726943716406822,-0.013494755141437054,0.9990316033363342,-0.002452966058626771,-0.003949727397412062,0.04375440254807472
304.0,0.0,0.0,0.0,0.0,0.0,0.0,0.009668475948274136,-0.01936938613653183,0.0018326588906347752,0.9989935755729675,-0.0026097227819263935,-0.00469775777310133,0.04453277960419655
305.0,0.0,0.0,0.0,0.0,0.0,0.0,6.751449109287933e-05,-0.01643521711230278,0.013792477548122406,0.9989393949508667,-0.003002116223797202,-0.006000328343361616,0.04555509239435196
306.0,0.0,0.0,0.0,0.0,0.0,0.0,-0.006425037514418364,-0.013821949250996113,0.019528064876794815,0.9989092350006104,-0.0029755723662674427,-0.007017594762146473,0.04607018828392029
307.0,0.0,0.0,0.0,0.0,0.0,0.0,-0.012987199239432812,-0.01406865008175373,0.01563202776014805,0.998937726020813,-0.0032503418624401093,-0.007697514723986387,0.045315369963645935
308.0,0.0,0.0,0.0,0.0,0.0,0.0,-0.017221348360180855,-0.009481826797127724,0.014761154539883137,0.9989694356918335,-0.003999142907559872,-0.008475348353385925,0.044410716742277145
309.0,0.0,0.0,0.0,0.0,0.0,0.0,-0.019430527463555336,-0.006023335736244917,0.0064110602252185345,0.9990459680557251,-0.004442204721271992,-0.009172017686069012,0.04246580973267555
310.0,0.0,0.0,0.0,0.0,0.0,0.0,-0.020086847245693207,-0.0046620494686067104,-0.0004525604599621147,0.9991508722305298,-0.004741925746202469,-0.009268190711736679,0.03986431285738945
311.0,0.0,0.0,0.0,0.0,0.0,0.0,-0.01764206774532795,-0.002632083371281624,-0.01035972498357296,0.9992263317108154,-0.005505884066224098,-0.009789938107132912,0.03768932446837425
312.0,0.0,0.0,0.0,0.0,0.0,0.0,-0.014375543221831322,-0.0003832213405985385,-0.016125047579407692,0.9992828369140625,-0.006235703360289335,-0.010434753261506557,0.03586290776729584
313.0,0.0,0.0,0.0,0.0,0.0,0.0,-0.014775204472243786,0.0013070149580016732,-0.0146868284791708,0.9993281960487366,-0.006213008891791105,-0.011036279611289501,0.034394681453704834
314.0,0.0,0.0,0.0,0.0,0.0,0.0,-0.01028261799365282,0.003147384850308299,-0.009102322161197662,0.9993510842323303,-0.006432400085031986,-0.012082947418093681,0.03331613913178444
315.0,0.0,0.0,0.0,0.0,0.0,0.0,-0.006090929266065359,0.0073325238190591335,-0.008854761719703674,0.9993676543235779,-0.007126565091311932,-0.01295899972319603,0.03233529254794121
316.0,0.0,0.0,0.0,0.0,0.0,0.0,-0.004628810100257397,0.006361234467476606,-0.008655126206576824,0.9993867874145508,-0.008271666243672371,-0.013344315811991692,0.03129739314317703
317.0,0.0,0.0,0.0,0.0,0.0,0.0,-0.0053766826167702675,0.0072261192835867405,-0.013543848879635334,0.9993788599967957,-0.009228126145899296,-0.014258014969527721,0.030875740572810173
318.0,0.0,0.0,0.0,0.0,0.0,0.0,-0.002349714282900095,0.009037813171744347,-0.012730496004223824,0.999364972114563,-0.010008319281041622,-0.015388742089271545,0.03053845651447773
319.0,0.0,0.0,0.0,0.0,0.0,0.0,-0.0007239513797685504,0.007291723974049091,-0.011289586313068867,0.9993451237678528,-0.011099491268396378,-0.01668061874806881,0.030133811756968498
320.0,0.0,0.0,0.0,0.0,0.0,0.0,0.006288073491305113,0.008546976372599602,-0.009480861946940422,0.9993235468864441,-0.01244386751204729,-0.01812412589788437,0.029481066390872
321.0,0.0,0.0,0.0,0.0,0.0,0.0,0.004392875824123621,0.011495683342218399,-0.0038350028917193413,0.9992963075637817,-0.013837573118507862,-0.02003241889178753,0.02853322960436344
322.0,0.0,0.0,0.0,0.0,0.0,0.0,0.004385288804769516,0.011225557886064053,-0.0002558217674959451,0.9992353916168213,-0.015015996061265469,-0.02220403589308262,0.028464993461966515
323.0,0.0,0.0,0.0,0.0,0.0,0.0,0.003072551218792796,0.012802989222109318,0.003631466068327427,0.9991593360900879,-0.015720190480351448,-0.024586331099271774,0.028792288154363632
324.0,0.0,0.0,0.0,0.0,0.0,0.0,0.0016013076528906822,0.013212460093200207,0.004511665552854538,0.9990934729576111,-0.016615470871329308,-0.026663104072213173,0.02872568368911743
325.0,0.0,0.0,0.0,0.0,0.0,0.0,0.0006885077455081046,0.011803855188190937,0.0026389355771243572,0.9990286231040955,-0.01768423244357109,-0.02860666625201702,0.02847442775964737
326.0,0.0,0.0,0.0,0.0,0.0,0.0,-0.0011173932580277324,0.011436874978244305,0.0024839662946760654,0.998970091342926,-0.01883712224662304,-0.0303861815482378,0.02794012241065502
327.0,0.0,0.0,0.0,0.0,0.0,0.0,-0.002550180070102215,0.012500940822064877,0.0016333840321749449,0.9989047050476074,-0.019127892330288887,-0.032489143311977386,0.02771586738526821
328.0,0.0,0.0,0.0,0.0,0.0,0.0,-0.004267598502337933,0.012837888672947884,0.00519448472186923,0.9988372325897217,-0.019384650513529778,-0.034749213606119156,0.027221903204917908
329.0,0.0,0.0,0.0,0.0,0.0,0.0,-0.0030061290599405766,0.01299261674284935,0.009293967857956886,0.9987911581993103,-0.019380176439881325,-0.03704642504453659,0.025850364938378334
330.0,0.0,0.0,0.0,0.0,0.0,0.0,-0.0039120991714298725,0.014069033786654472,0.010108733549714088,0.9987961053848267,-0.018792759627103806,-0.03861229121685028,0.0237109437584877
331.0,0.0,0.0,0.0,0.0,0.0,0.0,-0.013684547506272793,0.016219189390540123,0.008707785047590733,0.9988082051277161,-0.018373850733041763,-0.03944128379225731,0.02211468107998371
332.0,0.0,0.0,0.0,0.0,0.0,0.0,-0.017420407384634018,0.01938553713262081,0.00951065868139267,0.9988414645195007,-0.018649404868483543,-0.039009448140859604,0.021125318482518196
333.0,0.0,0.0,0.0,0.0,0.0,0.0,-0.017103103920817375,0.020035305991768837,0.007301445584744215,0.9989134669303894,-0.019262056797742844,-0.037231337279081345,0.020359985530376434
334.0,0.0,0.0,0.0,0.0,0.0,0.0,-0.019364099949598312,0.01908765360713005,-0.008657476864755154,0.9989802837371826,-0.019307950511574745,-0.0355205275118351,0.02009808085858822
335.0,0.0,0.0,0.0,0.0,0.0,0.0,-0.01792757958173752,0.017606429755687714,-0.006824808195233345,0.9990551471710205,-0.01926657371222973,-0.033613745123147964,0.01969257928431034
336.0,0.0,0.0,0.0,0.0,0.0,0.0,-0.015417667105793953,0.015258987434208393,0.00369602395221591,0.9991182684898376,-0.018936607986688614,-0.03219500556588173,0.019169526174664497
337.0,0.0,0.0,0.0,0.0,0.0,0.0,-0.014192401431500912,0.013184282928705215,0.005925878416746855,0.9991964101791382,-0.01843877136707306,-0.030280034989118576,0.018701881170272827
338.0,0.0,0.0,0.0,0.0,0.0,0.0,-0.014551352709531784,0.008810083381831646,0.012077083811163902,0.9992905855178833,-0.01790514960885048,-0.02773352898657322,0.018129415810108185
339.0,0.0,0.0,0.0,0.0,0.0,0.0,-0.011339155957102776,0.008203034289181232,0.01628788560628891,0.9993577003479004,-0.017765671014785767,-0.02516775019466877,0.018305916339159012
340.0,0.0,0.0,0.0,0.0,0.0,0.0,-0.007764175534248352,0.007841433398425579,0.030106589198112488,0.9994180798530579,-0.017237618565559387,-0.02210485003888607,0.019433697685599327
341.0,0.0,0.0,0.0,0.0,0.0,0.0,-0.004329357761889696,0.004255013540387154,0.03318342939019203,0.9994828701019287,-0.016346633434295654,-0.019158227369189262,0.019994495436549187
342.0,0.0,0.0,0.0,0.0,0.0,0.0,-0.0035917770583182573,0.0019101103534922004,0.022802282124757767,0.9995493292808533,-0.01564703695476055,-0.01625223271548748,0.0198051817715168
343.0,0.0,0.0,0.0,0.0,0.0,0.0,-0.002573325764387846,0.0014614355750381947,0.01354283094406128,0.9996132254600525,-0.01439303532242775,-0.013401673175394535,0.019660959020256996
344.0,0.0,0.0,0.0,0.0,0.0,0.0,-0.0006146880332380533,-0.0013971439329907298,0.005145600065588951,0.9996880888938904,-0.012943100184202194,-0.010571656748652458,0.01856202445924282
345.0,0.0,0.0,0.0,0.0,0.0,0.0,0.0005277288146317005,-0.004613224882632494,0.004093598574399948,0.9997530579566956,-0.011705652810633183,-0.00809695664793253,0.01706511341035366
346.0,0.0,0.0,0.0,0.0,0.0,0.0,0.0010208099847659469,-0.006387915927916765,-0.007460909895598888,0.9997944235801697,-0.010076118633151054,-0.005709359887987375,0.016646379604935646
347.0,0.0,0.0,0.0,0.0,0.0,0.0,0.00489333039149642,-0.0076261418871581554,-0.025185799226164818,0.9998215436935425,-0.008368434384465218,-0.004002048633992672,0.01645996794104576
348.0,0.0,0.0,0.0,0.0,0.0,0.0,0.01094709150493145,-0.009761852212250233,-0.025549838319420815,0.9998433589935303,-0.006438720505684614,-0.0033089742064476013,0.01615227200090885
349.0,0.0,0.0,0.0,0.0,0.0,0.0,0.01970946229994297,-0.01086410041898489,-0.019544754177331924,0.9998703598976135,-0.004275042098015547,-0.0033396906219422817,0.015161230228841305
350.0,0.0,0.0,0.0,0.0,0.0,0.0,0.026561252772808075,-0.009773087687790394,-0.006994803436100483,0.999884843826294,-0.0015921080484986305,-0.004344150424003601,0.014451291412115097
351.0,0.0,0.0,0.0,0.0,0.0,0.0,0.031013404950499535,-0.010755353607237339,-0.012834426946938038,0.9998928308486938,0.0010425877990201116,-0.005261835176497698,0.01361900009214878
352.0,0.0,0.0,0.0,0.0,0.0,0.0,0.03108348324894905,-0.013960725627839565,-0.03545543923974037,0.9998867511749268,0.004114980343729258,-0.006882401183247566,0.012737950310111046
353.0,0.0,0.0,0.0,0.0,0.0,0.0,0.03287982940673828,-0.016883132979273796,-0.0166560597717762,0.9998671412467957,0.006361299194395542,-0.008312704041600227,0.012501638382673264
354.0,0.0,0.0,0.0,0.0,0.0,0.0,0.02801532857120037,-0.02074556052684784,-0.0018216859316453338,0.9998724460601807,0.007006413768976927,-0.007949581369757652,0.011951904743909836
355.0,0.0,0.0,0.0,0.0,0.0,0.0,0.029189568012952805,-0.026424504816532135,-0.030349917709827423,0.9998882412910461,0.007339971140027046,-0.0064018829725682735,0.01134050078690052
356.0,0.0,0.0,0.0,0.0,0.0,0.0,0.03827562928199768,-0.028640294447541237,-0.043912794440984726,0.9998882412910461,0.007401151116937399,-0.006150901783257723,0.011438538320362568
357.0,0.0,0.0,0.0,0.0,0.0,0.0,0.025734437629580498,-0.028041547164320946,-0.022678418084979057,0.9998875260353088,0.007012447342276573,-0.0065725697204470634,0.011518992483615875
358.0,0.0,0.0,0.0,0.0,0.0,0.0,0.015504546463489532,-0.025042656809091568,-0.016977256163954735,0.9998791217803955,0.008698849938809872,-0.008079188875854015,0.010041311383247375
359.0,0.0,0.0,0.0,0.0,0.0,0.0,0.025081314146518707,-0.028583258390426636,-0.033544816076755524,0.9998835325241089,0.009055017493665218,-0.008504044264554977,0.008869601413607597
360.0,0.0,0.0,0.0,0.0,0.0,0.0,0.022542912513017654,-0.028349468484520912,-0.003251992166042328,0.9998688101768494,0.00906376913189888,-0.010028381831943989,0.00891914777457714
361.0,0.0,0.0,0.0,0.0,0.0,0.0,0.013564429245889187,-0.024280088022351265,-0.012555359862744808,0.9998502135276794,0.009687596000730991,-0.011958432383835316,0.007913111709058285
362.0,0.0,0.0,0.0,0.0,0.0,0.0,0.013651382178068161,-0.020861243829131126,-0.011557241901755333,0.9998189806938171,0.010272781364619732,-0.014259464107453823,0.007287140469998121
363.0,0.0,0.0,0.0,0.0,0.0,0.0,0.009494476020336151,-0.013253087177872658,-0.0011006771819666028,0.9997578859329224,0.011106664314866066,-0.017617158591747284,0.007103483658283949
364.0,0.0,0.0,0.0,0.0,0.0,0.0,0.00809868611395359,-0.011174432933330536,-0.0008249186794273555,0.9996695518493652,0.012536104768514633,-0.02154678851366043,0.006256717257201672
365.0,0.0,0.0,0.0,0.0,0.0,0.0,0.0061192987486720085,-0.012192138470709324,0.004045217297971249,0.9995635151863098,0.013745456002652645,-0.025480899959802628,0.005901973228901625
366.0,0.0,0.0,0.0,0.0,0.0,0.0,0.0008520106202922761,-0.0034421805758029222,0.017304187640547752,0.9994572997093201,0.014020680449903011,-0.029018796980381012,0.006838399916887283
367.0,0.0,0.0,0.0,0.0,0.0,0.0,0.0017344404477626085,0.0076200636103749275,0.024828417226672173,0.9993543028831482,0.013379239477217197,-0.032269131392240524,0.008405677042901516
368.0,0.0,0.0,0.0,0.0,0.0,0.0,0.00041798819438554347,0.011316255666315556,0.047519851475954056,0.9992653131484985,0.01218870747834444,-0.035013169050216675,0.009699540212750435
369.0,0.0,0.0,0.0,0.0,0.0,0.0,-0.002832253696396947,0.006713527254760265,0.029191669076681137,0.999192476272583,0.010934210382401943,-0.03715531900525093,0.010695762932300568
370.0,0.0,0.0,0.0,0.0,0.0,0.0,-0.007677213754504919,0.00731046823784709,0.030238697305321693,0.9991270899772644,0.010020019486546516,-0.03887944296002388,0.011524571105837822
371.0,0.0,0.0,0.0,0.0,0.0,0.0,-0.013760126195847988,0.010449022985994816,0.036705054342746735,0.9991030097007751,0.00872694794088602,-0.03976867347955704,0.011641914024949074
372.0,0.0,0.0,0.0,0.0,0.0,0.0,-0.01991456374526024,0.010135984979569912,0.02689596824347973,0.9991527795791626,0.006643650121986866,-0.03901413455605507,0.011304905638098717
373.0,0.0,0.0,0.0,0.0,0.0,0.0,-0.01867426373064518,0.009410661645233631,0.012936141341924667,0.9992425441741943,0.004451130982488394,-0.03714871034026146,0.010693654417991638
374.0,0.0,0.0,0.0,0.0,0.0,0.0,-0.018443699926137924,0.007854949682950974,-0.018274543806910515,0.9993239045143127,0.0021336693316698074,-0.0354168601334095,0.009649258106946945
375.0,0.0,0.0,0.0,0.0,0.0,0.0,-0.023583680391311646,0.009942609816789627,-0.021359236910939217,0.9993498921394348,0.0003294047783128917,-0.0349099226295948,0.008997084572911263
376.0,0.0,0.0,0.0,0.0,0.0,0.0,-0.03215142711997032,0.012621203437447548,-0.0021868275944143534,0.9993347525596619,-0.0018573686247691512,-0.03505410626530647,0.00990098062902689
377.0,0.0,0.0,0.0,0.0,0.0,0.0,-0.03658758103847504,0.013199257664382458,0.01630600355565548,0.9993142485618591,-0.0045981924049556255,-0.034988246858119965,0.01122780330479145
378.0,0.0,0.0,0.0,0.0,0.0,0.0,-0.029424767941236496,0.01308317668735981,0.013978240080177784,0.9992768168449402,-0.007108237128704786,-0.03530007228255272,0.012224913574755192
379.0,0.0,0.0,0.0,0.0,0.0,0.0,-0.02855593152344227,0.012539803981781006,0.0031007800716906786,0.9992305636405945,-0.009252136573195457,-0.03608670458197594,0.012274840846657753
380.0,0.0,0.0,0.0,0.0,0.0,0.0,-0.029494712129235268,0.010554583743214607,-0.0017417349154129624,0.9991664886474609,-0.010864212177693844,-0.0375094898045063,0.011897961609065533
381.0,0.0,0.0,0.0,0.0,0.0,0.0,-0.030200617387890816,0.006334224250167608,-0.0034324985463172197,0.9991114735603333,-0.012474642135202885,-0.038743678480386734,0.010942826047539711
382.0,0.0,0.0,0.0,0.0,0.0,0.0,-0.03192591667175293,0.003945986274629831,-0.012399330735206604,0.9990750551223755,-0.014678360894322395,-0.039382193237543106,0.009104507975280285
383.0,0.0,0.0,0.0,0.0,0.0,0.0,-0.02646719478070736,0.000856630620546639,-0.006104843690991402,0.999024510383606,-0.017882773652672768,-0.039721302688121796,0.007240175269544125
384.0,0.0,0.0,0.0,0.0,0.0,0.0,-0.022781016305088997,-0.0034270796459168196,0.0035423547960817814,0.9989487528800964,-0.02164120227098465,-0.04005274549126625,0.005364426877349615
385.0,0.0,0.0,0.0,0.0,0.0,0.0,-0.016967279836535454,-0.0019851881079375744,-0.021910984069108963,0.9988489151000977,-0.024828659370541573,-0.0409584604203701,0.002597743645310402
386.0,0.0,0.0,0.0,0.0,0.0,0.0,-0.006897576618939638,0.0012809035833925009,-0.02102822996675968,0.998711109161377,-0.027461225166916847,-0.04266562685370445,-0.0013003386557102203
387.0,0.0,0.0,0.0,0.0,0.0,0.0,-0.005212520249187946,0.003386705182492733,-0.003947925288230181,0.9985271096229553,-0.030607186257839203,-0.04449119418859482,-0.005242134444415569
388.0,0.0,0.0,0.0,0.0,0.0,0.0,-0.007895047776401043,0.002530935686081648,0.0010187639854848385,0.9983093738555908,-0.03393148258328438,-0.04638409614562988,-0.00870290957391262
389.0,0.0,0.0,0.0,0.0,0.0,0.0,-0.00855072122067213,0.004146180581301451,0.008678775280714035,0.9981123208999634,-0.0364212803542614,-0.04806898161768913,-0.011602269485592842
390.0,0.0,0.0,0.0,0.0,0.0,0.0,-0.0026755493599921465,0.009792817756533623,0.028250258415937424,0.9979779720306396,-0.03730333223938942,-0.0494241937994957,-0.014334886334836483
391.0,0.0,0.0,0.0,0.0,0.0,0.0,-0.005397807341068983,0.008198999799787998,0.03871564194560051,0.9979258179664612,-0.03650457039475441,-0.050161369144916534,-0.017187820747494698
392.0,0.0,0.0,0.0,0.0,0.0,0.0,-0.010258018970489502,0.005310191307216883,0.02052334137260914,0.9979696869850159,-0.03419315814971924,-0.049614597111940384,-0.02063099294900894
393.0,0.0,0.0,0.0,0.0,0.0,0.0,-0.005029869265854359,0.006255781278014183,-0.007554754614830017,0.9982087016105652,-0.029767435044050217,-0.04573462903499603,-0.0245291106402874
394.0,0.0,0.0,0.0,0.0,0.0,0.0,-0.0009020061697810888,0.006659272126853466,-0.026106057688593864,0.9983720779418945,-0.0278692077845335,-0.041970036923885345,-0.026741135865449905
395.0,0.0,0.0,0.0,0.0,0.0,0.0,0.0017316677840426564,0.006261566188186407,-0.04731618985533714,0.9985764026641846,-0.026369528844952583,-0.03718898817896843,-0.027691451832652092
396.0,0.0,0.0,0.0,0.0,0.0,0.0,0.00903142150491476,0.0023775824811309576,-0.06727235019207001,0.9987499713897705,-0.024682242423295975,-0.033443961292505264,-0.027762804180383682
397.0,0.0,0.0,0.0,0.0,0.0,0.0,0.016559772193431854,-0.0002751598658505827,-0.05361950397491455,0.9988914728164673,-0.02288803644478321,-0.0315517857670784,-0.026387594640254974
398.0,0.0,0.0,0.0,0.0,0.0,0.0,0.02156072109937668,-0.0005752478027716279,-0.03431707248091698,0.9989864230155945,-0.02160274051129818,-0.031165380030870438,-0.024251552298665047
399.0,0.0,0.0,0.0,0.0,0.0,0.0,0.02009461261332035,0.00033794023329392076,-0.002714515198022127,0.9990432262420654,-0.02084522135555744,-0.031640276312828064,-0.021840987727046013
400.0,0.0,0.0,0.0,0.0,0.0,0.0,0.020728103816509247,0.003118801163509488,0.01076273899525404,0.9990785717964172,-0.020253561437129974,-0.03278058394789696,-0.01890134997665882
401.0,0.0,0.0,0.0,0.0,0.0,0.0,0.019892962649464607,-0.003282065037637949,0.012743120081722736,0.9990813136100769,-0.01947387494146824,-0.03440171852707863,-0.01654677838087082
402.0,0.0,0.0,0.0,0.0,0.0,0.0,0.017084823921322823,-0.0061813523061573505,0.0199520792812109,0.9990856647491455,-0.018872015178203583,-0.035299334675073624,-0.015022656880319118
403.0,0.0,0.0,0.0,0.0,0.0,0.0,0.014189202338457108,-0.006563124712556601,0.01751549355685711,0.9990792274475098,-0.01905149407684803,-0.03576323762536049,-0.014104406349360943
404.0,0.0,0.0,0.0,0.0,0.0,0.0,0.013901193626224995,-0.005102476105093956,0.026686349883675575,0.9990738034248352,-0.01911826618015766,-0.03620569780468941,-0.013237878680229187
405.0,0.0,0.0,0.0,0.0,0.0,0.0,0.011136073619127274,-0.003097908105701208,0.0403054840862751,0.9990513920783997,-0.018903743475675583,-0.03733048215508461,-0.01206258311867714
406.0,0.0,0.0,0.0,0.0,0.0,0.0,0.010046995244920254,-0.002946704626083374,0.04013437032699585,0.9990234971046448,-0.018952956423163414,-0.03829708322882652,-0.011227457784116268
407.0,0.0,0.0,0.0,0.0,0.0,0.0,0.011846266686916351,-0.005089694168418646,0.03772725537419319,0.9989991188049316,-0.01894763857126236,-0.03909504413604736,-0.010638966225087643
408.0,0.0,0.0,0.0,0.0,0.0,0.0,0.015212166123092175,-0.006796392612159252,0.031851451843976974,0.9989859461784363,-0.019377529621124268,-0.03953653946518898,-0.009400453418493271
409.0,0.0,0.0,0.0,0.0,0.0,0.0,0.01783464103937149,-0.007311259862035513,0.030444949865341187,0.9989631772041321,-0.02014491893351078,-0.03989466279745102,-0.008672897703945637
410.0,0.0,0.0,0.0,0.0,0.0,0.0,0.023343129083514214,-0.009308500215411186,0.002302200999110937,0.9989365339279175,-0.02037843130528927,-0.04039685055613518,-0.008870241232216358
411.0,0.0,0.0,0.0,0.0,0.0,0.0,0.023960068821907043,-0.011226697824895382,-0.014732939191162586,0.9988858699798584,-0.020512327551841736,-0.04156378284096718,-0.008866511285305023
412.0,0.0,0.0,0.0,0.0,0.0,0.0,0.027391202747821808,-0.006400499492883682,0.0007465849630534649,0.998814046382904,-0.02008083648979664,-0.043443985283374786,-0.008933442644774914
413.0,0.0,0.0,0.0,0.0,0.0,0.0,0.021807629615068436,-0.003760708263143897,0.015491237863898277,0.998741865158081,-0.018673209473490715,-0.045696526765823364,-0.00882258452475071
414.0,0.0,0.0,0.0,0.0,0.0,0.0,0.006081756670027971,-0.008458608761429787,-0.0005298002506606281,0.9986718893051147,-0.017382530495524406,-0.047465283423662186,-0.009950271807610989
415.0,0.0,0.0,0.0,0.0,0.0,0.0,0.004675834905356169,-0.007898068986833096,-0.01600600592792034,0.9986633658409119,-0.018052052706480026,-0.047147657722234726,-0.011078150942921638
416.0,0.0,0.0,0.0,0.0,0.0,0.0,0.003047691658139229,-0.008616656996309757,-0.029001371935009956,0.9986879825592041,-0.019505206495523453,-0.04582830145955086,-0.011900052428245544
417.0,0.0,0.0,0.0,0.0,0.0,0.0,-0.0014791935682296753,-0.009747199714183807,-0.03848979249596596,0.9986704587936401,-0.020992236211895943,-0.0453326590359211,-0.012709211558103561
418.0,0.0,0.0,0.0,0.0,0.0,0.0,-0.007855700328946114,-0.012333840131759644,-0.035707876086235046,0.9985975027084351,-0.02223687618970871,-0.046289242804050446,-0.012886164709925652
419.0,0.0,0.0,0.0,0.0,0.0,0.0,-0.010804588906466961,-0.013321268372237682,-0.022374868392944336,0.9984808564186096,-0.023375490680336952,-0.04839228838682175,-0.012156518176198006
420.0,0.0,0.0,0.0,0.0,0.0,0.0,-0.014818535186350346,-0.011633087880909443,-0.0014356038300320506,0.9983603358268738,-0.024783995002508163,-0.050383467227220535,-0.011121971532702446
421.0,0.0,0.0,0.0,0.0,0.0,0.0,-0.018369870260357857,-0.012097688391804695,0.003299964126199484,0.9982620477676392,-0.026202403008937836,-0.0517255961894989,-0.010519806295633316
422.0,0.0,0.0,0.0,0.0,0.0,0.0,-0.015559610910713673,-0.012313381768763065,-0.0003720769309438765,0.9981645941734314,-0.027433717623353004,-0.05309145152568817,-0.009802049957215786
423.0,0.0,0.0,0.0,0.0,0.0,0.0,-0.012540650554001331,-0.010642730630934238,-0.004410458263009787,0.9980902075767517,-0.028319012373685837,-0.05413707718253136,-0.009114477783441544
424.0,0.0,0.0,0.0,0.0,0.0,0.0,-0.012050237506628036,-0.007287409156560898,0.0005643484182655811,0.9979806542396545,-0.02950374223291874,-0.05563750118017197,-0.008288919925689697
425.0,0.0,0.0,0.0,0.0,0.0,0.0,-0.012514624744653702,-0.00583559088408947,0.017960399389266968,0.9978929162025452,-0.03018053062260151,-0.056935474276542664,-0.007551218383014202
426.0,0.0,0.0,0.0,0.0,0.0,0.0,-0.01162983663380146,-0.00375675898976624,0.002714647678658366,0.9978185296058655,-0.03077252395451069,-0.05793652683496475,-0.0073788962326943874
427.0,0.0,0.0,0.0,0.0,0.0,0.0,-0.004531902261078358,-0.0017419839277863503,-0.004996393341571093,0.9977359175682068,-0.03093869425356388,-0.05934470146894455,-0.00664292648434639
428.0,0.0,0.0,0.0,0.0,0.0,0.0,-0.002310622250661254,0.00042214017594233155,-0.0017516587395220995,0.9976574182510376,-0.030606558546423912,-0.06087601184844971,-0.006101862993091345
429.0,0.0,0.0,0.0,0.0,0.0,0.0,-0.004082191735506058,0.0036296595353633165,0.002035139361396432,0.9975522756576538,-0.031061016023159027,-0.06239203363656998,-0.005647783167660236
430.0,0.0,0.0,0.0,0.0,0.0,0.0,-0.0029713830444961786,0.0035410295240581036,-0.012869955971837044,0.9974334239959717,-0.03193466365337372,-0.06389804184436798,-0.004861933644860983
431.0,0.0,0.0,0.0,0.0,0.0,0.0,-0.009284844622015953,0.007545688655227423,0.0003610531857702881,0.9972843527793884,-0.032821204513311386,-0.06582149118185043,-0.0037703346461057663
432.0,0.0,0.0,0.0,0.0,0.0,0.0,-0.013798052445054054,0.011964823119342327,0.013574009761214256,0.9971538186073303,-0.03375238552689552,-0.06735427677631378,-0.0029064035043120384
433.0,0.0,0.0,0.0,0.0,0.0,0.0,-0.017501872032880783,0.01440814696252346,0.0211630966514349,0.9970684051513672,-0.034451257437467575,-0.06828329712152481,-0.002307139104232192
434.0,0.0,0.0,0.0,0.0,0.0,0.0,-0.024877943098545074,0.01327234786003828,0.027934733778238297,0.9970190525054932,-0.03536658734083176,-0.06853894144296646,-0.002179799135774374
435.0,0.0,0.0,0.0,0.0,0.0,0.0,-0.03440401330590248,0.012533823028206825,0.02802404761314392,0.9970344305038452,-0.03640882298350334,-0.06775925308465958,-0.0023220700677484274
436.0,0.0,0.0,0.0,0.0,0.0,0.0,-0.034985437989234924,0.012615948915481567,0.02608983777463436,0.9971392154693604,-0.037912700325250626,-0.0652928426861763,-0.0036222278140485287
437.0,0.0,0.0,0.0,0.0,0.0,0.0,-0.03342587500810623,0.010783711448311806,0.028410140424966812,0.9973292350769043,-0.03959164395928383,-0.06114351749420166,-0.005323148798197508
438.0,0.0,0.0,0.0,0.0,0.0,0.0,-0.0332367941737175,0.010548623278737068,0.018995532765984535,0.997532844543457,-0.03993649408221245,-0.057215265929698944,-0.007727332878857851
439.0,0.0,0.0,0.0,0.0,0.0,0.0,-0.025205597281455994,0.009378187358379364,-0.00023010416771285236,0.9977560639381409,-0.03965698927640915,-0.052884332835674286,-0.010640555992722511
440.0,0.0,0.0,0.0,0.0,0.0,0.0,-0.021111546084284782,0.010209515690803528,0.0048093488439917564,0.9979333281517029,-0.039327509701251984,-0.04910578578710556,-0.013083172962069511
441.0,0.0,0.0,0.0,0.0,0.0,0.0,-0.012751923874020576,0.01232315693050623,-0.004758156836032867,0.9980949759483337,-0.03807322680950165,-0.046211931854486465,-0.014865643344819546
442.0,0.0,0.0,0.0,0.0,0.0,0.0,-0.005600286182016134,0.01619979366660118,0.005261350888758898,0.9982340931892395,-0.03637544810771942,-0.04398588463664055,-0.01645290106534958
443.0,0.0,0.0,0.0,0.0,0.0,0.0,0.0022955243475735188,0.017568500712513924,-0.002926694229245186,0.9983883500099182,-0.03345469757914543,-0.04214285686612129,-0.01804560236632824
444.0,0.0,0.0,0.0,0.0,0.0,0.0,0.0107188131660223,0.014540459029376507,-0.01629217155277729,0.9985749125480652,-0.029500707983970642,-0.04010393097996712,-0.019219502806663513
445.0,0.0,0.0,0.0,0.0,0.0,0.0,0.018888182938098907,0.011773267760872841,-0.025878863409161568,0.9987468123435974,-0.02656678669154644,-0.03718039393424988,-0.020410481840372086
446.0,0.0,0.0,0.0,0.0,0.0,0.0,0.030567575246095657,0.010264784097671509,-0.04186699539422989,0.9988970756530762,-0.02433803491294384,-0.034103792160749435,-0.021196842193603516
447.0,0.0,0.0,0.0,0.0,0.0,0.0,0.04499594122171402,0.010141517035663128,-0.05265379324555397,0.9990219473838806,-0.02250899001955986,-0.03220202401280403,-0.02028479613363743
448.0,0.0,0.0,0.0,0.0,0.0,0.0,0.05471116676926613,0.009635898284614086,-0.05083120986819267,0.9990847706794739,-0.020981432870030403,-0.032850250601768494,-0.017611829563975334
449.0,0.0,0.0,0.0,0.0,0.0,0.0,0.05491877719759941,0.011267131194472313,-0.007446007803082466,0.9991085529327393,-0.018830135464668274,-0.03535627946257591,-0.01332431472837925
450.0,0.0,0.0,0.0,0.0,0.0,0.0,0.04419267177581787,0.0063352216966450214,0.010144995525479317,0.9991072416305542,-0.017545362934470177,-0.03716721758246422,-0.00977262482047081
451.0,0.0,0.0,0.0,0.0,0.0,0.0,0.04684685543179512,-0.0012778836535289884,0.01579669676721096,0.9991170167922974,-0.017433814704418182,-0.03770403936505318,-0.006289208307862282
452.0,0.0,0.0,0.0,0.0,0.0,0.0,0.04225345700979233,-0.004387120716273785,0.0053277392871677876,0.9991220831871033,-0.01724502444267273,-0.037984449416399,-0.003855631221085787
453.0,0.0,0.0,0.0,0.0,0.0,0.0,0.045258983969688416,-0.011775366961956024,-0.02003038302063942,0.9990800619125366,-0.017628183588385582,-0.03903026133775711,-0.0022210299503058195
454.0,0.0,0.0,0.0,0.0,0.0,0.0,0.03618866577744484,-0.012321318499743938,-0.0060081505216658115,0.9990121722221375,-0.018629707396030426,-0.04034174233675003,-0.0003565473307389766
455.0,0.0,0.0,0.0,0.0,0.0,0.0,0.028050489723682404,-0.013338214717805386,-0.0027228996623307467,0.9989410042762756,-0.01897600293159485,-0.04191162437200546,0.00029138216632418334
456.0,0.0,0.0,0.0,0.0,0.0,0.0,0.024643419310450554,-0.01633812114596367,-0.009488150477409363,0.9988425374031067,-0.019352559000253677,-0.044030673801898956,-0.00037177096237428486
457.0,0.0,0.0,0.0,0.0,0.0,0.0,0.016617078334093094,-0.019331134855747223,-0.0020201129373162985,0.9986976981163025,-0.020753586664795876,-0.04659715294837952,-0.0007238196558319032
458.0,0.0,0.0,0.0,0.0,0.0,0.0,0.0054348851554095745,-0.018082644790410995,0.010956531390547752,0.9985416531562805,-0.022520417347550392,-0.04905443266034126,-0.0008562231669202447
459.0,0.0,0.0,0.0,0.0,0.0,0.0,-0.0015783413546159863,-0.01722726598381996,0.015907056629657745,0.9984002709388733,-0.024572420865297318,-0.05091162025928497,-0.0010084571549668908
460.0,0.0,0.0,0.0,0.0,0.0,0.0,-0.007887355983257294,-0.017044754698872566,0.01795404590666294,0.9982665181159973,-0.027118438854813576,-0.05221288651227951,-0.0015047602355480194
461.0,0.0,0.0,0.0,0.0,0.0,0.0,-0.016109397634863853,-0.024545850232243538,0.015783311799168587,0.9981551170349121,-0.02929019182920456,-0.05314093455672264,-0.0021444654557853937
462.0,0.0,0.0,0.0,0.0,0.0,0.0,-0.017662089318037033,-0.0344676710665226,0.01489346195012331,0.9980357885360718,-0.03111405484378338,-0.05429428443312645,-0.002926927525550127
463.0,0.0,0.0,0.0,0.0,0.0,0.0,-0.02255488745868206,-0.03813597932457924,0.023311372846364975,0.9979287385940552,-0.033359095454216,-0.05475189536809921,-0.005250014830380678
464.0,0.0,0.0,0.0,0.0,0.0,0.0,-0.028595734387636185,-0.04214618355035782,0.032711878418922424,0.9978376030921936,-0.03561144694685936,-0.05469272658228874,-0.007807246409356594
465.0,0.0,0.0,0.0,0.0,0.0,0.0,-0.03210383281111717,-0.042909037321805954,0.041093531996011734,0.9977375268936157,-0.038429874926805496,-0.054103344678878784,-0.010749761946499348
466.0,0.0,0.0,0.0,0.0,0.0,0.0,-0.0377422496676445,-0.04250502586364746,0.0464777834713459,0.9976266026496887,-0.041922677308321,-0.052898507565259933,-0.013613544404506683
467.0,0.0,0.0,0.0,0.0,0.0,0.0,-0.035822995007038116,-0.04233945161104202,0.0362526960670948,0.997536301612854,-0.04464160278439522,-0.05151493102312088,-0.01656845398247242
468.0,0.0,0.0,0.0,0.0,0.0,0.0,-0.0335300974547863,-0.03771265596151352,0.021211499348282814,0.9974535703659058,-0.04670018330216408,-0.05018506571650505,-0.019670912995934486
469.0,0.0,0.0,0.0,0.0,0.0,0.0,-0.029562199488282204,-0.031436510384082794,0.009496171027421951,0.9973519444465637,-0.04848283901810646,-0.049186885356903076,-0.022785885259509087
470.0,0.0,0.0,0.0,0.0,0.0,0.0,-0.0256581362336874,-0.026180963963270187,-0.008133109658956528,0.9972500801086426,-0.049845512956380844,-0.04831385985016823,-0.02595551311969757
471.0,0.0,0.0,0.0,0.0,0.0,0.0,-0.0257016122341156,-0.020963702350854874,-0.019214194267988205,0.9971598982810974,-0.05041266605257988,-0.048274993896484375,-0.028285861015319824
472.0,0.0,0.0,0.0,0.0,0.0,0.0,-0.021943798288702965,-0.012889349833130836,-0.022027168422937393,0.9970285296440125,-0.051461510360240936,-0.04853485897183418,-0.03049679845571518
473.0,0.0,0.0,0.0,0.0,0.0,0.0,-0.01918143220245838,-0.0070629301480948925,-0.015599535778164864,0.9969354271888733,-0.05226302146911621,-0.048369236290454865,-0.03238581866025925
474.0,0.0,0.0,0.0,0.0,0.0,0.0,-0.0063665336929261684,0.0016203551786020398,-0.0019382010214030743,0.9969449639320374,-0.05234810337424278,-0.04782601073384285,-0.032757554203271866
475.0,0.0,0.0,0.0,0.0,0.0,0.0,0.0036724612582474947,0.007440045941621065,-0.001159952487796545,0.9969802498817444,-0.05176209285855293,-0.047136664390563965,-0.03360087797045708
476.0,0.0,0.0,0.0,0.0,0.0,0.0,0.01846492849290371,0.012463562190532684,-0.01107343751937151,0.9970638751983643,-0.0505848154425621,-0.046546973288059235,-0.03373819217085838
477.0,0.0,0.0,0.0,0.0,0.0,0.0,0.028421545401215553,0.01601129211485386,-0.009851737879216671,0.9971744418144226,-0.049687497317790985,-0.04568663239479065,-0.032971400767564774
478.0,0.0,0.0,0.0,0.0,0.0,0.0,0.03228191286325455,0.022226564586162567,-0.019691919907927513,0.9972968697547913,-0.04841824248433113,-0.04480767250061035,-0.03235593065619469
479.0,0.0,0.0,0.0,0.0,0.0,0.0,0.028704939410090446,0.021091856062412262,-0.02044370025396347,0.9974586963653564,-0.04642254114151001,-0.04396751523017883,-0.03143265098333359
480.0,0.0,0.0,0.0,0.0,0.0,0.0,0.02319268509745598,0.018733173608779907,-0.008704873733222485,0.9976487159729004,-0.045004282146692276,-0.042635831981897354,-0.029224766418337822
481.0,0.0,0.0,0.0,0.0,0.0,0.0,0.017891976982355118,0.014894555322825909,0.0022668493911623955,0.9978428483009338,-0.0440901443362236,-0.04089691862463951,-0.026326287537813187
482.0,0.0,0.0,0.0,0.0,0.0,0.0,0.014525416307151318,0.011785936541855335,0.0025924681685864925,0.9980534911155701,-0.04151121899485588,-0.039973184466362,-0.02383916638791561
483.0,0.0,0.0,0.0,0.0,0.0,0.0,0.010958283208310604,0.012729139998555183,-0.013806418515741825,0.9982616305351257,-0.03877265006303787,-0.03810717910528183,-0.022761452943086624
484.0,0.0,0.0,0.0,0.0,0.0,0.0,0.013545773923397064,0.012787205167114735,0.002138902200385928,0.9984353184700012,-0.03663245216012001,-0.03599996492266655,-0.022108078002929688
485.0,0.0,0.0,0.0,0.0,0.0,0.0,0.0017851617885753512,0.014538158662617207,-0.013213233090937138,0.9985976219177246,-0.03462035953998566,-0.03367685154080391,-0.02168072573840618
486.0,0.0,0.0,0.0,0.0,0.0,0.0,-0.002453198656439781,0.01458102185279131,-0.026588529348373413,0.9987973570823669,-0.032153546810150146,-0.030522258952260017,-0.02093665674328804
487.0,0.0,0.0,0.0,0.0,0.0,0.0,-0.0021509819198399782,0.018641842529177666,0.0020807108376175165,0.9989885091781616,-0.029630107805132866,-0.027459843084216118,-0.019748782739043236
488.0,0.0,0.0,0.0,0.0,0.0,0.0,0.0022520606871694326,0.02079835720360279,0.01718258485198021,0.9991323947906494,-0.028119554743170738,-0.024954121559858322,-0.017919722944498062
489.0,0.0,0.0,0.0,0.0,0.0,0.0,0.00036456240923143923,0.015793045982718468,0.0038431119173765182,0.9992645978927612,-0.026414548978209496,-0.02293151617050171,-0.01570143550634384
490.0,0.0,0.0,0.0,0.0,0.0,0.0,0.008582002483308315,0.01583629846572876,0.002046087523922324,0.9993929266929626,-0.02393919788300991,-0.021580398082733154,-0.013228807598352432
491.0,0.0,0.0,0.0,0.0,0.0,0.0,0.011858241632580757,0.011486729606986046,0.015561806969344616,0.9994993209838867,-0.021288564428687096,-0.020580993965268135,-0.011147316545248032
492.0,0.0,0.0,0.0,0.0,0.0,0.0,0.013690569438040257,0.001600306131877005,0.009674853645265102,0.9995802044868469,-0.01842598058283329,-0.02042711153626442,-0.009086423553526402
493.0,0.0,0.0,0.0,0.0,0.0,0.0,0.0167594775557518,0.0003781283739954233,0.024876177310943604,0.9996594786643982,-0.014581091701984406,-0.020449992269277573,-0.007073008920997381
494.0,0.0,0.0,0.0,0.0,0.0,0.0,0.02611244097352028,-0.0034765831660479307,0.012072461657226086,0.9997240304946899,-0.01065039075911045,-0.020227111876010895,-0.005396593827754259
495.0,0.0,0.0,0.0,0.0,0.0,0.0,0.018464326858520508,-0.01539318636059761,-0.002224413910880685,0.9997650980949402,-0.007880807854235172,-0.019927475601434708,-0.003241550177335739
496.0,0.0,0.0,0.0,0.0,0.0,0.0,0.010425965301692486,-0.026256052777171135,0.009204942733049393,0.9998114109039307,-0.005273681599646807,-0.0184803269803524,-0.002814403735101223
497.0,0.0,0.0,0.0,0.0,0.0,0.0,0.02819213829934597,-0.022285781800746918,-0.0164803396910429,0.9998476505279541,-0.002055499004200101,-0.017144933342933655,-0.002569420961663127
498.0,0.0,0.0,0.0,0.0,0.0,0.0,0.045770492404699326,-0.014440611936151981,-0.024719733744859695,0.9998518824577332,0.0014077975647524,-0.017091242596507072,-0.0014520534314215183
499.0,0.0,0.0,0.0,0.0,0.0,0.0,0.04656478390097618,-0.011990315280854702,-0.033278800547122955,0.9998415112495422,0.0046897451393306255,-0.01713830791413784,-0.0012115093413740396
500.0,0.0,0.0,0.0,0.0,0.0,0.0,0.054621368646621704,-0.012930545024573803,-0.06650938093662262,0.9998347163200378,0.006438033189624548,-0.01699782721698284,4.412508133100346e-05
501.0,0.0,0.0,0.0,0.0,0.0,0.0,0.054624609649181366,-0.009619047865271568,-0.02842041105031967,0.9998414516448975,0.006197473034262657,-0.016529308632016182,0.002363750711083412
502.0,0.0,0.0,0.0,0.0,0.0,0.0,0.052426423877477646,-0.009646753780543804,-0.04033219814300537,0.9998498558998108,0.005351688712835312,-0.015850350260734558,0.004544622264802456
503.0,0.0,0.0,0.0,0.0,0.0,0.0,0.053991638123989105,-0.013519623316824436,-0.04633690416812897,0.9998428225517273,0.004347537644207478,-0.01573931612074375,0.006903199944645166
504.0,0.0,0.0,0.0,0.0,0.0,0.0,0.04471566528081894,-0.01297217607498169,-0.04052275791764259,0.9998131394386292,0.0026618512347340584,-0.016650183126330376,0.009461088106036186
505.0,0.0,0.0,0.0,0.0,0.0,0.0,0.03354285657405853,-0.01719537563621998,-0.03837181627750397,0.9997788071632385,0.00095988844987005,-0.017473753541707993,0.011651528999209404
506.0,0.0,0.0,0.0,0.0,0.0,0.0,0.024124568328261375,-0.02466041035950184,-0.036869268864393234,0.9997408986091614,-0.0011632305104285479,-0.01860249601304531,0.013062713667750359
507.0,0.0,0.0,0.0,0.0,0.0,0.0,0.010578565299510956,-0.030854733660817146,-0.031158942729234695,0.9996801018714905,-0.003863181686028838,-0.020424583926796913,0.014428454451262951
508.0,0.0,0.0,0.0,0.0,0.0,0.0,-0.004739810712635517,-0.03460029512643814,-0.01902705430984497,0.99958735704422,-0.007100380957126617,-0.022712059319019318,0.016081804409623146
509.0,0.0,0.0,0.0,0.0,0.0,0.0,-0.02273426577448845,-0.034054771065711975,0.00512493634596467,0.9994815587997437,-0.011292899027466774,-0.024208910763263702,0.017980026081204414
510.0,0.0,0.0,0.0,0.0,0.0,0.0,-0.03059309348464012,-0.03125114366412163,0.019843321293592453,0.9993743300437927,-0.015191920101642609,-0.024991918355226517,0.019880779087543488
511.0,0.0,0.0,0.0,0.0,0.0,0.0,-0.029211338609457016,-0.030307725071907043,0.012670877389609814,0.9992610216140747,-0.01873919554054737,-0.025910794734954834,0.02133810892701149
512.0,0.0,0.0,0.0,0.0,0.0,0.0,-0.0283406563103199,-0.025779156014323235,0.014295139349997044,0.9991618394851685,-0.02163724973797798,-0.02684911899268627,0.02205943502485752
513.0,0.0,0.0,0.0,0.0,0.0,0.0,-0.026709390804171562,-0.01676432602107525,0.018095720559358597,0.9990317821502686,-0.024351468309760094,-0.02822069264948368,0.023378048092126846
514.0,0.0,0.0,0.0,0.0,0.0,0.0,-0.029823942109942436,-0.010941310785710812,0.01797235570847988,0.9988936185836792,-0.026879433542490005,-0.02952549420297146,0.02485421672463417
515.0,0.0,0.0,0.0,0.0,0.0,0.0,-0.02828136831521988,-0.000523051421623677,0.023140154778957367,0.9987529516220093,-0.02960762195289135,-0.03027583472430706,0.026442883536219597
516.0,0.0,0.0,0.0,0.0,0.0,0.0,-0.007682714145630598,0.01673971675336361,0.03170151263475418,0.9985671043395996,-0.03244607523083687,-0.03177240863442421,0.02830401621758938
517.0,0.0,0.0,0.0,0.0,0.0,0.0,-0.007249889429658651,0.028741078451275826,0.04790131375193596,0.9983975887298584,-0.034074749797582626,-0.03360481560230255,0.03018867038190365
518.0,0.0,0.0,0.0,0.0,0.0,0.0,-0.017963219434022903,0.02215593308210373,0.04616338387131691,0.9982828497886658,-0.03479979559779167,-0.03501451015472412,0.03152652829885483
519.0,0.0,0.0,0.0,0.0,0.0,0.0,-0.013085427694022655,0.025907572358846664,0.048263803124427795,0.9981306791305542,-0.0360955148935318,-0.03676554933190346,0.03286970034241676
520.0,0.0,0.0,0.0,0.0,0.0,0.0,-0.015823595225811005,0.025866853073239326,0.048866793513298035,0.9979873299598694,-0.03785640746355057,-0.03799477964639664,0.033835869282484055
521.0,0.0,0.0,0.0,0.0,0.0,0.0,-0.020574485883116722,0.018114861100912094,0.03661906719207764,0.9978832602500916,-0.039409391582012177,-0.03915194794535637,0.03381360322237015
522.0,0.0,0.0,0.0,0.0,0.0,0.0,-0.02291080169379711,0.014422395266592503,0.027034718543291092,0.997852623462677,-0.0399792455136776,-0.03987491875886917,0.033193882554769516
523.0,0.0,0.0,0.0,0.0,0.0,0.0,-0.028011562302708626,0.011898284777998924,0.017762955278158188,0.9978346824645996,-0.04051240533590317,-0.04065076634287834,0.032129205763339996
524.0,0.0,0.0,0.0,0.0,0.0,0.0,-0.030654877424240112,0.01401473768055439,0.011110496707260609,0.9978094100952148,-0.041697051376104355,-0.04114801809191704,0.030735421925783157
525.0,0.0,0.0,0.0,0.0,0.0,0.0,-0.034637629985809326,0.011132090352475643,0.0035478153731673956,0.9978154301643372,-0.04273334518074989,-0.04117646813392639,0.029019195586442947
526.0,0.0,0.0,0.0,0.0,0.0,0.0,-0.04852769523859024,-0.0005297177704051137,-0.01335995178669691,0.9978072643280029,-0.04457086697220802,-0.04045398160815239,0.02753288298845291
527.0,0.0,0.0,0.0,0.0,0.0,0.0,-0.024973275139927864,0.009594583883881569,-0.017478296533226967,0.9977179169654846,-0.047498494386672974,-0.040192991495132446,0.026213835924863815
528.0,0.0,0.0,0.0,0.0,0.0,0.0,-0.0033203158527612686,0.029147043824195862,0.02374790608882904,0.9976945519447327,-0.048869192600250244,-0.0400504395365715,0.024766581133008003
529.0,0.0,0.0,0.0,0.0,0.0,0.0,0.0030913283117115498,0.019691217690706253,0.019864309579133987,0.9977242946624756,-0.04859482869505882,-0.04029485955834389,0.023692136630415916
530.0,0.0,0.0,0.0,0.0,0.0,0.0,-0.011718117631971836,0.015375378541648388,0.017628399655222893,0.9977397918701172,-0.048218678683042526,-0.04074772819876671,0.023015113547444344
531.0,0.0,0.0,0.0,0.0,0.0,0.0,-0.012901888228952885,0.010127104818820953,0.009614489041268826,0.9977800846099854,-0.04776424914598465,-0.04073959216475487,0.022209584712982178
532.0,0.0,0.0,0.0,0.0,0.0,0.0,-0.003984940238296986,0.009080504067242146,0.006628200877457857,0.9977969527244568,-0.04850977659225464,-0.0402289554476738,0.020732717588543892
533.0,0.0,0.0,0.0,0.0,0.0,0.0,-0.0026230826042592525,0.0029939489904791117,-0.01765422336757183,0.9978069067001343,-0.04947149008512497,-0.03950013220310211,0.019327031448483467
534.0,0.0,0.0,0.0,0.0,0.0,0.0,0.0020333384163677692,0.0024992898106575012,-0.017435701563954353,0.9978059530258179,-0.05004045367240906,-0.03924772888422012,0.018409373238682747
535.0,0.0,0.0,0.0,0.0,0.0,0.0,0.0037987190298736095,0.002919459482654929,-0.0053453464061021805,0.9978360533714294,-0.050120677798986435,-0.03880232572555542,0.017481600865721703
536.0,0.0,0.0,0.0,0.0,0.0,0.0,0.0026969099417328835,0.0016024911310523748,-0.00563477398827672,0.997867226600647,-0.050036605447530746,-0.038275256752967834,0.017080560326576233
537.0,0.0,0.0,0.0,0.0,0.0,0.0,0.0010201608529314399,0.0011160682188346982,0.002622021595016122,0.9979199171066284,-0.04934930428862572,-0.037770647555589676,0.017152223736047745
538.0,0.0,0.0,0.0,0.0,0.0,0.0,0.00054021185496822,-0.001995776779949665,0.0106261121109128,0.9980348348617554,-0.0480261966586113,-0.036666810512542725,0.016593649983406067
539.0,0.0,0.0,0.0,0.0,0.0,0.0,0.009220393374562263,-0.001523888437077403,0.012492245994508266,0.9981861710548401,-0.04662219434976578,-0.035052381455898285,0.01490311324596405
540.0,0.0,0.0,0.0,0.0,0.0,0.0,0.011091489344835281,0.0003682972164824605,0.005989093333482742,0.998307466506958,-0.04560902714729309,-0.033524028956890106,0.013363968580961227
541.0,0.0,0.0,0.0,0.0,0.0,0.0,0.005235681775957346,0.002413413254544139,0.017118025571107864,0.9984021186828613,-0.04526079073548317,-0.031834930181503296,0.01145797036588192
542.0,0.0,0.0,0.0,0.0,0.0,0.0,0.006470893044024706,0.010215152986347675,0.041286226361989975,0.9985259771347046,-0.044255442917346954,-0.029606416821479797,0.01054768543690443
543.0,0.0,0.0,0.0,0.0,0.0,0.0,0.0051581840962171555,0.008974544703960419,0.02941867522895336,0.9986785054206848,-0.042720939964056015,-0.02672663889825344,0.010081435553729534
544.0,0.0,0.0,0.0,0.0,0.0,0.0,0.008059562183916569,0.009234749712049961,0.029064880684018135,0.9988335967063904,-0.04107828810811043,-0.02370324358344078,0.009044204838573933
545.0,0.0,0.0,0.0,0.0,0.0,0.0,0.01442126464098692,0.01277910079807043,0.040628351271152496,0.9989779591560364,-0.03952332213521004,-0.020522521808743477,0.007710679434239864
546.0,0.0,0.0,0.0,0.0,0.0,0.0,0.01452585868537426,0.011995588429272175,0.00014423634274862707,0.9991179704666138,-0.03741144388914108,-0.017839163541793823,0.006765321828424931
547.0,0.0,0.0,0.0,0.0,0.0,0.0,0.00604873476549983,0.01546425186097622,-0.008549606427550316,0.9992595911026001,-0.034964337944984436,-0.015273422934114933,0.004950956907123327
548.0,0.0,0.0,0.0,0.0,0.0,0.0,0.010677995160222054,0.017455924302339554,-0.016867589205503464,0.9993796348571777,-0.032682642340660095,-0.012773758731782436,0.0030488106422126293
549.0,0.0,0.0,0.0,0.0,0.0,0.0,0.01491902768611908,0.020624620839953423,-0.010742518119513988,0.9994902610778809,-0.03038754314184189,-0.009720525704324245,0.001179267535917461
550.0,0.0,0.0,0.0,0.0,0.0,0.0,0.02645219676196575,0.016436569392681122,-0.04240982607007027,0.9995589852333069,-0.028712810948491096,-0.007583990227431059,-0.0004702764854300767
551.0,0.0,0.0,0.0,0.0,0.0,0.0,0.030117684975266457,0.01267140731215477,-0.05484148859977722,0.9996227622032166,-0.026467544957995415,-0.007048803847283125,-0.0020437927450984716
552.0,0.0,0.0,0.0,0.0,0.0,0.0,0.028797175735235214,0.01518769096583128,-0.039780035614967346,0.999657392501831,-0.02493346855044365,-0.007284540683031082,-0.0031736588571220636
553.0,0.0,0.0,0.0,0.0,0.0,0.0,0.03795637935400009,0.016689255833625793,-0.0055342321284115314,0.9996623992919922,-0.024308696389198303,-0.008229563012719154,-0.004041458945721388
554.0,0.0,0.0,0.0,0.0,0.0,0.0,0.023725125938653946,0.014879429712891579,-0.003540520090609789,0.9996614456176758,-0.023985840380191803,-0.008686152286827564,-0.005094162188470364
555.0,0.0,0.0,0.0,0.0,0.0,0.0,0.012307073920965195,0.008326065726578236,-0.026309363543987274,0.9996306896209717,-0.024405520409345627,-0.010382859967648983,-0.00591975636780262
556.0,0.0,0.0,0.0,0.0,0.0,0.0,0.012970684096217155,0.004372898489236832,-0.006776719819754362,0.9995612502098083,-0.02578551135957241,-0.012780332937836647,-0.007009608671069145
557.0,0.0,0.0,0.0,0.0,0.0,0.0,0.009602141566574574,0.0036667718086391687,0.017444193363189697,0.9994577765464783,-0.027736708521842957,-0.01577284000813961,-0.008129091933369637
558.0,0.0,0.0,0.0,0.0,0.0,0.0,0.00024220523482654244,-2.0698758817161433e-05,0.004868545103818178,0.9993467926979065,-0.030039241537451744,-0.017842600122094154,-0.009224451147019863
559.0,0.0,0.0,0.0,0.0,0.0,0.0,-0.0038289721123874187,-0.003066625911742449,-0.048931725323200226,0.9992126226425171,-0.032924044877290726,-0.02045471966266632,-0.008474874310195446
560.0,0.0,0.0,0.0,0.0,0.0,0.0,0.0015837512910366058,0.00024366803700104356,-0.0513828843832016,0.9990273714065552,-0.03656870499253273,-0.023875536397099495,-0.0060738916508853436
561.0,0.0,0.0,0.0,0.0,0.0,0.0,-0.0015025631291791797,0.005387013778090477,0.011830582283437252,0.9988000988960266,-0.041095007210969925,-0.026532700285315514,-0.002354651689529419
562.0,0.0,0.0,0.0,0.0,0.0,0.0,-0.004860118497163057,0.005819517187774181,0.018593093380331993,0.9986168146133423,-0.043661609292030334,-0.029225235804915428,-0.0019720138516277075
563.0,0.0,0.0,0.0,0.0,0.0,0.0,-0.00044298131251707673,0.007008039858192205,9.825036249822006e-05,0.9984531998634338,-0.04444587230682373,-0.03327398747205734,-0.002963179722428322
564.0,0.0,0.0,0.0,0.0,0.0,0.0,-0.01925731636583805,0.01824740320444107,0.03425867110490799,0.9983110427856445,-0.04543129727244377,-0.03588808327913284,-0.004862838424742222
565.0,0.0,0.0,0.0,0.0,0.0,0.0,-0.015209442935883999,0.0075778597965836525,-0.06068706884980202,0.9981362819671631,-0.04650010168552399,-0.03864210098981857,-0.008229201659560204
566.0,0.0,0.0,0.0,0.0,0.0,0.0,-0.005086056888103485,0.020987816154956818,-0.04060821980237961,0.9978867769241333,-0.047284338623285294,-0.042969051748514175,-0.011824226938188076
567.0,0.0,0.0,0.0,0.0,0.0,0.0,-0.017560498788952827,0.027332739904522896,-0.022092459723353386,0.997608482837677,-0.048202067613601685,-0.047046780586242676,-0.015512402169406414
568.0,0.0,0.0,0.0,0.0,0.0,0.0,-0.025938933715224266,0.019703945145010948,-0.0438571572303772,0.9973369240760803,-0.049656592309474945,-0.050180137157440186,-0.018314043059945107
569.0,0.0,0.0,0.0,0.0,0.0,0.0,-0.022851144894957542,0.013815155252814293,-0.04229263588786125,0.9970373511314392,-0.050828587263822556,-0.05412287637591362,-0.02009034901857376
570.0,0.0,0.0,0.0,0.0,0.0,0.0,-0.016322828829288483,0.022997796535491943,0.014443480409681797,0.9967586398124695,-0.05138719454407692,-0.058406420052051544,-0.02049645222723484
571.0,0.0,0.0,0.0,0.0,0.0,0.0,-0.013526340946555138,0.025567464530467987,0.05372116342186928,0.9965131878852844,-0.05278323218226433,-0.0610533244907856,-0.021160908043384552
572.0,0.0,0.0,0.0,0.0,0.0,0.0,-0.011116563342511654,0.02198665961623192,0.06715063005685806,0.9962801337242126,-0.05603931099176407,-0.06172854080796242,-0.02180100791156292
573.0,0.0,0.0,0.0,0.0,0.0,0.0,-0.017299335449934006,0.020281698554754257,0.04261118173599243,0.9960950613021851,-0.05936393514275551,-0.061170995235443115,-0.022994132712483406
574.0,0.0,0.0,0.0,0.0,0.0,0.0,-0.019333787262439728,0.015078848227858543,-0.0019394278060644865,0.9959120750427246,-0.06252238899469376,-0.06035962328314781,-0.024634135887026787
575.0,0.0,0.0,0.0,0.0,0.0,0.0,-0.020195061340928078,0.018010707572102547,0.0038658003322780132,0.9957579970359802,-0.06439036875963211,-0.06019830331206322,-0.026378165930509567
576.0,0.0,0.0,0.0,0.0,0.0,0.0,-0.026375161483883858,0.015241664834320545,-0.02516820654273033,0.9955900311470032,-0.0669349730014801,-0.059596579521894455,-0.02772308699786663
577.0,0.0,0.0,0.0,0.0,0.0,0.0,-0.023264940828084946,0.010778523981571198,-0.006601535715162754,0.9953135251998901,-0.07088422030210495,-0.05904441699385643,-0.02898598089814186
578.0,0.0,0.0,0.0,0.0,0.0,0.0,-0.026192788034677505,0.0131224999204278,-0.02359018847346306,0.9950069189071655,-0.073974609375,-0.059701453894376755,-0.030419642105698586
579.0,0.0,0.0,0.0,0.0,0.0,0.0,-0.029649600386619568,0.021318433806300163,0.004509765654802322,0.9947830438613892,-0.0759468749165535,-0.06053228676319122,-0.031211212277412415
580.0,0.0,0.0,0.0,0.0,0.0,0.0,-0.023984171450138092,0.023756777867674828,0.03230201080441475,0.9946933388710022,-0.07684920728206635,-0.06034431606531143,-0.03221236541867256
581.0,0.0,0.0,0.0,0.0,0.0,0.0,-0.013108436949551105,0.02541271038353443,0.03697231411933899,0.9946725368499756,-0.07702037692070007,-0.059670500457286835,-0.0336759015917778
582.0,0.0,0.0,0.0,0.0,0.0,0.0,-0.009868834167718887,0.020454946905374527,0.024218609556555748,0.994737446308136,-0.07675053179264069,-0.05829792469739914,-0.03476562350988388
583.0,0.0,0.0,0.0,0.0,0.0,0.0,-0.007388182915747166,0.015861889347434044,0.0032983808778226376,0.9948621392250061,-0.07578995823860168,-0.05688120797276497,-0.03562978655099869
584.0,0.0,0.0,0.0,0.0,0.0,0.0,0.003977272659540176,0.014741974882781506,-0.010626537725329399,0.9950377345085144,-0.07442379742860794,-0.05549430847167969,-0.03579466789960861
585.0,0.0,0.0,0.0,0.0,0.0,0.0,0.005545393563807011,0.017693474888801575,-0.00014210111112333834,0.9952681660652161,-0.07223215699195862,-0.054647259414196014,-0.03518088161945343
586.0,0.0,0.0,0.0,0.0,0.0,0.0,0.0020406737457960844,0.016008339822292328,0.002477379282936454,0.9955673813819885,-0.06921721249818802,-0.053752753883600235,-0.03412770479917526
587.0,0.0,0.0,0.0,0.0,0.0,0.0,0.005556145682930946,0.016700102016329765,0.008697301149368286,0.9958534240722656,-0.06610655039548874,-0.05366279557347298,-0.03203846886754036
588.0,0.0,0.0,0.0,0.0,0.0,0.0,0.010664399713277817,0.012767186388373375,0.0033277873881161213,0.9961693286895752,-0.06221727654337883,-0.053504206240177155,-0.030208023265004158
589.0,0.0,0.0,0.0,0.0,0.0,0.0,0.00827063899487257,0.007975876331329346,0.0011111726053059101,0.9964686036109924,-0.058795519173145294,-0.05271605774760246,-0.028539352118968964
590.0,0.0,0.0,0.0,0.0,0.0,0.0,0.01030914019793272,0.006011611316353083,0.005917584057897329,0.9968030452728271,-0.05527791380882263,-0.05121257156133652,-0.02654784545302391
591.0,0.0,0.0,0.0,0.0,0.0,0.0,0.008664621040225029,0.006818506401032209,0.0006310651078820229,0.9971306324005127,-0.051927898079156876,-0.04908871278166771,-0.0249782782047987
592.0,0.0,0.0,0.0,0.0,0.0,0.0,0.012105591595172882,0.0020250005181878805,-0.009547151625156403,0.9974395036697388,-0.04885699227452278,-0.04661392420530319,-0.02355215884745121
593.0,0.0,0.0,0.0,0.0,0.0,0.0,0.0185299851000309,-0.0038857117760926485,-0.011733041144907475,0.997689962387085,-0.04607886075973511,-0.04474247992038727,-0.022128798067569733
594.0,0.0,0.0,0.0,0.0,0.0,0.0,0.01915011554956436,-0.007065892219543457,-0.004221430514007807,0.9979110360145569,-0.043523769825696945,-0.04349812865257263,-0.019675536081194878
595.0,0.0,0.0,0.0,0.0,0.0,0.0,0.020603734999895096,-0.009980783797800541,0.0013476870954036713,0.9980891346931458,-0.041466131806373596,-0.04247928038239479,-0.01714693382382393
596.0,0.0,0.0,0.0,0.0,0.0,0.0,0.022733695805072784,-0.014743763953447342,-0.0015255139442160726,0.9982126951217651,-0.03980688005685806,-0.041656509041786194,-0.015852369368076324
597.0,0.0,0.0,0.0,0.0,0.0,0.0,0.01933305524289608,-0.01725216954946518,-0.0018315520137548447,0.998278796672821,-0.03884679824113846,-0.04151196405291557,-0.0143881281837821
598.0,0.0,0.0,0.0,0.0,0.0,0.0,0.017237449064850807,-0.02035241201519966,-0.005674407817423344,0.9982829093933105,-0.03827941045165062,-0.04215632379055023,-0.013735962100327015
599.0,0.0,0.0,0.0,0.0,0.0,0.0,0.015856212005019188,-0.02186652645468712,-0.007725914474576712,0.9982281923294067,-0.03804978355765343,-0.0434434600174427,-0.01431657187640667
600.0,0.0,0.0,0.0,0.0,0.0,0.0,0.0035576368682086468,-0.01735674776136875,0.015561720356345177,0.9981802105903625,-0.037522073835134506,-0.044841330498456955,-0.01475149393081665
601.0,0.0,0.0,0.0,0.0,0.0,0.0,-0.0031281334813684225,-0.015597901307046413,0.021517615765333176,0.9981566667556763,-0.03659849241375923,-0.04587572067975998,-0.015469620004296303
602.0,0.0,0.0,0.0,0.0,0.0,0.0,-0.003664933843538165,-0.016358384862542152,0.009796945378184319,0.9981645345687866,-0.03565855696797371,-0.04611705616116524,-0.016402916982769966
603.0,0.0,0.0,0.0,0.0,0.0,0.0,-0.005331669934093952,-0.01589949242770672,0.007869446650147438,0.9981664419174194,-0.03548732027411461,-0.0457347109913826,-0.017684312537312508
604.0,0.0,0.0,0.0,0.0,0.0,0.0,-0.006686945911496878,-0.0212213434278965,-0.014574467204511166,0.9982060790061951,-0.03501829877495766,-0.04480452835559845,-0.01872720941901207
605.0,0.0,0.0,0.0,0.0,0.0,0.0,-0.008275128901004791,-0.019352303817868233,-0.005602573044598103,0.9982872605323792,-0.03379499539732933,-0.04374638572335243,-0.019146539270877838
606.0,0.0,0.0,0.0,0.0,0.0,0.0,-0.007188587915152311,-0.019797995686531067,-0.006541416980326176,0.9983548521995544,-0.032593466341495514,-0.043066781014204025,-0.019238034263253212
607.0,0.0,0.0,0.0,0.0,0.0,0.0,-0.006884533446282148,-0.021823978051543236,-0.01453473325818777,0.9984027743339539,-0.03178064525127411,-0.042515844106674194,-0.0193390604108572
608.0,0.0,0.0,0.0,0.0,0.0,0.0,-0.0004568527510855347,-0.022729478776454926,-0.018633410334587097,0.9984453916549683,-0.03201450780034065,-0.04136941209435463,-0.019253011792898178
609.0,0.0,0.0,0.0,0.0,0.0,0.0,0.0017651490634307265,-0.018730945885181427,-0.0040417928248643875,0.9984720349311829,-0.03280504420399666,-0.040152888745069504,-0.019107578322291374
610.0,0.0,0.0,0.0,0.0,0.0,0.0,-0.0008829177240841091,-0.01899634674191475,0.0035897931084036827,0.9984994530677795,-0.03377542272210121,-0.03883882611989975,-0.018699325621128082
611.0,0.0,0.0,0.0,0.0,0.0,0.0,-0.00485948147252202,-0.018481826409697533,0.019138431176543236,0.9985657334327698,-0.0342249795794487,-0.03722551837563515,-0.017593568190932274
612.0,0.0,0.0,0.0,0.0,0.0,0.0,0.0009963340125977993,-0.019524982199072838,0.0113981319591403,0.9986320734024048,-0.03427358344197273,-0.03583860024809837,-0.016583213582634926
613.0,0.0,0.0,0.0,0.0,0.0,0.0,0.00951753556728363,-0.023581884801387787,0.0012194948503747582,0.9987047910690308,-0.03370358422398567,-0.034512415528297424,-0.016171127557754517
614.0,0.0,0.0,0.0,0.0,0.0,0.0,0.012392031960189342,-0.02707359753549099,-0.005549623630940914,0.9987946152687073,-0.03259136900305748,-0.032998573035001755,-0.016067611053586006
615.0,0.0,0.0,0.0,0.0,0.0,0.0,0.021466970443725586,-0.027185698971152306,-0.004297168459743261,0.9988550543785095,-0.03130442276597023,-0.03248685225844383,-0.015901785343885422
616.0,0.0,0.0,0.0,0.0,0.0,0.0,0.025585515424609184,-0.02546158991754055,0.004050437361001968,0.9988897442817688,-0.029952429234981537,-0.03224121779203415,-0.01680830493569374
617.0,0.0,0.0,0.0,0.0,0.0,0.0,0.025360995903611183,-0.027781210839748383,-0.005671100225299597,0.9988902807235718,-0.029002487659454346,-0.03221023082733154,-0.018420569598674774
618.0,0.0,0.0,0.0,0.0,0.0,0.0,0.026555219665169716,-0.026771456003189087,-0.011038088239729404,0.9988874793052673,-0.027595320716500282,-0.033051684498786926,-0.019221216440200806
619.0,0.0,0.0,0.0,0.0,0.0,0.0,0.02947918511927128,-0.02452181838452816,-0.0056081549264490604,0.9988623857498169,-0.0267795417457819,-0.034118711948394775,-0.019818931818008423
620.0,0.0,0.0,0.0,0.0,0.0,0.0,0.026278210803866386,-0.022668225690722466,0.0036466759629547596,0.9988186359405518,-0.0263949166983366,-0.03551408648490906,-0.02009398862719536
621.0,0.0,0.0,0.0,0.0,0.0,0.0,0.02135910466313362,-0.021385759115219116,0.002037426456809044,0.9987753629684448,-0.0258915014564991,-0.03693430870771408,-0.020332083106040955
622.0,0.0,0.0,0.0,0.0,0.0,0.0,0.018400968983769417,-0.01791313663125038,0.00606322567909956,0.9987210631370544,-0.026029931381344795,-0.0380234569311142,-0.020806245505809784
623.0,0.0,0.0,0.0,0.0,0.0,0.0,0.015963561832904816,-0.01915862411260605,0.00299180019646883,0.9986938834190369,-0.026151781901717186,-0.038397662341594696,-0.0212627612054348
624.0,0.0,0.0,0.0,0.0,0.0,0.0,0.018787838518619537,-0.013919384218752384,0.0055504124611616135,0.9986492991447449,-0.026604458689689636,-0.03916550427675247,-0.021390754729509354
625.0,0.0,0.0,0.0,0.0,0.0,0.0,0.024942995980381966,-0.01118064858019352,-0.005968304816633463,0.9985824227333069,-0.027633385732769966,-0.04022703319787979,-0.021260062232613564
626.0,0.0,0.0,0.0,0.0,0.0,0.0,0.02625933475792408,-0.01080356165766716,-0.017281001433730125,0.9985123872756958,-0.02862766571342945,-0.04118584468960762,-0.02137567661702633
627.0,0.0,0.0,0.0,0.0,0.0,0.0,0.024615684524178505,-0.005468800663948059,-0.004911930300295353,0.9984778761863708,-0.02935449406504631,-0.04163728281855583,-0.021119823679327965
628.0,0.0,0.0,0.0,0.0,0.0,0.0,0.022590206936001778,-0.0034866761416196823,0.00036797384382225573,0.9984538555145264,-0.030083341524004936,-0.04220057651400566,-0.0200998242944479
629.0,0.0,0.0,0.0,0.0,0.0,0.0,0.02368736080825329,-0.0006129064131528139,-0.005738699808716774,0.998426616191864,-0.030890805646777153,-0.04269453510642052,-0.01916278712451458
630.0,0.0,0.0,0.0,0.0,0.0,0.0,0.027997935190796852,3.85260227631079e-06,-0.012108245864510536,0.9983832240104675,-0.031517695635557175,-0.0436536930501461,-0.018233871087431908
631.0,0.0,0.0,0.0,0.0,0.0,0.0,0.023162998259067535,-0.00027740452787838876,-0.004137768875807524,0.9982954859733582,-0.03256208449602127,-0.04516618698835373,-0.01747981645166874
632.0,0.0,0.0,0.0,0.0,0.0,0.0,0.015913687646389008,-0.0017022858373820782,0.00744965486228466,0.9981268644332886,-0.03451960161328316,-0.047626521438360214,-0.01680738478899002
633.0,0.0,0.0,0.0,0.0,0.0,0.0,0.005864610895514488,-0.005152223631739616,0.022968264296650887,0.9979405403137207,-0.03617151454091072,-0.0504414327442646,-0.016149194911122322
634.0,0.0,0.0,0.0,0.0,0.0,0.0,-0.004207177087664604,-0.005548508837819099,0.037430718541145325,0.997750997543335,-0.03812555596232414,-0.05302111431956291,-0.015098612755537033
635.0,0.0,0.0,0.0,0.0,0.0,0.0,-0.01033728662878275,-0.004049878567457199,0.044555723667144775,0.9975815415382385,-0.040193840861320496,-0.05485306680202484,-0.014393366873264313
636.0,0.0,0.0,0.0,0.0,0.0,0.0,-0.013091846369206905,-0.004952838644385338,0.04382927715778351,0.9974060654640198,-0.04184090718626976,-0.05669358745217323,-0.014717129059135914
637.0,0.0,0.0,0.0,0.0,0.0,0.0,-0.018095791339874268,-0.0045777359046041965,0.03891027346253395,0.9972699880599976,-0.042693667113780975,-0.058385077863931656,-0.01487563457340002
638.0,0.0,0.0,0.0,0.0,0.0,0.0,-0.028531795367598534,-0.00471722474321723,0.0356895849108696,0.9972078800201416,-0.04264161363244057,-0.05946166068315506,-0.014895118772983551
639.0,0.0,0.0,0.0,0.0,0.0,0.0,-0.03768336400389671,-0.0028224342968314886,0.03252316638827324,0.9972699880599976,-0.042057108134031296,-0.05883646383881569,-0.01491335779428482
640.0,0.0,0.0,0.0,0.0,0.0,0.0,-0.03483987972140312,-0.005594768561422825,0.008804770186543465,0.9973446726799011,-0.042561158537864685,-0.057011235505342484,-0.01554385107010603
641.0,0.0,0.0,0.0,0.0,0.0,0.0,-0.03103701025247574,-0.005919559858739376,-0.007700176443904638,0.9974090456962585,-0.043563805520534515,-0.05475020781159401,-0.016721567139029503
642.0,0.0,0.0,0.0,0.0,0.0,0.0,-0.030526956543326378,-0.008318852633237839,-0.02093256264925003,0.9975016713142395,-0.044396817684173584,-0.05218479037284851,-0.017196133732795715
643.0,0.0,0.0,0.0,0.0,0.0,0.0,-0.027916748076677322,-0.0069731841795146465,-0.025779789313673973,0.9975195527076721,-0.04612533375620842,-0.050211742520332336,-0.017497209832072258
644.0,0.0,0.0,0.0,0.0,0.0,0.0,-0.03405759483575821,-0.007034054957330227,-0.016319487243890762,0.997556746006012,-0.04728742688894272,-0.04837130382657051,-0.01745939813554287
645.0,0.0,0.0,0.0,0.0,0.0,0.0,-0.03255930170416832,-0.00689317099750042,-0.016902657225728035,0.9975905418395996,-0.04804321378469467,-0.046715229749679565,-0.017971064895391464
646.0,0.0,0.0,0.0,0.0,0.0,0.0,-0.02772122621536255,-0.011275061406195164,-0.030907349660992622,0.9976187944412231,-0.04797917976975441,-0.04525413736701012,-0.020161043852567673
647.0,0.0,0.0,0.0,0.0,0.0,0.0,-0.02469603158533573,-0.010757251642644405,-0.02829381451010704,0.9976312518119812,-0.0471075177192688,-0.04453621059656143,-0.02298724837601185
648.0,0.0,0.0,0.0,0.0,0.0,0.0,-0.027497446164488792,-0.006590353790670633,-0.01676938869059086,0.9976528286933899,-0.04631499946117401,-0.044023167341947556,-0.02461083233356476
649.0,0.0,0.0,0.0,0.0,0.0,0.0,-0.034574221819639206,-0.0013127181446179748,0.007958103902637959,0.9977105855941772,-0.04538348317146301,-0.04316320642828941,-0.025505701079964638
650.0,0.0,0.0,0.0,0.0,0.0,0.0,-0.025488829240202904,0.00210940302349627,0.01461009867489338,0.9978528022766113,-0.04383155331015587,-0.04082557559013367,-0.026484264060854912
651.0,0.0,0.0,0.0,0.0,0.0,0.0,-0.0051263016648590565,0.0010164390550926328,-0.016246022656559944,0.9979832768440247,-0.04219589754939079,-0.038824860006570816,-0.02723865769803524
652.0,0.0,0.0,0.0,0.0,0.0,0.0,0.007834143936634064,0.0052633462473750114,-0.018498973920941353,0.9981204867362976,-0.040293194353580475,-0.03739335387945175,-0.02708527073264122
653.0,0.0,0.0,0.0,0.0,0.0,0.0,0.014357331208884716,0.009361722506582737,-0.014695921912789345,0.9982744455337524,-0.03760404884815216,-0.03610142692923546,-0.027041727676987648
654.0,0.0,0.0,0.0,0.0,0.0,0.0,0.03325292840600014,0.015489112585783005,-0.024008261039853096,0.99840247631073,-0.03498893603682518,-0.035349443554878235,-0.02680581621825695
655.0,0.0,0.0,0.0,0.0,0.0,0.0,0.04481004551053047,0.01775924675166607,-0.030196748673915863,0.998518705368042,-0.03239962086081505,-0.03542670980095863,-0.025598518550395966
656.0,0.0,0.0,0.0,0.0,0.0,0.0,0.05283045768737793,0.022309675812721252,-0.027264628559350967,0.9985890984535217,-0.030649838969111443,-0.03609974682331085,-0.024031538516283035
657.0,0.0,0.0,0.0,0.0,0.0,0.0,0.053290605545043945,0.026407860219478607,-0.020773623138666153,0.9986148476600647,-0.029643474146723747,-0.03715101629495621,-0.022581445053219795
658.0,0.0,0.0,0.0,0.0,0.0,0.0,0.052446816116571426,0.028494758531451225,-0.008839711546897888,0.9986181259155273,-0.02892882190644741,-0.03876611962914467,-0.020553572103381157
659.0,0.0,0.0,0.0,0.0,0.0,0.0,0.049186404794454575,0.03140353038907051,0.007973762229084969,0.9986166954040527,-0.028105702251195908,-0.04096316173672676,-0.0172447357326746
660.0,0.0,0.0,0.0,0.0,0.0,0.0,0.044988472014665604,0.034107327461242676,0.037824541330337524,0.9985950589179993,-0.027555327862501144,-0.04317944869399071,-0.01356175635010004
661.0,0.0,0.0,0.0,0.0,0.0,0.0,0.04640195518732071,0.03199870511889458,0.05052708834409714,0.9985479116439819,-0.027526630088686943,-0.04522550851106644,-0.010013749822974205
662.0,0.0,0.0,0.0,0.0,0.0,0.0,0.04669350013136864,0.021738482639193535,0.04799148067831993,0.9984862804412842,-0.02814350090920925,-0.04671350494027138,-0.007164995651692152
663.0,0.0,0.0,0.0,0.0,0.0,0.0,0.03550912067294121,0.007123459130525589,0.03631090000271797,0.998444139957428,-0.028820177540183067,-0.04746221750974655,-0.005124354735016823
664.0,0.0,0.0,0.0,0.0,0.0,0.0,0.0301101952791214,-0.005971613340079784,0.021411139518022537,0.9983723759651184,-0.030131302773952484,-0.048303864896297455,-0.0034573539160192013
665.0,0.0,0.0,0.0,0.0,0.0,0.0,0.02612096630036831,-0.01660042442381382,0.0014965441077947617,0.9982650876045227,-0.0319746658205986,-0.0493500716984272,-0.0030619970057159662
666.0,0.0,0.0,0.0,0.0,0.0,0.0,0.007645332254469395,-0.028739335015416145,-0.017561472952365875,0.9981688857078552,-0.03406485915184021,-0.04988829791545868,-0.0031877360306680202
667.0,0.0,0.0,0.0,0.0,0.0,0.0,-0.0008799988427199423,-0.02916462905704975,-0.02257775142788887,0.9980136156082153,-0.03736506775021553,-0.05061802640557289,-0.003182844491675496
668.0,0.0,0.0,0.0,0.0,0.0,0.0,0.0033263959921896458,-0.018048835918307304,-0.0056488704867661,0.9978104829788208,-0.04108158499002457,-0.05171158164739609,-0.0034693425986915827
669.0,0.0,0.0,0.0,0.0,0.0,0.0,-0.015598337166011333,-0.015937061980366707,0.015573976561427116,0.9976938366889954,-0.04299750551581383,-0.052353255450725555,-0.00410897471010685
670.0,0.0,0.0,0.0,0.0,0.0,0.0,-0.03165537491440773,-0.02039337530732155,0.021053608506917953,0.9976148009300232,-0.04455072060227394,-0.05252239108085632,-0.004628600552678108
671.0,0.0,0.0,0.0,0.0,0.0,0.0,-0.027842335402965546,-0.01818070188164711,0.005227037239819765,0.9974737763404846,-0.04760798066854477,-0.05246812850236893,-0.005197818856686354
672.0,0.0,0.0,0.0,0.0,0.0,0.0,-0.03052053414285183,-0.017502564936876297,0.0006327804876491427,0.9973461627960205,-0.05060623586177826,-0.05208422616124153,-0.005112993996590376
673.0,0.0,0.0,0.0,0.0,0.0,0.0,-0.032023657113313675,-0.015325422398746014,0.0034415042027831078,0.9972652196884155,-0.052846577018499374,-0.05147362872958183,-0.004513419698923826
674.0,0.0,0.0,0.0,0.0,0.0,0.0,-0.028087448328733444,-0.011996275745332241,0.0058436207473278046,0.9971836805343628,-0.054680801928043365,-0.05117387697100639,-0.003983525559306145
675.0,0.0,0.0,0.0,0.0,0.0,0.0,-0.03279167041182518,-0.011321860365569592,0.0020949319005012512,0.9971364736557007,-0.05623330920934677,-0.050420552492141724,-0.0037405851762741804
676.0,0.0,0.0,0.0,0.0,0.0,0.0,-0.03545317053794861,-0.005684006959199905,0.028243497014045715,0.9970754981040955,-0.058084066957235336,-0.04957641661167145,-0.0030151340179145336
677.0,0.0,0.0,0.0,0.0,0.0,0.0,-0.023662518709897995,0.01739264652132988,0.07519019395112991,0.9968245029449463,-0.06199592351913452,-0.04994819685816765,-0.0016322408337146044
678.0,0.0,0.0,0.0,0.0,0.0,0.0,0.003753368742763996,0.05371084809303284,0.1587493121623993,0.9964388012886047,-0.06643680483102798,-0.05191798880696297,0.0008173091919161379
679.0,0.0,0.0,0.0,0.0,0.0,0.0,0.047658443450927734,0.08058082312345505,0.235577791929245,0.9964891672134399,-0.06558344513177872,-0.051752883940935135,0.0054757180623710155
680.0,0.0,0.0,0.0,0.0,0.0,0.0,-0.04272960498929024,0.008396482095122337,0.08548156917095184,0.9970329403877258,-0.06136595085263252,-0.04534611850976944,0.010153943672776222
681.0,0.0,0.0,0.0,0.0,0.0,0.0,-0.06415028125047684,-0.025424832478165627,-0.008685685694217682,0.9975265860557556,-0.06015607342123985,-0.033407215029001236,0.014352361671626568
682.0,0.0,0.0,0.0,0.0,0.0,0.0,0.007976025342941284,-0.015151492320001125,-0.05044512823224068,0.9978246092796326,-0.059816185384988785,-0.02146940678358078,0.01750430464744568
683.0,0.0,0.0,0.0,0.0,0.0,0.0,0.025610262528061867,-0.022581443190574646,-0.14217375218868256,0.997931718826294,-0.05932360142469406,-0.013800058513879776,0.020542511716485023
684.0,0.0,0.0,0.0,0.0,0.0,0.0,0.025154614821076393,-0.011887267231941223,-0.12424633651971817,0.998026430606842,-0.05749214440584183,-0.009527023881673813,0.02338067628443241
685.0,0.0,0.0,0.0,0.0,0.0,0.0,0.0212267953902483,-0.010039963759481907,-0.1314680278301239,0.9983059763908386,-0.05297379568219185,-0.008235839195549488,0.02259495109319687
686.0,0.0,0.0,0.0,0.0,0.0,0.0,0.014360819011926651,-0.007133862469345331,-0.11441480368375778,0.9986608028411865,-0.047104254364967346,-0.008938245475292206,0.019425010308623314
687.0,0.0,0.0,0.0,0.0,0.0,0.0,0.019772682338953018,0.006290092598646879,-0.04064216464757919,0.9988996982574463,-0.04223848134279251,-0.011313379742205143,0.016957974061369896
688.0,0.0,0.0,0.0,0.0,0.0,0.0,0.0014756371965631843,-0.0013301554135978222,-0.031855665147304535,0.9991033673286438,-0.038181670010089874,-0.012517782859504223,0.01335217710584402
689.0,0.0,0.0,0.0,0.0,0.0,0.0,0.00787250604480505,-0.011059979908168316,-0.04320427030324936,0.999312698841095,-0.03380105271935463,-0.012910068035125732,0.008045073598623276
690.0,0.0,0.0,0.0,0.0,0.0,0.0,0.023437436670064926,-0.00970140565186739,-0.007274682633578777,0.9994735717773438,-0.029166830703616142,-0.01381736434996128,0.003328911028802395
691.0,0.0,0.0,0.0,0.0,0.0,0.0,0.017208628356456757,0.007385413162410259,0.05393063649535179,0.9995231628417969,-0.026452409103512764,-0.015936242416501045,0.00033055522362701595
692.0,0.0,0.0,0.0,0.0,0.0,0.0,-0.004838625434786081,0.00937679037451744,0.017634965479373932,0.999492883682251,-0.02593086287379265,-0.01842900738120079,-0.0014490929897874594
693.0,0.0,0.0,0.0,0.0,0.0,0.0,-0.013371413573622704,0.015617303550243378,0.02468917705118656,0.999439001083374,-0.02620200626552105,-0.020528044551610947,-0.0036621163599193096
694.0,0.0,0.0,0.0,0.0,0.0,0.0,-0.023664917796850204,0.009225120767951012,0.011587767861783504,0.9993619322776794,-0.027020515874028206,-0.022498618811368942,-0.006288006901741028
695.0,0.0,0.0,0.0,0.0,0.0,0.0,-0.023104578256607056,0.014094487763941288,0.018105825409293175,0.9992758631706238,-0.028093384578824043,-0.024335527792572975,-0.008141832426190376
696.0,0.0,0.0,0.0,0.0,0.0,0.0,-0.0253414586186409,0.013110819272696972,0.0024137592408806086,0.9992401599884033,-0.028381600975990295,-0.02496287226676941,-0.009535737335681915
697.0,0.0,0.0,0.0,0.0,0.0,0.0,-0.023768065497279167,0.006415860261768103,-0.019391803070902824,0.9992238879203796,-0.02928304672241211,-0.02448071725666523,-0.009748547337949276
698.0,0.0,0.0,0.0,0.0,0.0,0.0,-0.016981663182377815,0.008047370240092278,-0.03187592700123787,0.9992014765739441,-0.030530761927366257,-0.02442965656518936,-0.008198468014597893
699.0,0.0,0.0,0.0,0.0,0.0,0.0,-0.014168042689561844,0.006298308726400137,-0.044991981238126755,0.9991405010223389,-0.03268269822001457,-0.024986980482935905,-0.005108384415507317
700.0,0.0,0.0,0.0,0.0,0.0,0.0,-0.0069481260143220425,0.01313438918441534,-0.004493488930165768,0.9990859031677246,-0.034767135977745056,-0.02469215728342533,-0.0029788280371576548
701.0,0.0,0.0,0.0,0.0,0.0,0.0,0.0007315212860703468,0.011247538961470127,0.004807129502296448,0.9989854097366333,-0.035942234098911285,-0.027027159929275513,-0.0023324312642216682
702.0,0.0,0.0,0.0,0.0,0.0,0.0,0.005349264480173588,0.013295585289597511,0.004163295030593872,0.998943567276001,-0.03540387749671936,-0.029178133234381676,-0.002643317449837923
703.0,0.0,0.0,0.0,0.0,0.0,0.0,0.005256259813904762,0.013676664792001247,-0.005233067087829113,0.9989283680915833,-0.03386400640010834,-0.03139076009392738,-0.0031883930787444115
704.0,0.0,0.0,0.0,0.0,0.0,0.0,0.012705071829259396,0.008387631736695766,-0.012786826118826866,0.9988976120948792,-0.03266890347003937,-0.03334963321685791,-0.004905718844383955
705.0,0.0,0.0,0.0,0.0,0.0,0.0,0.022295484319329262,0.008036619052290916,-0.013077247887849808,0.9988355040550232,-0.030364112928509712,-0.036658234894275665,-0.007855111733078957
706.0,0.0,0.0,0.0,0.0,0.0,0.0,0.020417094230651855,0.01351279579102993,-0.003757544094696641,0.9987292885780334,-0.028704525902867317,-0.040017906576395035,-0.010685749351978302
707.0,0.0,0.0,0.0,0.0,0.0,0.0,0.017709484323859215,0.018233124166727066,-0.0008408348658122122,0.9986026287078857,-0.027787351980805397,-0.0429651252925396,-0.013240618631243706
708.0,0.0,0.0,0.0,0.0,0.0,0.0,0.011197179555892944,0.01866479218006134,-0.004019453190267086,0.9984444379806519,-0.027331026270985603,-0.046178851276636124,-0.015148446895182133
709.0,0.0,0.0,0.0,0.0,0.0,0.0,0.002181554213166237,0.0198223814368248,-0.0028567039407789707,0.9982787370681763,-0.02818252705037594,-0.048892393708229065,-0.015961479395627975
710.0,0.0,0.0,0.0,0.0,0.0,0.0,-0.0021425834856927395,0.02626044861972332,0.0024523644242435694,0.998103141784668,-0.03000016137957573,-0.051181722432374954,-0.01643722876906395
711.0,0.0,0.0,0.0,0.0,0.0,0.0,0.00021402868151199073,0.03076743893325329,0.027667298913002014,0.9979476928710938,-0.03200160339474678,-0.05303475633263588,-0.01622779108583927
712.0,0.0,0.0,0.0,0.0,0.0,0.0,-0.0015411622589454055,0.028737379238009453,0.033757880330085754,0.9978345036506653,-0.03354421630501747,-0.05417986214160919,-0.01629449427127838
713.0,0.0,0.0,0.0,0.0,0.0,0.0,-0.006210372783243656,0.027092093601822853,0.03499115630984306,0.9977687001228333,-0.03459525853395462,-0.054488539695739746,-0.0170739833265543
714.0,0.0,0.0,0.0,0.0,0.0,0.0,-0.006521278060972691,0.0225463155657053,0.02486419305205345,0.997738242149353,-0.03461836650967598,-0.054737746715545654,-0.017984699457883835
715.0,0.0,0.0,0.0,0.0,0.0,0.0,-0.0098949009552598,0.01850934699177742,0.012515353038907051,0.9977484941482544,-0.03416125848889351,-0.054470472037792206,-0.019073761999607086
716.0,0.0,0.0,0.0,0.0,0.0,0.0,-0.013282500207424164,0.017972148954868317,0.00556796882301569,0.9977578520774841,-0.03455289453268051,-0.05359359458088875,-0.020324239507317543
717.0,0.0,0.0,0.0,0.0,0.0,0.0,-0.00756347319111228,0.015236007049679756,-0.00023404402600135654,0.9978235363960266,-0.035013049840927124,-0.05180639773607254,-0.020929543301463127
718.0,0.0,0.0,0.0,0.0,0.0,0.0,-0.006964182481169701,0.016571108251810074,0.012169213965535164,0.9978787302970886,-0.03495126590132713,-0.05039811506867409,-0.021823029965162277
719.0,0.0,0.0,0.0,0.0,0.0,0.0,-0.005914012435823679,0.01444193534553051,0.004118915181607008,0.9979254603385925,-0.0344976969063282,-0.049150384962558746,-0.023220092058181763
720.0,0.0,0.0,0.0,0.0,0.0,0.0,-0.0025833004619926214,0.014299185946583748,0.023282915353775024,0.9980085492134094,-0.03270670399069786,-0.048060234636068344,-0.024477526545524597
721.0,0.0,0.0,0.0,0.0,0.0,0.0,-0.00550578348338604,0.009377187117934227,0.0057298061437904835,0.9981138110160828,-0.03071006014943123,-0.046234503388404846,-0.02623347006738186
722.0,0.0,0.0,0.0,0.0,0.0,0.0,0.0012843789299950004,0.006099165882915258,0.0018817320233210921,0.9982203841209412,-0.029557274654507637,-0.0439370758831501,-0.027424566447734833
723.0,0.0,0.0,0.0,0.0,0.0,0.0,0.004764139652252197,0.005704039242118597,-0.005174835212528706,0.9983571767807007,-0.027633896097540855,-0.04179385304450989,-0.027794143185019493
724.0,0.0,0.0,0.0,0.0,0.0,0.0,0.009292900562286377,0.004638472106307745,-0.010538969188928604,0.9984965920448303,-0.025279775261878967,-0.03982461988925934,-0.02791697345674038
725.0,0.0,0.0,0.0,0.0,0.0,0.0,0.01499234326183796,0.000287122733425349,-0.008862423710525036,0.9986011385917664,-0.022861743345856667,-0.03866621106863022,-0.027894703671336174
726.0,0.0,0.0,0.0,0.0,0.0,0.0,0.014709609560668468,-0.002727754879742861,-0.004200219176709652,0.998684287071228,-0.020676294341683388,-0.037849243730306625,-0.02773752622306347
727.0,0.0,0.0,0.0,0.0,0.0,0.0,0.013526891358196735,-0.004150667693465948,-4.9332509661326185e-05,0.9987820982933044,-0.0183145422488451,-0.036607250571250916,-0.027544759213924408
728.0,0.0,0.0,0.0,0.0,0.0,0.0,0.02226823754608631,-0.0023026487324386835,-0.003173321019858122,0.9988740086555481,-0.01589168980717659,-0.036142658442258835,-0.026305217295885086
729.0,0.0,0.0,0.0,0.0,0.0,0.0,0.024228114634752274,-0.0027876703534275293,-0.007806386332958937,0.998974621295929,-0.014031128957867622,-0.034991443157196045,-0.025072434917092323
730.0,0.0,0.0,0.0,0.0,0.0,0.0,0.02964520826935768,-0.006172161549329758,-0.022979319095611572,0.9990367293357849,-0.012645529583096504,-0.0340033620595932,-0.024690689519047737
731.0,0.0,0.0,0.0,0.0,0.0,0.0,0.03650138899683952,-0.006002945825457573,-0.03766414150595665,0.9990939497947693,-0.010912194848060608,-0.0336313471198082,-0.023684557527303696
732.0,0.0,0.0,0.0,0.0,0.0,0.0,0.030664639547467232,-0.008319957181811333,-0.029462352395057678,0.9991357922554016,-0.009738986380398273,-0.03392777964472771,-0.021949881687760353
733.0,0.0,0.0,0.0,0.0,0.0,0.0,0.03144828602671623,-0.007611928973346949,-0.022440755739808083,0.9991509318351746,-0.00918055884540081,-0.03425808623433113,-0.020967787131667137
734.0,0.0,0.0,0.0,0.0,0.0,0.0,0.030643276870250702,-0.008136559277772903,-0.016557203605771065,0.9991809129714966,-0.008968423120677471,-0.034470394253730774,-0.019209884107112885
735.0,0.0,0.0,0.0,0.0,0.0,0.0,0.028389526531100273,-0.007769651245325804,-0.011055391281843185,0.9992032647132874,-0.009179279208183289,-0.03508557751774788,-0.016661284491419792
736.0,0.0,0.0,0.0,0.0,0.0,0.0,0.028330305591225624,-0.010954990983009338,-0.0065542166121304035,0.9992008209228516,-0.009655768983066082,-0.035824865102767944,-0.014871660619974136
737.0,0.0,0.0,0.0,0.0,0.0,0.0,0.028446592390537262,-0.012861675582826138,-0.005917634814977646,0.9991941452026367,-0.010079742409288883,-0.03663796931505203,-0.012938633561134338
738.0,0.0,0.0,0.0,0.0,0.0,0.0,0.02515374682843685,-0.012684228830039501,0.0053177098743617535,0.9991811513900757,-0.010824057273566723,-0.037275686860084534,-0.011415459215641022
739.0,0.0,0.0,0.0,0.0,0.0,0.0,0.018471157178282738,-0.016329051926732063,0.002616569399833679,0.9991483092308044,-0.011787296272814274,-0.03818381577730179,-0.010301775299012661
740.0,0.0,0.0,0.0,0.0,0.0,0.0,0.016393395140767097,-0.016976436600089073,-0.001963298534974456,0.9990953803062439,-0.013006864115595818,-0.03947144001722336,-0.008993062190711498
741.0,0.0,0.0,0.0,0.0,0.0,0.0,0.009654500521719456,-0.016033675521612167,0.003867378458380699,0.9990469813346863,-0.014631105586886406,-0.04040951654314995,-0.0076480163261294365
742.0,0.0,0.0,0.0,0.0,0.0,0.0,0.0010682421270757914,-0.015720123425126076,0.009514178149402142,0.9990010857582092,-0.015445129945874214,-0.041337016969919205,-0.0070333462208509445
743.0,0.0,0.0,0.0,0.0,0.0,0.0,0.002086138818413019,-0.016018878668546677,-0.0010160845704376698,0.9989181756973267,-0.01595195196568966,-0.043203867971897125,-0.006458548363298178
744.0,0.0,0.0,0.0,0.0,0.0,0.0,-0.00590659212321043,-0.014937423169612885,0.000281392625765875,0.9988380670547485,-0.017153948545455933,-0.04468866065144539,-0.005581205245107412
745.0,0.0,0.0,0.0,0.0,0.0,0.0,-0.008316198363900185,-0.010655174031853676,0.005565487314015627,0.998769223690033,-0.01896641030907631,-0.04556388780474663,-0.004905648063868284
746.0,0.0,0.0,0.0,0.0,0.0,0.0,-0.011751874350011349,-0.008747957646846771,0.00599623704329133,0.9986905455589294,-0.02053847536444664,-0.0466560497879982,-0.004268862772732973
747.0,0.0,0.0,0.0,0.0,0.0,0.0,-0.00967848114669323,-0.006819584406912327,0.017054172232747078,0.9986110329627991,-0.02186199650168419,-0.04782390221953392,-0.0033335702028125525
748.0,0.0,0.0,0.0,0.0,0.0,0.0,-0.010924573987722397,-0.006329708732664585,0.01745939813554287,0.9985295534133911,-0.023419203236699104,-0.04878139868378639,-0.0032814114820212126
749.0,0.0,0.0,0.0,0.0,0.0,0.0,-0.013436460867524147,-0.006281762383878231,0.01701008901000023,0.9984554648399353,-0.02461288496851921,-0.04970872402191162,-0.003098737448453903
750.0,0.0,0.0,0.0,0.0,0.0,0.0,-0.013444963842630386,-0.0069985478185117245,0.013572518713772297,0.9983862638473511,-0.025666315108537674,-0.05054919421672821,-0.0032949361484497786
751.0,0.0,0.0,0.0,0.0,0.0,0.0,-0.012338515371084213,-0.005379898939281702,0.011500408872961998,0.9983436465263367,-0.02654506079852581,-0.05089564993977547,-0.0038894452154636383
752.0,0.0,0.0,0.0,0.0,0.0,0.0,-0.014568300917744637,-0.0029697914142161608,0.0115360077470541,0.9983001947402954,-0.0278138630092144,-0.05108015611767769,-0.003741036169230938
753.0,0.0,0.0,0.0,0.0,0.0,0.0,-0.0128970667719841,0.001569956773892045,0.017307480797171593,0.9982701539993286,-0.02876652218401432,-0.051185064017772675,-0.003083102172240615
754.0,0.0,0.0,0.0,0.0,0.0,0.0,-0.01004547718912363,0.0018289175350219011,0.015935352072119713,0.9982583522796631,-0.029167871922254562,-0.05118521302938461,-0.003018161514773965
755.0,0.0,0.0,0.0,0.0,0.0,0.0,-0.008249010890722275,0.0038519620429724455,0.0216994509100914,0.9982308149337769,-0.030349988490343094,-0.051009394228458405,-0.003508008783683181
756.0,0.0,0.0,0.0,0.0,0.0,0.0,-0.005840244237333536,0.009868132881820202,0.03133485093712807,0.9981902837753296,-0.0318356454372406,-0.050899408757686615,-0.003492446616292
757.0,0.0,0.0,0.0,0.0,0.0,0.0,-0.004338087514042854,0.010811800137162209,0.03461315855383873,0.9981628060340881,-0.03305703029036522,-0.05063033103942871,-0.0038442593067884445
758.0,0.0,0.0,0.0,0.0,0.0,0.0,-0.001315556582994759,0.020052306354045868,0.04731793701648712,0.9981006979942322,-0.035633254796266556,-0.05007098987698555,-0.004303693771362305
759.0,0.0,0.0,0.0,0.0,0.0,0.0,0.004567654803395271,0.01761850155889988,0.037946756929159164,0.998058557510376,-0.038063984364271164,-0.04910058155655861,-0.004391578491777182
760.0,0.0,0.0,0.0,0.0,0.0,0.0,0.006395048927515745,0.011616740375757217,-7.910732529126108e-05,0.9980788826942444,-0.03924470767378807,-0.04771655052900314,-0.004609567113220692
761.0,0.0,0.0,0.0,0.0,0.0,0.0,0.006775896530598402,0.012654679827392101,0.0060280486941337585,0.9980793595314026,-0.03990815952420235,-0.047151412814855576,-0.004664115607738495
762.0,0.0,0.0,0.0,0.0,0.0,0.0,0.008695467375218868,0.005363407079130411,-0.026041854172945023,0.9980952739715576,-0.040006373077631,-0.04661014676094055,-0.005687170661985874
763.0,0.0,0.0,0.0,0.0,0.0,0.0,-0.0041875652968883514,0.0018414619844406843,-0.041871245950460434,0.9981290698051453,-0.039814870804548264,-0.04580657184123993,-0.007375936023890972
764.0,0.0,0.0,0.0,0.0,0.0,0.0,-0.009795411489903927,0.002899175975471735,-0.04206884279847145,0.9981784224510193,-0.038956061005592346,-0.04544711858034134,-0.0075310817919671535
765.0,0.0,0.0,0.0,0.0,0.0,0.0,-0.006294042803347111,0.00791879091411829,-0.018417084589600563,0.9982447624206543,-0.03752977028489113,-0.04522791504859924,-0.007306922227144241
766.0,0.0,0.0,0.0,0.0,0.0,0.0,-0.0019217426888644695,0.008533000014722347,-0.006841567344963551,0.9983268976211548,-0.036300454288721085,-0.04435499384999275,-0.007660591974854469
767.0,0.0,0.0,0.0,0.0,0.0,0.0,-0.0018295710906386375,0.0029797451570630074,-0.014210636727511883,0.9984363317489624,-0.03462814912199974,-0.04306374490261078,-0.00840932410210371
768.0,0.0,0.0,0.0,0.0,0.0,0.0,-0.0035444789100438356,0.000425307807745412,-0.013899755664169788,0.9985355138778687,-0.03262373059988022,-0.042150866240262985,-0.009248381480574608
769.0,0.0,0.0,0.0,0.0,0.0,0.0,-0.0027451429050415754,0.001898391405120492,-0.010074864141643047,0.998619794845581,-0.03044675476849079,-0.041529688984155655,-0.010343469679355621
770.0,0.0,0.0,0.0,0.0,0.0,0.0,0.0005057156668044627,0.0009558325400575995,-0.007677799556404352,0.9987178444862366,-0.028031254187226295,-0.04037151485681534,-0.01212670374661684
771.0,0.0,0.0,0.0,0.0,0.0,0.0,-0.000717105227522552,0.005319644697010517,0.0003799749247264117,0.9987949728965759,-0.02634965069591999,-0.039246901869773865,-0.013203381560742855
772.0,0.0,0.0,0.0,0.0,0.0,0.0,0.0030629662796854973,0.007608154788613319,-0.0006764847785234451,0.9988300204277039,-0.025014307349920273,-0.03924810513854027,-0.01314226258546114
773.0,0.0,0.0,0.0,0.0,0.0,0.0,0.008122514002025127,0.0066186171025037766,-0.0037698177620768547,0.9988481402397156,-0.023190034553408623,-0.040021054446697235,-0.012761418707668781
774.0,0.0,0.0,0.0,0.0,0.0,0.0,0.004426326137036085,0.006034337915480137,0.011687676422297955,0.9988189935684204,-0.02166052721440792,-0.0413832850754261,-0.013379980809986591
775.0,0.0,0.0,0.0,0.0,0.0,0.0,-0.001289847888983786,0.0025861451867967844,0.007845533080399036,0.9987949728965759,-0.020394517108798027,-0.042162321507930756,-0.014665295369923115
776.0,0.0,0.0,0.0,0.0,0.0,0.0,0.0017898804508149624,0.008166511543095112,0.0027525252662599087,0.9987812638282776,-0.019730346277356148,-0.04254687577486038,-0.015392196364700794
777.0,0.0,0.0,0.0,0.0,0.0,0.0,-0.0007337506394833326,0.01257374882698059,-0.0017354993615299463,0.9987867474555969,-0.019234230741858482,-0.04240013286471367,-0.016046127304434776
778.0,0.0,0.0,0.0,0.0,0.0,0.0,0.0017780964262783527,0.01025724783539772,-0.014011930674314499,0.9988027215003967,-0.018987426534295082,-0.041625674813985825,-0.01732206717133522
779.0,0.0,0.0,0.0,0.0,0.0,0.0,0.008933065459132195,0.006313015706837177,-0.02729194425046444,0.998803973197937,-0.018976904451847076,-0.041253846138715744,-0.01812560297548771
780.0,0.0,0.0,0.0,0.0,0.0,0.0,0.0078070079907774925,0.009715883061289787,-0.02079666033387184,0.9987971782684326,-0.019679298624396324,-0.04094083234667778,-0.018458498641848564
781.0,0.0,0.0,0.0,0.0,0.0,0.0,0.004774536471813917,0.00932210125029087,-0.002321661449968815,0.9988190531730652,-0.020895183086395264,-0.04004528373479843,-0.017893260344862938
782.0,0.0,0.0,0.0,0.0,0.0,0.0,0.00472301198169589,0.0064215525053441525,-0.007354967296123505,0.998837411403656,-0.021267011761665344,-0.03942382335662842,-0.017817890271544456
783.0,0.0,0.0,0.0,0.0,0.0,0.0,0.00722707761451602,0.004005135502666235,-0.010929930955171585,0.9988377690315247,-0.02187139354646206,-0.039120111614465714,-0.017731590196490288
784.0,0.0,0.0,0.0,0.0,0.0,0.0,0.013806035742163658,0.003945637494325638,-0.0011606212938204408,0.9987930059432983,-0.022511454299092293,-0.04021960496902466,-0.01696491427719593
785.0,0.0,0.0,0.0,0.0,0.0,0.0,0.0033183726482093334,0.008631499484181404,0.0233602337539196,0.9987829923629761,-0.02192329801619053,-0.04119628667831421,-0.015952205285429955
786.0,0.0,0.0,0.0,0.0,0.0,0.0,0.004126690793782473,0.01310628280043602,0.03786280006170273,0.9987475275993347,-0.021608781069517136,-0.042124632745981216,-0.01618470810353756
787.0,0.0,0.0,0.0,0.0,0.0,0.0,0.007284436374902725,0.012541248463094234,0.029443608596920967,0.9987084865570068,-0.022059494629502296,-0.04275748133659363,-0.01631583832204342
788.0,0.0,0.0,0.0,0.0,0.0,0.0,0.0006445932667702436,0.012653438374400139,0.038198743015527725,0.998702883720398,-0.023486297577619553,-0.042330119758844376,-0.01579604111611843
789.0,0.0,0.0,0.0,0.0,0.0,0.0,-0.0005957584362477064,0.01029926910996437,0.01610499620437622,0.9986941814422607,-0.02457127720117569,-0.041795119643211365,-0.016103772446513176
790.0,0.0,0.0,0.0,0.0,0.0,0.0,-0.0016707086469978094,-0.0004700352728832513,-0.010174422524869442,0.9987134337425232,-0.024743683636188507,-0.0412583127617836,-0.016033727675676346
791.0,0.0,0.0,0.0,0.0,0.0,0.0,-0.006451962981373072,0.0008049553725868464,-0.0065088095143437386,0.9987580180168152,-0.024075565859675407,-0.04087059572339058,-0.015241008251905441
792.0,0.0,0.0,0.0,0.0,0.0,0.0,-0.017393825575709343,-0.005972710903733969,-0.020632147789001465,0.9987989068031311,-0.023606693372130394,-0.04017467424273491,-0.015145440585911274
793.0,0.0,0.0,0.0,0.0,0.0,0.0,-0.014451436698436737,-0.006596431136131287,-0.02457568049430847,0.9988406896591187,-0.022593224421143532,-0.03987263888120651,-0.014726794324815273
794.0,0.0,0.0,0.0,0.0,0.0,0.0,-0.010192441754043102,-0.0022236090153455734,-0.013969494961202145,0.9989092350006104,-0.02061779983341694,-0.039441440254449844,-0.014109824784100056
795.0,0.0,0.0,0.0,0.0,0.0,0.0,-0.009835859760642052,-0.0022662875708192587,-0.006562733091413975,0.9989904761314392,-0.01914319209754467,-0.038335949182510376,-0.01348170731216669
796.0,0.0,0.0,0.0,0.0,0.0,0.0,-0.009562552906572819,-0.001353354542516172,-0.005507201422005892,0.9990687966346741,-0.017836300656199455,-0.03718571364879608,-0.012690224684774876
797.0,0.0,0.0,0.0,0.0,0.0,0.0,-0.0038385954685509205,-0.0034224619157612324,-0.011675149202346802,0.9991303086280823,-0.015835383906960487,-0.03669301047921181,-0.011896150186657906
798.0,0.0,0.0,0.0,0.0,0.0,0.0,-0.004808756057173014,-0.0048479000106453896,-0.007352250162512064,0.9991912245750427,-0.013412837870419025,-0.03609552979469299,-0.011573574505746365
799.0,0.0,0.0,0.0,0.0,0.0,0.0,-0.005815636832267046,-0.002052516443654895,0.0007789049996063113,0.9992422461509705,-0.011327996850013733,-0.03559330105781555,-0.010947465896606445
800.0,0.0,0.0,0.0,0.0,0.0,0.0,-0.000363557250238955,0.0026974501088261604,0.010866171680390835,0.9992616772651672,-0.009817568585276604,-0.03573647513985634,-0.01013182383030653
801.0,0.0,0.0,0.0,0.0,0.0,0.0,0.0018569595413282514,0.005442267749458551,0.008454743772745132,0.9992650151252747,-0.008813995867967606,-0.036232542246580124,-0.008918894454836845
802.0,0.0,0.0,0.0,0.0,0.0,0.0,0.0017376936739310622,0.001252400572411716,-0.001020966563373804,0.9992609024047852,-0.008214048109948635,-0.03673529624938965,-0.0077950782142579556
803.0,0.0,0.0,0.0,0.0,0.0,0.0,0.002252740552648902,-5.2292427426436916e-05,-0.012748632580041885,0.9992578029632568,-0.00838692020624876,-0.03716452419757843,-0.005680366884917021
804.0,0.0,0.0,0.0,0.0,0.0,0.0,0.0038560626562684774,0.0053860186599195,-0.002175624016672373,0.9992514848709106,-0.009263359941542149,-0.03747605159878731,-0.0025935338344424963
805.0,0.0,0.0,0.0,0.0,0.0,0.0,0.008972019888460636,0.006578350439667702,0.0032178317196667194,0.9992373585700989,-0.009709686040878296,-0.03782046213746071,-0.0001492517621954903
806.0,0.0,0.0,0.0,0.0,0.0,0.0,0.0015733347972854972,0.0020683342590928078,-0.005326756276190281,0.9992280006408691,-0.009864185005426407,-0.0380094051361084,0.0013550868025049567
807.0,0.0,0.0,0.0,0.0,0.0,0.0,0.0002489343751221895,0.004776888061314821,0.008648167364299297,0.9992308020591736,-0.009524778462946415,-0.03793344646692276,0.0027696278411895037
808.0,0.0,0.0,0.0,0.0,0.0,0.0,0.0008590573561377823,0.005105063319206238,0.003996747080236673,0.9992356896400452,-0.009781748987734318,-0.0376572385430336,0.0038348969537764788
809.0,0.0,0.0,0.0,0.0,0.0,0.0,0.0035000417847186327,0.005885994993150234,0.014293201267719269,0.9992505311965942,-0.009705926291644573,-0.03719916567206383,0.004643567837774754
810.0,0.0,0.0,0.0,0.0,0.0,0.0,0.008417870849370956,0.013385988771915436,0.038217365741729736,0.9992835521697998,-0.00915743038058281,-0.03635718673467636,0.005209848750382662
811.0,0.0,0.0,0.0,0.0,0.0,0.0,0.01174219697713852,0.010884085670113564,0.034123342484235764,0.9993255734443665,-0.008474760688841343,-0.03530845791101456,0.005477664992213249
812.0,0.0,0.0,0.0,0.0,0.0,0.0,0.0035976055078208447,0.0013792798854410648,0.013902053236961365,0.9993749856948853,-0.007713390979915857,-0.03405347838997841,0.005484440363943577
813.0,0.0,0.0,0.0,0.0,0.0,0.0,-0.007719783112406731,0.0019011878175660968,0.014504026621580124,0.9994381666183472,-0.007261952385306358,-0.03236614912748337,0.004798746667802334
814.0,0.0,0.0,0.0,0.0,0.0,0.0,-0.006429039407521486,0.006020627915859222,0.018112070858478546,0.999491810798645,-0.007009258959442377,-0.030842769891023636,0.0038947758730500937
815.0,0.0,0.0,0.0,0.0,0.0,0.0,0.0002385641710134223,0.008164546452462673,0.017710505053400993,0.9995459914207458,-0.007116331253200769,-0.029158983379602432,0.0026347138918936253
816.0,0.0,0.0,0.0,0.0,0.0,0.0,-0.0019823566544800997,0.0068998332135379314,0.016645284369587898,0.9996035695075989,-0.007441625464707613,-0.027152221649885178,0.00048005738062784076
817.0,0.0,0.0,0.0,0.0,0.0,0.0,-0.007555185817182064,0.0011952369241043925,-0.013770485296845436,0.9996533989906311,-0.008309628814458847,-0.024885494261980057,-0.0022249564062803984
818.0,0.0,0.0,0.0,0.0,0.0,0.0,-0.007017992436885834,-0.0007492460426874459,-0.022586796432733536,0.9996864795684814,-0.009555431082844734,-0.02253175526857376,-0.0052643753588199615
819.0,0.0,0.0,0.0,0.0,0.0,0.0,-0.01424491498619318,0.0001303122116951272,-0.022223884239792824,0.9997145533561707,-0.01022350788116455,-0.019868306815624237,-0.00846305675804615
820.0,0.0,0.0,0.0,0.0,0.0,0.0,-0.014086855575442314,-0.00014042911061551422,-0.020789694041013718,0.9997147917747498,-0.009836451150476933,-0.018239988014101982,-0.011878419667482376
821.0,0.0,0.0,0.0,0.0,0.0,0.0,-0.01101699285209179,-0.009701418690383434,-0.04831017181277275,0.9996969699859619,-0.009487924166023731,-0.016910407692193985,-0.015158475376665592
822.0,0.0,0.0,0.0,0.0,0.0,0.0,-0.010718971490859985,-0.0020714513957500458,0.00738109415397048,0.9996752738952637,-0.009868384338915348,-0.016860472038388252,-0.01635383814573288
823.0,0.0,0.0,0.0,0.0,0.0,0.0,-0.01226799190044403,0.0005496164667420089,-0.00028068438405171037,0.999667227268219,-0.00995135959237814,-0.01691528782248497,-0.01674668677151203
824.0,0.0,0.0,0.0,0.0,0.0,0.0,0.0028101808857172728,-0.002169140614569187,-0.011577151715755463,0.9996774792671204,-0.0089908167719841,-0.017432531341910362,-0.016128862276673317
825.0,0.0,0.0,0.0,0.0,0.0,0.0,0.0073632728308439255,-0.00308414688333869,0.006706362124532461,0.9996841549873352,-0.006696895696222782,-0.01875295117497444,-0.015329438261687756
826.0,0.0,0.0,0.0,0.0,0.0,0.0,0.017710449174046516,-0.003795056603848934,0.008051521144807339,0.9996886253356934,-0.004811055958271027,-0.0193698201328516,-0.014975104480981827
827.0,0.0,0.0,0.0,0.0,0.0,0.0,0.028320815414190292,-0.005656687542796135,-0.0008079389808699489,0.9997099041938782,-0.002698228694498539,-0.018838873133063316,-0.014766641892492771
828.0,0.0,0.0,0.0,0.0,0.0,0.0,0.04474040865898132,-0.0009270963491871953,-0.007888165302574635,0.9997251629829407,-0.0002078885299852118,-0.018950294703245163,-0.013794394209980965
829.0,0.0,0.0,0.0,0.0,0.0,0.0,0.052549779415130615,0.0004666258755605668,-0.008884977549314499,0.999743640422821,0.001960768597200513,-0.018781248480081558,-0.012488126754760742
830.0,0.0,0.0,0.0,0.0,0.0,0.0,0.05671640858054161,-0.0019406040664762259,-0.011718254536390305,0.9997596144676208,0.003945543430745602,-0.01817172020673752,-0.011614283546805382
831.0,0.0,0.0,0.0,0.0,0.0,0.0,0.061402760446071625,-0.0018524392507970333,-0.017366431653499603,0.9997864961624146,0.0056820521131157875,-0.017174892127513885,-0.00999362487345934
832.0,0.0,0.0,0.0,0.0,0.0,0.0,0.06282100826501846,-0.0018328396836295724,-0.011785333976149559,0.9998050332069397,0.006686105392873287,-0.017115674912929535,-0.007216742727905512
833.0,0.0,0.0,0.0,0.0,0.0,0.0,0.05737721547484398,-0.003594164503738284,-0.006235972046852112,0.9998060464859009,0.007607276551425457,-0.0174850020557642,-0.004911461845040321
834.0,0.0,0.0,0.0,0.0,0.0,0.0,0.05305246263742447,-0.009576711803674698,-0.0079205222427845,0.9998019337654114,0.008262205868959427,-0.01783359795808792,-0.003147189039736986
835.0,0.0,0.0,0.0,0.0,0.0,0.0,0.05015728250145912,-0.01142562460154295,0.01364900078624487,0.9998019933700562,0.008042635396122932,-0.01817314699292183,-0.0010663593420758843
836.0,0.0,0.0,0.0,0.0,0.0,0.0,0.043989475816488266,-0.013369226828217506,0.02599327266216278,0.9997937679290771,0.007836802862584591,-0.018727073445916176,0.0006434024544432759
