,Position_X,Position_Y,Position_Z,Velocity_X,Velocity_Y,Velocity_Z,Acceleration_X,Acceleration_Y,Acceleration_Z,Quaterion_0,Quaterion_1,Quaterion_2,Quaterion_3
166.0,0.0,0.0,0.0,0.0,0.0,0.0,-0.007312684319913387,0.007447049021720886,-0.009225578978657722,1.0,0.0,6.938893903907228e-18,-2.7755575615628914e-17
167.0,0.0,0.0,0.0,0.0,0.0,0.0,0.0055997627787292,-0.0046831234358251095,-0.03149072080850601,0.9999982118606567,-0.0006686243577860296,0.0017462025862187147,-0.00025646077119745314
168.0,0.0,0.0,0.0,0.0,0.0,0.0,0.030876614153385162,-0.005031228065490723,-0.04890412464737892,0.9999973177909851,-0.0016873711720108986,0.0014882752439007163,0.0005830660229548812
169.0,0.0,0.0,0.0,0.0,0.0,0.0,0.02558787539601326,0.0016322527080774307,-0.02205931767821312,0.9999973177909851,-0.0019869559910148382,0.00012006193719571456,0.001197115983814001
170.0,0.0,0.0,0.0,0.0,0.0,0.0,-0.006458179093897343,0.009664473123848438,0.015468328259885311,0.9999958276748657,-0.001824814360588789,-0.0009842701256275177,0.0020070818718522787
171.0,0.0,0.0,0.0,0.0,0.0,0.0,-0.0064763715490698814,0.005756224971264601,0.021578751504421234,0.9999913573265076,-0.0019672575872391462,-0.0018776272190734744,0.0031501317862421274
172.0,0.0,0.0,0.0,0.0,0.0,0.0,-0.008726370520889759,0.003161422209814191,-0.0043913512490689754,0.9999914765357971,-0.0015512309037148952,-0.002134790178388357,0.003176979022100568
173.0,0.0,0.0,0.0,0.0,0.0,0.0,-0.0018409090116620064,-0.00039597685099579394,0.0017696225550025702,0.9999902248382568,-0.00113395182415843,-0.002106643281877041,0.0037246677093207836
174.0,0.0,0.0,0.0,0.0,0.0,0.0,0.009554005227982998,0.0007675192900933325,0.010406638495624065,0.9999881982803345,-0.0007359790615737438,-0.0020966290030628443,0.004315240308642387
175.0,0.0,0.0,0.0,0.0,0.0,0.0,0.012281175702810287,0.002917709993198514,0.008396543562412262,0.9999879598617554,-0.0004662931023631245,-0.0020540235564112663,0.004432737361639738
176.0,0.0,0.0,0.0,0.0,0.0,0.0,0.014062177389860153,0.0027131931856274605,0.0001193727512145415,0.9999874234199524,-0.00043676566565409303,-0.0021310015581548214,0.004515223670750856
177.0,0.0,0.0,0.0,0.0,0.0,0.0,0.014014974236488342,0.003980265464633703,-0.003266239771619439,0.9999885559082031,-9.34964305088215e-07,-0.0018231504363939166,0.0044229342602193356
178.0,0.0,0.0,0.0,0.0,0.0,0.0,0.011605288833379745,0.003801971208304167,-0.009404860436916351,0.9999895691871643,-0.00023065540881361812,-0.001550278626382351,0.004286784678697586
179.0,0.0,0.0,0.0,0.0,0.0,0.0,0.0066877370700240135,0.0010984165128320456,-0.021622952073812485,0.9999862909317017,-0.0006837709806859493,-0.001419563079252839,0.004991508554667234
180.0,0.0,0.0,0.0,0.0,0.0,0.0,0.0036207959055900574,0.0022548155393451452,-0.02670196443796158,0.9999852776527405,-0.0009089687955565751,-0.0016299181152135134,0.005093456245958805
181.0,0.0,0.0,0.0,0.0,0.0,0.0,0.00715788034722209,0.0037545368541032076,-0.004512262996286154,0.999980628490448,-0.001320347306318581,-0.0026078459341078997,0.005495726130902767
182.0,0.0,0.0,0.0,0.0,0.0,0.0,0.002030381001532078,0.005172411911189556,0.009321141056716442,0.9999713897705078,-0.0022143188398331404,-0.0042495122179389,0.005850640591233969
183.0,0.0,0.0,0.0,0.0,0.0,0.0,0.0007969050784595311,0.004034731537103653,0.02259662002325058,0.9999601244926453,-0.0032916266936808825,-0.005817529279738665,0.0059254784137010574
184.0,0.0,0.0,0.0,0.0,0.0,0.0,0.0013211613986641169,0.0035870650317519903,0.0207668486982584,0.999952495098114,-0.004215841647237539,-0.006785879842936993,0.005580692086368799
185.0,0.0,0.0,0.0,0.0,0.0,0.0,0.0005827684653922915,0.0035978443920612335,0.021221226081252098,0.9999387860298157,-0.005695429630577564,-0.007819398306310177,0.005368631333112717
186.0,0.0,0.0,0.0,0.0,0.0,0.0,-0.004093571566045284,0.003916645888239145,0.015473226085305214,0.9999268651008606,-0.007074252236634493,-0.008363352157175541,0.005123474169522524
187.0,0.0,0.0,0.0,0.0,0.0,0.0,-0.009263814426958561,0.005145487375557423,0.008507720194756985,0.9999188184738159,-0.007811171468347311,-0.00867991242557764,0.005103609059005976
188.0,0.0,0.0,0.0,0.0,0.0,0.0,-0.009638198651373386,0.007931288331747055,0.009551702067255974,0.999904215335846,-0.008829702623188496,-0.009082837030291557,0.005572272464632988
189.0,0.0,0.0,0.0,0.0,0.0,0.0,-0.010666031390428543,0.008030331693589687,0.007226905785501003,0.9998956918716431,-0.009742394089698792,-0.008905471302568913,0.005863678175956011
190.0,0.0,0.0,0.0,0.0,0.0,0.0,-0.0062406426295638084,0.007269321940839291,0.0011967902537435293,0.9998918175697327,-0.010461785830557346,-0.008573752827942371,0.005784099455922842
191.0,0.0,0.0,0.0,0.0,0.0,0.0,-0.0021519081201404333,0.008070051670074463,-0.006509543862193823,0.9998877048492432,-0.010323243215680122,-0.00870571844279766,0.006494164001196623
192.0,0.0,0.0,0.0,0.0,0.0,0.0,0.0003403609443921596,0.007988850586116314,-0.003109466517344117,0.9998841881752014,-0.010187564417719841,-0.008920601569116116,0.006948822643607855
193.0,0.0,0.0,0.0,0.0,0.0,0.0,0.002818493405357003,0.0068054115399718285,0.0005935423541814089,0.9998853206634521,-0.010263125412166119,-0.008772577159106731,0.006860870867967606
194.0,0.0,0.0,0.0,0.0,0.0,0.0,0.005599190015345812,0.005986640229821205,0.0001307239435845986,0.9998845458030701,-0.00954475812613964,-0.008873610757291317,0.007813621312379837
195.0,0.0,0.0,0.0,0.0,0.0,0.0,0.007107727695256472,0.003391202539205551,-0.0011066979495808482,0.999890148639679,-0.008848026394844055,-0.00879092887043953,0.00800624955445528
196.0,0.0,0.0,0.0,0.0,0.0,0.0,0.007360108662396669,0.0015755551867187023,-0.0035146945156157017,0.9998841881752014,-0.009092845022678375,-0.00873477291315794,0.008523469790816307
197.0,0.0,0.0,0.0,0.0,0.0,0.0,0.00828798208385706,0.0017057397635653615,-0.004755239002406597,0.9998745918273926,-0.009287138469517231,-0.008813287131488323,0.009319067932665348
198.0,0.0,0.0,0.0,0.0,0.0,0.0,0.0045247795060276985,0.00037346521276049316,-0.0010823698248714209,0.9998834133148193,-0.008817078545689583,-0.008565705269575119,0.009058133698999882
199.0,0.0,0.0,0.0,0.0,0.0,0.0,-0.002614299999549985,-0.0013558873906731606,-3.546086736605503e-05,0.9998843669891357,-0.008949742652475834,-0.008220055140554905,0.00914326123893261
200.0,0.0,0.0,0.0,0.0,0.0,0.0,-0.004923873580992222,0.0007729445933364332,0.002517590532079339,0.9998826384544373,-0.009089862927794456,-0.0079305749386549,0.009447312913835049
201.0,0.0,0.0,0.0,0.0,0.0,0.0,-0.006058332975953817,0.0007934460882097483,0.008891502395272255,0.9998889565467834,-0.008415442891418934,-0.007357644848525524,0.009855910204350948
202.0,0.0,0.0,0.0,0.0,0.0,0.0,-0.002946763066574931,-0.004528273828327656,0.005432579200714827,0.9999083280563354,-0.007899138145148754,-0.0059796650893986225,0.009232238866388798
203.0,0.0,0.0,0.0,0.0,0.0,0.0,0.021420538425445557,-0.02347385138273239,-0.041913192719221115,0.9999045133590698,-0.008635657839477062,-0.005775835365056992,0.00910910964012146
204.0,0.0,0.0,0.0,0.0,0.0,0.0,0.017218519002199173,-0.02042221464216709,-0.0013983746757730842,0.999893844127655,-0.009245416149497032,-0.006019600201398134,0.009518207050859928
205.0,0.0,0.0,0.0,0.0,0.0,0.0,0.008240499533712864,-0.015751849859952927,-0.002741596195846796,0.9998957514762878,-0.008615056984126568,-0.0066798385232687,0.009473013691604137
206.0,0.0,0.0,0.0,0.0,0.0,0.0,-0.009212999604642391,-0.008869568817317486,0.017471814528107643,0.9998952746391296,-0.007456493563950062,-0.0075343213975429535,0.00985498633235693
207.0,0.0,0.0,0.0,0.0,0.0,0.0,-0.003079445566982031,-0.005729320924729109,0.023049745708703995,0.9998775124549866,-0.007216958329081535,-0.008488616906106472,0.010994006879627705
208.0,0.0,0.0,0.0,0.0,0.0,0.0,0.00030085165053606033,0.0002967588952742517,0.015106827951967716,0.9998753666877747,-0.006778728682547808,-0.008609442971646786,0.011369342915713787
209.0,0.0,0.0,0.0,0.0,0.0,0.0,0.012245411984622478,0.0062105655670166016,0.019820064306259155,0.9998743534088135,-0.006378181278705597,-0.00841121282428503,0.011822624132037163
210.0,0.0,0.0,0.0,0.0,0.0,0.0,0.02125907503068447,0.012020903639495373,0.013284977525472641,0.999867856502533,-0.006203996948897839,-0.0078806784003973,0.012794683687388897
211.0,0.0,0.0,0.0,0.0,0.0,0.0,0.025651516392827034,0.01063275896012783,0.002224117983132601,0.9998734593391418,-0.005933322943747044,-0.007092023268342018,0.012944075278937817
212.0,0.0,0.0,0.0,0.0,0.0,0.0,0.023703696206212044,0.005643653217703104,-0.020337771624326706,0.9998757243156433,-0.006032472010701895,-0.006561262998729944,0.013003714382648468
213.0,0.0,0.0,0.0,0.0,0.0,0.0,0.024351108819246292,0.003957685548812151,-0.02248207852244377,0.9998676776885986,-0.006086217705160379,-0.006451799534261227,0.013639278709888458
214.0,0.0,0.0,0.0,0.0,0.0,0.0,0.024929415434598923,0.0039007628802210093,-0.011096887290477753,0.9998542070388794,-0.00611484469845891,-0.007162389345467091,0.014241625554859638
215.0,0.0,0.0,0.0,0.0,0.0,0.0,0.014552073553204536,0.005272381007671356,-0.004423343110829592,0.9998365640640259,-0.00664852699264884,-0.008389263413846493,0.014571331441402435
216.0,0.0,0.0,0.0,0.0,0.0,0.0,0.009902938269078732,0.003821052610874176,0.0022223189007490873,0.9998230934143066,-0.0072393761947751045,-0.009785612113773823,0.014340179041028023
217.0,0.0,0.0,0.0,0.0,0.0,0.0,0.002440153853967786,0.0032424423843622208,0.0017346662934869528,0.9997988939285278,-0.008617110550403595,-0.011212283745408058,0.014219286851584911
218.0,0.0,0.0,0.0,0.0,0.0,0.0,-0.001783108920790255,0.0036979157011955976,-0.0004604821733664721,0.9997751116752625,-0.010309751145541668,-0.012134499847888947,0.014008273370563984
219.0,0.0,0.0,0.0,0.0,0.0,0.0,-0.0027870316989719868,0.005831282585859299,-0.005193672142922878,0.9997506737709045,-0.013134721666574478,-0.012580880895256996,0.012952817603945732
220.0,0.0,0.0,0.0,0.0,0.0,0.0,-0.0028302730061113834,0.008898850530385971,-0.005648510064929724,0.9997245073318481,-0.01580202393233776,-0.012720243073999882,0.011805359274148941
221.0,0.0,0.0,0.0,0.0,0.0,0.0,-0.0032072875183075666,0.011756260879337788,0.0012938870349898934,0.9997131824493408,-0.01695050671696663,-0.012784315273165703,0.011083072982728481
222.0,0.0,0.0,0.0,0.0,0.0,0.0,-0.003604432800784707,0.00943457055836916,0.013354056514799595,0.999697744846344,-0.017784463241696358,-0.013046037405729294,0.010862592607736588
223.0,0.0,0.0,0.0,0.0,0.0,0.0,-0.0006391908973455429,0.0053345332853496075,0.011342654004693031,0.9996904730796814,-0.01886885240674019,-0.012707510963082314,0.010076954029500484
224.0,0.0,0.0,0.0,0.0,0.0,0.0,0.0032835754100233316,0.0005126083851791918,0.003917084541171789,0.9996925592422485,-0.019276129081845284,-0.012447784654796124,0.009395139291882515
225.0,0.0,0.0,0.0,0.0,0.0,0.0,0.0015531170647591352,-0.0018827413441613317,0.0029681397136300802,0.9996694922447205,-0.02002769522368908,-0.012728351168334484,0.009890798479318619
226.0,0.0,0.0,0.0,0.0,0.0,0.0,-0.003317279973998666,-0.0025526154786348343,-0.0020066569559276104,0.9996637105941772,-0.02021743543446064,-0.012920948676764965,0.009839082136750221
227.0,0.0,0.0,0.0,0.0,0.0,0.0,-0.005764012224972248,-0.003394239116460085,0.005095028784126043,0.9996640086174011,-0.020316660404205322,-0.0128931924700737,0.009633012115955353
228.0,0.0,0.0,0.0,0.0,0.0,0.0,-0.008176097646355629,-0.002688179025426507,0.010161025449633598,0.99964439868927,-0.020986715331673622,-0.013006411492824554,0.010073521174490452
229.0,0.0,0.0,0.0,0.0,0.0,0.0,-0.0046525090001523495,-0.0031538757029920816,0.007398285437375307,0.999630868434906,-0.021369310095906258,-0.012953813187777996,0.010664498433470726
230.0,0.0,0.0,0.0,0.0,0.0,0.0,-0.0011928594904020429,-0.005711525212973356,0.0023897611536085606,0.9996286034584045,-0.021418284624814987,-0.013028035871684551,0.010690726339817047
231.0,0.0,0.0,0.0,0.0,0.0,0.0,-0.0018851656932383776,-0.008301632478833199,0.0061766235157847404,0.9996485710144043,-0.02018449641764164,-0.013268695212900639,0.010923907160758972
232.0,0.0,0.0,0.0,0.0,0.0,0.0,-0.00332302856259048,-0.005645860452204943,0.021924996748566628,0.9996377825737,-0.01948883756995201,-0.013663229532539845,0.012565248645842075
233.0,0.0,0.0,0.0,0.0,0.0,0.0,-0.005078624468296766,-0.002458420814946294,0.03383762761950493,0.9996351599693298,-0.018132321536540985,-0.01381665002554655,0.014488838613033295
234.0,0.0,0.0,0.0,0.0,0.0,0.0,-0.003654696047306061,-0.00675185676664114,0.03241134062409401,0.9996654987335205,-0.016210783272981644,-0.012423031963407993,0.015870751813054085
235.0,0.0,0.0,0.0,0.0,0.0,0.0,0.002347045112401247,-0.018512556329369545,0.007685421034693718,0.9996798038482666,-0.016097549349069595,-0.010434560477733612,0.016505146399140358
236.0,0.0,0.0,0.0,0.0,0.0,0.0,0.029760943725705147,-0.029060203582048416,-0.05255028232932091,0.9996623992919922,-0.01681400090456009,-0.010162083432078362,0.01700604520738125
237.0,0.0,0.0,0.0,0.0,0.0,0.0,0.021763771772384644,-0.02098955400288105,-0.016297442838549614,0.9996539950370789,-0.01681048795580864,-0.010613569058477879,0.017225202172994614
238.0,0.0,0.0,0.0,0.0,0.0,0.0,-0.00764093454927206,-0.003844846272841096,-0.002007798757404089,0.999657928943634,-0.016471052542328835,-0.010989726521074772,0.017087535932660103
239.0,0.0,0.0,0.0,0.0,0.0,0.0,-0.007505555637180805,-0.0047394814901053905,0.006504078861325979,0.9996598362922668,-0.016155194491147995,-0.0115933483466506,0.01687970757484436
240.0,0.0,0.0,0.0,0.0,0.0,0.0,-0.009559188038110733,0.00023724540369585156,-0.013014725409448147,0.9996768832206726,-0.01613362319767475,-0.011816099286079407,0.01569485291838646
241.0,0.0,0.0,0.0,0.0,0.0,0.0,-0.009319947101175785,0.002938071032986045,0.000645279826130718,0.9996832609176636,-0.016383688896894455,-0.012030468322336674,0.01483934000134468
242.0,0.0,0.0,0.0,0.0,0.0,0.0,-0.002002220368012786,0.004993443842977285,0.004278863780200481,0.999692440032959,-0.016448430716991425,-0.012267746962606907,0.013927603140473366
243.0,0.0,0.0,0.0,0.0,0.0,0.0,-0.0024907602928578854,0.008434505201876163,-0.002967603038996458,0.9997097849845886,-0.016149599105119705,-0.012325146235525608,0.012948282063007355
244.0,0.0,0.0,0.0,0.0,0.0,0.0,0.004445870406925678,0.010813023895025253,-0.007205727510154247,0.9997355937957764,-0.015252179466187954,-0.012303262948989868,0.012028522789478302
245.0,0.0,0.0,0.0,0.0,0.0,0.0,-0.00376651668921113,0.004543382208794355,-0.007140108849853277,0.99977046251297,-0.014193480834364891,-0.01233198307454586,0.010272598825395107
246.0,0.0,0.0,0.0,0.0,0.0,0.0,-0.007879268378019333,0.0028579148929566145,-0.009175213053822517,0.9997698068618774,-0.013827843591570854,-0.01267760619521141,0.010412189178168774
247.0,0.0,0.0,0.0,0.0,0.0,0.0,0.0028960437048226595,0.004987487569451332,-0.01363140344619751,0.9997658133506775,-0.013440927490592003,-0.013198895379900932,0.010652679018676281
248.0,0.0,0.0,0.0,0.0,0.0,0.0,-0.001824206905439496,0.0020945861469954252,-0.01252895686775446,0.999782145023346,-0.012828200124204159,-0.013521695509552956,0.009398785419762135
249.0,0.0,0.0,0.0,0.0,0.0,0.0,-0.001454348093830049,0.001274014706723392,-0.007037850096821785,0.9997947216033936,-0.012286030687391758,-0.013721650466322899,0.00844518095254898
250.0,0.0,0.0,0.0,0.0,0.0,0.0,0.005840415135025978,0.0022153060417622328,-0.007645093370229006,0.9997906684875488,-0.012252191081643105,-0.014338080771267414,0.007937990128993988
251.0,0.0,0.0,0.0,0.0,0.0,0.0,0.010918657295405865,0.0012533264234662056,-0.00392872141674161,0.9997847080230713,-0.012426292523741722,-0.01492017786949873,0.007319697178900242
252.0,0.0,0.0,0.0,0.0,0.0,0.0,0.010481207631528378,-0.0006704217521473765,-0.0018070352962240577,0.9997685551643372,-0.013081895187497139,-0.01574893295764923,0.006612877361476421
253.0,0.0,0.0,0.0,0.0,0.0,0.0,0.010597925633192062,-0.0017862864769995213,0.0007516066543757915,0.9997484087944031,-0.013913479633629322,-0.01660749688744545,0.005814579781144857
254.0,0.0,0.0,0.0,0.0,0.0,0.0,0.010506460443139076,-0.0005710740224458277,0.008715406991541386,0.9997076988220215,-0.015114163048565388,-0.017928889021277428,0.005883808247745037
255.0,0.0,0.0,0.0,0.0,0.0,0.0,0.011322630569338799,-0.002206132048740983,0.008163049817085266,0.999674379825592,-0.016144081950187683,-0.018930675461888313,0.005670208018273115
256.0,0.0,0.0,0.0,0.0,0.0,0.0,0.009488843381404877,-0.0021466028410941362,-0.001418033498339355,0.9996342062950134,-0.017837461084127426,-0.01988682895898819,0.004224917385727167
257.0,0.0,0.0,0.0,0.0,0.0,0.0,0.006957374047487974,0.0010775738628581166,-0.004888241179287434,0.999566376209259,-0.020143676549196243,-0.021313456818461418,0.0026659625582396984
258.0,0.0,0.0,0.0,0.0,0.0,0.0,0.0019984343089163303,0.00547679141163826,0.003430028911679983,0.9994734525680542,-0.02277430333197117,-0.02307210862636566,0.0013820643071085215
259.0,0.0,0.0,0.0,0.0,0.0,0.0,-0.005317890550941229,0.008862009271979332,0.017142953351140022,0.9993814826011658,-0.02493980899453163,-0.024792050942778587,0.00037884950870648026
260.0,0.0,0.0,0.0,0.0,0.0,0.0,-0.008518824353814125,0.009274663403630257,0.024058232083916664,0.9993182420730591,-0.026614123955368996,-0.025568047538399696,-0.0010367477079853415
261.0,0.0,0.0,0.0,0.0,0.0,0.0,-0.006346522364765406,0.005108242854475975,0.015235543251037598,0.9992899894714355,-0.02750452607870102,-0.02561642788350582,-0.002607876667752862
262.0,0.0,0.0,0.0,0.0,0.0,0.0,-0.002908325055614114,0.0021264979150146246,0.0026803421787917614,0.9992890954017639,-0.027529770508408546,-0.0254567489027977,-0.003924847114831209
263.0,0.0,0.0,0.0,0.0,0.0,0.0,-0.001108967000618577,0.002060277620330453,-0.006411045789718628,0.9992474317550659,-0.02843405120074749,-0.025958608835935593,-0.0047227125614881516
264.0,0.0,0.0,0.0,0.0,0.0,0.0,0.0015237632906064391,0.0008605733746662736,-0.00929180346429348,0.9991926550865173,-0.029713260009884834,-0.026622608304023743,-0.004742448218166828
265.0,0.0,0.0,0.0,0.0,0.0,0.0,0.006120595149695873,-6.075591591070406e-05,-0.013349710963666439,0.9991564154624939,-0.030125848948955536,-0.027231844142079353,-0.006111063063144684
266.0,0.0,0.0,0.0,0.0,0.0,0.0,-0.0026265860069543123,-0.004082732833921909,-0.016529332846403122,0.9991127252578735,-0.030801400542259216,-0.027681538835167885,-0.007665196433663368
267.0,0.0,0.0,0.0,0.0,0.0,0.0,0.0010524617973715067,0.0019675756338983774,-0.011538254097104073,0.9990466833114624,-0.03218680992722511,-0.028357136994600296,-0.008103077299892902
268.0,0.0,0.0,0.0,0.0,0.0,0.0,0.0013850325485691428,0.0038860649801790714,-0.005169219803065062,0.9989750385284424,-0.03325958549976349,-0.029557902365922928,-0.00830855406820774
269.0,0.0,0.0,0.0,0.0,0.0,0.0,-0.0023678303696215153,0.0041060918010771275,-0.0026875711046159267,0.9989193081855774,-0.03390306234359741,-0.03052673116326332,-0.008888520300388336
270.0,0.0,0.0,0.0,0.0,0.0,0.0,-0.00445008696988225,0.0073286001570522785,0.011977446265518665,0.9988928437232971,-0.034032709896564484,-0.031229572370648384,-0.008927609771490097
271.0,0.0,0.0,0.0,0.0,0.0,0.0,-0.002755813766270876,0.006223907228559256,0.023364001885056496,0.9989076256752014,-0.03357412666082382,-0.03165265545248985,-0.0073761045932769775
272.0,0.0,0.0,0.0,0.0,0.0,0.0,0.002005084417760372,0.0010405489010736346,0.014573839493095875,0.9989250302314758,-0.03326525166630745,-0.03166172280907631,-0.0063088443130254745
273.0,0.0,0.0,0.0,0.0,0.0,0.0,0.0006582692149095237,-0.0049679637886583805,-0.0010737942066043615,0.9989189505577087,-0.0334257110953331,-0.03190076723694801,-0.005109854508191347
274.0,0.0,0.0,0.0,0.0,0.0,0.0,-0.08136218786239624,-0.02900392934679985,-0.0052568260580301285,0.9988656640052795,-0.03656138852238655,-0.030499039217829704,-0.0007117906934581697
275.0,0.0,0.0,0.0,0.0,0.0,0.0,-0.020622868090867996,0.13601447641849518,0.03628915920853615,0.9988890290260315,-0.03706967085599899,-0.027492402121424675,0.009527969174087048
276.0,0.0,0.0,0.0,0.0,0.0,0.0,0.14072003960609436,0.016927575692534447,0.006214575842022896,0.9988573789596558,-0.035849638283252716,-0.02856156975030899,0.013530394993722439
277.0,0.0,0.0,0.0,0.0,0.0,0.0,0.07599647343158722,-0.013437515124678612,0.02360774576663971,0.9988865256309509,-0.03425305336713791,-0.030410636216402054,0.011302175000309944
278.0,0.0,0.0,0.0,0.0,0.0,0.0,-0.008051370270550251,-0.009459289722144604,-0.005771649070084095,0.9989796280860901,-0.03282764181494713,-0.03040706180036068,0.006120926234871149
279.0,0.0,0.0,0.0,0.0,0.0,0.0,-0.047116611152887344,-0.014572858810424805,-0.005540860816836357,0.9990351796150208,-0.032388459891080856,-0.02961326763033867,0.00168424507137388
280.0,0.0,0.0,0.0,0.0,0.0,0.0,-0.01720595173537731,-0.010072389617562294,0.010534250177443027,0.9990675449371338,-0.03210100904107094,-0.028870999813079834,-0.00034336341195739806
281.0,0.0,0.0,0.0,0.0,0.0,0.0,-0.012059006839990616,-0.004955064505338669,0.0096829142421484,0.9991116523742676,-0.03175543248653412,-0.02765699476003647,-0.0016149207949638367
282.0,0.0,0.0,0.0,0.0,0.0,0.0,-0.011215798556804657,-0.0004643486172426492,0.006066333502531052,0.9991469383239746,-0.031711168587207794,-0.02641109749674797,-0.0015194001607596874
283.0,0.0,0.0,0.0,0.0,0.0,0.0,-0.007734447252005339,0.000613958400208503,0.005459255538880825,0.9992076754570007,-0.03109552524983883,-0.024824704974889755,-0.0009428284247405827
284.0,0.0,0.0,0.0,0.0,0.0,0.0,-0.004308250732719898,-0.0008485433063469827,0.0012614554725587368,0.9992725253105164,-0.030303100124001503,-0.023142211139202118,-0.0007853343850001693
285.0,0.0,0.0,0.0,0.0,0.0,0.0,-0.00012514727131929249,-0.001520237303338945,-0.0031553746666759253,0.9993056654930115,-0.030209656804800034,-0.02180756814777851,0.00031651032622903585
286.0,0.0,0.0,0.0,0.0,0.0,0.0,0.007646525278687477,0.00015329918824136257,-0.007701189257204533,0.9993427991867065,-0.02943556383252144,-0.021074237301945686,0.0018424609443172812
287.0,0.0,0.0,0.0,0.0,0.0,0.0,0.008978690020740032,0.0007924181409180164,-0.006670844275504351,0.9993680119514465,-0.028988780453801155,-0.020360803231596947,0.0029455851763486862
288.0,0.0,0.0,0.0,0.0,0.0,0.0,0.011630790308117867,-0.0014306530356407166,0.000795304833445698,0.9994192719459534,-0.027729734778404236,-0.019441762939095497,0.0037749530747532845
289.0,0.0,0.0,0.0,0.0,0.0,0.0,0.014091303572058678,-0.002558310516178608,0.0010570164304226637,0.99946528673172,-0.02648005448281765,-0.018525218591094017,0.004982917103916407
290.0,0.0,0.0,0.0,0.0,0.0,0.0,0.016697542741894722,-0.0030445586889982224,-0.009119570255279541,0.9994902014732361,-0.025808783248066902,-0.01765354350209236,0.006451932713389397
291.0,0.0,0.0,0.0,0.0,0.0,0.0,0.017008420079946518,-0.005120379850268364,-0.010380621999502182,0.9995436668395996,-0.024121923372149467,-0.016486799344420433,0.007672999985516071
292.0,0.0,0.0,0.0,0.0,0.0,0.0,0.013087531551718712,-0.006944605614989996,-0.006971810013055801,0.9995852708816528,-0.02252611517906189,-0.015296640805900097,0.009377392008900642
293.0,0.0,0.0,0.0,0.0,0.0,0.0,0.01576397195458412,-0.007032986730337143,-0.00025594403268769383,0.9996089935302734,-0.020941514521837234,-0.014574586413800716,0.011440405622124672
294.0,0.0,0.0,0.0,0.0,0.0,0.0,0.007289454806596041,-0.010580436326563358,-0.0028540126513689756,0.9996340274810791,-0.01892455480992794,-0.013683468103408813,0.01365487277507782
295.0,0.0,0.0,0.0,0.0,0.0,0.0,0.007486083544790745,-0.008916202001273632,-3.9885795558802783e-05,0.9996515512466431,-0.016683492809534073,-0.012617610394954681,0.016100062057375908
296.0,0.0,0.0,0.0,0.0,0.0,0.0,0.003969194833189249,-0.007411888334900141,0.011300483718514442,0.9996595978736877,-0.01448566373437643,-0.01136117335408926,0.018488137051463127
297.0,0.0,0.0,0.0,0.0,0.0,0.0,0.0035654513631016016,-0.010329646989703178,0.010472195222973824,0.9996708035469055,-0.011754640378057957,-0.009156225249171257,0.020889967679977417
298.0,0.0,0.0,0.0,0.0,0.0,0.0,0.010567407123744488,-0.014480297453701496,0.0018847016617655754,0.9996621012687683,-0.00898642186075449,-0.006831606384366751,0.023416459560394287
299.0,0.0,0.0,0.0,0.0,0.0,0.0,0.01667683757841587,-0.020575350150465965,-0.004816028289496899,0.9996449947357178,-0.006099495571106672,-0.004173809662461281,0.025600392371416092
300.0,0.0,0.0,0.0,0.0,0.0,0.0,0.021129924803972244,-0.024711303412914276,-0.01045064628124237,0.9996188879013062,-0.003872001077979803,-0.0023320966865867376,0.02723344974219799
301.0,0.0,0.0,0.0,0.0,0.0,0.0,0.0265768114477396,-0.027338577434420586,-0.014661306515336037,0.9995746612548828,-0.002753404201939702,-0.0013647278537973762,0.029001308605074883
302.0,0.0,0.0,0.0,0.0,0.0,0.0,0.02309652604162693,-0.030293630436062813,-0.015242059715092182,0.9995441436767578,-0.0011405316181480885,-0.000964325328823179,0.03015611134469509
303.0,0.0,0.0,0.0,0.0,0.0,0.0,0.018722614273428917,-0.030444277450442314,-0.012520463205873966,0.9995188117027283,-0.0003277517971582711,-0.0010117886122316122,0.03100479207932949
304.0,0.0,0.0,0.0,0.0,0.0,0.0,0.009667053818702698,-0.02564086951315403,-0.005045949947088957,0.9995120763778687,6.666167610092089e-05,-0.0017913354095071554,0.031186029314994812
305.0,0.0,0.0,0.0,0.0,0.0,0.0,0.00102377834264189,-0.020510859787464142,0.009045720100402832,0.999508261680603,0.0014961842680349946,-0.002890451345592737,0.031190577894449234
306.0,0.0,0.0,0.0,0.0,0.0,0.0,-0.004794897511601448,-0.016378996893763542,0.01618162915110588,0.999508798122406,0.0022109486162662506,-0.004199925344437361,0.030983319506049156
307.0,0.0,0.0,0.0,0.0,0.0,0.0,-0.008658697828650475,-0.013339800760149956,0.016848228871822357,0.9995184540748596,0.0014581115683540702,-0.0053869872353971004,0.030525479465723038
308.0,0.0,0.0,0.0,0.0,0.0,0.0,-0.013997115194797516,-0.008386686444282532,0.013316323980689049,0.9995269775390625,1.5078572687343694e-05,-0.006495390087366104,0.030061909928917885
309.0,0.0,0.0,0.0,0.0,0.0,0.0,-0.016944538801908493,-0.0034068338572978973,0.010744442231953144,0.9995632171630859,-0.0011752869468182325,-0.0073079317808151245,0.028612343594431877
310.0,0.0,0.0,0.0,0.0,0.0,0.0,-0.015213610604405403,-0.0002200016169808805,0.0026543440762907267,0.9996142983436584,-0.0021220080088824034,-0.00789510179311037,0.026541629806160927
311.0,0.0,0.0,0.0,0.0,0.0,0.0,-0.015447462908923626,-0.0007674085209146142,-0.0046253083273768425,0.9996612071990967,-0.0030084787867963314,-0.008397567085921764,0.02445352077484131
312.0,0.0,0.0,0.0,0.0,0.0,0.0,-0.01671844720840454,0.005338603630661964,-0.00995234027504921,0.9997106194496155,-0.0030349474400281906,-0.00877718348056078,0.022193994373083115
313.0,0.0,0.0,0.0,0.0,0.0,0.0,-0.010027621872723103,-0.001316884416155517,-0.008459403179585934,0.9997526407241821,-0.0018321549287065864,-0.009093895554542542,0.020217755809426308
314.0,0.0,0.0,0.0,0.0,0.0,0.0,0.0006546344957314432,-0.009567824192345142,-0.0073601193726062775,0.9997707009315491,-0.0004558654618449509,-0.009940167888998985,0.018962498754262924
315.0,0.0,0.0,0.0,0.0,0.0,0.0,0.0018627007957547903,-0.0018072349485009909,-0.011673756875097752,0.9997637271881104,-0.0012407066533342004,-0.01093943789601326,0.01874708943068981
316.0,0.0,0.0,0.0,0.0,0.0,0.0,0.0019733302760869265,0.0014173053205013275,-0.006546745076775551,0.9997556209564209,-0.0033581608440726995,-0.011752658523619175,0.018422948196530342
317.0,0.0,0.0,0.0,0.0,0.0,0.0,0.0013438730966299772,0.003153652884066105,-0.00992949865758419,0.9997419118881226,-0.004822068847715855,-0.01295364461839199,0.01803024858236313
318.0,0.0,0.0,0.0,0.0,0.0,0.0,0.0010434170253574848,0.005098704714328051,-0.01165227871388197,0.9997280836105347,-0.005569885950535536,-0.014416299760341644,0.017458012327551842
319.0,0.0,0.0,0.0,0.0,0.0,0.0,0.0010190572356805205,0.00456966320052743,-0.009276071563363075,0.9997276067733765,-0.006064487621188164,-0.01574273221194744,0.01613754592835903
320.0,0.0,0.0,0.0,0.0,0.0,0.0,0.007147430442273617,0.00545261986553669,-0.009922078810632229,0.999713122844696,-0.006990913767367601,-0.01760725863277912,0.014659975655376911
321.0,0.0,0.0,0.0,0.0,0.0,0.0,-0.0018235102761536837,0.0032909696456044912,-0.0030451032798737288,0.9996895790100098,-0.008278308436274529,-0.01940285414457321,0.013257786631584167
322.0,0.0,0.0,0.0,0.0,0.0,0.0,0.003672591643407941,0.007438247092068195,-0.0004104478284716606,0.9996437430381775,-0.00921541266143322,-0.02154511585831642,0.012784620746970177
323.0,0.0,0.0,0.0,0.0,0.0,0.0,0.0022497298195958138,0.005884852726012468,0.0021545966155827045,0.9995951652526855,-0.009400560520589352,-0.02384200133383274,0.012361445464193821
324.0,0.0,0.0,0.0,0.0,0.0,0.0,5.236874858383089e-05,0.005395932123064995,0.004273104015737772,0.9995583295822144,-0.009299326688051224,-0.02575029246509075,0.01155522558838129
325.0,0.0,0.0,0.0,0.0,0.0,0.0,0.0004897851031273603,0.003990472760051489,0.004080917686223984,0.9995083808898926,-0.010053906589746475,-0.02756487764418125,0.01104922965168953
326.0,0.0,0.0,0.0,0.0,0.0,0.0,-0.0008977975230664015,0.004859918728470802,0.0021699678618460894,0.9994397759437561,-0.011561593972146511,-0.029561424627900124,0.010616426356136799
327.0,0.0,0.0,0.0,0.0,0.0,0.0,-0.002778607653453946,0.006778402253985405,0.003952217288315296,0.9993480443954468,-0.012825172394514084,-0.03192782402038574,0.010950008407235146
328.0,0.0,0.0,0.0,0.0,0.0,0.0,-0.004163820296525955,0.0077720205299556255,0.005654483567923307,0.9992727637290955,-0.013001111336052418,-0.03430962190032005,0.010398373939096928
329.0,0.0,0.0,0.0,0.0,0.0,0.0,-0.003212624229490757,0.006792677100747824,0.00859837792813778,0.9992287755012512,-0.011935031972825527,-0.036458663642406464,0.008383133448660374
330.0,0.0,0.0,0.0,0.0,0.0,0.0,-0.005077340640127659,0.006218733265995979,0.005852533038705587,0.9991838335990906,-0.011726618744432926,-0.038133058696985245,0.006319703534245491
331.0,0.0,0.0,0.0,0.0,0.0,0.0,-0.011501006782054901,0.01024769339710474,0.005614398047327995,0.9991732239723206,-0.010977033525705338,-0.03888370469212532,0.00455111637711525
332.0,0.0,0.0,0.0,0.0,0.0,0.0,-0.01648537814617157,0.00998813658952713,0.005733141675591469,0.9992331266403198,-0.009630514308810234,-0.03787709400057793,0.0024537621065974236
333.0,0.0,0.0,0.0,0.0,0.0,0.0,-0.010767487809062004,0.00957114901393652,0.00680491654202342,0.9992890954017639,-0.00999206118285656,-0.036314889788627625,0.001679334556683898
334.0,0.0,0.0,0.0,0.0,0.0,0.0,-0.01944047585129738,0.0078791668638587,-0.003485842840746045,0.999334454536438,-0.011168522760272026,-0.034669674932956696,0.0020496801007539034
335.0,0.0,0.0,0.0,0.0,0.0,0.0,-0.007851864211261272,0.009995757602155209,0.003430829616263509,0.9993953108787537,-0.011100519448518753,-0.03289331868290901,0.0019686974119395018
336.0,0.0,0.0,0.0,0.0,0.0,0.0,-0.005697291344404221,0.010513192042708397,0.014288222417235374,0.9994425177574158,-0.010966473259031773,-0.03149894252419472,0.0015602875500917435
337.0,0.0,0.0,0.0,0.0,0.0,0.0,-0.007939043454825878,0.00942317210137844,0.006703495047986507,0.9995107650756836,-0.010215134359896183,-0.02953103743493557,0.001381672453135252
338.0,0.0,0.0,0.0,0.0,0.0,0.0,-0.009971477091312408,0.012635014951229095,0.016660472378134727,0.9995860457420349,-0.009676766581833363,-0.027055667713284492,0.0014832736924290657
339.0,0.0,0.0,0.0,0.0,0.0,0.0,-0.004829625133424997,0.010773944668471813,0.021991385146975517,0.9996614456176758,-0.009154176339507103,-0.02424737624824047,0.0023062946274876595
340.0,0.0,0.0,0.0,0.0,0.0,0.0,0.0018877239199355245,0.006307952105998993,0.031205808743834496,0.9997386336326599,-0.007980254478752613,-0.021113092079758644,0.0036494494415819645
341.0,0.0,0.0,0.0,0.0,0.0,0.0,0.004649192560464144,0.007037671748548746,0.03632853925228119,0.9998006820678711,-0.006981105078011751,-0.018016746267676353,0.005043117795139551
342.0,0.0,0.0,0.0,0.0,0.0,0.0,0.005080658942461014,0.0010967336129397154,0.027277570217847824,0.9998587369918823,-0.006102387327700853,-0.014682063832879066,0.005449838470667601
343.0,0.0,0.0,0.0,0.0,0.0,0.0,0.007587096653878689,-0.0006751318578608334,0.017896240577101707,0.9999011158943176,-0.00498020276427269,-0.01164309773594141,0.006111460272222757
344.0,0.0,0.0,0.0,0.0,0.0,0.0,0.01281372644007206,-0.0008846372948028147,0.010723796673119068,0.9999337196350098,-0.004262438975274563,-0.009002444334328175,0.005781922023743391
345.0,0.0,0.0,0.0,0.0,0.0,0.0,0.0057028247974812984,-0.004587701987475157,0.0059313238598406315,0.9999602437019348,-0.003911217674612999,-0.006403930485248566,0.004824901465326548
346.0,0.0,0.0,0.0,0.0,0.0,0.0,0.009395566768944263,0.0004930553841404617,-0.0019241867121309042,0.9999692440032959,-0.0036025766748934984,-0.004250108730047941,0.005538722034543753
347.0,0.0,0.0,0.0,0.0,0.0,0.0,0.015410754829645157,-0.005609060171991587,-0.014115716330707073,0.9999745488166809,-0.0026074147317558527,-0.0027609809767454863,0.00604920694604516
348.0,0.0,0.0,0.0,0.0,0.0,0.0,0.01515200361609459,-0.005245504435151815,-0.021198127418756485,0.9999752640724182,-0.0016090114368125796,-0.0021484612952917814,0.006519780028611422
349.0,0.0,0.0,0.0,0.0,0.0,0.0,0.024203425273299217,-0.005579299759119749,-0.015352856367826462,0.9999794363975525,0.00020403660892043263,-0.0022302367724478245,0.006014836020767689
350.0,0.0,0.0,0.0,0.0,0.0,0.0,0.030558811500668526,-0.005288654938340187,-0.011349404230713844,0.9999750852584839,0.0036488373298197985,-0.0033724585082381964,0.005019610747694969
351.0,0.0,0.0,0.0,0.0,0.0,0.0,0.028917141258716583,-0.007624117657542229,-0.009275450371205807,0.999958336353302,0.006693284027278423,-0.0046410951763391495,0.004115389194339514
352.0,0.0,0.0,0.0,0.0,0.0,0.0,0.03126371279358864,-0.008800921961665154,-0.026551395654678345,0.9999328851699829,0.008311096578836441,-0.006864174269139767,0.004265837371349335
353.0,0.0,0.0,0.0,0.0,0.0,0.0,0.03103809617459774,-0.008052384480834007,-0.017541667446494102,0.9999077916145325,0.009491427801549435,-0.008534442633390427,0.004645953420549631
354.0,0.0,0.0,0.0,0.0,0.0,0.0,0.02425570972263813,-0.009420812129974365,-0.011240526102483273,0.9999080300331116,0.010068506002426147,-0.008144058287143707,0.00403636833652854
355.0,0.0,0.0,0.0,0.0,0.0,0.0,0.027735784649848938,-0.01703539676964283,-0.023989003151655197,0.9999184608459473,0.010107632726430893,-0.0070357793010771275,0.003376840380951762
356.0,0.0,0.0,0.0,0.0,0.0,0.0,0.0458998829126358,-0.023963896557688713,-0.040184054523706436,0.9999169111251831,0.009943791665136814,-0.007325807120651007,0.00370059278793633
357.0,0.0,0.0,0.0,0.0,0.0,0.0,0.03460456430912018,-0.02437403053045273,-0.022319501265883446,0.9999096393585205,0.010190038941800594,-0.00812515988945961,0.003314340952783823
358.0,0.0,0.0,0.0,0.0,0.0,0.0,0.01848553866147995,-0.018384380266070366,-0.01034183893352747,0.9998688697814941,0.01281373854726553,-0.009835194796323776,0.0011762854410335422
359.0,0.0,0.0,0.0,0.0,0.0,0.0,0.029349958524107933,-0.021786095574498177,-0.04002441093325615,0.999854326248169,0.013250677846372128,-0.010758108459413052,-0.00018031016224995255
360.0,0.0,0.0,0.0,0.0,0.0,0.0,0.02882939949631691,-0.023734143003821373,0.006247462704777718,0.9998207092285156,0.01428721658885479,-0.012375704944133759,-0.0012406408786773682
361.0,0.0,0.0,0.0,0.0,0.0,0.0,0.011539475992321968,-0.01953711546957493,-0.008372738026082516,0.9997652769088745,0.015930041670799255,-0.014341460540890694,-0.003158717416226864
362.0,0.0,0.0,0.0,0.0,0.0,0.0,0.011715570464730263,-0.01927717961370945,-0.021189933642745018,0.9996974468231201,0.017251431941986084,-0.016864048317074776,-0.004804153926670551
363.0,0.0,0.0,0.0,0.0,0.0,0.0,0.0064940182492136955,-0.013386143371462822,-0.005847513675689697,0.9995908141136169,0.018926281481981277,-0.0205758698284626,-0.006045447196811438
364.0,0.0,0.0,0.0,0.0,0.0,0.0,0.0013138586655259132,-0.008821366354823112,-1.846403938543517e-05,0.9994605183601379,0.0202045701444149,-0.024788791313767433,-0.0074861845932900906
365.0,0.0,0.0,0.0,0.0,0.0,0.0,0.0003860639699269086,-0.009420615620911121,-0.0024686313699930906,0.999309241771698,0.02175697311758995,-0.028888674452900887,-0.008570813573896885
366.0,0.0,0.0,0.0,0.0,0.0,0.0,-0.007131403777748346,-0.00013032757851760834,0.00812868494540453,0.9991843104362488,0.022406402975320816,-0.032575659453868866,-0.00825555995106697
367.0,0.0,0.0,0.0,0.0,0.0,0.0,-0.011932984925806522,0.012491991743445396,0.012779563665390015,0.9990876317024231,0.021725812926888466,-0.03608345240354538,-0.007059990894049406
368.0,0.0,0.0,0.0,0.0,0.0,0.0,-0.016887269914150238,0.017518071457743645,0.031311191618442535,0.9990152716636658,0.02033708430826664,-0.03899604082107544,-0.005836100317537785
369.0,0.0,0.0,0.0,0.0,0.0,0.0,-0.016275746747851372,0.010429520159959793,0.0230476763099432,0.9989627003669739,0.0192230436950922,-0.04097779095172882,-0.004993305075913668
370.0,0.0,0.0,0.0,0.0,0.0,0.0,-0.014912719838321209,0.008223875425755978,0.01572444848716259,0.9989107847213745,0.018669474869966507,-0.04253890737891197,-0.004372971598058939
371.0,0.0,0.0,0.0,0.0,0.0,0.0,-0.016381366178393364,0.010295182466506958,0.03027316741645336,0.9988816976547241,0.018220121040940285,-0.04340587928891182,-0.004382244776934385
372.0,0.0,0.0,0.0,0.0,0.0,0.0,-0.030231468379497528,0.009036673232913017,0.024788537994027138,0.9989409446716309,0.0166932363063097,-0.04258178919553757,-0.005035205278545618
373.0,0.0,0.0,0.0,0.0,0.0,0.0,-0.022760944440960884,0.012329027988016605,0.01045107003301382,0.9990602731704712,0.014483326114714146,-0.04055512323975563,-0.0049264924600720406
374.0,0.0,0.0,0.0,0.0,0.0,0.0,-0.012793208472430706,0.0027635637670755386,-0.009581037797033787,0.9991507530212402,0.012233619578182697,-0.03895852342247963,-0.005536980461329222
375.0,0.0,0.0,0.0,0.0,0.0,0.0,-0.013068271800875664,0.0007578495424240828,-0.010045493952929974,0.9991756677627563,0.009926930069923401,-0.038950320333242416,-0.005691290367394686
376.0,0.0,0.0,0.0,0.0,0.0,0.0,-0.02355530671775341,0.007097081281244755,0.005681098438799381,0.9991875886917114,0.0072191450744867325,-0.03943164646625519,-0.004166688770055771
377.0,0.0,0.0,0.0,0.0,0.0,0.0,-0.03410641849040985,0.017228979617357254,0.020804360508918762,0.9992125034332275,0.003980869427323341,-0.0394224189221859,-0.0022078114561736584
378.0,0.0,0.0,0.0,0.0,0.0,0.0,-0.02928439900279045,0.014903989620506763,0.01720873825252056,0.9992274045944214,0.0017224058974534273,-0.039259329438209534,-0.0007101729279384017
379.0,0.0,0.0,0.0,0.0,0.0,0.0,-0.025131739675998688,0.01176239363849163,0.0057220738381147385,0.9992243051528931,0.0008796241600066423,-0.03936849534511566,-0.000592718250118196
380.0,0.0,0.0,0.0,0.0,0.0,0.0,-0.02179177664220333,0.007694588042795658,0.011715772561728954,0.9991931319236755,0.0005853726761415601,-0.040162160992622375,-0.0003259423829149455
381.0,0.0,0.0,0.0,0.0,0.0,0.0,-0.02246636152267456,-0.0002926727174781263,0.0038522076793015003,0.9991635084152222,-0.00048798532225191593,-0.04089343175292015,-2.977235271828249e-05
382.0,0.0,0.0,0.0,0.0,0.0,0.0,-0.021685589104890823,-0.0027165270876139402,-0.014052147045731544,0.9991627335548401,-0.0019439308671280742,-0.040849536657333374,-0.0013003107160329819
383.0,0.0,0.0,0.0,0.0,0.0,0.0,-0.010195464827120304,-0.004105803556740284,-0.0012846640311181545,0.9991410970687866,-0.004213022068142891,-0.0411178283393383,-0.0029752987902611494
384.0,0.0,0.0,0.0,0.0,0.0,0.0,-0.01823805831372738,-0.002361764432862401,0.009136487729847431,0.9991148114204407,-0.0076288748532533646,-0.041108883917331696,-0.004658135119825602
385.0,0.0,0.0,0.0,0.0,0.0,0.0,-0.011546055786311626,-0.005902234930545092,-0.010649017989635468,0.9990460872650146,-0.01123848371207714,-0.041708122938871384,-0.00642344681546092
386.0,0.0,0.0,0.0,0.0,0.0,0.0,0.007229423616081476,-0.007688484620302916,-0.026788057759404182,0.9989096522331238,-0.01412558276206255,-0.04343415051698685,-0.009675879031419754
387.0,0.0,0.0,0.0,0.0,0.0,0.0,0.00468828808516264,-0.00024049714556895196,-0.003558918135240674,0.9987204074859619,-0.017017871141433716,-0.04569046571850777,-0.01343370508402586
388.0,0.0,0.0,0.0,0.0,0.0,0.0,-0.0020146092865616083,0.00024144868075381964,0.0065304068848490715,0.9985101819038391,-0.020005034282803535,-0.047770578414201736,-0.01718314364552498
389.0,0.0,0.0,0.0,0.0,0.0,0.0,-0.009357119910418987,0.005021960008889437,0.011350137181580067,0.9983415603637695,-0.02196975238621235,-0.049042750149965286,-0.020645849406719208
390.0,0.0,0.0,0.0,0.0,0.0,0.0,-0.0039108446799218655,0.006497879046946764,0.021223990246653557,0.9982081651687622,-0.022464009001851082,-0.05015929788351059,-0.023667167872190475
391.0,0.0,0.0,0.0,0.0,0.0,0.0,-0.0058478135615587234,0.008981626480817795,0.037827812135219574,0.9981129765510559,-0.021560879424214363,-0.051042087376117706,-0.026467828080058098
392.0,0.0,0.0,0.0,0.0,0.0,0.0,-0.00965261459350586,0.008537211455404758,0.016563262790441513,0.9980685710906982,-0.020356962457299232,-0.05110646039247513,-0.028860798105597496
393.0,0.0,0.0,0.0,0.0,0.0,0.0,-0.005492445081472397,0.01319209486246109,-0.0031263965647667646,0.99820476770401,-0.01732207089662552,-0.04755978658795357,-0.03202372044324875
394.0,0.0,0.0,0.0,0.0,0.0,0.0,0.00588959502056241,0.008628465235233307,-0.023089401423931122,0.9983204007148743,-0.015586243942379951,-0.043938178569078445,-0.034394849091768265
395.0,0.0,0.0,0.0,0.0,0.0,0.0,0.008676931262016296,0.006174131296575069,-0.03309110924601555,0.9984655976295471,-0.014228804968297482,-0.03952331468462944,-0.03608442470431328
396.0,0.0,0.0,0.0,0.0,0.0,0.0,0.021426843479275703,0.000553961144760251,-0.0519108846783638,0.9985926747322083,-0.012515480630099773,-0.03610015660524368,-0.03678106516599655
397.0,0.0,0.0,0.0,0.0,0.0,0.0,0.0199445690959692,-0.004867774900048971,-0.04709380120038986,0.9986833930015564,-0.011108520440757275,-0.03462126478552818,-0.03618798404932022
398.0,0.0,0.0,0.0,0.0,0.0,0.0,0.024805031716823578,0.0027089493814855814,-0.025320684537291527,0.9987524151802063,-0.010428348556160927,-0.03477488458156586,-0.03429104760289192
399.0,0.0,0.0,0.0,0.0,0.0,0.0,0.01662874035537243,0.0017985065933316946,0.0005711583071388304,0.9988168478012085,-0.009296763688325882,-0.03510615974664688,-0.0323452427983284
400.0,0.0,0.0,0.0,0.0,0.0,0.0,0.020491935312747955,0.002979318844154477,0.014204221777617931,0.9988692402839661,-0.007956182584166527,-0.035646189004182816,-0.030438119545578957
401.0,0.0,0.0,0.0,0.0,0.0,0.0,0.013987240381538868,0.0017382892547175288,0.010825526900589466,0.9988763332366943,-0.00703534996137023,-0.036856163293123245,-0.02895222418010235
402.0,0.0,0.0,0.0,0.0,0.0,0.0,0.01040452066808939,-0.004961403086781502,0.016916891559958458,0.9988956451416016,-0.00607397872954607,-0.037203703075647354,-0.028044821694493294
403.0,0.0,0.0,0.0,0.0,0.0,0.0,0.011132081970572472,-0.00622126180678606,0.013871541246771812,0.9989125728607178,-0.006143481004983187,-0.03729354590177536,-0.027300119400024414
404.0,0.0,0.0,0.0,0.0,0.0,0.0,0.009031593799591064,0.0005382086965255439,0.023014329373836517,0.9989217519760132,-0.007051682099699974,-0.03766363859176636,-0.026218939572572708
405.0,0.0,0.0,0.0,0.0,0.0,0.0,0.003390599973499775,0.0031673782505095005,0.033239077776670456,0.998917818069458,-0.007721660193055868,-0.038502078503370285,-0.024928659200668335
406.0,0.0,0.0,0.0,0.0,0.0,0.0,-0.0010398741578683257,0.003681803122162819,0.03321797773241997,0.9989246129989624,-0.00824645720422268,-0.03888662904500961,-0.023867927491664886
407.0,0.0,0.0,0.0,0.0,0.0,0.0,-0.0009735296480357647,0.0006643039523623884,0.027169127017259598,0.998932421207428,-0.008868956007063389,-0.039244528859853745,-0.022701308131217957
408.0,0.0,0.0,0.0,0.0,0.0,0.0,0.001587385544553399,-0.0012459148420020938,0.012910928577184677,0.9989643096923828,-0.01017485186457634,-0.03925668075680733,-0.02063661254942417
409.0,0.0,0.0,0.0,0.0,0.0,0.0,0.005731327924877405,-0.003959006164222956,0.011952451430261135,0.9989937543869019,-0.010888703167438507,-0.0390334278345108,-0.01921730488538742
410.0,0.0,0.0,0.0,0.0,0.0,0.0,0.01620059460401535,-0.0071420930325984955,-0.0025285726878792048,0.9990004301071167,-0.01115860790014267,-0.03894902020692825,-0.01888412795960903
411.0,0.0,0.0,0.0,0.0,0.0,0.0,0.01589030958712101,-0.010267558507621288,-0.025729279965162277,0.9989702701568604,-0.011711109429597855,-0.039901018142700195,-0.018139224499464035
412.0,0.0,0.0,0.0,0.0,0.0,0.0,0.026906214654445648,-0.0050001186318695545,-0.005053993780165911,0.9989128708839417,-0.011293516494333744,-0.0417923629283905,-0.017291327938437462
413.0,0.0,0.0,0.0,0.0,0.0,0.0,0.01928108185529709,-0.0018857658142223954,0.0012865392491221428,0.9988334774971008,-0.009718372486531734,-0.04404544457793236,-0.017246432602405548
414.0,0.0,0.0,0.0,0.0,0.0,0.0,-0.0008162178564816713,-0.012031413614749908,-0.014856475405395031,0.9987321496009827,-0.009517313912510872,-0.04590412229299545,-0.018345093354582787
415.0,0.0,0.0,0.0,0.0,0.0,0.0,0.0012602349743247032,-0.007109406404197216,-0.030128449201583862,0.9986953735351562,-0.010376856662333012,-0.045950308442115784,-0.01971014402806759
416.0,0.0,0.0,0.0,0.0,0.0,0.0,0.006257312837988138,-0.006486508063971996,-0.026841921731829643,0.9986861944198608,-0.011424616910517216,-0.04531162604689598,-0.021030012518167496
417.0,0.0,0.0,0.0,0.0,0.0,0.0,0.006254223175346851,-0.011215336620807648,-0.0245465487241745,0.998640239238739,-0.01270246785134077,-0.04560229182243347,-0.02183612249791622
418.0,0.0,0.0,0.0,0.0,0.0,0.0,0.0035508491564542055,-0.010273285210132599,-0.024545473977923393,0.9985515475273132,-0.013689530082046986,-0.0471130833029747,-0.022087138146162033
419.0,0.0,0.0,0.0,0.0,0.0,0.0,0.0007829733076505363,-0.01293148286640644,-0.011736726388335228,0.9984392523765564,-0.01374404039233923,-0.049355100840330124,-0.022235114127397537
420.0,0.0,0.0,0.0,0.0,0.0,0.0,-0.006988618057221174,-0.011048859916627407,0.004497269168496132,0.9983350038528442,-0.014448411762714386,-0.051444027572870255,-0.021726317703723907
421.0,0.0,0.0,0.0,0.0,0.0,0.0,-0.013408035039901733,-0.011765739880502224,0.007005671039223671,0.9982544183731079,-0.015273370780050755,-0.05288513004779816,-0.0214031133800745
422.0,0.0,0.0,0.0,0.0,0.0,0.0,-0.011965271085500717,-0.01123606413602829,0.0015620265621691942,0.9981653690338135,-0.0167077649384737,-0.05443165823817253,-0.020591596141457558
423.0,0.0,0.0,0.0,0.0,0.0,0.0,-0.0019688052125275135,-0.009159143082797527,0.006332300137728453,0.9980942010879517,-0.01783112995326519,-0.05579175055027008,-0.019423380494117737
424.0,0.0,0.0,0.0,0.0,0.0,0.0,-0.0038423279765993357,-0.008728832937777042,0.0006798230460844934,0.9980193376541138,-0.01875198259949684,-0.05716617405414581,-0.018382469192147255
425.0,0.0,0.0,0.0,0.0,0.0,0.0,-0.00972339790314436,-0.002314181299880147,0.01624852977693081,0.9979429244995117,-0.019362978637218475,-0.05844223499298096,-0.01787775382399559
426.0,0.0,0.0,0.0,0.0,0.0,0.0,-0.007493817713111639,-0.0038824297953397036,0.0070416806265711784,0.997903048992157,-0.01931673288345337,-0.05910502374172211,-0.017969749867916107
427.0,0.0,0.0,0.0,0.0,0.0,0.0,-0.0009202013607136905,-0.005725125316530466,-0.010133322328329086,0.9978280067443848,-0.019198507070541382,-0.060461364686489105,-0.01775086671113968
428.0,0.0,0.0,0.0,0.0,0.0,0.0,0.004420239012688398,-0.003794811200350523,-0.002745440462604165,0.9977157711982727,-0.019452951848506927,-0.06232239678502083,-0.017351850867271423
429.0,0.0,0.0,0.0,0.0,0.0,0.0,-0.006681982893496752,-0.00435654679313302,0.0039003302808851004,0.9976234436035156,-0.019874732941389084,-0.06368441134691238,-0.017226235941052437
430.0,0.0,0.0,0.0,0.0,0.0,0.0,8.7585169239901e-05,-0.001564432168379426,-0.010248004458844662,0.9975171685218811,-0.020736243575811386,-0.06531346589326859,-0.01624762825667858
431.0,0.0,0.0,0.0,0.0,0.0,0.0,-0.003954536747187376,0.0008657852886244655,-0.0027611146215349436,0.9973772168159485,-0.02135610207915306,-0.06743666529655457,-0.015326200984418392
432.0,0.0,0.0,0.0,0.0,0.0,0.0,-0.014026648364961147,0.008356072939932346,0.013365617953240871,0.9972952604293823,-0.021312186494469643,-0.06872579455375671,-0.014996476471424103
433.0,0.0,0.0,0.0,0.0,0.0,0.0,-0.012725543230772018,0.012762119062244892,0.022703005000948906,0.9972409009933472,-0.021749120205640793,-0.06957480311393738,-0.014040933921933174
434.0,0.0,0.0,0.0,0.0,0.0,0.0,-0.019127948209643364,0.01599128544330597,0.02999897673726082,0.9972280859947205,-0.022644728422164917,-0.06963228434324265,-0.013222389854490757
435.0,0.0,0.0,0.0,0.0,0.0,0.0,-0.02377205155789852,0.01959124766290188,0.03431197255849838,0.9972856044769287,-0.02337600849568844,-0.06865950673818588,-0.012694606557488441
436.0,0.0,0.0,0.0,0.0,0.0,0.0,-0.022852033376693726,0.017554474994540215,0.035277605056762695,0.9974241256713867,-0.024803850799798965,-0.06601288169622421,-0.01312596071511507
437.0,0.0,0.0,0.0,0.0,0.0,0.0,-0.01953153870999813,0.015460692346096039,0.034546904265880585,0.9976272583007812,-0.02663537673652172,-0.06189096346497536,-0.014144990593194962
438.0,0.0,0.0,0.0,0.0,0.0,0.0,-0.021972859278321266,0.01572144217789173,0.03199600428342819,0.9978203177452087,-0.027690725401043892,-0.05784686282277107,-0.015545377507805824
439.0,0.0,0.0,0.0,0.0,0.0,0.0,-0.011117242276668549,0.018336422741413116,0.008615310303866863,0.9980025887489319,-0.02865828387439251,-0.05354177951812744,-0.01740412786602974
440.0,0.0,0.0,0.0,0.0,0.0,0.0,-0.01643642969429493,0.015528108924627304,0.012657330371439457,0.9981750249862671,-0.02852250076830387,-0.04929714649915695,-0.020077185705304146
441.0,0.0,0.0,0.0,0.0,0.0,0.0,-0.011715562082827091,0.01727297157049179,-5.3625812142854556e-05,0.9983040690422058,-0.02817239798605442,-0.04624004289507866,-0.021378034725785255
442.0,0.0,0.0,0.0,0.0,0.0,0.0,-0.011358164250850677,0.023772599175572395,0.0038965872954577208,0.9984004497528076,-0.027290716767311096,-0.043951645493507385,-0.02280181273818016
443.0,0.0,0.0,0.0,0.0,0.0,0.0,-0.010235176421701908,0.023697510361671448,-0.0037057572044432163,0.9985094666481018,-0.02538931369781494,-0.041695378720760345,-0.024410225450992584
444.0,0.0,0.0,0.0,0.0,0.0,0.0,-0.002622550819069147,0.022303007543087006,-0.024139108136296272,0.9986159801483154,-0.02296416088938713,-0.03953174501657486,-0.026000386103987694
445.0,0.0,0.0,0.0,0.0,0.0,0.0,0.006817228626459837,0.01785207912325859,-0.03330107033252716,0.998735785484314,-0.02030763030052185,-0.03640216961503029,-0.028095681220293045
446.0,0.0,0.0,0.0,0.0,0.0,0.0,0.019669849425554276,0.012817854061722755,-0.047582466155290604,0.9988225698471069,-0.019298216328024864,-0.03363105654716492,-0.02915359102189541
447.0,0.0,0.0,0.0,0.0,0.0,0.0,0.03405435383319855,0.011728068813681602,-0.04794643074274063,0.998887300491333,-0.018919426947832108,-0.032387714833021164,-0.028587987646460533
448.0,0.0,0.0,0.0,0.0,0.0,0.0,0.0557723231613636,0.009981952607631683,-0.035586416721343994,0.9989356994628906,-0.017860880121588707,-0.033608123660087585,-0.02605762518942356
449.0,0.0,0.0,0.0,0.0,0.0,0.0,0.04469693452119827,0.011738202534615993,-0.010917596518993378,0.9989608526229858,-0.016292855143547058,-0.03629007935523987,-0.02224302850663662
450.0,0.0,0.0,0.0,0.0,0.0,0.0,0.021603750064969063,0.016519537195563316,-0.010393450036644936,0.998998761177063,-0.015423026867210865,-0.03771799057722092,-0.018467824906110764
451.0,0.0,0.0,0.0,0.0,0.0,0.0,0.03607477620244026,0.011267575435340405,-0.003249099710956216,0.9990087151527405,-0.016201745718717575,-0.03893396258354187,-0.014258679933845997
452.0,0.0,0.0,0.0,0.0,0.0,0.0,0.030956650152802467,0.006973698735237122,0.011254156939685345,0.9990043640136719,-0.017080752179026604,-0.03966968134045601,-0.011175239458680153
453.0,0.0,0.0,0.0,0.0,0.0,0.0,0.038582801818847656,0.003227494889870286,-0.01625702530145645,0.9989826679229736,-0.017396725714206696,-0.040558621287345886,-0.009281826205551624
454.0,0.0,0.0,0.0,0.0,0.0,0.0,0.03808300569653511,-0.002658131765201688,-0.006395625416189432,0.9989170432090759,-0.01799362525343895,-0.04224761202931404,-0.007502232678234577
455.0,0.0,0.0,0.0,0.0,0.0,0.0,0.023874785751104355,-0.00337416073307395,0.0049686129204928875,0.9988346695899963,-0.01804194226861,-0.044173482805490494,-0.007264440413564444
456.0,0.0,0.0,0.0,0.0,0.0,0.0,0.022457312792539597,-0.006815677043050528,-0.007822330109775066,0.998716413974762,-0.0180375874042511,-0.04657590016722679,-0.008407571353018284
457.0,0.0,0.0,0.0,0.0,0.0,0.0,0.014807404950261116,-0.011445589363574982,-0.0009302416001446545,0.9985629916191101,-0.018593579530715942,-0.04937351867556572,-0.009426692500710487
458.0,0.0,0.0,0.0,0.0,0.0,0.0,-0.0032076945062726736,-0.00891112070530653,0.00911671668291092,0.9984198808670044,-0.01877586729824543,-0.05184236913919449,-0.010849369689822197
459.0,0.0,0.0,0.0,0.0,0.0,0.0,-0.014254342764616013,-0.00763252517208457,0.014461072161793709,0.9983049035072327,-0.01957898959517479,-0.053523898124694824,-0.011806393973529339
460.0,0.0,0.0,0.0,0.0,0.0,0.0,-0.012822987511754036,-0.007953272201120853,0.01757698506116867,0.9981961846351624,-0.021123427897691727,-0.05468597635626793,-0.012958143837749958
461.0,0.0,0.0,0.0,0.0,0.0,0.0,-0.023461880162358284,-0.019390972331166267,0.012348867021501064,0.998080849647522,-0.02298702858388424,-0.05576140806078911,-0.01402763556689024
462.0,0.0,0.0,0.0,0.0,0.0,0.0,-0.0224920604377985,-0.0263044536113739,0.00801400188356638,0.9979630708694458,-0.02453778311610222,-0.05686623603105545,-0.01529599353671074
463.0,0.0,0.0,0.0,0.0,0.0,0.0,-0.020364956930279732,-0.03002494014799595,0.023153670132160187,0.997847318649292,-0.026383105665445328,-0.05735064670443535,-0.017761696130037308
464.0,0.0,0.0,0.0,0.0,0.0,0.0,-0.021797312423586845,-0.031206617131829262,0.03868265822529793,0.9977512359619141,-0.027838749811053276,-0.0573304146528244,-0.020753536373376846
465.0,0.0,0.0,0.0,0.0,0.0,0.0,-0.02399204671382904,-0.03311492130160332,0.047959137707948685,0.997647762298584,-0.030193688347935677,-0.05687250196933746,-0.023509016260504723
466.0,0.0,0.0,0.0,0.0,0.0,0.0,-0.03123786486685276,-0.028381824493408203,0.0535927340388298,0.9975705146789551,-0.03293343633413315,-0.0555315762758255,-0.026168694719672203
467.0,0.0,0.0,0.0,0.0,0.0,0.0,-0.029386840760707855,-0.029828200116753578,0.04491623863577843,0.9975593686103821,-0.034217070788145065,-0.05336451902985573,-0.029273763298988342
468.0,0.0,0.0,0.0,0.0,0.0,0.0,-0.0236259363591671,-0.03158141300082207,0.031912438571453094,0.9975633025169373,-0.03510930389165878,-0.050933752208948135,-0.032262954860925674
469.0,0.0,0.0,0.0,0.0,0.0,0.0,-0.01696561835706234,-0.029612278565764427,0.02088860422372818,0.9975100159645081,-0.03662802651524544,-0.04924876242876053,-0.034739747643470764
470.0,0.0,0.0,0.0,0.0,0.0,0.0,-0.01663830317556858,-0.02378172241151333,-0.0004917597398161888,0.9974082112312317,-0.03888029605150223,-0.04779895022511482,-0.03715677559375763
471.0,0.0,0.0,0.0,0.0,0.0,0.0,-0.020814377814531326,-0.01876642554998398,-0.018657058477401733,0.9973239302635193,-0.04011700674891472,-0.047039758414030075,-0.03902687132358551
472.0,0.0,0.0,0.0,0.0,0.0,0.0,-0.016424953937530518,-0.009926818311214447,-0.01731541007757187,0.9972308278083801,-0.04106771573424339,-0.04629618674516678,-0.04124263674020767
473.0,0.0,0.0,0.0,0.0,0.0,0.0,-0.022481687366962433,-0.0030406820587813854,-0.01769857108592987,0.9971697330474854,-0.04199172928929329,-0.04491441324353218,-0.0432659275829792
474.0,0.0,0.0,0.0,0.0,0.0,0.0,-0.016852669417858124,0.006253175437450409,-0.021246053278446198,0.9971781373023987,-0.043096646666526794,-0.04335036128759384,-0.04358238726854324
475.0,0.0,0.0,0.0,0.0,0.0,0.0,-0.004063206259161234,0.017771149054169655,-0.011706688441336155,0.9972123503684998,-0.043412741273641586,-0.04195040091872215,-0.04385189712047577
476.0,0.0,0.0,0.0,0.0,0.0,0.0,0.002919888822361827,0.024279167875647545,-0.0340263769030571,0.9973018169403076,-0.04290785640478134,-0.04069367051124573,-0.043499987572431564
477.0,0.0,0.0,0.0,0.0,0.0,0.0,0.013812120072543621,0.026768948882818222,-0.0368424654006958,0.9974194169044495,-0.042981356382369995,-0.03948678821325302,-0.041808903217315674
478.0,0.0,0.0,0.0,0.0,0.0,0.0,0.02596951276063919,0.0300899688154459,-0.028754951432347298,0.9975164532661438,-0.04226017743349075,-0.03870100900530815,-0.040956009179353714
479.0,0.0,0.0,0.0,0.0,0.0,0.0,0.024020470678806305,0.030935609713196754,-0.025564633309841156,0.9976320862770081,-0.04073731228709221,-0.038304269313812256,-0.04004378244280815
480.0,0.0,0.0,0.0,0.0,0.0,0.0,0.016513952985405922,0.03157297521829605,-0.016403261572122574,0.9978103041648865,-0.03932197391986847,-0.037248365581035614,-0.03796081617474556
481.0,0.0,0.0,0.0,0.0,0.0,0.0,0.013791338540613651,0.030195269733667374,-0.0067497980780899525,0.9980139136314392,-0.03784076124429703,-0.03577825054526329,-0.0354468934237957
482.0,0.0,0.0,0.0,0.0,0.0,0.0,0.009486637078225613,0.03001677244901657,0.0006702849641442299,0.998234212398529,-0.0346168614923954,-0.03515869751572609,-0.03307698667049408
483.0,0.0,0.0,0.0,0.0,0.0,0.0,0.010094702243804932,0.02837720885872841,-0.010988045483827591,0.9984269738197327,-0.03109085187315941,-0.03358003497123718,-0.03239617496728897
484.0,0.0,0.0,0.0,0.0,0.0,0.0,0.014713778160512447,0.024314558133482933,-0.00369625398889184,0.9985889196395874,-0.02779911644756794,-0.03177151456475258,-0.03222039341926575
485.0,0.0,0.0,0.0,0.0,0.0,0.0,0.007638771086931229,0.024752451106905937,-0.0002803073148243129,0.9987313151359558,-0.02517826296389103,-0.029910441488027573,-0.03174016997218132
486.0,0.0,0.0,0.0,0.0,0.0,0.0,0.0031681840773671865,0.03128734976053238,-0.00212973915040493,0.9988822937011719,-0.02290184609591961,-0.02763974480330944,-0.030754204839468002
487.0,0.0,0.0,0.0,0.0,0.0,0.0,0.0014620196307078004,0.03620552644133568,0.014870894141495228,0.9990261793136597,-0.02093026041984558,-0.025594370439648628,-0.02921627275645733
488.0,0.0,0.0,0.0,0.0,0.0,0.0,0.00016498082550242543,0.037072569131851196,0.02978961355984211,0.9991558790206909,-0.019810819998383522,-0.02357100509107113,-0.027193613350391388
489.0,0.0,0.0,0.0,0.0,0.0,0.0,0.0007727040210738778,0.034452568739652634,0.02402728796005249,0.9992923736572266,-0.018096348270773888,-0.021754182875156403,-0.02477872744202614
490.0,0.0,0.0,0.0,0.0,0.0,0.0,0.01356807816773653,0.03361031040549278,0.020555537194013596,0.9994242191314697,-0.01622464694082737,-0.020829685032367706,-0.02131236158311367
491.0,0.0,0.0,0.0,0.0,0.0,0.0,0.014377051964402199,0.03401695191860199,0.03188096359372139,0.9995302557945251,-0.013718697242438793,-0.020061973482370377,-0.01866881176829338
492.0,0.0,0.0,0.0,0.0,0.0,0.0,0.015303182415664196,0.02557864598929882,0.03298824653029442,0.9996210932731628,-0.009970194660127163,-0.01967763341963291,-0.016465889289975166
493.0,0.0,0.0,0.0,0.0,0.0,0.0,0.008201741613447666,0.023985153064131737,0.03214015066623688,0.9996843338012695,-0.006701197940856218,-0.01977311633527279,-0.01397728268057108
494.0,0.0,0.0,0.0,0.0,0.0,0.0,0.014475931413471699,0.023429103195667267,0.03153328225016594,0.9997527003288269,-0.003965751733630896,-0.018784869462251663,-0.011227627284824848
495.0,0.0,0.0,0.0,0.0,0.0,0.0,0.014204191043972969,0.010564742609858513,0.004213704261928797,0.9998109340667725,-0.001238020253367722,-0.01748318038880825,-0.008425166830420494
496.0,0.0,0.0,0.0,0.0,0.0,0.0,-0.00027630318072624505,0.0001967518765013665,-0.0015741168754175305,0.9998551607131958,0.0003483082400634885,-0.015261185355484486,-0.007530964910984039
497.0,0.0,0.0,0.0,0.0,0.0,0.0,0.01130011584609747,0.0009737913496792316,-0.027059270069003105,0.9998806715011597,0.0025541766081005335,-0.013265745714306831,-0.007497589569538832
498.0,0.0,0.0,0.0,0.0,0.0,0.0,0.02970580756664276,0.008559669367969036,-0.04042275995016098,0.9998785257339478,0.0050753215327858925,-0.01311374269425869,-0.006737448275089264
499.0,0.0,0.0,0.0,0.0,0.0,0.0,0.03453560918569565,0.00346964318305254,-0.039661671966314316,0.9998599886894226,0.007405065465718508,-0.013384601101279259,-0.00679774209856987
500.0,0.0,0.0,0.0,0.0,0.0,0.0,0.03941544145345688,-0.0005322472425177693,-0.07703811675310135,0.9998565316200256,0.00828519556671381,-0.013380121439695358,-0.0062650092877447605
501.0,0.0,0.0,0.0,0.0,0.0,0.0,0.048203129321336746,-0.001254315604455769,-0.03607223182916641,0.9998587369918823,0.00841940101236105,-0.013683208264410496,-0.004973632283508778
502.0,0.0,0.0,0.0,0.0,0.0,0.0,0.042762044817209244,0.00508510135114193,-0.04047204926609993,0.9998651742935181,0.007500389125198126,-0.014125440269708633,-0.0037526991218328476
503.0,0.0,0.0,0.0,0.0,0.0,0.0,0.04461977630853653,0.0009518638835288584,-0.04403642192482948,0.9998579025268555,0.005851816851645708,-0.01561636384576559,-0.0024712553713470697
504.0,0.0,0.0,0.0,0.0,0.0,0.0,0.03905719891190529,-0.004060167819261551,-0.030793968588113785,0.9998276233673096,0.004153632093220949,-0.018057208508253098,-0.0011599562130868435
505.0,0.0,0.0,0.0,0.0,0.0,0.0,0.027943016961216927,-0.005536111071705818,-0.026688741520047188,0.9997904300689697,0.0028263600543141365,-0.020264647901058197,0.00021042766456957906
506.0,0.0,0.0,0.0,0.0,0.0,0.0,0.019301988184452057,-0.015305030159652233,-0.03649727255105972,0.9997407793998718,0.0006276982021518052,-0.022752754390239716,0.0007835727883502841
507.0,0.0,0.0,0.0,0.0,0.0,0.0,0.006023411173373461,-0.016403434798121452,-0.02901509962975979,0.999652624130249,-0.0022270295303314924,-0.026252079755067825,0.0010794528061524034
508.0,0.0,0.0,0.0,0.0,0.0,0.0,-0.011302223429083824,-0.015955958515405655,-0.011292804032564163,0.9995527863502502,-0.004636007361114025,-0.029504530131816864,0.001457015983760357
509.0,0.0,0.0,0.0,0.0,0.0,0.0,-0.0351300910115242,-0.017601657658815384,-0.001271805725991726,0.9994813203811646,-0.0066435616463422775,-0.03146188333630562,0.001778333680704236
510.0,0.0,0.0,0.0,0.0,0.0,0.0,-0.04811091348528862,-0.017596658319234848,0.013649605214595795,0.9994124174118042,-0.0094004450365901,-0.03290874511003494,0.0019517901819199324
511.0,0.0,0.0,0.0,0.0,0.0,0.0,-0.043868422508239746,-0.016897358000278473,0.012855520471930504,0.9993181228637695,-0.01253511756658554,-0.03464208543300629,0.002598745282739401
512.0,0.0,0.0,0.0,0.0,0.0,0.0,-0.04363216459751129,-0.0165671668946743,0.011975842528045177,0.9992089867591858,-0.01529061608016491,-0.03662261739373207,0.0026894412003457546
513.0,0.0,0.0,0.0,0.0,0.0,0.0,-0.04299376159906387,-0.01382882334291935,0.013879016973078251,0.9991202354431152,-0.016729217022657394,-0.0383722186088562,0.0026444110553711653
514.0,0.0,0.0,0.0,0.0,0.0,0.0,-0.061192769557237625,-0.021630195900797844,0.017837243154644966,0.9990106821060181,-0.019025197252631187,-0.039964281022548676,0.004271825309842825
515.0,0.0,0.0,0.0,0.0,0.0,0.0,-0.0915045514702797,-0.024739816784858704,0.027365177869796753,0.9988770484924316,-0.023293031379580498,-0.03992217034101486,0.010444911196827888
516.0,0.0,0.0,0.0,0.0,0.0,0.0,0.007854332216084003,0.04187307506799698,0.015372428111732006,0.9987054467201233,-0.025505783036351204,-0.040798433125019073,0.016516314819455147
517.0,0.0,0.0,0.0,0.0,0.0,0.0,0.02137664705514908,0.04020031541585922,0.03494510054588318,0.998618483543396,-0.02458529733121395,-0.043824050575494766,0.015361304394900799
518.0,0.0,0.0,0.0,0.0,0.0,0.0,-0.05631973594427109,-0.002093489980325103,0.041455160826444626,0.9985604882240295,-0.025557635352015495,-0.04542798921465874,0.012653240002691746
519.0,0.0,0.0,0.0,0.0,0.0,0.0,-0.05011696368455887,0.008283150382339954,0.03594379872083664,0.9984748959541321,-0.026906192302703857,-0.04659827798604965,0.01237130630761385
520.0,0.0,0.0,0.0,0.0,0.0,0.0,-0.03811679407954216,0.017428945749998093,0.04669046029448509,0.99842369556427,-0.02780686318874359,-0.04714985191822052,0.012421580031514168
521.0,0.0,0.0,0.0,0.0,0.0,0.0,-0.039037853479385376,0.011845546774566174,0.03877308592200279,0.9983595609664917,-0.029551126062870026,-0.04743197560310364,0.012500218115746975
522.0,0.0,0.0,0.0,0.0,0.0,0.0,-0.032268960028886795,0.006519669201225042,0.026757989078760147,0.9983042478561401,-0.030827917158603668,-0.0478288009762764,0.012310503050684929
523.0,0.0,0.0,0.0,0.0,0.0,0.0,-0.036216385662555695,0.007606360595673323,0.017882678657770157,0.9982521533966064,-0.03206764906644821,-0.04823070019483566,0.011764383874833584
524.0,0.0,0.0,0.0,0.0,0.0,0.0,-0.04099638760089874,0.006727584637701511,0.011946999467909336,0.9982253909111023,-0.033502086997032166,-0.04804607853293419,0.010756190866231918
525.0,0.0,0.0,0.0,0.0,0.0,0.0,-0.06158416345715523,-0.006380108185112476,0.00827673077583313,0.9982432723045349,-0.03494947776198387,-0.04671623930335045,0.010313435457646847
526.0,0.0,0.0,0.0,0.0,0.0,0.0,-0.13672247529029846,-0.03043745458126068,0.020762722939252853,0.998213529586792,-0.039954811334609985,-0.04161651432514191,0.015564845874905586
527.0,0.0,0.0,0.0,0.0,0.0,0.0,0.024723311886191368,0.053190190345048904,-0.04152906686067581,0.9980905055999756,-0.04218195751309395,-0.03881411626935005,0.02303142100572586
528.0,0.0,0.0,0.0,0.0,0.0,0.0,0.08288223296403885,0.04239623248577118,0.006226922385394573,0.9980633854866028,-0.04054183512926102,-0.04097098484635353,0.023399699479341507
529.0,0.0,0.0,0.0,0.0,0.0,0.0,0.030507739633321762,0.02169269695878029,0.02402736246585846,0.9981536865234375,-0.03869034722447395,-0.04243561625480652,0.019781384617090225
530.0,0.0,0.0,0.0,0.0,0.0,0.0,-0.024414371699094772,0.0016152129974216223,0.0033317594788968563,0.9982955455780029,-0.037426065653562546,-0.04268500581383705,0.01356239803135395
531.0,0.0,0.0,0.0,0.0,0.0,0.0,-0.051306020468473434,-0.010536727495491505,-0.0008716206648387015,0.9984002709388733,-0.03738877922296524,-0.04154439643025398,0.008568518795073032
532.0,0.0,0.0,0.0,0.0,0.0,0.0,-0.020941881462931633,-0.0059845587238669395,-0.0032022171653807163,0.9984718561172485,-0.038054537028074265,-0.03965015709400177,0.005818218924105167
533.0,0.0,0.0,0.0,0.0,0.0,0.0,-0.0006747752195224166,-0.0014103520661592484,-0.009499356150627136,0.9985401630401611,-0.038386013358831406,-0.03776030242443085,0.0042770374566316605
534.0,0.0,0.0,0.0,0.0,0.0,0.0,0.0025478729512542486,0.0014539365656673908,-0.011593267321586609,0.9985714554786682,-0.03851383551955223,-0.03686697036027908,0.003547486150637269
535.0,0.0,0.0,0.0,0.0,0.0,0.0,0.003977933898568153,0.0009870678186416626,-0.010657395236194134,0.9986229538917542,-0.038157302886247635,-0.03590131178498268,0.0027589937672019005
536.0,0.0,0.0,0.0,0.0,0.0,0.0,0.004545303527265787,-0.0010640934342518449,-0.0063175177201628685,0.9986682534217834,-0.037636276334524155,-0.03520311415195465,0.00252472679130733
537.0,0.0,0.0,0.0,0.0,0.0,0.0,0.0038294477853924036,0.0020166344475001097,0.0034092918504029512,0.9986892938613892,-0.037426453083753586,-0.03474001586437225,0.003491470590233803
538.0,0.0,0.0,0.0,0.0,0.0,0.0,0.002366673666983843,0.0033897811081260443,0.006202926859259605,0.9987667798995972,-0.03628245368599892,-0.03370777145028114,0.0035698271822184324
539.0,0.0,0.0,0.0,0.0,0.0,0.0,0.009952039457857609,0.0011528230970725417,0.007726701442152262,0.9989053010940552,-0.03406304493546486,-0.03198300674557686,0.0023449549917131662
540.0,0.0,0.0,0.0,0.0,0.0,0.0,0.01551519799977541,-0.0002983244485221803,-0.001645826268941164,0.9990039467811584,-0.03252626955509186,-0.030511608347296715,0.001448670867830515
541.0,0.0,0.0,0.0,0.0,0.0,0.0,0.007842483930289745,0.0019353681709617376,0.0006635701283812523,0.9990769624710083,-0.03170483559370041,-0.028987854719161987,0.000297276652418077
542.0,0.0,0.0,0.0,0.0,0.0,0.0,0.0014240656746551394,0.011470889672636986,0.017051661387085915,0.9991953372955322,-0.02977563999593258,-0.026865104213356972,-0.0003695959458127618
543.0,0.0,0.0,0.0,0.0,0.0,0.0,0.0033716941252350807,0.016718462109565735,0.028608815744519234,0.9993323087692261,-0.027566229924559593,-0.023985859006643295,-0.00031950202537700534
544.0,0.0,0.0,0.0,0.0,0.0,0.0,0.009086347185075283,0.010332603007555008,0.023137692362070084,0.9994587898254395,-0.02525523118674755,-0.021074354648590088,-0.0006148319225758314
545.0,0.0,0.0,0.0,0.0,0.0,0.0,0.012130986899137497,0.007068189792335033,0.015578017570078373,0.9995695948600769,-0.02304888516664505,-0.018100818619132042,-0.0014304453507065773
546.0,0.0,0.0,0.0,0.0,0.0,0.0,0.022855035960674286,0.013261710293591022,0.012794447131454945,0.9996699690818787,-0.019969521090388298,-0.016051312908530235,-0.0019458396127447486
547.0,0.0,0.0,0.0,0.0,0.0,0.0,0.009586912579834461,0.008279996924102306,-0.0005717595340684056,0.999748170375824,-0.017400620505213737,-0.013921498320996761,-0.002685921499505639
548.0,0.0,0.0,0.0,0.0,0.0,0.0,0.013275950215756893,0.01670067571103573,-0.015322737395763397,0.9998170733451843,-0.014636133797466755,-0.011721131391823292,-0.0037951760459691286
549.0,0.0,0.0,0.0,0.0,0.0,0.0,0.02246181294322014,0.01210783515125513,-0.023146163672208786,0.9998677968978882,-0.012248283252120018,-0.00949886254966259,-0.0049398127011954784
550.0,0.0,0.0,0.0,0.0,0.0,0.0,0.036915116012096405,0.001405103481374681,-0.03866293653845787,0.9998984932899475,-0.009906829334795475,-0.008530713617801666,-0.005688750185072422
551.0,0.0,0.0,0.0,0.0,0.0,0.0,0.0436507984995842,-0.0040197367779910564,-0.0398978516459465,0.9999096989631653,-0.007401561830192804,-0.009108982980251312,-0.006551099009811878
552.0,0.0,0.0,0.0,0.0,0.0,0.0,0.04897681996226311,0.004827651660889387,-0.019362177699804306,0.9999039173126221,-0.005334498360753059,-0.010469668544828892,-0.007363209966570139
553.0,0.0,0.0,0.0,0.0,0.0,0.0,0.04779201000928879,6.54746254440397e-05,-0.009617392905056477,0.9998757839202881,-0.004556441679596901,-0.01268346980214119,-0.008175254799425602
554.0,0.0,0.0,0.0,0.0,0.0,0.0,0.04377363994717598,-0.008592650294303894,-0.005865388084203005,0.9998379945755005,-0.004015478305518627,-0.015127553604543209,-0.008892628364264965
555.0,0.0,0.0,0.0,0.0,0.0,0.0,0.038424376398324966,-0.01608499325811863,-0.011357704177498817,0.9997773170471191,-0.003912337590008974,-0.018476754426956177,-0.009416918270289898
556.0,0.0,0.0,0.0,0.0,0.0,0.0,0.027833763509988785,-0.009514271281659603,-0.0004057841724716127,0.9996978044509888,-0.004783347249031067,-0.021715886890888214,-0.010490591637790203
557.0,0.0,0.0,0.0,0.0,0.0,0.0,0.013983790762722492,-0.012893079780042171,0.003460603766143322,0.9995937347412109,-0.005308793857693672,-0.02490209974348545,-0.012809342704713345
558.0,0.0,0.0,0.0,0.0,0.0,0.0,0.02283504419028759,-0.028087642043828964,-0.004072821699082851,0.9994820356369019,-0.0070788986049592495,-0.02786273881793022,-0.014464222826063633
559.0,0.0,0.0,0.0,0.0,0.0,0.0,0.030166031792759895,-0.03070025146007538,-0.026783106848597527,0.9993351101875305,-0.01021887082606554,-0.03233218938112259,-0.01340857520699501
560.0,0.0,0.0,0.0,0.0,0.0,0.0,0.033240120857954025,-0.01421917974948883,0.007322973106056452,0.9991660714149475,-0.01367180235683918,-0.03686218708753586,-0.011028602719306946
561.0,0.0,0.0,0.0,0.0,0.0,0.0,0.015134968794882298,-0.008296090178191662,0.03509308025240898,0.9990445971488953,-0.0176360122859478,-0.0392453707754612,-0.007667175028473139
562.0,0.0,0.0,0.0,0.0,0.0,0.0,-0.003972060978412628,-0.005188089795410633,0.012600106187164783,0.9989201426506042,-0.02016446180641651,-0.0411616787314415,-0.007599391974508762
563.0,0.0,0.0,0.0,0.0,0.0,0.0,0.007656571455299854,-0.01491320226341486,-0.027652321383357048,0.9987332820892334,-0.021174205467104912,-0.044905174523591995,-0.00822505820542574
564.0,0.0,0.0,0.0,0.0,0.0,0.0,-0.011742262169718742,-0.006292000878602266,0.03093769960105419,0.998585045337677,-0.021578099578619003,-0.04739617928862572,-0.010772037319839
565.0,0.0,0.0,0.0,0.0,0.0,0.0,-0.0028967740945518017,-0.008146632462739944,-0.03365989774465561,0.9984217882156372,-0.02278834767639637,-0.04919850453734398,-0.014630082063376904
566.0,0.0,0.0,0.0,0.0,0.0,0.0,0.01760079525411129,-0.016564657911658287,-0.03863989934325218,0.9981761574745178,-0.023032432422041893,-0.05245985835790634,-0.019016260281205177
567.0,0.0,0.0,0.0,0.0,0.0,0.0,-0.0027340268716216087,-0.0030959935393184423,-0.018600784242153168,0.9979228377342224,-0.023961173370480537,-0.0549512654542923,-0.023592540994286537
568.0,0.0,0.0,0.0,0.0,0.0,0.0,-0.008674253709614277,-0.001784494612365961,-0.022665254771709442,0.9976683259010315,-0.02615232579410076,-0.056826431304216385,-0.02729550562798977
569.0,0.0,0.0,0.0,0.0,0.0,0.0,0.0032098337542265654,-0.011856501922011375,-0.021291034296154976,0.997356653213501,-0.027941446751356125,-0.05989594757556915,-0.03019283153116703
570.0,0.0,0.0,0.0,0.0,0.0,0.0,-0.003397915279492736,0.00432371161878109,0.009849372319877148,0.9970579743385315,-0.029243705794215202,-0.06329750269651413,-0.03183741495013237
571.0,0.0,0.0,0.0,0.0,0.0,0.0,-0.006521778646856546,0.004676498472690582,0.03918018564581871,0.9968477487564087,-0.03150911629199982,-0.06489640474319458,-0.03302012383937836
572.0,0.0,0.0,0.0,0.0,0.0,0.0,-0.016760041937232018,0.008607197552919388,0.03266381099820137,0.9966737031936646,-0.03565394878387451,-0.06510370969772339,-0.033647794276475906
573.0,0.0,0.0,0.0,0.0,0.0,0.0,-0.023009922355413437,0.009792707860469818,0.03619625046849251,0.9965462684631348,-0.039524320513010025,-0.06408905237913132,-0.03501991555094719
574.0,0.0,0.0,0.0,0.0,0.0,0.0,-0.017619771882891655,-0.0003177451144438237,-0.006999901961535215,0.9964693784713745,-0.042010266333818436,-0.062381405383348465,-0.03731745108962059
575.0,0.0,0.0,0.0,0.0,0.0,0.0,-0.01206838060170412,-0.0010210743639618158,0.002261962043121457,0.9963477253913879,-0.04334540665149689,-0.06154843419790268,-0.04030153527855873
576.0,0.0,0.0,0.0,0.0,0.0,0.0,-0.026380328461527824,-0.008952554315328598,-0.028483914211392403,0.996184229850769,-0.04664086177945137,-0.060510311275720596,-0.04219178110361099
577.0,0.0,0.0,0.0,0.0,0.0,0.0,-0.015835212543606758,-0.00423118332400918,-0.010724127292633057,0.9959031343460083,-0.05100012943148613,-0.06015200912952423,-0.04425317421555519
578.0,0.0,0.0,0.0,0.0,0.0,0.0,-0.019805988296866417,-0.003004399361088872,-0.014127706177532673,0.995612382888794,-0.05346791818737984,-0.060599640011787415,-0.047174904495477676
579.0,0.0,0.0,0.0,0.0,0.0,0.0,-0.03278358280658722,0.0049568298272788525,-0.009887470863759518,0.9953696727752686,-0.055759500712156296,-0.06116711348295212,-0.048877324908971786
580.0,0.0,0.0,0.0,0.0,0.0,0.0,-0.026611996814608574,0.017311057075858116,0.023425208404660225,0.9952027201652527,-0.057861268520355225,-0.06099451705813408,-0.05003751814365387
581.0,0.0,0.0,0.0,0.0,0.0,0.0,-0.021108616143465042,0.017886396497488022,0.027627505362033844,0.995096743106842,-0.05936713516712189,-0.06011134386062622,-0.051423218101263046
582.0,0.0,0.0,0.0,0.0,0.0,0.0,-0.01869991049170494,0.019544998183846474,0.014231004752218723,0.9951003789901733,-0.060299746692180634,-0.058133602142333984,-0.05253414809703827
583.0,0.0,0.0,0.0,0.0,0.0,0.0,-0.015062389895319939,0.013568972237408161,0.00027117226272821426,0.9951822757720947,-0.05983715131878853,-0.0558464415371418,-0.05397000536322594
584.0,0.0,0.0,0.0,0.0,0.0,0.0,-0.003674769075587392,0.01322162989526987,-0.018743637949228287,0.9953156113624573,-0.058582060039043427,-0.053864870220422745,-0.05490286648273468
585.0,0.0,0.0,0.0,0.0,0.0,0.0,-0.001440808642655611,0.013624817132949829,-0.006111374590545893,0.9954966306686401,-0.056556571274995804,-0.05279448628425598,-0.05477946251630783
586.0,0.0,0.0,0.0,0.0,0.0,0.0,-0.004817564971745014,0.013876579701900482,-0.003872612025588751,0.9957316517829895,-0.054123371839523315,-0.051973238587379456,-0.05373760685324669
587.0,0.0,0.0,0.0,0.0,0.0,0.0,-0.0030933753587305546,0.012406381778419018,2.6553901989245787e-05,0.9960166215896606,-0.05112454667687416,-0.05163729935884476,-0.05167991295456886
588.0,0.0,0.0,0.0,0.0,0.0,0.0,0.0003343471616972238,0.011250793002545834,-0.0022486725356429815,0.9962872862815857,-0.04799433797597885,-0.051614902913570404,-0.04943995550274849
589.0,0.0,0.0,0.0,0.0,0.0,0.0,0.001206719083711505,0.0072199152782559395,-0.0038054073229432106,0.9965149164199829,-0.046038683503866196,-0.051149070262908936,-0.04714019224047661
590.0,0.0,0.0,0.0,0.0,0.0,0.0,0.000528000935446471,0.011338344775140285,0.0010223558638244867,0.9967894554138184,-0.04357783496379852,-0.05015190318226814,-0.044681139290332794
591.0,0.0,0.0,0.0,0.0,0.0,0.0,0.0010448360117152333,0.006001102738082409,0.0005147733609192073,0.9970735907554626,-0.04059016332030296,-0.04840582236647606,-0.04305478185415268
592.0,0.0,0.0,0.0,0.0,0.0,0.0,0.006434067618101835,0.0005810987786389887,-0.007793443743139505,0.9973557591438293,-0.03742202743887901,-0.04615865647792816,-0.041839849203825
593.0,0.0,0.0,0.0,0.0,0.0,0.0,0.014644849114120007,-0.006842227187007666,-0.014539849013090134,0.9975568056106567,-0.03530406951904297,-0.044730424880981445,-0.04041225463151932
594.0,0.0,0.0,0.0,0.0,0.0,0.0,0.016714725643396378,-0.010238288901746273,-0.003059971844777465,0.997733473777771,-0.03362593054771423,-0.04417222738265991,-0.03802594542503357
595.0,0.0,0.0,0.0,0.0,0.0,0.0,0.01791471056640148,-0.007347633596509695,0.00808674655854702,0.9979000687599182,-0.03220400959253311,-0.04347551241517067,-0.035615332424640656
596.0,0.0,0.0,0.0,0.0,0.0,0.0,0.02079380862414837,-0.014464890584349632,0.004473064094781876,0.9980116486549377,-0.03076932020485401,-0.042983900755643845,-0.03432891517877579
597.0,0.0,0.0,0.0,0.0,0.0,0.0,0.018861308693885803,-0.015414793975651264,0.0018443235894665122,0.9980719685554504,-0.030709553509950638,-0.043271660804748535,-0.03219478577375412
598.0,0.0,0.0,0.0,0.0,0.0,0.0,0.01644984632730484,-0.015120698139071465,0.0010241797426715493,0.998070240020752,-0.030356738716363907,-0.04397629201412201,-0.0316239669919014
599.0,0.0,0.0,0.0,0.0,0.0,0.0,0.01904747262597084,-0.01570584997534752,0.0013076942414045334,0.9980078935623169,-0.029336757957935333,-0.04514629393815994,-0.032884277403354645
600.0,0.0,0.0,0.0,0.0,0.0,0.0,0.0029860956128686666,-0.009873626753687859,0.01608855277299881,0.9979474544525146,-0.028748150914907455,-0.0466623418033123,-0.033122628927230835
601.0,0.0,0.0,0.0,0.0,0.0,0.0,-0.01007641851902008,-0.00747798103839159,0.019881587475538254,0.997928261756897,-0.02774701826274395,-0.0471675731241703,-0.0338316336274147
602.0,0.0,0.0,0.0,0.0,0.0,0.0,-0.006287334952503443,-0.005809152033179998,0.0036969194188714027,0.9979450106620789,-0.02657289244234562,-0.04694439470767975,-0.034582797437906265
603.0,0.0,0.0,0.0,0.0,0.0,0.0,-0.007706440519541502,-0.0059046437963843346,0.009775092825293541,0.9979620575904846,-0.02628033235669136,-0.046221643686294556,-0.03527985140681267
604.0,0.0,0.0,0.0,0.0,0.0,0.0,-0.008084114640951157,-0.010326500050723553,-0.01090790145099163,0.9979982972145081,-0.02599848248064518,-0.045179080218076706,-0.035817306488752365
605.0,0.0,0.0,0.0,0.0,0.0,0.0,-0.006966437678784132,-0.003282400779426098,-0.004974422510713339,0.9980444312095642,-0.025336962193250656,-0.04452987015247345,-0.035811442881822586
606.0,0.0,0.0,0.0,0.0,0.0,0.0,-0.007058556657284498,-0.004140712786465883,-0.004638714250177145,0.9981038570404053,-0.02431240864098072,-0.043848417699337006,-0.03570476919412613
607.0,0.0,0.0,0.0,0.0,0.0,0.0,-0.008031347766518593,-0.01135325524955988,-0.011323158629238605,0.9981502294540405,-0.024140557274222374,-0.043410804122686386,-0.03505637124180794
608.0,0.0,0.0,0.0,0.0,0.0,0.0,-0.0039017728995531797,-0.01053824182599783,-0.023474369198083878,0.9982028007507324,-0.023975547403097153,-0.04221859574317932,-0.03512365370988846
609.0,0.0,0.0,0.0,0.0,0.0,0.0,-0.0033529074862599373,-0.00868656300008297,-0.0018935820553451777,0.99822598695755,-0.02379070781171322,-0.040951453149318695,-0.036084238439798355
610.0,0.0,0.0,0.0,0.0,0.0,0.0,-0.00427858904004097,-0.0018308849539607763,-0.0017325050430372357,0.9982581734657288,-0.02443643845617771,-0.03991071134805679,-0.03592254966497421
611.0,0.0,0.0,0.0,0.0,0.0,0.0,-0.013260954059660435,0.003184473142027855,0.019625617191195488,0.9983506202697754,-0.02506289631128311,-0.03833673521876335,-0.03461625054478645
612.0,0.0,0.0,0.0,0.0,0.0,0.0,-0.007804904133081436,-0.001959088258445263,0.016389720141887665,0.9984577298164368,-0.02458258904516697,-0.036533404141664505,-0.033811867237091064
613.0,0.0,0.0,0.0,0.0,0.0,0.0,0.006495341658592224,-0.008121304214000702,-0.006569225806742907,0.9985365271568298,-0.023377439007163048,-0.03496305271983147,-0.03399896249175072
614.0,0.0,0.0,0.0,0.0,0.0,0.0,0.0028997885528951883,-0.015834249556064606,-0.004850545432418585,0.998620331287384,-0.022001205012202263,-0.03318096697330475,-0.034245800226926804
615.0,0.0,0.0,0.0,0.0,0.0,0.0,0.016856197267770767,-0.011704511940479279,0.00289944838732481,0.9986562728881836,-0.021796079352498055,-0.032850317656993866,-0.03363886475563049
616.0,0.0,0.0,0.0,0.0,0.0,0.0,0.014488796703517437,-0.010781665332615376,-0.005718465894460678,0.9986453652381897,-0.02061488665640354,-0.032763365656137466,-0.03477386012673378
617.0,0.0,0.0,0.0,0.0,0.0,0.0,0.017750773578882217,-0.014425507746636868,-0.0018150906544178724,0.9986089468002319,-0.01876518689095974,-0.03218238800764084,-0.03731686994433403
618.0,0.0,0.0,0.0,0.0,0.0,0.0,0.019888658076524734,-0.016663875430822372,-0.006800694856792688,0.998566210269928,-0.016854221001267433,-0.032785892486572266,-0.03881709277629852
619.0,0.0,0.0,0.0,0.0,0.0,0.0,0.02208968810737133,-0.016368456184864044,-0.007136924657970667,0.9985125660896301,-0.015982139855623245,-0.03386358171701431,-0.03963020071387291
620.0,0.0,0.0,0.0,0.0,0.0,0.0,0.016761859878897667,-0.007720752153545618,0.002437533810734749,0.9984700083732605,-0.015683023259043694,-0.034920159727334976,-0.03991113603115082
621.0,0.0,0.0,0.0,0.0,0.0,0.0,0.008013267070055008,-0.01075790822505951,-0.00047887605614960194,0.998420000076294,-0.015359890647232533,-0.036105088889598846,-0.040224358439445496
622.0,0.0,0.0,0.0,0.0,0.0,0.0,0.010749063454568386,-0.0083362041041255,0.0007268458721227944,0.9983539581298828,-0.016138998791575432,-0.037199683487415314,-0.04056394100189209
623.0,0.0,0.0,0.0,0.0,0.0,0.0,0.007694520987570286,-0.005520020145922899,0.0020471960306167603,0.9982945919036865,-0.016698742285370827,-0.03770812228322029,-0.04132850468158722
624.0,0.0,0.0,0.0,0.0,0.0,0.0,0.00503512192517519,-0.0036878620740026236,0.0029232415836304426,0.9982256889343262,-0.017345042899250984,-0.03850438818335533,-0.04198320209980011
625.0,0.0,0.0,0.0,0.0,0.0,0.0,0.010979721322655678,0.001157459570094943,-0.0034037039149552584,0.9981692433357239,-0.018736422061920166,-0.03960030525922775,-0.041714366525411606
626.0,0.0,0.0,0.0,0.0,0.0,0.0,0.011375395581126213,-0.001947568147443235,-0.015160632319748402,0.9980992674827576,-0.020262980833649635,-0.040563616901636124,-0.041748374700546265
627.0,0.0,0.0,0.0,0.0,0.0,0.0,0.012017018161714077,-0.00046310131438076496,-0.0060299476608633995,0.9980682134628296,-0.02030017226934433,-0.04089406505227089,-0.042144808918237686
628.0,0.0,0.0,0.0,0.0,0.0,0.0,0.0067447214387357235,-0.0005438114167191088,-0.00023707067884970456,0.9980697631835938,-0.02101782336831093,-0.04146149009466171,-0.04119182750582695
629.0,0.0,0.0,0.0,0.0,0.0,0.0,0.01265222579240799,0.0037967374082654715,-0.007170550525188446,0.998069703578949,-0.023129427805542946,-0.04222104325890541,-0.03923914209008217
630.0,0.0,0.0,0.0,0.0,0.0,0.0,0.019884759560227394,0.0058649503625929356,-0.013246169313788414,0.9980422854423523,-0.024399979040026665,-0.04339106008410454,-0.037867482751607895
631.0,0.0,0.0,0.0,0.0,0.0,0.0,0.014960085041821003,0.007679747883230448,-0.0018457203404977918,0.997974693775177,-0.025300471112132072,-0.045136597007513046,-0.036999963223934174
632.0,0.0,0.0,0.0,0.0,0.0,0.0,0.00617514131590724,0.0031342972069978714,0.004335522651672363,0.9978157877922058,-0.026225555688142776,-0.04686172306537628,-0.03848199546337128
633.0,0.0,0.0,0.0,0.0,0.0,0.0,-0.004913006909191608,-0.0031408341601490974,0.010207734070718288,0.9977028369903564,-0.027009686455130577,-0.0492427796125412,-0.03787510469555855
634.0,0.0,0.0,0.0,0.0,0.0,0.0,-0.014422060921788216,-0.002214065520092845,0.022733742371201515,0.9976013898849487,-0.027851026505231857,-0.05124231427907944,-0.037291135638952255
635.0,0.0,0.0,0.0,0.0,0.0,0.0,-0.023134542629122734,-0.0023024561814963818,0.03131194785237312,0.9975213408470154,-0.028802279382944107,-0.052773367613554,-0.036561787128448486
636.0,0.0,0.0,0.0,0.0,0.0,0.0,-0.025263719260692596,-0.0019268952310085297,0.032932162284851074,0.9974247217178345,-0.02979516237974167,-0.0539405383169651,-0.03670679032802582
637.0,0.0,0.0,0.0,0.0,0.0,0.0,-0.025340190157294273,-0.0003383396251592785,0.025559335947036743,0.9973622560501099,-0.030004939064383507,-0.05494682863354683,-0.03673454001545906
638.0,0.0,0.0,0.0,0.0,0.0,0.0,-0.03530193865299225,0.0017214270774275064,0.01851852424442768,0.9973350763320923,-0.030052518472075462,-0.05578242987394333,-0.03617344796657562
639.0,0.0,0.0,0.0,0.0,0.0,0.0,-0.04377715289592743,0.001856412971392274,0.019310440868139267,0.9974439144134521,-0.028491558507084846,-0.05473852530121803,-0.03602317348122597
640.0,0.0,0.0,0.0,0.0,0.0,0.0,-0.03295117989182472,-0.000878790277056396,0.012464108876883984,0.9975696802139282,-0.027728354558348656,-0.05230256915092468,-0.03674742579460144
641.0,0.0,0.0,0.0,0.0,0.0,0.0,-0.02216663397848606,-0.006232847459614277,0.0008837361237965524,0.9976492524147034,-0.02820858731865883,-0.049835238605737686,-0.03764555975794792
642.0,0.0,0.0,0.0,0.0,0.0,0.0,-0.018448559567332268,-0.00872093252837658,-0.00878509134054184,0.9977776408195496,-0.028528323397040367,-0.0470333956182003,-0.037599049508571625
643.0,0.0,0.0,0.0,0.0,0.0,0.0,-0.015316800214350224,-0.00948843453079462,-0.019196519628167152,0.9978271722793579,-0.030360011383891106,-0.04506996273994446,-0.03725592419505119
644.0,0.0,0.0,0.0,0.0,0.0,0.0,-0.022448526695370674,-0.0035799022298306227,-0.003255813615396619,0.9978755712509155,-0.03199145942926407,-0.0434088371694088,-0.03656983748078346
645.0,0.0,0.0,0.0,0.0,0.0,0.0,-0.025301992893218994,-0.0034599648788571358,-0.0006886945338919759,0.9979140758514404,-0.0329861119389534,-0.041730985045433044,-0.036579106003046036
646.0,0.0,0.0,0.0,0.0,0.0,0.0,-0.016367923468351364,-0.005589121952652931,-0.01581874117255211,0.997898519039154,-0.03314829617738724,-0.040030959993600845,-0.03869786113500595
647.0,0.0,0.0,0.0,0.0,0.0,0.0,-0.013593505136668682,-0.0070375255309045315,-0.01962505280971527,0.9978542923927307,-0.03261644020676613,-0.03918750211596489,-0.04107576608657837
648.0,0.0,0.0,0.0,0.0,0.0,0.0,-0.016439467668533325,0.00025431098765693605,-0.011101523414254189,0.9978285431861877,-0.0318264365196228,-0.03868996351957321,-0.042766328901052475
649.0,0.0,0.0,0.0,0.0,0.0,0.0,-0.03036387264728546,0.005626521538943052,0.010126410983502865,0.997867226600647,-0.031036946922540665,-0.03756196051836014,-0.04343658313155174
650.0,0.0,0.0,0.0,0.0,0.0,0.0,-0.03187641128897667,0.008603536523878574,0.008920609951019287,0.9979454278945923,-0.030087271705269814,-0.035038549453020096,-0.04440906643867493
651.0,0.0,0.0,0.0,0.0,0.0,0.0,-0.008461798541247845,0.0028985952958464622,-0.013564813882112503,0.9980270266532898,-0.029104121029376984,-0.032621994614601135,-0.04506797716021538
652.0,0.0,0.0,0.0,0.0,0.0,0.0,0.006373249925673008,0.006319141015410423,-0.019029440358281136,0.9981083869934082,-0.027966579422354698,-0.03125039115548134,-0.04495563358068466
653.0,0.0,0.0,0.0,0.0,0.0,0.0,0.0067756520584225655,0.006650348659604788,-0.014374506659805775,0.9982010722160339,-0.02629832737147808,-0.02990732342004776,-0.04482205957174301
654.0,0.0,0.0,0.0,0.0,0.0,0.0,0.025928201153874397,0.0117054283618927,-0.022744344547390938,0.9982889294624329,-0.02467997372150421,-0.029363131150603294,-0.04413571581244469
655.0,0.0,0.0,0.0,0.0,0.0,0.0,0.04075714945793152,0.012911348603665829,-0.03150640428066254,0.998390793800354,-0.02233339473605156,-0.029400894418358803,-0.043043531477451324
656.0,0.0,0.0,0.0,0.0,0.0,0.0,0.0499940887093544,0.011393401771783829,-0.034489549696445465,0.9984575510025024,-0.02030538208782673,-0.030076682567596436,-0.042019035667181015
657.0,0.0,0.0,0.0,0.0,0.0,0.0,0.04988648742437363,0.014274121262133121,-0.028683383017778397,0.9984846115112305,-0.019526729360222816,-0.03150817006826401,-0.04068264737725258
658.0,0.0,0.0,0.0,0.0,0.0,0.0,0.04661082848906517,0.017162563279271126,-0.014565307646989822,0.9984951615333557,-0.019463779404759407,-0.03352690115571022,-0.03878761827945709
659.0,0.0,0.0,0.0,0.0,0.0,0.0,0.04195210337638855,0.021259289234876633,-0.0015377738745883107,0.9985340237617493,-0.01848997361958027,-0.03581710159778595,-0.036130934953689575
660.0,0.0,0.0,0.0,0.0,0.0,0.0,0.03445343300700188,0.026530582457780838,0.020163115113973618,0.9985718131065369,-0.01828325353562832,-0.038227200508117676,-0.03254273161292076
661.0,0.0,0.0,0.0,0.0,0.0,0.0,0.03115481324493885,0.02210072986781597,0.03392729163169861,0.9986182451248169,-0.01803910918533802,-0.039977386593818665,-0.028956813737750053
662.0,0.0,0.0,0.0,0.0,0.0,0.0,0.034930285066366196,0.01065525971353054,0.03821319341659546,0.9986677765846252,-0.01704457215964794,-0.04082205146551132,-0.0265713632106781
663.0,0.0,0.0,0.0,0.0,0.0,0.0,0.032810695469379425,0.00015943976177368313,0.03265216946601868,0.9986957311630249,-0.01700078696012497,-0.04143206402659416,-0.024520419538021088
664.0,0.0,0.0,0.0,0.0,0.0,0.0,0.030572840943932533,-0.010579317808151245,0.02201087772846222,0.9986867308616638,-0.018615882843732834,-0.042448148131370544,-0.021836362779140472
665.0,0.0,0.0,0.0,0.0,0.0,0.0,0.025884417816996574,-0.019434461370110512,0.006035774480551481,0.9986069798469543,-0.021057000383734703,-0.04399477690458298,-0.020148469135165215
666.0,0.0,0.0,0.0,0.0,0.0,0.0,-0.0134115656837821,-0.046278711408376694,-0.008178113028407097,0.9985408186912537,-0.02469033934175968,-0.04478280246257782,-0.017376946285367012
667.0,0.0,0.0,0.0,0.0,0.0,0.0,-0.00910997949540615,-0.02859843149781227,-0.012263852171599865,0.99851393699646,-0.029087889939546585,-0.04458446428179741,-0.011682838201522827
668.0,0.0,0.0,0.0,0.0,0.0,0.0,0.06066019460558891,0.017637919634580612,-0.009012725204229355,0.9983910322189331,-0.03062616102397442,-0.046743616461753845,-0.009615177288651466
669.0,0.0,0.0,0.0,0.0,0.0,0.0,0.015720924362540245,-0.017788155004382133,0.006620730273425579,0.9982503056526184,-0.03066524863243103,-0.04871819540858269,-0.013516497798264027
670.0,0.0,0.0,0.0,0.0,0.0,0.0,-0.04636451229453087,-0.04113931581377983,-0.0015401869313791394,0.9981342554092407,-0.03204648196697235,-0.048990216106176376,-0.017377961426973343
671.0,0.0,0.0,0.0,0.0,0.0,0.0,-0.03341907262802124,-0.027605196461081505,-5.346093530533835e-05,0.998002290725708,-0.03515303507447243,-0.04899439215660095,-0.01886744424700737
672.0,0.0,0.0,0.0,0.0,0.0,0.0,-0.02831001579761505,-0.021025298163294792,0.0022911045234650373,0.9979234337806702,-0.03709171339869499,-0.04886721074581146,-0.019638987258076668
673.0,0.0,0.0,0.0,0.0,0.0,0.0,-0.030070094391703606,-0.019669001922011375,-0.0001888962578959763,0.9979410171508789,-0.03757459297776222,-0.04809651896357536,-0.019731542095541954
674.0,0.0,0.0,0.0,0.0,0.0,0.0,-0.02351524867117405,-0.020871136337518692,0.0010418635793030262,0.9979439377784729,-0.038487013429403305,-0.0474277101457119,-0.01942337676882744
675.0,0.0,0.0,0.0,0.0,0.0,0.0,-0.03742634132504463,-0.027720371261239052,-0.0023621530272066593,0.9979656338691711,-0.03974681347608566,-0.04637901112437248,-0.018278274685144424
676.0,0.0,0.0,0.0,0.0,0.0,0.0,-0.07858535647392273,-0.03906654193997383,0.003697568317875266,0.998024046421051,-0.04303024336695671,-0.04379641264677048,-0.01335097011178732
677.0,0.0,0.0,0.0,0.0,0.0,0.0,-0.02370251528918743,0.011530728079378605,0.0107355248183012,0.9981573820114136,-0.04524673521518707,-0.04009433835744858,-0.005251334980130196
678.0,0.0,0.0,0.0,0.0,0.0,0.0,0.07128308713436127,0.03174569085240364,0.03647362440824509,0.9983553886413574,-0.04207178205251694,-0.03885072097182274,-0.0025993050076067448
679.0,0.0,0.0,0.0,0.0,0.0,0.0,0.0008266203803941607,0.01053811889141798,0.08524907380342484,0.9986581802368164,-0.03765841946005821,-0.035230036824941635,-0.004767260048538446
680.0,0.0,0.0,0.0,0.0,0.0,0.0,-0.07704789191484451,-0.0050692069344222546,0.04841287434101105,0.9989974498748779,-0.03622159734368324,-0.025686027482151985,-0.005700517445802689
681.0,0.0,0.0,0.0,0.0,0.0,0.0,-0.053294286131858826,0.0023945870343595743,0.028029391542077065,0.9992091655731201,-0.037121497094631195,-0.013901649042963982,-0.003189436625689268
682.0,0.0,0.0,0.0,0.0,0.0,0.0,0.009892759844660759,-0.002229047240689397,0.008622776716947556,0.9993000030517578,-0.03729010000824928,-0.002936287084594369,-0.0007846304215490818
683.0,0.0,0.0,0.0,0.0,0.0,0.0,0.05948108807206154,-0.0216606967151165,-0.045413095504045486,0.9993308186531067,-0.03630296513438225,0.0038841834757477045,0.0023084585554897785
684.0,0.0,0.0,0.0,0.0,0.0,0.0,0.06615463644266129,-0.017039695754647255,-0.0376928374171257,0.9993793964385986,-0.0340103842318058,0.007097939029335976,0.0058547016233205795
685.0,0.0,0.0,0.0,0.0,0.0,0.0,0.05842193216085434,-0.021452629938721657,-0.04660048335790634,0.9994782209396362,-0.0306899081915617,0.007256238255649805,0.0069913617335259914
686.0,0.0,0.0,0.0,0.0,0.0,0.0,0.06394363194704056,-0.021368013694882393,-0.05227062106132507,0.9995891451835632,-0.027434492483735085,0.0036314846947789192,0.007463942281901836
687.0,0.0,0.0,0.0,0.0,0.0,0.0,0.03659356012940407,-0.0043320124968886375,0.0019102164078503847,0.9996821284294128,-0.0240358617156744,-0.0006248201825655997,0.007623674813657999
688.0,0.0,0.0,0.0,0.0,0.0,0.0,0.014315199106931686,0.002293257974088192,0.018737230449914932,0.999727725982666,-0.021723898127675056,-0.0038617311511188745,0.007615896873176098
689.0,0.0,0.0,0.0,0.0,0.0,0.0,0.014302406460046768,-0.007091891020536423,-0.017837323248386383,0.9997411966323853,-0.02059272676706314,-0.006936308927834034,0.006751085165888071
690.0,0.0,0.0,0.0,0.0,0.0,0.0,0.023074472323060036,-0.014433875679969788,-0.026921309530735016,0.9997665882110596,-0.017959199845790863,-0.011001265607774258,0.004850567784160376
691.0,0.0,0.0,0.0,0.0,0.0,0.0,0.0037458548322319984,-0.02131085842847824,0.01615816354751587,0.9997665882110596,-0.015626508742570877,-0.014629404060542583,0.0029697406571358442
692.0,0.0,0.0,0.0,0.0,0.0,0.0,-0.0063454401679337025,-0.013381709344685078,-0.0012614491861313581,0.9997315406799316,-0.01502847671508789,-0.01755717396736145,0.0017958617536351085
693.0,0.0,0.0,0.0,0.0,0.0,0.0,-0.01611207239329815,-0.0036291975993663073,-0.0022992612794041634,0.9997055530548096,-0.013937622308731079,-0.019858449697494507,-0.0001649650075705722
694.0,0.0,0.0,0.0,0.0,0.0,0.0,-0.01743902638554573,-0.02161257714033127,-0.021167069673538208,0.9996446371078491,-0.014214741997420788,-0.02245752513408661,-0.0020973351784050465
695.0,0.0,0.0,0.0,0.0,0.0,0.0,-0.009959535673260689,-0.003117937594652176,-0.006990817841142416,0.9995718002319336,-0.014185464940965176,-0.025280367583036423,-0.004010775126516819
696.0,0.0,0.0,0.0,0.0,0.0,0.0,-0.026794880628585815,0.008025686256587505,0.005810454487800598,0.9995452761650085,-0.014300880022346973,-0.02564346417784691,-0.006876301020383835
697.0,0.0,0.0,0.0,0.0,0.0,0.0,-0.01878250576555729,-0.003878738498315215,-0.016268234699964523,0.9995370507240295,-0.01543161366134882,-0.024943852797150612,-0.008080510422587395
698.0,0.0,0.0,0.0,0.0,0.0,0.0,0.00018619123147800565,-0.0035797953605651855,-0.015377719886600971,0.9995127320289612,-0.017317334190011024,-0.025048935785889626,-0.006868558935821056
699.0,0.0,0.0,0.0,0.0,0.0,0.0,-0.001749899354763329,-0.006848584860563278,-0.032289743423461914,0.99947589635849,-0.019487837329506874,-0.02555633895099163,-0.0038702250458300114
700.0,0.0,0.0,0.0,0.0,0.0,0.0,0.0025363462045788765,0.003355975029990077,0.004454809706658125,0.9994275569915771,-0.021997623145580292,-0.025670992210507393,-0.0013790494995191693
701.0,0.0,0.0,0.0,0.0,0.0,0.0,0.011997226625680923,0.0017845866968855262,0.00938163511455059,0.9993438720703125,-0.024672385305166245,-0.026513123884797096,-0.00020440269145183265
702.0,0.0,0.0,0.0,0.0,0.0,0.0,0.008198104798793793,0.010251505300402641,0.003989348653703928,0.9992468357086182,-0.02523454651236534,-0.029481349512934685,-0.0002771286526694894
703.0,0.0,0.0,0.0,0.0,0.0,0.0,0.005186967086046934,0.016417842358350754,0.0024736507330089808,0.9991887807846069,-0.024314535781741142,-0.032092057168483734,-0.001000276068225503
704.0,0.0,0.0,0.0,0.0,0.0,0.0,0.017963094636797905,0.0033742880914360285,-0.0060880957171320915,0.9991047978401184,-0.02423202432692051,-0.034536030143499374,-0.0031709764152765274
705.0,0.0,0.0,0.0,0.0,0.0,0.0,0.02685696817934513,-0.0029374377336353064,-0.01633063703775406,0.998971700668335,-0.023010294884443283,-0.038430508226156235,-0.007019269745796919
706.0,0.0,0.0,0.0,0.0,0.0,0.0,0.018675167113542557,0.0034268272574990988,-0.005985441617667675,0.998812735080719,-0.02125185914337635,-0.04222855716943741,-0.011761907488107681
707.0,0.0,0.0,0.0,0.0,0.0,0.0,0.016897443681955338,0.0025174450129270554,0.005466838832944632,0.9986210465431213,-0.020690377801656723,-0.04552392661571503,-0.016008200123906136
708.0,0.0,0.0,0.0,0.0,0.0,0.0,0.009618790820240974,0.0018801077967509627,-0.009202037937939167,0.9984055161476135,-0.020746247842907906,-0.048739537596702576,-0.019513478502631187
709.0,0.0,0.0,0.0,0.0,0.0,0.0,0.002999031450599432,0.006392945069819689,-0.007198215927928686,0.9981867074966431,-0.021914346143603325,-0.051785923540592194,-0.0214901901781559
710.0,0.0,0.0,0.0,0.0,0.0,0.0,-0.003366112941876054,0.01550548430532217,0.010806753300130367,0.9979893565177917,-0.024005822837352753,-0.05408459156751633,-0.02272254228591919
711.0,0.0,0.0,0.0,0.0,0.0,0.0,-0.00608059111982584,0.02304847165942192,0.02468743361532688,0.9978351593017578,-0.02571123093366623,-0.055899590253829956,-0.023225469514727592
712.0,0.0,0.0,0.0,0.0,0.0,0.0,-0.009911875240504742,0.02704509161412716,0.03330284729599953,0.9977431297302246,-0.026872310787439346,-0.05670391023159027,-0.023903120309114456
713.0,0.0,0.0,0.0,0.0,0.0,0.0,-0.009991278871893883,0.02029585838317871,0.035304658114910126,0.9976846575737,-0.028533220291137695,-0.056707438081502914,-0.024401405826210976
714.0,0.0,0.0,0.0,0.0,0.0,0.0,-0.008664170280098915,0.018647074699401855,0.02693255804479122,0.9976478815078735,-0.029149184003472328,-0.056818000972270966,-0.0249173641204834
715.0,0.0,0.0,0.0,0.0,0.0,0.0,-0.010433023795485497,0.016043303534388542,0.016521725803613663,0.9976649284362793,-0.028832966461777687,-0.056203726679086685,-0.025979874655604362
716.0,0.0,0.0,0.0,0.0,0.0,0.0,-0.012781670317053795,0.01248138677328825,0.0071326494216918945,0.9977132081985474,-0.028553804382681847,-0.05468633025884628,-0.027609456330537796
717.0,0.0,0.0,0.0,0.0,0.0,0.0,-0.00664547411724925,0.010449071414768696,-0.00011489334428915754,0.9977806210517883,-0.02860969305038452,-0.0526423417031765,-0.02905593439936638
718.0,0.0,0.0,0.0,0.0,0.0,0.0,-0.014784353785216808,0.014436413533985615,0.011927728541195393,0.9978153705596924,-0.028783686459064484,-0.05100088194012642,-0.030573733150959015
719.0,0.0,0.0,0.0,0.0,0.0,0.0,-0.014543172903358936,0.019340533763170242,0.0004256540851201862,0.9978588819503784,-0.028912320733070374,-0.049310944974422455,-0.0317862443625927
720.0,0.0,0.0,0.0,0.0,0.0,0.0,-0.010006614960730076,0.014796475879848003,0.009680717252194881,0.997924268245697,-0.027081774547696114,-0.047858864068984985,-0.03351964056491852
721.0,0.0,0.0,0.0,0.0,0.0,0.0,-0.009787604212760925,0.005834583658725023,0.002351677743718028,0.9979987144470215,-0.024326475337147713,-0.04543711990118027,-0.03663887083530426
722.0,0.0,0.0,0.0,0.0,0.0,0.0,-0.001025345642119646,0.009530633687973022,0.0015873877564445138,0.9980579018592834,-0.02361745573580265,-0.043281298130750656,-0.038068536669015884
723.0,0.0,0.0,0.0,0.0,0.0,0.0,-0.000124468031572178,0.005051083397120237,0.0003352872154209763,0.9981522560119629,-0.022662654519081116,-0.041125450283288956,-0.03856772556900978
724.0,0.0,0.0,0.0,0.0,0.0,0.0,0.0017459647497162223,0.003673338796943426,-0.007871957495808601,0.998260498046875,-0.020531661808490753,-0.03852236270904541,-0.039628248661756516
725.0,0.0,0.0,0.0,0.0,0.0,0.0,0.017187992110848427,0.002930451650172472,-0.007087957579642534,0.998369574546814,-0.018440064042806625,-0.036827802658081055,-0.03951958939433098
726.0,0.0,0.0,0.0,0.0,0.0,0.0,0.017844384536147118,0.0034716858062893152,0.0010367309441789985,0.9984477162361145,-0.01637689396739006,-0.0357484295964241,-0.039445146918296814
727.0,0.0,0.0,0.0,0.0,0.0,0.0,0.01282640639692545,-0.0031154281459748745,0.012186720967292786,0.9985305070877075,-0.013523448258638382,-0.033742666244506836,-0.04019469767808914
728.0,0.0,0.0,0.0,0.0,0.0,0.0,0.019552156329154968,-0.0015439740382134914,-0.006329563446342945,0.9986558556556702,-0.011639500968158245,-0.032480861991643906,-0.038678817451000214
729.0,0.0,0.0,0.0,0.0,0.0,0.0,0.022283559665083885,-0.0008535587112419307,-0.016406387090682983,0.9987814426422119,-0.01118121575564146,-0.031187357380986214,-0.036582961678504944
730.0,0.0,0.0,0.0,0.0,0.0,0.0,0.02702079713344574,-0.004459079820662737,-0.018026189878582954,0.9988351464271545,-0.010415684431791306,-0.029786862432956696,-0.03650447353720665
731.0,0.0,0.0,0.0,0.0,0.0,0.0,0.04081267863512039,-0.0026050577871501446,-0.033628348261117935,0.9988672733306885,-0.009163767099380493,-0.02921777404844761,-0.036420729011297226
732.0,0.0,0.0,0.0,0.0,0.0,0.0,0.03412590175867081,-0.010449985973536968,-0.02455950900912285,0.9989185333251953,-0.008082464337348938,-0.029424602165818214,-0.03508077561855316
733.0,0.0,0.0,0.0,0.0,0.0,0.0,0.029588360339403152,-0.007054230198264122,-0.02841099537909031,0.9989392757415771,-0.007128247991204262,-0.029425203800201416,-0.03469850495457649
734.0,0.0,0.0,0.0,0.0,0.0,0.0,0.03200111538171768,-0.007587675470858812,-0.015489495359361172,0.9989746809005737,-0.0069307489320635796,-0.02970973588526249,-0.033452849835157394
735.0,0.0,0.0,0.0,0.0,0.0,0.0,0.026373671367764473,-0.008475877344608307,-0.01271407213062048,0.9990139603614807,-0.008168736472725868,-0.030871568247675896,-0.030852779746055603
736.0,0.0,0.0,0.0,0.0,0.0,0.0,0.02334696426987648,-0.006251543294638395,-0.009930326603353024,0.9990100264549255,-0.008155712857842445,-0.03198253735899925,-0.029828010126948357
737.0,0.0,0.0,0.0,0.0,0.0,0.0,0.023161806166172028,-0.013354993425309658,-0.011856322176754475,0.9990024566650391,-0.007784256245940924,-0.032883498817682266,-0.029197361320257187
738.0,0.0,0.0,0.0,0.0,0.0,0.0,0.018985390663146973,-0.010731037706136703,-0.0021274914033710957,0.9989874362945557,-0.008645578287541866,-0.03418830409646034,-0.027939246967434883
739.0,0.0,0.0,0.0,0.0,0.0,0.0,0.009718790650367737,-0.016321543604135513,-0.0028639999218285084,0.9989531636238098,-0.009672279469668865,-0.03550517186522484,-0.027176184579730034
740.0,0.0,0.0,0.0,0.0,0.0,0.0,0.012760961428284645,-0.015321586281061172,-0.00625928770750761,0.9988995790481567,-0.01074695959687233,-0.037147779017686844,-0.026538433507084846
741.0,0.0,0.0,0.0,0.0,0.0,0.0,0.0061743720434606075,-0.013047605752944946,-0.0015227062394842505,0.9988667368888855,-0.011022008024156094,-0.03835129737854004,-0.025942476466298103
742.0,0.0,0.0,0.0,0.0,0.0,0.0,-0.003914404194802046,-0.01840522140264511,0.006609137635678053,0.998824417591095,-0.010672619566321373,-0.039425767958164215,-0.026109961792826653
743.0,0.0,0.0,0.0,0.0,0.0,0.0,0.0011497491504997015,-0.02262386679649353,-0.00295353215187788,0.998741090297699,-0.010339169763028622,-0.04143678769469261,-0.02630879357457161
744.0,0.0,0.0,0.0,0.0,0.0,0.0,-0.01003051083534956,-0.01715278811752796,-0.0035328823141753674,0.9986736178398132,-0.011093600653111935,-0.043254125863313675,-0.025630710646510124
745.0,0.0,0.0,0.0,0.0,0.0,0.0,-0.0056562223471701145,-0.015200701542198658,0.009885802865028381,0.9986200928688049,-0.01259566005319357,-0.044548530131578445,-0.024794168770313263
746.0,0.0,0.0,0.0,0.0,0.0,0.0,-0.013834882527589798,-0.015641747042536736,0.004396661184728146,0.9985570907592773,-0.013723445124924183,-0.04586832597851753,-0.02432076632976532
747.0,0.0,0.0,0.0,0.0,0.0,0.0,-0.01395129133015871,-0.007011387497186661,0.015544532798230648,0.9985136985778809,-0.014156000688672066,-0.046890806406736374,-0.02390655130147934
748.0,0.0,0.0,0.0,0.0,0.0,0.0,-0.012451090849936008,-0.011364180594682693,0.016730953007936478,0.9984734654426575,-0.015183100476861,-0.04739011079072952,-0.023976493626832962
749.0,0.0,0.0,0.0,0.0,0.0,0.0,-0.015690607950091362,-0.01645476743578911,0.011743299663066864,0.9984381794929504,-0.01567245088517666,-0.04796946048736572,-0.02397833578288555
750.0,0.0,0.0,0.0,0.0,0.0,0.0,-0.013898896053433418,-0.013095738366246223,0.011628302745521069,0.9984122514724731,-0.01596628502011299,-0.048373911529779434,-0.024043293669819832
751.0,0.0,0.0,0.0,0.0,0.0,0.0,-0.014753886498510838,-0.012185279279947281,0.012106556445360184,0.9983831644058228,-0.01727260835468769,-0.04855995252728462,-0.023980215191841125
752.0,0.0,0.0,0.0,0.0,0.0,0.0,-0.016806505620479584,-0.012756763957440853,0.006388557143509388,0.9983778595924377,-0.018437564373016357,-0.04843878373503685,-0.02356947399675846
753.0,0.0,0.0,0.0,0.0,0.0,0.0,-0.016017884016036987,-0.003001475939527154,0.015341361053287983,0.9983999133110046,-0.01868705078959465,-0.04824424907565117,-0.022816075012087822
754.0,0.0,0.0,0.0,0.0,0.0,0.0,-0.014645803719758987,-0.008923451416194439,0.008754783309996128,0.9984201192855835,-0.019327783957123756,-0.047979116439819336,-0.021947352215647697
755.0,0.0,0.0,0.0,0.0,0.0,0.0,-0.006971071008592844,-0.007243739441037178,0.0021346600260585546,0.9984311461448669,-0.01952381804585457,-0.04747925326228142,-0.02235681749880314
756.0,0.0,0.0,0.0,0.0,0.0,0.0,-0.012161319144070148,-0.004307678434997797,0.012276820838451385,0.9984700083732605,-0.018664877861738205,-0.046682003885507584,-0.02303437329828739
757.0,0.0,0.0,0.0,0.0,0.0,0.0,-0.012148929759860039,-0.005982240661978722,0.015900151804089546,0.9985046982765198,-0.018662933260202408,-0.04614008218050003,-0.022605590522289276
758.0,0.0,0.0,0.0,0.0,0.0,0.0,-0.001661997172050178,-0.005417039152234793,0.012439588084816933,0.9985663294792175,-0.018199147656559944,-0.0449836328625679,-0.022604316473007202
759.0,0.0,0.0,0.0,0.0,0.0,0.0,0.0022651758044958115,-0.006293980870395899,0.0116816321387887,0.9986194372177124,-0.017375772818922997,-0.043990276753902435,-0.022841257974505424
760.0,0.0,0.0,0.0,0.0,0.0,0.0,0.008763449266552925,-0.007453123573213816,0.0021553800906986,0.9986565709114075,-0.01704717054963112,-0.043370530009269714,-0.02266678214073181
761.0,0.0,0.0,0.0,0.0,0.0,0.0,0.00855195615440607,-0.008479589596390724,-0.0028248410671949387,0.9987016916275024,-0.016017457470297813,-0.04267119988799095,-0.022763404995203018
762.0,0.0,0.0,0.0,0.0,0.0,0.0,0.018171867355704308,-0.010695572942495346,-0.018015937879681587,0.9987196922302246,-0.014721792191267014,-0.04237811267375946,-0.023373765870928764
763.0,0.0,0.0,0.0,0.0,0.0,0.0,0.01451975479722023,-0.010043821297585964,-0.01099923811852932,0.9986934661865234,-0.014445601031184196,-0.04236060008406639,-0.024663496762514114
764.0,0.0,0.0,0.0,0.0,0.0,0.0,0.015625549480319023,-0.006377854850143194,-0.002719493815675378,0.9987070560455322,-0.013787769712507725,-0.042290981858968735,-0.024616476148366928
765.0,0.0,0.0,0.0,0.0,0.0,0.0,0.006009466480463743,-0.0005496968515217304,-0.0020083978306502104,0.998727023601532,-0.013552580960094929,-0.042263418436050415,-0.023971807211637497
766.0,0.0,0.0,0.0,0.0,0.0,0.0,0.004284837748855352,-0.0014070466859266162,-0.0012741945683956146,0.9987621903419495,-0.01377146691083908,-0.04139465466141701,-0.02389528974890709
767.0,0.0,0.0,0.0,0.0,0.0,0.0,0.007588817737996578,-0.0006981560727581382,0.0030919972341507673,0.9988133907318115,-0.013584746047854424,-0.0400654599070549,-0.024127259850502014
768.0,0.0,0.0,0.0,0.0,0.0,0.0,0.014402509666979313,-0.01037521194666624,-0.00744333490729332,0.9988476037979126,-0.013510217890143394,-0.03917883709073067,-0.02421526610851288
769.0,0.0,0.0,0.0,0.0,0.0,0.0,0.014775305055081844,-0.005387555342167616,-0.012589043006300926,0.9988453984260559,-0.012442822568118572,-0.038961444050073624,-0.025203919038176537
770.0,0.0,0.0,0.0,0.0,0.0,0.0,0.005918057635426521,-0.009655962698161602,0.0018133148550987244,0.9988358020782471,-0.011849192902445793,-0.03822843357920647,-0.026933765038847923
771.0,0.0,0.0,0.0,0.0,0.0,0.0,0.008085915818810463,-0.006041438318789005,0.002044553402811289,0.9988356232643127,-0.012247361242771149,-0.037743452936410904,-0.02744552120566368
772.0,0.0,0.0,0.0,0.0,0.0,0.0,0.012658349238336086,-0.003505064407363534,0.003695253049954772,0.9988319277763367,-0.012408927083015442,-0.038212474435567856,-0.026848841458559036
773.0,0.0,0.0,0.0,0.0,0.0,0.0,0.017456090077757835,-0.0035977766383439302,0.0025684672873467207,0.9988176822662354,-0.011858667246997356,-0.03925083205103874,-0.026119574904441833
774.0,0.0,0.0,0.0,0.0,0.0,0.0,0.007917114533483982,-0.0005693151033483446,0.006214913912117481,0.9987509250640869,-0.011114761233329773,-0.04061715304851532,-0.026894744485616684
775.0,0.0,0.0,0.0,0.0,0.0,0.0,0.004166217986494303,-0.0028199516236782074,0.009238858707249165,0.9986928701400757,-0.010176795534789562,-0.04138180986046791,-0.02821948193013668
776.0,0.0,0.0,0.0,0.0,0.0,0.0,0.0007154993945732713,0.004061292856931686,-0.0007446331437677145,0.9986823797225952,-0.009274052456021309,-0.041339147835969925,-0.028964679688215256
777.0,0.0,0.0,0.0,0.0,0.0,0.0,0.001265041995793581,0.007381136529147625,-0.004408728796988726,0.9986941814422607,-0.009216356091201305,-0.040943313390016556,-0.02913472428917885
778.0,0.0,0.0,0.0,0.0,0.0,0.0,0.002547299023717642,0.008153527043759823,-0.012521905824542046,0.99869704246521,-0.009155046194791794,-0.04020146280527115,-0.03007831610739231
779.0,0.0,0.0,0.0,0.0,0.0,0.0,0.013765222392976284,0.0017294976860284805,-0.01987001672387123,0.998692512512207,-0.00808923039585352,-0.03944271057844162,-0.03150101378560066
780.0,0.0,0.0,0.0,0.0,0.0,0.0,0.01054474152624607,-0.005301077850162983,-0.020684290677309036,0.9986897706985474,-0.009138066321611404,-0.03902611881494522,-0.031819745898246765
781.0,0.0,0.0,0.0,0.0,0.0,0.0,0.0016938538756221533,0.0006951767136342824,-0.007190479431301355,0.9987151026725769,-0.010670955292880535,-0.038338836282491684,-0.03137493506073952
782.0,0.0,0.0,0.0,0.0,0.0,0.0,-0.0012336937943473458,0.0061279828660190105,-0.007817653939127922,0.9987398386001587,-0.01103212870657444,-0.03763345628976822,-0.03131679818034172
783.0,0.0,0.0,0.0,0.0,0.0,0.0,0.0035824577789753675,-0.008787203580141068,-0.014412960968911648,0.9987531900405884,-0.011654120869934559,-0.03702308237552643,-0.03139490634202957
784.0,0.0,0.0,0.0,0.0,0.0,0.0,0.007953640073537827,-0.00414637615904212,-0.01530818548053503,0.9987303614616394,-0.011831579729914665,-0.03793627396225929,-0.030961332842707634
785.0,0.0,0.0,0.0,0.0,0.0,0.0,-0.0016700919950380921,0.0029624411836266518,0.012498060241341591,0.998721718788147,-0.010576674714684486,-0.039010144770145416,-0.030360369011759758
786.0,0.0,0.0,0.0,0.0,0.0,0.0,-0.012042481452226639,-0.00093162024859339,0.009020698256790638,0.9986770749092102,-0.008937682956457138,-0.039686743170022964,-0.03146079182624817
787.0,0.0,0.0,0.0,0.0,0.0,0.0,-0.0038613725919276476,-0.0014241553144529462,0.002521829679608345,0.9986331462860107,-0.007337660528719425,-0.04011886939406395,-0.032690033316612244
788.0,0.0,0.0,0.0,0.0,0.0,0.0,-0.0031171480659395456,-0.0028851241804659367,0.0074990298599004745,0.9986344575881958,-0.00632811663672328,-0.03978417068719864,-0.03326703980565071
789.0,0.0,0.0,0.0,0.0,0.0,0.0,-0.00914526917040348,-0.005456914193928242,0.004509375896304846,0.9986290335655212,-0.00581879960373044,-0.03904610872268677,-0.03437585383653641
790.0,0.0,0.0,0.0,0.0,0.0,0.0,0.001341221621260047,-0.00663020508363843,0.0010067353723570704,0.9986415505409241,-0.004444143269211054,-0.038466501981019974,-0.03486787527799606
791.0,0.0,0.0,0.0,0.0,0.0,0.0,-0.003148660296574235,-0.009180874563753605,0.0026675511617213488,0.9986671805381775,-0.002055959077551961,-0.03797556459903717,-0.0348898209631443
792.0,0.0,0.0,0.0,0.0,0.0,0.0,-0.007169047370553017,-0.01459982618689537,-0.0020063610281795263,0.9986987709999084,-0.0007748802891001105,-0.037188705056905746,-0.03488937392830849
793.0,0.0,0.0,0.0,0.0,0.0,0.0,-0.0030574894044548273,-0.014416196383535862,-0.010399569757282734,0.9987220764160156,-0.0005048466264270246,-0.03744402900338173,-0.033939242362976074
794.0,0.0,0.0,0.0,0.0,0.0,0.0,-0.003689895151183009,-0.010288585908710957,-0.005454606842249632,0.9987484812736511,0.00025726595777086914,-0.037773456424474716,-0.03278353437781334
795.0,0.0,0.0,0.0,0.0,0.0,0.0,-0.006937628146260977,-0.007767886854708195,0.0016477933386340737,0.9988000392913818,0.00032441195799037814,-0.0373806394636631,-0.03164355084300041
796.0,0.0,0.0,0.0,0.0,0.0,0.0,-0.009031642228364944,-0.007835259661078453,0.003107646945863962,0.9988723397254944,-0.0008375851321034133,-0.03717352822422981,-0.02952539175748825
797.0,0.0,0.0,0.0,0.0,0.0,0.0,-0.0017834084574133158,-0.010872024111449718,-0.010657068341970444,0.9989134073257446,-0.000985636143013835,-0.037409890443086624,-0.02777693420648575
798.0,0.0,0.0,0.0,0.0,0.0,0.0,-0.006336083635687828,-0.010860961861908436,-0.006005884148180485,0.9989296793937683,-0.0007228152244351804,-0.03771458938717842,-0.026766041293740273
799.0,0.0,0.0,0.0,0.0,0.0,0.0,-0.008677702397108078,-0.006361772306263447,-0.0027450458146631718,0.9989418387413025,-0.0007083875825628638,-0.03817988559603691,-0.025643715634942055
800.0,0.0,0.0,0.0,0.0,0.0,0.0,-0.009972769767045975,-0.004501265939325094,-0.001130962511524558,0.9989417195320129,-0.0006289366283454001,-0.03890995308756828,-0.024523921310901642
801.0,0.0,0.0,0.0,0.0,0.0,0.0,-0.005162043031305075,-0.00500517850741744,-0.003894393565133214,0.9989469051361084,-0.0003551279369276017,-0.03971324861049652,-0.02298084646463394
802.0,0.0,0.0,0.0,0.0,0.0,0.0,-0.0046156346797943115,-0.003177427686750889,-0.0045540486462414265,0.9989549517631531,-0.0002265454677399248,-0.04041072353720665,-0.021357806399464607
803.0,0.0,0.0,0.0,0.0,0.0,0.0,-0.005205446854233742,-0.004842071793973446,-0.008598756976425648,0.998981237411499,-7.15580172254704e-05,-0.040942370891571045,-0.018989453092217445
804.0,0.0,0.0,0.0,0.0,0.0,0.0,-0.0004504206881392747,0.0007714660605415702,-0.0017793037695810199,0.9990192651748657,0.000393098482163623,-0.041588012129068375,-0.015202704817056656
805.0,0.0,0.0,0.0,0.0,0.0,0.0,0.010165923275053501,0.0025225761346518993,0.0017580842832103372,0.99903404712677,0.0007543676183559,-0.042085010558366776,-0.012629504315555096
806.0,0.0,0.0,0.0,0.0,0.0,0.0,-0.00025495910085737705,-0.0006106115179136395,-0.002803692128509283,0.9990458488464355,0.0005848420551046729,-0.042228128761053085,-0.011172293685376644
807.0,0.0,0.0,0.0,0.0,0.0,0.0,-0.0031497350428253412,0.0041766962967813015,0.011006355285644531,0.9990600347518921,0.0014773855218663812,-0.042165350168943405,-0.009950566105544567
808.0,0.0,0.0,0.0,0.0,0.0,0.0,-0.0037247459404170513,0.007324548903852701,0.01851288042962551,0.9991019368171692,0.0014290098333731294,-0.0412723645567894,-0.009497491642832756
809.0,0.0,0.0,0.0,0.0,0.0,0.0,0.0024923558812588453,0.00520705571398139,0.020693156868219376,0.9991652369499207,0.001537472358904779,-0.039796385914087296,-0.00913095660507679
810.0,0.0,0.0,0.0,0.0,0.0,0.0,0.008097058162093163,0.006595974322408438,0.028058648109436035,0.9992331862449646,0.0020859679207205772,-0.03812498226761818,-0.008724945597350597
811.0,0.0,0.0,0.0,0.0,0.0,0.0,0.009341898374259472,0.004908248316496611,0.030723370611667633,0.999285876750946,0.0029623378068208694,-0.036700617522001266,-0.008511047810316086
812.0,0.0,0.0,0.0,0.0,0.0,0.0,0.0026696049608290195,-0.004673302173614502,0.011945337988436222,0.999337911605835,0.00354169518686831,-0.03530231863260269,-0.008080875501036644
813.0,0.0,0.0,0.0,0.0,0.0,0.0,-0.0022188755683600903,-0.0014808280393481255,0.0188805740326643,0.9993973970413208,0.004012112505733967,-0.03344340994954109,-0.008383618667721748
814.0,0.0,0.0,0.0,0.0,0.0,0.0,0.0011003069812431931,0.008958956226706505,0.032354798167943954,0.9994467496871948,0.003926945384591818,-0.0318819135427475,-0.008612806908786297
815.0,0.0,0.0,0.0,0.0,0.0,0.0,0.0030456853564828634,0.009643939323723316,0.026520414277911186,0.9995057582855225,0.003304633777588606,-0.029897674918174744,-0.009163244627416134
816.0,0.0,0.0,0.0,0.0,0.0,0.0,0.0051581719890236855,0.0069192335940897465,0.028501391410827637,0.9995656609535217,0.0019249474862590432,-0.02761291339993477,-0.010127750225365162
817.0,0.0,0.0,0.0,0.0,0.0,0.0,-0.0010480397613719106,0.0010702835861593485,0.003271481255069375,0.9996265769004822,-9.447787306271493e-05,-0.024710554629564285,-0.01168180350214243
818.0,0.0,0.0,0.0,0.0,0.0,0.0,0.0053996741771698,0.00266987644135952,-0.019990991801023483,0.9996509552001953,-0.0018383929273113608,-0.02211298793554306,-0.014341243542730808
819.0,0.0,0.0,0.0,0.0,0.0,0.0,-0.0045511238276958466,0.006057262420654297,-0.010078852996230125,0.9996547102928162,-0.0035288019571453333,-0.019525626674294472,-0.017245739698410034
820.0,0.0,0.0,0.0,0.0,0.0,0.0,-0.0030477624386548996,0.011545109562575817,-0.011063099838793278,0.9996259808540344,-0.003948672208935022,-0.017849545925855637,-0.020340103656053543
821.0,0.0,0.0,0.0,0.0,0.0,0.0,0.002006729831919074,0.004317025188356638,-0.031273286789655685,0.9995713233947754,-0.0047032637521624565,-0.016819264739751816,-0.023500407114624977
822.0,0.0,0.0,0.0,0.0,0.0,0.0,-0.008816058747470379,0.01331051904708147,-0.0005678578745573759,0.9995189309120178,-0.005503595806658268,-0.017325038090348244,-0.025125926360487938
823.0,0.0,0.0,0.0,0.0,0.0,0.0,-0.025028975680470467,0.013020537793636322,0.013974517583847046,0.9995000958442688,-0.0066636428236961365,-0.017023757100105286,-0.02580164559185505
824.0,0.0,0.0,0.0,0.0,0.0,0.0,-0.008257498033344746,0.010911853983998299,-0.02770131081342697,0.9995001554489136,-0.005780332256108522,-0.01714404486119747,-0.025926239788532257
825.0,0.0,0.0,0.0,0.0,0.0,0.0,-0.006664370186626911,0.007737569510936737,-0.0053430115804076195,0.9994981288909912,-0.0027629598043859005,-0.017525343224406242,-0.026244092732667923
826.0,0.0,0.0,0.0,0.0,0.0,0.0,-0.0010563331888988614,0.008850016631186008,-0.009084968827664852,0.9994890689849854,-0.0004552925529424101,-0.01725083962082863,-0.02690727822482586
827.0,0.0,0.0,0.0,0.0,0.0,0.0,0.011988046579062939,0.007472184486687183,-0.013680877164006233,0.9994955658912659,0.0015300809172913432,-0.0159845519810915,-0.027402283623814583
828.0,0.0,0.0,0.0,0.0,0.0,0.0,0.03395026549696922,0.010237756185233593,-0.01661134511232376,0.9995216727256775,0.0034612349700182676,-0.01566549576818943,-0.026437005028128624
829.0,0.0,0.0,0.0,0.0,0.0,0.0,0.0408700630068779,0.006336035206913948,-0.017309503629803658,0.9995526671409607,0.005389006808400154,-0.015098579227924347,-0.02524968795478344
830.0,0.0,0.0,0.0,0.0,0.0,0.0,0.04312402755022049,0.004571074619889259,-0.021808819845318794,0.9995869994163513,0.006392644718289375,-0.014529481530189514,-0.023954933509230614
831.0,0.0,0.0,0.0,0.0,0.0,0.0,0.052492134273052216,0.004865296650677919,-0.022206829860806465,0.9996454119682312,0.006605836097151041,-0.01399518083781004,-0.021676208823919296
832.0,0.0,0.0,0.0,0.0,0.0,0.0,0.05538305640220642,0.002324991161003709,-0.01752607338130474,0.9996927976608276,0.007067098282277584,-0.014383804053068161,-0.018909528851509094
833.0,0.0,0.0,0.0,0.0,0.0,0.0,0.047606904059648514,0.002195484470576048,-0.01006306428462267,0.9997267127037048,0.006921973545104265,-0.015484554693102837,-0.016093673184514046
834.0,0.0,0.0,0.0,0.0,0.0,0.0,0.047886185348033905,0.001081665512174368,-0.012709454633295536,0.9997345209121704,0.007735345978289843,-0.016299115493893623,-0.014334741979837418
