,Position_X,Position_Y,Position_Z,Velocity_X,Velocity_Y,Velocity_Z,Acceleration_X,Acceleration_Y,Acceleration_Z,Quaterion_0,Quaterion_1,Quaterion_2,Quaterion_3
166.0,0.0,0.0,0.0,0.0,0.0,0.0,-0.008976735174655914,-0.016589701175689697,-0.005970710888504982,1.0,-4.336808689942018e-18,-3.469446951953614e-18,-1.3877787807814457e-17
167.0,0.0,0.0,0.0,0.0,0.0,0.0,-0.0019284413428977132,-0.021787434816360474,-0.012265730649232864,0.9999978542327881,0.00040382533916272223,0.001988418400287628,0.00047847977839410305
168.0,0.0,0.0,0.0,0.0,0.0,0.0,0.015749139711260796,-0.05612318590283394,-0.040743954479694366,0.9999729990959167,-0.0028790568467229605,0.00017367879627272487,0.006757981609553099
169.0,0.0,0.0,0.0,0.0,0.0,0.0,0.0673961266875267,-0.04717623069882393,-0.07688266783952713,0.999966561794281,-0.000321403203997761,0.0010847841622307897,0.008099776692688465
170.0,0.0,0.0,0.0,0.0,0.0,0.0,-0.0004180390096735209,0.0004656430392060429,-0.019657529890537262,0.9999573230743408,-0.004254131577908993,-0.00026395072927698493,0.008196461945772171
171.0,0.0,0.0,0.0,0.0,0.0,0.0,-0.018938306719064713,0.003288612002506852,0.03667973354458809,0.9999018907546997,-0.005508177913725376,-0.0036599482409656048,0.012349341996014118
172.0,0.0,0.0,0.0,0.0,0.0,0.0,-0.03098364919424057,0.022795509546995163,0.03692079335451126,0.999888002872467,-0.0036585982888936996,-0.0031869623344391584,0.014158301055431366
173.0,0.0,0.0,0.0,0.0,0.0,0.0,-0.008232937194406986,-0.01853932999074459,0.011078204959630966,0.999845027923584,-0.00486988527700305,-0.004105367697775364,0.01641041412949562
174.0,0.0,0.0,0.0,0.0,0.0,0.0,0.010044001042842865,-0.013614717870950699,-0.007074783090502024,0.9998579025268555,-0.003945034462958574,-0.0026580544654279947,0.016171380877494812
175.0,0.0,0.0,0.0,0.0,0.0,0.0,0.004394100978970528,0.0039050239138305187,-0.0065784333273768425,0.9998775720596313,-0.003868190571665764,-0.0022360377479344606,0.01499400194734335
176.0,0.0,0.0,0.0,0.0,0.0,0.0,0.01611671969294548,0.0032743432093411684,-0.010134030133485794,0.9999092221260071,-0.002768316539004445,-0.0009448633063584566,0.013151097111403942
177.0,0.0,0.0,0.0,0.0,0.0,0.0,0.010511153377592564,0.003937124274671078,-0.012788496911525726,0.9999581575393677,-0.0012538410956040025,0.0013741705333814025,0.008955092169344425
178.0,0.0,0.0,0.0,0.0,0.0,0.0,0.011807112023234367,-0.0025929815601557493,-0.003912981133908033,0.9999846816062927,-0.00043929467210546136,0.0032385122030973434,0.0044649140909314156
179.0,0.0,0.0,0.0,0.0,0.0,0.0,0.006233397871255875,-0.010914756916463375,-0.017770426347851753,0.9999807476997375,0.0005221287719905376,0.004007179755717516,0.004703249782323837
180.0,0.0,0.0,0.0,0.0,0.0,0.0,0.01753704994916916,-0.04457772895693779,-0.014727022498846054,0.9999527335166931,-0.002346448600292206,0.00214708736166358,0.00919106975197792
181.0,0.0,0.0,0.0,0.0,0.0,0.0,0.027740301564335823,-0.02429317682981491,-0.02260981686413288,0.9999662637710571,-0.002132406458258629,0.0023514614440500736,0.0075795031152665615
182.0,0.0,0.0,0.0,0.0,0.0,0.0,-0.0033402694389224052,0.0006270055309869349,0.007938012480735779,0.9999741315841675,-0.003057463327422738,0.0016861992189660668,0.006284748204052448
183.0,0.0,0.0,0.0,0.0,0.0,0.0,-0.002954509574919939,-0.0018933572573587298,0.02203504554927349,0.9999616146087646,-0.0054738824255764484,-0.0006923428154550493,0.0068070897832512856
184.0,0.0,0.0,0.0,0.0,0.0,0.0,-0.013035619631409645,0.022693227976560593,0.024604588747024536,0.9999672770500183,-0.006392353214323521,-0.001551679684780538,0.0047048707492649555
185.0,0.0,0.0,0.0,0.0,0.0,0.0,-0.011501767672598362,0.017454711720347404,0.025365501642227173,0.9999577403068542,-0.007956274785101414,-0.002767588710412383,0.0036871491465717554
186.0,0.0,0.0,0.0,0.0,0.0,0.0,-0.0040618181228637695,0.009162007831037045,0.006649570539593697,0.9999454021453857,-0.0091782221570611,-0.0038129789754748344,0.003229216206818819
187.0,0.0,0.0,0.0,0.0,0.0,0.0,-0.00885562039911747,0.0034274249337613583,0.008550167083740234,0.9999399781227112,-0.009788538329303265,-0.004469673614948988,0.002059378894045949
188.0,0.0,0.0,0.0,0.0,0.0,0.0,-0.009511813521385193,-0.0036088572815060616,0.012572621926665306,0.9999348521232605,-0.010190398432314396,-0.004750208463519812,0.001962376059964299
189.0,0.0,0.0,0.0,0.0,0.0,0.0,-0.006653922609984875,-0.0030452890787273645,0.002875922480598092,0.9999288320541382,-0.010821355506777763,-0.004597109276801348,0.0020180062856525183
190.0,0.0,0.0,0.0,0.0,0.0,0.0,-0.0012103215558454394,-0.009589535184204578,-0.002888493239879608,0.9999251961708069,-0.011369956657290459,-0.004336718004196882,0.0012198250042274594
191.0,0.0,0.0,0.0,0.0,0.0,0.0,0.0012066492345184088,-0.011164886876940727,-0.003385882591828704,0.9999232292175293,-0.011402121745049953,-0.0046641952358186245,0.0013402552576735616
192.0,0.0,0.0,0.0,0.0,0.0,0.0,0.0024872799403965473,-0.009476389735937119,-0.0015747998841106892,0.9999228119850159,-0.011418906971812248,-0.004712696652859449,0.0013225243892520666
193.0,0.0,0.0,0.0,0.0,0.0,0.0,0.0020713848061859608,-0.007044290658086538,0.0039568208158016205,0.9999226331710815,-0.011584056541323662,-0.004395917057991028,0.0011388059938326478
194.0,0.0,0.0,0.0,0.0,0.0,0.0,0.0029802562203258276,-0.002623343374580145,0.007231630850583315,0.9999225735664368,-0.011354755610227585,-0.004739696625620127,0.0018572695553302765
195.0,0.0,0.0,0.0,0.0,0.0,0.0,0.0033575461711734533,-0.0009036376723088324,0.007046038284897804,0.9999242424964905,-0.011166183277964592,-0.0046815890818834305,0.002216973342001438
196.0,0.0,0.0,0.0,0.0,0.0,0.0,0.0032275088597089052,-0.002149985870346427,0.004769038874655962,0.9999202489852905,-0.011489400640130043,-0.00465750228613615,0.002411477267742157
197.0,0.0,0.0,0.0,0.0,0.0,0.0,0.008594735525548458,-0.005723387002944946,-0.0028149757999926805,0.9999206066131592,-0.011323261074721813,-0.004455547779798508,0.003270235378295183
198.0,0.0,0.0,0.0,0.0,0.0,0.0,0.010683438740670681,-0.009922334924340248,-0.0075648752972483635,0.9999193549156189,-0.011422142386436462,-0.004323829431086779,0.0034884747583419085
199.0,0.0,0.0,0.0,0.0,0.0,0.0,0.006504085846245289,-0.01630275696516037,-0.003942494746297598,0.9999162554740906,-0.01184176281094551,-0.004103298764675856,0.0032173532526940107
200.0,0.0,0.0,0.0,0.0,0.0,0.0,0.005048900842666626,-0.019946618005633354,-0.0026432129088789225,0.9999169111251831,-0.011907735839486122,-0.0038379316683858633,0.00311520928516984
201.0,0.0,0.0,0.0,0.0,0.0,0.0,0.00234796735458076,-0.015648430213332176,-0.001443294808268547,0.9999167919158936,-0.011994168162345886,-0.003681337460875511,0.003003641963005066
202.0,0.0,0.0,0.0,0.0,0.0,0.0,-0.0009902752935886383,-0.011193503625690937,0.00735503388568759,0.999920666217804,-0.012177867814898491,-0.002308615716174245,0.0022417691070586443
203.0,0.0,0.0,0.0,0.0,0.0,0.0,0.00017402481171302497,-0.022433336824178696,0.00453533511608839,0.9999292492866516,-0.011448197066783905,-0.001261062454432249,0.0029722838662564754
204.0,0.0,0.0,0.0,0.0,0.0,0.0,0.03959924727678299,-0.10236834734678268,-0.02306186966598034,0.9997919201850891,-0.015498267486691475,-0.002654267242178321,0.012994530610740185
205.0,0.0,0.0,0.0,0.0,0.0,0.0,0.04286294803023338,-0.004259434994310141,-0.009827597066760063,0.9997482299804688,-0.014151833951473236,-0.004250966943800449,0.01688617654144764
206.0,0.0,0.0,0.0,0.0,0.0,0.0,-0.018573559820652008,-0.010964819230139256,0.02360251545906067,0.9998913407325745,-0.01205423939973116,-0.0012475453549996018,0.008390948176383972
207.0,0.0,0.0,0.0,0.0,0.0,0.0,-0.009783715009689331,-0.02181924134492874,0.042047180235385895,0.9997091293334961,-0.018582521006464958,-0.0075524174608290195,0.013389681465923786
208.0,0.0,0.0,0.0,0.0,0.0,0.0,-0.019199203699827194,0.030340014025568962,0.04633640497922897,0.9998192191123962,-0.015247050672769547,-0.004936953540891409,0.010231242515146732
209.0,0.0,0.0,0.0,0.0,0.0,0.0,-0.007293369621038437,0.004221432376652956,0.01871720515191555,0.99986732006073,-0.013786954805254936,-0.0037699637468904257,0.007808416150510311
210.0,0.0,0.0,0.0,0.0,0.0,0.0,0.015640998259186745,0.022494260221719742,0.005110078491270542,0.9998407363891602,-0.014953793957829475,-0.004539983347058296,0.008619464933872223
211.0,0.0,0.0,0.0,0.0,0.0,0.0,0.024396585300564766,0.03164513036608696,-0.004956323187798262,0.9999366998672485,-0.010847799479961395,-0.0007286301115527749,0.0028948551043868065
212.0,0.0,0.0,0.0,0.0,0.0,0.0,0.01560731790959835,0.010791719891130924,-0.013664104975759983,0.9999604821205139,-0.008598157204687595,0.0012744879350066185,-0.0018616400193423033
213.0,0.0,0.0,0.0,0.0,0.0,0.0,0.01801593415439129,-0.028462259098887444,-0.013390381820499897,0.999930739402771,-0.01119475532323122,-0.0007509949500672519,0.003551016328856349
214.0,0.0,0.0,0.0,0.0,0.0,0.0,0.029470233246684074,-0.0009943586774170399,-0.019547417759895325,0.9999299645423889,-0.009333105757832527,-0.0012903809547424316,0.007160878274589777
215.0,0.0,0.0,0.0,0.0,0.0,0.0,0.018745478242635727,0.007358999457210302,-0.008565125055611134,0.999945878982544,-0.009311401285231113,-0.001726026413962245,0.004307822789996862
216.0,0.0,0.0,0.0,0.0,0.0,0.0,0.015224158763885498,-0.012129082344472408,-0.01164704654365778,0.9999340772628784,-0.010372721590101719,-0.003093182574957609,0.003830146277323365
217.0,0.0,0.0,0.0,0.0,0.0,0.0,0.0030460061971098185,0.003950216341763735,0.007939046248793602,0.9999133348464966,-0.011502867564558983,-0.0043867602944374084,0.00466350931674242
218.0,0.0,0.0,0.0,0.0,0.0,0.0,-0.0028971817810088396,-0.0025938409380614758,0.015131182968616486,0.9999057054519653,-0.012577211484313011,-0.004522266797721386,0.0031518754549324512
219.0,0.0,0.0,0.0,0.0,0.0,0.0,0.00044874081504531205,-0.011614945717155933,0.002397326286882162,0.9998645782470703,-0.015507862903177738,-0.005180764943361282,0.0018993482226505876
220.0,0.0,0.0,0.0,0.0,0.0,0.0,0.00366357178427279,-0.010409009642899036,-0.00014121847925707698,0.9998267292976379,-0.017953848466277122,-0.004909242037683725,0.0001780170714482665
221.0,0.0,0.0,0.0,0.0,0.0,0.0,0.002887595444917679,-0.008893503807485104,0.0023290396202355623,0.9997875690460205,-0.019991019740700722,-0.004983820486813784,-0.0005516551900655031
222.0,0.0,0.0,0.0,0.0,0.0,0.0,0.0013711751671507955,-0.0008907769224606454,0.007834551855921745,0.999748170375824,-0.021699972450733185,-0.0056111691519618034,-0.0010962230153381824
223.0,0.0,0.0,0.0,0.0,0.0,0.0,0.0004933537566103041,0.007963188923895359,0.01337621733546257,0.9997214674949646,-0.02291378378868103,-0.005369651596993208,-0.0017798905028030276
224.0,0.0,0.0,0.0,0.0,0.0,0.0,0.0058750370517373085,0.00039337968337349594,0.004056938923895359,0.999718189239502,-0.02323412336409092,-0.004570238292217255,-0.0016707306494936347
225.0,0.0,0.0,0.0,0.0,0.0,0.0,0.014645726419985294,-0.009666680358350277,-0.009274156764149666,0.9997099041938782,-0.023576002568006516,-0.004882275126874447,-0.0007662164862267673
226.0,0.0,0.0,0.0,0.0,0.0,0.0,0.009710590355098248,-0.012121612206101418,-0.007263525389134884,0.999705970287323,-0.02365570142865181,-0.005310888402163982,-0.0004899921477772295
227.0,0.0,0.0,0.0,0.0,0.0,0.0,0.003006007056683302,-0.015855101868510246,0.002943812170997262,0.9996934533119202,-0.024115880951285362,-0.005557315424084663,-0.0007294461247511208
228.0,0.0,0.0,0.0,0.0,0.0,0.0,-0.0008640664163976908,-0.012702098116278648,0.010477663017809391,0.9996815919876099,-0.02451423369348049,-0.005974278319627047,-0.00044136325595900416
229.0,0.0,0.0,0.0,0.0,0.0,0.0,0.001426216564141214,-0.011782861314713955,0.0068904985673725605,0.9996830224990845,-0.02450174279510975,-0.0057934424839913845,8.549773338017985e-05
230.0,0.0,0.0,0.0,0.0,0.0,0.0,0.001820218050852418,-0.013531975448131561,0.006754481699317694,0.9996813535690308,-0.02451213076710701,-0.006033981218934059,-0.00016891327686607838
231.0,0.0,0.0,0.0,0.0,0.0,0.0,0.002074922900646925,-0.013200773857533932,0.008180413395166397,0.9996916651725769,-0.02390976808965206,-0.006697396282106638,0.00034313261858187616
232.0,0.0,0.0,0.0,0.0,0.0,0.0,-0.0005519245169125497,-0.007456062361598015,0.014593188650906086,0.999704122543335,-0.023119373247027397,-0.007347230799496174,0.001784379594027996
233.0,0.0,0.0,0.0,0.0,0.0,0.0,-0.006742173805832863,0.00649231905117631,0.026372041553258896,0.9997194409370422,-0.021853094920516014,-0.008249952457845211,0.003923293203115463
234.0,0.0,0.0,0.0,0.0,0.0,0.0,-0.012315399944782257,0.018292024731636047,0.03600262477993965,0.9997370839118958,-0.020268453285098076,-0.00828917883336544,0.00679759681224823
235.0,0.0,0.0,0.0,0.0,0.0,0.0,-0.005411603953689337,0.006060905754566193,0.02974935621023178,0.999777615070343,-0.018550628796219826,-0.00652278121560812,0.00762278214097023
236.0,0.0,0.0,0.0,0.0,0.0,0.0,0.004011954180896282,-0.044684428721666336,-0.009414435364305973,0.9997487664222717,-0.018096312880516052,-0.006642236839979887,0.011438265442848206
237.0,0.0,0.0,0.0,0.0,0.0,0.0,0.07536628097295761,-0.10881232470273972,-0.08239702880382538,0.9995137453079224,-0.0210304856300354,-0.010913930833339691,0.020270174369215965
238.0,0.0,0.0,0.0,0.0,0.0,0.0,0.012917333282530308,-0.00046114958240650594,-0.024347469210624695,0.9995605945587158,-0.018920108675956726,-0.011660917662084103,0.01961703412234783
239.0,0.0,0.0,0.0,0.0,0.0,0.0,-0.022539885714650154,-0.0139663927257061,0.030721116811037064,0.9994980692863464,-0.020669549703598022,-0.01442535687237978,0.019195085391402245
240.0,0.0,0.0,0.0,0.0,0.0,0.0,-0.007962431758642197,-0.004392711911350489,0.02159219980239868,0.9994902610778809,-0.019960232079029083,-0.014635731466114521,0.020166363567113876
241.0,0.0,0.0,0.0,0.0,0.0,0.0,-0.01107074599713087,-0.02466815896332264,-0.006555856671184301,0.9994844794273376,-0.020483242347836494,-0.015308775007724762,0.019411543384194374
242.0,0.0,0.0,0.0,0.0,0.0,0.0,0.009447801858186722,-0.011693893000483513,0.0023382524959743023,0.9994767904281616,-0.021102355793118477,-0.01613832451403141,0.018450263887643814
243.0,0.0,0.0,0.0,0.0,0.0,0.0,-0.00043649415601976216,0.0030044340528547764,0.0008747813408263028,0.9995729923248291,-0.019947106018662453,-0.015121206641197205,0.015077105723321438
244.0,0.0,0.0,0.0,0.0,0.0,0.0,0.0053323195315897465,-0.012818458490073681,-0.007356420159339905,0.9996024370193481,-0.01987895369529724,-0.014869286678731441,0.013367933221161366
245.0,0.0,0.0,0.0,0.0,0.0,0.0,0.002243477152660489,-0.00712845753878355,-0.002176679205149412,0.9996533393859863,-0.01896696723997593,-0.0139086889103055,0.011834999546408653
246.0,0.0,0.0,0.0,0.0,0.0,0.0,0.001722642919048667,-0.008472559973597527,0.003693440929055214,0.9996821284294128,-0.01814332976937294,-0.013820507563650608,0.010748088359832764
247.0,0.0,0.0,0.0,0.0,0.0,0.0,0.006406992208212614,-0.013870815746486187,-0.0023636636324226856,0.9996830224990845,-0.017696015536785126,-0.01414838433265686,0.010976389050483704
248.0,0.0,0.0,0.0,0.0,0.0,0.0,0.005968914367258549,-0.016486581414937973,-0.006410286296159029,0.9996815323829651,-0.01781637966632843,-0.01437350083142519,0.010622325353324413
249.0,0.0,0.0,0.0,0.0,0.0,0.0,0.0031485736835747957,-0.012476584874093533,0.003534911433234811,0.9996845722198486,-0.017932018265128136,-0.014261774718761444,0.01028863899409771
250.0,0.0,0.0,0.0,0.0,0.0,0.0,0.009302902035415173,-0.00436334079131484,-0.0014773065922781825,0.9997060298919678,-0.01772673800587654,-0.013993751257658005,0.008824596181511879
251.0,0.0,0.0,0.0,0.0,0.0,0.0,0.016210170462727547,-0.002201779279857874,-0.011767998337745667,0.999739944934845,-0.017583396285772324,-0.013360030017793179,0.005700405687093735
252.0,0.0,0.0,0.0,0.0,0.0,0.0,0.015369012020528316,-0.0022198052611202,-0.007845254614949226,0.999746561050415,-0.018083758652210236,-0.01273541059345007,0.004212731961160898
253.0,0.0,0.0,0.0,0.0,0.0,0.0,0.024028973653912544,-0.004141271114349365,-0.012834330089390278,0.9996984004974365,-0.020038750022649765,-0.013654820621013641,0.003887549275532365
254.0,0.0,0.0,0.0,0.0,0.0,0.0,0.017811544239521027,0.003041160525754094,-0.0039334953762590885,0.9997139573097229,-0.019987396895885468,-0.01300947554409504,0.0018286369740962982
255.0,0.0,0.0,0.0,0.0,0.0,0.0,0.011628277599811554,0.00929185375571251,0.006242216564714909,0.999687135219574,-0.021209262311458588,-0.013233868405222893,0.0008811092702671885
256.0,0.0,0.0,0.0,0.0,0.0,0.0,0.014874197542667389,0.008928647264838219,0.0006502402247861028,0.999645471572876,-0.02294733002781868,-0.013454202562570572,-0.001191595452837646
257.0,0.0,0.0,0.0,0.0,0.0,0.0,0.0192117840051651,0.0014317635213956237,-0.00969240628182888,0.9995853900909424,-0.024937529116868973,-0.013887671753764153,-0.0037859997246414423
258.0,0.0,0.0,0.0,0.0,0.0,0.0,0.016119172796607018,-0.0015614486765116453,-0.011158573441207409,0.9994902014732361,-0.027441296726465225,-0.0152721693739295,-0.0057418919168412685
259.0,0.0,0.0,0.0,0.0,0.0,0.0,0.009325459599494934,0.00812171958386898,0.001545590814203024,0.9993611574172974,-0.03020692989230156,-0.01750829629600048,-0.007632663939148188
260.0,0.0,0.0,0.0,0.0,0.0,0.0,-7.586542778881267e-05,0.018716219812631607,0.019157908856868744,0.9992516040802002,-0.03232927992939949,-0.018600592389702797,-0.010255161672830582
261.0,0.0,0.0,0.0,0.0,0.0,0.0,-0.0029457365162670612,0.013430144637823105,0.026591423898935318,0.9991744160652161,-0.03370464965701103,-0.018615232780575752,-0.012960080057382584
262.0,0.0,0.0,0.0,0.0,0.0,0.0,0.002672230824828148,-0.0008636482525616884,0.013542979024350643,0.9991180300712585,-0.03479047864675522,-0.01882612518966198,-0.014087874442338943
263.0,0.0,0.0,0.0,0.0,0.0,0.0,0.00832813885062933,-0.008691074326634407,0.00048183149192482233,0.99907386302948,-0.03549931198358536,-0.018813481554389,-0.015405084006488323
264.0,0.0,0.0,0.0,0.0,0.0,0.0,0.011752685531973839,-0.011621878482401371,-0.0038296161219477654,0.9990342855453491,-0.03599623590707779,-0.01868510991334915,-0.016903091222047806
265.0,0.0,0.0,0.0,0.0,0.0,0.0,0.010955391451716423,-0.010139402002096176,-0.006261585280299187,0.9989655017852783,-0.03702965006232262,-0.018912186846137047,-0.018413271754980087
266.0,0.0,0.0,0.0,0.0,0.0,0.0,0.015055890195071697,-0.012758493423461914,-0.010230397805571556,0.9988523721694946,-0.03862645849585533,-0.01957184076309204,-0.020466184243559837
267.0,0.0,0.0,0.0,0.0,0.0,0.0,0.014389843679964542,-0.010751510970294476,-0.014436224475502968,0.9987419247627258,-0.040199726819992065,-0.019917448982596397,-0.02239888533949852
268.0,0.0,0.0,0.0,0.0,0.0,0.0,0.01272228267043829,-0.005144177936017513,-0.00989876501262188,0.9986463785171509,-0.041335638612508774,-0.02068478614091873,-0.023852290585637093
269.0,0.0,0.0,0.0,0.0,0.0,0.0,0.004564169328659773,0.00137132010422647,0.0030939362477511168,0.9985448122024536,-0.04251529648900032,-0.0214073546230793,-0.025341568514704704
270.0,0.0,0.0,0.0,0.0,0.0,0.0,0.005855604074895382,0.007103255484253168,0.002367713488638401,0.9984807372093201,-0.04355788975954056,-0.022036734968423843,-0.02555736154317856
271.0,0.0,0.0,0.0,0.0,0.0,0.0,0.0032327037770301104,0.016022400930523872,0.011003168299794197,0.9985411763191223,-0.04307515546679497,-0.021980641409754753,-0.02402038313448429
272.0,0.0,0.0,0.0,0.0,0.0,0.0,-0.0005882585537619889,0.02283914014697075,0.023550929501652718,0.9986125230789185,-0.04242981970310211,-0.02156880684196949,-0.02252829447388649
273.0,0.0,0.0,0.0,0.0,0.0,0.0,0.004960323683917522,0.01514372043311596,0.019533703103661537,0.9986913800239563,-0.041432734578847885,-0.02123156003654003,-0.021170001477003098
274.0,0.0,0.0,0.0,0.0,0.0,0.0,0.006323020439594984,0.00862027332186699,0.01086751464754343,0.9987624287605286,-0.04080649092793465,-0.02051272802054882,-0.019690614193677902
275.0,0.0,0.0,0.0,0.0,0.0,0.0,0.01396962534636259,0.023270923644304276,-0.004070647060871124,0.9988461136817932,-0.040659911930561066,-0.019205229356884956,-0.016864970326423645
276.0,0.0,0.0,0.0,0.0,0.0,0.0,0.015818938612937927,-0.0006304518319666386,0.024066628888249397,0.9989768862724304,-0.03986546769738197,-0.016841132193803787,-0.01313074678182602
277.0,0.0,0.0,0.0,0.0,0.0,0.0,0.009724551811814308,-0.02830429933965206,0.013982869684696198,0.999011218547821,-0.040049050003290176,-0.015408932231366634,-0.011630656197667122
278.0,0.0,0.0,0.0,0.0,0.0,0.0,0.014726273715496063,-0.030381206423044205,0.0008775904425419867,0.9990005493164062,-0.039938267320394516,-0.015802640467882156,-0.012373720295727253
279.0,0.0,0.0,0.0,0.0,0.0,0.0,0.017211947590112686,-0.002990792505443096,-0.01797991245985031,0.9989790916442871,-0.03967168927192688,-0.01717202737927437,-0.013111918233335018
280.0,0.0,0.0,0.0,0.0,0.0,0.0,0.013376249931752682,0.004633412696421146,-0.013023299165070057,0.9989793300628662,-0.03948155418038368,-0.01757635362446308,-0.013138970360159874
281.0,0.0,0.0,0.0,0.0,0.0,0.0,0.008848870173096657,-0.0016906678210943937,0.0033729111310094595,0.9989696741104126,-0.039741601794958115,-0.017368057742714882,-0.013362533412873745
282.0,0.0,0.0,0.0,0.0,0.0,0.0,0.00871781911700964,-0.004726069048047066,0.0003254498296882957,0.9989619851112366,-0.03988952562212944,-0.017432572320103645,-0.013414962217211723
283.0,0.0,0.0,0.0,0.0,0.0,0.0,0.007591695990413427,-0.006290584336966276,0.00209435704164207,0.9989904761314392,-0.03964083269238472,-0.016645150259137154,-0.013014843687415123
284.0,0.0,0.0,0.0,0.0,0.0,0.0,0.005784757435321808,-0.006499993149191141,0.006217834539711475,0.9990260004997253,-0.03928527981042862,-0.01538296602666378,-0.012920480221509933
285.0,0.0,0.0,0.0,0.0,0.0,0.0,0.006254503969103098,-0.008486694656312466,0.006147353444248438,0.9990729093551636,-0.03863954544067383,-0.014179004356265068,-0.01262320764362812
286.0,0.0,0.0,0.0,0.0,0.0,0.0,0.0105471545830369,-0.008446184918284416,0.004256724379956722,0.9991334080696106,-0.037827018648386,-0.013112766668200493,-0.011384008452296257
287.0,0.0,0.0,0.0,0.0,0.0,0.0,0.012762919999659061,-0.003658929606899619,0.0014091479824855924,0.9991715550422668,-0.037166789174079895,-0.012404555454850197,-0.010997576639056206
288.0,0.0,0.0,0.0,0.0,0.0,0.0,0.011750207282602787,0.00024057712289504707,0.00442329328507185,0.9992180466651917,-0.03625071793794632,-0.011728101409971714,-0.0105663500726223
289.0,0.0,0.0,0.0,0.0,0.0,0.0,0.008882245980203152,0.004350593779236078,0.01211518794298172,0.9992948174476624,-0.03473291173577309,-0.010699846781790257,-0.009428996592760086
290.0,0.0,0.0,0.0,0.0,0.0,0.0,0.01173475943505764,0.0025523246731609106,0.008436767384409904,0.9993667006492615,-0.033318351954221725,-0.009271307848393917,-0.008376418612897396
291.0,0.0,0.0,0.0,0.0,0.0,0.0,0.018935635685920715,-0.006125607993453741,-0.003214390017092228,0.9994394183158875,-0.03175296261906624,-0.00813580397516489,-0.00682326965034008
292.0,0.0,0.0,0.0,0.0,0.0,0.0,0.015466279350221157,-0.005941592622548342,0.00032663351157680154,0.9995009899139404,-0.030413543805480003,-0.00715247355401516,-0.004641373176127672
293.0,0.0,0.0,0.0,0.0,0.0,0.0,0.01211586594581604,-0.005523688159883022,0.008438412100076675,0.9995697736740112,-0.0285066906362772,-0.006470512133091688,-0.002393570728600025
294.0,0.0,0.0,0.0,0.0,0.0,0.0,0.007405312731862068,-0.003864898346364498,0.007037211209535599,0.9996351599693298,-0.02635248750448227,-0.005836350843310356,0.001004217192530632
295.0,0.0,0.0,0.0,0.0,0.0,0.0,0.0030064748134464025,-0.007146293297410011,0.01699184440076351,0.9996818900108337,-0.024281514808535576,-0.0049296473152935505,0.004712706431746483
296.0,0.0,0.0,0.0,0.0,0.0,0.0,0.0017828044947236776,-0.0029693315736949444,0.011236063204705715,0.9997153282165527,-0.021874886006116867,-0.0044450839050114155,0.008431562222540379
297.0,0.0,0.0,0.0,0.0,0.0,0.0,1.139978485298343e-05,0.0028822068125009537,0.015647798776626587,0.9997308850288391,-0.018977493047714233,-0.0031430248636752367,0.012962187640368938
298.0,0.0,0.0,0.0,0.0,0.0,0.0,0.005846060812473297,-0.004645256325602531,0.011555585078895092,0.9997334480285645,-0.015415769070386887,-0.0011914914939552546,0.017141982913017273
299.0,0.0,0.0,0.0,0.0,0.0,0.0,0.011883765459060669,-0.01263814140111208,-0.0003474032855592668,0.9997097849845886,-0.011653706431388855,0.0010771416127681732,0.021058067679405212
300.0,0.0,0.0,0.0,0.0,0.0,0.0,0.023017873987555504,-0.023969393223524094,-0.005860433913767338,0.999657154083252,-0.00839373841881752,0.0029211912769824266,0.024633051827549934
301.0,0.0,0.0,0.0,0.0,0.0,0.0,0.03182724863290787,-0.033260833472013474,-0.01445450633764267,0.9995886087417603,-0.005205302033573389,0.004535011015832424,0.02783687226474285
302.0,0.0,0.0,0.0,0.0,0.0,0.0,0.03138263523578644,-0.03750773146748543,-0.012369051575660706,0.999528706073761,-0.0027123477775603533,0.005132623016834259,0.030145468190312386
303.0,0.0,0.0,0.0,0.0,0.0,0.0,0.022891856729984283,-0.035177092999219894,-0.0037323664873838425,0.999492883682251,-0.001051987404935062,0.005040117539465427,0.0314263291656971
304.0,0.0,0.0,0.0,0.0,0.0,0.0,0.01098752859979868,-0.02995607815682888,0.005677778273820877,0.9994745850563049,-6.717255018884316e-05,0.00371217611245811,0.032199300825595856
305.0,0.0,0.0,0.0,0.0,0.0,0.0,-0.0012097986182197928,-0.015207701362669468,0.01989622414112091,0.9994232654571533,0.0005716930027119815,0.001623418997041881,0.03391779959201813
306.0,0.0,0.0,0.0,0.0,0.0,0.0,-0.008183988742530346,-0.00558967562392354,0.025650328025221825,0.9993717074394226,0.001070502563379705,-0.00042432505870237947,0.03542834892868996
307.0,0.0,0.0,0.0,0.0,0.0,0.0,-0.00678326515480876,-0.006156995426863432,0.02047731727361679,0.9993425011634827,0.0008736231829971075,-0.0023193624801933765,0.03617226332426071
308.0,0.0,0.0,0.0,0.0,0.0,0.0,-0.009120054543018341,-0.006936673540621996,0.015791315585374832,0.9993363618850708,0.000567964103538543,-0.004287624731659889,0.03616763651371002
309.0,0.0,0.0,0.0,0.0,0.0,0.0,-0.004894419573247433,-0.010915281251072884,0.0036601645406335592,0.9993495941162109,0.0005046563455834985,-0.005568788852542639,0.035623710602521896
310.0,0.0,0.0,0.0,0.0,0.0,0.0,-0.005712714046239853,-0.01476647611707449,0.0048148613423109055,0.9993848204612732,0.00011678573355311528,-0.006647417787462473,0.034436918795108795
311.0,0.0,0.0,0.0,0.0,0.0,0.0,-0.004654663614928722,-0.01593484915792942,-0.00643927650526166,0.9993963241577148,-0.0007988612051121891,-0.008833767846226692,0.033590298146009445
312.0,0.0,0.0,0.0,0.0,0.0,0.0,-0.004537499044090509,-0.01629187911748886,-0.009121284820139408,0.9993972182273865,-0.0016155097400769591,-0.010932203382253647,0.03291090205311775
313.0,0.0,0.0,0.0,0.0,0.0,0.0,-0.00410048570483923,-0.013048955239355564,-0.004955454729497433,0.9993943572044373,-0.0020577549003064632,-0.013083748519420624,0.032182496041059494
314.0,0.0,0.0,0.0,0.0,0.0,0.0,-0.00799749419093132,-0.006664525717496872,-0.008076193742454052,0.9993732571601868,-0.0020356334280222654,-0.014593231491744518,0.03218873217701912
315.0,0.0,0.0,0.0,0.0,0.0,0.0,0.003504430642351508,-0.003266406012699008,-0.010112620890140533,0.9993556141853333,-0.002652531024068594,-0.016296546906232834,0.03187291696667671
316.0,0.0,0.0,0.0,0.0,0.0,0.0,0.0021315542981028557,0.0011395562905818224,-0.011617228388786316,0.9993672966957092,-0.00362632074393332,-0.017192548140883446,0.03092370554804802
317.0,0.0,0.0,0.0,0.0,0.0,0.0,0.00865710899233818,-0.002838720567524433,-0.016497358679771423,0.9993497133255005,-0.004127752035856247,-0.017988361418247223,0.030973395332694054
318.0,0.0,0.0,0.0,0.0,0.0,0.0,0.011879757978022099,-0.006269647739827633,-0.018067965283989906,0.9993435144424438,-0.00489200372248888,-0.01920890435576439,0.030325869098305702
319.0,0.0,0.0,0.0,0.0,0.0,0.0,0.0059843240305781364,-0.0036717557813972235,-0.00918664038181305,0.9993504881858826,-0.005963390693068504,-0.02059328369796276,0.02896997332572937
320.0,0.0,0.0,0.0,0.0,0.0,0.0,0.003398309228941798,-0.0005666744546033442,-0.0034975421149283648,0.9993485808372498,-0.007219343911856413,-0.02196325920522213,0.027715099975466728
321.0,0.0,0.0,0.0,0.0,0.0,0.0,0.0025695685762912035,0.0012282573152333498,-0.0002911299525294453,0.999341607093811,-0.008386598899960518,-0.023636464029550552,0.026215754449367523
322.0,0.0,0.0,0.0,0.0,0.0,0.0,0.004515465348958969,0.004584373906254768,0.002460356568917632,0.9992856383323669,-0.009272684343159199,-0.025961045175790787,0.025856168940663338
323.0,0.0,0.0,0.0,0.0,0.0,0.0,0.0015620171325281262,0.009974394924938679,0.009144243784248829,0.9992156028747559,-0.009525318630039692,-0.028201386332511902,0.02611842192709446
324.0,0.0,0.0,0.0,0.0,0.0,0.0,-0.0028453192207962275,0.010439923033118248,0.013224893249571323,0.9991482496261597,-0.009989066980779171,-0.030376562848687172,0.026083869859576225
325.0,0.0,0.0,0.0,0.0,0.0,0.0,-0.002223414834588766,0.009792044758796692,0.009643075987696648,0.9990763664245605,-0.010585433803498745,-0.0322306789457798,0.026371987536549568
326.0,0.0,0.0,0.0,0.0,0.0,0.0,0.007828151807188988,0.007967031560838223,-0.0021479972638189793,0.998995304107666,-0.010908810421824455,-0.03428090736269951,0.02672589384019375
327.0,0.0,0.0,0.0,0.0,0.0,0.0,0.007182531524449587,0.0025893528945744038,-0.004875853657722473,0.9988855719566345,-0.01099206693470478,-0.03672796115279198,0.027533845975995064
328.0,0.0,0.0,0.0,0.0,0.0,0.0,-0.005899192299693823,0.006229068152606487,0.0094557860866189,0.998733639717102,-0.010774693451821804,-0.03982403129339218,0.02880050614476204
329.0,0.0,0.0,0.0,0.0,0.0,0.0,0.008753770031034946,0.011453479528427124,-0.009318467229604721,0.9985529780387878,-0.010306200012564659,-0.043341394513845444,0.030118606984615326
330.0,0.0,0.0,0.0,0.0,0.0,0.0,0.004274415317922831,0.009846873581409454,-0.006586021743714809,0.9984375238418579,-0.009676680900156498,-0.046017903834581375,0.03018745221197605
331.0,0.0,0.0,0.0,0.0,0.0,0.0,-0.01794305630028248,0.0051158731803298,0.004880548920482397,0.9981969594955444,-0.009553567506372929,-0.049510084092617035,0.032563477754592896
332.0,0.0,0.0,0.0,0.0,0.0,0.0,-0.008099052123725414,0.007037989795207977,-0.007616215385496616,0.9978653192520142,-0.009944604709744453,-0.052886735647916794,0.03699905052781105
333.0,0.0,0.0,0.0,0.0,0.0,0.0,0.004321808461099863,0.0003822913859039545,-0.03199177607893944,0.9974690675735474,-0.012281609699130058,-0.05690114200115204,0.040829163044691086
334.0,0.0,0.0,0.0,0.0,0.0,0.0,-0.013636593706905842,0.01955956220626831,-0.007498062681406736,0.9971421957015991,-0.013224415481090546,-0.05934698507189751,0.044838301837444305
335.0,0.0,0.0,0.0,0.0,0.0,0.0,-0.009972332045435905,0.01565876044332981,-0.008425707928836346,0.9969674944877625,-0.014339244924485683,-0.06034538894891739,0.046991974115371704
336.0,0.0,0.0,0.0,0.0,0.0,0.0,0.000631456496194005,0.0033723413944244385,-0.012785675935447216,0.9968458414077759,-0.014830597676336765,-0.061370380222797394,0.04808362200856209
337.0,0.0,0.0,0.0,0.0,0.0,0.0,-0.004714589100331068,0.015663303434848785,-0.011004663072526455,0.9967910647392273,-0.015184789896011353,-0.06163040176033974,0.048774126917123795
338.0,0.0,0.0,0.0,0.0,0.0,0.0,-0.013628784567117691,0.014464815147221088,0.0032083820551633835,0.9968476891517639,-0.015683546662330627,-0.05993814393877983,0.04956047981977463
339.0,0.0,0.0,0.0,0.0,0.0,0.0,-0.007349269464612007,0.008762551471590996,0.0017615891993045807,0.9968861937522888,-0.016463978216052055,-0.05811496078968048,0.05068453773856163
340.0,0.0,0.0,0.0,0.0,0.0,0.0,-0.011266062967479229,0.01432827115058899,0.007960389368236065,0.9968764781951904,-0.016865985468029976,-0.055980339646339417,0.05309458076953888
341.0,0.0,0.0,0.0,0.0,0.0,0.0,-0.006505430210381746,0.024307768791913986,0.012033108621835709,0.9968971610069275,-0.016587279736995697,-0.052712004631757736,0.05605776235461235
342.0,0.0,0.0,0.0,0.0,0.0,0.0,0.003562839236110449,0.01673823967576027,0.005553128197789192,0.9969907402992249,-0.017025357112288475,-0.04985657334327698,0.05686505138874054
343.0,0.0,0.0,0.0,0.0,0.0,0.0,0.004954081494361162,0.03058759868144989,0.0082089276984334,0.997085690498352,-0.017774712294340134,-0.047992680221796036,0.05658010020852089
344.0,0.0,0.0,0.0,0.0,0.0,0.0,-0.02333606407046318,0.04836514964699745,0.02942119538784027,0.9983734488487244,-0.02238418161869049,-0.040516287088394165,0.03328434005379677
345.0,0.0,0.0,0.0,0.0,0.0,0.0,0.022969933226704597,-0.05029198154807091,-0.019654568284749985,0.9989809393882751,-0.026324346661567688,-0.03445352986454964,0.012524151243269444
346.0,0.0,0.0,0.0,0.0,0.0,0.0,0.02456824854016304,-0.062228310853242874,-0.015426570549607277,0.9989045262336731,-0.02687760256230831,-0.03184480220079422,0.02129654586315155
347.0,0.0,0.0,0.0,0.0,0.0,0.0,0.019691305235028267,-0.0423920564353466,-0.01911148428916931,0.9982724189758301,-0.022132255136966705,-0.03040752187371254,0.04514370858669281
348.0,0.0,0.0,0.0,0.0,0.0,0.0,0.005217870697379112,0.017430298030376434,0.00790158100426197,0.998233437538147,-0.019212936982512474,-0.02898450195789337,0.04817262291908264
349.0,0.0,0.0,0.0,0.0,0.0,0.0,0.006114646326750517,0.007875876501202583,0.017872445285320282,0.9992010593414307,-0.018235355615615845,-0.023233599960803986,0.026926709339022636
350.0,0.0,0.0,0.0,0.0,0.0,0.0,0.018623271957039833,-0.05135824903845787,0.013110806234180927,0.9996496438980103,-0.013599514029920101,-0.016788771376013756,0.01528212707489729
351.0,0.0,0.0,0.0,0.0,0.0,0.0,-0.0029754675924777985,-0.03003382496535778,0.018986200913786888,0.999599814414978,-0.006586654111742973,-0.011078078299760818,0.025178909301757812
352.0,0.0,0.0,0.0,0.0,0.0,0.0,0.016844918951392174,-0.019876576960086823,0.02271631360054016,0.999422013759613,-0.001445709029212594,-0.006881974637508392,0.03326015919446945
353.0,0.0,0.0,0.0,0.0,0.0,0.0,0.024276142939925194,-0.00884644128382206,0.018343180418014526,0.999488890171051,0.004951647482812405,-0.00018208223627880216,0.03158346563577652
354.0,0.0,0.0,0.0,0.0,0.0,0.0,0.0407763309776783,-0.007651087362319231,0.014287798665463924,0.9996359348297119,0.010794408619403839,0.0071043046191334724,0.02368588000535965
355.0,0.0,0.0,0.0,0.0,0.0,0.0,0.03222101926803589,-0.036979708820581436,-0.0022506900131702423,0.9996939301490784,0.014943131245672703,0.014027602039277554,0.01385358814150095
356.0,0.0,0.0,0.0,0.0,0.0,0.0,0.06336494535207748,-0.06471670418977737,-0.04920170083642006,0.9996393322944641,0.018270758911967278,0.014911414124071598,0.012846706435084343
357.0,0.0,0.0,0.0,0.0,0.0,0.0,0.06549543142318726,-0.07701676338911057,-0.057425905019044876,0.9995630979537964,0.01889098808169365,0.011408733204007149,0.019665976986289024
358.0,0.0,0.0,0.0,0.0,0.0,0.0,0.04019733518362045,-0.05799529701471329,-0.02500147745013237,0.9995018243789673,0.02068685181438923,0.004957931116223335,0.023314720019698143
359.0,0.0,0.0,0.0,0.0,0.0,0.0,0.0034917055163532495,0.0038178616669028997,-0.02295464091002941,0.9995470643043518,0.022169295698404312,-0.00047180402907542884,0.020347727462649345
360.0,0.0,0.0,0.0,0.0,0.0,0.0,0.017098261043429375,-0.03433594852685928,-0.020576637238264084,0.9996908903121948,0.02208145149052143,-0.004687108099460602,0.010432281531393528
361.0,0.0,0.0,0.0,0.0,0.0,0.0,0.007283063139766455,-0.044552166014909744,0.03659237176179886,0.999728262424469,0.02127968519926071,-0.009134657680988312,0.0026855752803385258
362.0,0.0,0.0,0.0,0.0,0.0,0.0,0.004184267483651638,-0.0034127626568078995,-0.005856472533196211,0.9996287226676941,0.021080654114484787,-0.017091834917664528,0.0024105876218527555
363.0,0.0,0.0,0.0,0.0,0.0,0.0,-0.010298177599906921,-0.03544199839234352,0.021807454526424408,0.999472975730896,0.02238709293305874,-0.02298291027545929,0.004910414572805166
364.0,0.0,0.0,0.0,0.0,0.0,0.0,-0.032552532851696014,0.0007997504435479641,0.05479970574378967,0.9993316531181335,0.02440410479903221,-0.02709631808102131,0.0025437818840146065
365.0,0.0,0.0,0.0,0.0,0.0,0.0,-0.014213691465556622,0.01620607078075409,0.02789657935500145,0.9992033839225769,0.026754241436719894,-0.02925649657845497,-0.004574161488562822
366.0,0.0,0.0,0.0,0.0,0.0,0.0,-0.008048512041568756,-0.019474968314170837,0.0342165008187294,0.9991358518600464,0.028860431164503098,-0.028536951169371605,-0.008997021242976189
367.0,0.0,0.0,0.0,0.0,0.0,0.0,-0.013840488158166409,-0.00239186710678041,0.026408616453409195,0.9991074800491333,0.0295588206499815,-0.028668448328971863,-0.009407928213477135
368.0,0.0,0.0,0.0,0.0,0.0,0.0,-0.021799670532345772,0.030640356242656708,0.03849390149116516,0.9991291761398315,0.029971638694405556,-0.028373267501592636,-0.006127257831394672
369.0,0.0,0.0,0.0,0.0,0.0,0.0,-0.026170138269662857,0.050787266343832016,0.04844461753964424,0.9991573691368103,0.03034280054271221,-0.027514733374118805,-0.0026292658876627684
370.0,0.0,0.0,0.0,0.0,0.0,0.0,-0.006413586903363466,0.026212230324745178,0.015604577958583832,0.9991599321365356,0.030254801735281944,-0.02746853418648243,-0.0030914652161300182
371.0,0.0,0.0,0.0,0.0,0.0,0.0,0.0005410551093518734,0.005889927037060261,0.011595367453992367,0.9991717338562012,0.029970966279506683,-0.027186645194888115,-0.004292009398341179
372.0,0.0,0.0,0.0,0.0,0.0,0.0,-0.005167607218027115,0.022395199164748192,0.006139015778899193,0.9992004036903381,0.028959421440958977,-0.027393339201807976,-0.0031014292035251856
373.0,0.0,0.0,0.0,0.0,0.0,0.0,-0.0025739490520209074,0.02043493278324604,-0.024516886100172997,0.9992077350616455,0.026766570284962654,-0.029432276263833046,-0.001087011769413948
374.0,0.0,0.0,0.0,0.0,0.0,0.0,0.01166798360645771,-0.008978326804935932,-0.04751935601234436,0.9991136789321899,0.022394588217139244,-0.035563889890909195,0.0024155303835868835
375.0,0.0,0.0,0.0,0.0,0.0,0.0,-0.013660525903105736,-0.01293092966079712,-0.03353840857744217,0.998802661895752,0.017388854175806046,-0.04437830299139023,0.011027174070477486
376.0,0.0,0.0,0.0,0.0,0.0,0.0,-0.03027033433318138,-0.016624612733721733,0.02548365108668804,0.9983842372894287,0.013006425462663174,-0.05182599276304245,0.019344879314303398
377.0,0.0,0.0,0.0,0.0,0.0,0.0,-0.04456188529729843,0.021584216505289078,0.03211306780576706,0.9981375336647034,0.009980590082705021,-0.05482388287782669,0.024833885952830315
378.0,0.0,0.0,0.0,0.0,0.0,0.0,-0.02772507816553116,0.029822323471307755,0.011298184283077717,0.9979497194290161,0.007923453114926815,-0.056290097534656525,0.02941778302192688
379.0,0.0,0.0,0.0,0.0,0.0,0.0,-0.01876039430499077,0.0010269933845847845,0.01315829623490572,0.9977478384971619,0.0070326123386621475,-0.05725541710853577,0.034233175218105316
380.0,0.0,0.0,0.0,0.0,0.0,0.0,0.006081860046833754,-0.005467342212796211,-0.004048546776175499,0.9975869655609131,0.006915418431162834,-0.05794021487236023,0.03762103617191315
381.0,0.0,0.0,0.0,0.0,0.0,0.0,-0.013654569163918495,0.0019976170733571053,0.007997618056833744,0.9976524710655212,0.006785667035728693,-0.05567352473735809,0.03929527476429939
382.0,0.0,0.0,0.0,0.0,0.0,0.0,-0.026225361973047256,-0.013242928311228752,0.0220340508967638,0.9979202151298523,0.006115528289228678,-0.05017358064651489,0.040010854601860046
383.0,0.0,0.0,0.0,0.0,0.0,0.0,0.006118800491094589,-0.023930687457323074,-0.011524073779582977,0.9983046054840088,0.004717202857136726,-0.04223521426320076,0.03977658599615097
384.0,0.0,0.0,0.0,0.0,0.0,0.0,0.027552280575037003,-0.022927097976207733,-0.028153125196695328,0.9986456632614136,0.003441436914727092,-0.03460514172911644,0.03870035335421562
385.0,0.0,0.0,0.0,0.0,0.0,0.0,0.04115666076540947,-0.02127365954220295,-0.026999523863196373,0.9989059567451477,0.001960721332579851,-0.030922088772058487,0.03502533212304115
386.0,0.0,0.0,0.0,0.0,0.0,0.0,0.03875913843512535,-0.036105651408433914,-0.0291209127753973,0.9991664886474609,0.00044559829984791577,-0.028879771009087563,0.028848741203546524
387.0,0.0,0.0,0.0,0.0,0.0,0.0,0.0443500280380249,-0.0584547258913517,-0.035736046731472015,0.9993232488632202,-0.0017701858887448907,-0.02780340425670147,0.024021541699767113
388.0,0.0,0.0,0.0,0.0,0.0,0.0,0.05747559666633606,-0.03601539507508278,-0.043375007808208466,0.9993104338645935,-0.0054940409027040005,-0.030842356383800507,0.019929787144064903
389.0,0.0,0.0,0.0,0.0,0.0,0.0,0.01663225144147873,-0.009327561594545841,-0.003872264875099063,0.9992930293083191,-0.008203739300370216,-0.03307996690273285,0.015870681032538414
390.0,0.0,0.0,0.0,0.0,0.0,0.0,-0.01428960356861353,0.011193151585757732,0.024970296770334244,0.999313473701477,-0.010366803966462612,-0.03490016609430313,0.006860119756311178
391.0,0.0,0.0,0.0,0.0,0.0,0.0,-0.00102629151660949,0.005858880002051592,0.0019147290149703622,0.9991759657859802,-0.012160954996943474,-0.03870692476630211,-0.0011227718787267804
392.0,0.0,0.0,0.0,0.0,0.0,0.0,-0.0063898018561303616,-0.015679040923714638,0.022934753447771072,0.9989636540412903,-0.014805776998400688,-0.042694009840488434,-0.005436948034912348
393.0,0.0,0.0,0.0,0.0,0.0,0.0,-0.0034504591021686792,-0.0035876422189176083,-0.004256618209183216,0.9988449215888977,-0.014059079810976982,-0.04323017597198486,-0.015568296425044537
394.0,0.0,0.0,0.0,0.0,0.0,0.0,0.025980645790696144,-0.014337889850139618,-0.07156413048505783,0.998440146446228,-0.017737235873937607,-0.0462152361869812,-0.025822093710303307
395.0,0.0,0.0,0.0,0.0,0.0,0.0,0.018542295321822166,-0.04702157899737358,-0.031034376472234726,0.9980894327163696,-0.023534519597887993,-0.049171581864356995,-0.029085004702210426
396.0,0.0,0.0,0.0,0.0,0.0,0.0,-0.024578837677836418,-0.007092924788594246,-0.001395883969962597,0.9980197548866272,-0.027809081599116325,-0.04924887791275978,-0.02752475067973137
397.0,0.0,0.0,0.0,0.0,0.0,0.0,0.020245946943759918,0.021613039076328278,-0.027534712105989456,0.997962474822998,-0.03023386187851429,-0.04823295399546623,-0.02881660684943199
398.0,0.0,0.0,0.0,0.0,0.0,0.0,0.05941392481327057,-0.0035757292062044144,-0.05090367794036865,0.9979456067085266,-0.02999664656817913,-0.04584372788667679,-0.03321664407849312
399.0,0.0,0.0,0.0,0.0,0.0,0.0,0.02372235246002674,-0.017262861132621765,-0.003702542046085,0.9978980422019958,-0.03058125451207161,-0.042596761137247086,-0.03808394819498062
400.0,0.0,0.0,0.0,0.0,0.0,0.0,-0.006986647378653288,0.02403176948428154,0.02844919264316559,0.9981324672698975,-0.03018486499786377,-0.03801032900810242,-0.03709160536527634
401.0,0.0,0.0,0.0,0.0,0.0,0.0,-0.012224037200212479,0.03669904172420502,0.028385255485773087,0.998552143573761,-0.02859904058277607,-0.0323609784245491,-0.03207789361476898
402.0,0.0,0.0,0.0,0.0,0.0,0.0,-0.004796490538865328,0.023815155029296875,0.028733963146805763,0.9988753199577332,-0.02769170142710209,-0.026889504864811897,-0.0275381188839674
403.0,0.0,0.0,0.0,0.0,0.0,0.0,0.018238333985209465,0.024682598188519478,0.0027283967938274145,0.9989972114562988,-0.027429819107055664,-0.021695729345083237,-0.027962839230895042
404.0,0.0,0.0,0.0,0.0,0.0,0.0,0.01948438212275505,0.01904897391796112,-0.004209589678794146,0.9989203810691833,-0.02785983495414257,-0.018088944256305695,-0.03247961029410362
405.0,0.0,0.0,0.0,0.0,0.0,0.0,-0.0031701261177659035,0.020406220108270645,0.018527496606111526,0.9988266229629517,-0.028518924489617348,-0.01577320694923401,-0.035825710743665695
406.0,0.0,0.0,0.0,0.0,0.0,0.0,-0.01898297667503357,0.034249693155288696,0.03812506049871445,0.9988453388214111,-0.02899174392223358,-0.01431674137711525,-0.03553345426917076
407.0,0.0,0.0,0.0,0.0,0.0,0.0,-0.026411524042487144,0.043851058930158615,0.03357398137450218,0.9989177584648132,-0.029728064313530922,-0.013276842422783375,-0.03322010114789009
408.0,0.0,0.0,0.0,0.0,0.0,0.0,-0.04193967580795288,0.03416488692164421,0.05618308112025261,0.9989866614341736,-0.031066162511706352,-0.01111101359128952,-0.030612049624323845
409.0,0.0,0.0,0.0,0.0,0.0,0.0,-0.009955013170838356,0.015827324241399765,0.05235807225108147,0.9989561438560486,-0.03195752948522568,-0.008861803449690342,-0.0314086452126503
410.0,0.0,0.0,0.0,0.0,0.0,0.0,-0.00820712000131607,0.017918052151799202,0.033329498022794724,0.998871922492981,-0.031691018491983414,-0.006120242178440094,-0.034828051924705505
411.0,0.0,0.0,0.0,0.0,0.0,0.0,0.005301959812641144,0.004710306413471699,0.010041164234280586,0.9987800717353821,-0.03107527829706669,-0.005690143443644047,-0.03795521333813667
412.0,0.0,0.0,0.0,0.0,0.0,0.0,0.037538982927799225,-0.032439954578876495,-0.008307461626827717,0.9988188743591309,-0.03023332543671131,-0.007572678849101067,-0.03727364540100098
413.0,0.0,0.0,0.0,0.0,0.0,0.0,0.008381160907447338,0.0005696038715541363,0.014506247825920582,0.9989813566207886,-0.02864544838666916,-0.009838612750172615,-0.03345095366239548
414.0,0.0,0.0,0.0,0.0,0.0,0.0,-0.007485301699489355,0.025944780558347702,0.014365384355187416,0.9990640878677368,-0.027025502175092697,-0.012863557785749435,-0.031224410980939865
415.0,0.0,0.0,0.0,0.0,0.0,0.0,-0.006581433583050966,-0.004718082491308451,-0.0035235073883086443,0.9989621639251709,-0.027705131098628044,-0.015287570655345917,-0.03275606036186218
416.0,0.0,0.0,0.0,0.0,0.0,0.0,0.007419772446155548,-0.01764308661222458,-0.018616268411278725,0.9986919164657593,-0.02985682152211666,-0.018766213208436966,-0.03702419251203537
417.0,0.0,0.0,0.0,0.0,0.0,0.0,0.0020780533086508512,-0.0026051895692944527,-0.011724712327122688,0.9984861016273499,-0.031197546049952507,-0.022448312491178513,-0.03934561833739281
418.0,0.0,0.0,0.0,0.0,0.0,0.0,-0.01091087982058525,-0.004038309678435326,-0.00435823667794466,0.9985591173171997,-0.031066229566931725,-0.024039003998041153,-0.03655683994293213
419.0,0.0,0.0,0.0,0.0,0.0,0.0,0.004237229935824871,-0.015493967570364475,-0.020486649125814438,0.998657763004303,-0.030801068991422653,-0.02719898335635662,-0.03153200075030327
420.0,0.0,0.0,0.0,0.0,0.0,0.0,2.2033560526324436e-05,-0.005078186746686697,-0.005497070960700512,0.9987918734550476,-0.029715292155742645,-0.028426717966794968,-0.026905586943030357
421.0,0.0,0.0,0.0,0.0,0.0,0.0,-0.0038624077569693327,0.002643000800162554,0.006843025796115398,0.9988568425178528,-0.028937797993421555,-0.028294511139392853,-0.0254354365170002
422.0,0.0,0.0,0.0,0.0,0.0,0.0,0.0036659061443060637,-0.009926439262926579,-0.005886942148208618,0.9988053441047668,-0.029116729274392128,-0.028825676068663597,-0.02663135714828968
423.0,0.0,0.0,0.0,0.0,0.0,0.0,0.0026896067429333925,-0.018426958471536636,0.006924828048795462,0.998852550983429,-0.028448928147554398,-0.027876151725649834,-0.02659648098051548
424.0,0.0,0.0,0.0,0.0,0.0,0.0,0.01448123063892126,-0.020396504551172256,-0.0030532388482242823,0.9989656209945679,-0.027728494256734848,-0.026901453733444214,-0.023989247158169746
425.0,0.0,0.0,0.0,0.0,0.0,0.0,0.02465745434165001,-0.024872245267033577,-0.01576467789709568,0.9991050958633423,-0.026991333812475204,-0.02634776197373867,-0.019131505861878395
426.0,0.0,0.0,0.0,0.0,0.0,0.0,0.004612413700670004,-0.006413108203560114,0.015692714601755142,0.9992039203643799,-0.026138024404644966,-0.02564425766468048,-0.015837686136364937
427.0,0.0,0.0,0.0,0.0,0.0,0.0,0.025277618318796158,-0.009702928364276886,-0.013388557359576225,0.9992006421089172,-0.024874655529856682,-0.02657027170062065,-0.016530418768525124
428.0,0.0,0.0,0.0,0.0,0.0,0.0,0.03135809302330017,-0.026561494916677475,-0.022620659321546555,0.999141275882721,-0.024325953796505928,-0.027651255950331688,-0.018996067345142365
429.0,0.0,0.0,0.0,0.0,0.0,0.0,0.007455852814018726,-0.015129173174500465,0.009264018386602402,0.9990749359130859,-0.024790026247501373,-0.028963861986994743,-0.01989847421646118
430.0,0.0,0.0,0.0,0.0,0.0,0.0,0.006561359856277704,-0.0013192283222451806,0.005849306471645832,0.9990528225898743,-0.024953296408057213,-0.030804742127656937,-0.0179400946944952
431.0,0.0,0.0,0.0,0.0,0.0,0.0,0.01392518449574709,-0.013134734705090523,-0.005181615706533194,0.9990412592887878,-0.025136591866612434,-0.03269147500395775,-0.014693142846226692
432.0,0.0,0.0,0.0,0.0,0.0,0.0,0.0009401167626492679,0.003101038746535778,0.013642724603414536,0.9990155696868896,-0.02567436918616295,-0.033751945942640305,-0.01302106212824583
433.0,0.0,0.0,0.0,0.0,0.0,0.0,0.012416500598192215,0.008957614190876484,-0.003952621016651392,0.9989654421806335,-0.026541078463196754,-0.03390827402472496,-0.01463677454739809
434.0,0.0,0.0,0.0,0.0,0.0,0.0,0.012451310642063618,0.0051623242907226086,-0.007478161249309778,0.9989745616912842,-0.02720624767243862,-0.03214838355779648,-0.01661580055952072
435.0,0.0,0.0,0.0,0.0,0.0,0.0,0.00045764169772155583,0.007217432837933302,0.010123832151293755,0.9990277290344238,-0.028009187430143356,-0.02928377315402031,-0.017370210960507393
436.0,0.0,0.0,0.0,0.0,0.0,0.0,-0.002702622674405575,0.02143419161438942,0.002582003129646182,0.9990530014038086,-0.030643392354249954,-0.025267479941248894,-0.01777152717113495
437.0,0.0,0.0,0.0,0.0,0.0,0.0,-0.012314561754465103,0.026179127395153046,0.00942995585501194,0.9989081621170044,-0.03665872663259506,-0.02031281404197216,-0.020644374191761017
438.0,0.0,0.0,0.0,0.0,0.0,0.0,0.023813823238015175,-0.03031597100198269,-0.0026467829011380672,0.9985587000846863,-0.04328945279121399,-0.015826495364308357,-0.027493517845869064
439.0,0.0,0.0,0.0,0.0,0.0,0.0,0.04327873885631561,-0.050032902508974075,-0.06739180535078049,0.9981970191001892,-0.04709630459547043,-0.011319048702716827,-0.03544587641954422
440.0,0.0,0.0,0.0,0.0,0.0,0.0,0.03507235646247864,-0.028801849111914635,-0.0679059699177742,0.9979888796806335,-0.04839637875556946,-0.008350060321390629,-0.04007863253355026
441.0,0.0,0.0,0.0,0.0,0.0,0.0,0.023113468661904335,-0.019650597125291824,-0.021017497405409813,0.9979760050773621,-0.049341678619384766,-0.008085382170975208,-0.039295393973588943
442.0,0.0,0.0,0.0,0.0,0.0,0.0,0.007365728262811899,-0.0026399672497063875,-0.006449624430388212,0.9982052445411682,-0.048581670969724655,-0.008583063259720802,-0.03394288569688797
443.0,0.0,0.0,0.0,0.0,0.0,0.0,-0.009407448582351208,0.017407871782779694,0.01594674400985241,0.9984534978866577,-0.046278007328510284,-0.00846748985350132,-0.02961425855755806
444.0,0.0,0.0,0.0,0.0,0.0,0.0,-0.022875556722283363,0.03732314333319664,0.028938183560967445,0.998470664024353,-0.044747162610292435,-0.007628544699400663,-0.031556472182273865
445.0,0.0,0.0,0.0,0.0,0.0,0.0,-0.01204658392816782,0.016367994248867035,0.01320829801261425,0.9982385039329529,-0.04528030753135681,-0.006379731465131044,-0.03780506178736687
446.0,0.0,0.0,0.0,0.0,0.0,0.0,0.00491864699870348,-0.00048042990965768695,-0.004133178386837244,0.9978936910629272,-0.04711050167679787,-0.006415945012122393,-0.04413231462240219
447.0,0.0,0.0,0.0,0.0,0.0,0.0,0.0038090271409600973,0.007002251222729683,0.0027325546834617853,0.9977107644081116,-0.049359582364559174,-0.007548907306045294,-0.04560878872871399
448.0,0.0,0.0,0.0,0.0,0.0,0.0,-0.0018156549194827676,0.02989465929567814,0.019385704770684242,0.9979260563850403,-0.04877267777919769,-0.009089341387152672,-0.04101338982582092
449.0,0.0,0.0,0.0,0.0,0.0,0.0,-0.020941762253642082,0.049696069210767746,0.07585930824279785,0.9984403252601624,-0.04436923936009407,-0.006232821382582188,-0.033313341438770294
450.0,0.0,0.0,0.0,0.0,0.0,0.0,0.0068169995211064816,0.03942348062992096,0.06640823185443878,0.9986783266067505,-0.041361480951309204,0.0001451336866011843,-0.03050505369901657
451.0,0.0,0.0,0.0,0.0,0.0,0.0,0.020941857248544693,0.04121825844049454,-0.0032373652793467045,0.9986470937728882,-0.03953996300697327,0.0072819627821445465,-0.03298548609018326
452.0,0.0,0.0,0.0,0.0,0.0,0.0,0.03905179351568222,0.015693532302975655,0.004561709705740213,0.9985878467559814,-0.036841318011283875,0.013772673904895782,-0.035705965012311935
453.0,0.0,0.0,0.0,0.0,0.0,0.0,0.03136502206325531,0.027445383369922638,-0.015965787693858147,0.9986047148704529,-0.0350361242890358,0.01586701162159443,-0.036187585443258286
454.0,0.0,0.0,0.0,0.0,0.0,0.0,0.048253584653139114,0.00029790541157126427,-0.04197174683213234,0.9988145232200623,-0.03314373642206192,0.016679536551237106,-0.0315069854259491
455.0,0.0,0.0,0.0,0.0,0.0,0.0,0.04178912937641144,-0.022998875007033348,-0.0268148984760046,0.9990566968917847,-0.031873978674411774,0.014921893365681171,-0.02543790452182293
456.0,0.0,0.0,0.0,0.0,0.0,0.0,0.023294784128665924,0.016957923769950867,-0.02471601590514183,0.9991832971572876,-0.030961528420448303,0.011974303983151913,-0.023039130493998528
457.0,0.0,0.0,0.0,0.0,0.0,0.0,0.014271232299506664,0.007526252418756485,-0.01323575247079134,0.9991568326950073,-0.03039364702999592,0.010178790427744389,-0.0256538987159729
458.0,0.0,0.0,0.0,0.0,0.0,0.0,0.011663712561130524,-0.008365205489099026,0.0028846249915659428,0.9990586042404175,-0.030545275658369064,0.008089246228337288,-0.029719874262809753
459.0,0.0,0.0,0.0,0.0,0.0,0.0,-0.008363615721464157,0.009738137014210224,0.00987626425921917,0.9990317821502686,-0.0303353238850832,0.006533414125442505,-0.031180063262581825
460.0,0.0,0.0,0.0,0.0,0.0,0.0,-0.006410909816622734,-0.002168336883187294,-0.002299204235896468,0.9990547299385071,-0.03127793222665787,0.003919763024896383,-0.029929721727967262
461.0,0.0,0.0,0.0,0.0,0.0,0.0,0.0015002297004684806,-0.01418820396065712,-0.00897445622831583,0.9991298317909241,-0.03233598545193672,0.00016949900600593537,-0.02634001336991787
462.0,0.0,0.0,0.0,0.0,0.0,0.0,-0.00029532500775530934,-0.017396891489624977,-0.014607394114136696,0.999146580696106,-0.03337639197707176,-0.004988525062799454,-0.023817790672183037
463.0,0.0,0.0,0.0,0.0,0.0,0.0,-0.01227723527699709,-0.03289182484149933,-0.008973785676062107,0.9989315867424011,-0.035996925085783005,-0.01217817422002554,-0.02629401907324791
464.0,0.0,0.0,0.0,0.0,0.0,0.0,-0.0527123361825943,-0.02379119209945202,0.026854457333683968,0.9985568523406982,-0.03965406492352486,-0.019978215917944908,-0.030211856588721275
465.0,0.0,0.0,0.0,0.0,0.0,0.0,-0.03884261101484299,-0.019312042742967606,0.027560340240597725,0.99818354845047,-0.04363417252898216,-0.026523219421505928,-0.031969960778951645
466.0,0.0,0.0,0.0,0.0,0.0,0.0,-0.03247355297207832,-0.013090956024825573,-0.003943554125726223,0.9979374408721924,-0.04745882377028465,-0.030266620218753815,-0.030858509242534637
467.0,0.0,0.0,0.0,0.0,0.0,0.0,-0.014940217137336731,-0.010539044626057148,0.013646824285387993,0.9977007508277893,-0.0514451265335083,-0.03250168636441231,-0.029834486544132233
468.0,0.0,0.0,0.0,0.0,0.0,0.0,-0.005689127836376429,-0.019432997331023216,-0.011756278574466705,0.9974057078361511,-0.055317915976047516,-0.03312661498785019,-0.03200823441147804
469.0,0.0,0.0,0.0,0.0,0.0,0.0,0.001094534178264439,-0.030880320817232132,-0.002472669119015336,0.9972155690193176,-0.05718735232949257,-0.03181569278240204,-0.035755980759859085
470.0,0.0,0.0,0.0,0.0,0.0,0.0,-0.0243549607694149,-0.023404164239764214,0.0070747435092926025,0.9970107674598694,-0.059474676847457886,-0.02895548939704895,-0.039924394339323044
471.0,0.0,0.0,0.0,0.0,0.0,0.0,0.008933219127357006,-0.040078625082969666,-0.02173813059926033,0.9969464540481567,-0.061077289283275604,-0.02589959278702736,-0.041193220764398575
472.0,0.0,0.0,0.0,0.0,0.0,0.0,-0.018209846690297127,-0.04483197256922722,0.00616301828995347,0.996937096118927,-0.0624445341527462,-0.022818049415946007,-0.04118528962135315
473.0,0.0,0.0,0.0,0.0,0.0,0.0,-0.05214559659361839,-0.020524760708212852,0.0529652014374733,0.9970458149909973,-0.06313500553369522,-0.01702709309756756,-0.04028817266225815
474.0,0.0,0.0,0.0,0.0,0.0,0.0,-0.001762147294357419,-0.022282013669610023,0.012997644953429699,0.9971364736557007,-0.0634535402059555,-0.011692149564623833,-0.039440494030714035
475.0,0.0,0.0,0.0,0.0,0.0,0.0,0.014324478805065155,-0.025856148451566696,0.0019748087506741285,0.9972886443138123,-0.061817485839128494,-0.006423839367926121,-0.0394088514149189
476.0,0.0,0.0,0.0,0.0,0.0,0.0,-0.009745132178068161,-0.00979919359087944,0.03427154943346977,0.9973829388618469,-0.05994448438286781,-0.0014191621448844671,-0.040396664291620255
477.0,0.0,0.0,0.0,0.0,0.0,0.0,0.009829400107264519,-0.016491662710905075,0.02841951698064804,0.9974582195281982,-0.05860230326652527,0.002778824185952544,-0.040437400341033936
478.0,0.0,0.0,0.0,0.0,0.0,0.0,0.027121448889374733,-0.020185373723506927,0.011926738545298576,0.9975578188896179,-0.05741654336452484,0.005718869622796774,-0.03935705125331879
479.0,0.0,0.0,0.0,0.0,0.0,0.0,0.03680095449090004,0.0029366810340434313,-0.0006745578139089048,0.9977166652679443,-0.055535104125738144,0.006576137151569128,-0.03787138685584068
480.0,0.0,0.0,0.0,0.0,0.0,0.0,0.011439639143645763,0.00880582444369793,0.014568603597581387,0.9979245066642761,-0.053342144936323166,0.0070605408400297165,-0.035374876111745834
481.0,0.0,0.0,0.0,0.0,0.0,0.0,-0.004948876332491636,0.017703933641314507,0.026530111208558083,0.9980868697166443,-0.051641982048749924,0.008109743706882,-0.03301471471786499
482.0,0.0,0.0,0.0,0.0,0.0,0.0,0.018206657841801643,0.016405105590820312,-0.0047362311743199825,0.9981576800346375,-0.050041962414979935,0.007676701061427593,-0.03343868628144264
483.0,0.0,0.0,0.0,0.0,0.0,0.0,-0.04701503366231918,-0.07256990671157837,-0.02367103099822998,0.9979502558708191,-0.052076976746320724,0.009518217295408249,-0.035955075174570084
484.0,0.0,0.0,0.0,0.0,0.0,0.0,0.013499553315341473,0.032833270728588104,-0.02939940057694912,0.9978666305541992,-0.05234421789646149,0.008900374174118042,-0.03798771649599075
485.0,0.0,0.0,0.0,0.0,0.0,0.0,0.004766255151480436,0.026883907616138458,-0.016331447288393974,0.9976664781570435,-0.05557242035865784,0.007006913423538208,-0.03904302790760994
486.0,0.0,0.0,0.0,0.0,0.0,0.0,0.041987910866737366,-0.004989793058484793,-0.059717483818531036,0.9973881244659424,-0.05945189669728279,0.0027616838924586773,-0.04092167690396309
487.0,0.0,0.0,0.0,0.0,0.0,0.0,0.018237639218568802,0.01448713056743145,-0.04045729339122772,0.9972692131996155,-0.0609302744269371,-0.0014670384116470814,-0.041703756898641586
488.0,0.0,0.0,0.0,0.0,0.0,0.0,-0.03583402931690216,0.08401428163051605,0.030588299036026,0.9973542094230652,-0.06072093918919563,-0.002510710386559367,-0.03988901898264885
489.0,0.0,0.0,0.0,0.0,0.0,0.0,-0.0370633564889431,0.07192405313253403,0.02241840958595276,0.9972959756851196,-0.0632566511631012,-0.00012058265565428883,-0.037405289709568024
490.0,0.0,0.0,0.0,0.0,0.0,0.0,0.04303130507469177,0.047868404537439346,-0.031846169382333755,0.9973776936531067,-0.06347046047449112,0.0017787303077057004,-0.03473367542028427
491.0,0.0,0.0,0.0,0.0,0.0,0.0,-0.001477822195738554,0.07262243330478668,0.004161549732089043,0.9973865151405334,-0.06343044340610504,0.006076517980545759,-0.03405888006091118
492.0,0.0,0.0,0.0,0.0,0.0,0.0,0.038614243268966675,0.03530086576938629,-0.002613837830722332,0.9972551465034485,-0.06468978524208069,0.009161627851426601,-0.034828606992959976
493.0,0.0,0.0,0.0,0.0,0.0,0.0,0.03215095400810242,0.03933276981115341,-0.006123725790530443,0.997423529624939,-0.062313713133335114,0.0157407745718956,-0.03187011182308197
494.0,0.0,0.0,0.0,0.0,0.0,0.0,-0.03776043653488159,0.06332632154226303,0.0848187655210495,0.9977269768714905,-0.057301219552755356,0.025668811053037643,-0.024473223835229874
495.0,0.0,0.0,0.0,0.0,0.0,0.0,0.024279557168483734,0.01918950304389,0.01496481616050005,0.9978293180465698,-0.054095473140478134,0.032513394951820374,-0.018797988072037697
496.0,0.0,0.0,0.0,0.0,0.0,0.0,0.037079308182001114,-0.025940820574760437,0.0011553546646609902,0.9976530075073242,-0.052564315497875214,0.03941337391734123,-0.019292298704385757
497.0,0.0,0.0,0.0,0.0,0.0,0.0,0.020876852795481682,-0.04150907322764397,0.02791031263768673,0.9975278973579407,-0.049779828637838364,0.0447448305785656,-0.021406549960374832
498.0,0.0,0.0,0.0,0.0,0.0,0.0,0.05050307884812355,-0.052852075546979904,-0.009077571332454681,0.9976241588592529,-0.04493417218327522,0.04766473546624184,-0.021329006180167198
499.0,0.0,0.0,0.0,0.0,0.0,0.0,0.006595199927687645,-0.03138372674584389,0.012067976407706738,0.9975935220718384,-0.04276004061102867,0.05022084712982178,-0.021377183496952057
500.0,0.0,0.0,0.0,0.0,0.0,0.0,0.032241884618997574,-0.03135351464152336,-0.005942079704254866,0.9976040124893188,-0.043055325746536255,0.04944807291030884,-0.02206806093454361
501.0,0.0,0.0,0.0,0.0,0.0,0.0,0.02946438454091549,-0.03049525059759617,-0.012685058638453484,0.997475266456604,-0.04602208733558655,0.049044765532016754,-0.022807881236076355
502.0,0.0,0.0,0.0,0.0,0.0,0.0,0.07381972670555115,-0.05153138190507889,-0.053403135389089584,0.9974267482757568,-0.04935320094227791,0.045778997242450714,-0.024667322635650635
503.0,0.0,0.0,0.0,0.0,0.0,0.0,0.04411972314119339,0.005178944207727909,-0.026226315647363663,0.9974845051765442,-0.050173044204711914,0.04296054691076279,-0.025732114911079407
504.0,0.0,0.0,0.0,0.0,0.0,0.0,-0.019548185169696808,0.02766023389995098,0.052663806825876236,0.9973616600036621,-0.05361145734786987,0.04104721173644066,-0.026649409905076027
505.0,0.0,0.0,0.0,0.0,0.0,0.0,0.014741991646587849,-0.01621347665786743,0.0063080438412725925,0.9971776604652405,-0.056863296777009964,0.04038584232330322,-0.027778035029768944
506.0,0.0,0.0,0.0,0.0,0.0,0.0,0.02892693318426609,-0.05140996351838112,-0.023363610729575157,0.9970577955245972,-0.058122217655181885,0.04019220545887947,-0.02969549037516117
507.0,0.0,0.0,0.0,0.0,0.0,0.0,0.020039048045873642,-0.013898315839469433,0.013624991290271282,0.9970706105232239,-0.057680804282426834,0.03897108882665634,-0.03169579058885574
508.0,0.0,0.0,0.0,0.0,0.0,0.0,0.013950838707387447,-0.016144786030054092,-0.007452639751136303,0.9970391392707825,-0.05779193714261055,0.03912878409028053,-0.03227589279413223
509.0,0.0,0.0,0.0,0.0,0.0,0.0,0.016699759289622307,-0.051201775670051575,-0.003884453559294343,0.9968496561050415,-0.06048610806465149,0.04020262882113457,-0.0318782664835453
510.0,0.0,0.0,0.0,0.0,0.0,0.0,0.013134242035448551,-0.049337536096572876,-0.015567476861178875,0.9966986179351807,-0.0630350336432457,0.04125678166747093,-0.030263153836131096
511.0,0.0,0.0,0.0,0.0,0.0,0.0,0.01305361557751894,-0.03779562935233116,-0.014696230180561543,0.9966544508934021,-0.0642341822385788,0.04193859547376633,-0.028205858543515205
512.0,0.0,0.0,0.0,0.0,0.0,0.0,0.013967948034405708,-0.013505632057785988,-0.004448678344488144,0.9966021180152893,-0.06449785083532333,0.04341123625636101,-0.027219196781516075
513.0,0.0,0.0,0.0,0.0,0.0,0.0,0.009319789707660675,-0.021845808252692223,-0.01591532677412033,0.9963747262954712,-0.06743792444467545,0.0441352054476738,-0.027250444516539574
514.0,0.0,0.0,0.0,0.0,0.0,0.0,0.014439813792705536,-0.02277722954750061,-0.03647283464670181,0.9962760806083679,-0.06933330744504929,0.04368779808282852,-0.026801180094480515
515.0,0.0,0.0,0.0,0.0,0.0,0.0,-0.05267953872680664,0.03371080756187439,0.011285779066383839,0.9961206316947937,-0.07260109484195709,0.04271140322089195,-0.025479188188910484
516.0,0.0,0.0,0.0,0.0,0.0,0.0,-0.03293846175074577,0.022679544985294342,-0.015445207245647907,0.9959741234779358,-0.07707897573709488,0.03904665634036064,-0.023855770006775856
517.0,0.0,0.0,0.0,0.0,0.0,0.0,-0.01213088445365429,0.03084028698503971,0.06658358871936798,0.9959397912025452,-0.07900811731815338,0.03739890083670616,-0.02151457592844963
518.0,0.0,0.0,0.0,0.0,0.0,0.0,-0.03521447628736496,0.047710269689559937,0.05419199913740158,0.9957742094993591,-0.08212621510028839,0.034816887229681015,-0.02184685878455639
519.0,0.0,0.0,0.0,0.0,0.0,0.0,-0.016233457252383232,0.02724604308605194,-0.04136708378791809,0.9957244992256165,-0.08394678682088852,0.03138715773820877,-0.022348778322339058
520.0,0.0,0.0,0.0,0.0,0.0,0.0,-0.04054334759712219,0.04507231339812279,-0.0015577138401567936,0.9956731796264648,-0.08612138032913208,0.027961602434515953,-0.020906902849674225
521.0,0.0,0.0,0.0,0.0,0.0,0.0,-0.05757911503314972,0.06320007890462875,0.033670827746391296,0.9955499768257141,-0.08870220184326172,0.025102389976382256,-0.019543420523405075
522.0,0.0,0.0,0.0,0.0,0.0,0.0,-0.021761246025562286,0.0410514734685421,0.005352667532861233,0.9954993724822998,-0.09027978032827377,0.022733360528945923,-0.01773723028600216
523.0,0.0,0.0,0.0,0.0,0.0,0.0,-0.03345879912376404,0.02512880600988865,0.0050266399048268795,0.99552983045578,-0.09060457348823547,0.02099970355629921,-0.016466472297906876
524.0,0.0,0.0,0.0,0.0,0.0,0.0,-0.014447923749685287,0.006699535064399242,-0.011315884999930859,0.9954726696014404,-0.09158272296190262,0.01865110732614994,-0.017278732731938362
525.0,0.0,0.0,0.0,0.0,0.0,0.0,-0.011022742837667465,0.003002513200044632,-0.018398581072688103,0.9954314827919006,-0.09215991944074631,0.01686236634850502,-0.01846557855606079
526.0,0.0,0.0,0.0,0.0,0.0,0.0,-0.044399749487638474,0.018743524327874184,0.0045588454231619835,0.9954580068588257,-0.09217175096273422,0.016178341582417488,-0.017535801976919174
527.0,0.0,0.0,0.0,0.0,0.0,0.0,-0.016626492142677307,0.009713912382721901,-0.05973688140511513,0.9954638481140137,-0.09263526648283005,0.014684854075312614,-0.01592261902987957
528.0,0.0,0.0,0.0,0.0,0.0,0.0,-0.013616731390357018,-0.002021082676947117,-0.006831888575106859,0.9955503940582275,-0.0923132672905922,0.013447824865579605,-0.013264604844152927
529.0,0.0,0.0,0.0,0.0,0.0,0.0,0.0020325647201389074,-0.012991421855986118,0.048411402851343155,0.9955163598060608,-0.09292352944612503,0.012854930013418198,-0.012126762419939041
530.0,0.0,0.0,0.0,0.0,0.0,0.0,0.005236046388745308,-0.004935678094625473,0.01130756363272667,0.9955416917800903,-0.09261393547058105,0.0126073332503438,-0.012624318711459637
531.0,0.0,0.0,0.0,0.0,0.0,0.0,-0.03418432176113129,0.021148208528757095,-0.007863740436732769,0.9955430626869202,-0.09222757816314697,0.013981267809867859,-0.013853593729436398
532.0,0.0,0.0,0.0,0.0,0.0,0.0,-0.00570303900167346,-0.00017050887981895357,-0.02542911283671856,0.9953821897506714,-0.09365158528089523,0.014570003375411034,-0.015166346915066242
533.0,0.0,0.0,0.0,0.0,0.0,0.0,0.00795714557170868,-0.0072096046060323715,-0.0370761938393116,0.9954432845115662,-0.09308312833309174,0.014736182987689972,-0.014592823572456837
534.0,0.0,0.0,0.0,0.0,0.0,0.0,-0.01573638617992401,0.008189770393073559,0.01047742459923029,0.995457112789154,-0.09293154627084732,0.014889448881149292,-0.01436886191368103
535.0,0.0,0.0,0.0,0.0,0.0,0.0,0.01978692039847374,-0.012130976654589176,-0.020671840757131577,0.9954319000244141,-0.09333936870098114,0.013899460434913635,-0.014446698129177094
536.0,0.0,0.0,0.0,0.0,0.0,0.0,-0.018834313377738,0.004414078779518604,0.000406712933909148,0.9955595135688782,-0.09218059480190277,0.013742619194090366,-0.013273242861032486
537.0,0.0,0.0,0.0,0.0,0.0,0.0,-0.02685348503291607,0.005982551723718643,0.047655005007982254,0.9955359697341919,-0.09255846589803696,0.013364060781896114,-0.012768547050654888
538.0,0.0,0.0,0.0,0.0,0.0,0.0,0.034998081624507904,-0.028040891513228416,-0.04163926839828491,0.9956679344177246,-0.0914623886346817,0.011878173798322678,-0.011810521595180035
539.0,0.0,0.0,0.0,0.0,0.0,0.0,0.017587147653102875,-0.010296245105564594,-0.017162546515464783,0.9960197806358337,-0.0878930389881134,0.010617188178002834,-0.010377169586718082
540.0,0.0,0.0,0.0,0.0,0.0,0.0,-0.0245339497923851,0.0022944665979593992,0.02019895613193512,0.9963089823722839,-0.08486619591712952,0.009475989267230034,-0.00874862540513277
541.0,0.0,0.0,0.0,0.0,0.0,0.0,-0.007396761793643236,-0.012262744829058647,0.020892884582281113,0.9964300394058228,-0.08368632197380066,0.007897915318608284,-0.0078571243211627
542.0,0.0,0.0,0.0,0.0,0.0,0.0,-0.006006891373544931,-0.004825613461434841,-0.005379477981477976,0.9965832829475403,-0.08213889598846436,0.006300649140030146,-0.005883083213120699
543.0,0.0,0.0,0.0,0.0,0.0,0.0,-0.02419239841401577,0.011442038230597973,0.01968255639076233,0.9966740608215332,-0.08122275769710541,0.005153162404894829,-0.004122024867683649
544.0,0.0,0.0,0.0,0.0,0.0,0.0,-0.04115598276257515,0.02549642138183117,0.0388077050447464,0.9966868162155151,-0.0810503363609314,0.0053273215889930725,-0.0043898639269173145
545.0,0.0,0.0,0.0,0.0,0.0,0.0,0.0006100200116634369,0.002517160028219223,0.01839309185743332,0.9967561960220337,-0.08030640333890915,0.003954485058784485,-0.0036426361184567213
546.0,0.0,0.0,0.0,0.0,0.0,0.0,-0.028811173513531685,0.02409818209707737,0.019060611724853516,0.9969825744628906,-0.07756862789392471,0.002971200505271554,-0.0004765948106069118
547.0,0.0,0.0,0.0,0.0,0.0,0.0,-0.032133087515830994,0.016478652134537697,0.04722079262137413,0.9969361424446106,-0.07813206315040588,0.003254704875871539,0.0011345728999003768
548.0,0.0,0.0,0.0,0.0,0.0,0.0,0.00543584767729044,0.008428458124399185,-0.023754743859171867,0.9969295263290405,-0.07822514325380325,0.0014843667158856988,0.003091070568189025
549.0,0.0,0.0,0.0,0.0,0.0,0.0,-0.030041266232728958,0.018391232937574387,0.01660272292792797,0.9967515468597412,-0.08053132146596909,0.00023346544185187668,0.001539322198368609
550.0,0.0,0.0,0.0,0.0,0.0,0.0,-0.02843615412712097,0.043678708374500275,-0.004291827790439129,0.9963330030441284,-0.08551675081253052,-0.002328770002350211,-0.0004647840396501124
551.0,0.0,0.0,0.0,0.0,0.0,0.0,-0.00044490036088973284,0.0088810995221138,-0.010588500648736954,0.9956153035163879,-0.09331292659044266,-0.005966657772660255,-0.002945923013612628
552.0,0.0,0.0,0.0,0.0,0.0,0.0,0.048857834190130234,-0.0386291965842247,-0.08319540321826935,0.9951449036598206,-0.09789593517780304,-0.00917702354490757,-0.00451690424233675
553.0,0.0,0.0,0.0,0.0,0.0,0.0,-0.015296139754354954,0.05410255491733551,0.042149558663368225,0.994853675365448,-0.10079976916313171,-0.009408251382410526,-0.004327911883592606
554.0,0.0,0.0,0.0,0.0,0.0,0.0,0.019323820248246193,0.027558352798223495,-0.0014827220002189279,0.9941529631614685,-0.10744700580835342,-0.009836515411734581,-0.004323159344494343
555.0,0.0,0.0,0.0,0.0,0.0,0.0,0.06014471873641014,-0.040626462548971176,-0.12944650650024414,0.9939661026000977,-0.10896783322095871,-0.011412334628403187,-0.005338694900274277
556.0,0.0,0.0,0.0,0.0,0.0,0.0,0.016931597143411636,-0.0022893259301781654,0.004704234655946493,0.9941617846488953,-0.10713762789964676,-0.011027042753994465,-0.006492318585515022
557.0,0.0,0.0,0.0,0.0,0.0,0.0,0.021055862307548523,0.019575495272874832,0.009064916521310806,0.9948036074638367,-0.10125336050987244,-0.01062918920069933,-0.00056080223293975
558.0,0.0,0.0,0.0,0.0,0.0,0.0,0.06942871958017349,-0.04631010442972183,-0.07992666959762573,0.9953643083572388,-0.09487531334161758,-0.015461185947060585,0.002983357524499297
559.0,0.0,0.0,0.0,0.0,0.0,0.0,0.0008082489366643131,-0.031381987035274506,-0.041221655905246735,0.9955952763557434,-0.09065992385149002,-0.023762675002217293,0.0025154552422463894
560.0,0.0,0.0,0.0,0.0,0.0,0.0,-0.05649410933256149,-0.04816337674856186,0.060732342302799225,0.9956560730934143,-0.08792959153652191,-0.030044320970773697,0.006008516997098923
561.0,0.0,0.0,0.0,0.0,0.0,0.0,-0.007336276583373547,-0.009313573129475117,0.03213878720998764,0.995602548122406,-0.08758697658777237,-0.03170280531048775,0.010004633106291294
562.0,0.0,0.0,0.0,0.0,0.0,0.0,-0.010871625505387783,-0.022777963429689407,0.03411047160625458,0.9957894682884216,-0.0855603739619255,-0.03176708519458771,0.008673127740621567
563.0,0.0,0.0,0.0,0.0,0.0,0.0,-0.040074948221445084,-0.046561092138290405,0.07696042954921722,0.9961134791374207,-0.08184675127267838,-0.03119102120399475,0.009172488935291767
564.0,0.0,0.0,0.0,0.0,0.0,0.0,0.022923555225133896,-0.056790802627801895,-0.013302026316523552,0.996403694152832,-0.07875604182481766,-0.03020433709025383,0.008077701553702354
565.0,0.0,0.0,0.0,0.0,0.0,0.0,-0.0004901986103504896,-0.0550401471555233,0.012528506107628345,0.9966980218887329,-0.07457302510738373,-0.03070746548473835,0.009426228702068329
566.0,0.0,0.0,0.0,0.0,0.0,0.0,0.0006104863714426756,-0.06821326911449432,-0.004662180785089731,0.9970669746398926,-0.07051634788513184,-0.02844526432454586,0.008651656098663807
567.0,0.0,0.0,0.0,0.0,0.0,0.0,0.025313260033726692,-0.1023302674293518,-0.08557738363742828,0.9971272945404053,-0.07006853073835373,-0.027579480782151222,0.008219577372074127
568.0,0.0,0.0,0.0,0.0,0.0,0.0,0.004343023523688316,-0.015306606888771057,-0.016413675621151924,0.9969472289085388,-0.0725363940000534,-0.027789302170276642,0.007941645570099354
569.0,0.0,0.0,0.0,0.0,0.0,0.0,0.0139384800568223,0.018397817388176918,0.005363570060580969,0.9965721964836121,-0.07791334390640259,-0.02749958448112011,0.004111257381737232
570.0,0.0,0.0,0.0,0.0,0.0,0.0,0.01716267131268978,-0.0548286996781826,-0.09387540817260742,0.9960775375366211,-0.08379504829645157,-0.028409253805875778,-1.631466147955507e-05
571.0,0.0,0.0,0.0,0.0,0.0,0.0,0.009949571453034878,-0.020181559026241302,-0.018363501876592636,0.9955892562866211,-0.08930232375860214,-0.028721587732434273,-0.0009975992143154144
572.0,0.0,0.0,0.0,0.0,0.0,0.0,-1.528245411464013e-05,0.0469776950776577,0.030475657433271408,0.9951730966567993,-0.09405630081892014,-0.027977097779512405,-0.0008978624828159809
573.0,0.0,0.0,0.0,0.0,0.0,0.0,-0.009163864888250828,0.003949915990233421,0.003024245845153928,0.994702160358429,-0.09939571470022202,-0.02608882635831833,-0.0026592654176056385
574.0,0.0,0.0,0.0,0.0,0.0,0.0,-0.0022805011831223965,-0.02050488069653511,-6.538933666888624e-05,0.9941806793212891,-0.10489698499441147,-0.023859765380620956,-0.0057164207100868225
575.0,0.0,0.0,0.0,0.0,0.0,0.0,-0.022075101733207703,-0.020484168082475662,-0.0052202907390892506,0.9939375519752502,-0.10742130875587463,-0.022400444373488426,-0.0069280401803553104
576.0,0.0,0.0,0.0,0.0,0.0,0.0,0.01779112033545971,-0.031105725094676018,-0.024148205295205116,0.993634819984436,-0.11033075302839279,-0.021466633304953575,-0.007516852580010891
577.0,0.0,0.0,0.0,0.0,0.0,0.0,0.009452788159251213,-0.031695351004600525,-0.04082813113927841,0.9930564165115356,-0.11528269201517105,-0.020955082029104233,-0.010516664944589138
578.0,0.0,0.0,0.0,0.0,0.0,0.0,-0.03482107073068619,-0.0613282211124897,0.003975698724389076,0.9925301671028137,-0.11947252601385117,-0.021650848910212517,-0.011909020133316517
579.0,0.0,0.0,0.0,0.0,0.0,0.0,0.0010017220629379153,-0.018921073526144028,-0.005383223295211792,0.9923604130744934,-0.12079165875911713,-0.02230636402964592,-0.011541690677404404
580.0,0.0,0.0,0.0,0.0,0.0,0.0,-0.013391971588134766,-0.011327638290822506,0.007410493679344654,0.9925263524055481,-0.119663767516613,-0.02058080956339836,-0.012163673527538776
581.0,0.0,0.0,0.0,0.0,0.0,0.0,-0.020692555233836174,0.00769880460575223,0.03165178373456001,0.992862343788147,-0.11705971509218216,-0.018223324790596962,-0.013731828890740871
582.0,0.0,0.0,0.0,0.0,0.0,0.0,-0.023228345438838005,0.033899806439876556,0.03534012660384178,0.9933772683143616,-0.11303548514842987,-0.014906017109751701,-0.014227583073079586
583.0,0.0,0.0,0.0,0.0,0.0,0.0,0.003250647336244583,0.027441605925559998,-7.786576315993443e-05,0.9936735033988953,-0.1105523481965065,-0.012353474274277687,-0.015473519451916218
584.0,0.0,0.0,0.0,0.0,0.0,0.0,0.016362763941287994,0.009460821747779846,0.0017331186681985855,0.9937689304351807,-0.10952149331569672,-0.009487609378993511,-0.018369711935520172
585.0,0.0,0.0,0.0,0.0,0.0,0.0,-0.03171779587864876,0.019626207649707794,0.04149293527007103,0.9939539432525635,-0.10785230994224548,-0.006452202796936035,-0.01953866146504879
586.0,0.0,0.0,0.0,0.0,0.0,0.0,-0.004588460549712181,0.008612817153334618,0.009410370141267776,0.9942845702171326,-0.1047753244638443,-0.005452539771795273,-0.019790809601545334
587.0,0.0,0.0,0.0,0.0,0.0,0.0,0.027893129736185074,0.00908964965492487,-0.031779974699020386,0.9947159886360168,-0.10061780363321304,-0.0057113091461360455,-0.01959293894469738
588.0,0.0,0.0,0.0,0.0,0.0,0.0,-0.020651306957006454,0.053793441504240036,0.025212362408638,0.9952085614204407,-0.09567372500896454,-0.005025455262511969,-0.01955515332520008
589.0,0.0,0.0,0.0,0.0,0.0,0.0,-0.03131090849637985,0.04842362180352211,0.054195988923311234,0.9954356551170349,-0.09335187077522278,-0.005418688524514437,-0.019078560173511505
590.0,0.0,0.0,0.0,0.0,0.0,0.0,0.036862101405858994,0.00026857678312808275,-0.04672015830874443,0.99562007188797,-0.0913378894329071,-0.00611313059926033,-0.019020069390535355
591.0,0.0,0.0,0.0,0.0,0.0,0.0,-0.014065000228583813,0.034058135002851486,0.005930730141699314,0.9957879185676575,-0.08907590061426163,-0.004851063247770071,-0.021174410358071327
592.0,0.0,0.0,0.0,0.0,0.0,0.0,-0.01450911071151495,0.030663438141345978,0.02776980958878994,0.995779812335968,-0.0885428637266159,-0.004531217738986015,-0.023690542206168175
593.0,0.0,0.0,0.0,0.0,0.0,0.0,0.004318738356232643,0.019265487790107727,-0.01213077176362276,0.9958975315093994,-0.08722510188817978,-0.0039055533707141876,-0.0237449761480093
594.0,0.0,0.0,0.0,0.0,0.0,0.0,0.001950773992575705,0.013420626521110535,0.020213818177580833,0.9960864186286926,-0.08553033322095871,-0.003456507343798876,-0.022024929523468018
595.0,0.0,0.0,0.0,0.0,0.0,0.0,0.006742216646671295,0.02766224555671215,-0.005566651001572609,0.9962249994277954,-0.0842997282743454,-0.002716289833188057,-0.020548297092318535
596.0,0.0,0.0,0.0,0.0,0.0,0.0,0.006498160772025585,0.016430092975497246,0.003315684385597706,0.996226966381073,-0.08394287526607513,-0.0019563017413020134,-0.021937210112810135
597.0,0.0,0.0,0.0,0.0,0.0,0.0,0.008982596918940544,0.009902316145598888,-0.00021996066789142787,0.9962998628616333,-0.08275677263736725,-0.0014796352479606867,-0.02314094826579094
598.0,0.0,0.0,0.0,0.0,0.0,0.0,0.01627582125365734,0.004695017356425524,-0.005357822403311729,0.9964147210121155,-0.08092224597930908,-0.001056686625815928,-0.024635951966047287
599.0,0.0,0.0,0.0,0.0,0.0,0.0,0.0013771920930594206,0.003242421429604292,0.016289561986923218,0.9965134859085083,-0.0792708545923233,-0.00040394984534941614,-0.026017025113105774
600.0,0.0,0.0,0.0,0.0,0.0,0.0,-0.0005147202755324543,0.006025857757776976,0.011466702446341515,0.9967252612113953,-0.07670038938522339,0.0009533556876704097,-0.02557835355401039
601.0,0.0,0.0,0.0,0.0,0.0,0.0,-0.003165807109326124,0.0053290752694010735,0.034260522574186325,0.9969592094421387,-0.07361052930355072,0.004012443590909243,-0.025266004726290703
602.0,0.0,0.0,0.0,0.0,0.0,0.0,0.008547525852918625,0.0035384520888328552,-0.013506634160876274,0.997080385684967,-0.0712980180978775,0.005919355899095535,-0.026675589382648468
603.0,0.0,0.0,0.0,0.0,0.0,0.0,-0.009227754548192024,-0.007355064153671265,0.017229530960321426,0.9971245527267456,-0.06924306601285934,0.009991766884922981,-0.02912982925772667
604.0,0.0,0.0,0.0,0.0,0.0,0.0,0.02025311440229416,-0.019801294431090355,0.0005381708033382893,0.9970411062240601,-0.06878400593996048,0.012043535709381104,-0.03212535008788109
605.0,0.0,0.0,0.0,0.0,0.0,0.0,0.028651559725403786,-0.039524663239717484,-0.044075533747673035,0.9971680045127869,-0.06679493933916092,0.01251772791147232,-0.03221624717116356
606.0,0.0,0.0,0.0,0.0,0.0,0.0,-0.010342465713620186,-0.025303535163402557,0.019191352650523186,0.9973775148391724,-0.06439949572086334,0.014437656849622726,-0.02969931811094284
607.0,0.0,0.0,0.0,0.0,0.0,0.0,0.012962186709046364,-0.017088405787944794,-0.006517891772091389,0.9975091218948364,-0.06259172409772873,0.016062181442975998,-0.028277695178985596
608.0,0.0,0.0,0.0,0.0,0.0,0.0,0.036975935101509094,-0.045033082365989685,-0.043770208954811096,0.9975494146347046,-0.06160128861665726,0.016977956518530846,-0.028496969491243362
609.0,0.0,0.0,0.0,0.0,0.0,0.0,-0.001013454282656312,-0.015869712457060814,0.004881701897829771,0.9975488781929016,-0.0604090541601181,0.018254131078720093,-0.03023558109998703
610.0,0.0,0.0,0.0,0.0,0.0,0.0,0.0017108407337218523,-0.029556576162576675,0.0042954497039318085,0.9973637461662292,-0.062109094113111496,0.018480123952031136,-0.03265038877725601
611.0,0.0,0.0,0.0,0.0,0.0,0.0,0.014682290144264698,-0.01309047732502222,-0.012185093946754932,0.9973515272140503,-0.06228329986333847,0.01930997706949711,-0.03221241757273674
612.0,0.0,0.0,0.0,0.0,0.0,0.0,-0.011440361849963665,0.004558384884148836,0.019849492236971855,0.9974151849746704,-0.06155484542250633,0.020697101950645447,-0.030758079141378403
613.0,0.0,0.0,0.0,0.0,0.0,0.0,-0.006869512610137463,-0.013810642063617706,0.02258574403822422,0.9973651766777039,-0.0620298832654953,0.022381862625479698,-0.030236925929784775
614.0,0.0,0.0,0.0,0.0,0.0,0.0,0.01863461546599865,-0.03207244351506233,-0.003328791819512844,0.9973316788673401,-0.06149626895785332,0.024002952501177788,-0.031180251389741898
615.0,0.0,0.0,0.0,0.0,0.0,0.0,0.02406262420117855,-0.0367138534784317,-0.00913962721824646,0.9972782731056213,-0.06039195880293846,0.024482486769557,-0.03448822721838951
616.0,0.0,0.0,0.0,0.0,0.0,0.0,0.009888858534395695,-0.011148720048367977,0.002194808330386877,0.9970983862876892,-0.060217346996068954,0.024365877732634544,-0.039683785289525986
617.0,0.0,0.0,0.0,0.0,0.0,0.0,0.016228172928094864,-0.02326231636106968,0.0002074364310828969,0.9968550801277161,-0.060901641845703125,0.02384394407272339,-0.04474799335002899
618.0,0.0,0.0,0.0,0.0,0.0,0.0,0.01617538556456566,-0.020645711570978165,-0.002810889156535268,0.9968262314796448,-0.06052396446466446,0.02187277190387249,-0.04686475917696953
619.0,0.0,0.0,0.0,0.0,0.0,0.0,0.007160102482885122,-0.006633036304265261,0.017913389950990677,0.9967945218086243,-0.060211773961782455,0.019997501745820045,-0.048738058656454086
620.0,0.0,0.0,0.0,0.0,0.0,0.0,0.015413008630275726,-0.012222884222865105,-0.0023905220441520214,0.9966890811920166,-0.06083514541387558,0.01763060875236988,-0.05098831281065941
621.0,0.0,0.0,0.0,0.0,0.0,0.0,-0.0016780326841399074,-0.009419387206435204,0.001484393491409719,0.9965064525604248,-0.06242440268397331,0.01592143066227436,-0.05314676836133003
622.0,0.0,0.0,0.0,0.0,0.0,0.0,0.004447123035788536,-0.02230987325310707,0.0036394542548805475,0.9961689710617065,-0.06475517153739929,0.013986382633447647,-0.05709175020456314
623.0,0.0,0.0,0.0,0.0,0.0,0.0,0.0015305414563044906,-0.008865353651344776,0.004381302744150162,0.9958707690238953,-0.06652142852544785,0.012538723647594452,-0.060493361204862595
624.0,0.0,0.0,0.0,0.0,0.0,0.0,-0.019965851679444313,0.010382716543972492,0.011088794097304344,0.9957588315010071,-0.06707527488470078,0.012124383822083473,-0.061793651431798935
625.0,0.0,0.0,0.0,0.0,0.0,0.0,-0.015441917814314365,0.014420890249311924,0.011020979844033718,0.9958158731460571,-0.06720439344644547,0.010960212908685207,-0.06094417721033096
626.0,0.0,0.0,0.0,0.0,0.0,0.0,-0.005766191054135561,0.006578726693987846,-0.010405273176729679,0.9957507848739624,-0.06842159479856491,0.009733484126627445,-0.06086505949497223
627.0,0.0,0.0,0.0,0.0,0.0,0.0,-0.014791594818234444,-0.0008254285203292966,0.008987681940197945,0.9956670999526978,-0.06996828317642212,0.009659809060394764,-0.06049874797463417
628.0,0.0,0.0,0.0,0.0,0.0,0.0,-0.03841220587491989,0.022735679522156715,0.014938526786863804,0.995628833770752,-0.07094158232212067,0.010635650716722012,-0.05981583520770073
629.0,0.0,0.0,0.0,0.0,0.0,0.0,-0.014190255664288998,0.012627869844436646,0.004783602897077799,0.9955623745918274,-0.07156459242105484,0.011786064133048058,-0.059970565140247345
630.0,0.0,0.0,0.0,0.0,0.0,0.0,-0.0037669080775231123,0.013954158872365952,-0.004892198368906975,0.9954264760017395,-0.0726250559091568,0.01185611356049776,-0.06091174855828285
631.0,0.0,0.0,0.0,0.0,0.0,0.0,-0.0052500455640256405,0.012355895712971687,-0.01490851491689682,0.9953070282936096,-0.07377869635820389,0.010875610634684563,-0.06165927276015282
632.0,0.0,0.0,0.0,0.0,0.0,0.0,0.012576432898640633,-0.014946927316486835,-0.012513209134340286,0.9952628016471863,-0.07476646453142166,0.009270952083170414,-0.06145823374390602
633.0,0.0,0.0,0.0,0.0,0.0,0.0,-0.00456220842897892,0.0018460658611729741,-0.0008781156502664089,0.9954550266265869,-0.07482600957155228,0.0064070760272443295,-0.058569177985191345
634.0,0.0,0.0,0.0,0.0,0.0,0.0,-0.02758782170712948,0.012423600070178509,0.015363669954240322,0.9956803917884827,-0.07520368695259094,0.0034803820308297873,-0.05433616414666176
635.0,0.0,0.0,0.0,0.0,0.0,0.0,-0.031879525631666183,0.011969262734055519,0.01598728448152542,0.9959142208099365,-0.07500558346509933,0.0013948247069492936,-0.0502837635576725
636.0,0.0,0.0,0.0,0.0,0.0,0.0,-0.04386323317885399,0.020770350471138954,0.022103965282440186,0.9960799813270569,-0.07399751245975494,0.0006649175775237381,-0.048453375697135925
637.0,0.0,0.0,0.0,0.0,0.0,0.0,-0.05375728756189346,0.01656767539680004,0.03114674985408783,0.9960898160934448,-0.07343696057796478,-0.0009135713917203248,-0.049102168530225754
638.0,0.0,0.0,0.0,0.0,0.0,0.0,-0.02948911115527153,0.008396637625992298,0.0029625464230775833,0.9960925579071045,-0.07268528640270233,-0.0043432870879769325,-0.04997151717543602
639.0,0.0,0.0,0.0,0.0,0.0,0.0,-0.02744232304394245,-0.014593973755836487,0.0014163614250719547,0.9960031509399414,-0.0726184993982315,-0.008767266757786274,-0.05125745013356209
640.0,0.0,0.0,0.0,0.0,0.0,0.0,-0.015654705464839935,-0.018978841602802277,-0.027797313407063484,0.9957112669944763,-0.07434049248695374,-0.01586657017469406,-0.05274514481425285
641.0,0.0,0.0,0.0,0.0,0.0,0.0,-0.052771490067243576,-0.02250620350241661,0.016202213242650032,0.9955455660820007,-0.07555672526359558,-0.019689535722136497,-0.05286112800240517
642.0,0.0,0.0,0.0,0.0,0.0,0.0,-0.0544450469315052,0.01055442076176405,0.03896288201212883,0.9958367943763733,-0.07411084324121475,-0.01844099350273609,-0.04975805804133415
643.0,0.0,0.0,0.0,0.0,0.0,0.0,-0.01003645546734333,-0.021422263234853745,-0.023111220449209213,0.9961490631103516,-0.0727958157658577,-0.015204154886305332,-0.046447813510894775
644.0,0.0,0.0,0.0,0.0,0.0,0.0,0.015333294868469238,-0.053270600736141205,-0.03466915339231491,0.9961951375007629,-0.07315527647733688,-0.01197001151740551,-0.04583270102739334
645.0,0.0,0.0,0.0,0.0,0.0,0.0,-0.03445879742503166,-0.01479365024715662,-0.004268627148121595,0.9962064623832703,-0.07314910739660263,-0.007339405827224255,-0.0465603731572628
646.0,0.0,0.0,0.0,0.0,0.0,0.0,-0.013838828541338444,-0.025808632373809814,-0.02148604393005371,0.9961376190185547,-0.07288528978824615,-0.0034269660245627165,-0.04884644225239754
647.0,0.0,0.0,0.0,0.0,0.0,0.0,0.025118956342339516,-0.04681715741753578,-0.05797834321856499,0.9960427284240723,-0.0727168545126915,-0.0011249169474467635,-0.051097702234983444
648.0,0.0,0.0,0.0,0.0,0.0,0.0,0.000575276673771441,-0.027843333780765533,-0.03754596784710884,0.9959527850151062,-0.07309632003307343,0.0011449367739260197,-0.05227845162153244
649.0,0.0,0.0,0.0,0.0,0.0,0.0,-0.015617089346051216,0.0028217718936502934,-0.016939621418714523,0.9959123134613037,-0.07296044379472733,0.003739694133400917,-0.053119271993637085
650.0,0.0,0.0,0.0,0.0,0.0,0.0,-0.020905394107103348,-0.013025607913732529,-0.017294803634285927,0.9958547949790955,-0.07308238744735718,0.007535349112004042,-0.053631581366062164
651.0,0.0,0.0,0.0,0.0,0.0,0.0,-0.025048237293958664,0.002231448423117399,-0.009033850394189358,0.9958399534225464,-0.07300043106079102,0.009773668833076954,-0.05364434793591499
652.0,0.0,0.0,0.0,0.0,0.0,0.0,-0.01712321676313877,-0.012938027270138264,-0.0068997046910226345,0.9958087801933289,-0.07326891273260117,0.011566190980374813,-0.053509511053562164
653.0,0.0,0.0,0.0,0.0,0.0,0.0,-0.0052302926778793335,-0.0013205677969381213,0.0005452975165098906,0.9957342147827148,-0.07373132556676865,0.01230024453252554,-0.054095856845378876
654.0,0.0,0.0,0.0,0.0,0.0,0.0,-0.007571515627205372,0.007877226918935776,-0.007725744508206844,0.9957372546195984,-0.07352045178413391,0.011786631308495998,-0.0544348768889904
655.0,0.0,0.0,0.0,0.0,0.0,0.0,0.012514820322394371,0.0009763707057572901,-0.01596999168395996,0.9959953427314758,-0.07185424119234085,0.011031083762645721,-0.052052728831768036
656.0,0.0,0.0,0.0,0.0,0.0,0.0,0.017297714948654175,0.015244645066559315,-0.015650974586606026,0.9962881207466125,-0.07033181190490723,0.009921950288116932,-0.048625193536281586
657.0,0.0,0.0,0.0,0.0,0.0,0.0,0.017980655655264854,0.022296637296676636,-0.013897579163312912,0.9964484572410583,-0.06947628408670425,0.008405851200222969,-0.046829674392938614
658.0,0.0,0.0,0.0,0.0,0.0,0.0,0.006567005068063736,0.03427690267562866,-0.009713730774819851,0.9964932799339294,-0.06891792267560959,0.0075222342275083065,-0.04684968665242195
659.0,0.0,0.0,0.0,0.0,0.0,0.0,-0.022165577858686447,0.04542211815714836,0.01499000284820795,0.9964864253997803,-0.06872077286243439,0.007442173548042774,-0.04728767275810242
660.0,0.0,0.0,0.0,0.0,0.0,0.0,-0.04048170521855354,0.060994166880846024,0.018140794709324837,0.9965001940727234,-0.06827295571565628,0.007092833984643221,-0.04769395664334297
661.0,0.0,0.0,0.0,0.0,0.0,0.0,-0.06192593649029732,0.06501860916614532,0.027571802958846092,0.9965801239013672,-0.06807243824005127,0.007489140145480633,-0.04624710977077484
662.0,0.0,0.0,0.0,0.0,0.0,0.0,-0.05028197914361954,0.07510197907686234,0.03268226236104965,0.9967638254165649,-0.06753511726856232,0.008514346554875374,-0.04275911673903465
663.0,0.0,0.0,0.0,0.0,0.0,0.0,-0.03102426789700985,0.06052478402853012,0.027360137552022934,0.9969520568847656,-0.06619077175855637,0.010350105352699757,-0.039990026503801346
664.0,0.0,0.0,0.0,0.0,0.0,0.0,-0.028705598786473274,0.04109679535031319,0.024953603744506836,0.9970293045043945,-0.06574652343988419,0.011467628180980682,-0.03845921531319618
665.0,0.0,0.0,0.0,0.0,0.0,0.0,-0.005623389035463333,0.009127830155193806,0.015950895845890045,0.9970216751098633,-0.06549598276615143,0.011204606853425503,-0.039148736745119095
666.0,0.0,0.0,0.0,0.0,0.0,0.0,0.02285008877515793,-0.016394449397921562,-0.017775235697627068,0.9970463514328003,-0.06479211151599884,0.0105779143050313,-0.039869241416454315
667.0,0.0,0.0,0.0,0.0,0.0,0.0,0.026464827358722687,-0.0316392220556736,-0.04521825537085533,0.9970882534980774,-0.06484999507665634,0.008446328341960907,-0.039214592427015305
668.0,0.0,0.0,0.0,0.0,0.0,0.0,0.024292021989822388,-0.05461287498474121,-0.012905669398605824,0.9970930814743042,-0.0659661814570427,0.005065225996077061,-0.03779047355055809
669.0,0.0,0.0,0.0,0.0,0.0,0.0,0.004904619418084621,-0.062454309314489365,0.0025054169818758965,0.9970456957817078,-0.0676758661866188,0.00034096662420779467,-0.03631836920976639
670.0,0.0,0.0,0.0,0.0,0.0,0.0,0.0006009539938531816,-0.0547017902135849,-0.00949909072369337,0.9969275593757629,-0.0695401206612587,-0.006835834588855505,-0.035400308668613434
671.0,0.0,0.0,0.0,0.0,0.0,0.0,-0.01774163916707039,-0.041111335158348083,-0.040531039237976074,0.9967101812362671,-0.07191013544797897,-0.014494688250124454,-0.03444831445813179
672.0,0.0,0.0,0.0,0.0,0.0,0.0,-0.05039271339774132,-0.02845941297709942,0.015830261632800102,0.9965456128120422,-0.07403018325567245,-0.019551940262317657,-0.03216055408120155
673.0,0.0,0.0,0.0,0.0,0.0,0.0,-0.04869742691516876,-0.00922485813498497,0.016874250024557114,0.9963225722312927,-0.07578376680612564,-0.025336971506476402,-0.030942853540182114
674.0,0.0,0.0,0.0,0.0,0.0,0.0,-0.03999802842736244,-0.010269375517964363,0.008821751922369003,0.99623042345047,-0.07658306509256363,-0.027453837916254997,-0.030124664306640625
675.0,0.0,0.0,0.0,0.0,0.0,0.0,-0.04810404032468796,-0.013772370293736458,0.010124578140676022,0.9960817694664001,-0.07791554927825928,-0.027973288670182228,-0.031121253967285156
676.0,0.0,0.0,0.0,0.0,0.0,0.0,-0.018108170479536057,-0.027313251048326492,-0.01207326166331768,0.995921790599823,-0.07886951416730881,-0.02970784157514572,-0.03221204876899719
677.0,0.0,0.0,0.0,0.0,0.0,0.0,-0.020279640331864357,-0.0173104926943779,-0.01727500557899475,0.9959285259246826,-0.07866638153791428,-0.03146081790328026,-0.03079761378467083
678.0,0.0,0.0,0.0,0.0,0.0,0.0,-0.06454414874315262,-0.03423897176980972,0.1422789841890335,0.9960958361625671,-0.07814023643732071,-0.03119371086359024,-0.02672187052667141
679.0,0.0,0.0,0.0,0.0,0.0,0.0,-0.04059690982103348,-0.01271639671176672,0.037076760083436966,0.996353268623352,-0.0767282024025917,-0.03094993159174919,-0.020853549242019653
680.0,0.0,0.0,0.0,0.0,0.0,0.0,-0.05613190308213234,0.0047431704588234425,0.04639767110347748,0.9966250061988831,-0.07539824396371841,-0.029562994837760925,-0.01337924599647522
681.0,0.0,0.0,0.0,0.0,0.0,0.0,-0.07303254306316376,0.04866566136479378,0.011826100759208202,0.9967334270477295,-0.07515274733304977,-0.028798943385481834,-0.0067121973261237144
682.0,0.0,0.0,0.0,0.0,0.0,0.0,-0.05402625352144241,0.05066860094666481,0.011991189792752266,0.9966946244239807,-0.07546890527009964,-0.0299612395465374,-0.0024517306592315435
683.0,0.0,0.0,0.0,0.0,0.0,0.0,-0.011367667466402054,0.008430220186710358,0.014129141345620155,0.9965894222259521,-0.0753147229552269,-0.0337468646466732,-0.0006823602598160505
684.0,0.0,0.0,0.0,0.0,0.0,0.0,0.016714701429009438,-0.012256097979843616,-0.000609779788646847,0.9966740608215332,-0.07293562591075897,-0.036246027797460556,0.0024500139988958836
685.0,0.0,0.0,0.0,0.0,0.0,0.0,0.009989785961806774,-0.010213229805231094,-0.005722018424421549,0.9969092607498169,-0.06856472790241241,-0.03814320266246796,0.004049071576446295
686.0,0.0,0.0,0.0,0.0,0.0,0.0,0.02198607288300991,-0.009132076054811478,-0.021430589258670807,0.9970128536224365,-0.06363821029663086,-0.04365910589694977,0.0029542571865022182
687.0,0.0,0.0,0.0,0.0,0.0,0.0,-0.012120893225073814,0.005027676001191139,0.020399654284119606,0.99738609790802,-0.05829710513353348,-0.04259775951504707,0.0027504393365234137
688.0,0.0,0.0,0.0,0.0,0.0,0.0,-0.042865391820669174,0.028749341145157814,0.06215948984026909,0.9978380799293518,-0.05426221340894699,-0.03707687929272652,0.0005832218448631465
689.0,0.0,0.0,0.0,0.0,0.0,0.0,-0.03236173465847969,0.052025631070137024,-0.0016917166067287326,0.9980090856552124,-0.0523030050098896,-0.0349775031208992,-0.004442347679287195
690.0,0.0,0.0,0.0,0.0,0.0,0.0,-0.026063092052936554,-0.0034300843253731728,-0.0461711585521698,0.9974339008331299,-0.05791180580854416,-0.04058116674423218,-0.011219177395105362
691.0,0.0,0.0,0.0,0.0,0.0,0.0,0.013567918911576271,-0.059257980436086655,-0.006024575792253017,0.9966028332710266,-0.06547270715236664,-0.047086916863918304,-0.016697030514478683
692.0,0.0,0.0,0.0,0.0,0.0,0.0,0.006941851228475571,-0.06053530424833298,0.005764036439359188,0.996243953704834,-0.0709078386425972,-0.04755108430981636,-0.014467393048107624
693.0,0.0,0.0,0.0,0.0,0.0,0.0,-0.06094347685575485,0.016006063669919968,0.008716576732695103,0.99649578332901,-0.07235509157180786,-0.0413130521774292,-0.0074090296402573586
694.0,0.0,0.0,0.0,0.0,0.0,0.0,0.08470436930656433,-0.03538789227604866,-0.11675422638654709,0.9963207840919495,-0.07397709041833878,-0.04316955432295799,-0.0028014210984110832
695.0,0.0,0.0,0.0,0.0,0.0,0.0,0.051760587841272354,-0.07783440500497818,-0.0364096499979496,0.9964773058891296,-0.07255815714597702,-0.0420227013528347,-0.0015934938564896584
696.0,0.0,0.0,0.0,0.0,0.0,0.0,0.003391687525436282,-0.02110798843204975,0.007598184049129486,0.996721625328064,-0.07011589407920837,-0.04027257487177849,-0.0028437681030482054
697.0,0.0,0.0,0.0,0.0,0.0,0.0,-0.054854895919561386,0.029261937364935875,0.006781171075999737,0.9971166253089905,-0.06798090785741806,-0.03370301425457001,0.0005604859325103462
698.0,0.0,0.0,0.0,0.0,0.0,0.0,-0.021662909537553787,-0.030007820576429367,0.025031832978129387,0.9972031116485596,-0.06916061788797379,-0.02756633795797825,0.006467295344918966
699.0,0.0,0.0,0.0,0.0,0.0,0.0,0.018210310488939285,-0.029449597001075745,-0.021906711161136627,0.9973626136779785,-0.06774923950433731,-0.021698102355003357,0.014402627944946289
700.0,0.0,0.0,0.0,0.0,0.0,0.0,0.037705302238464355,-0.022549865767359734,-0.023977037519216537,0.9976205229759216,-0.06610426306724548,-0.013536904938519001,0.014153687283396721
701.0,0.0,0.0,0.0,0.0,0.0,0.0,0.034581560641527176,-0.01611964963376522,-0.033217839896678925,0.9976403117179871,-0.06777571886777878,-0.006764301564544439,0.008677809499204159
702.0,0.0,0.0,0.0,0.0,0.0,0.0,-0.01138312742114067,-0.004084030631929636,0.015593443997204304,0.9977110028266907,-0.06707092374563217,-0.0023822870571166277,0.008299519307911396
703.0,0.0,0.0,0.0,0.0,0.0,0.0,0.0025071273557841778,0.016863126307725906,0.03179661184549332,0.9978265166282654,-0.06536930054426193,0.0025140775833278894,0.008013713173568249
704.0,0.0,0.0,0.0,0.0,0.0,0.0,0.03764669597148895,0.004679212812334299,-0.013032454997301102,0.9978793859481812,-0.06478811055421829,0.004601189401000738,0.004327099304646254
705.0,0.0,0.0,0.0,0.0,0.0,0.0,0.06448489427566528,-0.020976537838578224,-0.08159984648227692,0.9980370402336121,-0.06251060962677002,0.0032035713084042072,-0.0022189293522387743
706.0,0.0,0.0,0.0,0.0,0.0,0.0,0.03360602259635925,-0.019406378269195557,-0.0236527007073164,0.9980032444000244,-0.062390148639678955,0.0005419173394329846,-0.009808768518269062
707.0,0.0,0.0,0.0,0.0,0.0,0.0,-0.017597904428839684,0.05118844658136368,0.049864254891872406,0.9977543354034424,-0.0653972327709198,-0.0002949588233605027,-0.014483251608908176
708.0,0.0,0.0,0.0,0.0,0.0,0.0,0.023993365466594696,0.002803904004395008,0.010234693996608257,0.9974610805511475,-0.06950879842042923,-0.0018374697538092732,-0.015335538424551487
709.0,0.0,0.0,0.0,0.0,0.0,0.0,0.053625550121068954,-0.019193992018699646,-0.071454256772995,0.9971415400505066,-0.07342355698347092,-0.00285124103538692,-0.017612675204873085
710.0,0.0,0.0,0.0,0.0,0.0,0.0,0.005653436295688152,0.002105252118781209,-0.010687015950679779,0.996544599533081,-0.07918745279312134,-0.003766257083043456,-0.024774257093667984
711.0,0.0,0.0,0.0,0.0,0.0,0.0,-0.0022111295256763697,-0.010550539009273052,0.012092976830899715,0.9960486888885498,-0.08362002670764923,-0.002479281509295106,-0.029804063960909843
712.0,0.0,0.0,0.0,0.0,0.0,0.0,-0.005904333665966988,0.009000834077596664,-0.0021076637785881758,0.9959465861320496,-0.08546992391347885,0.0004327421775087714,-0.0279852245002985
713.0,0.0,0.0,0.0,0.0,0.0,0.0,0.000572333752643317,-0.0024972090031951666,-0.009183988906443119,0.9960466623306274,-0.08537829667329788,0.002617891412228346,-0.024393999949097633
714.0,0.0,0.0,0.0,0.0,0.0,0.0,0.003046352881938219,0.010042899288237095,0.005015639588236809,0.9961652159690857,-0.08391798287630081,0.0037985872477293015,-0.02446531131863594
715.0,0.0,0.0,0.0,0.0,0.0,0.0,-0.002873432356864214,0.05709526315331459,0.008947791531682014,0.9960827827453613,-0.08357119560241699,0.00580069562420249,-0.028290672227740288
716.0,0.0,0.0,0.0,0.0,0.0,0.0,0.0007511374424211681,-0.003078786889091134,-0.00120038993190974,0.9957571625709534,-0.0858839899301529,0.007470008917152882,-0.03216922655701637
717.0,0.0,0.0,0.0,0.0,0.0,0.0,0.012844150885939598,-0.03724114969372749,-0.045315660536289215,0.9957880973815918,-0.08517660945653915,0.009483078494668007,-0.03257635235786438
718.0,0.0,0.0,0.0,0.0,0.0,0.0,-0.006723626051098108,0.0010911967838183045,-0.004810357000678778,0.9958928227424622,-0.08453945815563202,0.01038530096411705,-0.03069172613322735
719.0,0.0,0.0,0.0,0.0,0.0,0.0,-0.00632043881341815,-0.007086893543601036,0.010833288542926311,0.9959879517555237,-0.08397863805294037,0.010110406205058098,-0.02921028435230255
720.0,0.0,0.0,0.0,0.0,0.0,0.0,0.00014860906230751425,0.0054613822139799595,-0.019724182784557343,0.996188223361969,-0.0816054716706276,0.009397905319929123,-0.02932947315275669
721.0,0.0,0.0,0.0,0.0,0.0,0.0,-0.02168523147702217,0.014637048356235027,0.017073296010494232,0.9962083697319031,-0.08071302622556686,0.008563731797039509,-0.03131487965583801
722.0,0.0,0.0,0.0,0.0,0.0,0.0,-0.009159695357084274,-0.01233769953250885,0.006071305833756924,0.9960541725158691,-0.08201979845762253,0.006130392663180828,-0.03331942483782768
723.0,0.0,0.0,0.0,0.0,0.0,0.0,0.005123157519847155,-0.0073582883924245834,-0.003040154930204153,0.9961321949958801,-0.08151718229055405,0.0030370126478374004,-0.0326419398188591
724.0,0.0,0.0,0.0,0.0,0.0,0.0,-0.025700440630316734,0.031852468848228455,0.03251214325428009,0.9963919520378113,-0.07937391847372055,0.0014523131540045142,-0.030008133500814438
725.0,0.0,0.0,0.0,0.0,0.0,0.0,-0.032742928713560104,0.023469358682632446,0.025719599798321724,0.9967011213302612,-0.07640217244625092,0.0024557975120842457,-0.027261707931756973
726.0,0.0,0.0,0.0,0.0,0.0,0.0,-0.02233356237411499,0.005166111513972282,0.03273186832666397,0.9966763257980347,-0.07628034055233002,0.004607342649251223,-0.02822461910545826
727.0,0.0,0.0,0.0,0.0,0.0,0.0,0.018012482672929764,0.014960362575948238,0.018526175990700722,0.9967561960220337,-0.0740063264966011,0.007842959836125374,-0.030641179531812668
728.0,0.0,0.0,0.0,0.0,0.0,0.0,0.02245331183075905,-0.013691525906324387,-0.018220145255327225,0.9969660639762878,-0.0702284500002861,0.009962093085050583,-0.03203596547245979
729.0,0.0,0.0,0.0,0.0,0.0,0.0,-0.013238223269581795,-0.0006667048437520862,0.011646750383079052,0.9972615242004395,-0.06549288332462311,0.01434902474284172,-0.031223028898239136
730.0,0.0,0.0,0.0,0.0,0.0,0.0,-0.003590524662286043,0.006586249452084303,0.01840817742049694,0.9975762963294983,-0.061071764677762985,0.016886120662093163,-0.028751622885465622
731.0,0.0,0.0,0.0,0.0,0.0,0.0,-0.0017201784066855907,-0.022017544135451317,-0.00295626581646502,0.9977878332138062,-0.057642556726932526,0.020175453275442123,-0.026272716000676155
732.0,0.0,0.0,0.0,0.0,0.0,0.0,0.010792138054966927,-0.00635579414665699,-0.009402611292898655,0.9978220462799072,-0.05591770261526108,0.023470666259527206,-0.025938361883163452
733.0,0.0,0.0,0.0,0.0,0.0,0.0,0.03047172538936138,-0.008924734778702259,-0.028335047885775566,0.9977781772613525,-0.05529938265681267,0.025540539994835854,-0.026981163769960403
734.0,0.0,0.0,0.0,0.0,0.0,0.0,0.00989275611937046,-0.018918143585324287,-0.002978815231472254,0.997768223285675,-0.05450887978076935,0.02842249721288681,-0.026077231392264366
735.0,0.0,0.0,0.0,0.0,0.0,0.0,0.006502850446850061,-0.0098915109410882,-0.015461595728993416,0.9978032112121582,-0.05436445772647858,0.029858814552426338,-0.0232839435338974
736.0,0.0,0.0,0.0,0.0,0.0,0.0,0.004925879184156656,-0.003396646585315466,0.0034625818952918053,0.9979015588760376,-0.05336601287126541,0.03156004101037979,-0.018662577494978905
737.0,0.0,0.0,0.0,0.0,0.0,0.0,-0.0007946626865305007,0.0015401113778352737,0.01934545300900936,0.9979802966117859,-0.05261025205254555,0.032350458204746246,-0.014849008060991764
738.0,0.0,0.0,0.0,0.0,0.0,0.0,0.00886621419340372,-0.0016228130552917719,-0.007296071853488684,0.9980069398880005,-0.05257825925946236,0.032343048602342606,-0.01310361921787262
739.0,0.0,0.0,0.0,0.0,0.0,0.0,0.00892952736467123,-0.003066117875277996,-0.010307960212230682,0.9979864954948425,-0.05345149710774422,0.03164396435022354,-0.012853848747909069
740.0,0.0,0.0,0.0,0.0,0.0,0.0,0.01906820945441723,-0.015119623392820358,-0.014856056310236454,0.997961699962616,-0.05565720796585083,0.02781246043741703,-0.014179359190165997
741.0,0.0,0.0,0.0,0.0,0.0,0.0,-0.0033747905399650335,-0.009272455237805843,-0.023368943482637405,0.9978451132774353,-0.0598641112446785,0.021560166031122208,-0.01604253426194191
742.0,0.0,0.0,0.0,0.0,0.0,0.0,-0.01384731288999319,-0.011838462203741074,-0.0038085414562374353,0.9977569580078125,-0.06315375864505768,0.014548339881002903,-0.0167852770537138
743.0,0.0,0.0,0.0,0.0,0.0,0.0,-0.04887652024626732,0.01515720970928669,0.045671574771404266,0.9978076815605164,-0.06344740092754364,0.00910163763910532,-0.016463596373796463
744.0,0.0,0.0,0.0,0.0,0.0,0.0,0.007114404812455177,-0.014002581126987934,-0.01525305025279522,0.9977666735649109,-0.06430249661207199,0.004530828446149826,-0.017527759075164795
745.0,0.0,0.0,0.0,0.0,0.0,0.0,-0.0078994520008564,-0.023028843104839325,-0.011460170149803162,0.9976487159729004,-0.06561735272407532,0.002757251262664795,-0.019592896103858948
746.0,0.0,0.0,0.0,0.0,0.0,0.0,-0.03492267057299614,0.0016690240008756518,0.030458886176347733,0.9974993467330933,-0.06729056686162949,0.0012630015844479203,-0.021599270403385162
747.0,0.0,0.0,0.0,0.0,0.0,0.0,-0.01614742912352085,0.00017993613437283784,0.008570739068090916,0.9975172281265259,-0.06737061589956284,0.0010937419719994068,-0.02047843672335148
748.0,0.0,0.0,0.0,0.0,0.0,0.0,-0.024906249716877937,-0.004354477860033512,0.0024294580798596144,0.9975419044494629,-0.06755480170249939,0.0010170331224799156,-0.01857771724462509
749.0,0.0,0.0,0.0,0.0,0.0,0.0,-0.026793258264660835,0.0005561599391512573,0.01868259906768799,0.997538685798645,-0.06788799166679382,0.0004598298401106149,-0.017540723085403442
750.0,0.0,0.0,0.0,0.0,0.0,0.0,-0.01497493963688612,0.0006700719241052866,0.008622551336884499,0.9975255131721497,-0.06788543611764908,0.000757737027015537,-0.018277889117598534
751.0,0.0,0.0,0.0,0.0,0.0,0.0,-0.03566327318549156,-0.0005217583384364843,0.020726054906845093,0.9974476099014282,-0.06822637468576431,0.0017934665083885193,-0.021007167175412178
752.0,0.0,0.0,0.0,0.0,0.0,0.0,-0.0252478439360857,-0.006124377716332674,0.012707692570984364,0.997378945350647,-0.06881863623857498,0.0033572521060705185,-0.022105520591139793
753.0,0.0,0.0,0.0,0.0,0.0,0.0,-0.016201989725232124,-0.008963122963905334,0.008738313801586628,0.9973840713500977,-0.06899118423461914,0.005508465692400932,-0.02081543765962124
754.0,0.0,0.0,0.0,0.0,0.0,0.0,-0.026908433064818382,0.003108787350356579,0.00982761662453413,0.9973651170730591,-0.06954612582921982,0.0067042079754173756,-0.019525911659002304
755.0,0.0,0.0,0.0,0.0,0.0,0.0,-0.000274088466539979,-0.013649320229887962,-0.010906104929745197,0.9973747134208679,-0.06958188116550446,0.0073149921372532845,-0.018678031861782074
756.0,0.0,0.0,0.0,0.0,0.0,0.0,-0.014570639468729496,-0.0053260414861142635,-0.004635421093553305,0.9974059462547302,-0.06914990395307541,0.0074732364155352116,-0.018547579646110535
757.0,0.0,0.0,0.0,0.0,0.0,0.0,-0.04132808744907379,0.024648047983646393,0.029174836352467537,0.9973748326301575,-0.06944698840379715,0.0074400207959115505,-0.019131241366267204
758.0,0.0,0.0,0.0,0.0,0.0,0.0,0.007584333419799805,-0.01293322816491127,-0.006818993482738733,0.9973851442337036,-0.06947869807481766,0.005868511740118265,-0.019023122265934944
759.0,0.0,0.0,0.0,0.0,0.0,0.0,-0.019182154908776283,0.01099566463381052,0.010249427519738674,0.997603714466095,-0.06718587875366211,0.004401500802487135,-0.01590525545179844
760.0,0.0,0.0,0.0,0.0,0.0,0.0,-0.026526281610131264,0.0295658390969038,0.03614672273397446,0.9978656768798828,-0.06417632848024368,0.0025497316382825375,-0.011814429424703121
761.0,0.0,0.0,0.0,0.0,0.0,0.0,0.018379902467131615,0.013544219546020031,-0.00577078340575099,0.9982697367668152,-0.05834225192666054,0.0011077356757596135,-0.007222996558994055
762.0,0.0,0.0,0.0,0.0,0.0,0.0,0.0293006282299757,-0.003275305964052677,-0.025450341403484344,0.9985449910163879,-0.05332731083035469,-0.0027958315331488848,-0.007522584870457649
763.0,0.0,0.0,0.0,0.0,0.0,0.0,-0.003404991701245308,-0.003690998535603285,-0.008928853087127209,0.9986602663993835,-0.05021178349852562,-0.006669146940112114,-0.010610070079565048
764.0,0.0,0.0,0.0,0.0,0.0,0.0,-0.019361145794391632,-0.015596207231283188,0.015008601360023022,0.9987354278564453,-0.047724977135658264,-0.010146761313080788,-0.012157908640801907
765.0,0.0,0.0,0.0,0.0,0.0,0.0,-0.03198189660906792,0.005270307417958975,0.049149561673402786,0.9989957809448242,-0.042686816304922104,-0.010118125006556511,-0.009098968468606472
766.0,0.0,0.0,0.0,0.0,0.0,0.0,0.008223656564950943,-0.02149190567433834,-0.01751093566417694,0.9991505742073059,-0.03912539780139923,-0.01141634676605463,-0.006138124968856573
767.0,0.0,0.0,0.0,0.0,0.0,0.0,-0.004257356747984886,-0.029706023633480072,-0.006989696994423866,0.9992117881774902,-0.03759225085377693,-0.011027345433831215,-0.006397000979632139
768.0,0.0,0.0,0.0,0.0,0.0,0.0,0.00023543715360574424,-0.03635583445429802,-0.013692762702703476,0.9991457462310791,-0.03870905563235283,-0.012017681263387203,-0.008074569515883923
769.0,0.0,0.0,0.0,0.0,0.0,0.0,0.011495491489768028,-0.05764871463179588,-0.019300552085042,0.9990637898445129,-0.040622856467962265,-0.012942196801304817,-0.0073433141224086285
770.0,0.0,0.0,0.0,0.0,0.0,0.0,-0.011668182909488678,-0.011914211325347424,0.0029597957618534565,0.9990405440330505,-0.04163691774010658,-0.012872755527496338,-0.004251835402101278
771.0,0.0,0.0,0.0,0.0,0.0,0.0,-0.008493143133819103,-0.011980394832789898,0.019391102716326714,0.9989475011825562,-0.04402829706668854,-0.01289033517241478,-0.00029056810308247805
772.0,0.0,0.0,0.0,0.0,0.0,0.0,0.0064703174866735935,-0.01743941940367222,-0.00431407243013382,0.9989010095596313,-0.04514347016811371,-0.012457985430955887,0.0018256986513733864
773.0,0.0,0.0,0.0,0.0,0.0,0.0,0.0062002334743738174,0.00247994065284729,0.013132484629750252,0.998920202255249,-0.04529951512813568,-0.010038256645202637,0.0025910506956279278
774.0,0.0,0.0,0.0,0.0,0.0,0.0,0.007956755347549915,-0.012173546478152275,0.017292015254497528,0.9989539384841919,-0.04518180713057518,-0.00651130685582757,0.002663877559825778
775.0,0.0,0.0,0.0,0.0,0.0,0.0,0.014988082461059093,-0.007096935994923115,-0.002327451715245843,0.9990147948265076,-0.04420870542526245,-0.0029139399994164705,0.002599849132820964
776.0,0.0,0.0,0.0,0.0,0.0,0.0,0.002670520916581154,-0.016599174588918686,0.007260872516781092,0.9990132451057434,-0.04424748197197914,0.00100432219915092,0.00372395315207541
777.0,0.0,0.0,0.0,0.0,0.0,0.0,0.019455736503005028,-0.012014307081699371,-0.023966403678059578,0.998937726020813,-0.04578389227390289,0.004462942481040955,0.002727990038692951
778.0,0.0,0.0,0.0,0.0,0.0,0.0,0.04305112734436989,-0.010883689858019352,-0.0557747483253479,0.99882972240448,-0.0480901300907135,0.004958412144333124,-0.0015380383701995015
779.0,0.0,0.0,0.0,0.0,0.0,0.0,0.02951323613524437,-0.026975901797413826,-0.040333181619644165,0.9987120032310486,-0.0502694733440876,0.003956943284720182,-0.005577942356467247
780.0,0.0,0.0,0.0,0.0,0.0,0.0,0.009077680297195911,-0.016780465841293335,-0.021320486441254616,0.9985340237617493,-0.053476691246032715,0.0023611458018422127,-0.008018160238862038
781.0,0.0,0.0,0.0,0.0,0.0,0.0,0.014906506054103374,-0.007108522113412619,-0.008388476446270943,0.998379111289978,-0.05620025098323822,0.0019611427560448647,-0.008744013495743275
782.0,0.0,0.0,0.0,0.0,0.0,0.0,-0.14284563064575195,0.04825013875961304,0.04214277118444443,0.9983112812042236,-0.05692971497774124,0.0063612149097025394,-0.00962527934461832
783.0,0.0,0.0,0.0,0.0,0.0,0.0,-0.021758174523711205,0.0084610003978014,0.023327747359871864,0.9982235431671143,-0.05762544646859169,0.008889573626220226,-0.012271465733647346
784.0,0.0,0.0,0.0,0.0,0.0,0.0,0.024379756301641464,-0.0271269790828228,-0.025363819673657417,0.9981577396392822,-0.05829135701060295,0.007842599414288998,-0.014882015995681286
785.0,0.0,0.0,0.0,0.0,0.0,0.0,0.025462770834565163,-0.024322882294654846,-0.01069844514131546,0.9981711506843567,-0.057992737740278244,0.005909331142902374,-0.01603529416024685
786.0,0.0,0.0,0.0,0.0,0.0,0.0,-0.01079434435814619,0.0055626495741307735,0.006041244138032198,0.9982022643089294,-0.057575203478336334,0.0036159197334200144,-0.016271010041236877
787.0,0.0,0.0,0.0,0.0,0.0,0.0,-0.040075019001960754,0.017534201964735985,0.031197084113955498,0.9982889890670776,-0.05661100149154663,0.0010460041230544448,-0.014602895826101303
788.0,0.0,0.0,0.0,0.0,0.0,0.0,-0.02204127609729767,0.003142299596220255,0.027366777881979942,0.998234212398529,-0.05745309218764305,-0.0010317513952031732,-0.01505331415683031
789.0,0.0,0.0,0.0,0.0,0.0,0.0,-0.008662893436849117,0.00025966978864744306,0.005077993031591177,0.9981022477149963,-0.058818329125642776,-0.004251034930348396,-0.017704850062727928
790.0,0.0,0.0,0.0,0.0,0.0,0.0,-0.01926693692803383,0.00176249782089144,0.01918281614780426,0.9980689883232117,-0.058692336082458496,-0.006244678515940905,-0.019360262900590897
791.0,0.0,0.0,0.0,0.0,0.0,0.0,-0.005110232159495354,-0.00772912846878171,-0.00434832414612174,0.9981621503829956,-0.056981973350048065,-0.008803438395261765,-0.018666809424757957
792.0,0.0,0.0,0.0,0.0,0.0,0.0,-0.02101404033601284,-0.011797822080552578,0.021734314039349556,0.9982724785804749,-0.05544263869524002,-0.010029897093772888,-0.016672950237989426
793.0,0.0,0.0,0.0,0.0,0.0,0.0,-0.008537400513887405,-0.0011385453399270773,0.009875614196062088,0.9983927607536316,-0.05332222580909729,-0.011936893686652184,-0.015056797303259373
794.0,0.0,0.0,0.0,0.0,0.0,0.0,-0.029711566865444183,0.0038330804090946913,0.012058235704898834,0.9985783696174622,-0.05036855861544609,-0.011845417320728302,-0.012801366858184338
795.0,0.0,0.0,0.0,0.0,0.0,0.0,-0.03081699088215828,0.007052298169583082,0.01796729862689972,0.9986340403556824,-0.049579210579395294,-0.010905114002525806,-0.012364584021270275
796.0,0.0,0.0,0.0,0.0,0.0,0.0,-0.020105494186282158,0.007244944106787443,0.013554146513342857,0.9986505508422852,-0.04933973029255867,-0.009830383583903313,-0.012917653657495975
797.0,0.0,0.0,0.0,0.0,0.0,0.0,-0.019426017999649048,0.004399188328534365,0.0029775178991258144,0.9986802935600281,-0.048909302800893784,-0.008694661781191826,-0.013017342425882816
798.0,0.0,0.0,0.0,0.0,0.0,0.0,0.004012273624539375,-0.018687304109334946,-0.014414533041417599,0.9987531304359436,-0.04785366356372833,-0.007763937581330538,-0.011928905732929707
799.0,0.0,0.0,0.0,0.0,0.0,0.0,-0.01660674251616001,-0.0038565208669751883,-0.003676873631775379,0.9988529682159424,-0.04626568779349327,-0.00740033620968461,-0.00995419267565012
800.0,0.0,0.0,0.0,0.0,0.0,0.0,-0.015293852426111698,-0.001519403187558055,0.0017144150333479047,0.9989289045333862,-0.04485447332262993,-0.007779224775731564,-0.008250880055129528
801.0,0.0,0.0,0.0,0.0,0.0,0.0,-0.011713081039488316,-0.00818232074379921,0.005022635217756033,0.9989956021308899,-0.0436745285987854,-0.007355900481343269,-0.006863714661449194
802.0,0.0,0.0,0.0,0.0,0.0,0.0,-0.014516303315758705,-0.003757409518584609,0.0011090385960415006,0.9990706443786621,-0.042138706892728806,-0.007084741722792387,-0.005664054770022631
803.0,0.0,0.0,0.0,0.0,0.0,0.0,-0.003991850186139345,-0.0021538317669183016,0.005229491740465164,0.9991506338119507,-0.04049745574593544,-0.006337688770145178,-0.0041770306415855885
804.0,0.0,0.0,0.0,0.0,0.0,0.0,-0.0018984803464263678,-0.0014329692348837852,0.005815694574266672,0.9992367029190063,-0.038741227239370346,-0.00478567136451602,-0.0016357433050870895
805.0,0.0,0.0,0.0,0.0,0.0,0.0,-0.007194040808826685,0.0014783598016947508,-0.000661606842186302,0.9993072152137756,-0.03712465614080429,-0.0024771287571638823,0.0013426344376057386
806.0,0.0,0.0,0.0,0.0,0.0,0.0,0.00812897551804781,0.0033965918701142073,-0.01818682625889778,0.999386727809906,-0.03468313068151474,0.00021283436217345297,0.004788905847817659
807.0,0.0,0.0,0.0,0.0,0.0,0.0,0.013452291488647461,-0.008769272826611996,-0.023329725489020348,0.999416172504425,-0.033421989530324936,0.0007258161203935742,0.007019137032330036
808.0,0.0,0.0,0.0,0.0,0.0,0.0,0.014319817535579205,0.004253325518220663,-0.025808680802583694,0.9994288682937622,-0.03295760601758957,-4.177624578005634e-05,0.007473751436918974
809.0,0.0,0.0,0.0,0.0,0.0,0.0,-0.004551175516098738,0.0400419756770134,0.015398811548948288,0.9994752407073975,-0.031433552503585815,-0.001571475644595921,0.007771482691168785
810.0,0.0,0.0,0.0,0.0,0.0,0.0,0.0028648730367422104,-0.005293716676533222,-0.029488667845726013,0.9994960427284241,-0.030118891969323158,-0.004342548083513975,0.009047362022101879
811.0,0.0,0.0,0.0,0.0,0.0,0.0,0.02308974787592888,-0.01806514710187912,-0.05990554019808769,0.9994894862174988,-0.029540136456489563,-0.008182438090443611,0.009078185074031353
812.0,0.0,0.0,0.0,0.0,0.0,0.0,0.005358346272259951,0.011645137332379818,-0.041426945477724075,0.9994449019432068,-0.028773808851838112,-0.014382008463144302,0.008656317368149757
813.0,0.0,0.0,0.0,0.0,0.0,0.0,-0.014200958423316479,0.0009188019321300089,-0.014842758886516094,0.9993939995765686,-0.02698652446269989,-0.0201384536921978,0.008816501125693321
814.0,0.0,0.0,0.0,0.0,0.0,0.0,-0.05389329791069031,0.0276356041431427,0.03477105870842934,0.9993991255760193,-0.02309897355735302,-0.023261234164237976,0.011265991255640984
815.0,0.0,0.0,0.0,0.0,0.0,0.0,-0.04291533678770065,0.027690177783370018,0.05301059037446976,0.9994831681251526,-0.020283037796616554,-0.022240493446588516,0.011277168989181519
816.0,0.0,0.0,0.0,0.0,0.0,0.0,-0.04535230994224548,0.00747408252209425,0.04893261194229126,0.9996339678764343,-0.01907495968043804,-0.01756608486175537,0.007732508238404989
817.0,0.0,0.0,0.0,0.0,0.0,0.0,0.005502787418663502,-0.052116502076387405,-0.02855946309864521,0.9997069835662842,-0.019241198897361755,-0.01454429142177105,0.002161479787901044
818.0,0.0,0.0,0.0,0.0,0.0,0.0,0.021282006055116653,-0.06696529686450958,-0.06315143406391144,0.9996780753135681,-0.020788326859474182,-0.014078693464398384,-0.0036514357198029757
819.0,0.0,0.0,0.0,0.0,0.0,0.0,-0.028137866407632828,-0.04602429270744324,-0.004744763020426035,0.9995671510696411,-0.025144552811980247,-0.015175688080489635,-0.0019554635509848595
820.0,0.0,0.0,0.0,0.0,0.0,0.0,-0.014262295328080654,-0.06425852328538895,-0.024490907788276672,0.9993339776992798,-0.030527671799063683,-0.01961706019937992,0.0039813583716750145
821.0,0.0,0.0,0.0,0.0,0.0,0.0,-0.030722351744771004,-0.02999608777463436,-0.01530326809734106,0.9990052580833435,-0.03731859102845192,-0.022696521133184433,0.008971041068434715
822.0,0.0,0.0,0.0,0.0,0.0,0.0,0.01126012485474348,-0.01956978254020214,-0.025731416419148445,0.9987112879753113,-0.04404787719249725,-0.024149227887392044,0.0072390236891806126
823.0,0.0,0.0,0.0,0.0,0.0,0.0,-0.014270730316638947,0.010012439452111721,0.009929178282618523,0.9986121654510498,-0.04750356450676918,-0.022336190566420555,0.004314333200454712
824.0,0.0,0.0,0.0,0.0,0.0,0.0,-0.0252629853785038,0.010385620407760143,0.02466459944844246,0.9985259771347046,-0.04992382600903511,-0.021199842914938927,0.002062980318441987
825.0,0.0,0.0,0.0,0.0,0.0,0.0,0.013355840928852558,-0.028751958161592484,-0.00020657824643421918,0.9985907673835754,-0.0491521880030632,-0.01997101865708828,0.0012349089374765754
826.0,0.0,0.0,0.0,0.0,0.0,0.0,-0.03620599955320358,-0.011213249526917934,0.046729814261198044,0.9987218976020813,-0.04767308011651039,-0.016752755269408226,0.0012237431947141886
827.0,0.0,0.0,0.0,0.0,0.0,0.0,-0.055941976606845856,0.011756165884435177,0.06470191478729248,0.9989520907402039,-0.044538117945194244,-0.010467312298715115,0.001523844781331718
828.0,0.0,0.0,0.0,0.0,0.0,0.0,-0.02582867629826069,0.009474492631852627,0.04227361083030701,0.9991729259490967,-0.04052148386836052,-0.0028984223026782274,0.0015506644267588854
829.0,0.0,0.0,0.0,0.0,0.0,0.0,0.019207486882805824,0.0015721953241154552,0.0038993419148027897,0.9992780685424805,-0.037867069244384766,0.003080620663240552,-0.0003595991584006697
830.0,0.0,0.0,0.0,0.0,0.0,0.0,0.03814176470041275,0.008904778398573399,-0.024421771988272667,0.9993370175361633,-0.03550482168793678,0.007110894657671452,-0.0037391893565654755
831.0,0.0,0.0,0.0,0.0,0.0,0.0,-0.001485266606323421,0.005796476267278194,0.01907781884074211,0.9993731379508972,-0.033691003918647766,0.010122312232851982,-0.003976816777139902
832.0,0.0,0.0,0.0,0.0,0.0,0.0,0.009291977621614933,0.02014251984655857,0.002132187830284238,0.9994266629219055,-0.031568367034196854,0.012218035757541656,-0.000763833406381309
833.0,0.0,0.0,0.0,0.0,0.0,0.0,0.029408324509859085,0.011539428494870663,-0.005406977608799934,0.9994529485702515,-0.029678139835596085,0.01454236451536417,0.001442478271201253
834.0,0.0,0.0,0.0,0.0,0.0,0.0,0.02017282135784626,0.016626615077257156,-0.005514960736036301,0.9994785785675049,-0.028268635272979736,0.015595796518027782,0.0006843128940090537
835.0,0.0,0.0,0.0,0.0,0.0,0.0,0.011067627929151058,0.008398753590881824,-0.01070738397538662,0.9994908571243286,-0.027709465473890305,0.01578960195183754,-0.0008796780603006482
836.0,0.0,0.0,0.0,0.0,0.0,0.0,0.0027496099937707186,0.007003431208431721,0.0031654220074415207,0.9995269775390625,-0.02755199931561947,0.013605540618300438,-0.00122593913692981
837.0,0.0,0.0,0.0,0.0,0.0,0.0,-0.019012147560715675,0.029321875423192978,0.032232485711574554,0.9995771646499634,-0.026299437507987022,0.012235964648425579,0.002063229214400053
