,Position_X,Position_Y,Position_Z,Velocity_X,Velocity_Y,Velocity_Z,Acceleration_X,Acceleration_Y,Acceleration_Z,Quaterion_0,Quaterion_1,Quaterion_2,Quaterion_3
166.0,0.0,0.0,0.0,0.0,0.0,0.0,-0.0019159838557243347,-3.263354301452637e-05,-0.017779480665922165,1.0,-3.469446951953614e-18,-2.168404344971009e-17,-2.7755575615628914e-17
167.0,0.0,0.0,0.0,0.0,0.0,0.0,0.003921247087419033,-0.013505260460078716,-0.04795435443520546,0.9999969005584717,-0.0013764385366812348,0.002059330465272069,-0.0002036181540461257
168.0,0.0,0.0,0.0,0.0,0.0,0.0,0.06910310685634613,-0.03874422609806061,-0.08988293260335922,0.9999917149543762,-0.0035847958642989397,0.001141199143603444,0.0015550384996458888
169.0,0.0,0.0,0.0,0.0,0.0,0.0,0.04434036463499069,-0.01871490478515625,-0.04578135907649994,0.9999777674674988,-0.005977952387183905,0.000214570332900621,0.0029550492763519287
170.0,0.0,0.0,0.0,0.0,0.0,0.0,-0.02513398602604866,0.04020674526691437,0.03884010761976242,0.9999794363975525,-0.005710869561880827,0.0004798767913598567,0.002869456773623824
171.0,0.0,0.0,0.0,0.0,0.0,0.0,-0.014084515161812305,0.009648013859987259,0.03298790380358696,0.9999752044677734,-0.005581569857895374,0.00010286137694492936,0.004297213163226843
172.0,0.0,0.0,0.0,0.0,0.0,0.0,-0.010607946664094925,0.006432175636291504,-0.012219235301017761,0.9999736547470093,-0.005007890518754721,0.0005720292683690786,0.005218047183007002
173.0,0.0,0.0,0.0,0.0,0.0,0.0,0.016763726249337196,-0.00398377375677228,-0.0032280990853905678,0.9999685883522034,-0.004971813410520554,0.000744732329621911,0.006124108098447323
174.0,0.0,0.0,0.0,0.0,0.0,0.0,0.024204788729548454,0.006181494332849979,0.007337885443121195,0.99996417760849,-0.004638238810002804,0.000525741430465132,0.007060331758111715
175.0,0.0,0.0,0.0,0.0,0.0,0.0,0.026977287605404854,0.011617681942880154,0.0006781825213693082,0.9999562501907349,-0.004572109319269657,0.00023578543914481997,0.008157070726156235
176.0,0.0,0.0,0.0,0.0,0.0,0.0,0.03186541795730591,0.005074760410934687,-0.012253298424184322,0.9999447464942932,-0.004448366351425648,-0.00037382400478236377,0.009519674815237522
177.0,0.0,0.0,0.0,0.0,0.0,0.0,0.022237412631511688,0.010608164593577385,-0.01271582767367363,0.999943733215332,-0.0037005774211138487,-0.0004078194033354521,0.009935279376804829
178.0,0.0,0.0,0.0,0.0,0.0,0.0,0.013561206869781017,0.005295092705637217,-0.01830207370221615,0.9999455809593201,-0.003515994641929865,0.00011799671483458951,0.009822331368923187
179.0,0.0,0.0,0.0,0.0,0.0,0.0,0.006446145940572023,-0.007407394703477621,-0.04123000428080559,0.9999339580535889,-0.003808744251728058,0.0008219393203034997,0.010811248794198036
180.0,0.0,0.0,0.0,0.0,0.0,0.0,0.026749715209007263,-0.00931722205132246,-0.04037673771381378,0.9999135136604309,-0.004941789899021387,0.000347845780197531,0.012182531878352165
181.0,0.0,0.0,0.0,0.0,0.0,0.0,0.029401114210486412,-0.003932314459234476,-0.017170632258057594,0.9998856782913208,-0.006520223803818226,-0.0008889196324162185,0.013614345341920853
182.0,0.0,0.0,0.0,0.0,0.0,0.0,-0.003491803305223584,0.02411619946360588,0.017057813704013824,0.9998743534088135,-0.007397066801786423,-0.0017585892928764224,0.013911253772675991
183.0,0.0,0.0,0.0,0.0,0.0,0.0,0.009587348438799381,0.013638750649988651,0.02663278579711914,0.9998576045036316,-0.008262379094958305,-0.003017004346475005,0.014402265660464764
184.0,0.0,0.0,0.0,0.0,0.0,0.0,0.011122637428343296,0.016803789883852005,0.021601924672722816,0.999848484992981,-0.009035130962729454,-0.004001236520707607,0.014332068152725697
185.0,0.0,0.0,0.0,0.0,0.0,0.0,0.009889213368296623,0.015034087002277374,0.02221035026013851,0.9998407363891602,-0.00979889091104269,-0.004980591591447592,0.014058584347367287
186.0,0.0,0.0,0.0,0.0,0.0,0.0,0.004837151616811752,0.008179320953786373,0.014599569141864777,0.999815046787262,-0.011151377111673355,-0.006058516446501017,0.014452285133302212
187.0,0.0,0.0,0.0,0.0,0.0,0.0,-0.0027079631108790636,0.012006663717329502,0.0067078894935548306,0.9998054504394531,-0.011696061119437218,-0.006635394878685474,0.014432195574045181
188.0,0.0,0.0,0.0,0.0,0.0,0.0,-0.0007321771699935198,0.00910460576415062,0.0064226179383695126,0.9998027086257935,-0.011646374128758907,-0.006893496494740248,0.014537537470459938
189.0,0.0,0.0,0.0,0.0,0.0,0.0,0.0018908543279394507,0.008727344684302807,0.00034183618845418096,0.9997996687889099,-0.01187816634774208,-0.006780583877116442,0.014614641666412354
190.0,0.0,0.0,0.0,0.0,0.0,0.0,0.004879761021584272,0.003153577446937561,-0.00675410870462656,0.9997962117195129,-0.012454167939722538,-0.006556724663823843,0.014472024515271187
191.0,0.0,0.0,0.0,0.0,0.0,0.0,0.005333838984370232,0.0026250584051012993,-0.01293257251381874,0.9997899532318115,-0.012170839123427868,-0.006767824292182922,0.01503936480730772
192.0,0.0,0.0,0.0,0.0,0.0,0.0,0.008023901842534542,0.00195654621347785,-0.007584197446703911,0.9997785687446594,-0.012177813798189163,-0.006999820005148649,0.0156695656478405
193.0,0.0,0.0,0.0,0.0,0.0,0.0,0.009467090480029583,0.004094407893717289,-0.0034714150242507458,0.9997649788856506,-0.012743134051561356,-0.007088682614266872,0.016042325645685196
194.0,0.0,0.0,0.0,0.0,0.0,0.0,0.012712223455309868,0.0061749909073114395,-0.00321584171615541,0.999739944934845,-0.01267880667001009,-0.007532842922955751,0.017393389716744423
195.0,0.0,0.0,0.0,0.0,0.0,0.0,0.013233463279902935,0.003464785637333989,-0.004731187596917152,0.9997313618659973,-0.012585805729031563,-0.007721393369138241,0.017865339294075966
196.0,0.0,0.0,0.0,0.0,0.0,0.0,0.013076447881758213,0.0020983251743018627,-0.008243575692176819,0.9997295141220093,-0.012595918960869312,-0.007594283204525709,0.01801544427871704
197.0,0.0,0.0,0.0,0.0,0.0,0.0,0.016146497800946236,0.00017938402015715837,-0.011532486416399479,0.9997148513793945,-0.012595055624842644,-0.0076378025114536285,0.018795223906636238
198.0,0.0,0.0,0.0,0.0,0.0,0.0,0.011411823332309723,-0.002296186750754714,-0.008569561876356602,0.9997058510780334,-0.012855393812060356,-0.007616417482495308,0.019104870036244392
199.0,0.0,0.0,0.0,0.0,0.0,0.0,0.001772740506567061,-0.0002957983233500272,-0.00570961507037282,0.9996963739395142,-0.013310986571013927,-0.007439749781042337,0.019356744363904
200.0,0.0,0.0,0.0,0.0,0.0,0.0,0.002153032459318638,-5.256673102849163e-05,-0.0049238125793635845,0.9996854066848755,-0.01347875501960516,-0.007261073682457209,0.019866028800606728
201.0,0.0,0.0,0.0,0.0,0.0,0.0,0.0010213350178673863,0.0013568492140620947,0.0043577589094638824,0.9996897578239441,-0.01278458908200264,-0.006968528497964144,0.020208489149808884
202.0,0.0,0.0,0.0,0.0,0.0,0.0,-0.002801696304231882,-0.003463968401774764,0.000430854968726635,0.9997125267982483,-0.012820187024772167,-0.0056823245249688625,0.019447393715381622
203.0,0.0,0.0,0.0,0.0,0.0,0.0,0.017849771305918694,-0.020749516785144806,-0.049476202577352524,0.99970942735672,-0.013494124636054039,-0.004519615322351456,0.019455382600426674
204.0,0.0,0.0,0.0,0.0,0.0,0.0,0.05274880304932594,-0.0530799999833107,-0.01533514354377985,0.9997020363807678,-0.014074337668716908,-0.004436539951711893,0.019442500546574593
205.0,0.0,0.0,0.0,0.0,0.0,0.0,-0.010639498941600323,-0.0030546169728040695,-0.01060420647263527,0.9996622204780579,-0.015330985188484192,-0.004730517044663429,0.020447365939617157
206.0,0.0,0.0,0.0,0.0,0.0,0.0,-0.011758371256291866,0.003898618509992957,0.03991454094648361,0.9996739029884338,-0.014182468876242638,-0.005109131336212158,0.020613187924027443
207.0,0.0,0.0,0.0,0.0,0.0,0.0,-0.0065817032009363174,0.0016840967582538724,0.028057381510734558,0.9996547102928162,-0.013552035205066204,-0.005972047336399555,0.02170410566031933
208.0,0.0,0.0,0.0,0.0,0.0,0.0,-0.0022375083062797785,0.018389146775007248,0.021168546751141548,0.9996576309204102,-0.012745373882353306,-0.00582176772877574,0.022096294909715652
209.0,0.0,0.0,0.0,0.0,0.0,0.0,0.03133229911327362,0.009596047922968864,0.019457142800092697,0.9996532201766968,-0.011815829202532768,-0.006362072192132473,0.022656654939055443
210.0,0.0,0.0,0.0,0.0,0.0,0.0,0.030466046184301376,0.02732614427804947,0.008402044884860516,0.9996551871299744,-0.010645810514688492,-0.006618342362344265,0.023072002455592155
211.0,0.0,0.0,0.0,0.0,0.0,0.0,0.035110097378492355,0.011203339323401451,-0.00605721864849329,0.9996615648269653,-0.009876299649477005,-0.006196401081979275,0.02325482852756977
212.0,0.0,0.0,0.0,0.0,0.0,0.0,0.024074185639619827,-0.0013455267762765288,-0.03828978165984154,0.999666690826416,-0.009622314013540745,-0.00563108129426837,0.023285342380404472
213.0,0.0,0.0,0.0,0.0,0.0,0.0,0.03922282159328461,-0.006913389079272747,-0.0340459980070591,0.9996426701545715,-0.009832590818405151,-0.005728555377572775,0.024186668917536736
214.0,0.0,0.0,0.0,0.0,0.0,0.0,0.03696759045124054,-0.002272322541102767,-0.02708318643271923,0.9996026158332825,-0.010777400806546211,-0.006719386670738459,0.02516387403011322
215.0,0.0,0.0,0.0,0.0,0.0,0.0,0.019909504801034927,0.008885577321052551,-0.008714712224900723,0.9995697736740112,-0.011706221848726273,-0.008069253526628017,0.0256525669246912
216.0,0.0,0.0,0.0,0.0,0.0,0.0,0.017115134745836258,0.006109285168349743,0.0014692635741084814,0.9995320439338684,-0.012951638549566269,-0.009692125953733921,0.025961292907595634
217.0,0.0,0.0,0.0,0.0,0.0,0.0,0.0001788329245755449,0.012172426097095013,0.0016203285194933414,0.999495267868042,-0.014217526651918888,-0.01096092164516449,0.026208102703094482
218.0,0.0,0.0,0.0,0.0,0.0,0.0,-0.0023427209816873074,0.008437144570052624,-0.0014615363907068968,0.9994456768035889,-0.016212990507483482,-0.012059752829372883,0.026456519961357117
219.0,0.0,0.0,0.0,0.0,0.0,0.0,-0.002151425229385495,0.008386156521737576,-0.008085895329713821,0.9994052052497864,-0.01928952895104885,-0.012409929186105728,0.025749322026968002
220.0,0.0,0.0,0.0,0.0,0.0,0.0,-0.002157727489247918,0.011945991776883602,-0.009746194817125797,0.9993531703948975,-0.022477464750409126,-0.012448669411242008,0.025158999487757683
221.0,0.0,0.0,0.0,0.0,0.0,0.0,0.0004557277134153992,0.01580665446817875,-0.000552942743524909,0.9993124604225159,-0.02424205094575882,-0.012861586175858974,0.024930281564593315
222.0,0.0,0.0,0.0,0.0,0.0,0.0,-9.194392623612657e-05,0.01923842541873455,0.015077220275998116,0.999305009841919,-0.02517252415418625,-0.012856094166636467,0.024301262572407722
223.0,0.0,0.0,0.0,0.0,0.0,0.0,0.0015104576013982296,0.01498224213719368,0.01057164091616869,0.9993031024932861,-0.025960732251405716,-0.012542173266410828,0.023707307875156403
224.0,0.0,0.0,0.0,0.0,0.0,0.0,0.010624213144183159,0.008164782077074051,-0.005425205919891596,0.999265730381012,-0.027064256370067596,-0.01265150960534811,0.023989344015717506
225.0,0.0,0.0,0.0,0.0,0.0,0.0,0.008194934576749802,0.0017022457905113697,-0.004615910816937685,0.9992365837097168,-0.027670815587043762,-0.012996739707887173,0.02432441897690296
226.0,0.0,0.0,0.0,0.0,0.0,0.0,-0.004291411489248276,0.005962534341961145,-0.0076131029054522514,0.999226987361908,-0.02795644849538803,-0.013173628598451614,0.024296484887599945
227.0,0.0,0.0,0.0,0.0,0.0,0.0,-0.005296201445162296,0.005210757255554199,0.0036589945666491985,0.9992080330848694,-0.028684282675385475,-0.013240141794085503,0.02419082447886467
228.0,0.0,0.0,0.0,0.0,0.0,0.0,-0.0069093783386051655,0.005172448698431253,0.011766266077756882,0.9992082715034485,-0.028628921136260033,-0.01314579602330923,0.024299323558807373
229.0,0.0,0.0,0.0,0.0,0.0,0.0,-0.003817966440692544,0.0009848136687651277,0.005482972599565983,0.9992291331291199,-0.028085269033908844,-0.012995735742151737,0.024154014885425568
230.0,0.0,0.0,0.0,0.0,0.0,0.0,-0.0011503435671329498,-0.0021234506275504827,-0.0006699408404529095,0.9992294907569885,-0.028190460056066513,-0.013082941994071007,0.02396959252655506
231.0,0.0,0.0,0.0,0.0,0.0,0.0,-0.0018281573429703712,-0.000641459715552628,0.005923820193856955,0.999219536781311,-0.027813799679279327,-0.013577050529420376,0.024542883038520813
232.0,0.0,0.0,0.0,0.0,0.0,0.0,-0.0022559186909347773,0.006060331128537655,0.02491811476647854,0.9992241859436035,-0.02684709243476391,-0.013854177668690681,0.025265758857131004
233.0,0.0,0.0,0.0,0.0,0.0,0.0,-0.008890664204955101,0.01683514006435871,0.04178696498274803,0.9992348551750183,-0.0255583506077528,-0.014038819819688797,0.026065051555633545
234.0,0.0,0.0,0.0,0.0,0.0,0.0,-0.01048223115503788,0.013523688539862633,0.03873077780008316,0.9992614984512329,-0.024038350209593773,-0.013150665909051895,0.026938706636428833
235.0,0.0,0.0,0.0,0.0,0.0,0.0,-0.006232661195099354,-0.0156839732080698,-0.0055126831866800785,0.9992840886116028,-0.024372875690460205,-0.011067482642829418,0.026736555621027946
236.0,0.0,0.0,0.0,0.0,0.0,0.0,0.04322792962193489,-0.03663475066423416,-0.08296731859445572,0.9992569088935852,-0.02541402168571949,-0.010802197270095348,0.026889171451330185
237.0,0.0,0.0,0.0,0.0,0.0,0.0,0.05952499061822891,-0.058582957834005356,-0.04822948947548866,0.9991461038589478,-0.028351321816444397,-0.012163165956735611,0.027483846992254257
238.0,0.0,0.0,0.0,0.0,0.0,0.0,-0.04495315998792648,0.0472310334444046,0.019777460023760796,0.9992032051086426,-0.027849536389112473,-0.011842960491776466,0.02602248080074787
239.0,0.0,0.0,0.0,0.0,0.0,0.0,-0.011804037727415562,-0.0035292296670377254,0.014283930882811546,0.9991836547851562,-0.027938736602663994,-0.012761126272380352,0.02624237909913063
240.0,0.0,0.0,0.0,0.0,0.0,0.0,-0.01709013804793358,0.001847334555350244,-0.02387985587120056,0.9991598129272461,-0.029218584299087524,-0.013033531606197357,0.025613972917199135
241.0,0.0,0.0,0.0,0.0,0.0,0.0,-0.007029429078102112,0.012453915551304817,0.0030184315983206034,0.9991591572761536,-0.029787754639983177,-0.013403143733739853,0.024777444079518318
242.0,0.0,0.0,0.0,0.0,0.0,0.0,-0.002406562678515911,0.016297293826937675,0.004049805458635092,0.999137818813324,-0.030588466674089432,-0.013932701200246811,0.024368535727262497
243.0,0.0,0.0,0.0,0.0,0.0,0.0,-0.009884456172585487,0.020725999027490616,-0.008662780746817589,0.999161958694458,-0.03034288063645363,-0.01407499797642231,0.0235912948846817
244.0,0.0,0.0,0.0,0.0,0.0,0.0,-0.005548800807446241,0.014318977482616901,-0.009707740508019924,0.999194860458374,-0.029691684991121292,-0.01403878629207611,0.02304033562541008
245.0,0.0,0.0,0.0,0.0,0.0,0.0,-0.0032130146864801645,0.013895097188651562,-0.010366608388721943,0.9992766976356506,-0.028651634231209755,-0.01150220725685358,0.022201180458068848
246.0,0.0,0.0,0.0,0.0,0.0,0.0,-0.0032959533855319023,0.009299869649112225,-0.01670551672577858,0.999305784702301,-0.02761138416826725,-0.011588886380195618,0.022163627669215202
247.0,0.0,0.0,0.0,0.0,0.0,0.0,-5.528644396690652e-05,0.0008808435522951186,-0.020502444356679916,0.9993280172348022,-0.026576068252325058,-0.011853794567286968,0.022286124527454376
248.0,0.0,0.0,0.0,0.0,0.0,0.0,-0.00476017314940691,0.002965312683954835,-0.014090145006775856,0.9993638396263123,-0.025832511484622955,-0.011732712388038635,0.02160952240228653
249.0,0.0,0.0,0.0,0.0,0.0,0.0,0.003241270547732711,0.005292121786624193,-0.007848978973925114,0.9993856549263,-0.025233302265405655,-0.011984411627054214,0.021167181432247162
250.0,0.0,0.0,0.0,0.0,0.0,0.0,0.012476721778512001,0.006596078164875507,-0.01266210712492466,0.9993934035301208,-0.024692492559552193,-0.012473922222852707,0.021153729408979416
251.0,0.0,0.0,0.0,0.0,0.0,0.0,0.01802024058997631,0.008215555921196938,-0.006400155369192362,0.9993884563446045,-0.024753794074058533,-0.012904309667646885,0.021058447659015656
252.0,0.0,0.0,0.0,0.0,0.0,0.0,0.01649288460612297,0.010172530077397823,-0.009741202928125858,0.9993601441383362,-0.025302236899733543,-0.013616886921226978,0.021297400817275047
253.0,0.0,0.0,0.0,0.0,0.0,0.0,0.023315418511629105,0.0007473900332115591,-0.006186806596815586,0.9993246793746948,-0.02596517652273178,-0.01452536042779684,0.021565843373537064
254.0,0.0,0.0,0.0,0.0,0.0,0.0,0.01676388457417488,0.009289775975048542,0.004040888044983149,0.9992919564247131,-0.02645125612616539,-0.01559640932828188,0.021739022806286812
255.0,0.0,0.0,0.0,0.0,0.0,0.0,0.019445456564426422,0.008861683309078217,0.008404281921684742,0.9992520809173584,-0.027149509638547897,-0.016563663259148598,0.02199721150100231
256.0,0.0,0.0,0.0,0.0,0.0,0.0,0.018365934491157532,0.004493691027164459,-0.010293982923030853,0.9991899728775024,-0.028906673192977905,-0.01788708008825779,0.021537523716688156
257.0,0.0,0.0,0.0,0.0,0.0,0.0,0.016502745449543,0.0036897773388773203,-0.015007374808192253,0.9990959763526917,-0.0312553346157074,-0.019713573157787323,0.02101532556116581
258.0,0.0,0.0,0.0,0.0,0.0,0.0,0.005949181038886309,0.015367978252470493,0.0018672682344913483,0.9989542961120605,-0.034191105514764786,-0.021959615871310234,0.02095048315823078
259.0,0.0,0.0,0.0,0.0,0.0,0.0,-0.0033163069747388363,0.026188986375927925,0.02252579852938652,0.9988220930099487,-0.03672952950000763,-0.024096032604575157,0.02060833014547825
260.0,0.0,0.0,0.0,0.0,0.0,0.0,-0.009262899868190289,0.024482185021042824,0.028431471437215805,0.9987627863883972,-0.038034163415431976,-0.02529584802687168,0.019657103344798088
261.0,0.0,0.0,0.0,0.0,0.0,0.0,-0.006349233444780111,0.016243480145931244,0.018964286893606186,0.9987618327140808,-0.038419611752033234,-0.025723693892359734,0.018357211723923683
262.0,0.0,0.0,0.0,0.0,0.0,0.0,-0.0003959213208872825,0.007868488319218159,-1.1501865628815722e-05,0.9987293481826782,-0.038958173245191574,-0.02633960172533989,0.018116667866706848
263.0,0.0,0.0,0.0,0.0,0.0,0.0,0.0010769928339868784,0.002254980616271496,-0.012262815609574318,0.9986878037452698,-0.039682239294052124,-0.026946844533085823,0.017939338460564613
264.0,0.0,0.0,0.0,0.0,0.0,0.0,0.0026531503535807133,0.002063971245661378,-0.015194502659142017,0.9986439943313599,-0.04034888371825218,-0.02749647945165634,0.018056489527225494
265.0,0.0,0.0,0.0,0.0,0.0,0.0,0.007588195614516735,-0.0006389220361597836,-0.01868298463523388,0.9985929727554321,-0.04121356084942818,-0.02808777429163456,0.018017007037997246
266.0,0.0,0.0,0.0,0.0,0.0,0.0,0.008959862403571606,0.0012713157339021564,-0.02424776926636696,0.9985325336456299,-0.04225762560963631,-0.028951086103916168,0.01757260039448738
267.0,0.0,0.0,0.0,0.0,0.0,0.0,0.0055179535411298275,0.0020496705546975136,-0.01821480132639408,0.9984432458877563,-0.04367317259311676,-0.029937926679849625,0.0175315011292696
268.0,0.0,0.0,0.0,0.0,0.0,0.0,0.003593909088522196,0.007809827104210854,-0.0075926221907138824,0.9983384013175964,-0.04501328244805336,-0.03116690367460251,0.017968356609344482
269.0,0.0,0.0,0.0,0.0,0.0,0.0,-0.0002171058877138421,0.01635182462632656,-0.001189555274322629,0.9982398748397827,-0.04616343602538109,-0.03231212869286537,0.018494930118322372
270.0,0.0,0.0,0.0,0.0,0.0,0.0,0.0037169214338064194,0.020912660285830498,0.012552918866276741,0.9981685876846313,-0.04670855402946472,-0.0330924391746521,0.019561687484383583
271.0,0.0,0.0,0.0,0.0,0.0,0.0,-0.0014395484467968345,0.024523064494132996,0.02784127928316593,0.9981476068496704,-0.04610496759414673,-0.03369986638426781,0.020973145961761475
272.0,0.0,0.0,0.0,0.0,0.0,0.0,0.0021775837522000074,0.01914282515645027,0.017711220309138298,0.9981687068939209,-0.045331165194511414,-0.03348363935947418,0.021977024152874947
273.0,0.0,0.0,0.0,0.0,0.0,0.0,0.0070220488123595715,0.005821058992296457,0.0007676992099732161,0.9981666207313538,-0.045021042227745056,-0.033551763743162155,0.022603299468755722
274.0,0.0,0.0,0.0,0.0,0.0,0.0,-0.0009635337628424168,0.01259885635226965,-0.006148513872176409,0.9981594681739807,-0.04501030221581459,-0.03380681574344635,0.022557202726602554
275.0,0.0,0.0,0.0,0.0,0.0,0.0,0.041929252445697784,0.007770808879286051,0.12004455178976059,0.9981678128242493,-0.04418892785906792,-0.03453687205910683,0.022706272080540657
276.0,0.0,0.0,0.0,0.0,0.0,0.0,0.0262221060693264,-0.00948288757354021,0.023953009396791458,0.9982190728187561,-0.043068088591098785,-0.034346483647823334,0.022891415283083916
277.0,0.0,0.0,0.0,0.0,0.0,0.0,0.025231868028640747,-0.011657667346298695,-0.011033701710402966,0.9981880784034729,-0.04353531822562218,-0.03387460112571716,0.024034827947616577
278.0,0.0,0.0,0.0,0.0,0.0,0.0,0.010832916013896465,-0.0013023237697780132,-0.009827268309891224,0.9981359839439392,-0.044445641338825226,-0.03359171375632286,0.024913012981414795
279.0,0.0,0.0,0.0,0.0,0.0,0.0,-0.0034949076361954212,0.014055842533707619,-0.0035197543911635876,0.9981521368026733,-0.04439863562583923,-0.033375006169080734,0.024637719616293907
280.0,0.0,0.0,0.0,0.0,0.0,0.0,-0.000800488400273025,0.010974003002047539,0.009871912188827991,0.9981652498245239,-0.044422589242458344,-0.03296228125691414,0.024622613564133644
281.0,0.0,0.0,0.0,0.0,0.0,0.0,-0.002780601615086198,0.01002233661711216,0.008490331470966339,0.9981696605682373,-0.0447375513613224,-0.03226080164313316,0.024802275002002716
282.0,0.0,0.0,0.0,0.0,0.0,0.0,-0.0064508975483477116,0.012404168955981731,0.0055760485120117664,0.9981913566589355,-0.04488440603017807,-0.03134841471910477,0.024831879884004593
283.0,0.0,0.0,0.0,0.0,0.0,0.0,-0.006725022103637457,0.009783393703401089,0.006339402869343758,0.9982457756996155,-0.04450095817446709,-0.0300896018743515,0.024892959743738174
284.0,0.0,0.0,0.0,0.0,0.0,0.0,-0.006631418596953154,0.008081724867224693,-0.0007580386009067297,0.9983211755752563,-0.04400080814957619,-0.02844339795410633,0.02469046786427498
285.0,0.0,0.0,0.0,0.0,0.0,0.0,-0.000281384534901008,0.005154441110789776,-0.004613553639501333,0.9983881711959839,-0.04345615580677986,-0.026793407276272774,0.02479189820587635
286.0,0.0,0.0,0.0,0.0,0.0,0.0,0.006144343875348568,0.004428839311003685,-0.011091469787061214,0.998434841632843,-0.04254087060689926,-0.02579105645418167,0.025551268830895424
287.0,0.0,0.0,0.0,0.0,0.0,0.0,0.007196085527539253,0.005981813184916973,-0.007231563795357943,0.9985221028327942,-0.04123475402593613,-0.024617314338684082,0.02544141747057438
288.0,0.0,0.0,0.0,0.0,0.0,0.0,0.010566089302301407,0.004136109258979559,0.0007055823807604611,0.998619794845581,-0.039654433727264404,-0.023281274363398552,0.025379424914717674
289.0,0.0,0.0,0.0,0.0,0.0,0.0,0.009374026209115982,0.004504629410803318,0.0019315516110509634,0.9986711740493774,-0.03854392096400261,-0.021962828934192657,0.02622881904244423
290.0,0.0,0.0,0.0,0.0,0.0,0.0,0.015431483276188374,0.0007608578889630735,-0.010449118912220001,0.998725950717926,-0.037481389939785004,-0.020558811724185944,0.026810117065906525
291.0,0.0,0.0,0.0,0.0,0.0,0.0,0.02009006217122078,-0.005231781397014856,-0.01828843355178833,0.9987509846687317,-0.03660355880856514,-0.01933807134628296,0.027976416051387787
292.0,0.0,0.0,0.0,0.0,0.0,0.0,0.01240472961217165,-6.537525041494519e-05,-0.006668169982731342,0.9987730383872986,-0.035532284528017044,-0.018029293045401573,0.02940707840025425
293.0,0.0,0.0,0.0,0.0,0.0,0.0,0.009586293250322342,-0.002695968607440591,-0.0016229965258389711,0.9987998604774475,-0.03413379192352295,-0.016826942563056946,0.030832724645733833
294.0,0.0,0.0,0.0,0.0,0.0,0.0,0.004596759099513292,-0.0017988859908655286,-0.0029761812184005976,0.998802900314331,-0.03266524523496628,-0.01568521000444889,0.03285573795437813
295.0,0.0,0.0,0.0,0.0,0.0,0.0,0.003449239069595933,0.002458116039633751,0.002755745081230998,0.9988264441490173,-0.030585546046495438,-0.014142302796244621,0.03478623181581497
296.0,0.0,0.0,0.0,0.0,0.0,0.0,0.001415929407812655,0.005222182255238295,0.013648194260895252,0.9988821744918823,-0.02807910181581974,-0.012200531549751759,0.03601480647921562
297.0,0.0,0.0,0.0,0.0,0.0,0.0,-0.002199405338615179,0.008479644544422626,0.016317179426550865,0.9989126324653625,-0.02555268071591854,-0.00971844419836998,0.03776441514492035
298.0,0.0,0.0,0.0,0.0,0.0,0.0,0.010830230079591274,-0.00371575728058815,-0.000825858733151108,0.9989458918571472,-0.022426193580031395,-0.007270630449056625,0.03938544541597366
299.0,0.0,0.0,0.0,0.0,0.0,0.0,0.017772771418094635,-0.012942780740559101,-0.007253891788423061,0.9989806413650513,-0.019328270107507706,-0.0045565771870315075,0.04053850844502449
300.0,0.0,0.0,0.0,0.0,0.0,0.0,0.025230946019291878,-0.02122468128800392,-0.018802611157298088,0.9990018010139465,-0.01649532839655876,-0.0025330567732453346,0.041435353457927704
301.0,0.0,0.0,0.0,0.0,0.0,0.0,0.029162760823965073,-0.03227902203798294,-0.026056434959173203,0.9989697337150574,-0.015078376047313213,-0.0012081932509317994,0.042785290628671646
302.0,0.0,0.0,0.0,0.0,0.0,0.0,0.024862641468644142,-0.030404167249798775,-0.024166369810700417,0.9989227056503296,-0.014285963959991932,-0.0006279186345636845,0.044145986437797546
303.0,0.0,0.0,0.0,0.0,0.0,0.0,0.0148277897387743,-0.027773361653089523,-0.020804138854146004,0.9988968968391418,-0.013760145753622055,-0.00020854809554293752,0.04489705339074135
304.0,0.0,0.0,0.0,0.0,0.0,0.0,0.00413668155670166,-0.019716134294867516,-0.006851190235465765,0.998872697353363,-0.013875269331037998,-0.00047280965372920036,0.0453929677605629
305.0,0.0,0.0,0.0,0.0,0.0,0.0,-0.009907519444823265,-0.0016539142234250903,0.014880400151014328,0.9988256692886353,-0.014387876726686954,-0.0012140879407525063,0.04625025391578674
306.0,0.0,0.0,0.0,0.0,0.0,0.0,-0.011878859251737595,0.0014552918728441,0.021487141028046608,0.9988914728164673,-0.012670573778450489,-0.0020588880870491266,0.04529005289077759
307.0,0.0,0.0,0.0,0.0,0.0,0.0,-0.013597944751381874,0.002653554081916809,0.021666888147592545,0.9989140033721924,-0.013302462175488472,-0.0024013277143239975,0.04458719864487648
308.0,0.0,0.0,0.0,0.0,0.0,0.0,-0.01435681153088808,0.004811304621398449,0.010166630148887634,0.9989320635795593,-0.013997092843055725,-0.003008577274158597,0.0439286045730114
309.0,0.0,0.0,0.0,0.0,0.0,0.0,-0.013256230391561985,0.00475285155698657,0.008220086805522442,0.9989725351333618,-0.01496313139796257,-0.003783412277698517,0.04260920360684395
310.0,0.0,0.0,0.0,0.0,0.0,0.0,-0.017675474286079407,0.004000132437795401,-9.3871756689623e-05,0.9990182518959045,-0.016731662675738335,-0.004031283315271139,0.040820296853780746
311.0,0.0,0.0,0.0,0.0,0.0,0.0,-0.01498831994831562,0.0037431297823786736,-0.0077418009750545025,0.9990708231925964,-0.01853885129094124,-0.0044606938026845455,0.038650207221508026
312.0,0.0,0.0,0.0,0.0,0.0,0.0,-0.009100253693759441,0.019493700936436653,0.007759535685181618,0.9991257786750793,-0.019911231473088264,-0.005073796957731247,0.036404307931661606
313.0,0.0,0.0,0.0,0.0,0.0,0.0,-0.01006875466555357,0.028477178886532784,0.01460690051317215,0.9990831613540649,-0.02231599949300289,-0.0066758315078914165,0.0359218493103981
314.0,0.0,0.0,0.0,0.0,0.0,0.0,-0.011607798747718334,-0.008181830868124962,-0.03529233857989311,0.9989709258079529,-0.025221271440386772,-0.008612344041466713,0.03669452294707298
315.0,0.0,0.0,0.0,0.0,0.0,0.0,-0.0021964863408356905,-0.006192951928824186,-0.035066116601228714,0.9989709854125977,-0.026544896885752678,-0.009801357053220272,0.035443637520074844
316.0,0.0,0.0,0.0,0.0,0.0,0.0,-0.0008995105745270848,0.004809109959751368,-0.010778547264635563,0.9989231824874878,-0.028553202748298645,-0.010573841631412506,0.03500519320368767
317.0,0.0,0.0,0.0,0.0,0.0,0.0,-0.0034901262260973454,0.002019534120336175,-0.019102072343230247,0.9988678097724915,-0.030053915455937386,-0.011585807427763939,0.035007696598768234
318.0,0.0,0.0,0.0,0.0,0.0,0.0,-0.0001121385648730211,0.0020693896804004908,-0.018771281465888023,0.998816967010498,-0.031214775517582893,-0.013108499348163605,0.03490398824214935
319.0,0.0,0.0,0.0,0.0,0.0,0.0,-0.00026728466036729515,0.0062037124298512936,-0.014164470136165619,0.9987503886222839,-0.03264441713690758,-0.014707634225487709,0.034868501126766205
320.0,0.0,0.0,0.0,0.0,0.0,0.0,-0.0007002418860793114,0.011477088555693626,-0.007531485520303249,0.998664140701294,-0.03440040722489357,-0.01630493625998497,0.03493674099445343
321.0,0.0,0.0,0.0,0.0,0.0,0.0,0.0009030733490362763,0.013112477026879787,-0.00859542191028595,0.9985972046852112,-0.0358746163547039,-0.018160119652748108,0.03445272147655487
322.0,0.0,0.0,0.0,0.0,0.0,0.0,-0.0006083495682105422,0.014958808198571205,0.0020971964113414288,0.9984948039054871,-0.03713143989443779,-0.020451320335268974,0.03479880839586258
323.0,0.0,0.0,0.0,0.0,0.0,0.0,-0.0016790683148428798,0.02180212177336216,0.009151696227490902,0.9983823299407959,-0.0378592312335968,-0.022942710667848587,0.03567667677998543
324.0,0.0,0.0,0.0,0.0,0.0,0.0,-0.00046906666830182076,0.02281981147825718,0.00882160384207964,0.9982413649559021,-0.0387459397315979,-0.025598302483558655,0.03684485703706741
325.0,0.0,0.0,0.0,0.0,0.0,0.0,0.0036936558317393064,0.019827689975500107,0.0036003547720611095,0.9980854988098145,-0.04028329625725746,-0.027815986424684525,0.037798959761857986
326.0,0.0,0.0,0.0,0.0,0.0,0.0,0.0005652137915603817,0.018289532512426376,-0.0013123559765517712,0.9979929327964783,-0.04109150171279907,-0.030038196593523026,0.03767493739724159
327.0,0.0,0.0,0.0,0.0,0.0,0.0,-0.0014645622577518225,0.019691353663802147,0.00319994380697608,0.9978641271591187,-0.04164613410830498,-0.032669443637132645,0.03828156739473343
328.0,0.0,0.0,0.0,0.0,0.0,0.0,-0.001992226345464587,0.019966183230280876,0.004192432388663292,0.9977351427078247,-0.04223468527197838,-0.0353718176484108,0.03859654814004898
329.0,0.0,0.0,0.0,0.0,0.0,0.0,0.0009379839757457376,0.015729526057839394,-0.0029908923897892237,0.9976093173027039,-0.04297465831041336,-0.03824885934591293,0.038281094282865524
330.0,0.0,0.0,0.0,0.0,0.0,0.0,-0.002406371757388115,0.016929304227232933,-0.0029884905088692904,0.997627854347229,-0.04410669207572937,-0.0380789078772068,0.03664172813296318
331.0,0.0,0.0,0.0,0.0,0.0,0.0,-0.013161673210561275,0.015227050520479679,-0.005980868358165026,0.9975049495697021,-0.04748139530420303,-0.038851913064718246,0.034928902983665466
332.0,0.0,0.0,0.0,0.0,0.0,0.0,-0.0033595499116927385,0.007366525009274483,-0.022923000156879425,0.9971120357513428,-0.053454961627721786,-0.04005393013358116,0.03613384813070297
333.0,0.0,0.0,0.0,0.0,0.0,0.0,-0.01188212726265192,0.017826510593295097,0.008133054710924625,0.9967516660690308,-0.059065669775009155,-0.039912015199661255,0.03746300935745239
334.0,0.0,0.0,0.0,0.0,0.0,0.0,-0.003732844954356551,0.06466563791036606,0.0011676946887746453,0.996433675289154,-0.06313467770814896,-0.039695050567388535,0.039472587406635284
335.0,0.0,0.0,0.0,0.0,0.0,0.0,-0.013446127064526081,0.055158842355012894,0.040226198732852936,0.9963076710700989,-0.06650937348604202,-0.038350045680999756,0.038429517298936844
336.0,0.0,0.0,0.0,0.0,0.0,0.0,-0.003418160369619727,0.032226018607616425,0.007544867694377899,0.9962259531021118,-0.06802214682102203,-0.03785340115427971,0.038381945341825485
337.0,0.0,0.0,0.0,0.0,0.0,0.0,-0.013206377625465393,0.040217313915491104,0.011676564812660217,0.9963142275810242,-0.06808105856180191,-0.036438342183828354,0.03735007718205452
338.0,0.0,0.0,0.0,0.0,0.0,0.0,-0.007082225289195776,0.02960999496281147,0.030300958082079887,0.9963970184326172,-0.0686190202832222,-0.03454908728599548,0.0359313003718853
339.0,0.0,0.0,0.0,0.0,0.0,0.0,-0.009502553381025791,0.0436251200735569,0.03486379235982895,0.9964786171913147,-0.06859517842531204,-0.03268550708889961,0.03543628007173538
340.0,0.0,0.0,0.0,0.0,0.0,0.0,-0.004244599957019091,0.036314066499471664,0.03228817507624626,0.9965670108795166,-0.06872091442346573,-0.030213190242648125,0.03491354361176491
341.0,0.0,0.0,0.0,0.0,0.0,0.0,-0.006384523585438728,0.03214774280786514,0.03901926055550575,0.9967890381813049,-0.06749210506677628,-0.02721516042947769,0.03339953348040581
342.0,0.0,0.0,0.0,0.0,0.0,0.0,-0.007601303048431873,0.022471264004707336,0.029990538954734802,0.9970532059669495,-0.06614528596401215,-0.02423751913011074,0.030357258394360542
343.0,0.0,0.0,0.0,0.0,0.0,0.0,-0.005710096098482609,0.011821860447525978,0.006700216326862574,0.9973101019859314,-0.06442635506391525,-0.0211814995855093,0.027802662923932076
344.0,0.0,0.0,0.0,0.0,0.0,0.0,-0.005747449118643999,0.009010974317789078,0.015616325661540031,0.9975797533988953,-0.06252586841583252,-0.017916759476065636,0.024569176137447357
345.0,0.0,0.0,0.0,0.0,0.0,0.0,-0.004215140827000141,-0.0002812198654282838,-0.0012123193591833115,0.9978152513504028,-0.06073480099439621,-0.015213286504149437,0.02108725905418396
346.0,0.0,0.0,0.0,0.0,0.0,0.0,-0.003543598810210824,-0.0049002389423549175,-0.0053276256658136845,0.9980451464653015,-0.05834147334098816,-0.01274784468114376,0.01842476986348629
347.0,0.0,0.0,0.0,0.0,0.0,0.0,0.0008218060829676688,-0.0065738423727452755,-0.007606362923979759,0.9983012080192566,-0.05504816398024559,-0.010947756469249725,0.015628917142748833
348.0,0.0,0.0,0.0,0.0,0.0,0.0,-6.271780875977129e-05,-0.0011043230770155787,-0.007021484896540642,0.9986109137535095,-0.05021976679563522,-0.009809095412492752,0.012570795603096485
349.0,0.0,0.0,0.0,0.0,0.0,0.0,0.006625680718570948,0.0010190580505877733,0.0016068542608991265,0.9989561438560486,-0.04380902647972107,-0.009525871835649014,0.008733801543712616
350.0,0.0,0.0,0.0,0.0,0.0,0.0,0.0038022741209715605,-0.007603343576192856,0.008018872700631618,0.9993483424186707,-0.03451140224933624,-0.009484412148594856,0.00467766122892499
351.0,0.0,0.0,0.0,0.0,0.0,0.0,-0.003522756276652217,-0.01780257560312748,-0.006789875216782093,0.9996289610862732,-0.025256475433707237,-0.009743908420205116,0.002946792868897319
352.0,0.0,0.0,0.0,0.0,0.0,0.0,0.006940593011677265,-0.02591206133365631,-0.0035698662977665663,0.999819815158844,-0.01596878655254841,-0.01005029957741499,0.0020601036958396435
353.0,0.0,0.0,0.0,0.0,0.0,0.0,0.0134520148858428,-0.039888396859169006,-0.019754549488425255,0.9999182224273682,-0.008618584834039211,-0.009198007173836231,0.0021770710591226816
354.0,0.0,0.0,0.0,0.0,0.0,0.0,0.030745789408683777,-0.05718059092760086,-0.053544655442237854,0.9999659657478333,-0.0037850404623895884,-0.006894499063491821,0.002496135886758566
355.0,0.0,0.0,0.0,0.0,0.0,0.0,0.02997441403567791,-0.0598396435379982,-0.07681791484355927,0.9999871850013733,-0.0022873503621667624,-0.004006716422736645,0.0020738323219120502
356.0,0.0,0.0,0.0,0.0,0.0,0.0,0.059869058430194855,-0.05898646265268326,-0.07085133343935013,0.9999926686286926,-0.0019296274986118078,-0.0030590114183723927,0.001294255955144763
357.0,0.0,0.0,0.0,0.0,0.0,0.0,0.05439675599336624,-0.06691443920135498,-0.053657904267311096,0.999992311000824,-0.0022196206264197826,-0.003188623581081629,0.0005026963190175593
358.0,0.0,0.0,0.0,0.0,0.0,0.0,0.014092698693275452,-0.05211210623383522,-0.05495564639568329,0.999984860420227,-0.0028235011268407106,-0.004195174667984247,-0.002150020096451044
359.0,0.0,0.0,0.0,0.0,0.0,0.0,0.031085524708032608,-0.015165327116847038,-0.05600915849208832,0.9999573826789856,-0.005841960199177265,-0.0053347316570580006,-0.0047499192878603935
360.0,0.0,0.0,0.0,0.0,0.0,0.0,0.05963394045829773,-0.05372190475463867,0.004999122116714716,0.9999272227287292,-0.007735543418675661,-0.008385543711483479,-0.0039366926066577435
361.0,0.0,0.0,0.0,0.0,0.0,0.0,-0.029555195942521095,-0.002551934216171503,-0.00109486049041152,0.9998977780342102,-0.00868998933583498,-0.010878686793148518,-0.0032405410893261433
362.0,0.0,0.0,0.0,0.0,0.0,0.0,0.0105677405372262,-0.02545306831598282,-0.028148310258984566,0.999839186668396,-0.01109857577830553,-0.013951484113931656,-0.0019648827146738768
363.0,0.0,0.0,0.0,0.0,0.0,0.0,0.02546537108719349,-0.012973669916391373,0.01102460827678442,0.9997544884681702,-0.012197817675769329,-0.018451187759637833,0.0011044256389141083
364.0,0.0,0.0,0.0,0.0,0.0,0.0,-0.028046036139130592,0.061141833662986755,0.041003864258527756,0.9996866583824158,-0.010508401319384575,-0.022643355652689934,0.0018724339315667748
365.0,0.0,0.0,0.0,0.0,0.0,0.0,-0.01169176958501339,0.010989506728947163,0.03049890138208866,0.9996361136436462,-0.007379497867077589,-0.02585645765066147,0.002146062906831503
366.0,0.0,0.0,0.0,0.0,0.0,0.0,0.0036484564188867807,0.0019818313885480165,0.007385001517832279,0.9995677471160889,-0.004685239866375923,-0.028631087392568588,0.004764261189848185
367.0,0.0,0.0,0.0,0.0,0.0,0.0,-0.007496746256947517,0.027003765106201172,0.018859917297959328,0.9994941353797913,-0.002164641860872507,-0.030924230813980103,0.0071000000461936
368.0,0.0,0.0,0.0,0.0,0.0,0.0,-0.008490312844514847,0.032337736338377,0.040100712329149246,0.9994401931762695,0.0001534659240860492,-0.03235389292240143,0.008484436199069023
369.0,0.0,0.0,0.0,0.0,0.0,0.0,-0.021756161004304886,0.019769834354519844,0.033098816871643066,0.9994262456893921,0.0007874448201619089,-0.03283391892910004,0.008277355693280697
370.0,0.0,0.0,0.0,0.0,0.0,0.0,-0.00852108933031559,-0.007942336611449718,0.002148844301700592,0.9994087815284729,-0.0001835716684581712,-0.03333469107747078,0.008396463468670845
371.0,0.0,0.0,0.0,0.0,0.0,0.0,0.01309412531554699,0.0001246535830432549,0.024023398756980896,0.9993783235549927,-0.0020224591717123985,-0.034251097589731216,0.00809720903635025
372.0,0.0,0.0,0.0,0.0,0.0,0.0,-0.0027058038394898176,0.013309064321219921,0.010659586638212204,0.9993605017662048,-0.006489574443548918,-0.03425899147987366,0.007918897084891796
373.0,0.0,0.0,0.0,0.0,0.0,0.0,-0.006093176547437906,0.007216193247586489,-0.01614578440785408,0.9993189573287964,-0.013483365066349506,-0.03366822376847267,0.006818380206823349
374.0,0.0,0.0,0.0,0.0,0.0,0.0,0.00739878136664629,0.012569272890686989,-0.01615609973669052,0.9991993308067322,-0.021070625633001328,-0.03361644595861435,0.005104744806885719
375.0,0.0,0.0,0.0,0.0,0.0,0.0,0.003744413610547781,0.0388447642326355,0.017072411254048347,0.9990350604057312,-0.02646382711827755,-0.03469168022274971,0.004981561563909054
376.0,0.0,0.0,0.0,0.0,0.0,0.0,-0.022945066913962364,0.05346560478210449,0.058061495423316956,0.9989259839057922,-0.029345816001296043,-0.03521489351987839,0.006731884554028511
377.0,0.0,0.0,0.0,0.0,0.0,0.0,-0.04094691947102547,0.05833302438259125,0.045095521956682205,0.9988864064216614,-0.030947303399443626,-0.0345553457736969,0.008612985722720623
378.0,0.0,0.0,0.0,0.0,0.0,0.0,-0.028377264738082886,0.016154710203409195,0.0036869014147669077,0.9988094568252563,-0.032762497663497925,-0.034575946629047394,0.010548473335802555
379.0,0.0,0.0,0.0,0.0,0.0,0.0,-0.028616270050406456,0.027253491804003716,0.01152753084897995,0.9988125562667847,-0.03161047399044037,-0.03504353016614914,0.012087364681065083
380.0,0.0,0.0,0.0,0.0,0.0,0.0,-0.008537431247532368,0.05219512805342674,0.05225742980837822,0.9987937211990356,-0.027966998517513275,-0.03714286535978317,0.01578102633357048
381.0,0.0,0.0,0.0,0.0,0.0,0.0,-0.02693045884370804,-0.0077856299467384815,0.006106303073465824,0.9987435936927795,-0.025817740708589554,-0.03939354419708252,0.017109934240579605
382.0,0.0,0.0,0.0,0.0,0.0,0.0,-0.02366108074784279,-0.02759929560124874,-0.034637223929166794,0.9987927079200745,-0.024240130558609962,-0.04015504941344261,0.01460939273238182
383.0,0.0,0.0,0.0,0.0,0.0,0.0,-0.021458303555846214,-0.033757127821445465,-0.020019590854644775,0.998777449131012,-0.023710936307907104,-0.04125715792179108,0.013381866738200188
384.0,0.0,0.0,0.0,0.0,0.0,0.0,-0.030208446085453033,-0.029990345239639282,0.0038509443402290344,0.9988099932670593,-0.023785971105098724,-0.040989842265844345,0.011522444896399975
385.0,0.0,0.0,0.0,0.0,0.0,0.0,-0.013243927620351315,-0.026134246960282326,-0.03344114497303963,0.9987798929214478,-0.0250236839056015,-0.04153112694621086,0.009339774027466774
386.0,0.0,0.0,0.0,0.0,0.0,0.0,0.0026754483114928007,-0.045966506004333496,-0.0670970156788826,0.9987006783485413,-0.02648148499429226,-0.042961928993463516,0.007061348296701908
387.0,0.0,0.0,0.0,0.0,0.0,0.0,0.008709598332643509,-0.03847789391875267,-0.052708473056554794,0.9985457062721252,-0.02893134020268917,-0.04518933221697807,0.005242703482508659
388.0,0.0,0.0,0.0,0.0,0.0,0.0,0.01011440809816122,-0.0017957629170268774,0.011580084450542927,0.9983702898025513,-0.03161837160587311,-0.047385696321725845,0.0034302042331546545
389.0,0.0,0.0,0.0,0.0,0.0,0.0,-0.0046032508835196495,-0.0016963250236585736,-0.0015089643420651555,0.9981826543807983,-0.034005168825387955,-0.04971100389957428,0.0019106233958154917
390.0,0.0,0.0,0.0,0.0,0.0,0.0,2.272796155011747e-05,0.009536839090287685,0.003724208101630211,0.9980214238166809,-0.03565061092376709,-0.05175253376364708,0.0020096474327147007
391.0,0.0,0.0,0.0,0.0,0.0,0.0,0.010412934236228466,0.013401873409748077,0.044435106217861176,0.9978898763656616,-0.0363578163087368,-0.053768400102853775,0.0016058542532846332
392.0,0.0,0.0,0.0,0.0,0.0,0.0,-0.011979284696280956,0.010947446338832378,0.0040056174620985985,0.9978079199790955,-0.03723153844475746,-0.054701998829841614,0.0007287865737453103
393.0,0.0,0.0,0.0,0.0,0.0,0.0,-0.003977062180638313,0.0036019575782120228,-0.041930630803108215,0.9979705810546875,-0.03665980324149132,-0.05205458775162697,-0.0010097241029143333
394.0,0.0,0.0,0.0,0.0,0.0,0.0,0.027909258380532265,-0.003852417226880789,-0.057153817266225815,0.9978991746902466,-0.04016758129000664,-0.050828780978918076,-0.00019775921828113496
395.0,0.0,0.0,0.0,0.0,0.0,0.0,0.006280857603996992,0.022467492148280144,-0.016968250274658203,0.9978706240653992,-0.04423166811466217,-0.04789521545171738,-0.001775930286385119
396.0,0.0,0.0,0.0,0.0,0.0,0.0,0.005149179138243198,0.018390269950032234,-0.025562196969985962,0.9978895783424377,-0.04732557386159897,-0.04435531422495842,-0.0029861873481422663
397.0,0.0,0.0,0.0,0.0,0.0,0.0,0.030991870909929276,0.02678828127682209,-0.03598248213529587,0.9979482889175415,-0.047895435243844986,-0.04241778701543808,-0.002413657261058688
398.0,0.0,0.0,0.0,0.0,0.0,0.0,0.020227860659360886,0.023985721170902252,-0.005919001996517181,0.9980672001838684,-0.045816175639629364,-0.04197358712553978,-0.0008180103031918406
399.0,0.0,0.0,0.0,0.0,0.0,0.0,0.0012985941721126437,0.03132384270429611,0.03138769790530205,0.998249888420105,-0.041840437799692154,-0.04178130254149437,0.0007298083510249853
400.0,0.0,0.0,0.0,0.0,0.0,0.0,0.013179950416088104,0.02332506701350212,0.022979076951742172,0.9984415769577026,-0.03726273775100708,-0.04143872112035751,0.0028922429773956537
401.0,0.0,0.0,0.0,0.0,0.0,0.0,0.013933500275015831,0.009096268564462662,0.013716224581003189,0.9985929131507874,-0.03287237882614136,-0.0413629524409771,0.004484505858272314
402.0,0.0,0.0,0.0,0.0,0.0,0.0,0.013069890439510345,-0.010274186730384827,0.002497982932254672,0.9986863136291504,-0.030007081106305122,-0.04111446440219879,0.005865928251296282
403.0,0.0,0.0,0.0,0.0,0.0,0.0,0.02184944413602352,-0.0017523313872516155,-0.0015158024616539478,0.9987629652023315,-0.027674702927470207,-0.04078701511025429,0.006543253548443317
404.0,0.0,0.0,0.0,0.0,0.0,0.0,0.023292655125260353,0.007816878147423267,0.023248180747032166,0.9988130927085876,-0.02605603262782097,-0.04059859365224838,0.006712198723107576
405.0,0.0,0.0,0.0,0.0,0.0,0.0,-0.0008531821658834815,0.018122488632798195,0.04165222868323326,0.9988420605659485,-0.02464950829744339,-0.04076603055000305,0.006697272881865501
406.0,0.0,0.0,0.0,0.0,0.0,0.0,-0.004639730788767338,0.021310603246092796,0.04704009369015694,0.9988878965377808,-0.023052463307976723,-0.04060528799891472,0.006531721446663141
407.0,0.0,0.0,0.0,0.0,0.0,0.0,-0.0005454802885651588,0.0032543542329221964,0.02634107694029808,0.998894214630127,-0.022718802094459534,-0.04059722647070885,0.0067657665349543095
408.0,0.0,0.0,0.0,0.0,0.0,0.0,-0.007412381935864687,-0.002133726142346859,0.010001934133470058,0.9988728761672974,-0.022535094991326332,-0.041049323976039886,0.00772570725530386
409.0,0.0,0.0,0.0,0.0,0.0,0.0,-0.009275796823203564,-0.012563873082399368,0.006662496365606785,0.9988775849342346,-0.022115299478173256,-0.041169751435518265,0.007722468581050634
410.0,0.0,0.0,0.0,0.0,0.0,0.0,-0.00021847584866918623,-0.007076704874634743,-0.006759437266737223,0.9988855719566345,-0.022398004308342934,-0.04098350554704666,0.006792948115617037
411.0,0.0,0.0,0.0,0.0,0.0,0.0,0.038179706782102585,-0.015839871019124985,-0.03159056976437569,0.9988105893135071,-0.022953372448682785,-0.04245276004076004,0.006943596061319113
412.0,0.0,0.0,0.0,0.0,0.0,0.0,0.03871825709939003,-0.013503181748092175,-0.00726010836660862,0.998703122138977,-0.022318866103887558,-0.04524349048733711,0.006824394688010216
413.0,0.0,0.0,0.0,0.0,0.0,0.0,-0.007545656990259886,-0.010869711637496948,-0.013557669706642628,0.9986337423324585,-0.021111536771059036,-0.04734659567475319,0.006565486546605825
414.0,0.0,0.0,0.0,0.0,0.0,0.0,0.004293869249522686,-0.03853903338313103,-0.05138823017477989,0.9985081553459167,-0.022956136614084244,-0.049225613474845886,0.005568657536059618
415.0,0.0,0.0,0.0,0.0,0.0,0.0,0.00830927211791277,-0.04082814231514931,-0.06627922505140305,0.9983042478561401,-0.029151570051908493,-0.050152573734521866,0.004786580801010132
416.0,0.0,0.0,0.0,0.0,0.0,0.0,0.004007935989648104,0.004705663770437241,-0.021641837432980537,0.9981345534324646,-0.0351438894867897,-0.04975837841629982,0.004007252398878336
417.0,0.0,0.0,0.0,0.0,0.0,0.0,-0.004590380471199751,0.027485020458698273,0.007261049468070269,0.9979962706565857,-0.03908482566475868,-0.04961790144443512,0.0037068785168230534
418.0,0.0,0.0,0.0,0.0,0.0,0.0,0.00934196449816227,0.01091400533914566,-0.011681006290018559,0.9978670477867126,-0.04090473800897598,-0.050712794065475464,0.004008914344012737
419.0,0.0,0.0,0.0,0.0,0.0,0.0,0.013511249795556068,0.008697637356817722,0.008469723165035248,0.9977376461029053,-0.0408332496881485,-0.05306268855929375,0.006040371488779783
420.0,0.0,0.0,0.0,0.0,0.0,0.0,-0.013255452737212181,0.009298735298216343,0.017125679180026054,0.9975953698158264,-0.04099190607666969,-0.05519227311015129,0.008761894889175892
421.0,0.0,0.0,0.0,0.0,0.0,0.0,-0.012659918516874313,-0.006547658704221249,-0.004275968298316002,0.99750155210495,-0.040945470333099365,-0.05639655143022537,0.011544904671609402
422.0,0.0,0.0,0.0,0.0,0.0,0.0,-0.009074928238987923,-0.001401491928845644,0.005649701692163944,0.9974380135536194,-0.04012084752321243,-0.057673871517181396,0.013460000045597553
423.0,0.0,0.0,0.0,0.0,0.0,0.0,-0.002342729363590479,0.008245947770774364,0.024395709857344627,0.9973732233047485,-0.039261892437934875,-0.058878686279058456,0.015444573946297169
424.0,0.0,0.0,0.0,0.0,0.0,0.0,0.003118970664218068,0.001889602281153202,0.0035653910599648952,0.9973294138908386,-0.03726164624094963,-0.06027095392346382,0.017673032358288765
425.0,0.0,0.0,0.0,0.0,0.0,0.0,-0.001381895737722516,-0.0141624566167593,0.009886755608022213,0.9972980618476868,-0.03577788546681404,-0.06112781539559364,0.0194789357483387
426.0,0.0,0.0,0.0,0.0,0.0,0.0,-0.015214445069432259,-0.008465858176350594,-0.008646749891340733,0.9972971081733704,-0.035512346774339676,-0.06127017363905907,0.019570093601942062
427.0,0.0,0.0,0.0,0.0,0.0,0.0,0.005428427364677191,-0.01681920513510704,-0.02671598456799984,0.9972225427627563,-0.035392966121435165,-0.062238939106464386,0.020514745265245438
428.0,0.0,0.0,0.0,0.0,0.0,0.0,0.010599430650472641,-0.005708868149667978,0.003392385318875313,0.9971082806587219,-0.03510536625981331,-0.0638156607747078,0.021687055006623268
429.0,0.0,0.0,0.0,0.0,0.0,0.0,-0.005541945341974497,0.007184771355241537,-0.0007660147384740412,0.9969497919082642,-0.03579471632838249,-0.06537020206451416,0.023153802379965782
430.0,0.0,0.0,0.0,0.0,0.0,0.0,0.00303213344886899,0.005026318598538637,-0.007977049797773361,0.9968010187149048,-0.03636749088764191,-0.06690757721662521,0.024258602410554886
431.0,0.0,0.0,0.0,0.0,0.0,0.0,-7.554946932941675e-05,0.005180107429623604,0.0070930602960288525,0.9966474771499634,-0.036187395453453064,-0.06868475675582886,0.025809742510318756
432.0,0.0,0.0,0.0,0.0,0.0,0.0,-0.01006689015775919,0.02883269637823105,0.018918052315711975,0.9965022802352905,-0.035926781594753265,-0.07016921788454056,0.027721384540200233
433.0,0.0,0.0,0.0,0.0,0.0,0.0,-0.0037233028560876846,0.027657734230160713,0.027969269081950188,0.9964199066162109,-0.03494421765208244,-0.07126189023256302,0.029122518375515938
434.0,0.0,0.0,0.0,0.0,0.0,0.0,-0.011653907597064972,0.028024349361658096,0.029084715992212296,0.996433436870575,-0.033666446805000305,-0.07133232057094574,0.029980869963765144
435.0,0.0,0.0,0.0,0.0,0.0,0.0,-0.012256434187293053,0.019503889605402946,0.029542583972215652,0.9965256452560425,-0.0323481485247612,-0.07071248441934586,0.02982822246849537
436.0,0.0,0.0,0.0,0.0,0.0,0.0,-0.012663752771914005,0.010597851127386093,0.016868187114596367,0.9966803193092346,-0.03287208080291748,-0.06889393925666809,0.028307205066084862
437.0,0.0,0.0,0.0,0.0,0.0,0.0,-0.009393205866217613,0.017876019701361656,0.016931073740124702,0.9968987107276917,-0.03472978249192238,-0.06563371419906616,0.026055939495563507
438.0,0.0,0.0,0.0,0.0,0.0,0.0,-0.008748006075620651,0.021441295742988586,0.025679124519228935,0.9971804618835449,-0.03552081435918808,-0.06224547326564789,0.02224862016737461
439.0,0.0,0.0,0.0,0.0,0.0,0.0,-0.011579915881156921,0.019175849854946136,0.0013901698403060436,0.9974932670593262,-0.0358649343252182,-0.05822746083140373,0.01817300170660019
440.0,0.0,0.0,0.0,0.0,0.0,0.0,0.0019114367896690965,-0.00083790288772434,-0.009049590677022934,0.9977385997772217,-0.036001745611429214,-0.054734088480472565,0.015028546564280987
441.0,0.0,0.0,0.0,0.0,0.0,0.0,-0.011566249653697014,0.013302180916070938,-0.009245102293789387,0.9980781078338623,-0.03556289151310921,-0.04967917874455452,0.01035038847476244
442.0,0.0,0.0,0.0,0.0,0.0,0.0,-0.01522428635507822,0.012217031791806221,-0.0022726207971572876,0.9982905983924866,-0.03451000154018402,-0.046756599098443985,0.006206227466464043
443.0,0.0,0.0,0.0,0.0,0.0,0.0,-0.01754705049097538,0.01060665212571621,-0.00404534675180912,0.9984659552574158,-0.033379245549440384,-0.04409490153193474,0.0027049221098423004
444.0,0.0,0.0,0.0,0.0,0.0,0.0,-0.01597282849252224,0.000822298345156014,-0.04480111226439476,0.9985805749893188,-0.03341757878661156,-0.04147030785679817,-0.0006288592703640461
445.0,0.0,0.0,0.0,0.0,0.0,0.0,0.003701641922816634,-0.01991596445441246,-0.060302238911390305,0.9986134767532349,-0.03550104796886444,-0.03874078020453453,-0.0031274096108973026
446.0,0.0,0.0,0.0,0.0,0.0,0.0,0.011038784869015217,-0.0008517411770299077,-0.06423556804656982,0.9985800981521606,-0.03897729888558388,-0.035852961242198944,-0.005736095830798149
447.0,0.0,0.0,0.0,0.0,0.0,0.0,0.011644208803772926,0.032389089465141296,-0.005891202483326197,0.9985697865486145,-0.041229091584682465,-0.032815396785736084,-0.009034321643412113
448.0,0.0,0.0,0.0,0.0,0.0,0.0,0.017661254853010178,0.04820876196026802,0.05033538490533829,0.9986308813095093,-0.04078133404254913,-0.03091367706656456,-0.01083097793161869
449.0,0.0,0.0,0.0,0.0,0.0,0.0,0.007249970454722643,-0.0184357650578022,0.0001672047219472006,0.998745858669281,-0.039575643837451935,-0.0295798871666193,-0.008077165111899376
450.0,0.0,0.0,0.0,0.0,0.0,0.0,0.005812934599816799,-0.01788594387471676,-0.055032484233379364,0.9988099336624146,-0.039826665073633194,-0.027817361056804657,-0.004345376044511795
451.0,0.0,0.0,0.0,0.0,0.0,0.0,0.05295775830745697,0.020837077870965004,0.02597869001328945,0.9988636374473572,-0.040152374655008316,-0.025656817480921745,-0.0009192951838485897
452.0,0.0,0.0,0.0,0.0,0.0,0.0,0.04515083134174347,0.02557050995528698,0.0156086515635252,0.9989219307899475,-0.04025214910507202,-0.023022692650556564,0.002104563172906637
453.0,0.0,0.0,0.0,0.0,0.0,0.0,0.06840023398399353,0.01930912584066391,-0.0354793481528759,0.9989301562309265,-0.04048182815313339,-0.02193361148238182,0.004297444596886635
454.0,0.0,0.0,0.0,0.0,0.0,0.0,0.1223563551902771,-0.028973190113902092,-0.03341447189450264,0.9988803863525391,-0.0406850129365921,-0.02314491756260395,0.006847181357443333
455.0,0.0,0.0,0.0,0.0,0.0,0.0,0.048328038305044174,-0.008292660117149353,-0.019194049760699272,0.9987727999687195,-0.04191959649324417,-0.02518271654844284,0.007837517186999321
456.0,0.0,0.0,0.0,0.0,0.0,0.0,0.029511401429772377,-0.0011178383138030767,-0.014793671667575836,0.9987001419067383,-0.0424208827316761,-0.02753986045718193,0.006323930807411671
457.0,0.0,0.0,0.0,0.0,0.0,0.0,0.0434907004237175,-0.017303552478551865,-0.000727802631445229,0.9985840320587158,-0.043451983481645584,-0.030168650671839714,0.005575400777161121
458.0,0.0,0.0,0.0,0.0,0.0,0.0,0.0008435665513388813,0.007539829704910517,0.013910419307649136,0.9984548091888428,-0.04457556828856468,-0.03271365910768509,0.005565531551837921
459.0,0.0,0.0,0.0,0.0,0.0,0.0,-0.014629817567765713,0.007192176766693592,0.03067958913743496,0.9984012246131897,-0.04457765445113182,-0.034214477986097336,0.0060787140391767025
460.0,0.0,0.0,0.0,0.0,0.0,0.0,-0.004269597586244345,-0.0015736451605334878,0.022043146193027496,0.9983132481575012,-0.04543565958738327,-0.035644568502902985,0.005969590041786432
461.0,0.0,0.0,0.0,0.0,0.0,0.0,0.0005726473755203187,-0.02096504718065262,-0.003585637779906392,0.9981558918952942,-0.04700636491179466,-0.037858087569475174,0.006455867551267147
462.0,0.0,0.0,0.0,0.0,0.0,0.0,-0.011767465621232986,-0.03285663574934006,-0.0027460369747132063,0.9979811906814575,-0.048826009035110474,-0.03994513675570488,0.007330265361815691
463.0,0.0,0.0,0.0,0.0,0.0,0.0,0.0057150209322571754,-0.02944403700530529,0.006124504376202822,0.9977408647537231,-0.05161683261394501,-0.04224453866481781,0.007991259917616844
464.0,0.0,0.0,0.0,0.0,0.0,0.0,-0.0025348258204758167,-0.01110274251550436,0.0343577079474926,0.9974860548973083,-0.05439569056034088,-0.044744864106178284,0.007772928103804588
465.0,0.0,0.0,0.0,0.0,0.0,0.0,-0.018824610859155655,-0.00015006719331722707,0.05593104660511017,0.9973002672195435,-0.056566931307315826,-0.04634348675608635,0.006663695443421602
466.0,0.0,0.0,0.0,0.0,0.0,0.0,-0.023212824016809464,0.00046658547944389284,0.06659093499183655,0.9971379041671753,-0.05936805158853531,-0.046407606452703476,0.006118611432611942
467.0,0.0,0.0,0.0,0.0,0.0,0.0,-0.03931369259953499,0.0006554689025506377,0.048433177173137665,0.9969694018363953,-0.06274810433387756,-0.045857984572649,0.003347891615703702
468.0,0.0,0.0,0.0,0.0,0.0,0.0,-0.018684687092900276,0.007837442681193352,0.054772306233644485,0.9969929456710815,-0.06293099373579025,-0.04521346092224121,-0.0007108445861376822
469.0,0.0,0.0,0.0,0.0,0.0,0.0,-0.010674439370632172,-0.0345156230032444,0.02119387313723564,0.9969330430030823,-0.06376738101243973,-0.04528537020087242,-0.0027338203508406878
470.0,0.0,0.0,0.0,0.0,0.0,0.0,-0.03342005982995033,-0.024387218058109283,-0.010722720995545387,0.9968597888946533,-0.06500446051359177,-0.044857628643512726,-0.005662907846271992
471.0,0.0,0.0,0.0,0.0,0.0,0.0,-0.03318934515118599,-0.02803478017449379,-0.015508527867496014,0.9968279004096985,-0.06540939956903458,-0.04462423175573349,-0.008015925996005535
472.0,0.0,0.0,0.0,0.0,0.0,0.0,-0.03313814848661423,-0.002803361974656582,0.0023967227898538113,0.9968518018722534,-0.06484606117010117,-0.04432756453752518,-0.010785525664687157
473.0,0.0,0.0,0.0,0.0,0.0,0.0,-0.03750206530094147,-0.007687663659453392,-0.008991884998977184,0.9968810677528381,-0.06440766900777817,-0.0433201938867569,-0.014244542457163334
474.0,0.0,0.0,0.0,0.0,0.0,0.0,-0.041173581033945084,-0.010580847039818764,-0.026260575279593468,0.9969635605812073,-0.06378267705440521,-0.041033387184143066,-0.017642637714743614
475.0,0.0,0.0,0.0,0.0,0.0,0.0,-0.03787291795015335,-0.013803419657051563,-0.02203037589788437,0.9969885945320129,-0.06374196708202362,-0.03824606537818909,-0.022090252488851547
476.0,0.0,0.0,0.0,0.0,0.0,0.0,-0.0469931960105896,-0.020334484055638313,-0.06043574959039688,0.9970325231552124,-0.06340543180704117,-0.03530745208263397,-0.02566961571574211
477.0,0.0,0.0,0.0,0.0,0.0,0.0,-0.005963395815342665,0.000792765524238348,-0.05672582611441612,0.9972010850906372,-0.061401501297950745,-0.032796215265989304,-0.027283232659101486
478.0,0.0,0.0,0.0,0.0,0.0,0.0,0.08145114779472351,0.011245442554354668,0.09683818370103836,0.997323751449585,-0.059126872569322586,-0.03276904299855232,-0.027842514216899872
479.0,0.0,0.0,0.0,0.0,0.0,0.0,0.007317665033042431,0.018482757732272148,-0.006368476897478104,0.9974654316902161,-0.05792200565338135,-0.03092203661799431,-0.027409149333834648
480.0,0.0,0.0,0.0,0.0,0.0,0.0,0.023831933736801147,0.03338048607110977,-0.020688273012638092,0.9975794553756714,-0.057849492877721786,-0.02883620746433735,-0.025634627789258957
481.0,0.0,0.0,0.0,0.0,0.0,0.0,0.027662081643939018,0.02027192898094654,-0.022233836352825165,0.997654378414154,-0.05813388526439667,-0.027315903455018997,-0.023663893342018127
482.0,0.0,0.0,0.0,0.0,0.0,0.0,0.009675043635070324,0.02398340404033661,-0.009450162760913372,0.9978436231613159,-0.056126028299331665,-0.02628464251756668,-0.02160852961242199
483.0,0.0,0.0,0.0,0.0,0.0,0.0,0.021142596378922462,0.02265186421573162,-0.024101655930280685,0.99798184633255,-0.05440116301178932,-0.025978317484259605,-0.01994212158024311
484.0,0.0,0.0,0.0,0.0,0.0,0.0,0.037153180688619614,0.002169625600799918,-0.04565814137458801,0.9980363249778748,-0.05397505685687065,-0.026287555694580078,-0.017863590270280838
485.0,0.0,0.0,0.0,0.0,0.0,0.0,0.023974621668457985,0.023778166621923447,-0.021363254636526108,0.9980536103248596,-0.05371422693133354,-0.02772768959403038,-0.015318613499403
486.0,0.0,0.0,0.0,0.0,0.0,0.0,0.015431149862706661,0.050160136073827744,-0.005401838105171919,0.9981244206428528,-0.052705977112054825,-0.02876053936779499,-0.011919200420379639
487.0,0.0,0.0,0.0,0.0,0.0,0.0,0.02105996385216713,0.060203686356544495,0.03672102093696594,0.9981919527053833,-0.05171748250722885,-0.02914445661008358,-0.009411772713065147
488.0,0.0,0.0,0.0,0.0,0.0,0.0,-0.009925838559865952,0.08412523567676544,0.0670166015625,0.9982385039329529,-0.0514860600233078,-0.028491804376244545,-0.007560437079519033
489.0,0.0,0.0,0.0,0.0,0.0,0.0,0.014586938545107841,0.07708810269832611,0.06218412145972252,0.9983788132667542,-0.049240872263908386,-0.027838166803121567,-0.006311014294624329
490.0,0.0,0.0,0.0,0.0,0.0,0.0,0.010187497362494469,0.02559194341301918,0.026015646755695343,0.9985186457633972,-0.04696176201105118,-0.027072859928011894,-0.004715064074844122
491.0,0.0,0.0,0.0,0.0,0.0,0.0,-0.0027747678104788065,0.035311583429574966,0.02167409658432007,0.9987680912017822,-0.04257526621222496,-0.025107093155384064,-0.004381207283586264
492.0,0.0,0.0,0.0,0.0,0.0,0.0,0.01098287757486105,0.024917885661125183,0.045055776834487915,0.999079167842865,-0.03576382249593735,-0.02345186658203602,-0.0034105763770639896
493.0,0.0,0.0,0.0,0.0,0.0,0.0,-0.027054456993937492,0.03154318407177925,0.03930320590734482,0.999345600605011,-0.02939360961318016,-0.021009763702750206,-0.001673781662248075
494.0,0.0,0.0,0.0,0.0,0.0,0.0,-0.032905835658311844,-0.0045602573081851006,0.03833528980612755,0.9995055198669434,-0.026394901797175407,-0.01706753484904766,0.0006448267376981676
495.0,0.0,0.0,0.0,0.0,0.0,0.0,-0.03780264034867287,-0.031371358782052994,0.003192337928339839,0.9995486736297607,-0.026333559304475784,-0.012794804759323597,0.006721933837980032
496.0,0.0,0.0,0.0,0.0,0.0,0.0,0.01826685667037964,-0.059376928955316544,-0.027994081377983093,0.9994702935218811,-0.028206082060933113,-0.008847329765558243,0.01360638253390789
497.0,0.0,0.0,0.0,0.0,0.0,0.0,0.02800615131855011,-0.03383632004261017,-0.07771530002355576,0.999353289604187,-0.03049621544778347,-0.006028066389262676,0.018075305968523026
498.0,0.0,0.0,0.0,0.0,0.0,0.0,0.06956078857183456,0.00274077826179564,-0.048720404505729675,0.9993346929550171,-0.029969938099384308,-0.0052720652893185616,0.02010170742869377
499.0,0.0,0.0,0.0,0.0,0.0,0.0,0.04506330192089081,-0.059237100183963776,-0.07409799098968506,0.999243974685669,-0.03228234127163887,-0.0038282987661659718,0.02132124826312065
500.0,0.0,0.0,0.0,0.0,0.0,0.0,0.049871496856212616,-0.006949970498681068,-0.10416838526725769,0.9991387724876404,-0.03498498722910881,-0.003012755187228322,0.022081399336457253
501.0,0.0,0.0,0.0,0.0,0.0,0.0,0.11079251766204834,-0.03612464666366577,-0.0480911023914814,0.998904287815094,-0.040013547986745834,-0.0030277357436716557,0.024083899334073067
502.0,0.0,0.0,0.0,0.0,0.0,0.0,0.10244885087013245,0.01873162016272545,-0.04436039924621582,0.998823344707489,-0.04173578321933746,-0.003339076181873679,0.024457035586237907
503.0,0.0,0.0,0.0,0.0,0.0,0.0,0.11384889483451843,0.0055944169871509075,-0.011248791590332985,0.9987595677375793,-0.042976830154657364,-0.004395514726638794,0.024754926562309265
504.0,0.0,0.0,0.0,0.0,0.0,0.0,0.025573931634426117,0.008807823061943054,0.006557098124176264,0.9987121820449829,-0.0444517508149147,-0.00473616411909461,0.023980651050806046
505.0,0.0,0.0,0.0,0.0,0.0,0.0,0.03233306109905243,0.009256983175873756,-0.016688581556081772,0.9987086653709412,-0.04447007179260254,-0.005357987247407436,0.02395750768482685
506.0,0.0,0.0,0.0,0.0,0.0,0.0,0.05224845930933952,-0.02442333847284317,-0.034500766545534134,0.9986661076545715,-0.044918276369571686,-0.006568027660250664,0.024589229375123978
507.0,0.0,0.0,0.0,0.0,0.0,0.0,0.01339864544570446,-0.010716770775616169,-0.013598076067864895,0.9986858367919922,-0.04450639709830284,-0.007568288594484329,0.024266963824629784
508.0,0.0,0.0,0.0,0.0,0.0,0.0,-0.008773135021328926,-0.02620316483080387,-0.009434904903173447,0.9986787438392639,-0.04377443715929985,-0.008638217113912106,0.025489961728453636
509.0,0.0,0.0,0.0,0.0,0.0,0.0,-0.02052430436015129,-0.02315266616642475,-0.004197108559310436,0.9986138343811035,-0.04392194375395775,-0.009656991809606552,0.02734093740582466
510.0,0.0,0.0,0.0,0.0,0.0,0.0,-0.027936797589063644,-0.022892789915204048,0.004175754263997078,0.9985021948814392,-0.04481009393930435,-0.00995703972876072,0.029757782816886902
511.0,0.0,0.0,0.0,0.0,0.0,0.0,-0.018360529094934464,-0.017643094062805176,0.0004950379952788353,0.9983094334602356,-0.04670713096857071,-0.010860411450266838,0.03283844515681267
512.0,0.0,0.0,0.0,0.0,0.0,0.0,-0.008873571641743183,-0.017401117831468582,0.006968238856643438,0.9981512427330017,-0.04840221256017685,-0.012656408362090588,0.03451709821820259
513.0,0.0,0.0,0.0,0.0,0.0,0.0,-0.01151865255087614,-0.002616685815155506,0.01493364479392767,0.9980091452598572,-0.0497034527361393,-0.01467589009553194,0.03594094142317772
514.0,0.0,0.0,0.0,0.0,0.0,0.0,-0.012386655434966087,0.009071696549654007,0.015379652380943298,0.9977979063987732,-0.051210660487413406,-0.01741236262023449,0.03836975619196892
515.0,0.0,0.0,0.0,0.0,0.0,0.0,-0.019311849027872086,0.014869453385472298,0.012084823101758957,0.997567892074585,-0.053080592304468155,-0.020658990368247032,0.04017070680856705
516.0,0.0,0.0,0.0,0.0,0.0,0.0,-0.009939823299646378,0.0323786661028862,0.028927749022841454,0.9973750710487366,-0.05412376672029495,-0.023966435343027115,0.0417088121175766
517.0,0.0,0.0,0.0,0.0,0.0,0.0,-0.0036536238621920347,0.04778309911489487,0.07418446242809296,0.9972328543663025,-0.05402379110455513,-0.02619079500436783,0.04382849112153053
518.0,0.0,0.0,0.0,0.0,0.0,0.0,-0.024163100868463516,0.0325610376894474,0.024780163541436195,0.9969903826713562,-0.05514802783727646,-0.028112536296248436,0.04667063429951668
519.0,0.0,0.0,0.0,0.0,0.0,0.0,-0.017646891996264458,0.04227267950773239,0.030384806916117668,0.9967758059501648,-0.055390313267707825,-0.030548568814992905,0.04934835061430931
520.0,0.0,0.0,0.0,0.0,0.0,0.0,-0.015650946646928787,0.04983435198664665,0.05958549305796623,0.9966219067573547,-0.054782312363386154,-0.03265446424484253,0.05172867700457573
521.0,0.0,0.0,0.0,0.0,0.0,0.0,-0.019459310919046402,0.043726567178964615,0.05176379904150963,0.9964435696601868,-0.054945945739746094,-0.03503888472914696,0.0534132644534111
522.0,0.0,0.0,0.0,0.0,0.0,0.0,-0.008774903602898121,0.0255136676132679,0.030003655701875687,0.9961902499198914,-0.05611235275864601,-0.037424322217702866,0.055292028933763504
523.0,0.0,0.0,0.0,0.0,0.0,0.0,-0.016337838023900986,0.02483787201344967,0.025456009432673454,0.9960057735443115,-0.05695660412311554,-0.03955685719847679,0.05624063313007355
524.0,0.0,0.0,0.0,0.0,0.0,0.0,-0.024377500638365746,0.01074434258043766,0.01079301256686449,0.9958866238594055,-0.05813165754079819,-0.04092579707503319,0.05616500973701477
525.0,0.0,0.0,0.0,0.0,0.0,0.0,-0.024790754541754723,0.009709719568490982,0.003960406873375177,0.9958872199058533,-0.058634959161281586,-0.04173831269145012,0.055026572197675705
526.0,0.0,0.0,0.0,0.0,0.0,0.0,-0.027212277054786682,0.015707796439528465,-0.012070146389305592,0.9958219528198242,-0.05970030650496483,-0.04278665781021118,0.054257143288850784
527.0,0.0,0.0,0.0,0.0,0.0,0.0,-0.019365793094038963,0.00999107863754034,-0.0072875432670116425,0.9957784414291382,-0.06111633777618408,-0.043970927596092224,0.05249610170722008
528.0,0.0,0.0,0.0,0.0,0.0,0.0,0.01818121410906315,0.00033678903128020465,0.02224208228290081,0.995721697807312,-0.06252595037221909,-0.044554244726896286,0.051407210528850555
529.0,0.0,0.0,0.0,0.0,0.0,0.0,0.0032189113553613424,0.019986137747764587,0.025617072358727455,0.9957081079483032,-0.06312775611877441,-0.044297292828559875,0.05115256458520889
530.0,0.0,0.0,0.0,0.0,0.0,0.0,-0.0119765130802989,0.0176607146859169,0.010839744471013546,0.9957932233810425,-0.06288420408964157,-0.043328676372766495,0.050635579973459244
531.0,0.0,0.0,0.0,0.0,0.0,0.0,-0.018514085561037064,0.011416946537792683,-0.013895208016037941,0.9959371089935303,-0.06195208430290222,-0.04275340959429741,0.049428585916757584
532.0,0.0,0.0,0.0,0.0,0.0,0.0,0.009937239810824394,0.004844069015234709,-0.004915519151836634,0.9960597157478333,-0.061705198138952255,-0.042320121079683304,0.0475984551012516
533.0,0.0,0.0,0.0,0.0,0.0,0.0,0.010123109444975853,-0.0014955556252971292,-0.009258526377379894,0.9961102604866028,-0.062155649065971375,-0.041920144110918045,0.04628666862845421
534.0,0.0,0.0,0.0,0.0,0.0,0.0,0.00824401993304491,-0.00047856959281489253,-0.009109217673540115,0.9961047768592834,-0.06292106956243515,-0.04217386990785599,0.04513367637991905
535.0,0.0,0.0,0.0,0.0,0.0,0.0,0.0032920525409281254,-0.003044696291908622,-0.0057954490184783936,0.9960765838623047,-0.06394746154546738,-0.042316388338804245,0.044171757996082306
536.0,0.0,0.0,0.0,0.0,0.0,0.0,-0.005640646908432245,0.002734343521296978,0.0018826351733878255,0.9961117506027222,-0.06433561444282532,-0.04206877201795578,0.043041203171014786
537.0,0.0,0.0,0.0,0.0,0.0,0.0,-0.0024435764644294977,-0.0010609778109937906,0.008234312757849693,0.99613356590271,-0.06454712152481079,-0.041883837431669235,0.0423915833234787
538.0,0.0,0.0,0.0,0.0,0.0,0.0,-0.0015056205447763205,0.008829894475638866,0.012968814000487328,0.9962437152862549,-0.06395084410905838,-0.0415482334792614,0.04101433604955673
539.0,0.0,0.0,0.0,0.0,0.0,0.0,0.005898097064346075,-0.005271666217595339,0.00985502265393734,0.9964096546173096,-0.06343381106853485,-0.040550608187913895,0.03871520236134529
540.0,0.0,0.0,0.0,0.0,0.0,0.0,0.011218647472560406,-0.01730232685804367,-0.01676248013973236,0.9964904189109802,-0.06430427730083466,-0.03936193138360977,0.036360736936330795
541.0,0.0,0.0,0.0,0.0,0.0,0.0,-0.002310351701453328,-0.0024418083485215902,-0.004506927914917469,0.9965528845787048,-0.06590113788843155,-0.03778277710080147,0.03333176299929619
542.0,0.0,0.0,0.0,0.0,0.0,0.0,-0.011544412933290005,0.014519499614834785,0.018067048862576485,0.9966302514076233,-0.06680737435817719,-0.03604596480727196,0.031068813055753708
543.0,0.0,0.0,0.0,0.0,0.0,0.0,-0.01824006997048855,0.025380399078130722,0.04477132856845856,0.9968013167381287,-0.06642942875623703,-0.03375234454870224,0.028895303606987
544.0,0.0,0.0,0.0,0.0,0.0,0.0,-0.010787528939545155,0.02085450105369091,0.03377111628651619,0.9969558715820312,-0.06624438613653183,-0.031619105488061905,0.026276899501681328
545.0,0.0,0.0,0.0,0.0,0.0,0.0,-0.005514576565474272,0.021143903955817223,0.03415573760867119,0.9970583915710449,-0.0665116012096405,-0.02956526167690754,0.024019991979002953
546.0,0.0,0.0,0.0,0.0,0.0,0.0,0.0003120357287116349,0.007714360486716032,0.016257168725132942,0.9971779584884644,-0.06584306061267853,-0.028453348204493523,0.022143375128507614
547.0,0.0,0.0,0.0,0.0,0.0,0.0,-0.007148309610784054,0.0029582814313471317,0.00199786014854908,0.9972336292266846,-0.06617459654808044,-0.02725991979241371,0.02005576901137829
548.0,0.0,0.0,0.0,0.0,0.0,0.0,-0.006910520605742931,0.02421354129910469,0.0015485100448131561,0.9972727298736572,-0.06627389043569565,-0.026936667039990425,0.01813811995089054
549.0,0.0,0.0,0.0,0.0,0.0,0.0,-0.005829548928886652,-0.014609863981604576,-0.04087148606777191,0.9972395300865173,-0.06746654957532883,-0.026420973241329193,0.016216011717915535
550.0,0.0,0.0,0.0,0.0,0.0,0.0,0.010918419808149338,-0.010003478266298771,-0.0507347509264946,0.9972102642059326,-0.06819034367799759,-0.02673923783004284,0.01436321809887886
551.0,0.0,0.0,0.0,0.0,0.0,0.0,0.026676779612898827,0.001972076715901494,-0.022650515660643578,0.9971436262130737,-0.06840264797210693,-0.028633801266551018,0.014354514889419079
552.0,0.0,0.0,0.0,0.0,0.0,0.0,0.034203220158815384,0.028731277212500572,0.00424201600253582,0.9971088767051697,-0.06758738309144974,-0.03138534352183342,0.014854593202471733
553.0,0.0,0.0,0.0,0.0,0.0,0.0,0.018023639917373657,-0.002404705388471484,-0.009765162132680416,0.9969869256019592,-0.06790229678153992,-0.034089356660842896,0.01561191026121378
554.0,0.0,0.0,0.0,0.0,0.0,0.0,0.009691089391708374,-0.004035319667309523,-0.009306543506681919,0.9968436360359192,-0.06840929388999939,-0.03670533373951912,0.01656838320195675
555.0,0.0,0.0,0.0,0.0,0.0,0.0,-0.004632867872714996,-0.0018103484762832522,-0.010733542963862419,0.9966887831687927,-0.06917179375886917,-0.03900200501084328,0.017469964921474457
556.0,0.0,0.0,0.0,0.0,0.0,0.0,-0.010320319794118404,-0.026915915310382843,-0.000292047654511407,0.9965047836303711,-0.07018798589706421,-0.04085354879498482,0.01956392265856266
557.0,0.0,0.0,0.0,0.0,0.0,0.0,-0.005077258218079805,-0.014891771599650383,-0.01011548563838005,0.9963322281837463,-0.07021667063236237,-0.04367399960756302,0.022026581689715385
558.0,0.0,0.0,0.0,0.0,0.0,0.0,0.039184845983982086,-0.023327356204390526,-0.03104942850768566,0.995913028717041,-0.07189290225505829,-0.04893666133284569,0.02435535378754139
559.0,0.0,0.0,0.0,0.0,0.0,0.0,0.006700063124299049,0.03262022137641907,0.04458661004900932,0.9955613017082214,-0.07243343442678452,-0.053567539900541306,0.027221303433179855
560.0,0.0,0.0,0.0,0.0,0.0,0.0,-0.015498347580432892,0.06782988458871841,0.10636281967163086,0.9955164194107056,-0.06869731098413467,-0.05638149008154869,0.03237253427505493
561.0,0.0,0.0,0.0,0.0,0.0,0.0,0.016863225027918816,-0.005038807634264231,0.04035166651010513,0.9954289793968201,-0.06410367041826248,-0.058294426649808884,0.04016011953353882
562.0,0.0,0.0,0.0,0.0,0.0,0.0,-0.0024262280203402042,-0.07160879671573639,-0.04342809319496155,0.9951826333999634,-0.06419089436531067,-0.05991348996758461,0.0435970313847065
563.0,0.0,0.0,0.0,0.0,0.0,0.0,-0.018459778279066086,-0.03299344703555107,-0.03851859271526337,0.995070219039917,-0.06424430012702942,-0.0614737793803215,0.043912991881370544
564.0,0.0,0.0,0.0,0.0,0.0,0.0,0.03725708648562431,-0.06856340169906616,-0.01859748177230358,0.9948604106903076,-0.0660642459988594,-0.062367621809244156,0.04470011591911316
565.0,0.0,0.0,0.0,0.0,0.0,0.0,0.006993086077272892,0.004147106781601906,-0.04785141348838806,0.9948009252548218,-0.06900390237569809,-0.06323758512735367,0.040131185203790665
566.0,0.0,0.0,0.0,0.0,0.0,0.0,0.0863560140132904,-0.06948555260896683,-0.0823325663805008,0.9945972561836243,-0.07069459557533264,-0.06755364686250687,0.03484334796667099
567.0,0.0,0.0,0.0,0.0,0.0,0.0,0.03578092157840729,-0.029391122981905937,-0.06705977022647858,0.9944551587104797,-0.07159643620252609,-0.07172568142414093,0.02808697707951069
568.0,0.0,0.0,0.0,0.0,0.0,0.0,-0.06451033800840378,0.012040211819112301,-0.0029986968729645014,0.9941592216491699,-0.07377086579799652,-0.07531492412090302,0.023092102259397507
569.0,0.0,0.0,0.0,0.0,0.0,0.0,-0.02874448150396347,0.06558219343423843,0.050786059349775314,0.9939063787460327,-0.07260837405920029,-0.07997727394104004,0.021940534934401512
570.0,0.0,0.0,0.0,0.0,0.0,0.0,0.012412582524120808,0.04542237147688866,0.046782758086919785,0.9936950206756592,-0.06893528997898102,-0.08534760773181915,0.023097852244973183
571.0,0.0,0.0,0.0,0.0,0.0,0.0,-0.048262134194374084,0.004567540716379881,0.032185234129428864,0.9934539794921875,-0.06889387220144272,-0.08794565498828888,0.023832032456994057
572.0,0.0,0.0,0.0,0.0,0.0,0.0,-0.02423100732266903,0.016616258770227432,0.015026582404971123,0.9933139085769653,-0.07064210623502731,-0.08826995640993118,0.023349832743406296
573.0,0.0,0.0,0.0,0.0,0.0,0.0,-0.022721000015735626,0.024519721046090126,0.055587537586688995,0.9932214617729187,-0.07355771958827972,-0.0874376893043518,0.02132805995643139
574.0,0.0,0.0,0.0,0.0,0.0,0.0,-0.05283033475279808,0.008113004267215729,-0.000790051301009953,0.9932499527931213,-0.07754329591989517,-0.08436736464500427,0.017986604943871498
575.0,0.0,0.0,0.0,0.0,0.0,0.0,-0.026791958138346672,-0.03522491827607155,-0.04461996629834175,0.9930848479270935,-0.08093671500682831,-0.08336043357849121,0.016798382624983788
576.0,0.0,0.0,0.0,0.0,0.0,0.0,-0.0375065803527832,0.004067620728164911,-0.051292695105075836,0.9928287267684937,-0.08450856059789658,-0.08297199010848999,0.016279255971312523
577.0,0.0,0.0,0.0,0.0,0.0,0.0,-0.017558077350258827,-0.02586342953145504,-0.021326735615730286,0.9923496842384338,-0.09019456058740616,-0.08258666098117828,0.016911227256059647
578.0,0.0,0.0,0.0,0.0,0.0,0.0,-0.03878404572606087,0.008441992104053497,-0.00962894968688488,0.9919336438179016,-0.0944756492972374,-0.08312070369720459,0.01527632586658001
579.0,0.0,0.0,0.0,0.0,0.0,0.0,-0.05745580047369003,0.029208285734057426,-0.015963278710842133,0.9918739199638367,-0.09500519186258316,-0.08353286236524582,0.013493403792381287
580.0,0.0,0.0,0.0,0.0,0.0,0.0,-0.023062359541654587,0.028323793783783913,0.04035267233848572,0.9918975234031677,-0.09495571255683899,-0.0832914486527443,0.01359072420746088
581.0,0.0,0.0,0.0,0.0,0.0,0.0,-0.03358566015958786,0.03967922925949097,0.03285006433725357,0.9920556545257568,-0.0947379395365715,-0.0817423164844513,0.01297474093735218
582.0,0.0,0.0,0.0,0.0,0.0,0.0,-0.03311384469270706,0.04241326078772545,0.022362254559993744,0.9924890398979187,-0.0933484435081482,-0.07841759920120239,0.010108384303748608
583.0,0.0,0.0,0.0,0.0,0.0,0.0,-0.012678170576691628,0.008696261793375015,0.004150412976741791,0.9928513169288635,-0.09204573184251785,-0.07553160935640335,0.008291659876704216
584.0,0.0,0.0,0.0,0.0,0.0,0.0,-0.0016335834516212344,0.010913701727986336,-0.020752880722284317,0.9932687282562256,-0.08981472998857498,-0.0726720318198204,0.008295816369354725
585.0,0.0,0.0,0.0,0.0,0.0,0.0,0.0027480407152324915,0.015360892750322819,-0.006861300673335791,0.9936309456825256,-0.08756709098815918,-0.07038865983486176,0.008647145703434944
586.0,0.0,0.0,0.0,0.0,0.0,0.0,-0.005170655902475119,0.023214098066091537,0.008680254220962524,0.9940040111541748,-0.0849873274564743,-0.06825771927833557,0.008600903674960136
587.0,0.0,0.0,0.0,0.0,0.0,0.0,0.001350852893665433,0.008793202228844166,-0.011157997883856297,0.9943978190422058,-0.08136783540248871,-0.06672710925340652,0.009978793561458588
588.0,0.0,0.0,0.0,0.0,0.0,0.0,0.009185356087982655,0.01009423565119505,-0.009052997455000877,0.9947673678398132,-0.07756621390581131,-0.06548646837472916,0.01151975803077221
589.0,0.0,0.0,0.0,0.0,0.0,0.0,0.01480213925242424,0.010188532993197441,-0.0020324348006397486,0.9949690103530884,-0.07584711909294128,-0.0641581192612648,0.012943357229232788
590.0,0.0,0.0,0.0,0.0,0.0,0.0,0.013854137621819973,0.009267978370189667,-0.009433561004698277,0.9952108263969421,-0.07395350933074951,-0.06236537918448448,0.014018232934176922
591.0,0.0,0.0,0.0,0.0,0.0,0.0,0.010054068639874458,0.009970798157155514,0.011724470183253288,0.9954323768615723,-0.0732031986117363,-0.059710584580898285,0.0137769915163517
592.0,0.0,0.0,0.0,0.0,0.0,0.0,0.014195969328284264,0.009995848871767521,-0.015288246795535088,0.9956001043319702,-0.07323005795478821,-0.0568363331258297,0.013672390021383762
593.0,0.0,0.0,0.0,0.0,0.0,0.0,0.030240274965763092,0.0032396328169852495,-0.009421694092452526,0.9958029389381409,-0.07205317914485931,-0.05463416129350662,0.014146021567285061
594.0,0.0,0.0,0.0,0.0,0.0,0.0,0.03201743960380554,0.004917872603982687,0.01683521643280983,0.9959647059440613,-0.0705590695142746,-0.0532490611076355,0.01549322996288538
595.0,0.0,0.0,0.0,0.0,0.0,0.0,0.02454858459532261,0.005014510825276375,0.013189188204705715,0.9960963726043701,-0.06916522979736328,-0.051989104598760605,0.01746329665184021
596.0,0.0,0.0,0.0,0.0,0.0,0.0,0.031678181141614914,-0.00363312684930861,0.0010722168954089284,0.9962273836135864,-0.0677771046757698,-0.051051098853349686,0.018178831785917282
597.0,0.0,0.0,0.0,0.0,0.0,0.0,0.034573957324028015,-0.007189342752099037,0.006673160474747419,0.996367871761322,-0.06589526683092117,-0.050499074161052704,0.018929719924926758
598.0,0.0,0.0,0.0,0.0,0.0,0.0,0.025672610849142075,-0.007036592811346054,0.008069168776273727,0.996516227722168,-0.06361432373523712,-0.05030393972992897,0.019424589350819588
599.0,0.0,0.0,0.0,0.0,0.0,0.0,0.02515353448688984,0.01081458292901516,0.019971143454313278,0.9967234134674072,-0.06053417548537254,-0.05061671510338783,0.017779989168047905
600.0,0.0,0.0,0.0,0.0,0.0,0.0,0.011902954429388046,-0.0009604369406588376,0.03885513171553612,0.9970267415046692,-0.05597167834639549,-0.05056833103299141,0.015726439654827118
601.0,0.0,0.0,0.0,0.0,0.0,0.0,-0.001256677322089672,-0.017612487077713013,0.006450027227401733,0.9972686767578125,-0.052849944680929184,-0.04991159960627556,0.013068881817162037
602.0,0.0,0.0,0.0,0.0,0.0,0.0,0.008218416944146156,-0.01534869335591793,-0.00011020522651961073,0.9975185394287109,-0.05023946240544319,-0.048256438225507736,0.010176683776080608
603.0,0.0,0.0,0.0,0.0,0.0,0.0,-0.11186574399471283,-0.005434832535684109,0.033411819487810135,0.9978153705596924,-0.048786088824272156,-0.04420584812760353,0.005484457593411207
604.0,0.0,0.0,0.0,0.0,0.0,0.0,-0.0036348318681120872,-0.013912316411733627,0.0007158469525165856,0.9980027675628662,-0.047466810792684555,-0.041641756892204285,0.0017482290277257562
605.0,0.0,0.0,0.0,0.0,0.0,0.0,0.019578758627176285,-0.029054095968604088,-0.021712670102715492,0.9981040954589844,-0.04720017686486244,-0.03950246050953865,-0.00015001797873992473
606.0,0.0,0.0,0.0,0.0,0.0,0.0,0.006859996821731329,-0.027313347905874252,-0.032506536692380905,0.998203456401825,-0.046386267989873886,-0.037895847111940384,-0.001405384624376893
607.0,0.0,0.0,0.0,0.0,0.0,0.0,-9.618570766178891e-05,-0.03717249259352684,-0.03264455124735832,0.9982375502586365,-0.04657817259430885,-0.03668365627527237,-0.002577122999355197
608.0,0.0,0.0,0.0,0.0,0.0,0.0,-0.01207340881228447,-0.018982190638780594,-0.023612702265381813,0.9983088970184326,-0.04706668481230736,-0.03379528969526291,-0.004629584029316902
609.0,0.0,0.0,0.0,0.0,0.0,0.0,0.032168563455343246,-0.04805072396993637,-0.02526792138814926,0.998248815536499,-0.049554772675037384,-0.031945813447237015,-0.0047691999934613705
610.0,0.0,0.0,0.0,0.0,0.0,0.0,0.004204849246889353,-0.009178180247545242,-0.01051439717411995,0.9981304407119751,-0.05293198674917221,-0.030001185834407806,-0.00582204619422555
611.0,0.0,0.0,0.0,0.0,0.0,0.0,-0.042209193110466,0.0319310799241066,0.04146033152937889,0.9981185793876648,-0.05516839772462845,-0.0258133877068758,-0.00701766274869442
612.0,0.0,0.0,0.0,0.0,0.0,0.0,0.030350888147950172,-0.010198474861681461,0.012991080991923809,0.9980736374855042,-0.057333096861839294,-0.02276761457324028,-0.0065254932269454
613.0,0.0,0.0,0.0,0.0,0.0,0.0,0.037278588861227036,-0.02759292535483837,-0.022424088791012764,0.9979669451713562,-0.0599750317633152,-0.02054588496685028,-0.006475735455751419
614.0,0.0,0.0,0.0,0.0,0.0,0.0,0.0340752936899662,0.036421943455934525,0.0094886664301157,0.9980801939964294,-0.05835533142089844,-0.01882234402000904,-0.008729657158255577
615.0,0.0,0.0,0.0,0.0,0.0,0.0,0.06052189692854881,-0.02294541522860527,0.02153446525335312,0.9981071352958679,-0.05774923786520958,-0.019393708556890488,-0.008398978970944881
616.0,0.0,0.0,0.0,0.0,0.0,0.0,0.041927166283130646,-0.011720187962055206,-0.014491787180304527,0.9981822371482849,-0.05604039505124092,-0.01973327435553074,-0.010133701376616955
617.0,0.0,0.0,0.0,0.0,0.0,0.0,0.027568893507122993,-0.005737625528126955,0.003711290890350938,0.9983170628547668,-0.05304081737995148,-0.019742636010050774,-0.012612409889698029
618.0,0.0,0.0,0.0,0.0,0.0,0.0,0.022693602368235588,-0.007906601764261723,0.008486292324960232,0.9984110593795776,-0.05043158307671547,-0.020607376471161842,-0.014388135634362698
619.0,0.0,0.0,0.0,0.0,0.0,0.0,0.028282755985856056,-0.008519341237843037,0.0030939034186303616,0.9985324144363403,-0.047198645770549774,-0.02143152803182602,-0.015663212165236473
620.0,0.0,0.0,0.0,0.0,0.0,0.0,0.028457265347242355,-0.012253500521183014,-0.0023325702641159296,0.9986726641654968,-0.04352772980928421,-0.022273147478699684,-0.016195017844438553
621.0,0.0,0.0,0.0,0.0,0.0,0.0,0.025504693388938904,0.004056842532008886,0.0088859423995018,0.998792290687561,-0.03963436931371689,-0.02358836866915226,-0.01692970283329487
622.0,0.0,0.0,0.0,0.0,0.0,0.0,0.030987657606601715,-0.014633433893322945,-0.0033040624111890793,0.9988933205604553,-0.036401230841875076,-0.024367190897464752,-0.017109844833612442
623.0,0.0,0.0,0.0,0.0,0.0,0.0,0.01841530203819275,-0.007059337571263313,-0.007202279753983021,0.999000072479248,-0.032675910741090775,-0.024471189826726913,-0.018232805654406548
624.0,0.0,0.0,0.0,0.0,0.0,0.0,0.015978246927261353,-0.019723711535334587,0.002848520642146468,0.9990639090538025,-0.030497059226036072,-0.024601422250270844,-0.018326377496123314
625.0,0.0,0.0,0.0,0.0,0.0,0.0,0.002361880848184228,-0.020817935466766357,-0.02143027074635029,0.9989870190620422,-0.031841930001974106,-0.024796925485134125,-0.01990531198680401
626.0,0.0,0.0,0.0,0.0,0.0,0.0,0.023002972826361656,-0.02113679237663746,-0.024599231779575348,0.9989662766456604,-0.032748982310295105,-0.025019166991114616,-0.019183902069926262
627.0,0.0,0.0,0.0,0.0,0.0,0.0,0.02683911845088005,0.0037213226314634085,0.0036945808678865433,0.9989477396011353,-0.03316482901573181,-0.02512255683541298,-0.0193092729896307
628.0,0.0,0.0,0.0,0.0,0.0,0.0,0.02285194769501686,0.010441644117236137,0.010738660581409931,0.9989098906517029,-0.034237876534461975,-0.025523604825139046,-0.0188539307564497
629.0,0.0,0.0,0.0,0.0,0.0,0.0,0.03204210475087166,0.005752813536673784,-0.012177749536931515,0.9988675117492676,-0.035378601402044296,-0.026257377117872238,-0.017963850870728493
630.0,0.0,0.0,0.0,0.0,0.0,0.0,0.04037630558013916,0.01575012505054474,-0.010045219212770462,0.9987967014312744,-0.03679962083697319,-0.027658168226480484,-0.01687351055443287
631.0,0.0,0.0,0.0,0.0,0.0,0.0,0.0440283939242363,0.00979448202997446,0.0037507859524339437,0.9986952543258667,-0.03842826560139656,-0.029756110161542892,-0.015638131648302078
632.0,0.0,0.0,0.0,0.0,0.0,0.0,0.0236776415258646,0.005473618395626545,-0.002273558173328638,0.9985383152961731,-0.04064742475748062,-0.03262804448604584,-0.014289528131484985
633.0,0.0,0.0,0.0,0.0,0.0,0.0,0.009390514343976974,0.005752206314355135,0.003854556242004037,0.998359739780426,-0.04281758889555931,-0.035834867507219315,-0.012598448432981968
634.0,0.0,0.0,0.0,0.0,0.0,0.0,-0.005988060496747494,0.014397657476365566,0.022112993523478508,0.9981957077980042,-0.04446973279118538,-0.0389549545943737,-0.010443389415740967
635.0,0.0,0.0,0.0,0.0,0.0,0.0,-0.02547556348145008,0.026392865926027298,0.04997163265943527,0.9980776309967041,-0.04524978995323181,-0.041306253522634506,-0.009345217607915401
636.0,0.0,0.0,0.0,0.0,0.0,0.0,-0.036214105784893036,0.01460142619907856,0.0439024455845356,0.9979475736618042,-0.046109821647405624,-0.04329265281558037,-0.009981737472116947
637.0,0.0,0.0,0.0,0.0,0.0,0.0,-0.02341090701520443,0.006160247605293989,0.01587560959160328,0.9977933168411255,-0.047396350651979446,-0.0455532968044281,-0.009335475973784924
638.0,0.0,0.0,0.0,0.0,0.0,0.0,-0.02313649281859398,-0.00372450053691864,0.007581927813589573,0.9976349472999573,-0.048771873116493225,-0.0478927418589592,-0.007204824592918158
639.0,0.0,0.0,0.0,0.0,0.0,0.0,-0.0260633397847414,0.0048299869522452354,0.002594888908788562,0.9974719882011414,-0.050192032009363174,-0.050109513103961945,-0.004304181318730116
640.0,0.0,0.0,0.0,0.0,0.0,0.0,-0.045042309910058975,0.033656589686870575,0.022353030741214752,0.9973465204238892,-0.051915477961301804,-0.05088967829942703,-0.0038776248693466187
641.0,0.0,0.0,0.0,0.0,0.0,0.0,-0.06507492810487747,0.02745700627565384,0.03286661580204964,0.997302234172821,-0.05419806018471718,-0.049123961478471756,-0.006110263988375664
642.0,0.0,0.0,0.0,0.0,0.0,0.0,-0.02008076012134552,-0.0008585521136410534,-0.016168348491191864,0.9972750544548035,-0.05653255060315132,-0.04691575467586517,-0.006729300133883953
643.0,0.0,0.0,0.0,0.0,0.0,0.0,0.0024615467991679907,0.0015430516796186566,-0.016739724203944206,0.997273862361908,-0.0578375943005085,-0.045289844274520874,-0.0069659012369811535
644.0,0.0,0.0,0.0,0.0,0.0,0.0,-0.022535180673003197,0.0347277969121933,0.02707311511039734,0.9973427653312683,-0.05802358686923981,-0.04319940507411957,-0.008620613254606724
645.0,0.0,0.0,0.0,0.0,0.0,0.0,-0.016561375930905342,0.01700577139854431,-0.0019197757355868816,0.997378945350647,-0.058459118008613586,-0.04130513221025467,-0.010533388704061508
646.0,0.0,0.0,0.0,0.0,0.0,0.0,0.014387352392077446,0.013494815677404404,-0.01496846042573452,0.9974675178527832,-0.0569646991789341,-0.040356941521167755,-0.013544581830501556
647.0,0.0,0.0,0.0,0.0,0.0,0.0,0.0022524152882397175,0.0022954961750656366,-0.021366920322179794,0.9975881576538086,-0.05461334064602852,-0.03981409966945648,-0.01581694558262825
648.0,0.0,0.0,0.0,0.0,0.0,0.0,-0.01330420933663845,0.04778984934091568,0.12231199443340302,0.9979098439216614,-0.048738304525613785,-0.038068078458309174,-0.018730146810412407
649.0,0.0,0.0,0.0,0.0,0.0,0.0,-0.026001358404755592,0.0010235934751108289,0.013307753019034863,0.998114824295044,-0.04545891657471657,-0.03506969287991524,-0.021669438108801842
650.0,0.0,0.0,0.0,0.0,0.0,0.0,-0.02279486507177353,-0.002685745246708393,-0.03431754559278488,0.9982244968414307,-0.044018443673849106,-0.031821589916944504,-0.024440960958600044
651.0,0.0,0.0,0.0,0.0,0.0,0.0,-0.010579744353890419,0.0019188246224075556,-0.019069459289312363,0.9982689023017883,-0.04292868450284004,-0.028850020840764046,-0.027991050854325294
652.0,0.0,0.0,0.0,0.0,0.0,0.0,-0.0018643129151314497,-0.0029771311674267054,-0.020324671640992165,0.9983407855033875,-0.04213361069560051,-0.026215162128210068,-0.029206762090325356
653.0,0.0,0.0,0.0,0.0,0.0,0.0,0.02143537625670433,0.023295801132917404,-0.004394090734422207,0.9984371066093445,-0.039969976991415024,-0.02413785457611084,-0.03070218488574028
654.0,0.0,0.0,0.0,0.0,0.0,0.0,0.031801387667655945,0.01239011436700821,-0.027818161994218826,0.998489499092102,-0.03837835043668747,-0.02262856997549534,-0.03214402124285698
655.0,0.0,0.0,0.0,0.0,0.0,0.0,0.02855103462934494,-0.005708838813006878,-0.05189254879951477,0.9985823631286621,-0.036288805305957794,-0.022084057331085205,-0.032065145671367645
656.0,0.0,0.0,0.0,0.0,0.0,0.0,0.04470419883728027,-0.004911207593977451,-0.048147547990083694,0.9986350536346436,-0.035241495817899704,-0.0226790402084589,-0.031164780259132385
657.0,0.0,0.0,0.0,0.0,0.0,0.0,0.03409838676452637,0.0019797186832875013,-0.039318863302469254,0.9986711740493774,-0.034641895443201065,-0.023909088224172592,-0.02974138781428337
658.0,0.0,0.0,0.0,0.0,0.0,0.0,0.037171632051467896,0.028761355206370354,-0.00909778755158186,0.9987391233444214,-0.033281780779361725,-0.02557939849793911,-0.027533840388059616
659.0,0.0,0.0,0.0,0.0,0.0,0.0,0.02448558621108532,0.03306927904486656,0.012942473404109478,0.9987978339195251,-0.03213289752602577,-0.02776634320616722,-0.02447367273271084
660.0,0.0,0.0,0.0,0.0,0.0,0.0,0.013238755986094475,0.03962316736578941,0.009036135859787464,0.9988375306129456,-0.03127260133624077,-0.03008832037448883,-0.02096789889037609
661.0,0.0,0.0,0.0,0.0,0.0,0.0,0.025374868884682655,0.04917381331324577,0.04617391899228096,0.9988905191421509,-0.02945864386856556,-0.03232650086283684,-0.017445160076022148
662.0,0.0,0.0,0.0,0.0,0.0,0.0,0.028556685894727707,0.047943614423274994,0.05504055693745613,0.9989136457443237,-0.027830908074975014,-0.03452170267701149,-0.014335106126964092
663.0,0.0,0.0,0.0,0.0,0.0,0.0,0.02590268664062023,0.041201863437891006,0.04639251530170441,0.9989298582077026,-0.026062674820423126,-0.036514248698949814,-0.011211507953703403
664.0,0.0,0.0,0.0,0.0,0.0,0.0,0.036784157156944275,0.014224334619939327,0.03371467441320419,0.9989203214645386,-0.024537013843655586,-0.03888485208153725,-0.0065858131274580956
665.0,0.0,0.0,0.0,0.0,0.0,0.0,0.01283935271203518,0.004896306898444891,0.013237899169325829,0.9988861680030823,-0.023577531799674034,-0.0405588261783123,-0.005032804794609547
666.0,0.0,0.0,0.0,0.0,0.0,0.0,-0.0011467000003904104,-0.026245078071951866,-0.016760854050517082,0.9988421201705933,-0.023667197674512863,-0.04176758974790573,-0.0029846373945474625
667.0,0.0,0.0,0.0,0.0,0.0,0.0,0.027718566358089447,-0.03633993864059448,-0.03316108137369156,0.9986938834190369,-0.025545991957187653,-0.0442388579249382,-0.0001473551819799468
668.0,0.0,0.0,0.0,0.0,0.0,0.0,0.03547624498605728,-0.028755318373441696,-0.007864040322601795,0.9984601736068726,-0.029643699526786804,-0.04685954749584198,0.0014229401713237166
669.0,0.0,0.0,0.0,0.0,0.0,0.0,-0.0016469801776111126,-0.02436632663011551,-0.002358115976676345,0.9982612133026123,-0.033975448459386826,-0.04809221625328064,0.0025737967807799578
670.0,0.0,0.0,0.0,0.0,0.0,0.0,-0.035116393119096756,-0.02198089472949505,-0.025738852098584175,0.9980324506759644,-0.03897731378674507,-0.04896038398146629,0.00392163498327136
671.0,0.0,0.0,0.0,0.0,0.0,0.0,-0.0322677418589592,-0.009551100432872772,0.0010388612281531096,0.9978007674217224,-0.04376499354839325,-0.04958706721663475,0.004371550865471363
672.0,0.0,0.0,0.0,0.0,0.0,0.0,-0.03143371269106865,-0.0020081764087080956,0.005412155296653509,0.9975841641426086,-0.04781019687652588,-0.050119854509830475,0.005175293423235416
673.0,0.0,0.0,0.0,0.0,0.0,0.0,-0.04362107068300247,0.0015378580428659916,0.006022960878908634,0.9973810315132141,-0.051303669810295105,-0.0505635142326355,0.006482845637947321
674.0,0.0,0.0,0.0,0.0,0.0,0.0,-0.03576226532459259,0.001285035628825426,0.008300961926579475,0.9972268342971802,-0.053483784198760986,-0.05115344002842903,0.007800691295415163
675.0,0.0,0.0,0.0,0.0,0.0,0.0,-0.0354282408952713,-0.0056068189442157745,-0.0015639791963621974,0.9970966577529907,-0.055212970823049545,-0.05160480737686157,0.009341550059616566
676.0,0.0,0.0,0.0,0.0,0.0,0.0,-0.04100574925541878,-0.004834035411477089,-0.009552770294249058,0.9970120191574097,-0.05634147301316261,-0.051755014806985855,0.010670125484466553
677.0,0.0,0.0,0.0,0.0,0.0,0.0,-0.04167763143777847,-0.0002173482207581401,-0.0029629168566316366,0.9969404339790344,-0.05695667490363121,-0.05218271166086197,0.011936236172914505
678.0,0.0,0.0,0.0,0.0,0.0,0.0,-0.015148342587053776,0.0076754288747906685,0.03591671213507652,0.9969720244407654,-0.05629470944404602,-0.052017368376255035,0.01309048943221569
679.0,0.0,0.0,0.0,0.0,0.0,0.0,-0.01097691897302866,0.0017303465865552425,0.04253741353750229,0.997046709060669,-0.05623509734869003,-0.04985823482275009,0.015753520652651787
680.0,0.0,0.0,0.0,0.0,0.0,0.0,-0.05798022076487541,0.03089834935963154,0.017038770020008087,0.9971352219581604,-0.05846530199050903,-0.04479537904262543,0.01721159741282463
681.0,0.0,0.0,0.0,0.0,0.0,0.0,-0.07928207516670227,0.05266107618808746,0.03299178183078766,0.9971196055412292,-0.06430946290493011,-0.037420615553855896,0.014723003841936588
682.0,0.0,0.0,0.0,0.0,0.0,0.0,-0.03479165956377983,0.056968096643686295,0.03655644506216049,0.9970942735671997,-0.06912113726139069,-0.030070627108216286,0.010974564589560032
683.0,0.0,0.0,0.0,0.0,0.0,0.0,0.027036545798182487,0.009100100956857204,0.005069893319159746,0.9972029328346252,-0.06928089261054993,-0.02580762840807438,0.010927156545221806
684.0,0.0,0.0,0.0,0.0,0.0,0.0,0.03640633821487427,-0.03377656638622284,-0.02657312899827957,0.9972848892211914,-0.06784938275814056,-0.02400493249297142,0.015559851191937923
685.0,0.0,0.0,0.0,0.0,0.0,0.0,0.03359866514801979,-0.02181960828602314,-0.0361289344727993,0.9972664713859558,-0.06615320593118668,-0.025152888149023056,0.021225279197096825
686.0,0.0,0.0,0.0,0.0,0.0,0.0,0.04741533845663071,0.03466006740927696,0.02683390863239765,0.9974756836891174,-0.060342755168676376,-0.028139377012848854,0.024664564058184624
687.0,0.0,0.0,0.0,0.0,0.0,0.0,0.019009139388799667,0.059606410562992096,0.07130732387304306,0.9978494048118591,-0.051209814846515656,-0.02980577014386654,0.02802880108356476
688.0,0.0,0.0,0.0,0.0,0.0,0.0,0.0009902549209073186,-0.00588748836889863,0.016068773344159126,0.9981333613395691,-0.04413352906703949,-0.029339086264371872,0.03034517914056778
689.0,0.0,0.0,0.0,0.0,0.0,0.0,0.06265111267566681,-0.06006507948040962,-0.06672121584415436,0.9979952573776245,-0.0446869395673275,-0.030692163854837418,0.03264639154076576
690.0,0.0,0.0,0.0,0.0,0.0,0.0,0.09116106480360031,-0.0056710499338805676,-0.01933516561985016,0.9976473450660706,-0.04813363030552864,-0.034714728593826294,0.03431643545627594
691.0,0.0,0.0,0.0,0.0,0.0,0.0,0.026330607011914253,0.0345354825258255,0.040624890476465225,0.9973844289779663,-0.050389014184474945,-0.03941519930958748,0.03364430367946625
692.0,0.0,0.0,0.0,0.0,0.0,0.0,-0.020592136308550835,0.00731828436255455,0.005346603691577911,0.9971494674682617,-0.0527360774576664,-0.04279465600848198,0.03287150710821152
693.0,0.0,0.0,0.0,0.0,0.0,0.0,-0.0574837401509285,-0.0437687486410141,-0.03895150125026703,0.996942937374115,-0.05608333647251129,-0.04439721256494522,0.0314330980181694
694.0,0.0,0.0,0.0,0.0,0.0,0.0,-0.00788780115544796,-0.043301407247781754,-0.06649872660636902,0.9967559576034546,-0.05757030472159386,-0.047668322920799255,0.02985525317490101
695.0,0.0,0.0,0.0,0.0,0.0,0.0,-0.059498101472854614,-0.00033469541813246906,0.00015756519860588014,0.9967336058616638,-0.0578186996281147,-0.049117885529994965,0.02767510898411274
696.0,0.0,0.0,0.0,0.0,0.0,0.0,-0.05939796566963196,0.013066714629530907,0.019020726904273033,0.9968100786209106,-0.0573585107922554,-0.049052320420742035,0.02595703676342964
697.0,0.0,0.0,0.0,0.0,0.0,0.0,-0.01892521232366562,0.02563493140041828,0.013074871152639389,0.9969247579574585,-0.05656435340642929,-0.04824426770210266,0.024762313812971115
698.0,0.0,0.0,0.0,0.0,0.0,0.0,-0.007848333567380905,0.014190467074513435,0.012661697342991829,0.9969125986099243,-0.0572415255010128,-0.047425635159015656,0.025302346795797348
699.0,0.0,0.0,0.0,0.0,0.0,0.0,-0.010307067073881626,-0.02028517983853817,-0.0369153656065464,0.9969426393508911,-0.055734701454639435,-0.04686393216252327,0.028318017721176147
700.0,0.0,0.0,0.0,0.0,0.0,0.0,0.004762426950037479,-0.011412092484533787,-0.003969260025769472,0.996971070766449,-0.05410739779472351,-0.04628152400255203,0.031272850930690765
701.0,0.0,0.0,0.0,0.0,0.0,0.0,0.0018299714429304004,-0.013869058340787888,-0.015650974586606026,0.9969150424003601,-0.05461789295077324,-0.04631118103861809,0.03213223069906235
702.0,0.0,0.0,0.0,0.0,0.0,0.0,0.0014373939484357834,-0.003573586465790868,0.006671717390418053,0.9970176219940186,-0.05225709080696106,-0.047687139362096786,0.03082934580743313
703.0,0.0,0.0,0.0,0.0,0.0,0.0,-0.012418919242918491,0.0037609888240695,0.0149350231513381,0.9970831274986267,-0.05023319646716118,-0.04863012582063675,0.030613603070378304
704.0,0.0,0.0,0.0,0.0,0.0,0.0,0.02426942065358162,-0.023126499727368355,-0.04111124575138092,0.9970859289169312,-0.04895788058638573,-0.04975486546754837,0.030776802450418472
705.0,0.0,0.0,0.0,0.0,0.0,0.0,0.03648531064391136,-0.040171995759010315,-0.0635925903916359,0.9970856308937073,-0.0472065694630146,-0.05303344503045082,0.027897588908672333
706.0,0.0,0.0,0.0,0.0,0.0,0.0,0.012526147067546844,0.011399437673389912,0.00985662266612053,0.9970871806144714,-0.04507066309452057,-0.056369807571172714,0.024659577757120132
707.0,0.0,0.0,0.0,0.0,0.0,0.0,0.02497917041182518,0.0008827382116578519,0.0062598781660199165,0.9969851970672607,-0.04459938406944275,-0.05874648690223694,0.024080220609903336
708.0,0.0,0.0,0.0,0.0,0.0,0.0,0.014755320735275745,-0.005900029558688402,-0.03583668917417526,0.9967758655548096,-0.04526617377996445,-0.06176114082336426,0.023973887786269188
709.0,0.0,0.0,0.0,0.0,0.0,0.0,0.007418917957693338,0.025591330602765083,0.004081189166754484,0.9965631365776062,-0.04646056890487671,-0.0639927014708519,0.024664275348186493
710.0,0.0,0.0,0.0,0.0,0.0,0.0,0.004833451006561518,0.04120204225182533,0.033637769520282745,0.9964261651039124,-0.04652673378586769,-0.0656580924987793,0.025658966973423958
711.0,0.0,0.0,0.0,0.0,0.0,0.0,-0.003324253484606743,0.04348544776439667,0.02363203838467598,0.9963740706443787,-0.04572804644703865,-0.06664177775382996,0.02657524310052395
712.0,0.0,0.0,0.0,0.0,0.0,0.0,0.005161394365131855,0.041711755096912384,0.03557353466749191,0.9963533282279968,-0.04510170966386795,-0.06758216768503189,0.02603372000157833
713.0,0.0,0.0,0.0,0.0,0.0,0.0,0.008082837797701359,0.03039194829761982,0.043281763792037964,0.9963682889938354,-0.04460300877690315,-0.06796044856309891,0.025332866236567497
714.0,0.0,0.0,0.0,0.0,0.0,0.0,-0.009064367972314358,0.026951802894473076,0.022564314305782318,0.996425986289978,-0.0432501956820488,-0.06831885874271393,0.024438530206680298
715.0,0.0,0.0,0.0,0.0,0.0,0.0,-0.008775616995990276,0.006918290164321661,0.009591097943484783,0.9965386986732483,-0.04197007045149803,-0.06794629245996475,0.02307145483791828
716.0,0.0,0.0,0.0,0.0,0.0,0.0,-0.008922328241169453,0.004799967166036367,-0.012209979817271233,0.9966583251953125,-0.04200775921344757,-0.06685095280408859,0.02093064971268177
717.0,0.0,0.0,0.0,0.0,0.0,0.0,-0.005958256311714649,0.017445681616663933,-0.01761685311794281,0.9968135356903076,-0.04214531183242798,-0.06497850269079208,0.01908816397190094
718.0,0.0,0.0,0.0,0.0,0.0,0.0,-7.726080366410315e-05,0.015658652409911156,0.0188662838190794,0.9969336986541748,-0.042204953730106354,-0.06371265649795532,0.016797712072730064
719.0,0.0,0.0,0.0,0.0,0.0,0.0,-0.021750817075371742,0.016182487830519676,0.0003443207824602723,0.9970945715904236,-0.04187804087996483,-0.0621938481926918,0.01342944335192442
720.0,0.0,0.0,0.0,0.0,0.0,0.0,-0.0021922020241618156,-0.018956487998366356,-0.027895813807845116,0.9971946477890015,-0.042066603899002075,-0.06097383797168732,0.010720617137849331
721.0,0.0,0.0,0.0,0.0,0.0,0.0,-0.013156669214367867,-0.004020934458822012,-0.01950364001095295,0.9972205758094788,-0.04477059841156006,-0.05912050977349281,0.0071656061336398125
722.0,0.0,0.0,0.0,0.0,0.0,0.0,-0.020911941304802895,0.005325200967490673,-0.013333030976355076,0.9972021579742432,-0.048580773174762726,-0.056653253734111786,0.004202290438115597
723.0,0.0,0.0,0.0,0.0,0.0,0.0,-0.018733270466327667,0.029193663969635963,0.03648998588323593,0.997204601764679,-0.051542460918426514,-0.054082393646240234,0.0011743649374693632
724.0,0.0,0.0,0.0,0.0,0.0,0.0,-0.04845690727233887,0.04046263173222542,0.01872076839208603,0.9973620772361755,-0.05305885523557663,-0.049457430839538574,-0.002803530776873231
725.0,0.0,0.0,0.0,0.0,0.0,0.0,0.010806692764163017,-0.007459491491317749,-0.017520084977149963,0.9975207448005676,-0.053183384239673615,-0.04581237956881523,-0.005011649802327156
726.0,0.0,0.0,0.0,0.0,0.0,0.0,0.004732020199298859,0.04438725858926773,0.037141263484954834,0.9977006912231445,-0.05215834081172943,-0.042524103075265884,-0.00801180675625801
727.0,0.0,0.0,0.0,0.0,0.0,0.0,-0.0183577761054039,0.038251567631959915,0.05957401916384697,0.9979686141014099,-0.04973459988832474,-0.038180962204933167,-0.01125262025743723
728.0,0.0,0.0,0.0,0.0,0.0,0.0,-0.0024444798473268747,-0.03981952741742134,-0.03821844980120659,0.9982460141181946,-0.04756343737244606,-0.03326717019081116,-0.011645141988992691
729.0,0.0,0.0,0.0,0.0,0.0,0.0,0.011871709488332272,-0.020155543461441994,-0.03097161278128624,0.9984157085418701,-0.04773139953613281,-0.027461154386401176,-0.011560359969735146
730.0,0.0,0.0,0.0,0.0,0.0,0.0,0.03570869565010071,0.002259767148643732,-0.038741543889045715,0.9985172152519226,-0.04763369262218475,-0.023228075355291367,-0.012430868111550808
731.0,0.0,0.0,0.0,0.0,0.0,0.0,0.07010077685117722,0.02006535232067108,-0.01670287549495697,0.9986991286277771,-0.045055557042360306,-0.02068762481212616,-0.011893091723322868
732.0,0.0,0.0,0.0,0.0,0.0,0.0,0.060451690107584,-0.018084809184074402,-0.02335888147354126,0.9988347291946411,-0.0432085357606411,-0.01887989416718483,-0.010249444283545017
733.0,0.0,0.0,0.0,0.0,0.0,0.0,0.044456202536821365,-0.0160064660012722,-0.04440058395266533,0.998899519443512,-0.042196277529001236,-0.017756083980202675,-0.0101810647174716
734.0,0.0,0.0,0.0,0.0,0.0,0.0,0.045431602746248245,-0.0007495683385059237,-0.001999485772103071,0.9989530444145203,-0.04137282073497772,-0.017000840976834297,-0.009602309204638004
735.0,0.0,0.0,0.0,0.0,0.0,0.0,0.03286333382129669,-0.011126004159450531,-0.01677267625927925,0.9989822506904602,-0.04126700013875961,-0.016277603805065155,-0.008181633427739143
736.0,0.0,0.0,0.0,0.0,0.0,0.0,0.03606852889060974,-0.013916145078837872,-0.023991528898477554,0.9990403652191162,-0.040027227252721786,-0.016260197386145592,-0.007194818463176489
737.0,0.0,0.0,0.0,0.0,0.0,0.0,0.04360256716609001,-0.01762552745640278,-0.010341481305658817,0.9990772604942322,-0.03895026445388794,-0.01689803972840309,-0.006461982149630785
738.0,0.0,0.0,0.0,0.0,0.0,0.0,0.03179454430937767,-0.011135742999613285,-0.012715334072709084,0.9990901350975037,-0.038150668144226074,-0.018266592174768448,-0.0054539879783988
739.0,0.0,0.0,0.0,0.0,0.0,0.0,0.014875884167850018,-0.011021642945706844,-0.0073699005879461765,0.9990909099578857,-0.03702178969979286,-0.020478079095482826,-0.005229578819125891
740.0,0.0,0.0,0.0,0.0,0.0,0.0,0.015189491212368011,-0.030825354158878326,-0.022248556837439537,0.999058723449707,-0.03618516027927399,-0.023540949448943138,-0.004187734331935644
741.0,0.0,0.0,0.0,0.0,0.0,0.0,-0.025200774893164635,-0.022893453016877174,-0.014953362755477428,0.9989780783653259,-0.03708824887871742,-0.02571941912174225,-0.0024274641182273626
742.0,0.0,0.0,0.0,0.0,0.0,0.0,-0.014768985100090504,-0.014695378951728344,0.018424145877361298,0.9988505840301514,-0.0386214517056942,-0.028382260352373123,0.0002633060503285378
743.0,0.0,0.0,0.0,0.0,0.0,0.0,-0.006654452998191118,-0.012659933418035507,-0.0019058359321206808,0.9987264275550842,-0.039526306092739105,-0.031143760308623314,0.0036092784721404314
744.0,0.0,0.0,0.0,0.0,0.0,0.0,-0.005363432690501213,-6.242519884835929e-05,-0.0023245832417160273,0.9985876083374023,-0.04075028747320175,-0.03349747508764267,0.006330049596726894
745.0,0.0,0.0,0.0,0.0,0.0,0.0,-0.0017658305587247014,0.0009201816283166409,0.02215452305972576,0.9984431266784668,-0.04234280064702034,-0.03527318686246872,0.00860986951738596
746.0,0.0,0.0,0.0,0.0,0.0,0.0,-0.017851000651717186,0.017077259719371796,0.024238642305135727,0.9983716011047363,-0.04283137246966362,-0.03637922555208206,0.009803236462175846
747.0,0.0,0.0,0.0,0.0,0.0,0.0,-0.009610182605683804,0.00411637406796217,0.015319786965847015,0.9983087182044983,-0.04299561679363251,-0.03743653744459152,0.011374312452971935
748.0,0.0,0.0,0.0,0.0,0.0,0.0,-3.133185236947611e-05,-0.0002873819030355662,0.02239752560853958,0.9982425570487976,-0.04333183914422989,-0.038583748042583466,0.012033377774059772
749.0,0.0,0.0,0.0,0.0,0.0,0.0,-0.013055837713181973,0.0008344968664459884,0.015560868196189404,0.9981914162635803,-0.04344693198800087,-0.039574045687913895,0.012664461508393288
750.0,0.0,0.0,0.0,0.0,0.0,0.0,-0.008869337849318981,0.0010635574581101537,0.0195489339530468,0.9981629252433777,-0.043185316026210785,-0.040308889001607895,0.013446030206978321
751.0,0.0,0.0,0.0,0.0,0.0,0.0,-0.007775382604449987,0.0007858111057430506,0.017951371148228645,0.9981679916381836,-0.04253574460744858,-0.04097145423293114,0.013157214038074017
752.0,0.0,0.0,0.0,0.0,0.0,0.0,-0.006888980511575937,-0.001161871594376862,0.016339577734470367,0.998158872127533,-0.042228471487760544,-0.04130326583981514,0.01377965323626995
753.0,0.0,0.0,0.0,0.0,0.0,0.0,-0.007211682386696339,3.966161602875218e-05,0.013012436218559742,0.9981408715248108,-0.041918184608221054,-0.041774142533540726,0.014565484598279
754.0,0.0,0.0,0.0,0.0,0.0,0.0,-0.014399303123354912,-0.008021488785743713,0.004337924066931009,0.9981222748756409,-0.04218434542417526,-0.04209857061505318,0.01415030937641859
755.0,0.0,0.0,0.0,0.0,0.0,0.0,-0.005884972400963306,-0.013078444637358189,-0.011485334485769272,0.9981170296669006,-0.042589373886585236,-0.041980162262916565,0.013663521967828274
756.0,0.0,0.0,0.0,0.0,0.0,0.0,-0.0011208917712792754,-0.004466963931918144,0.0033738166093826294,0.9981210231781006,-0.042285725474357605,-0.042241327464580536,0.013479619286954403
757.0,0.0,0.0,0.0,0.0,0.0,0.0,-0.014310840517282486,0.0053330156952142715,0.01889558881521225,0.9980966448783875,-0.04268738254904747,-0.042539067566394806,0.013074995949864388
758.0,0.0,0.0,0.0,0.0,0.0,0.0,-0.012431354261934757,-0.005391216836869717,0.007780502550303936,0.9980628490447998,-0.04395528882741928,-0.04222838208079338,0.012453453615307808
759.0,0.0,0.0,0.0,0.0,0.0,0.0,-0.027072863653302193,0.0033277138136327267,0.02535839006304741,0.998039722442627,-0.046413879841566086,-0.040579915046691895,0.010726764798164368
760.0,0.0,0.0,0.0,0.0,0.0,0.0,-0.03551837056875229,-0.015793608501553535,0.004033091943711042,0.9979305863380432,-0.05068277567625046,-0.03821246325969696,0.010267529636621475
761.0,0.0,0.0,0.0,0.0,0.0,0.0,-0.038564667105674744,-0.0963984802365303,-0.05506550520658493,0.9976847171783447,-0.056835632771253586,-0.03537863865494728,0.011947610415518284
762.0,0.0,0.0,0.0,0.0,0.0,0.0,-0.05102970451116562,0.007531480863690376,-0.03286962956190109,0.9976708292961121,-0.059644196182489395,-0.031431593000888824,0.010368025861680508
763.0,0.0,0.0,0.0,0.0,0.0,0.0,0.020292900502681732,0.08036581426858902,0.05132686346769333,0.9977726340293884,-0.05961572006344795,-0.028803614899516106,0.008098151534795761
764.0,0.0,0.0,0.0,0.0,0.0,0.0,0.03458968549966812,0.04208407923579216,0.04073544219136238,0.9978460073471069,-0.059190694242715836,-0.02631041221320629,0.010303709656000137
765.0,0.0,0.0,0.0,0.0,0.0,0.0,0.08068962395191193,0.012230746448040009,0.0008002826943993568,0.997821033000946,-0.059598423540592194,-0.02580864541232586,0.011594253592193127
766.0,0.0,0.0,0.0,0.0,0.0,0.0,0.0639309510588646,0.005101153161376715,-0.010496632196009159,0.9978397488594055,-0.05974658578634262,-0.024761658161878586,0.011488775722682476
767.0,0.0,0.0,0.0,0.0,0.0,0.0,0.03497061878442764,0.00010294689127476886,-0.005612719338387251,0.9978769421577454,-0.059974491596221924,-0.023452576249837875,0.009730694815516472
768.0,0.0,0.0,0.0,0.0,0.0,0.0,0.07284799963235855,-0.03402424603700638,-0.04815715178847313,0.9977837204933167,-0.06131387874484062,-0.02449921891093254,0.008260219357907772
769.0,0.0,0.0,0.0,0.0,0.0,0.0,0.06505341082811356,-0.031018292531371117,-0.02529214695096016,0.9976846575737,-0.06242271885275841,-0.02611362561583519,0.006853532511740923
770.0,0.0,0.0,0.0,0.0,0.0,0.0,0.018503893166780472,0.007696948479861021,0.023128559812903404,0.9975897073745728,-0.06344606727361679,-0.027592336758971214,0.005239213816821575
771.0,0.0,0.0,0.0,0.0,0.0,0.0,0.011683325283229351,0.04105464741587639,0.014465409331023693,0.9975574016571045,-0.06313018500804901,-0.029800554737448692,0.002312550786882639
772.0,0.0,0.0,0.0,0.0,0.0,0.0,0.022649317979812622,0.044868577271699905,0.03187578171491623,0.9975998997688293,-0.06082772836089134,-0.03307474032044411,-0.00014890509191900492
773.0,0.0,0.0,0.0,0.0,0.0,0.0,-0.008513996377587318,0.02901354432106018,0.0432574488222599,0.9978021383285522,-0.05592519789934158,-0.03546862676739693,-0.002248696982860565
774.0,0.0,0.0,0.0,0.0,0.0,0.0,-0.01979321427643299,0.013311322778463364,0.014541574753820896,0.998094379901886,-0.049056608229875565,-0.03718344122171402,-0.0041716801933944225
775.0,0.0,0.0,0.0,0.0,0.0,0.0,-0.024261347949504852,0.00013189551827963442,0.01790408231317997,0.998315691947937,-0.04338859021663666,-0.03800829499959946,-0.00623861001804471
776.0,0.0,0.0,0.0,0.0,0.0,0.0,-0.01991397514939308,-0.02510024420917034,-0.02003353275358677,0.9984567165374756,-0.03952706605195999,-0.0383119061589241,-0.007339694537222385
777.0,0.0,0.0,0.0,0.0,0.0,0.0,-0.01869136653840542,-0.027094842866063118,-0.031068312004208565,0.9985660910606384,-0.03716542571783066,-0.03795585036277771,-0.006626533810049295
778.0,0.0,0.0,0.0,0.0,0.0,0.0,-0.01834590919315815,-0.013222076930105686,-0.02917877770960331,0.9986119270324707,-0.03619162365794182,-0.03777630254626274,-0.00607776315882802
779.0,0.0,0.0,0.0,0.0,0.0,0.0,-0.005604756064713001,-0.0024904930032789707,-0.01626770757138729,0.9986634254455566,-0.03471659496426582,-0.03790707886219025,-0.00536238681524992
780.0,0.0,0.0,0.0,0.0,0.0,0.0,0.01475981343537569,-0.010685106739401817,-0.01524357870221138,0.9986863136291504,-0.03472212702035904,-0.037365809082984924,-0.004836032632738352
781.0,0.0,0.0,0.0,0.0,0.0,0.0,-0.01636197790503502,-0.014950607903301716,-0.036479927599430084,0.9986882209777832,-0.03605044633150101,-0.03614533692598343,-0.0039240578189492226
782.0,0.0,0.0,0.0,0.0,0.0,0.0,-0.012817011214792728,0.004181593656539917,-0.009934822097420692,0.9986795783042908,-0.03675397112965584,-0.035716090351343155,-0.003546218853443861
783.0,0.0,0.0,0.0,0.0,0.0,0.0,0.002792238024994731,-0.00019638800586108118,-0.0007509474526159465,0.998644232749939,-0.03770842403173447,-0.035770922899246216,-0.002945680869743228
784.0,0.0,0.0,0.0,0.0,0.0,0.0,0.012559541501104832,-0.020252756774425507,-0.03324607387185097,0.9986131191253662,-0.037678007036447525,-0.036682434380054474,-0.002437005052343011
785.0,0.0,0.0,0.0,0.0,0.0,0.0,-0.005003225989639759,-0.010447369888424873,-0.0004623712447937578,0.9985848069190979,-0.03681330010294914,-0.03833482414484024,-0.0018178727477788925
786.0,0.0,0.0,0.0,0.0,0.0,0.0,-0.03802864998579025,0.00376149988733232,-0.015833735466003418,0.9985826015472412,-0.03563959524035454,-0.03940480947494507,-0.003168540308251977
787.0,0.0,0.0,0.0,0.0,0.0,0.0,0.005706331692636013,-0.00747881131246686,0.012440153397619724,0.9985076189041138,-0.03628506138920784,-0.04067971929907799,-0.0033004903234541416
788.0,0.0,0.0,0.0,0.0,0.0,0.0,0.004912931937724352,-0.009452031925320625,-0.0031840770971029997,0.9983981251716614,-0.038833484053611755,-0.041064340621232986,-0.0025981164071708918
789.0,0.0,0.0,0.0,0.0,0.0,0.0,-0.02921157330274582,0.031044961884617805,0.010686776600778103,0.998372495174408,-0.03973325341939926,-0.04071415960788727,-0.003912835847586393
790.0,0.0,0.0,0.0,0.0,0.0,0.0,-0.003507752902805805,0.02753220498561859,0.028858665376901627,0.998399019241333,-0.03915691003203392,-0.04063302278518677,-0.0038779499009251595
791.0,0.0,0.0,0.0,0.0,0.0,0.0,0.00043970849947072566,-0.006344679277390242,0.0055374582298099995,0.9984604120254517,-0.0375288724899292,-0.04072060063481331,-0.0031147468835115433
792.0,0.0,0.0,0.0,0.0,0.0,0.0,-0.013566909357905388,-0.00429500313475728,6.912784010637552e-05,0.9985113739967346,-0.03663104027509689,-0.04027625545859337,-0.0033038463443517685
793.0,0.0,0.0,0.0,0.0,0.0,0.0,0.00016088015399873257,-0.009068910032510757,-0.005050101317465305,0.9985575079917908,-0.03588103875517845,-0.039835087954998016,-0.0029622167348861694
794.0,0.0,0.0,0.0,0.0,0.0,0.0,-0.004076147917658091,0.007339379284530878,0.005522486753761768,0.9986075758934021,-0.03482983633875847,-0.03957187756896019,-0.0017819665372371674
795.0,0.0,0.0,0.0,0.0,0.0,0.0,0.0025998668279498816,0.015887707471847534,0.024699945002794266,0.9986775517463684,-0.03401659429073334,-0.03854710981249809,-0.00017904052219819278
796.0,0.0,0.0,0.0,0.0,0.0,0.0,0.0014475233620032668,-0.0031633316539227962,-0.0009191069402731955,0.9987072944641113,-0.03407662361860275,-0.03765863925218582,0.0021545642521232367
797.0,0.0,0.0,0.0,0.0,0.0,0.0,-0.0012555685825645924,-0.009276945143938065,-0.015914300456643105,0.9987435936927795,-0.03346731886267662,-0.037116412073373795,0.003648885991424322
798.0,0.0,0.0,0.0,0.0,0.0,0.0,0.01042976975440979,-0.009142596274614334,-0.0019390220986679196,0.9987931251525879,-0.03238876163959503,-0.03658174350857735,0.004958437290042639
799.0,0.0,0.0,0.0,0.0,0.0,0.0,-0.0003099389432463795,-0.004653397481888533,-0.0033087863121181726,0.9988192915916443,-0.03162357956171036,-0.03628412261605263,0.006615559104830027
800.0,0.0,0.0,0.0,0.0,0.0,0.0,-0.0035280941519886255,-0.006314422003924847,-0.002598321996629238,0.9988265037536621,-0.03103405423462391,-0.03631976246833801,0.007921268232166767
801.0,0.0,0.0,0.0,0.0,0.0,0.0,0.003871374297887087,-0.0015231962315738201,-0.0029581482522189617,0.9988453984260559,-0.030001744627952576,-0.03626973554491997,0.009605959989130497
802.0,0.0,0.0,0.0,0.0,0.0,0.0,0.010015276260674,0.007516705896705389,0.0013924032682552934,0.9988605976104736,-0.028407620266079903,-0.036568205803632736,0.01154711190611124
803.0,0.0,0.0,0.0,0.0,0.0,0.0,0.013071766123175621,0.009274113923311234,0.00017106752784457058,0.9988747239112854,-0.026024971157312393,-0.036917462944984436,0.014443582855165005
804.0,0.0,0.0,0.0,0.0,0.0,0.0,0.013125427067279816,0.004767392296344042,0.00216943328268826,0.9988833665847778,-0.022884024307131767,-0.037383921444416046,0.017628304660320282
805.0,0.0,0.0,0.0,0.0,0.0,0.0,0.01702374778687954,-0.013463052920997143,-0.00142089172732085,0.9988874197006226,-0.020525475963950157,-0.0374373123049736,0.02002386376261711
806.0,0.0,0.0,0.0,0.0,0.0,0.0,0.016212452203035355,-0.02501155249774456,-0.02374754659831524,0.9988674521446228,-0.020027846097946167,-0.03727763891220093,0.02175341174006462
807.0,0.0,0.0,0.0,0.0,0.0,0.0,0.012653114274144173,-0.0028538026381284,0.004003505688160658,0.9988434910774231,-0.019744612276554108,-0.03743031993508339,0.022822830826044083
808.0,0.0,0.0,0.0,0.0,0.0,0.0,-0.0020949419122189283,0.016192898154258728,0.024355007335543633,0.9988559484481812,-0.02072620764374733,-0.036354854702949524,0.023139556869864464
809.0,0.0,0.0,0.0,0.0,0.0,0.0,0.01664900965988636,0.010581428185105324,0.013668357394635677,0.9988870024681091,-0.022229880094528198,-0.03451768681406975,0.023225992918014526
810.0,0.0,0.0,0.0,0.0,0.0,0.0,0.02985331229865551,0.0052029648795723915,-0.005242470186203718,0.9988922476768494,-0.023844214156270027,-0.03324234113097191,0.023248272016644478
811.0,0.0,0.0,0.0,0.0,0.0,0.0,0.010113983415067196,0.0057894145138561726,0.0035383058711886406,0.9988778829574585,-0.025949155911803246,-0.03224165365099907,0.023017723113298416
812.0,0.0,0.0,0.0,0.0,0.0,0.0,-0.02047521062195301,-0.0077275740914046764,0.009857695549726486,0.99892258644104,-0.02648036740720272,-0.03095092996954918,0.022240247577428818
813.0,0.0,0.0,0.0,0.0,0.0,0.0,-0.0071622347459197044,0.058644771575927734,0.06414219737052917,0.9990385174751282,-0.02520695887506008,-0.02940034307539463,0.02053956128656864
814.0,0.0,0.0,0.0,0.0,0.0,0.0,0.04927252605557442,0.04958388954401016,0.04029836505651474,0.999098539352417,-0.023541729897260666,-0.0295909121632576,0.019281815737485886
815.0,0.0,0.0,0.0,0.0,0.0,0.0,0.06700468808412552,0.049094315618276596,0.06106244772672653,0.9991480112075806,-0.021679630503058434,-0.029908327385783195,0.018388710916042328
816.0,0.0,0.0,0.0,0.0,0.0,0.0,0.01109209656715393,0.006147976033389568,0.028979647904634476,0.999290406703949,-0.020176177844405174,-0.027748823165893555,0.015537158586084843
817.0,0.0,0.0,0.0,0.0,0.0,0.0,-0.005190783180296421,-0.04420981928706169,-0.056395985186100006,0.9993361830711365,-0.02172504924237728,-0.025697559118270874,0.013968787156045437
818.0,0.0,0.0,0.0,0.0,0.0,0.0,0.04959952458739281,-0.04363140091300011,-0.05315043032169342,0.9992845058441162,-0.025405339896678925,-0.025522135198116302,0.011551544070243835
819.0,0.0,0.0,0.0,0.0,0.0,0.0,0.020851146429777145,-0.012606858275830746,-0.032337676733732224,0.9992316961288452,-0.028762798756361008,-0.02531639114022255,0.008228088729083538
820.0,0.0,0.0,0.0,0.0,0.0,0.0,0.01870238594710827,0.0020283027552068233,-0.03310054540634155,0.9991816282272339,-0.03024032898247242,-0.026603717356920242,0.0037677702493965626
821.0,0.0,0.0,0.0,0.0,0.0,0.0,-0.011707399971783161,-0.006485170219093561,-0.03904981166124344,0.99906986951828,-0.033230237662792206,-0.027461372315883636,-0.0006835889653302729
822.0,0.0,0.0,0.0,0.0,0.0,0.0,-0.04451581463217735,0.024637071415781975,0.0388999804854393,0.9989907741546631,-0.0348895825445652,-0.027992043644189835,-0.004027152433991432
823.0,0.0,0.0,0.0,0.0,0.0,0.0,-0.05567971616983414,0.021255889907479286,0.06314913928508759,0.998934268951416,-0.03688490763306618,-0.027247613295912743,-0.005208419635891914
824.0,0.0,0.0,0.0,0.0,0.0,0.0,-0.07774922251701355,0.03353910520672798,-0.024677954614162445,0.9990085959434509,-0.0356886051595211,-0.02555784583091736,-0.007384537719190121
825.0,0.0,0.0,0.0,0.0,0.0,0.0,-0.02995462343096733,-0.026421623304486275,0.009316617622971535,0.9991467595100403,-0.03174551948904991,-0.02495928294956684,-0.008645144291222095
826.0,0.0,0.0,0.0,0.0,0.0,0.0,-0.038791101425886154,-0.0008575955871492624,-0.0024052804801613092,0.9992998242378235,-0.027344658970832825,-0.023948298767209053,-0.008874676190316677
827.0,0.0,0.0,0.0,0.0,0.0,0.0,-0.008403484709560871,-0.004080530256032944,-0.009649405255913734,0.9994696974754333,-0.022246411070227623,-0.02211320400238037,-0.008726364001631737
828.0,0.0,0.0,0.0,0.0,0.0,0.0,0.023298034444451332,-0.010652411729097366,-0.006232194136828184,0.9996097683906555,-0.017498767003417015,-0.02021162398159504,-0.008091593161225319
829.0,0.0,0.0,0.0,0.0,0.0,0.0,0.03636253997683525,-0.008250312879681587,-0.02788795903325081,0.9997212886810303,-0.012942022643983364,-0.01853424683213234,-0.00679718516767025
830.0,0.0,0.0,0.0,0.0,0.0,0.0,0.04226342961192131,-0.019717128947377205,-0.036769427359104156,0.9997901916503906,-0.01000894233584404,-0.017002645879983902,-0.005503833759576082
831.0,0.0,0.0,0.0,0.0,0.0,0.0,0.056607283651828766,-0.01778467185795307,-0.03341750055551529,0.9998372793197632,-0.008315137587487698,-0.01564740017056465,-0.003385295392945409
832.0,0.0,0.0,0.0,0.0,0.0,0.0,0.06068490818142891,-0.019159840419888496,-0.03016892448067665,0.999864399433136,-0.006916592363268137,-0.014920460060238838,-0.0005196367856115103
833.0,0.0,0.0,0.0,0.0,0.0,0.0,0.05018797144293785,-0.016028806567192078,-0.015655873343348503,0.999876856803894,-0.005518951918929815,-0.014533369801938534,0.0021533272229135036
834.0,0.0,0.0,0.0,0.0,0.0,0.0,0.05305476859211922,-0.00969888735562563,-0.023386992514133453,0.9998775124549866,-0.005047487560659647,-0.014184609986841679,0.0042809913866221905
835.0,0.0,0.0,0.0,0.0,0.0,0.0,0.06882157921791077,-0.012630341574549675,-0.00884274486452341,0.9998546838760376,-0.005837826989591122,-0.014685998670756817,0.006413551047444344
836.0,0.0,0.0,0.0,0.0,0.0,0.0,0.046080946922302246,0.013778036460280418,0.04170823469758034,0.9998136758804321,-0.007082066964358091,-0.015746066346764565,0.008639681152999401
837.0,0.0,0.0,0.0,0.0,0.0,0.0,0.025556031614542007,0.014348001219332218,0.03495936468243599,0.9997731447219849,-0.00779725844040513,-0.01642090454697609,0.011103997938334942
838.0,0.0,0.0,0.0,0.0,0.0,0.0,0.04992503300309181,-0.013951580971479416,0.0013163783587515354,0.9997066259384155,-0.008497851900756359,-0.017985844984650612,0.013808405958116055
839.0,0.0,0.0,0.0,0.0,0.0,0.0,0.04373437911272049,-0.014949764125049114,-0.004467852413654327,0.9996466040611267,-0.010026955045759678,-0.019852278754115105,0.014563043601810932
