,Position_X,Position_Y,Position_Z,Velocity_X,Velocity_Y,Velocity_Z,Acceleration_X,Acceleration_Y,Acceleration_Z,Quaterion_0,Quaterion_1,Quaterion_2,Quaterion_3
166.0,0.0,0.0,0.0,0.0,0.0,0.0,-0.06667842715978622,0.0068423449993133545,-0.022735897451639175,1.0,-6.938893903907228e-18,2.0816681711721685e-17,-4.163336342344337e-17
167.0,0.0,0.0,0.0,0.0,0.0,0.0,-0.055865198373794556,-0.06041999161243439,-0.03314725309610367,0.9999904632568359,7.509961869800463e-05,-0.004283691290766001,-0.0008127563050948083
168.0,0.0,0.0,0.0,0.0,0.0,0.0,-0.007978653535246849,-0.0032715369015932083,-0.07679551094770432,0.9999656677246094,0.0011085993610322475,-0.008157125674188137,-0.000974134833086282
169.0,0.0,0.0,0.0,0.0,0.0,0.0,-0.04866032674908638,-0.00917865987867117,-0.026497893035411835,0.9999524354934692,2.2538526536663994e-05,-0.009251418523490429,-0.0030917779076844454
170.0,0.0,0.0,0.0,0.0,0.0,0.0,-0.09735801070928574,0.059946995228528976,0.003926385194063187,0.9999579787254333,-0.002068119589239359,-0.007693628314882517,-0.004537477623671293
171.0,0.0,0.0,0.0,0.0,0.0,0.0,-0.10953980684280396,0.07379676401615143,0.014807610772550106,0.99994957447052,-0.0029916127678006887,-0.007129163946956396,-0.0064059533178806305
172.0,0.0,0.0,0.0,0.0,0.0,0.0,-0.07644683122634888,0.027017932385206223,-0.0017189558129757643,0.9999313354492188,-0.004106395412236452,-0.006099632941186428,-0.009123229421675205
173.0,0.0,0.0,0.0,0.0,0.0,0.0,-0.06017095968127251,0.019203733652830124,-0.01772153750061989,0.9999374151229858,-0.0019291636999696493,-0.007005922496318817,-0.00850452110171318
174.0,0.0,0.0,0.0,0.0,0.0,0.0,-0.05615093186497688,0.03444534167647362,-0.01748727075755596,0.9999485611915588,0.0009160772897303104,-0.007345131132751703,-0.006930463947355747
175.0,0.0,0.0,0.0,0.0,0.0,0.0,-0.05380706116557121,0.03822968900203705,-0.021317362785339355,0.9999480247497559,0.0036634139250963926,-0.007059972267597914,-0.006373814307153225
176.0,0.0,0.0,0.0,0.0,0.0,0.0,-0.05308954417705536,0.0340278185904026,-0.01861840859055519,0.9999390244483948,0.006150461733341217,-0.006050875410437584,-0.006894947029650211
177.0,0.0,0.0,0.0,0.0,0.0,0.0,-0.05982012674212456,0.028832508251070976,-0.009196342900395393,0.9999324679374695,0.007928842678666115,-0.0038635453674942255,-0.007567108143121004
178.0,0.0,0.0,0.0,0.0,0.0,0.0,-0.04541034623980522,0.001815243624150753,-0.026981661096215248,0.9999280571937561,0.008104465901851654,-0.0021174694411456585,-0.008589927107095718
179.0,0.0,0.0,0.0,0.0,0.0,0.0,-0.045337799936532974,-0.028496842831373215,-0.01295702625066042,0.9999312162399292,0.007566644344478846,-0.001704834750853479,-0.008792798034846783
180.0,0.0,0.0,0.0,0.0,0.0,0.0,-0.028347263112664223,0.015770312398672104,-0.03943556547164917,0.9999262094497681,0.008081305772066116,-0.0017040246166288853,-0.008906585164368153
181.0,0.0,0.0,0.0,0.0,0.0,0.0,-0.05727599188685417,0.019824746996164322,-0.003141610184684396,0.9999169111251831,0.008035966195166111,-0.0010520160431042314,-0.01002337597310543
182.0,0.0,0.0,0.0,0.0,0.0,0.0,-0.061675846576690674,0.029364759102463722,0.009116187691688538,0.9999107122421265,0.006699739024043083,-0.00036836767685599625,-0.011555035598576069
183.0,0.0,0.0,0.0,0.0,0.0,0.0,-0.07133831828832626,0.062052663415670395,0.011516943573951721,0.9998976588249207,0.00609634118154645,-0.0002430363674648106,-0.012935938313603401
184.0,0.0,0.0,0.0,0.0,0.0,0.0,-0.06864042580127716,0.058746837079524994,0.011635697446763515,0.999878466129303,0.005554819945245981,-4.422833808348514e-05,-0.01456809788942337
185.0,0.0,0.0,0.0,0.0,0.0,0.0,-0.058005690574645996,0.04831530526280403,0.0019448953680694103,0.9998548030853271,0.004657937679439783,-0.000665718165691942,-0.016377998515963554
186.0,0.0,0.0,0.0,0.0,0.0,0.0,-0.06074165925383568,0.03451406583189964,0.0007177730440162122,0.9998349547386169,0.0038298300933092833,-0.0010251859202980995,-0.017726603895425797
187.0,0.0,0.0,0.0,0.0,0.0,0.0,-0.06648818403482437,0.029206447303295135,0.00461169146001339,0.9998136758804321,0.003454467048868537,-0.0010948790004476905,-0.01895846799015999
188.0,0.0,0.0,0.0,0.0,0.0,0.0,-0.05930434912443161,0.027184613049030304,-0.003621810581535101,0.999797523021698,0.0029880350921303034,-0.001161500927992165,-0.019863642752170563
189.0,0.0,0.0,0.0,0.0,0.0,0.0,-0.05156490579247475,0.022886281833052635,-0.009508735500276089,0.9997824430465698,0.0027931667864322662,-0.0008489558822475374,-0.0206484142690897
190.0,0.0,0.0,0.0,0.0,0.0,0.0,-0.04905500262975693,0.015810450538992882,-0.009997653774917126,0.9997600317001343,0.0024240801576524973,-0.0003885698097292334,-0.021764568984508514
191.0,0.0,0.0,0.0,0.0,0.0,0.0,-0.049476977437734604,0.015227186493575573,-0.009568625129759312,0.9997564554214478,0.0024478028062731028,-0.00064783392008394,-0.021920625120401382
192.0,0.0,0.0,0.0,0.0,0.0,0.0,-0.04860769212245941,0.0187402181327343,-0.0049387929029762745,0.999744713306427,0.002538283821195364,-0.0004331181407906115,-0.022443005815148354
193.0,0.0,0.0,0.0,0.0,0.0,0.0,-0.04738951101899147,0.024210605770349503,-0.0031188521534204483,0.9997266530990601,0.0024347237776964903,0.00015530326345469803,-0.0232490636408329
194.0,0.0,0.0,0.0,0.0,0.0,0.0,-0.04713886231184006,0.02493700012564659,-0.0003348040336277336,0.9997301697731018,0.003056315006688237,4.741197335533798e-05,-0.02302422933280468
195.0,0.0,0.0,0.0,0.0,0.0,0.0,-0.045749422162771225,0.025299452245235443,-0.0011173759121447802,0.9997286200523376,0.0034325174055993557,0.00011144962627440691,-0.023037083446979523
196.0,0.0,0.0,0.0,0.0,0.0,0.0,-0.0382416732609272,0.02013777568936348,-0.009633377194404602,0.999730110168457,0.003611452179029584,0.0006769414176233113,-0.022938121110200882
197.0,0.0,0.0,0.0,0.0,0.0,0.0,-0.03369828686118126,0.013620831072330475,-0.011361424811184406,0.9997314214706421,0.0039049587212502956,0.0009998270543292165,-0.022813254967331886
198.0,0.0,0.0,0.0,0.0,0.0,0.0,-0.03570074215531349,0.010053855367004871,-0.010593274608254433,0.9997210502624512,0.003919679671525955,0.0014942523557692766,-0.02323804423213005
199.0,0.0,0.0,0.0,0.0,0.0,0.0,-0.03829483687877655,0.004788190592080355,-0.007999918423593044,0.9997037649154663,0.0037721716798841953,0.0020529001485556364,-0.02395862713456154
200.0,0.0,0.0,0.0,0.0,0.0,0.0,-0.037179332226514816,0.006185175385326147,-0.00581450155004859,0.9996872544288635,0.0035581786651164293,0.0026611073408275843,-0.02460203506052494
201.0,0.0,0.0,0.0,0.0,0.0,0.0,-0.043161939829587936,0.015331980772316456,0.001401991117745638,0.9996782541275024,0.0037524148356169462,0.0036044628359377384,-0.02482416480779648
202.0,0.0,0.0,0.0,0.0,0.0,0.0,-0.04398249834775925,-0.0034143738448619843,0.02601086162030697,0.9995696544647217,-0.0011124024167656898,0.005720649845898151,-0.028744857758283615
203.0,0.0,0.0,0.0,0.0,0.0,0.0,-0.020055154338479042,-0.06214049085974693,-0.0016667379532009363,0.9992495775222778,-0.012319028377532959,0.012782744131982327,-0.034424178302288055
204.0,0.0,0.0,0.0,0.0,0.0,0.0,0.024306586012244225,0.010262958705425262,-0.04277985915541649,0.9992313981056213,-0.009740575216710567,0.010728566907346249,-0.03642182797193527
205.0,0.0,0.0,0.0,0.0,0.0,0.0,-0.01340982224792242,-0.01658165268599987,0.0054688043892383575,0.9989206790924072,-0.01793505810201168,0.01832977682352066,-0.03872155025601387
206.0,0.0,0.0,0.0,0.0,0.0,0.0,-0.055617254227399826,0.05931055173277855,0.024195440113544464,0.9986545443534851,-0.018566111102700233,0.023234117776155472,-0.04247937723994255
207.0,0.0,0.0,0.0,0.0,0.0,0.0,-0.05125315859913826,0.016889361664652824,0.026570254936814308,0.9986883997917175,-0.016410842537879944,0.023480523377656937,-0.04243335500359535
208.0,0.0,0.0,0.0,0.0,0.0,0.0,-0.0409502312541008,0.0483156181871891,0.01546364463865757,0.9987446665763855,-0.01441626250743866,0.021445881575345993,-0.042906198650598526
209.0,0.0,0.0,0.0,0.0,0.0,0.0,-0.030738938599824905,0.03877386823296547,0.0029755281284451485,0.99884033203125,-0.009620124474167824,0.019699424505233765,-0.04286220297217369
210.0,0.0,0.0,0.0,0.0,0.0,0.0,-0.01951303705573082,0.04255640134215355,-0.009954051114618778,0.9990667104721069,-0.002207365818321705,0.015937555581331253,-0.04008052498102188
211.0,0.0,0.0,0.0,0.0,0.0,0.0,-0.01718260906636715,0.020925143733620644,-0.003450660267844796,0.9990483522415161,0.0012082185130566359,0.01582220382988453,-0.04062359407544136
212.0,0.0,0.0,0.0,0.0,0.0,0.0,-0.017254937440156937,-0.019370796158909798,-0.008092082105576992,0.9989253878593445,-0.0008076893864199519,0.018964242190122604,-0.04228409752249718
213.0,0.0,0.0,0.0,0.0,0.0,0.0,-0.005462502129375935,0.007419285364449024,-0.02312459982931614,0.9989428520202637,-0.00015941027959343046,0.019297774881124496,-0.04171972721815109
214.0,0.0,0.0,0.0,0.0,0.0,0.0,-0.006970880553126335,0.005599352531135082,-0.015674741938710213,0.9989228248596191,-0.0004531879094429314,0.01970318891108036,-0.0420067273080349
215.0,0.0,0.0,0.0,0.0,0.0,0.0,-0.012525925412774086,0.01388529036194086,-0.01195260975509882,0.9989096522331238,-0.0010471423156559467,0.01958833821117878,-0.042363520711660385
216.0,0.0,0.0,0.0,0.0,0.0,0.0,-0.029671169817447662,0.01814565621316433,0.0011603484163060784,0.9988999962806702,-0.0013939369237050414,0.01889394037425518,-0.04289431497454643
217.0,0.0,0.0,0.0,0.0,0.0,0.0,-0.039235182106494904,0.02399597130715847,0.007096771150827408,0.9988678693771362,-0.0022512490395456553,0.01856975257396698,-0.04373488947749138
218.0,0.0,0.0,0.0,0.0,0.0,0.0,-0.03742640092968941,0.012657515704631805,0.0001370365498587489,0.9988176226615906,-0.0037012838292866945,0.018672363832592964,-0.04472525045275688
219.0,0.0,0.0,0.0,0.0,0.0,0.0,-0.030697815120220184,0.006137081887573004,-0.003269920125603676,0.9987071752548218,-0.006211765110492706,0.019607100635766983,-0.046483114361763
220.0,0.0,0.0,0.0,0.0,0.0,0.0,-0.028438374400138855,0.0078103323467075825,-0.0009210234857164323,0.9985750317573547,-0.008527043275535107,0.020716415718197823,-0.04843030869960785
221.0,0.0,0.0,0.0,0.0,0.0,0.0,-0.02780875563621521,0.012909777462482452,0.002547296928241849,0.9985074400901794,-0.01029923465102911,0.021444087848067284,-0.04916122183203697
222.0,0.0,0.0,0.0,0.0,0.0,0.0,-0.02828679420053959,0.028600255027413368,0.005978731904178858,0.9984678030014038,-0.011158017441630363,0.022127730771899223,-0.04946815222501755
223.0,0.0,0.0,0.0,0.0,0.0,0.0,-0.02399647980928421,0.022821808233857155,7.969357102410868e-05,0.998426616191864,-0.01150561310350895,0.02230587787926197,-0.050143320113420486
224.0,0.0,0.0,0.0,0.0,0.0,0.0,-0.014026530086994171,0.0076181539334356785,-0.007199584972113371,0.998408854007721,-0.011886566877365112,0.022025248035788536,-0.05052457004785538
225.0,0.0,0.0,0.0,0.0,0.0,0.0,-0.01589062809944153,0.003348813159391284,-0.0101606585085392,0.998415470123291,-0.01221334096044302,0.021556125953793526,-0.050523754209280014
226.0,0.0,0.0,0.0,0.0,0.0,0.0,-0.026243051514029503,0.00037616348708979785,-0.002548611257225275,0.9984132051467896,-0.012423229403793812,0.02128627710044384,-0.05062664672732353
227.0,0.0,0.0,0.0,0.0,0.0,0.0,-0.02995270863175392,0.005708354990929365,0.005761167034506798,0.9984018802642822,-0.01268735621124506,0.021382123231887817,-0.05074933543801308
228.0,0.0,0.0,0.0,0.0,0.0,0.0,-0.026396427303552628,0.009490895085036755,0.004937127698212862,0.9984140396118164,-0.01247651781886816,0.021187128499150276,-0.05064826086163521
229.0,0.0,0.0,0.0,0.0,0.0,0.0,-0.025648389011621475,0.006870434619486332,0.00402076356112957,0.9984367489814758,-0.011888750828802586,0.020810706540942192,-0.05048832297325134
230.0,0.0,0.0,0.0,0.0,0.0,0.0,-0.027155883610248566,0.00024619538453407586,0.00554058188572526,0.9984248876571655,-0.011720499955117702,0.020640697330236435,-0.05083412304520607
231.0,0.0,0.0,0.0,0.0,0.0,0.0,-0.02516593411564827,0.007805984001606703,0.009764880873262882,0.9984845519065857,-0.010820107534527779,0.02005002461373806,-0.050095491111278534
232.0,0.0,0.0,0.0,0.0,0.0,0.0,-0.030468344688415527,0.024245845153927803,0.020879844203591347,0.9986249208450317,-0.009018604643642902,0.019224151968955994,-0.04792439937591553
233.0,0.0,0.0,0.0,0.0,0.0,0.0,-0.03779353201389313,0.044095780700445175,0.027823416516184807,0.998812735080719,-0.006612000055611134,0.017768768593668938,-0.044869836419820786
234.0,0.0,0.0,0.0,0.0,0.0,0.0,-0.031467072665691376,0.03635942190885544,0.02349935472011566,0.9990134239196777,-0.0036467863246798515,0.01603197120130062,-0.04124526306986809
235.0,0.0,0.0,0.0,0.0,0.0,0.0,-0.019571717828512192,-0.05268329009413719,0.012817035429179668,0.9990768432617188,-0.0065330276265740395,0.011909370310604572,-0.04075268656015396
236.0,0.0,0.0,0.0,0.0,0.0,0.0,0.041584525257349014,-0.06438566744327545,-0.07332364469766617,0.9990928769111633,-0.01049480028450489,0.010695918463170528,-0.0398593507707119
237.0,0.0,0.0,0.0,0.0,0.0,0.0,0.013659253716468811,-0.04843993857502937,-0.03338225930929184,0.9991157054901123,-0.011414366774260998,0.010541745461523533,-0.0390642024576664
238.0,0.0,0.0,0.0,0.0,0.0,0.0,-0.03470790758728981,0.038054052740335464,-0.00226641190238297,0.9991325736045837,-0.011508413590490818,0.011282062157988548,-0.038389213383197784
239.0,0.0,0.0,0.0,0.0,0.0,0.0,-0.053974173963069916,0.010577038861811161,0.020637396723031998,0.9992092847824097,-0.008808521553874016,0.0070779938250780106,-0.038121215999126434
240.0,0.0,0.0,0.0,0.0,0.0,0.0,-0.024194590747356415,-0.0152334189042449,0.0005703418282791972,0.9992073178291321,-0.009882036596536636,0.00560065358877182,-0.0381489023566246
241.0,0.0,0.0,0.0,0.0,0.0,0.0,-0.02611640654504299,0.0026780946645885706,-0.005293368827551603,0.9992326498031616,-0.00804707407951355,0.002768441569060087,-0.03822736442089081
242.0,0.0,0.0,0.0,0.0,0.0,0.0,-0.02194586768746376,0.00614190986379981,-0.003698003012686968,0.9992446303367615,-0.005898091476410627,0.00022425618954002857,-0.03840554133057594
243.0,0.0,0.0,0.0,0.0,0.0,0.0,-0.024075083434581757,0.006188168190419674,-0.0023545371368527412,0.9992048144340515,-0.004777102265506983,-0.000423456629505381,-0.039576299488544464
244.0,0.0,0.0,0.0,0.0,0.0,0.0,-0.024581490084528923,-0.001173628494143486,-0.004217709880322218,0.999182403087616,-0.0036723578814417124,-0.0006892081582918763,-0.04025689885020256
245.0,0.0,0.0,0.0,0.0,0.0,0.0,-0.023999998345971107,0.005058412440121174,0.0023995768278837204,0.9991514086723328,-0.0029786729719489813,-0.00011024407285731286,-0.04107595235109329
246.0,0.0,0.0,0.0,0.0,0.0,0.0,-0.01920412853360176,-0.0035516938660293818,-0.002518102526664734,0.999116063117981,-0.002526364754885435,0.0008908935124054551,-0.04194284975528717
247.0,0.0,0.0,0.0,0.0,0.0,0.0,-0.01849529705941677,-0.011787191964685917,-0.005613691173493862,0.9990881681442261,-0.002238405402749777,0.002709829481318593,-0.04254428297281265
248.0,0.0,0.0,0.0,0.0,0.0,0.0,-0.015644341707229614,-0.006678157951682806,-0.002138215582817793,0.9990319609642029,-0.001873356755822897,0.004811345133930445,-0.043686605989933014
249.0,0.0,0.0,0.0,0.0,0.0,0.0,-0.005627878475934267,0.00919980090111494,-0.0060632191598415375,0.9989928007125854,-0.0004401185433380306,0.0062585086561739445,-0.04441908001899719
250.0,0.0,0.0,0.0,0.0,0.0,0.0,0.0013255999656394124,0.005441730376332998,-0.012022760696709156,0.998928964138031,0.0012027407065033913,0.006690982263535261,-0.045765653252601624
251.0,0.0,0.0,0.0,0.0,0.0,0.0,0.0012082599569112062,0.002850495744496584,-0.0035365326330065727,0.9988547563552856,0.0011867007706314325,0.0080745043233037,-0.0471438392996788
252.0,0.0,0.0,0.0,0.0,0.0,0.0,0.006748845335096121,0.002345152897760272,-0.015141824260354042,0.9987688064575195,0.00031266151927411556,0.0094052255153656,-0.0487033911049366
253.0,0.0,0.0,0.0,0.0,0.0,0.0,0.004732678644359112,0.007099710870534182,-0.004024783615022898,0.9986701607704163,-0.0006184029043652117,0.010188600048422813,-0.05053402855992317
254.0,0.0,0.0,0.0,0.0,0.0,0.0,0.004214571788907051,0.01135010551661253,0.0051337601616978645,0.9985527992248535,-0.0019309286726638675,0.011644178070127964,-0.05246555805206299
255.0,0.0,0.0,0.0,0.0,0.0,0.0,0.001930596074089408,0.014827778562903404,-0.001899390364997089,0.9984513521194458,-0.0031110828276723623,0.012547320686280727,-0.05410601943731308
256.0,0.0,0.0,0.0,0.0,0.0,0.0,0.005837125703692436,0.005970213562250137,-0.008667653426527977,0.9982627630233765,-0.0052032736130058765,0.012939558364450932,-0.05724078789353371
257.0,0.0,0.0,0.0,0.0,0.0,0.0,0.005587452091276646,0.0019554493483155966,-0.008016189560294151,0.9980129599571228,-0.008517995476722717,0.01395073626190424,-0.06084560975432396
258.0,0.0,0.0,0.0,0.0,0.0,0.0,-0.0007904095109552145,0.009473142214119434,0.0014887271681800485,0.9977614283561707,-0.01201883889734745,0.015201549977064133,-0.06399627029895782
259.0,0.0,0.0,0.0,0.0,0.0,0.0,-0.0099727688357234,0.029074611142277718,0.013032226823270321,0.9974936842918396,-0.015361632220447063,0.016563352197408676,-0.06704722344875336
260.0,0.0,0.0,0.0,0.0,0.0,0.0,-0.017335236072540283,0.025351064279675484,0.01953716017305851,0.9972367882728577,-0.017933228984475136,0.01788255013525486,-0.06983292102813721
261.0,0.0,0.0,0.0,0.0,0.0,0.0,-0.012886806391179562,0.009052488952875137,0.016915645450353622,0.9970019459724426,-0.01975344866514206,0.01874624937772751,-0.07242205739021301
262.0,0.0,0.0,0.0,0.0,0.0,0.0,-0.007302741054445505,-0.007708405144512653,0.003563790349289775,0.9968095421791077,-0.021569950506091118,0.01981685310602188,-0.07423944771289825
263.0,0.0,0.0,0.0,0.0,0.0,0.0,-0.004030867014080286,-0.01114050205796957,-0.0007415321306325495,0.9966084361076355,-0.023201866075396538,0.02099260874092579,-0.07610674202442169
264.0,0.0,0.0,0.0,0.0,0.0,0.0,0.0002132546651409939,-0.015435359440743923,-0.00707594957202673,0.9963805079460144,-0.024745209142565727,0.022827304899692535,-0.07805188745260239
265.0,0.0,0.0,0.0,0.0,0.0,0.0,0.0035127343144267797,-0.016452940180897713,-0.007675093598663807,0.9960746765136719,-0.02681976556777954,0.025182396173477173,-0.08050286024808884
266.0,0.0,0.0,0.0,0.0,0.0,0.0,0.005804689135402441,-0.016007769852876663,-0.012033793143928051,0.9956540465354919,-0.02990121766924858,0.027919139713048935,-0.08366052061319351
267.0,0.0,0.0,0.0,0.0,0.0,0.0,0.0050912098959088326,-0.012402454391121864,-0.008762096054852009,0.9952503442764282,-0.03266215696930885,0.030598869547247887,-0.08644281327724457
268.0,0.0,0.0,0.0,0.0,0.0,0.0,-0.001180813298560679,-0.004282295238226652,0.00275241257622838,0.9948558211326599,-0.035596489906311035,0.033421680331230164,-0.08875458687543869
269.0,0.0,0.0,0.0,0.0,0.0,0.0,-0.00042437593219801784,0.0028013603296130896,0.0041883778758347034,0.994540810585022,-0.038166314363479614,0.035933684557676315,-0.09021884948015213
270.0,0.0,0.0,0.0,0.0,0.0,0.0,0.002176242880523205,0.013616957701742649,0.011586497537791729,0.9943786859512329,-0.039585549384355545,0.038021452724933624,-0.09054098278284073
271.0,0.0,0.0,0.0,0.0,0.0,0.0,-0.005630076862871647,0.024508701637387276,0.016962721943855286,0.9944972991943359,-0.039173465222120285,0.03884251043200493,-0.08905406296253204
272.0,0.0,0.0,0.0,0.0,0.0,0.0,-0.012721284292638302,0.017592139542102814,0.01635519415140152,0.994608998298645,-0.03813495486974716,0.0385529100894928,-0.08837681263685226
273.0,0.0,0.0,0.0,0.0,0.0,0.0,-0.006568356417119503,1.0495483365957625e-05,0.015026140958070755,0.9946942925453186,-0.03734852373600006,0.037723589688539505,-0.08810707181692123
274.0,0.0,0.0,0.0,0.0,0.0,0.0,0.004736082162708044,-0.0012928692158311605,0.008640533313155174,0.994800865650177,-0.03670226037502289,0.03703604266047478,-0.0874691903591156
275.0,0.0,0.0,0.0,0.0,0.0,0.0,0.004255945794284344,0.011651627719402313,0.009202659130096436,0.9949955344200134,-0.03553548455238342,0.0366177074611187,-0.08590200543403625
276.0,0.0,0.0,0.0,0.0,0.0,0.0,0.00452390406280756,-0.0026942973490804434,0.00895110983401537,0.9951701760292053,-0.03400076925754547,0.03630484640598297,-0.08462397009134293
277.0,0.0,0.0,0.0,0.0,0.0,0.0,0.011420654132962227,-0.026042714715003967,0.0008837108034640551,0.9952849745750427,-0.03327423334121704,0.035955753177404404,-0.08370400965213776
278.0,0.0,0.0,0.0,0.0,0.0,0.0,0.01070063840597868,-0.019124643877148628,-0.005705506540834904,0.9953863024711609,-0.03307870030403137,0.03563041612505913,-0.08270923048257828
279.0,0.0,0.0,0.0,0.0,0.0,0.0,0.00859170313924551,-0.002864506794139743,-0.005663283169269562,0.995472252368927,-0.03277568146586418,0.035588569939136505,-0.08180532604455948
280.0,0.0,0.0,0.0,0.0,0.0,0.0,0.003220766317099333,0.0010067529510706663,0.003216525772586465,0.9955074787139893,-0.03268591687083244,0.03582901135087013,-0.08130765706300735
281.0,0.0,0.0,0.0,0.0,0.0,0.0,0.002387100597843528,-0.0023661423474550247,0.003175901947543025,0.9955199956893921,-0.03264404088258743,0.03644156455993652,-0.08090893179178238
282.0,0.0,0.0,0.0,0.0,0.0,0.0,0.002158261137083173,-0.004647629801183939,0.002872448181733489,0.9955694079399109,-0.032588835805654526,0.037344928830862045,-0.07989584654569626
283.0,0.0,0.0,0.0,0.0,0.0,0.0,-0.000709115294739604,-0.007134384009987116,0.005153213627636433,0.9956235885620117,-0.032159361988306046,0.038399673998355865,-0.07888613641262054
284.0,0.0,0.0,0.0,0.0,0.0,0.0,-0.00029677702696062624,-0.011414038948714733,0.007136951200664043,0.9956254959106445,-0.03178379684686661,0.04005163162946701,-0.07819977402687073
285.0,0.0,0.0,0.0,0.0,0.0,0.0,0.003887084312736988,-0.011584663763642311,0.004087090026587248,0.9956344366073608,-0.031253185123205185,0.04200078174471855,-0.07727029919624329
286.0,0.0,0.0,0.0,0.0,0.0,0.0,0.006867893040180206,-0.007377895060926676,0.00115984829608351,0.9956915974617004,-0.030497530475258827,0.04384182021021843,-0.07580172270536423
287.0,0.0,0.0,0.0,0.0,0.0,0.0,0.007913200184702873,-0.0039017770905047655,0.0048992931842803955,0.9957050085067749,-0.029617298394441605,0.0455709807574749,-0.07494822889566422
288.0,0.0,0.0,0.0,0.0,0.0,0.0,0.00604880740866065,0.0005681588663719594,0.011834151111543179,0.9957391619682312,-0.02849680930376053,0.04714434966444969,-0.0739421397447586
289.0,0.0,0.0,0.0,0.0,0.0,0.0,0.0063078817911446095,-0.00010973789176205173,0.009266589768230915,0.9958428144454956,-0.026775557547807693,0.04820781946182251,-0.0724979043006897
290.0,0.0,0.0,0.0,0.0,0.0,0.0,0.01529733557254076,-0.009620101191103458,-0.0006796675152145326,0.9959436058998108,-0.025078345090150833,0.049093183130025864,-0.07111410796642303
291.0,0.0,0.0,0.0,0.0,0.0,0.0,0.014869523234665394,-0.012484687380492687,-0.00038275346742011607,0.9960949420928955,-0.023141367360949516,0.0499490424990654,-0.06902450323104858
292.0,0.0,0.0,0.0,0.0,0.0,0.0,0.008076641708612442,-0.010249319486320019,0.006296433974057436,0.9962617754936218,-0.021048644557595253,0.050871510058641434,-0.0665675699710846
293.0,0.0,0.0,0.0,0.0,0.0,0.0,0.007192379795014858,-0.009677527472376823,0.009015722200274467,0.9964953064918518,-0.01868564635515213,0.05114808306097984,-0.06349604576826096
294.0,0.0,0.0,0.0,0.0,0.0,0.0,-0.0011539276456460357,-0.010414437390863895,0.013639317825436592,0.9968487620353699,-0.015281027182936668,0.05032549425959587,-0.0593750923871994
295.0,0.0,0.0,0.0,0.0,0.0,0.0,-0.001335621695034206,-0.006726928520947695,0.01159497071057558,0.9972956776618958,-0.010865515097975731,0.048633329570293427,-0.05401282384991646
296.0,0.0,0.0,0.0,0.0,0.0,0.0,-0.0032423336524516344,0.0039054211229085922,0.01198139414191246,0.9977375268936157,-0.005457310006022453,0.04646126180887222,-0.04827495291829109
297.0,0.0,0.0,0.0,0.0,0.0,0.0,-0.003289635293185711,0.0015875055687502027,0.010143963620066643,0.9982323050498962,0.0012052454985678196,0.04292885959148407,-0.04107993468642235
298.0,0.0,0.0,0.0,0.0,0.0,0.0,0.004189299885183573,-0.01424249354749918,0.004985626321285963,0.9985727667808533,0.007368167396634817,0.040526967495679855,-0.03399137780070305
299.0,0.0,0.0,0.0,0.0,0.0,0.0,0.014339925721287727,-0.02185339853167534,-0.0003286061401013285,0.9987722039222717,0.012913409620523453,0.039454471319913864,-0.02702803537249565
300.0,0.0,0.0,0.0,0.0,0.0,0.0,0.0277301836758852,-0.034240301698446274,-0.007171223405748606,0.9988373517990112,0.017458615824580193,0.03922447934746742,-0.021914631128311157
301.0,0.0,0.0,0.0,0.0,0.0,0.0,0.02938801236450672,-0.04731995239853859,-0.010358904488384724,0.9988403916358948,0.02084164321422577,0.039443060755729675,-0.018094729632139206
302.0,0.0,0.0,0.0,0.0,0.0,0.0,0.023545853793621063,-0.04703729972243309,-0.00461554666981101,0.9988174438476562,0.023795899003744125,0.03964328020811081,-0.015031125396490097
303.0,0.0,0.0,0.0,0.0,0.0,0.0,0.012023115530610085,-0.03741144761443138,0.005625596735626459,0.9987911581993103,0.025589831173419952,0.04005434364080429,-0.012536645866930485
304.0,0.0,0.0,0.0,0.0,0.0,0.0,-6.835692329332232e-05,-0.02024041675031185,0.016907386481761932,0.998796284198761,0.027008047327399254,0.03954080864787102,-0.010638020001351833
305.0,0.0,0.0,0.0,0.0,0.0,0.0,-0.008601014502346516,-0.002516660140827298,0.024426976218819618,0.9988217949867249,0.02849632315337658,0.038298748433589935,-0.0087310541421175
306.0,0.0,0.0,0.0,0.0,0.0,0.0,-0.0058652376756072044,-0.00018172636919189245,0.022242937237024307,0.9988439679145813,0.029922667890787125,0.03687870129942894,-0.007453994359821081
307.0,0.0,0.0,0.0,0.0,0.0,0.0,9.50783651205711e-05,-0.0022339432034641504,0.014962958171963692,0.9988778829574585,0.030816156417131424,0.03532304987311363,-0.006723734550178051
308.0,0.0,0.0,0.0,0.0,0.0,0.0,-0.0007463133078999817,-0.010484406724572182,0.007983671501278877,0.9989156126976013,0.031512029469013214,0.03367554396390915,-0.006373538635671139
309.0,0.0,0.0,0.0,0.0,0.0,0.0,1.0600712812447455e-05,-0.014150897972285748,0.005528194829821587,0.9989461302757263,0.03257982060313225,0.03166939690709114,-0.006476566195487976
310.0,0.0,0.0,0.0,0.0,0.0,0.0,0.003924510441720486,-0.017484771087765694,-0.002423826139420271,0.9989592432975769,0.03249101713299751,0.03117469511926174,-0.0072801802307367325
311.0,0.0,0.0,0.0,0.0,0.0,0.0,-0.0007899747579358518,-0.023210391402244568,-0.003545739222317934,0.9989677667617798,0.03213753178715706,0.030953940004110336,-0.008503981865942478
312.0,0.0,0.0,0.0,0.0,0.0,0.0,-0.004010049160569906,-0.017732761800289154,-0.003107341006398201,0.9989597797393799,0.03219948709011078,0.0307699553668499,-0.009782835841178894
313.0,0.0,0.0,0.0,0.0,0.0,0.0,-0.0010571038583293557,-0.015371337532997131,-0.003821910824626684,0.998945951461792,0.03279517963528633,0.03014579974114895,-0.011083799414336681
314.0,0.0,0.0,0.0,0.0,0.0,0.0,0.0016858429880812764,-0.009971808642148972,-0.006235308013856411,0.9989342093467712,0.03357463330030441,0.02911597490310669,-0.01245503593236208
315.0,0.0,0.0,0.0,0.0,0.0,0.0,0.003974306862801313,-0.01028730720281601,-0.008996030315756798,0.998927116394043,0.0338449664413929,0.0284199807792902,-0.013826107606291771
316.0,0.0,0.0,0.0,0.0,0.0,0.0,0.010057841427624226,-0.01318011898547411,-0.011270279064774513,0.998919665813446,0.033787693828344345,0.027896616607904434,-0.015472879633307457
317.0,0.0,0.0,0.0,0.0,0.0,0.0,0.01441139169037342,-0.012826098129153252,-0.014368882402777672,0.9989491701126099,0.033600468188524246,0.026468634605407715,-0.01645156927406788
318.0,0.0,0.0,0.0,0.0,0.0,0.0,0.012791461311280727,-0.016295554116368294,-0.009540568105876446,0.9989951848983765,0.03309265151619911,0.024722600355744362,-0.01738414354622364
319.0,0.0,0.0,0.0,0.0,0.0,0.0,0.005966636352241039,-0.014725729823112488,0.0004119204531889409,0.999043881893158,0.03205253556370735,0.022962233051657677,-0.018889985978603363
320.0,0.0,0.0,0.0,0.0,0.0,0.0,0.0027765731792896986,-0.014005952514708042,0.006439913995563984,0.9990710616111755,0.030928313732147217,0.021467451006174088,-0.020962795242667198
321.0,0.0,0.0,0.0,0.0,0.0,0.0,0.007742774672806263,-0.008457543328404427,0.006247437093406916,0.9990699887275696,0.03013090416789055,0.020318524911999702,-0.02319350838661194
322.0,0.0,0.0,0.0,0.0,0.0,0.0,0.006543343886733055,3.512053081067279e-05,0.010276230983436108,0.9990828633308411,0.02962971292436123,0.01876520924270153,-0.024554960429668427
323.0,0.0,0.0,0.0,0.0,0.0,0.0,0.003995691426098347,-0.004427442792803049,0.014916447922587395,0.9990755915641785,0.02958785369992256,0.017081117257475853,-0.026086345314979553
324.0,0.0,0.0,0.0,0.0,0.0,0.0,0.003468669019639492,-0.008032754063606262,0.015170183032751083,0.9990589022636414,0.029569726437330246,0.015568029135465622,-0.027653256431221962
325.0,0.0,0.0,0.0,0.0,0.0,0.0,0.010623947717249393,-0.014372388832271099,0.007597174495458603,0.9990009665489197,0.029234129935503006,0.015343884937465191,-0.030113622546195984
326.0,0.0,0.0,0.0,0.0,0.0,0.0,0.018654711544513702,-0.02377447299659252,-0.004821861628443003,0.9989098906517029,0.028590457513928413,0.01539783738553524,-0.033528368920087814
327.0,0.0,0.0,0.0,0.0,0.0,0.0,0.019896250218153,-0.022150179371237755,0.005366323981434107,0.9987754225730896,0.02747500129044056,0.015559717081487179,-0.03808559477329254
328.0,0.0,0.0,0.0,0.0,0.0,0.0,0.019232215359807014,-0.00962543673813343,-0.0011391565203666687,0.9985741376876831,0.026692025363445282,0.015216957777738571,-0.043650221079587936
329.0,0.0,0.0,0.0,0.0,0.0,0.0,0.04560200124979019,-0.018899722024798393,-0.01797560788691044,0.9982640147209167,0.02497727982699871,0.013877789489924908,-0.05150280147790909
330.0,0.0,0.0,0.0,0.0,0.0,0.0,0.0487322136759758,-0.029226141050457954,-0.020907049998641014,0.9977776408195496,0.021427424624562263,0.009013133123517036,-0.062443338334560394
331.0,0.0,0.0,0.0,0.0,0.0,0.0,-0.05716448277235031,-0.06344415247440338,0.01887962967157364,0.9972636699676514,0.015727916732430458,0.01855984888970852,-0.06979946047067642
332.0,0.0,0.0,0.0,0.0,0.0,0.0,0.060218680649995804,-0.037313636392354965,-0.03255816549062729,0.9966824650764465,0.012201923877000809,0.02620241977274418,-0.07607939839363098
333.0,0.0,0.0,0.0,0.0,0.0,0.0,8.894811617210507e-05,0.02357533760368824,-0.018196217715740204,0.9963052272796631,0.0048807947896420956,0.028658974915742874,-0.08080339431762695
334.0,0.0,0.0,0.0,0.0,0.0,0.0,-0.040565624833106995,0.026241827756166458,0.011804510839283466,0.9957104921340942,-0.0012886254116892815,0.02698538824915886,-0.08849582821130753
335.0,0.0,0.0,0.0,0.0,0.0,0.0,-0.02895941212773323,0.018887709826231003,0.01962953805923462,0.9950947761535645,-0.006323766428977251,0.02370850183069706,-0.09582609683275223
336.0,0.0,0.0,0.0,0.0,0.0,0.0,-0.013159556314349174,0.02364180237054825,0.0008899822132661939,0.9945046901702881,-0.009627998806536198,0.019391901791095734,-0.10243087261915207
337.0,0.0,0.0,0.0,0.0,0.0,0.0,-0.028091341257095337,0.002187250414863229,0.01495257206261158,0.9936459064483643,-0.012399304658174515,0.014149892143905163,-0.11095210164785385
338.0,0.0,0.0,0.0,0.0,0.0,0.0,-0.01253667101264,0.014184514991939068,0.009279406629502773,0.9928388595581055,-0.0141550712287426,0.009165343828499317,-0.11825452744960785
339.0,0.0,0.0,0.0,0.0,0.0,0.0,-0.021707147359848022,0.02797367423772812,0.01983475871384144,0.9920166730880737,-0.015717605128884315,0.004135823808610439,-0.12503673136234283
340.0,0.0,0.0,0.0,0.0,0.0,0.0,-0.0293009914457798,0.013121567666530609,0.0351046621799469,0.9909989833831787,-0.016679534688591957,-0.003201200859621167,-0.13278844952583313
341.0,0.0,0.0,0.0,0.0,0.0,0.0,-0.01864209584891796,0.0379093773663044,0.004713466856628656,0.9900676012039185,-0.017119960859417915,-0.009867727756500244,-0.13918569684028625
342.0,0.0,0.0,0.0,0.0,0.0,0.0,-0.021366044878959656,0.0338992141187191,0.0025798880960792303,0.9890429377555847,-0.017892595380544662,-0.016040118411183357,-0.14565947651863098
343.0,0.0,0.0,0.0,0.0,0.0,0.0,-0.02830606698989868,-0.00044483967940323055,0.03157395124435425,0.9881652593612671,-0.020914660766720772,-0.019871583208441734,-0.15065018832683563
344.0,0.0,0.0,0.0,0.0,0.0,0.0,-0.021415559574961662,-0.003700712462887168,0.0076873223297297955,0.9870789647102356,-0.021978365257382393,-0.025554591789841652,-0.1566411554813385
345.0,0.0,0.0,0.0,0.0,0.0,0.0,-0.016416417434811592,-0.0067818486131727695,-0.005999294109642506,0.9859379529953003,-0.024073654785752296,-0.03085356019437313,-0.16244904696941376
346.0,0.0,0.0,0.0,0.0,0.0,0.0,-0.02787947654724121,0.02165384590625763,-0.020612426102161407,0.9852005839347839,-0.021045655012130737,-0.039012305438518524,-0.16557608544826508
347.0,0.0,0.0,0.0,0.0,0.0,0.0,-0.034317538142204285,0.004208344966173172,0.04195145517587662,0.9850148558616638,-0.020450999960303307,-0.04378075525164604,-0.1655517816543579
348.0,0.0,0.0,0.0,0.0,0.0,0.0,-0.0182532649487257,0.019693773239850998,0.14840883016586304,0.9868099093437195,-0.02054731361567974,-0.03973294794559479,-0.15555383265018463
349.0,0.0,0.0,0.0,0.0,0.0,0.0,-0.03638593107461929,0.06647112220525742,0.12430974841117859,0.990260899066925,-0.009496351704001427,-0.02957535907626152,-0.1357070952653885
350.0,0.0,0.0,0.0,0.0,0.0,0.0,-0.03872015327215195,-0.05306614190340042,0.04501296952366829,0.9938747882843018,0.004995472263544798,-0.010949996300041676,-0.1098504513502121
351.0,0.0,0.0,0.0,0.0,0.0,0.0,0.006381223443895578,-0.0824650451540947,-0.03285941481590271,0.9965164661407471,0.023668592795729637,0.01856495440006256,-0.0777708888053894
352.0,0.0,0.0,0.0,0.0,0.0,0.0,0.041907571256160736,-0.03962341696023941,-0.09096920490264893,0.9969704151153564,0.04035145416855812,0.049153171479701996,-0.04478469118475914
353.0,0.0,0.0,0.0,0.0,0.0,0.0,0.07638822495937347,-0.012152974493801594,-0.07020137459039688,0.9956047534942627,0.048702143132686615,0.07820325344800949,-0.016830364242196083
354.0,0.0,0.0,0.0,0.0,0.0,0.0,0.1083851233124733,-0.03591203689575195,-0.06393653899431229,0.9929084777832031,0.05138835683465004,0.10674534738063812,0.009833049029111862
355.0,0.0,0.0,0.0,0.0,0.0,0.0,0.10962425172328949,-0.03679743409156799,-0.133772611618042,0.9901912808418274,0.05216612666845322,0.12515176832675934,0.033711809664964676
356.0,0.0,0.0,0.0,0.0,0.0,0.0,0.08174888044595718,-0.09351446479558945,-0.09660851955413818,0.9886271953582764,0.052726611495018005,0.13158704340457916,0.0502006970345974
357.0,0.0,0.0,0.0,0.0,0.0,0.0,0.0667700469493866,-0.05564526468515396,-0.08217021077871323,0.9881237745285034,0.054538678377866745,0.1282307207584381,0.06474859267473221
358.0,0.0,0.0,0.0,0.0,0.0,0.0,0.09325642138719559,-0.0670972615480423,-0.061248861253261566,0.9888588190078735,0.05625752732157707,0.11830039322376251,0.07069293409585953
359.0,0.0,0.0,0.0,0.0,0.0,0.0,0.07423742860555649,-0.11570920050144196,0.07731889933347702,0.9898293018341064,0.05454431101679802,0.1110728457570076,0.07017368078231812
360.0,0.0,0.0,0.0,0.0,0.0,0.0,0.03584809973835945,-0.014358867891132832,0.022548744454979897,0.9901736974716187,0.05335467308759689,0.10711917281150818,0.07234794646501541
361.0,0.0,0.0,0.0,0.0,0.0,0.0,0.04951406270265579,-0.00628743227571249,-0.025300389155745506,0.991313099861145,0.05287143215537071,0.09984061121940613,0.06733570247888565
362.0,0.0,0.0,0.0,0.0,0.0,0.0,0.02967670001089573,-0.031644728034734726,0.09846708923578262,0.9923256635665894,0.05264071002602577,0.09409011900424957,0.060538411140441895
363.0,0.0,0.0,0.0,0.0,0.0,0.0,-0.0013900941703468561,-0.022700319066643715,0.10444489121437073,0.99272620677948,0.054869040846824646,0.09083683043718338,0.056854624301195145
364.0,0.0,0.0,0.0,0.0,0.0,0.0,-0.020373212173581123,0.0019410420209169388,0.056996218860149384,0.992981493473053,0.05794617161154747,0.08811285346746445,0.05353511497378349
365.0,0.0,0.0,0.0,0.0,0.0,0.0,0.0008894186466932297,-0.00626496784389019,0.04966997355222702,0.9930075407028198,0.06181005388498306,0.0863947719335556,0.05148718133568764
366.0,0.0,0.0,0.0,0.0,0.0,0.0,0.006588679272681475,-0.0011690830579027534,0.040263332426548004,0.9925645589828491,0.06704302132129669,0.0867299735546112,0.05290462076663971
367.0,0.0,0.0,0.0,0.0,0.0,0.0,0.016935929656028748,0.018572041764855385,0.05521983653306961,0.9918619990348816,0.07155268639326096,0.08891076594591141,0.05643181875348091
368.0,0.0,0.0,0.0,0.0,0.0,0.0,0.07697559893131256,0.07605239003896713,-0.048201173543930054,0.990978479385376,0.07662595808506012,0.09107407182455063,0.06159631535410881
369.0,0.0,0.0,0.0,0.0,0.0,0.0,0.04726371541619301,0.02294475957751274,0.0011510004987940192,0.9902641773223877,0.07846835255622864,0.09353264421224594,0.06686581671237946
370.0,0.0,0.0,0.0,0.0,0.0,0.0,0.0639168843626976,-0.00037816513213329017,0.006486623547971249,0.9897211790084839,0.08001773059368134,0.09469019621610641,0.07128369063138962
371.0,0.0,0.0,0.0,0.0,0.0,0.0,0.05010951682925224,0.0035975161008536816,-0.013984770514070988,0.9895568490028381,0.08066513389348984,0.09299913793802261,0.07496707141399384
372.0,0.0,0.0,0.0,0.0,0.0,0.0,0.059841908514499664,-0.028167003765702248,-0.04671045020222664,0.9902547001838684,0.07756324857473373,0.08849092572927475,0.07448316365480423
373.0,0.0,0.0,0.0,0.0,0.0,0.0,0.06759639084339142,-0.04278672859072685,-0.04242520406842232,0.9913702607154846,0.07051893323659897,0.08489721268415451,0.07074108719825745
374.0,0.0,0.0,0.0,0.0,0.0,0.0,0.023379668593406677,-0.048173531889915466,-0.02696259692311287,0.9927180409431458,0.05893803387880325,0.0850086361169815,0.06172269955277443
375.0,0.0,0.0,0.0,0.0,0.0,0.0,-0.039001982659101486,-0.01627197302877903,0.03899895399808884,0.9938381910324097,0.0500359833240509,0.08480025082826614,0.05090387538075447
376.0,0.0,0.0,0.0,0.0,0.0,0.0,-0.044302426278591156,0.03104626014828682,0.049830056726932526,0.994895339012146,0.04710498824715614,0.07841746509075165,0.04260198026895523
377.0,0.0,0.0,0.0,0.0,0.0,0.0,-0.000846553361043334,0.028402484953403473,0.016935309395194054,0.9961859583854675,0.04559062793850899,0.0662221685051918,0.03390512987971306
378.0,0.0,0.0,0.0,0.0,0.0,0.0,-0.022975845262408257,-0.016458706930279732,0.03766123950481415,0.9971216320991516,0.04410504922270775,0.055385150015354156,0.027125705033540726
379.0,0.0,0.0,0.0,0.0,0.0,0.0,-0.026863861829042435,-0.015737362205982208,0.048294030129909515,0.9976150393486023,0.04429047927260399,0.047548022121191025,0.02328069880604744
380.0,0.0,0.0,0.0,0.0,0.0,0.0,-0.02568974159657955,-0.023801440373063087,0.05703752487897873,0.9978928565979004,0.0460813045501709,0.04112312197685242,0.01988348923623562
381.0,0.0,0.0,0.0,0.0,0.0,0.0,0.005433586426079273,-0.08116504549980164,0.087339848279953,0.9977981448173523,0.049990758299827576,0.03883415833115578,0.019792042672634125
382.0,0.0,0.0,0.0,0.0,0.0,0.0,0.010497348383069038,-0.08510123938322067,0.046197760850191116,0.9974168539047241,0.054308127611875534,0.04153057187795639,0.022028248757123947
383.0,0.0,0.0,0.0,0.0,0.0,0.0,0.040380313992500305,-0.024764319881796837,-0.03618502616882324,0.9968379139900208,0.05817994102835655,0.047040507197380066,0.026764145120978355
384.0,0.0,0.0,0.0,0.0,0.0,0.0,0.0437985360622406,0.01793595962226391,-0.06508041173219681,0.9958627820014954,0.06165178492665291,0.056672342121601105,0.035289566963911057
385.0,0.0,0.0,0.0,0.0,0.0,0.0,0.013917587697505951,-0.022437261417508125,-0.06920092552900314,0.9949951767921448,0.06302949041128159,0.06670240312814713,0.039518389850854874
386.0,0.0,0.0,0.0,0.0,0.0,0.0,0.03517105430364609,-0.07129116356372833,-0.07567190378904343,0.9946570992469788,0.06363141536712646,0.07174398005008698,0.03821585327386856
387.0,0.0,0.0,0.0,0.0,0.0,0.0,0.040008652955293655,-0.04033118858933449,-0.07369156181812286,0.9946838021278381,0.0626354068517685,0.0737609714269638,0.03519700467586517
388.0,0.0,0.0,0.0,0.0,0.0,0.0,0.03767332434654236,-0.034813374280929565,-0.010533909313380718,0.9950429797172546,0.059167709201574326,0.07416718453168869,0.029782887548208237
389.0,0.0,0.0,0.0,0.0,0.0,0.0,0.0496339425444603,-0.02884652465581894,0.005912446416914463,0.9955065250396729,0.05548391491174698,0.07329779863357544,0.02270403690636158
390.0,0.0,0.0,0.0,0.0,0.0,0.0,0.024745069444179535,-0.07713650166988373,-9.781350672710687e-05,0.9962364435195923,0.048503682017326355,0.07100281864404678,0.010919022373855114
391.0,0.0,0.0,0.0,0.0,0.0,0.0,0.0015653867740184069,-0.03753843903541565,-0.006915021687746048,0.9971462488174438,0.04170643538236618,0.062483903020620346,-0.007380228023976088
392.0,0.0,0.0,0.0,0.0,0.0,0.0,0.03808889165520668,-0.07607336342334747,-0.0470406748354435,0.9977111220359802,0.03669329360127449,0.048427071422338486,-0.02967388927936554
393.0,0.0,0.0,0.0,0.0,0.0,0.0,0.05284819379448891,-0.13415193557739258,-0.07209359854459763,0.99697345495224,0.029758039861917496,0.037765324115753174,-0.06109268590807915
394.0,0.0,0.0,0.0,0.0,0.0,0.0,-0.031165556982159615,-0.09426616877317429,-0.0016147394198924303,0.9947669506072998,0.017499525099992752,0.033189963549375534,-0.09502879530191422
395.0,0.0,0.0,0.0,0.0,0.0,0.0,-0.01246599666774273,-0.09802021831274033,0.06614279747009277,0.9918666481971741,0.008862794376909733,0.02920268289744854,-0.12356744706630707
396.0,0.0,0.0,0.0,0.0,0.0,0.0,-0.08316459506750107,0.08706290274858475,-0.008326300419867039,0.9893369674682617,0.002563867950811982,0.024329189211130142,-0.1435708850622177
397.0,0.0,0.0,0.0,0.0,0.0,0.0,-0.06128736957907677,0.03914159908890724,-0.0010605878196656704,0.9866694808006287,-0.0022012509871274233,0.015835663303732872,-0.16194048523902893
398.0,0.0,0.0,0.0,0.0,0.0,0.0,-0.07510742545127869,0.02445998787879944,0.017825854942202568,0.9849086999893188,-0.004909674637019634,0.011584986932575703,-0.17260831594467163
399.0,0.0,0.0,0.0,0.0,0.0,0.0,-0.07267574965953827,0.04165477678179741,0.04307141900062561,0.9834530353546143,-0.005119838751852512,0.007101185154169798,-0.1809435486793518
400.0,0.0,0.0,0.0,0.0,0.0,0.0,-0.054751913994550705,0.00842976476997137,0.0502786785364151,0.9822294116020203,-0.004674908705055714,0.0008469440508633852,-0.18761688470840454
401.0,0.0,0.0,0.0,0.0,0.0,0.0,-0.03250139579176903,0.01097032055258751,0.019583242014050484,0.981329083442688,-0.0034267983864992857,-0.0054692113772034645,-0.19221997261047363
402.0,0.0,0.0,0.0,0.0,0.0,0.0,0.0835537239909172,-0.00785065907984972,-0.08139627426862717,0.9809958934783936,0.0009903558529913425,-0.010525648482143879,-0.19372890889644623
403.0,0.0,0.0,0.0,0.0,0.0,0.0,-0.0005025745485909283,-0.004696329589933157,-0.011372508481144905,0.980624258518219,0.0034691113978624344,-0.010872882790863514,-0.1955638825893402
404.0,0.0,0.0,0.0,0.0,0.0,0.0,-0.02329310029745102,0.01078897062689066,0.01189328171312809,0.9802153706550598,0.004946670960634947,-0.009292945265769958,-0.19764909148216248
405.0,0.0,0.0,0.0,0.0,0.0,0.0,-0.03300654515624046,0.014073767699301243,0.031665902584791183,0.9799750447273254,0.006476571783423424,-0.008421572856605053,-0.19882187247276306
406.0,0.0,0.0,0.0,0.0,0.0,0.0,-0.04414614662528038,0.022634141147136688,0.0331897959113121,0.9796594381332397,0.007797211408615112,-0.0076757450588047504,-0.2003602236509323
407.0,0.0,0.0,0.0,0.0,0.0,0.0,-0.06396652013063431,0.011317264288663864,0.04676021263003349,0.979221761226654,0.008656286634504795,-0.006928807590156794,-0.20248503983020782
408.0,0.0,0.0,0.0,0.0,0.0,0.0,-0.06927207112312317,0.02319451980292797,0.029339497908949852,0.9791072607040405,0.009907057508826256,-0.006563266739249229,-0.20298799872398376
409.0,0.0,0.0,0.0,0.0,0.0,0.0,-0.04770348593592644,0.004882562905550003,0.02701069414615631,0.9787218570709229,0.011466353200376034,-0.008986505679786205,-0.2046646922826767
410.0,0.0,0.0,0.0,0.0,0.0,0.0,-0.002501092618331313,-0.010662000626325607,-0.0032194259110838175,0.9780265092849731,0.01145345252007246,-0.012001773342490196,-0.2078218162059784
411.0,0.0,0.0,0.0,0.0,0.0,0.0,-0.017587818205356598,-0.026527345180511475,-0.006097782868891954,0.977034330368042,0.009959976188838482,-0.014981857500970364,-0.21231406927108765
412.0,0.0,0.0,0.0,0.0,0.0,0.0,-0.030203841626644135,-0.020541446283459663,0.012901779264211655,0.975913405418396,0.008602375164628029,-0.018869446590542793,-0.2171643227338791
413.0,0.0,0.0,0.0,0.0,0.0,0.0,0.008589271456003189,-0.008307761512696743,-0.012963647954165936,0.9748206734657288,0.00611763633787632,-0.022836562246084213,-0.22173011302947998
414.0,0.0,0.0,0.0,0.0,0.0,0.0,0.023511994630098343,-0.037293434143066406,-0.02408631145954132,0.9732671976089478,-0.0009096866124309599,-0.026221172884106636,-0.2281665802001953
415.0,0.0,0.0,0.0,0.0,0.0,0.0,-0.01148855872452259,-0.03234178572893143,-0.02171456627547741,0.9723567962646484,-0.011230533942580223,-0.02464987523853779,-0.23189939558506012
416.0,0.0,0.0,0.0,0.0,0.0,0.0,-0.05159899964928627,-0.0024972357787191868,0.002584871370345354,0.9714696407318115,-0.017849914729595184,-0.024048151448369026,-0.23526613414287567
417.0,0.0,0.0,0.0,0.0,0.0,0.0,-0.05308481305837631,-0.001988304778933525,0.009883718565106392,0.9703383445739746,-0.021081332117319107,-0.02847296930849552,-0.23913505673408508
418.0,0.0,0.0,0.0,0.0,0.0,0.0,-0.05038246139883995,0.024475090205669403,-0.012111491523683071,0.9697531461715698,-0.02192268706858158,-0.03292888030409813,-0.24085763096809387
419.0,0.0,0.0,0.0,0.0,0.0,0.0,-0.0514562763273716,0.015142027288675308,0.007206414360553026,0.9698094725608826,-0.02117905765771866,-0.03734264522790909,-0.24006253480911255
420.0,0.0,0.0,0.0,0.0,0.0,0.0,-0.030690668150782585,-0.0033250320702791214,0.008235489949584007,0.9702660441398621,-0.01915115676820278,-0.042080968618392944,-0.23758165538311005
421.0,0.0,0.0,0.0,0.0,0.0,0.0,-0.025318222120404243,0.002954283030703664,0.0020477708894759417,0.9710358381271362,-0.016503266990184784,-0.046148329973220825,-0.23385164141654968
422.0,0.0,0.0,0.0,0.0,0.0,0.0,-0.03263164311647415,-0.0005473847268149257,0.01581280678510666,0.9716503024101257,-0.013228998519480228,-0.05118133872747421,-0.2304183542728424
423.0,0.0,0.0,0.0,0.0,0.0,0.0,-0.014606651850044727,-0.019066056236624718,0.00489339092746377,0.9720066785812378,-0.009607001207768917,-0.055761683732271194,-0.228035569190979
424.0,0.0,0.0,0.0,0.0,0.0,0.0,-0.003965427633374929,-0.019435910508036613,-0.004014594480395317,0.9723403453826904,-0.0067449091002345085,-0.05971444025635719,-0.22570276260375977
425.0,0.0,0.0,0.0,0.0,0.0,0.0,0.002908057766035199,-0.009160987101495266,0.000702757213730365,0.9728512763977051,-0.0031845183111727238,-0.0632576271891594,-0.22258487343788147
426.0,0.0,0.0,0.0,0.0,0.0,0.0,0.024136817082762718,-0.019204575568437576,-0.030719667673110962,0.9736117720603943,0.000133420224301517,-0.0647396370768547,-0.21881809830665588
427.0,0.0,0.0,0.0,0.0,0.0,0.0,0.00810015294700861,-0.029113145545125008,-0.012453293427824974,0.9742394685745239,0.0018108956282958388,-0.06496907770633698,-0.2159442901611328
428.0,0.0,0.0,0.0,0.0,0.0,0.0,0.011795837432146072,-0.02172067202627659,-0.00248684617690742,0.9750692844390869,0.003023811848834157,-0.06426962465047836,-0.21236173808574677
429.0,0.0,0.0,0.0,0.0,0.0,0.0,0.0010227583115920424,-0.01289482694119215,0.009669335559010506,0.975558876991272,0.003393503138795495,-0.06404905021190643,-0.21015140414237976
430.0,0.0,0.0,0.0,0.0,0.0,0.0,-0.015320172533392906,-0.0061797345988452435,0.012833746150135994,0.9755071401596069,0.003058532252907753,-0.06466243416070938,-0.21021591126918793
431.0,0.0,0.0,0.0,0.0,0.0,0.0,-0.017154060304164886,0.004415617790073156,0.015610594302415848,0.9754214882850647,0.003914108965545893,-0.06688141822814941,-0.2098959982395172
432.0,0.0,0.0,0.0,0.0,0.0,0.0,-0.012426890432834625,0.027715152129530907,-0.008786817081272602,0.9755679368972778,0.0060168239288032055,-0.06861996650695801,-0.20860780775547028
433.0,0.0,0.0,0.0,0.0,0.0,0.0,-0.013473901897668839,0.025038594380021095,0.0011411712039262056,0.9756929874420166,0.008882042020559311,-0.07014709711074829,-0.20741920173168182
434.0,0.0,0.0,0.0,0.0,0.0,0.0,-0.0010606609284877777,0.01326966192573309,0.009424610994756222,0.9759618639945984,0.012283855117857456,-0.07167714834213257,-0.20544719696044922
435.0,0.0,0.0,0.0,0.0,0.0,0.0,0.015901895239949226,-0.003301231889054179,0.0012097629951313138,0.9763638377189636,0.015767553821206093,-0.07241158187389374,-0.20302410423755646
436.0,0.0,0.0,0.0,0.0,0.0,0.0,0.02717459201812744,-0.04521431401371956,0.020292576402425766,0.9768597483634949,0.02042854018509388,-0.07013113051652908,-0.20100784301757812
437.0,0.0,0.0,0.0,0.0,0.0,0.0,0.007284569554030895,0.0020467720460146666,-0.01865912228822708,0.9773954749107361,0.024664880707859993,-0.06441999226808548,-0.19985421001911163
438.0,0.0,0.0,0.0,0.0,0.0,0.0,0.01139302272349596,0.03411946818232536,-0.07782772183418274,0.9773203134536743,0.027264850214123726,-0.06151212379336357,-0.20078451931476593
439.0,0.0,0.0,0.0,0.0,0.0,0.0,0.026806797832250595,-0.009273766539990902,-0.06719881296157837,0.9771295189857483,0.026326796039938927,-0.05789000540971756,-0.20290040969848633
440.0,0.0,0.0,0.0,0.0,0.0,0.0,0.01591167226433754,0.004926635418087244,-0.034629467874765396,0.9771912693977356,0.02200707606971264,-0.05194426700472832,-0.20470957458019257
441.0,0.0,0.0,0.0,0.0,0.0,0.0,-0.0007987851859070361,0.023187512531876564,-0.013620030134916306,0.9771410822868347,0.01678561046719551,-0.04510235786437988,-0.20706231892108917
442.0,0.0,0.0,0.0,0.0,0.0,0.0,-0.0004994881455786526,0.02364654839038849,0.005233540665358305,0.9767771363258362,0.010986882261931896,-0.03742968291044235,-0.21067112684249878
443.0,0.0,0.0,0.0,0.0,0.0,0.0,0.003029898274689913,-0.008141742087900639,0.03173232451081276,0.9760434627532959,0.004225045908242464,-0.028816962614655495,-0.215603768825531
444.0,0.0,0.0,0.0,0.0,0.0,0.0,0.03688010573387146,-0.01674373634159565,0.011500867083668709,0.9751343727111816,-0.0028722304850816727,-0.019601820036768913,-0.22073373198509216
445.0,0.0,0.0,0.0,0.0,0.0,0.0,0.03310639411211014,-0.02747354470193386,0.00933066476136446,0.9741899371147156,-0.0117091815918684,-0.007555353920906782,-0.22529937326908112
446.0,0.0,0.0,0.0,0.0,0.0,0.0,0.027792200446128845,0.02785213105380535,0.029361724853515625,0.9738506078720093,-0.020787831395864487,0.006804842036217451,-0.22612671554088593
447.0,0.0,0.0,0.0,0.0,0.0,0.0,-0.002666030079126358,0.11820924282073975,0.16610240936279297,0.9763306975364685,-0.029935162514448166,0.029369797557592392,-0.21217158436775208
448.0,0.0,0.0,0.0,0.0,0.0,0.0,-0.045264482498168945,0.08280251920223236,0.224546417593956,0.981077253818512,-0.038319263607263565,0.06448916345834732,-0.17848403751850128
449.0,0.0,0.0,0.0,0.0,0.0,0.0,0.0071723987348377705,-0.1428021639585495,-0.011198719963431358,0.9840755462646484,-0.04153066873550415,0.0991850420832634,-0.14153136312961578
450.0,0.0,0.0,0.0,0.0,0.0,0.0,0.09161853790283203,-0.01274092122912407,-0.04487430304288864,0.9854872226715088,-0.0363091304898262,0.12806305289268494,-0.10532865673303604
451.0,0.0,0.0,0.0,0.0,0.0,0.0,0.13601410388946533,0.018160171806812286,-0.09327224642038345,0.9856183528900146,-0.029558230191469193,0.14745138585567474,-0.07705987989902496
452.0,0.0,0.0,0.0,0.0,0.0,0.0,0.14644663035869598,0.010186458937823772,-0.07125093042850494,0.9853619337081909,-0.024680517613887787,0.15799228847026825,-0.05907868966460228
453.0,0.0,0.0,0.0,0.0,0.0,0.0,0.12433747202157974,-0.04171488806605339,-0.051274314522743225,0.9850517511367798,-0.023349840193986893,0.16321653127670288,-0.049863431602716446
454.0,0.0,0.0,0.0,0.0,0.0,0.0,0.11898329108953476,-0.03309580311179161,-0.07253246009349823,0.9852566719055176,-0.022815855219960213,0.1636861264705658,-0.04421892389655113
455.0,0.0,0.0,0.0,0.0,0.0,0.0,0.12448938190937042,-0.052920520305633545,-0.01580304279923439,0.9856783151626587,-0.021833300590515137,0.1614234894514084,-0.04359517991542816
456.0,0.0,0.0,0.0,0.0,0.0,0.0,0.10624059289693832,-0.04089123383164406,0.005422941874712706,0.9859192967414856,-0.02139538899064064,0.1594964563846588,-0.0454268716275692
457.0,0.0,0.0,0.0,0.0,0.0,0.0,0.07585611194372177,-0.014061866328120232,-0.0034412192180752754,0.9862440228462219,-0.019629424437880516,0.15710531175136566,-0.047470737248659134
458.0,0.0,0.0,0.0,0.0,0.0,0.0,0.048949889838695526,-0.016902079805731773,-0.006364254746586084,0.9866845607757568,-0.017120566219091415,0.15372546017169952,-0.05028654634952545
459.0,0.0,0.0,0.0,0.0,0.0,0.0,0.04242410510778427,-0.011330417357385159,-0.028256801888346672,0.9872866272926331,-0.014583018608391285,0.14855673909187317,-0.0546114407479763
460.0,0.0,0.0,0.0,0.0,0.0,0.0,0.042248111218214035,-0.029769567772746086,-0.028788946568965912,0.9879298210144043,-0.01371200941503048,0.14161789417266846,-0.061217501759529114
461.0,0.0,0.0,0.0,0.0,0.0,0.0,0.03016394004225731,-0.04347345232963562,-0.07456673681735992,0.9885309338569641,-0.01356499083340168,0.13257847726345062,-0.07102657109498978
462.0,0.0,0.0,0.0,0.0,0.0,0.0,0.051499709486961365,-0.07485146075487137,-0.062144603580236435,0.9890927076339722,-0.013069378212094307,0.11715175956487656,-0.08831097185611725
463.0,0.0,0.0,0.0,0.0,0.0,0.0,0.0585348941385746,-0.0655328631401062,0.019955052062869072,0.9889885187149048,-0.014119443483650684,0.09917832911014557,-0.1089293584227562
464.0,0.0,0.0,0.0,0.0,0.0,0.0,0.03873670846223831,-0.030076351016759872,0.04917294532060623,0.9879759550094604,-0.01443885825574398,0.0806904137134552,-0.1310950517654419
465.0,0.0,0.0,0.0,0.0,0.0,0.0,0.0032655412796884775,-0.04283881187438965,0.09219074249267578,0.9861776828765869,-0.015454158186912537,0.06463995575904846,-0.15177319943904877
466.0,0.0,0.0,0.0,0.0,0.0,0.0,-0.03430460765957832,-0.032819394022226334,0.07729531824588776,0.984697163105011,-0.017305221408605576,0.05636521801352501,-0.16399012506008148
467.0,0.0,0.0,0.0,0.0,0.0,0.0,-0.00839329045265913,0.007989990524947643,0.02778915874660015,0.9837250113487244,-0.017902961000800133,0.05031273141503334,-0.1715567409992218
468.0,0.0,0.0,0.0,0.0,0.0,0.0,-0.04154282063245773,-0.001510094152763486,0.02747129276394844,0.9830507636070251,-0.019179582595825195,0.04445232078433037,-0.17680953443050385
469.0,0.0,0.0,0.0,0.0,0.0,0.0,-0.04854957386851311,-0.023557597771286964,0.03527722880244255,0.9826955795288086,-0.020504118874669075,0.038725581020116806,-0.17995606362819672
470.0,0.0,0.0,0.0,0.0,0.0,0.0,-0.02781706117093563,-0.021255148574709892,0.0007200773106887937,0.9824493527412415,-0.022149207070469856,0.03467242792248726,-0.18193748593330383
471.0,0.0,0.0,0.0,0.0,0.0,0.0,-0.03802671283483505,-0.032881975173950195,0.05427655205130577,0.9827242493629456,-0.023637766018509865,0.0322762131690979,-0.18069583177566528
472.0,0.0,0.0,0.0,0.0,0.0,0.0,-0.03596065938472748,-0.044055480509996414,0.09668990224599838,0.9839624762535095,-0.02245394140481949,0.03514138236641884,-0.17342694103717804
473.0,0.0,0.0,0.0,0.0,0.0,0.0,-0.02366257831454277,-0.010750404559075832,0.04153410345315933,0.9859020113945007,-0.020321164280176163,0.04433056712150574,-0.1600557118654251
474.0,0.0,0.0,0.0,0.0,0.0,0.0,-0.00947757437825203,-0.016451193019747734,0.0005534595693461597,0.9883869290351868,-0.020120561122894287,0.057609815150499344,-0.13916073739528656
475.0,0.0,0.0,0.0,0.0,0.0,0.0,0.008603576570749283,-0.05623120069503784,-0.01181036327034235,0.9903938174247742,-0.02140512317419052,0.07074970752000809,-0.11685102432966232
476.0,0.0,0.0,0.0,0.0,0.0,0.0,0.03016561083495617,-0.04621197655797005,-0.031093169003725052,0.9913007616996765,-0.022465022280812263,0.0798301175236702,-0.10219796746969223
477.0,0.0,0.0,0.0,0.0,0.0,0.0,0.030676716938614845,-0.04947972297668457,0.005316987633705139,0.99190753698349,-0.02612048014998436,0.08578936755657196,-0.08986961096525192
478.0,0.0,0.0,0.0,0.0,0.0,0.0,0.04604277387261391,0.007581842131912708,-0.03359461575746536,0.9921516180038452,-0.029010629281401634,0.09001807868480682,-0.08179286867380142
479.0,0.0,0.0,0.0,0.0,0.0,0.0,0.05838673189282417,0.010712090879678726,0.018265897408127785,0.99217289686203,-0.03070920705795288,0.09327608346939087,-0.0771278589963913
480.0,0.0,0.0,0.0,0.0,0.0,0.0,0.04205235838890076,-0.00655068876221776,-0.017443420365452766,0.991948127746582,-0.03189566358923912,0.09831605851650238,-0.07317183911800385
481.0,0.0,0.0,0.0,0.0,0.0,0.0,0.031103532761335373,-0.01858050376176834,-0.029082857072353363,0.9916782975196838,-0.033237650990486145,0.10054795444011688,-0.0732073113322258
482.0,0.0,0.0,0.0,0.0,0.0,0.0,0.04747305065393448,-0.014458985067903996,-0.014518821612000465,0.9915844798088074,-0.032351892441511154,0.10016866773366928,-0.07536013424396515
483.0,0.0,0.0,0.0,0.0,0.0,0.0,0.07257499545812607,-0.019158614799380302,-0.06486358493566513,0.9913616180419922,-0.03205440565943718,0.09536278992891312,-0.08414024114608765
484.0,0.0,0.0,0.0,0.0,0.0,0.0,0.08166515827178955,-0.08965364843606949,-0.0355047807097435,0.9904695749282837,-0.02925182692706585,0.0871308371424675,-0.10257680714130402
485.0,0.0,0.0,0.0,0.0,0.0,0.0,0.0874713882803917,-0.00823392067104578,-0.03205999359488487,0.9883829951286316,-0.0242590494453907,0.07734255492687225,-0.12855690717697144
486.0,0.0,0.0,0.0,0.0,0.0,0.0,0.048961102962493896,0.04969552159309387,-0.008298029191792011,0.9855072498321533,-0.020140811800956726,0.06915634870529175,-0.1535722017288208
487.0,0.0,0.0,0.0,0.0,0.0,0.0,-0.0037833321839571,0.01613459549844265,0.05304446816444397,0.9823096394538879,-0.01745850034058094,0.06245613098144531,-0.1756768524646759
488.0,0.0,0.0,0.0,0.0,0.0,0.0,-0.06846998631954193,0.031714580953121185,0.07888448983430862,0.9791617393493652,-0.014688675291836262,0.054715726524591446,-0.19500815868377686
489.0,0.0,0.0,0.0,0.0,0.0,0.0,-0.03336654230952263,0.12722213566303253,0.01684383489191532,0.9765698313713074,-0.009996367618441582,0.044876549392938614,-0.21023009717464447
490.0,0.0,0.0,0.0,0.0,0.0,0.0,-0.05013805627822876,0.048395298421382904,0.029834570363163948,0.9744478464126587,-0.006445460952818394,0.035631779581308365,-0.22166474163532257
491.0,0.0,0.0,0.0,0.0,0.0,0.0,-0.05357066169381142,0.09708601236343384,0.027683204039931297,0.9735725522041321,-0.0028000553138554096,0.028992099687457085,-0.22650489211082458
492.0,0.0,0.0,0.0,0.0,0.0,0.0,-0.05153381824493408,0.13908585906028748,0.1164683923125267,0.9751439094543457,0.0003133462159894407,0.03083096817135811,-0.21941058337688446
493.0,0.0,0.0,0.0,0.0,0.0,0.0,-0.026757877320051193,0.10902600735425949,0.058629147708415985,0.9789559841156006,0.0020956092048436403,0.03932736814022064,-0.20023252069950104
494.0,0.0,0.0,0.0,0.0,0.0,0.0,0.02553393505513668,0.003506006207317114,0.024669408798217773,0.9831042289733887,0.0014275440480560064,0.052855513989925385,-0.17523601651191711
495.0,0.0,0.0,0.0,0.0,0.0,0.0,0.04421930015087128,-0.02395056188106537,-0.009970540180802345,0.986545741558075,-0.001707056537270546,0.06773090362548828,-0.14878833293914795
496.0,0.0,0.0,0.0,0.0,0.0,0.0,0.04017399251461029,-0.014164594002068043,-0.027175139635801315,0.9885478019714355,-0.005618235561996698,0.08590353280305862,-0.12393973022699356
497.0,0.0,0.0,0.0,0.0,0.0,0.0,0.08019863814115524,-0.08030970394611359,-0.0437190867960453,0.9890462160110474,-0.008138230070471764,0.10456667095422745,-0.10386263579130173
498.0,0.0,0.0,0.0,0.0,0.0,0.0,0.10946203023195267,-0.13243496417999268,-0.043379202485084534,0.9889247417449951,-0.011698407121002674,0.11696400493383408,-0.09060639888048172
499.0,0.0,0.0,0.0,0.0,0.0,0.0,0.08281025290489197,-0.06652383506298065,-0.02319229580461979,0.9886322617530823,-0.016871534287929535,0.12479012459516525,-0.08214551210403442
500.0,0.0,0.0,0.0,0.0,0.0,0.0,0.10179217904806137,-0.12772980332374573,-0.01228856947273016,0.9878970980644226,-0.02503356896340847,0.13172511756420135,-0.07798012346029282
501.0,0.0,0.0,0.0,0.0,0.0,0.0,0.12056219577789307,-0.024496424943208694,-0.08230892568826675,0.9874001145362854,-0.030908897519111633,0.13610245287418365,-0.07457712292671204
502.0,0.0,0.0,0.0,0.0,0.0,0.0,0.09094012528657913,-0.041412487626075745,-0.03689393401145935,0.9868224263191223,-0.03709809109568596,0.1387110948562622,-0.07459916919469833
503.0,0.0,0.0,0.0,0.0,0.0,0.0,0.032142333686351776,-0.05194058641791344,0.06204983964562416,0.9862027168273926,-0.04036853834986687,0.14148913323879242,-0.07585839182138443
504.0,0.0,0.0,0.0,0.0,0.0,0.0,0.0350174754858017,0.0028905714862048626,0.04523066431283951,0.985924482345581,-0.04115622863173485,0.14228197932243347,-0.07755375653505325
505.0,0.0,0.0,0.0,0.0,0.0,0.0,0.06585554778575897,-0.02667146921157837,0.006224516313523054,0.9856906533241272,-0.041691239923238754,0.14282773435115814,-0.07920611649751663
506.0,0.0,0.0,0.0,0.0,0.0,0.0,0.06368042528629303,-0.039068933576345444,0.001105046016164124,0.9855475425720215,-0.04131896793842316,0.14383786916732788,-0.07936006784439087
507.0,0.0,0.0,0.0,0.0,0.0,0.0,0.05315756797790527,-0.030376851558685303,0.0011191824451088905,0.9855520129203796,-0.03918341174721718,0.14308114349842072,-0.08172278106212616
508.0,0.0,0.0,0.0,0.0,0.0,0.0,0.05463824048638344,-0.054882634431123734,-0.008016783744096756,0.9856170415878296,-0.03671344742178917,0.14015750586986542,-0.08697289228439331
509.0,0.0,0.0,0.0,0.0,0.0,0.0,0.05819385498762131,-0.034095242619514465,-0.02661634422838688,0.9856696724891663,-0.033844657242298126,0.1357908993959427,-0.0941886380314827
510.0,0.0,0.0,0.0,0.0,0.0,0.0,0.06488075852394104,-0.01930283196270466,-0.00656714616343379,0.9854836463928223,-0.03144865483045578,0.13181862235069275,-0.10225141793489456
511.0,0.0,0.0,0.0,0.0,0.0,0.0,0.042857445776462555,-0.044517721980810165,0.009471750818192959,0.9850273132324219,-0.030840549618005753,0.12814518809318542,-0.11112190037965775
512.0,0.0,0.0,0.0,0.0,0.0,0.0,0.027149150148034096,-0.0478939451277256,-0.012681727297604084,0.9843071699142456,-0.0322355218231678,0.1250045895576477,-0.12030080705881119
513.0,0.0,0.0,0.0,0.0,0.0,0.0,0.030809566378593445,-0.041335366666316986,-0.04820900410413742,0.9834940433502197,-0.0343523807823658,0.1214752048254013,-0.1296173334121704
514.0,0.0,0.0,0.0,0.0,0.0,0.0,0.02344514988362789,-0.074919693171978,0.04758502170443535,0.982668399810791,-0.03541688993573189,0.11513916403055191,-0.14088721573352814
515.0,0.0,0.0,0.0,0.0,0.0,0.0,0.009024261496961117,0.022349635139107704,0.03779296204447746,0.9820590019226074,-0.036838043481111526,0.10963625460863113,-0.14894196391105652
516.0,0.0,0.0,0.0,0.0,0.0,0.0,0.0013991122832521796,0.02084166370332241,0.028837569057941437,0.9814872741699219,-0.03893592953681946,0.10404334217309952,-0.15600226819515228
517.0,0.0,0.0,0.0,0.0,0.0,0.0,-0.013326565735042095,0.026717839762568474,0.018613776192069054,0.9807206988334656,-0.04008504003286362,0.09736186265945435,-0.16461527347564697
518.0,0.0,0.0,0.0,0.0,0.0,0.0,-0.001239881617948413,0.01972230337560177,-0.01797381043434143,0.9796605110168457,-0.04102116450667381,0.08886144310235977,-0.17517298460006714
519.0,0.0,0.0,0.0,0.0,0.0,0.0,-0.006288281176239252,0.00032541531254537404,0.02222849801182747,0.9784456491470337,-0.04133804142475128,0.07818004488945007,-0.18659506738185883
520.0,0.0,0.0,0.0,0.0,0.0,0.0,-0.04010752588510513,0.018193235620856285,0.07083803415298462,0.9771045446395874,-0.03990819305181503,0.06720878928899765,-0.19787120819091797
521.0,0.0,0.0,0.0,0.0,0.0,0.0,-0.032152216881513596,0.061183806508779526,0.009592348709702492,0.9760250449180603,-0.03899063169956207,0.0575966015458107,-0.2062421441078186
522.0,0.0,0.0,0.0,0.0,0.0,0.0,-0.015528085641562939,0.02846704050898552,0.0005654047126881778,0.9752637147903442,-0.03953341767191887,0.04922647401690483,-0.21182578802108765
523.0,0.0,0.0,0.0,0.0,0.0,0.0,-0.010318458080291748,-0.0020647135097533464,-0.009147737175226212,0.9747865796089172,-0.04070786014199257,0.045041944831609726,-0.214716836810112
524.0,0.0,0.0,0.0,0.0,0.0,0.0,-0.01751726306974888,-0.0023489538580179214,-0.011464845389127731,0.9744565486907959,-0.04293012619018555,0.04157133027911186,-0.2164769172668457
525.0,0.0,0.0,0.0,0.0,0.0,0.0,-0.01979508064687252,-0.023524081334471703,0.02834019996225834,0.9741408824920654,-0.044315509498119354,0.03869182616472244,-0.21814291179180145
526.0,0.0,0.0,0.0,0.0,0.0,0.0,-0.017452111467719078,-0.014919797889888287,-0.01547947246581316,0.9740234613418579,-0.04544719681143761,0.036124829202890396,-0.21887104213237762
527.0,0.0,0.0,0.0,0.0,0.0,0.0,-0.008595343679189682,-0.009096399880945683,-0.006230497267097235,0.9738866686820984,-0.047098081558942795,0.03374209627509117,-0.219513937830925
528.0,0.0,0.0,0.0,0.0,0.0,0.0,-0.02350226789712906,-0.004119289107620716,0.0010668843751773238,0.9737408757209778,-0.04854293540120125,0.032618410885334015,-0.22002315521240234
529.0,0.0,0.0,0.0,0.0,0.0,0.0,-0.014990472234785557,0.0013034011935815215,-0.013421829789876938,0.9738286733627319,-0.050186946988105774,0.03247249126434326,-0.21926939487457275
530.0,0.0,0.0,0.0,0.0,0.0,0.0,-0.01903725042939186,-0.05311114713549614,0.05230403691530228,0.9737510681152344,-0.05080274119973183,0.030077967792749405,-0.21982616186141968
531.0,0.0,0.0,0.0,0.0,0.0,0.0,-0.014258966781198978,-0.007416445761919022,-0.016019700095057487,0.9739980697631836,-0.04986339062452316,0.026408378034830093,-0.21941795945167542
532.0,0.0,0.0,0.0,0.0,0.0,0.0,0.007401476614177227,0.006597479805350304,-0.028640199452638626,0.9742195010185242,-0.048623111099004745,0.023297704756259918,-0.2190541923046112
533.0,0.0,0.0,0.0,0.0,0.0,0.0,0.006587594747543335,-0.045893169939517975,0.024878008291125298,0.9743614792823792,-0.04697149619460106,0.021254586055874825,-0.21899531781673431
534.0,0.0,0.0,0.0,0.0,0.0,0.0,0.0009260778897441924,-0.0074239084497094154,-0.022247321903705597,0.9745984673500061,-0.045110683888196945,0.018428541719913483,-0.21858060359954834
535.0,0.0,0.0,0.0,0.0,0.0,0.0,-0.004393658600747585,-0.02937798947095871,0.022130396217107773,0.9745729565620422,-0.04423381760716438,0.014378589577972889,-0.21917809545993805
536.0,0.0,0.0,0.0,0.0,0.0,0.0,-0.03542061150074005,-0.029356811195611954,0.02621743641793728,0.9744946360588074,-0.04135572910308838,0.008949821814894676,-0.2203780859708786
537.0,0.0,0.0,0.0,0.0,0.0,0.0,-0.006082936190068722,0.03069240227341652,-0.056788329035043716,0.9748976230621338,-0.03772665187716484,0.0031193934846669436,-0.2194080948829651
538.0,0.0,0.0,0.0,0.0,0.0,0.0,0.01678548753261566,0.022969411686062813,-0.05617345869541168,0.9756370782852173,-0.0365389846265316,-0.0008993852534331381,-0.2163281887769699
539.0,0.0,0.0,0.0,0.0,0.0,0.0,0.005348019767552614,-0.04666461423039436,0.049353282898664474,0.9760837554931641,-0.03524284437298775,-0.0025993864983320236,-0.21450410783290863
540.0,0.0,0.0,0.0,0.0,0.0,0.0,-0.012060278095304966,-0.036380842328071594,0.029512563720345497,0.9763550162315369,-0.03236117586493492,-0.005056790541857481,-0.21366237103939056
541.0,0.0,0.0,0.0,0.0,0.0,0.0,-0.025832585990428925,-0.023543216288089752,0.0048593576066195965,0.9763897061347961,-0.029979268088936806,-0.008086455054581165,-0.2137683779001236
542.0,0.0,0.0,0.0,0.0,0.0,0.0,-0.013592708855867386,-0.005847402382642031,0.008164306171238422,0.9767898321151733,-0.026968998834490776,-0.009929103776812553,-0.21224990487098694
543.0,0.0,0.0,0.0,0.0,0.0,0.0,-0.04689442738890648,0.0071032303385436535,0.04803244769573212,0.9768357872962952,-0.023005150258541107,-0.013965700753033161,-0.21229341626167297
544.0,0.0,0.0,0.0,0.0,0.0,0.0,-0.04074351117014885,0.06305290758609772,-0.02288522943854332,0.9768809676170349,-0.020020505413413048,-0.01741027645766735,-0.21212998032569885
545.0,0.0,0.0,0.0,0.0,0.0,0.0,-0.014702501706779003,-0.006131811998784542,0.04753076657652855,0.9767933487892151,-0.01899435743689537,-0.021309267729520798,-0.21226851642131805
546.0,0.0,0.0,0.0,0.0,0.0,0.0,-0.053370457142591476,-0.021690795198082924,0.037485796958208084,0.9763118028640747,-0.01684204488992691,-0.025808991864323616,-0.21415774524211884
547.0,0.0,0.0,0.0,0.0,0.0,0.0,0.0009962444892153144,0.021137261763215065,-0.017676565796136856,0.9756603837013245,-0.0158546045422554,-0.02946336753666401,-0.21672102808952332
548.0,0.0,0.0,0.0,0.0,0.0,0.0,-0.011536936275660992,-0.048256855458021164,0.005798938684165478,0.9744590520858765,-0.018970338627696037,-0.033200498670339584,-0.2212594747543335
549.0,0.0,0.0,0.0,0.0,0.0,0.0,-0.03244679048657417,-0.05913501977920532,0.026338540017604828,0.9723197817802429,-0.02435544691979885,-0.037705808877944946,-0.2293020635843277
550.0,0.0,0.0,0.0,0.0,0.0,0.0,-0.04968724027276039,0.003261034609749913,-0.00764978164806962,0.9693791270256042,-0.028575556352734566,-0.04394114390015602,-0.23991142213344574
551.0,0.0,0.0,0.0,0.0,0.0,0.0,-0.008997024968266487,0.09106694161891937,-0.05685865506529808,0.966765820980072,-0.02870873175561428,-0.05090972036123276,-0.24888746440410614
552.0,0.0,0.0,0.0,0.0,0.0,0.0,-0.05240416154265404,0.03771102428436279,0.033170029520988464,0.9644845128059387,-0.028200596570968628,-0.05594180151820183,-0.2565954625606537
553.0,0.0,0.0,0.0,0.0,0.0,0.0,-0.03265156224370003,0.04475017264485359,0.009602006524801254,0.9621303677558899,-0.028315231204032898,-0.062182288616895676,-0.2638753056526184
554.0,0.0,0.0,0.0,0.0,0.0,0.0,0.05925923213362694,0.09813698381185532,-0.0319703072309494,0.9608084559440613,-0.02794516831636429,-0.07124815136194229,-0.26642724871635437
555.0,0.0,0.0,0.0,0.0,0.0,0.0,-0.026900140568614006,0.10925532132387161,-0.008429056033492088,0.9613634943962097,-0.028687195852398872,-0.07515645027160645,-0.2632443308830261
556.0,0.0,0.0,0.0,0.0,0.0,0.0,0.03566233813762665,0.1545807123184204,-0.009797953069210052,0.964303195476532,-0.028174834325909615,-0.07657410949468613,-0.25189703702926636
557.0,0.0,0.0,0.0,0.0,0.0,0.0,0.07977648824453354,0.0661734938621521,-0.04126455634832382,0.9697525501251221,-0.02923010289669037,-0.07455567270517349,-0.23055335879325867
558.0,0.0,0.0,0.0,0.0,0.0,0.0,0.06844695657491684,0.022167224436998367,-0.016099700704216957,0.9759354591369629,-0.027286970987915993,-0.06815671920776367,-0.2053309828042984
559.0,0.0,0.0,0.0,0.0,0.0,0.0,-0.09501861035823822,-0.07021184265613556,0.05637594312429428,0.9818544387817383,-0.02853206917643547,-0.04500042647123337,-0.1819828450679779
560.0,0.0,0.0,0.0,0.0,0.0,0.0,-0.024237724021077156,-0.048863112926483154,0.06744358688592911,0.9871780276298523,-0.026238180696964264,-0.0077322316356003284,-0.1572495698928833
561.0,0.0,0.0,0.0,0.0,0.0,0.0,0.0560714416205883,-0.057076942175626755,0.010696723125874996,0.9909528493881226,-0.021332986652851105,0.028893152251839638,-0.1293022334575653
562.0,0.0,0.0,0.0,0.0,0.0,0.0,0.053975660353899,-0.1402135044336319,0.01907026395201683,0.9929568767547607,-0.013342794962227345,0.046473223716020584,-0.10814881324768066
563.0,0.0,0.0,0.0,0.0,0.0,0.0,0.04738934710621834,-0.05548985302448273,-0.02986062318086624,0.9947478175163269,-0.002127153566107154,0.05319014936685562,-0.08741080015897751
564.0,0.0,0.0,0.0,0.0,0.0,0.0,0.06834854930639267,-0.047768205404281616,-0.0756329670548439,0.9963558912277222,0.009489879012107849,0.05543114244937897,-0.06412222236394882
565.0,0.0,0.0,0.0,0.0,0.0,0.0,0.0044189151376485825,-0.2043556571006775,-0.0076969279907643795,0.99761563539505,0.013298050500452518,0.042610615491867065,-0.05263984203338623
566.0,0.0,0.0,0.0,0.0,0.0,0.0,0.008861091919243336,-0.21567456424236298,-0.06872595846652985,0.9984137415885925,0.01301419734954834,0.02313058264553547,-0.04964117705821991
567.0,0.0,0.0,0.0,0.0,0.0,0.0,-0.022660817950963974,-0.1722995787858963,-0.02552420273423195,0.9984960556030273,0.012505857273936272,0.0032686085905879736,-0.053271837532520294
568.0,0.0,0.0,0.0,0.0,0.0,0.0,-0.0594480074942112,-0.04441961646080017,0.001565570943057537,0.997256338596344,0.012285148724913597,-0.023297062143683434,-0.06917790323495865
569.0,0.0,0.0,0.0,0.0,0.0,0.0,0.0068017104640603065,0.05168791115283966,-0.05085410922765732,0.9942362904548645,0.014355729334056377,-0.05432441458106041,-0.0912989005446434
570.0,0.0,0.0,0.0,0.0,0.0,0.0,0.018692316487431526,0.016852624714374542,-0.019688813015818596,0.9899203181266785,0.018841832876205444,-0.08306809514760971,-0.11314388364553452
571.0,0.0,0.0,0.0,0.0,0.0,0.0,0.019663676619529724,0.06363370269536972,-0.009535116143524647,0.9851133227348328,0.02265651896595955,-0.10614647716283798,-0.13330785930156708
572.0,0.0,0.0,0.0,0.0,0.0,0.0,-0.02288048155605793,0.015490768477320671,0.03773575276136398,0.9803882241249084,0.022724399343132973,-0.12270461767911911,-0.15251609683036804
573.0,0.0,0.0,0.0,0.0,0.0,0.0,-0.01904522068798542,0.008060441352427006,0.007937312126159668,0.9767623543739319,0.020168254151940346,-0.13264629244804382,-0.16712400317192078
574.0,0.0,0.0,0.0,0.0,0.0,0.0,-0.010801921598613262,0.00832527969032526,0.01472108718007803,0.9734501242637634,0.015214897692203522,-0.13922840356826782,-0.1810276061296463
575.0,0.0,0.0,0.0,0.0,0.0,0.0,-0.04799101874232292,-0.0012292168103158474,-0.017142493277788162,0.9704115986824036,0.009680746123194695,-0.1440846025943756,-0.19349020719528198
576.0,0.0,0.0,0.0,0.0,0.0,0.0,-0.023556115105748177,-0.0242938045412302,-0.03253474459052086,0.967993438243866,-0.001232101465575397,-0.14429478347301483,-0.20532876253128052
577.0,0.0,0.0,0.0,0.0,0.0,0.0,-0.05605371668934822,0.02442813850939274,-0.0032712139654904604,0.966331958770752,-0.014768119901418686,-0.13904590904712677,-0.21596147119998932
578.0,0.0,0.0,0.0,0.0,0.0,0.0,-0.05848008394241333,0.08704957365989685,-0.030471932142972946,0.9648758172988892,-0.02204669639468193,-0.13450489938259125,-0.2245548814535141
579.0,0.0,0.0,0.0,0.0,0.0,0.0,-0.034883562475442886,0.0751364603638649,-0.0019736657850444317,0.9642988443374634,-0.026275407522916794,-0.1310615986585617,-0.22858023643493652
580.0,0.0,0.0,0.0,0.0,0.0,0.0,-0.03304927423596382,0.07114684581756592,0.030121589079499245,0.9645255208015442,-0.027487244457006454,-0.12693962454795837,-0.22983196377754211
581.0,0.0,0.0,0.0,0.0,0.0,0.0,-0.03864293918013573,0.0417659617960453,0.029688674956560135,0.9652344584465027,-0.02867424674332142,-0.11992697417736053,-0.23045948147773743
582.0,0.0,0.0,0.0,0.0,0.0,0.0,-0.042726173996925354,0.020070165395736694,0.034306224435567856,0.9660816788673401,-0.02913757599890232,-0.1109241396188736,-0.23136642575263977
583.0,0.0,0.0,0.0,0.0,0.0,0.0,-0.033780213445425034,0.03583330661058426,0.012117567472159863,0.9667335152626038,-0.027659747749567032,-0.10256298631429672,-0.2326614111661911
584.0,0.0,0.0,0.0,0.0,0.0,0.0,-0.025965236127376556,0.03847784921526909,0.01786789484322071,0.9674487113952637,-0.026369906961917877,-0.09389014542102814,-0.23350602388381958
585.0,0.0,0.0,0.0,0.0,0.0,0.0,-0.011395377106964588,0.042336419224739075,-0.006497999187558889,0.9684493541717529,-0.02521490678191185,-0.0850265696644783,-0.2328900694847107
586.0,0.0,0.0,0.0,0.0,0.0,0.0,0.013054072856903076,0.04382326081395149,-0.031862348318099976,0.9698234796524048,-0.02490343153476715,-0.0764172300696373,-0.23017103970050812
587.0,0.0,0.0,0.0,0.0,0.0,0.0,0.006460432894527912,-0.008857149630784988,0.03961953520774841,0.9708894491195679,-0.02474392019212246,-0.06948385387659073,-0.22788871824741364
588.0,0.0,0.0,0.0,0.0,0.0,0.0,0.0015272542368620634,0.02052449807524681,0.032553210854530334,0.9712255001068115,-0.023575931787490845,-0.06474242359399796,-0.2279769480228424
589.0,0.0,0.0,0.0,0.0,0.0,0.0,0.019883116707205772,0.04613995552062988,-0.03158721327781677,0.9710361957550049,-0.025135966017842293,-0.06332681328058243,-0.228994682431221
590.0,0.0,0.0,0.0,0.0,0.0,0.0,0.015232379548251629,0.012507765553891659,0.0047391741536557674,0.9714158177375793,-0.026906203478574753,-0.05910353735089302,-0.22831447422504425
591.0,0.0,0.0,0.0,0.0,0.0,0.0,0.002870351541787386,0.03812442347407341,0.005102531984448433,0.9718227386474609,-0.027191748842597008,-0.05260967090725899,-0.22814302146434784
592.0,0.0,0.0,0.0,0.0,0.0,0.0,0.008826229721307755,0.03373989835381508,0.005046271253377199,0.9718541502952576,-0.026300087571144104,-0.047043509781360626,-0.22931146621704102
593.0,0.0,0.0,0.0,0.0,0.0,0.0,0.00978001020848751,0.04124920070171356,0.005263444967567921,0.9718145728111267,-0.024898843839764595,-0.04288356378674507,-0.23046864569187164
594.0,0.0,0.0,0.0,0.0,0.0,0.0,0.015912501141428947,0.023743312805891037,0.007669094484299421,0.9720770716667175,-0.02375166490674019,-0.039612703025341034,-0.23005855083465576
595.0,0.0,0.0,0.0,0.0,0.0,0.0,0.01145121268928051,0.028445936739444733,0.0049752481281757355,0.972459077835083,-0.022411534562706947,-0.03598172590136528,-0.22916242480278015
596.0,0.0,0.0,0.0,0.0,0.0,0.0,0.028964126482605934,0.029351720586419106,0.00046083141933195293,0.9725695848464966,-0.021098490804433823,-0.03301494941115379,-0.22928248345851898
597.0,0.0,0.0,0.0,0.0,0.0,0.0,0.024917783215641975,0.024957014247775078,0.00786176323890686,0.9728010892868042,-0.02018081396818161,-0.030377404764294624,-0.2287467122077942
598.0,0.0,0.0,0.0,0.0,0.0,0.0,0.041383445262908936,0.024610387161374092,0.032040517777204514,0.9735956788063049,-0.019364798441529274,-0.025533298030495644,-0.22600246965885162
599.0,0.0,0.0,0.0,0.0,0.0,0.0,0.029825488105416298,0.03470626845955849,0.06640123575925827,0.975193977355957,-0.017639651894569397,-0.01471617165952921,-0.2201477736234665
600.0,0.0,0.0,0.0,0.0,0.0,0.0,0.0028003293555229902,0.019992459565401077,0.011653156951069832,0.9770237803459167,-0.015581052750349045,-0.0029287042561918497,-0.21253550052642822
601.0,0.0,0.0,0.0,0.0,0.0,0.0,0.054603807628154755,-0.004158834461122751,0.0002410590968793258,0.9790324568748474,-0.013344842940568924,0.009266518987715244,-0.2030477523803711
602.0,0.0,0.0,0.0,0.0,0.0,0.0,0.026770854368805885,-0.025464897975325584,0.02588464692234993,0.9809353947639465,-0.010727886110544205,0.02314290963113308,-0.19264674186706543
603.0,0.0,0.0,0.0,0.0,0.0,0.0,0.0654551088809967,-0.01931961625814438,-0.03172321245074272,0.9826375246047974,-0.00883458461612463,0.03735579550266266,-0.18151262402534485
604.0,0.0,0.0,0.0,0.0,0.0,0.0,0.06766361743211746,-0.018430138006806374,-0.05553583800792694,0.9842318296432495,-0.009003328159451485,0.0544213242828846,-0.16805478930473328
605.0,0.0,0.0,0.0,0.0,0.0,0.0,0.05148433893918991,-0.03270580992102623,0.006324613466858864,0.9854916334152222,-0.008565380237996578,0.07244189828634262,-0.15322625637054443
606.0,0.0,0.0,0.0,0.0,0.0,0.0,0.09248659759759903,-0.06013430655002594,-0.011780689470469952,0.9861447215080261,-0.009310586377978325,0.08592397719621658,-0.14158742129802704
607.0,0.0,0.0,0.0,0.0,0.0,0.0,0.11052943021059036,0.0038413796573877335,-0.02460724301636219,0.9867555499076843,-0.01258926186710596,0.09861380606889725,-0.12818486988544464
608.0,0.0,0.0,0.0,0.0,0.0,0.0,0.0876501277089119,-0.05945143848657608,0.003826678963378072,0.9865921139717102,-0.02004990354180336,0.11246943473815918,-0.11654344946146011
609.0,0.0,0.0,0.0,0.0,0.0,0.0,0.08286529779434204,-0.08615516871213913,0.015016723424196243,0.9860385060310364,-0.02935398928821087,0.12356628477573395,-0.10767589509487152
610.0,0.0,0.0,0.0,0.0,0.0,0.0,0.09355878084897995,0.014316875487565994,0.005065214354544878,0.9853506684303284,-0.03688542917370796,0.1343715339899063,-0.09830998629331589
611.0,0.0,0.0,0.0,0.0,0.0,0.0,0.0765150859951973,-0.009960208088159561,0.023584213107824326,0.9841387867927551,-0.043113064020872116,0.14727047085762024,-0.08900073915719986
612.0,0.0,0.0,0.0,0.0,0.0,0.0,0.07776802778244019,-0.05302010849118233,0.015088843181729317,0.9828845262527466,-0.049226175993680954,0.15778739750385284,-0.08133567869663239
613.0,0.0,0.0,0.0,0.0,0.0,0.0,0.08614195138216019,-0.039373401552438736,0.006496005691587925,0.9816634058952332,-0.05462715029716492,0.16648784279823303,-0.07505855709314346
614.0,0.0,0.0,0.0,0.0,0.0,0.0,0.10150806605815887,-0.0627138614654541,-0.0026666808407753706,0.980477511882782,-0.05951963737607002,0.17267544567584991,-0.07282277941703796
615.0,0.0,0.0,0.0,0.0,0.0,0.0,0.10755690187215805,-0.08750838786363602,0.00248656515032053,0.9795743823051453,-0.06300943344831467,0.17571386694908142,-0.07473254948854446
616.0,0.0,0.0,0.0,0.0,0.0,0.0,0.11836446821689606,-0.07533587515354156,0.01463077962398529,0.9783294200897217,-0.06508561968803406,0.1797298789024353,-0.07954762130975723
617.0,0.0,0.0,0.0,0.0,0.0,0.0,0.1088869497179985,-0.02271224372088909,0.03468656912446022,0.9766764640808105,-0.06651298701763153,0.18589065968990326,-0.08439993113279343
618.0,0.0,0.0,0.0,0.0,0.0,0.0,0.09546162933111191,-0.021239249035716057,0.009976518340408802,0.9751518368721008,-0.06719449907541275,0.19156743586063385,-0.0886753499507904
619.0,0.0,0.0,0.0,0.0,0.0,0.0,0.10081799328327179,-0.046949081122875214,-0.0006285746349021792,0.9734758734703064,-0.06864217668771744,0.19688628613948822,-0.09416235983371735
620.0,0.0,0.0,0.0,0.0,0.0,0.0,0.10616936534643173,-0.06869837641716003,0.012723657302558422,0.9718047380447388,-0.07146322727203369,0.20104773342609406,-0.10034557431936264
621.0,0.0,0.0,0.0,0.0,0.0,0.0,0.09200292080640793,-0.043127428740262985,0.015949832275509834,0.9701300263404846,-0.07394594699144363,0.20426005125045776,-0.107968270778656
622.0,0.0,0.0,0.0,0.0,0.0,0.0,0.07197217643260956,0.00528230844065547,0.015536005608737469,0.9684269428253174,-0.0760331079363823,0.20719334483146667,-0.1159062460064888
623.0,0.0,0.0,0.0,0.0,0.0,0.0,0.07538099586963654,0.019253471866250038,0.04097054526209831,0.9668797254562378,-0.07919695973396301,0.21117527782917023,-0.11945938318967819
624.0,0.0,0.0,0.0,0.0,0.0,0.0,0.07260537147521973,0.010789991356432438,0.013851847499608994,0.9654585123062134,-0.08236608654260635,0.2164381742477417,-0.11941609531641006
625.0,0.0,0.0,0.0,0.0,0.0,0.0,0.07780347764492035,-0.04214129224419594,0.010469862259924412,0.9643673300743103,-0.0861290991306305,0.21987657248973846,-0.11928562074899673
626.0,0.0,0.0,0.0,0.0,0.0,0.0,0.07079702615737915,-0.006020478438585997,0.042676396667957306,0.9634671807289124,-0.08954458683729172,0.22442452609539032,-0.11552570760250092
627.0,0.0,0.0,0.0,0.0,0.0,0.0,0.0658624917268753,-0.00562885170802474,0.04060893505811691,0.962348997592926,-0.09061368554830551,0.23208527266979218,-0.1086416020989418
628.0,0.0,0.0,0.0,0.0,0.0,0.0,0.07355605810880661,-0.01298742275685072,0.011712045408785343,0.961658775806427,-0.09059496223926544,0.23809769749641418,-0.10155466198921204
629.0,0.0,0.0,0.0,0.0,0.0,0.0,0.09490463882684708,-0.016243187710642815,0.004384743981063366,0.961484432220459,-0.09068043529987335,0.24131032824516296,-0.09534785896539688
630.0,0.0,0.0,0.0,0.0,0.0,0.0,0.09768775850534439,-0.02726118080317974,0.01140286959707737,0.9617162942886353,-0.08990418910980225,0.24245791137218475,-0.09070838987827301
631.0,0.0,0.0,0.0,0.0,0.0,0.0,0.0972885712981224,-0.01475905254483223,0.005835784133523703,0.9622682332992554,-0.08866259455680847,0.24197128415107727,-0.08730142563581467
632.0,0.0,0.0,0.0,0.0,0.0,0.0,0.07567184418439865,-0.0012877939734607935,0.011627242900431156,0.96306312084198,-0.08808513730764389,0.23961879312992096,-0.08562365174293518
633.0,0.0,0.0,0.0,0.0,0.0,0.0,0.05766768753528595,-0.002290616510435939,0.025338709354400635,0.964091956615448,-0.08849658817052841,0.2356305867433548,-0.08466611802577972
634.0,0.0,0.0,0.0,0.0,0.0,0.0,0.027855003252625465,0.013157106935977936,0.028656475245952606,0.9654844403266907,-0.08872917294502258,0.23060142993927002,-0.08236197382211685
635.0,0.0,0.0,0.0,0.0,0.0,0.0,0.01554478146135807,0.007724761497229338,0.043271418660879135,0.9668629169464111,-0.08920717239379883,0.22561374306678772,-0.07948635518550873
636.0,0.0,0.0,0.0,0.0,0.0,0.0,0.03300746530294418,-0.00038988637970760465,0.028782255947589874,0.9682162404060364,-0.08935663104057312,0.2201024442911148,-0.07824526727199554
637.0,0.0,0.0,0.0,0.0,0.0,0.0,0.04719828441739082,-0.03939436748623848,-0.002563382964581251,0.9698947072029114,-0.08867917954921722,0.2121831476688385,-0.08010244369506836
638.0,0.0,0.0,0.0,0.0,0.0,0.0,0.039067190140485764,-0.041288744658231735,-0.036159176379442215,0.9718980193138123,-0.08718930184841156,0.20096105337142944,-0.08615588396787643
639.0,0.0,0.0,0.0,0.0,0.0,0.0,0.04921339452266693,-0.027476463466882706,-0.044989317655563354,0.9739649295806885,-0.08605112880468369,0.18645043671131134,-0.09599973261356354
640.0,0.0,0.0,0.0,0.0,0.0,0.0,-0.008104377426207066,0.03804895654320717,0.07885948568582535,0.9756509065628052,-0.0881129652261734,0.17602169513702393,-0.09671139717102051
641.0,0.0,0.0,0.0,0.0,0.0,0.0,-0.027156073600053787,0.054074209183454514,0.10071749985218048,0.9764754772186279,-0.08996395766735077,0.17412033677101135,-0.0898793563246727
642.0,0.0,0.0,0.0,0.0,0.0,0.0,0.020447924733161926,-0.07017409801483154,0.06634759902954102,0.9767676591873169,-0.0941246747970581,0.17462550103664398,-0.08103097230195999
643.0,0.0,0.0,0.0,0.0,0.0,0.0,0.009673040360212326,-0.04753180220723152,-0.010444977320730686,0.9768476486206055,-0.09788891673088074,0.17721618711948395,-0.06910418719053268
644.0,0.0,0.0,0.0,0.0,0.0,0.0,0.03936389833688736,-0.03760671988129616,-0.013683977536857128,0.9768806099891663,-0.09904694557189941,0.1796804964542389,-0.060054849833250046
645.0,0.0,0.0,0.0,0.0,0.0,0.0,0.05204886943101883,-0.06460285186767578,-0.013500120490789413,0.976323127746582,-0.10090858489274979,0.1831582635641098,-0.055315129458904266
646.0,0.0,0.0,0.0,0.0,0.0,0.0,0.050606418401002884,-0.09410279989242554,-0.023157956078648567,0.9751311540603638,-0.10354752838611603,0.1882653534412384,-0.054311368614435196
647.0,0.0,0.0,0.0,0.0,0.0,0.0,0.037482745945453644,-0.04701671376824379,-0.0008440816891379654,0.9737070798873901,-0.104887455701828,0.19575117528438568,-0.05073432996869087
648.0,0.0,0.0,0.0,0.0,0.0,0.0,0.030820587649941444,0.01530878059566021,-0.017770608887076378,0.9723153710365295,-0.10438501834869385,0.2036810666322708,-0.047056037932634354
649.0,0.0,0.0,0.0,0.0,0.0,0.0,0.044336169958114624,-0.016027512028813362,-0.028591899201273918,0.9710380434989929,-0.10534118860960007,0.20988702774047852,-0.04394395649433136
650.0,0.0,0.0,0.0,0.0,0.0,0.0,0.031212270259857178,-0.027713028714060783,-0.02901885099709034,0.9695222973823547,-0.10728073120117188,0.2163967490196228,-0.04104987904429436
651.0,0.0,0.0,0.0,0.0,0.0,0.0,0.037864912301301956,-0.05066065117716789,0.0026926619466394186,0.968015193939209,-0.10906197875738144,0.2225305587053299,-0.03909265249967575
652.0,0.0,0.0,0.0,0.0,0.0,0.0,0.044376298785209656,-0.029716957360506058,0.010018602944910526,0.9667254090309143,-0.110132597386837,0.22776547074317932,-0.037869613617658615
653.0,0.0,0.0,0.0,0.0,0.0,0.0,0.045989345759153366,-0.016077006235718727,-0.011334436014294624,0.9656713008880615,-0.11048700660467148,0.231805220246315,-0.039199862629175186
654.0,0.0,0.0,0.0,0.0,0.0,0.0,0.05205225199460983,-0.007468362804502249,-0.00984624121338129,0.96497642993927,-0.11028219759464264,0.23417282104492188,-0.04265614226460457
655.0,0.0,0.0,0.0,0.0,0.0,0.0,0.0645890161395073,-0.014321316964924335,-0.00013492883590515703,0.9647124409675598,-0.11097646504640579,0.23411506414413452,-0.04694313555955887
656.0,0.0,0.0,0.0,0.0,0.0,0.0,0.059932857751846313,-0.016626274213194847,0.0004190735053271055,0.9644742608070374,-0.11363518238067627,0.23288635909557343,-0.05134329944849014
657.0,0.0,0.0,0.0,0.0,0.0,0.0,0.042628560215234756,-0.0067795258946716785,0.025688018649816513,0.9642033576965332,-0.11694440990686417,0.23157823085784912,-0.0548270158469677
658.0,0.0,0.0,0.0,0.0,0.0,0.0,0.015496973879635334,0.02895544469356537,0.03353916108608246,0.9638791084289551,-0.12016808986663818,0.2311229407787323,-0.055426038801670074
659.0,0.0,0.0,0.0,0.0,0.0,0.0,-0.0009737982181832194,0.040795277804136276,0.023638533428311348,0.9641541242599487,-0.12227053195238113,0.22902938723564148,-0.05478624626994133
660.0,0.0,0.0,0.0,0.0,0.0,0.0,-0.006917433813214302,0.030762799084186554,0.05469663441181183,0.9650024175643921,-0.12299895286560059,0.2253948599100113,-0.05322592705488205
661.0,0.0,0.0,0.0,0.0,0.0,0.0,-0.019964326173067093,0.05502238869667053,0.049997616559267044,0.9668678045272827,-0.11865963786840439,0.22047695517539978,-0.049736138433218
662.0,0.0,0.0,0.0,0.0,0.0,0.0,-0.0041971770115196705,0.04588799178600311,0.028134288266301155,0.9689075350761414,-0.1132955327630043,0.21476618945598602,-0.047511305660009384
663.0,0.0,0.0,0.0,0.0,0.0,0.0,0.002879700856283307,0.04013809189200401,0.00604662112891674,0.9713435173034668,-0.1057472750544548,0.20782047510147095,-0.04603765159845352
664.0,0.0,0.0,0.0,0.0,0.0,0.0,0.005528337322175503,0.004139462485909462,0.019342122599482536,0.9740584492683411,-0.09759694337844849,0.19889910519123077,-0.04604132100939751
665.0,0.0,0.0,0.0,0.0,0.0,0.0,0.016039161011576653,-0.03576895222067833,-0.004548538010567427,0.9763025641441345,-0.09192443639039993,0.1900785118341446,-0.04747806489467621
666.0,0.0,0.0,0.0,0.0,0.0,0.0,0.028276149183511734,-0.04673703387379646,-0.03949778899550438,0.9784023761749268,-0.08736594021320343,0.1806732416152954,-0.04948394373059273
667.0,0.0,0.0,0.0,0.0,0.0,0.0,0.024520806968212128,-0.06008647382259369,-0.032808467745780945,0.9801279902458191,-0.08476521074771881,0.17131493985652924,-0.05305512249469757
668.0,0.0,0.0,0.0,0.0,0.0,0.0,0.015516813844442368,-0.06296374648809433,-0.032369308173656464,0.9815000295639038,-0.08501382917165756,0.16080167889595032,-0.05976105108857155
669.0,0.0,0.0,0.0,0.0,0.0,0.0,0.002636898308992386,-0.06502512842416763,-0.07389193028211594,0.9824773073196411,-0.08597289025783539,0.14933714270591736,-0.07100192457437515
670.0,0.0,0.0,0.0,0.0,0.0,0.0,-0.034215644001960754,-0.07256153225898743,-0.0586506724357605,0.9831025004386902,-0.08893032371997833,0.13476157188415527,-0.08624826371669769
671.0,0.0,0.0,0.0,0.0,0.0,0.0,-0.05024600401520729,-0.06225048750638962,0.021945394575595856,0.9833411574363708,-0.09135118871927261,0.12035059183835983,-0.10104365646839142
672.0,0.0,0.0,0.0,0.0,0.0,0.0,-0.055201467126607895,-0.05170026049017906,0.06822162866592407,0.9833178520202637,-0.09197085350751877,0.10932224988937378,-0.11257781833410263
673.0,0.0,0.0,0.0,0.0,0.0,0.0,-0.09201508015394211,-0.04417071491479874,0.057075221091508865,0.9835059642791748,-0.09395816177129745,0.09600609540939331,-0.12110926955938339
674.0,0.0,0.0,0.0,0.0,0.0,0.0,-0.0778324156999588,-0.050372011959552765,0.019164085388183594,0.983648955821991,-0.0951119065284729,0.08235732465982437,-0.1288519948720932
675.0,0.0,0.0,0.0,0.0,0.0,0.0,-0.05008614435791969,-0.035379379987716675,-0.005386640317738056,0.9837648868560791,-0.0951371043920517,0.07155012339353561,-0.13428442180156708
676.0,0.0,0.0,0.0,0.0,0.0,0.0,-0.05891202762722969,-0.02396361343562603,-0.001474372111260891,0.9839239716529846,-0.09472639113664627,0.06343339383602142,-0.1374564915895462
677.0,0.0,0.0,0.0,0.0,0.0,0.0,-0.07663695514202118,-0.04009140655398369,0.027375323697924614,0.9841964840888977,-0.09411992877721786,0.057161010801792145,-0.1386779397726059
678.0,0.0,0.0,0.0,0.0,0.0,0.0,-0.08033537119626999,-0.030629262328147888,0.02023724466562271,0.9845718145370483,-0.09320248663425446,0.05184222385287285,-0.13872414827346802
679.0,0.0,0.0,0.0,0.0,0.0,0.0,-0.04873964190483093,-0.03967348486185074,0.03939894959330559,0.9852340221405029,-0.09274093061685562,0.04553108662366867,-0.13652510941028595
680.0,0.0,0.0,0.0,0.0,0.0,0.0,-0.04554936662316322,-0.03030707687139511,0.01687278412282467,0.9860717058181763,-0.09412883222103119,0.039615191519260406,-0.13126413524150848
681.0,0.0,0.0,0.0,0.0,0.0,0.0,-0.03426430746912956,0.09550213068723679,0.04429195448756218,0.9868242740631104,-0.09680598974227905,0.03183223679661751,-0.12566183507442474
682.0,0.0,0.0,0.0,0.0,0.0,0.0,-0.08807212114334106,0.049313418567180634,0.025634750723838806,0.9870840907096863,-0.09991327673196793,0.027715999633073807,-0.12211232632398605
683.0,0.0,0.0,0.0,0.0,0.0,0.0,-0.1338721662759781,0.047814324498176575,0.024651115760207176,0.9873191714286804,-0.09815274178981781,0.02675718627870083,-0.12186268717050552
684.0,0.0,0.0,0.0,0.0,0.0,0.0,-0.058502454310655594,-0.03515920415520668,0.012639276683330536,0.9877817630767822,-0.09074253588914871,0.02980891428887844,-0.12314028292894363
685.0,0.0,0.0,0.0,0.0,0.0,0.0,-0.020953642204403877,0.013518956489861012,-0.050844706594944,0.988690197467804,-0.07838047295808792,0.042932942509651184,-0.12041644006967545
686.0,0.0,0.0,0.0,0.0,0.0,0.0,-0.11519643664360046,0.035442668944597244,0.016213050112128258,0.9891839623451233,-0.06559260189533234,0.05816417559981346,-0.11758574098348618
687.0,0.0,0.0,0.0,0.0,0.0,0.0,-0.08277169615030289,0.05732055753469467,0.034214142709970474,0.9900432825088501,-0.04796767979860306,0.06800778955221176,-0.11351991444826126
688.0,0.0,0.0,0.0,0.0,0.0,0.0,0.13169704377651215,-0.07367900758981705,-0.013614574447274208,0.9909130334854126,-0.029840895906090736,0.07385902106761932,-0.10836721211671829
689.0,0.0,0.0,0.0,0.0,0.0,0.0,0.13245481252670288,-0.1483842134475708,0.0034332445356994867,0.990270733833313,-0.018452249467372894,0.08536121249198914,-0.10832774639129639
690.0,0.0,0.0,0.0,0.0,0.0,0.0,0.00482097826898098,-0.09511770308017731,0.04602411389350891,0.9886602163314819,-0.008539970964193344,0.08586745709180832,-0.12289739400148392
691.0,0.0,0.0,0.0,0.0,0.0,0.0,-0.06180058419704437,-0.005347860977053642,0.011818492785096169,0.9875231981277466,-0.00913830753415823,0.061404697597026825,-0.14471399784088135
692.0,0.0,0.0,0.0,0.0,0.0,0.0,-0.10513228178024292,-0.046686891466379166,0.00956418365240097,0.9860591888427734,-0.020110836252570152,0.022834794595837593,-0.16357675194740295
693.0,0.0,0.0,0.0,0.0,0.0,0.0,-0.11920905858278275,-0.08247588574886322,-0.043388061225414276,0.9819719791412354,-0.03070942685008049,-0.011328475549817085,-0.18615661561489105
694.0,0.0,0.0,0.0,0.0,0.0,0.0,-0.12403153628110886,0.06645788252353668,-0.08764125406742096,0.977631688117981,-0.03691897168755531,-0.03930229693651199,-0.2032952606678009
695.0,0.0,0.0,0.0,0.0,0.0,0.0,-0.1410963088274002,0.07571081072092056,-0.08233918994665146,0.9740085601806641,-0.04103725031018257,-0.058526769280433655,-0.214945450425148
696.0,0.0,0.0,0.0,0.0,0.0,0.0,-0.12332028150558472,-0.03542249649763107,0.08864996582269669,0.9698569178581238,-0.043953899294137955,-0.07799305766820908,-0.22660613059997559
697.0,0.0,0.0,0.0,0.0,0.0,0.0,-0.14597925543785095,0.012666412629187107,0.00437945406883955,0.9668458104133606,-0.0449664443731308,-0.09176021069288254,-0.23401807248592377
698.0,0.0,0.0,0.0,0.0,0.0,0.0,-0.13300469517707825,0.0825447142124176,-0.03968927264213562,0.9645843505859375,-0.04219713807106018,-0.10527750104665756,-0.23812896013259888
699.0,0.0,0.0,0.0,0.0,0.0,0.0,-0.11935774236917496,0.019461126998066902,-0.0046827830374240875,0.9638155698776245,-0.04022849351167679,-0.11604075878858566,-0.23658575117588043
700.0,0.0,0.0,0.0,0.0,0.0,0.0,-0.06698843091726303,-0.018284352496266365,0.004676191136240959,0.9655227065086365,-0.03866534307599068,-0.11879134178161621,-0.22835370898246765
701.0,0.0,0.0,0.0,0.0,0.0,0.0,-0.08297255635261536,0.020840691402554512,0.019672082737088203,0.9677319526672363,-0.035496581345796585,-0.11865833401679993,-0.2194221466779709
702.0,0.0,0.0,0.0,0.0,0.0,0.0,-0.09102823585271835,-0.0005179407889954746,0.02796136401593685,0.9691680073738098,-0.028754396364092827,-0.12151000648736954,-0.21240995824337006
703.0,0.0,0.0,0.0,0.0,0.0,0.0,-0.008664363995194435,0.08035643398761749,-0.13730956614017487,0.9698822498321533,-0.02215299755334854,-0.1266663372516632,-0.20685312151908875
704.0,0.0,0.0,0.0,0.0,0.0,0.0,0.019826455041766167,0.03061847947537899,-0.11232146620750427,0.9698848128318787,-0.01744021847844124,-0.12889568507671356,-0.20591899752616882
705.0,0.0,0.0,0.0,0.0,0.0,0.0,-0.01667739264667034,-0.03735166788101196,-0.007400988135486841,0.9698138236999512,-0.014621367678046227,-0.1276029348373413,-0.2072502076625824
706.0,0.0,0.0,0.0,0.0,0.0,0.0,-0.046027060598134995,-0.008690034970641136,0.04265502467751503,0.9694699645042419,-0.010060595348477364,-0.1250067949295044,-0.21069563925266266
707.0,0.0,0.0,0.0,0.0,0.0,0.0,-0.04041356220841408,0.05592387914657593,-0.03161375969648361,0.9684113264083862,-0.004062643740326166,-0.12410670518875122,-0.21623583137989044
708.0,0.0,0.0,0.0,0.0,0.0,0.0,-0.042615875601768494,0.044601574540138245,-0.090317502617836,0.967225968837738,-0.0007588538574054837,-0.1236385852098465,-0.22177135944366455
709.0,0.0,0.0,0.0,0.0,0.0,0.0,-0.07264239341020584,0.055461809039115906,-0.032070450484752655,0.9670026302337646,-0.001352995983324945,-0.12039661407470703,-0.2245091050863266
710.0,0.0,0.0,0.0,0.0,0.0,0.0,-0.0921727865934372,0.05996067449450493,0.018765484914183617,0.9671212434768677,-0.0027061784639954567,-0.11604153364896774,-0.2262713611125946
711.0,0.0,0.0,0.0,0.0,0.0,0.0,-0.054314985871315,0.06707151979207993,-0.008397266268730164,0.9674339890480042,-0.0029287480283528566,-0.11364355683326721,-0.22615382075309753
712.0,0.0,0.0,0.0,0.0,0.0,0.0,-0.059164807200431824,0.07297271490097046,-0.03601710498332977,0.9677909016609192,-0.002154161687940359,-0.11101898550987244,-0.22593727707862854
713.0,0.0,0.0,0.0,0.0,0.0,0.0,-0.07159317284822464,0.07951894402503967,-0.03487163782119751,0.9684853553771973,-0.0011738133616745472,-0.10842105746269226,-0.2242135852575302
714.0,0.0,0.0,0.0,0.0,0.0,0.0,-0.05346847325563431,0.04955444857478142,0.004818111192435026,0.969474196434021,-0.00021450695930980146,-0.1058792769908905,-0.22115027904510498
715.0,0.0,0.0,0.0,0.0,0.0,0.0,-0.03583235666155815,0.04942137748003006,-0.03879737854003906,0.9703595638275146,0.0033224180806428194,-0.1023670956492424,-0.21887187659740448
716.0,0.0,0.0,0.0,0.0,0.0,0.0,-0.019381066784262657,0.04776832088828087,-0.05770564079284668,0.9712624549865723,0.007242477033287287,-0.0990557000041008,-0.21628223359584808
717.0,0.0,0.0,0.0,0.0,0.0,0.0,-0.031143303960561752,0.001632845145650208,-0.020937636494636536,0.9721884727478027,0.006588469259440899,-0.09539354592561722,-0.21378275752067566
718.0,0.0,0.0,0.0,0.0,0.0,0.0,-0.0419037863612175,0.03425043821334839,-0.010272848419845104,0.9730061292648315,0.004436762537807226,-0.09062474220991135,-0.21217946708202362
719.0,0.0,0.0,0.0,0.0,0.0,0.0,-0.01980358175933361,0.03773808479309082,-0.03041801229119301,0.9731074571609497,0.0032916604541242123,-0.08819488435983658,-0.21276144683361053
720.0,0.0,0.0,0.0,0.0,0.0,0.0,-0.01879327930510044,0.012966963462531567,-0.0013924327213317156,0.9732732176780701,0.0005820281803607941,-0.08517558127641678,-0.21325276792049408
721.0,0.0,0.0,0.0,0.0,0.0,0.0,-0.014149610884487629,0.03913676366209984,-0.012049912475049496,0.9733948707580566,-0.003744004061445594,-0.08087997138500214,-0.2143532931804657
722.0,0.0,0.0,0.0,0.0,0.0,0.0,-0.05718779191374779,0.06456879526376724,0.012759258039295673,0.9738991856575012,-0.009620042517781258,-0.07281634211540222,-0.2147584855556488
723.0,0.0,0.0,0.0,0.0,0.0,0.0,-0.035459328442811966,0.10395391285419464,0.04204476252198219,0.9756464958190918,-0.01435465831309557,-0.06201370060443878,-0.20989713072776794
724.0,0.0,0.0,0.0,0.0,0.0,0.0,-0.05335492640733719,0.06701367348432541,0.07389048486948013,0.9777724742889404,-0.016747349873185158,-0.04883189499378204,-0.20319689810276031
725.0,0.0,0.0,0.0,0.0,0.0,0.0,-0.0896044373512268,0.033873848617076874,0.09297433495521545,0.9810099601745605,-0.018865929916501045,-0.030446438118815422,-0.19062450528144836
726.0,0.0,0.0,0.0,0.0,0.0,0.0,-0.04104885831475258,0.10487121343612671,0.02962108515202999,0.985953688621521,-0.022401798516511917,-0.003922136500477791,-0.16546368598937988
727.0,0.0,0.0,0.0,0.0,0.0,0.0,0.0028991291765123606,0.0444500632584095,-0.045867640525102615,0.989963948726654,-0.02252802439033985,0.0227290540933609,-0.13764286041259766
728.0,0.0,0.0,0.0,0.0,0.0,0.0,-0.0066483658738434315,0.01781018264591694,0.0007486289250664413,0.9922753572463989,-0.02185630239546299,0.049069665372371674,-0.11181403696537018
729.0,0.0,0.0,0.0,0.0,0.0,0.0,0.0452134869992733,-0.0015166245866566896,-0.02563980408012867,0.9929295182228088,-0.02207872085273266,0.07419028133153915,-0.08999477326869965
730.0,0.0,0.0,0.0,0.0,0.0,0.0,0.05774027109146118,-0.07386215776205063,-0.01218764390796423,0.9923385977745056,-0.024807652458548546,0.09366246312856674,-0.0766477882862091
731.0,0.0,0.0,0.0,0.0,0.0,0.0,0.06418484449386597,-0.05471784621477127,-0.026463018730282784,0.9916968941688538,-0.026881324127316475,0.10653772950172424,-0.06681173294782639
732.0,0.0,0.0,0.0,0.0,0.0,0.0,0.06507667154073715,0.014055821113288403,-0.04910529404878616,0.9915198683738708,-0.025979822501540184,0.11207788437604904,-0.06042686849832535
733.0,0.0,0.0,0.0,0.0,0.0,0.0,0.061574507504701614,-0.019219042733311653,-0.010745110921561718,0.9911381602287292,-0.025903111323714256,0.11672477424144745,-0.05786017328500748
734.0,0.0,0.0,0.0,0.0,0.0,0.0,0.05486780405044556,-0.007639328483492136,-0.004575686529278755,0.9905242919921875,-0.026069337502121925,0.12241541594266891,-0.056539081037044525
735.0,0.0,0.0,0.0,0.0,0.0,0.0,0.04367705062031746,-0.006133544258773327,-0.008397010155022144,0.9900663495063782,-0.024700909852981567,0.12655295431613922,-0.05605063959956169
736.0,0.0,0.0,0.0,0.0,0.0,0.0,0.03357512131333351,-0.004019865300506353,-0.012976846657693386,0.989997148513794,-0.021313156932592392,0.1264849454164505,-0.05875096842646599
737.0,0.0,0.0,0.0,0.0,0.0,0.0,0.02284114621579647,-0.008421640843153,-0.023914337158203125,0.9901948571205139,-0.017160797491669655,0.12332498282194138,-0.06332921236753464
738.0,0.0,0.0,0.0,0.0,0.0,0.0,0.015467141754925251,-0.03299879655241966,-0.055682264268398285,0.9905016422271729,-0.013708946295082569,0.11673034727573395,-0.07135476171970367
739.0,0.0,0.0,0.0,0.0,0.0,0.0,0.024144712835550308,-0.05219185724854469,-0.10861853510141373,0.9907949566841125,-0.010045052506029606,0.10265786945819855,-0.08766636252403259
740.0,0.0,0.0,0.0,0.0,0.0,0.0,0.03807646781206131,-0.049993839114904404,-0.04296928644180298,0.9902744293212891,-0.0050946432165801525,0.07773203402757645,-0.11526772379875183
741.0,0.0,0.0,0.0,0.0,0.0,0.0,0.013281209394335747,0.03241655230522156,0.046425122767686844,0.9880616664886475,-0.0022441139444708824,0.04946676641702652,-0.1458745002746582
742.0,0.0,0.0,0.0,0.0,0.0,0.0,-0.05467653647065163,0.029454587027430534,0.07868387550115585,0.9847919940948486,-0.001809891196899116,0.0298122838139534,-0.17114660143852234
743.0,0.0,0.0,0.0,0.0,0.0,0.0,-0.04014702886343002,0.017666203901171684,0.030108923092484474,0.9817216992378235,-0.0024090392980724573,0.016282018274068832,-0.1895984709262848
744.0,0.0,0.0,0.0,0.0,0.0,0.0,-0.048246897757053375,-0.006813974119722843,0.026275474578142166,0.9794560670852661,-0.004287037067115307,0.007962603121995926,-0.2014499455690384
745.0,0.0,0.0,0.0,0.0,0.0,0.0,-0.060551661998033524,0.03616948053240776,0.034816764295101166,0.9782163500785828,-0.007380992639809847,0.0040189470164477825,-0.20741556584835052
746.0,0.0,0.0,0.0,0.0,0.0,0.0,-0.04746294021606445,0.04811063036322594,0.004002260975539684,0.9773028492927551,-0.01009050477296114,0.00015364590217359364,-0.21159911155700684
747.0,0.0,0.0,0.0,0.0,0.0,0.0,-0.04862847179174423,0.012798895128071308,0.007454012520611286,0.9768251180648804,-0.011983116157352924,-0.0027940289583057165,-0.21367758512496948
748.0,0.0,0.0,0.0,0.0,0.0,0.0,-0.05368288606405258,0.02390950918197632,0.012618862092494965,0.9765582084655762,-0.012847122736275196,-0.0044363257475197315,-0.21482887864112854
749.0,0.0,0.0,0.0,0.0,0.0,0.0,-0.043348655104637146,0.023182833567261696,0.007440410554409027,0.9764590859413147,-0.012727012857794762,-0.0066797491163015366,-0.21520864963531494
750.0,0.0,0.0,0.0,0.0,0.0,0.0,-0.05087796971201897,0.005766193848103285,0.015950137749314308,0.9763968586921692,-0.011756842024624348,-0.009050259366631508,-0.21546538174152374
751.0,0.0,0.0,0.0,0.0,0.0,0.0,-0.043491922318935394,0.006952549796551466,0.014815016649663448,0.976450502872467,-0.009363250806927681,-0.011684386059641838,-0.21521557867527008
752.0,0.0,0.0,0.0,0.0,0.0,0.0,-0.030467122793197632,0.0006632874137721956,-0.0034587096888571978,0.9765260219573975,-0.0067395963706076145,-0.014288702048361301,-0.21481063961982727
753.0,0.0,0.0,0.0,0.0,0.0,0.0,-0.029358476400375366,-0.0033860323019325733,0.004094916395843029,0.9766445755958557,-0.004381336271762848,-0.017933590337634087,-0.21406109631061554
754.0,0.0,0.0,0.0,0.0,0.0,0.0,-0.022033119574189186,0.015477155335247517,-0.021268321201205254,0.976732611656189,-0.0027688834816217422,-0.021596286445856094,-0.21333733201026917
755.0,0.0,0.0,0.0,0.0,0.0,0.0,-0.013095514848828316,-0.003974853083491325,-0.011508021503686905,0.9767228960990906,-0.00208368175663054,-0.02441401779651642,-0.21309570968151093
756.0,0.0,0.0,0.0,0.0,0.0,0.0,-0.0352630540728569,-0.01042337715625763,0.03609422594308853,0.9765582084655762,-0.0008422897662967443,-0.027254629880189896,-0.21350830793380737
757.0,0.0,0.0,0.0,0.0,0.0,0.0,-0.014728999696671963,0.054683104157447815,-0.026434866711497307,0.976618766784668,0.00040734835783950984,-0.029339687898755074,-0.21295511722564697
758.0,0.0,0.0,0.0,0.0,0.0,0.0,-0.0015708659775555134,0.055550381541252136,0.00626191683113575,0.9773463010787964,-0.0009277780773118138,-0.02952345833182335,-0.20956961810588837
759.0,0.0,0.0,0.0,0.0,0.0,0.0,-0.0025368742644786835,0.08615624904632568,0.06608615070581436,0.9798178672790527,-0.004056447185575962,-0.023800238966941833,-0.1984107792377472
760.0,0.0,0.0,0.0,0.0,0.0,0.0,-0.0065845912322402,0.11868270486593246,0.011038125492632389,0.9845426678657532,-0.009620693512260914,-0.009328223764896393,-0.17462602257728577
761.0,0.0,0.0,0.0,0.0,0.0,0.0,0.00847268383949995,0.024219386279582977,-0.013967263512313366,0.9892167448997498,-0.014850105158984661,0.011934022419154644,-0.14521899819374084
762.0,0.0,0.0,0.0,0.0,0.0,0.0,0.02943889982998371,-0.017847029492259026,0.004232778679579496,0.9923991560935974,-0.018501659855246544,0.03578384593129158,-0.116280697286129
763.0,0.0,0.0,0.0,0.0,0.0,0.0,0.021195003762841225,0.002932489151135087,0.04591130092740059,0.9940808415412903,-0.018162688240408897,0.06035495921969414,-0.08849141746759415
764.0,0.0,0.0,0.0,0.0,0.0,0.0,0.02057667076587677,0.007815787568688393,0.029351402074098587,0.9946035742759705,-0.014307607896625996,0.08112410455942154,-0.06306786090135574
765.0,0.0,0.0,0.0,0.0,0.0,0.0,0.09026258438825607,-0.0460466630756855,-0.03862864896655083,0.9944199919700623,-0.009144769981503487,0.09673117101192474,-0.04106421768665314
766.0,0.0,0.0,0.0,0.0,0.0,0.0,0.09763707220554352,-0.07458490878343582,-0.08638458698987961,0.9938944578170776,-0.004592208657413721,0.1078905388712883,-0.02263827621936798
767.0,0.0,0.0,0.0,0.0,0.0,0.0,0.08138541877269745,-0.11178403347730637,-0.06592284888029099,0.9937208890914917,-0.0028409643564373255,0.11134736239910126,-0.010537536814808846
768.0,0.0,0.0,0.0,0.0,0.0,0.0,0.04252849519252777,-0.0910792201757431,-0.026702214032411575,0.994086503982544,-0.003014334011822939,0.10843448340892792,-0.004900089465081692
769.0,0.0,0.0,0.0,0.0,0.0,0.0,0.05942627787590027,-0.07561451196670532,0.04937366768717766,0.9947526454925537,-0.003724384354427457,0.10222160071134567,-0.0016739623388275504
770.0,0.0,0.0,0.0,0.0,0.0,0.0,0.06914779543876648,-0.03723353520035744,0.07653980702161789,0.9950687885284424,-0.005464701447635889,0.09901543706655502,-0.0022743314038962126
771.0,0.0,0.0,0.0,0.0,0.0,0.0,0.05530108883976936,-0.0023297828156501055,0.038811203092336655,0.9952884316444397,-0.006299323868006468,0.09662958979606628,-0.0047704968601465225
772.0,0.0,0.0,0.0,0.0,0.0,0.0,0.022716762498021126,0.0040953331626951694,0.013576444238424301,0.9956544637680054,-0.004059957340359688,0.09273325651884079,-0.0074242823757231236
773.0,0.0,0.0,0.0,0.0,0.0,0.0,-0.001975719351321459,-0.0033876686356961727,0.028269430622458458,0.9960241913795471,0.002144133672118187,0.08813125640153885,-0.012793153524398804
774.0,0.0,0.0,0.0,0.0,0.0,0.0,0.024382030591368675,-0.02381344884634018,0.006276215426623821,0.9963186383247375,0.009063338860869408,0.08272193372249603,-0.02057129144668579
775.0,0.0,0.0,0.0,0.0,0.0,0.0,0.04468278959393501,-0.037683237344026566,-0.027557935565710068,0.9966535568237305,0.016100918874144554,0.07409626990556717,-0.030522312968969345
776.0,0.0,0.0,0.0,0.0,0.0,0.0,0.03510366007685661,-0.04841778054833412,-0.06548922508955002,0.9969726204872131,0.022927500307559967,0.06070777028799057,-0.04283006489276886
777.0,0.0,0.0,0.0,0.0,0.0,0.0,0.031152602285146713,-0.015848884359002113,-0.09726618975400925,0.9968926906585693,0.030062155798077583,0.040252700448036194,-0.06066437065601349
778.0,0.0,0.0,0.0,0.0,0.0,0.0,0.0013621216639876366,-0.02804967761039734,-0.08195482194423676,0.995511531829834,0.036003150045871735,0.016178632155060768,-0.08601046353578568
779.0,0.0,0.0,0.0,0.0,0.0,0.0,-0.006857181899249554,-0.04614830017089844,0.013294942677021027,0.9926680326461792,0.04153040051460266,-0.005092139821499586,-0.11339538544416428
780.0,0.0,0.0,0.0,0.0,0.0,0.0,-0.016429640352725983,0.038546014577150345,0.02925524301826954,0.9896864295005798,0.04491043835878372,-0.019045911729335785,-0.13467872142791748
781.0,0.0,0.0,0.0,0.0,0.0,0.0,-0.035579584538936615,0.009699792601168156,0.05311540141701698,0.9870942234992981,0.04484451189637184,-0.029191678389906883,-0.15092672407627106
782.0,0.0,0.0,0.0,0.0,0.0,0.0,-0.023824121803045273,-0.006110354792326689,0.02907957136631012,0.9849629998207092,0.04396815598011017,-0.0362662598490715,-0.1630818098783493
783.0,0.0,0.0,0.0,0.0,0.0,0.0,-0.028052188456058502,-0.018434643745422363,-0.01039135456085205,0.9830784201622009,0.03936075419187546,-0.03949146345257759,-0.17448750138282776
784.0,0.0,0.0,0.0,0.0,0.0,0.0,-0.0441647432744503,-0.0028322916477918625,-0.00870677549391985,0.9814529418945312,0.03302857279777527,-0.04189487174153328,-0.18411791324615479
785.0,0.0,0.0,0.0,0.0,0.0,0.0,-0.026142317801713943,0.01137557066977024,-0.013343101367354393,0.9800760746002197,0.028042184188961983,-0.04369990527629852,-0.19170542061328888
786.0,0.0,0.0,0.0,0.0,0.0,0.0,-0.019528254866600037,-0.009412464685738087,0.015421362593770027,0.9779372215270996,0.021582797169685364,-0.046643421053886414,-0.2024696320295334
787.0,0.0,0.0,0.0,0.0,0.0,0.0,-0.03462150692939758,-0.024508295580744743,0.028752464801073074,0.9750378727912903,0.012525741942226887,-0.05016942322254181,-0.21591758728027344
788.0,0.0,0.0,0.0,0.0,0.0,0.0,-0.04879765957593918,0.03206365928053856,-0.005645313300192356,0.9720362424850464,0.004098778590559959,-0.054216332733631134,-0.2284402996301651
789.0,0.0,0.0,0.0,0.0,0.0,0.0,-0.07340904325246811,0.0609438419342041,0.0009253284661099315,0.9690361618995667,-0.0008515556110069156,-0.05925830826163292,-0.23969458043575287
790.0,0.0,0.0,0.0,0.0,0.0,0.0,-0.05055397376418114,0.028124766424298286,-0.002720256568863988,0.9667825698852539,-0.003381232498213649,-0.061547521501779556,-0.2480296790599823
791.0,0.0,0.0,0.0,0.0,0.0,0.0,-0.06111042946577072,0.026966599747538567,0.011111747473478317,0.9659003615379333,-0.005794576834887266,-0.05875936150550842,-0.25207823514938354
792.0,0.0,0.0,0.0,0.0,0.0,0.0,-0.04983276128768921,0.050660520792007446,-0.0004648299945984036,0.966508150100708,-0.007229303475469351,-0.05134489759802818,-0.25132977962493896
793.0,0.0,0.0,0.0,0.0,0.0,0.0,-0.05131855234503746,0.02621591091156006,0.019548747688531876,0.9673306345939636,-0.008017673157155514,-0.04538150504231453,-0.24927979707717896
794.0,0.0,0.0,0.0,0.0,0.0,0.0,-0.03513605147600174,-0.023593097925186157,0.030855311080813408,0.9677925109863281,-0.007976185530424118,-0.04132945090532303,-0.2482021301984787
795.0,0.0,0.0,0.0,0.0,0.0,0.0,-0.028544938191771507,0.007694406434893608,0.02315063215792179,0.9682691693305969,-0.008075502701103687,-0.03823094815015793,-0.24683433771133423
796.0,0.0,0.0,0.0,0.0,0.0,0.0,-0.018431123346090317,0.006671612150967121,0.006229050923138857,0.9686276316642761,-0.008470621891319752,-0.03638370707631111,-0.24568919837474823
797.0,0.0,0.0,0.0,0.0,0.0,0.0,-0.01730920374393463,0.0024798428639769554,-0.013526735827326775,0.9690965414047241,-0.008585994131863117,-0.03498002141714096,-0.24403055012226105
798.0,0.0,0.0,0.0,0.0,0.0,0.0,-0.0038965940475463867,0.002957117510959506,-0.018339408561587334,0.9701980352401733,-0.009445608593523502,-0.031879622489213943,-0.24000999331474304
799.0,0.0,0.0,0.0,0.0,0.0,0.0,-0.009307538159191608,-0.010650423355400562,0.014895197935402393,0.9713354110717773,-0.010296965949237347,-0.02800772525370121,-0.23582808673381805
800.0,0.0,0.0,0.0,0.0,0.0,0.0,-0.011718722060322762,-0.004190798848867416,0.006639583967626095,0.972096860408783,-0.00992758758366108,-0.025326434522867203,-0.23298844695091248
801.0,0.0,0.0,0.0,0.0,0.0,0.0,-0.007162248715758324,0.008632236160337925,-0.0011081697884947062,0.9728682041168213,-0.00813151802867651,-0.0234793983399868,-0.23000693321228027
802.0,0.0,0.0,0.0,0.0,0.0,0.0,-0.01719960942864418,0.023462094366550446,-0.002459014765918255,0.9739071726799011,-0.005804981105029583,-0.02117816172540188,-0.22587379813194275
803.0,0.0,0.0,0.0,0.0,0.0,0.0,-0.010076268576085567,0.0027525692712515593,0.01846528984606266,0.9750228524208069,-0.0035741080064326525,-0.019569426774978638,-0.22120563685894012
804.0,0.0,0.0,0.0,0.0,0.0,0.0,0.002149042207747698,0.006044630892574787,0.01696610078215599,0.9764907956123352,-0.00012199435877846554,-0.018331458792090416,-0.21476420760154724
805.0,0.0,0.0,0.0,0.0,0.0,0.0,0.029824888333678246,-0.0032320921309292316,-0.01017798949033022,0.9777472615242004,0.0036888548638671637,-0.019261378794908524,-0.20886920392513275
806.0,0.0,0.0,0.0,0.0,0.0,0.0,0.04683651775121689,-0.027849100530147552,-0.03726561740040779,0.97894686460495,0.006020120345056057,-0.019140124320983887,-0.20312190055847168
807.0,0.0,0.0,0.0,0.0,0.0,0.0,0.04320792108774185,-0.0034522174391895533,-0.031044499948620796,0.9801876544952393,0.007141116540879011,-0.017618294805288315,-0.19714432954788208
808.0,0.0,0.0,0.0,0.0,0.0,0.0,0.06024456396698952,0.01760038733482361,-0.014051093719899654,0.9811878204345703,0.005974571220576763,-0.016053996980190277,-0.1922723799943924
809.0,0.0,0.0,0.0,0.0,0.0,0.0,0.051604025065898895,0.00935870036482811,-0.02208355814218521,0.9820628762245178,0.003588669002056122,-0.014683514833450317,-0.18793407082557678
810.0,0.0,0.0,0.0,0.0,0.0,0.0,0.06523439288139343,0.011729679070413113,-0.04159028083086014,0.9833388328552246,-0.00039031761116348207,-0.012187912128865719,-0.18135984241962433
811.0,0.0,0.0,0.0,0.0,0.0,0.0,0.04933767765760422,0.07514964789152145,-0.041864052414894104,0.9855138063430786,-0.006315316539257765,-0.003806807566434145,-0.16943232715129852
812.0,0.0,0.0,0.0,0.0,0.0,0.0,0.052947305142879486,0.10868053138256073,0.017093399539589882,0.9883874654769897,-0.010851763188838959,0.01153518445789814,-0.1511148065328598
813.0,0.0,0.0,0.0,0.0,0.0,0.0,0.021890705451369286,0.06826630979776382,0.10567079484462738,0.9908288717269897,-0.005653686355799437,0.03156042844057083,-0.1312675029039383
814.0,0.0,0.0,0.0,0.0,0.0,0.0,-0.0026253857649862766,-0.04180643707513809,0.1373475193977356,0.9921985864639282,0.008290251716971397,0.05471615493297577,-0.1117057353258133
815.0,0.0,0.0,0.0,0.0,0.0,0.0,0.0225574541836977,-0.07419542223215103,-0.02439930848777294,0.9925367832183838,0.018846193328499794,0.07946266978979111,-0.09055161476135254
816.0,0.0,0.0,0.0,0.0,0.0,0.0,0.07392363250255585,-0.08150043338537216,-0.12470529228448868,0.9924089312553406,0.021227126941084862,0.09484706819057465,-0.07534066587686539
817.0,0.0,0.0,0.0,0.0,0.0,0.0,0.0515783466398716,-0.11358321458101273,-0.1045563668012619,0.9926044344902039,0.019305184483528137,0.09725704789161682,-0.07003045082092285
818.0,0.0,0.0,0.0,0.0,0.0,0.0,0.030702294781804085,-0.1406930536031723,-0.05508207529783249,0.9932444095611572,0.018713053315877914,0.08965238183736801,-0.07126006484031677
819.0,0.0,0.0,0.0,0.0,0.0,0.0,0.030459614470601082,-0.1518876999616623,-0.054069884121418,0.9936867952346802,0.019543197005987167,0.07746583223342896,-0.07876197248697281
820.0,0.0,0.0,0.0,0.0,0.0,0.0,0.06639232486486435,-0.11183668673038483,0.006704797502607107,0.9936986565589905,0.020775258541107178,0.0608624666929245,-0.09178873151540756
821.0,0.0,0.0,0.0,0.0,0.0,0.0,0.06277508288621902,0.04073040559887886,0.054454050958156586,0.9923877716064453,0.013645363971590996,0.03953315317630768,-0.1158294528722763
822.0,0.0,0.0,0.0,0.0,0.0,0.0,-0.034890446811914444,0.05749524384737015,0.06781480461359024,0.9901126027107239,0.005386549048125744,0.02996387518942356,-0.13692215085029602
823.0,0.0,0.0,0.0,0.0,0.0,0.0,-0.03421929478645325,0.07237783819437027,0.0397917740046978,0.9882331490516663,0.00043965366785414517,0.021458933129906654,-0.1514374017715454
824.0,0.0,0.0,0.0,0.0,0.0,0.0,-0.07359585165977478,0.04310385510325432,0.039808228611946106,0.9867026805877686,-0.004565035924315453,0.015383649617433548,-0.16173915565013885
825.0,0.0,0.0,0.0,0.0,0.0,0.0,-0.07835467159748077,0.029890062287449837,0.05041394755244255,0.986138641834259,-0.005497797392308712,0.010608771815896034,-0.16548340022563934
826.0,0.0,0.0,0.0,0.0,0.0,0.0,-0.05448199436068535,0.03605968877673149,0.050774987787008286,0.986008882522583,-0.0026036568451672792,0.006129016634076834,-0.16654515266418457
827.0,0.0,0.0,0.0,0.0,0.0,0.0,-0.01787983998656273,-0.010222330689430237,0.04650014638900757,0.9857197403907776,0.0019231655169278383,0.0027996960561722517,-0.16835352778434753
828.0,0.0,0.0,0.0,0.0,0.0,0.0,0.020962052047252655,-0.020651081576943398,0.0022006258368492126,0.9855270981788635,0.007957876659929752,0.0016612171893939376,-0.16931399703025818
829.0,0.0,0.0,0.0,0.0,0.0,0.0,0.045686036348342896,-0.01521524041891098,-0.03450539708137512,0.9854451417922974,0.012785465456545353,0.002228244673460722,-0.16948814690113068
830.0,0.0,0.0,0.0,0.0,0.0,0.0,0.03803402930498123,0.014603635296225548,-0.015776507556438446,0.9853248596191406,0.016081618145108223,0.006582984235137701,-0.16980093717575073
831.0,0.0,0.0,0.0,0.0,0.0,0.0,0.02394719421863556,-0.006803449708968401,0.021684803068637848,0.9850655794143677,0.018293576315045357,0.011461112648248672,-0.17081902921199799
832.0,0.0,0.0,0.0,0.0,0.0,0.0,0.10431335866451263,0.004026344977319241,-0.06392895430326462,0.9849367737770081,0.021102793514728546,0.012210603803396225,-0.17117995023727417
833.0,0.0,0.0,0.0,0.0,0.0,0.0,0.04213428124785423,0.013709901832044125,-0.026945529505610466,0.9848619699478149,0.02199457958340645,0.014111817814409733,-0.1713547706604004
834.0,0.0,0.0,0.0,0.0,0.0,0.0,0.047995299100875854,0.008726981468498707,-0.023882586508989334,0.9848836064338684,0.020906521007418633,0.016459044069051743,-0.17115701735019684
835.0,0.0,0.0,0.0,0.0,0.0,0.0,0.02891676500439644,0.026107093319296837,0.002903487766161561,0.9851977229118347,0.018492726609110832,0.020677974447607994,-0.16916294395923615
836.0,0.0,0.0,0.0,0.0,0.0,0.0,0.014582930132746696,0.021443204954266548,0.046763163059949875,0.9856280088424683,0.018084460869431496,0.02340235933661461,-0.16631843149662018
837.0,0.0,0.0,0.0,0.0,0.0,0.0,0.018377721309661865,0.025741904973983765,0.002499946625903249,0.9861477017402649,0.019022192806005478,0.023816149681806564,-0.16304928064346313
838.0,0.0,0.0,0.0,0.0,0.0,0.0,0.02671617642045021,0.01460943277925253,-0.0040640016086399555,0.9868894815444946,0.020229047164320946,0.023621931672096252,-0.15837712585926056
839.0,0.0,0.0,0.0,0.0,0.0,0.0,0.03603378310799599,0.011995812878012657,-0.009491326287388802,0.9877671599388123,0.021327726542949677,0.025516189634799957,-0.15234629809856415
840.0,0.0,0.0,0.0,0.0,0.0,0.0,0.05400020629167557,0.0015600415645167232,-0.023090697824954987,0.9885748624801636,0.022527119144797325,0.029037514701485634,-0.14617450535297394
841.0,0.0,0.0,0.0,0.0,0.0,0.0,0.06524492055177689,-0.009047686122357845,-0.03154909983277321,0.9892575144767761,0.023555338382720947,0.03479451686143875,-0.14000116288661957
842.0,0.0,0.0,0.0,0.0,0.0,0.0,0.06942074745893478,-0.039975374937057495,-0.014295048080384731,0.9896126389503479,0.021678920835256577,0.04159069433808327,-0.13588665425777435
843.0,0.0,0.0,0.0,0.0,0.0,0.0,0.06330554187297821,-0.03318921849131584,-0.0397757813334465,0.9901678562164307,0.013570154085755348,0.04916083812713623,-0.13025027513504028
844.0,0.0,0.0,0.0,0.0,0.0,0.0,0.0322689451277256,-0.00901099480688572,-0.03889897093176842,0.990720272064209,0.0030010328628122807,0.05713014677166939,-0.1232886090874672
845.0,0.0,0.0,0.0,0.0,0.0,0.0,-0.009454223327338696,0.008594687096774578,-0.006360325496643782,0.9913749098777771,-0.004987217485904694,0.06274144351482391,-0.1149432510137558
