,Position_X,Position_Y,Position_Z,Velocity_X,Velocity_Y,Velocity_Z,Acceleration_X,Acceleration_Y,Acceleration_Z,Quaterion_0,Quaterion_1,Quaterion_2,Quaterion_3
166.0,0.0,0.0,0.0,0.0,0.0,0.0,-0.01352577656507492,-0.01883310079574585,-0.015477366745471954,1.0,-8.673617379884035e-19,2.677979366039196e-17,-2.7755575615628914e-17
167.0,0.0,0.0,0.0,0.0,0.0,0.0,0.002859171712771058,-0.0524878203868866,-0.06622191518545151,0.9999832510948181,-0.005268558859825134,0.002376505872234702,0.0003560656332410872
168.0,0.0,0.0,0.0,0.0,0.0,0.0,0.08457648754119873,-0.013985642232000828,-0.055927179753780365,0.9999733567237854,-0.0067432052455842495,0.00036128528881818056,0.002769187558442354
169.0,0.0,0.0,0.0,0.0,0.0,0.0,0.011646807193756104,-0.03132491931319237,-0.05205458775162697,0.9999496340751648,-0.009859065525233746,0.000624482985585928,0.001764399465173483
170.0,0.0,0.0,0.0,0.0,0.0,0.0,-0.021517695859074593,0.02643684484064579,0.02847990207374096,0.9999406933784485,-0.01077135931700468,0.0009730341262184083,0.0012658881023526192
171.0,0.0,0.0,0.0,0.0,0.0,0.0,-0.04199846461415291,0.01565166562795639,0.02901330031454563,0.9999347925186157,-0.011269879527390003,0.0016472786664962769,0.0008570741047151387
172.0,0.0,0.0,0.0,0.0,0.0,0.0,-0.02055888995528221,-0.002482856623828411,0.0010516843758523464,0.9999155402183533,-0.012706522829830647,0.002627575770020485,0.0006976275471970439
173.0,0.0,0.0,0.0,0.0,0.0,0.0,0.017980409786105156,-0.004059258382767439,-0.0006487964419648051,0.9999184012413025,-0.012440240010619164,0.002309877425432205,0.0017521342961117625
174.0,0.0,0.0,0.0,0.0,0.0,0.0,0.012729532085359097,0.009197790175676346,0.012775598093867302,0.9999374747276306,-0.010749374516308308,0.0017044306732714176,0.002571132965385914
175.0,0.0,0.0,0.0,0.0,0.0,0.0,0.015615114010870457,0.009124568663537502,0.005640593357384205,0.9999536275863647,-0.008903245441615582,0.0013146571582183242,0.0034298181999474764
176.0,0.0,0.0,0.0,0.0,0.0,0.0,0.02128586359322071,0.007614096160978079,-0.002353671006858349,0.9999704957008362,-0.006357171107083559,0.0007279295241460204,0.0042564584873616695
177.0,0.0,0.0,0.0,0.0,0.0,0.0,0.008541220799088478,0.0011366771068423986,-0.009802963584661484,0.999984860420227,-0.0034068413078784943,0.0008163639577105641,0.004238271154463291
178.0,0.0,0.0,0.0,0.0,0.0,0.0,-0.011052987538278103,-0.013429415412247181,-0.020997637882828712,0.9999893307685852,-0.0028242110274732113,0.002090975409373641,0.0029926986899226904
179.0,0.0,0.0,0.0,0.0,0.0,0.0,-0.006662397645413876,-0.037964217364788055,-0.05075164884328842,0.9999691843986511,-0.006257280707359314,0.003989984281361103,0.002559339627623558
180.0,0.0,0.0,0.0,0.0,0.0,0.0,0.050497863441705704,-0.006640601437538862,-0.020568983629345894,0.9999615550041199,-0.00727775739505887,0.0027712713927030563,0.00402675848454237
181.0,0.0,0.0,0.0,0.0,0.0,0.0,0.014382360503077507,-0.011713886633515358,-0.018262147903442383,0.9999622106552124,-0.007451540790498257,0.0014360243221744895,0.004236363340169191
182.0,0.0,0.0,0.0,0.0,0.0,0.0,-0.011990644969046116,0.009749713353812695,0.011572259478271008,0.9999547004699707,-0.008635194972157478,0.0003148626128677279,0.0039985571056604385
183.0,0.0,0.0,0.0,0.0,0.0,0.0,-0.010007222183048725,0.01672418788075447,0.026138637214899063,0.9999476671218872,-0.009271431714296341,-0.0011069151805713773,0.00417329091578722
184.0,0.0,0.0,0.0,0.0,0.0,0.0,-0.008091142401099205,0.016698921099305153,0.025185786187648773,0.9999366402626038,-0.010285843163728714,-0.002122069476172328,0.004047014284878969
185.0,0.0,0.0,0.0,0.0,0.0,0.0,-0.0033696889877319336,0.017988087609410286,0.022949447855353355,0.9999226927757263,-0.011345012113451958,-0.0031720823608338833,0.003977353218942881
186.0,0.0,0.0,0.0,0.0,0.0,0.0,-0.0021054029930382967,0.008588491007685661,0.016285276040434837,0.999909520149231,-0.012211859226226807,-0.004163800273090601,0.0038057202473282814
187.0,0.0,0.0,0.0,0.0,0.0,0.0,-0.012501036748290062,0.004971761256456375,0.009319488890469074,0.9999043941497803,-0.012564255855977535,-0.004535169806331396,0.003579874522984028
188.0,0.0,0.0,0.0,0.0,0.0,0.0,-0.01103748194873333,0.004002252593636513,0.005882551893591881,0.9998976588249207,-0.012919086962938309,-0.004803866147994995,0.00383037980645895
189.0,0.0,0.0,0.0,0.0,0.0,0.0,-0.004507221281528473,0.003177320584654808,0.0028345210012048483,0.9998903870582581,-0.013450304046273232,-0.004717598669230938,0.004000802990049124
190.0,0.0,0.0,0.0,0.0,0.0,0.0,0.0011704841163009405,0.0010290094651281834,-0.004495285451412201,0.9998853802680969,-0.014007770456373692,-0.004365186672657728,0.003735576057806611
191.0,0.0,0.0,0.0,0.0,0.0,0.0,-0.00011773772712331265,-0.002146839164197445,-0.01008602511137724,0.9998849630355835,-0.013781693764030933,-0.004649098962545395,0.004296774975955486
192.0,0.0,0.0,0.0,0.0,0.0,0.0,0.0019025650108233094,-0.0029121737461537123,-0.006975366733968258,0.999882161617279,-0.013831546530127525,-0.004752212669700384,0.0046642739325761795
193.0,0.0,0.0,0.0,0.0,0.0,0.0,0.002897957107052207,0.0013518307823687792,-0.0010951835429295897,0.999881386756897,-0.013955858536064625,-0.004693996161222458,0.0045220754109323025
194.0,0.0,0.0,0.0,0.0,0.0,0.0,0.0028635989874601364,0.000828994030598551,-0.0011039627715945244,0.9998805522918701,-0.013594701886177063,-0.0049192532896995544,0.005465684458613396
195.0,0.0,0.0,0.0,0.0,0.0,0.0,0.005625259596854448,0.00154529616702348,-0.002484773751348257,0.9998814463615417,-0.01341238897293806,-0.004694668110460043,0.005934522487223148
196.0,0.0,0.0,0.0,0.0,0.0,0.0,0.00961211510002613,-0.0011657573049888015,-0.006024215370416641,0.9998800158500671,-0.013522135093808174,-0.004513407591730356,0.006054240744560957
197.0,0.0,0.0,0.0,0.0,0.0,0.0,0.013515188358724117,-0.0034017262514680624,-0.009189113043248653,0.9998738765716553,-0.013717996887862682,-0.004225286655128002,0.006799471098929644
198.0,0.0,0.0,0.0,0.0,0.0,0.0,0.011345425620675087,-0.003494876204058528,-0.0058369506150484085,0.9998735785484314,-0.013766211457550526,-0.00394437788054347,0.006911917589604855
199.0,0.0,0.0,0.0,0.0,0.0,0.0,0.0016165884444490075,-0.006854523438960314,-0.0045541138388216496,0.9998818039894104,-0.013548820279538631,-0.003363418858498335,0.006441841367632151
200.0,0.0,0.0,0.0,0.0,0.0,0.0,-0.0002425231214147061,-0.00827171839773655,-0.004416202660650015,0.9998841881752014,-0.013640712015330791,-0.0028597693890333176,0.0061171515844762325
201.0,0.0,0.0,0.0,0.0,0.0,0.0,-0.0026302728801965714,-0.0003092567203566432,0.005911609623581171,0.9998934268951416,-0.012988429516553879,-0.002218445995822549,0.0062842173501849174
202.0,0.0,0.0,0.0,0.0,0.0,0.0,-0.018867049366235733,-0.03619787096977234,-0.013144182041287422,0.9998795986175537,-0.014640946872532368,-0.0003883989411406219,0.005122053436934948
203.0,0.0,0.0,0.0,0.0,0.0,0.0,0.024828683584928513,-0.006327964831143618,-0.010501883924007416,0.9997655749320984,-0.020893048495054245,0.0009452826925553381,0.00560413533821702
204.0,0.0,0.0,0.0,0.0,0.0,0.0,0.07178501039743423,-0.016754917800426483,-0.010343135334551334,0.9997895359992981,-0.01950535923242569,-0.0005558249540627003,0.006337933242321014
205.0,0.0,0.0,0.0,0.0,0.0,0.0,-0.02071802318096161,-0.023635299876332283,-0.015357781201601028,0.9997529983520508,-0.021867772564291954,0.0007156287902034819,0.003906705416738987
206.0,0.0,0.0,0.0,0.0,0.0,0.0,-0.00473401602357626,0.018357250839471817,0.03870265558362007,0.9997830986976624,-0.020510703325271606,0.00018961970636155456,0.0035984201822429895
207.0,0.0,0.0,0.0,0.0,0.0,0.0,-0.031004954129457474,-0.00118646293412894,0.023750871419906616,0.9998146891593933,-0.019088340923190117,0.00021411386842373759,0.0024710516445338726
208.0,0.0,0.0,0.0,0.0,0.0,0.0,-0.004866491537541151,0.013825064525008202,0.028340144082903862,0.99984210729599,-0.017626391723752022,0.000254599581239745,0.002222395036369562
209.0,0.0,0.0,0.0,0.0,0.0,0.0,0.026087557896971703,0.02418331429362297,0.02795412763953209,0.9998939037322998,-0.014262180775403976,-0.0005768092232756317,0.0029023142997175455
210.0,0.0,0.0,0.0,0.0,0.0,0.0,0.018116498365998268,0.024768054485321045,0.0167939905077219,0.9999374151229858,-0.010592946782708168,-0.0008087552268989384,0.0035045710392296314
211.0,0.0,0.0,0.0,0.0,0.0,0.0,0.01349136233329773,0.004138495307415724,-0.012409290298819542,0.9999570846557617,-0.008837318979203701,0.0006100653554312885,0.002711887937039137
212.0,0.0,0.0,0.0,0.0,0.0,0.0,0.022691072896122932,-0.020558485761284828,-0.03427449241280556,0.9999430775642395,-0.010249430313706398,0.002174914348870516,0.0020170179195702076
213.0,0.0,0.0,0.0,0.0,0.0,0.0,0.051852673292160034,-0.009725913405418396,-0.022688910365104675,0.9999433755874634,-0.010072599165141582,0.0017809493001550436,0.002941169310361147
214.0,0.0,0.0,0.0,0.0,0.0,0.0,0.03467334806919098,-0.012436997145414352,-0.028370369225740433,0.9999420642852783,-0.010194229893386364,0.0009319029049947858,0.0033275855239480734
215.0,0.0,0.0,0.0,0.0,0.0,0.0,0.025096235796809196,0.002297378843650222,-0.009179499931633472,0.9999362230300903,-0.010671400465071201,-0.000543749425560236,0.0036587389186024666
216.0,0.0,0.0,0.0,0.0,0.0,0.0,0.01272162701934576,0.0012911324156448245,0.001655830885283649,0.9999309778213501,-0.010897532105445862,-0.002205280587077141,0.0037927646189928055
217.0,0.0,0.0,0.0,0.0,0.0,0.0,-0.004325781017541885,-0.00013695322559215128,0.0018764097476378083,0.9999186396598816,-0.011697812005877495,-0.003544979728758335,0.0036455653607845306
218.0,0.0,0.0,0.0,0.0,0.0,0.0,-0.007025003433227539,1.5650444140646869e-07,-0.0001129985466832295,0.9998990297317505,-0.013006414286792278,-0.0046300883404910564,0.00336812948808074
219.0,0.0,0.0,0.0,0.0,0.0,0.0,-0.005642523989081383,-0.002154063666239381,-0.005609105806797743,0.9998663067817688,-0.015346257947385311,-0.0052294679917395115,0.002114284783601761
220.0,0.0,0.0,0.0,0.0,0.0,0.0,-0.0032602681312710047,-0.0036917333491146564,-0.008867867290973663,0.9998296499252319,-0.017532043159008026,-0.005733223166316748,0.0006812347564846277
221.0,0.0,0.0,0.0,0.0,0.0,0.0,-0.0028089291881769896,0.0010811229003593326,-0.0007808053051121533,0.9997979998588562,-0.019019806757569313,-0.006487858481705189,0.00023248921206686646
222.0,0.0,0.0,0.0,0.0,0.0,0.0,-0.0034263546112924814,0.010421179234981537,0.012395374476909637,0.9997745752334595,-0.020044801756739616,-0.007003339938819408,-9.835947275860235e-05
223.0,0.0,0.0,0.0,0.0,0.0,0.0,-0.0009610835113562644,0.007467181421816349,0.008920335210859776,0.9997532367706299,-0.021084900945425034,-0.006957279052585363,-0.0007151413592509925
224.0,0.0,0.0,0.0,0.0,0.0,0.0,0.009557207114994526,0.001387997530400753,-0.0004292737867217511,0.9997307658195496,-0.02209094911813736,-0.00704682432115078,-0.0008500125841237605
225.0,0.0,0.0,0.0,0.0,0.0,0.0,0.014884122647345066,-0.0033336880151182413,-0.0028783222660422325,0.9997141361236572,-0.02268429845571518,-0.0075530679896473885,-0.0003073924744967371
226.0,0.0,0.0,0.0,0.0,0.0,0.0,0.0005745721864514053,-0.007109260652214289,-0.005128167569637299,0.9997044205665588,-0.02288931794464588,-0.008192986249923706,-0.00029679780709557235
227.0,0.0,0.0,0.0,0.0,0.0,0.0,-0.0077836946584284306,-0.002259156433865428,0.0027328655123710632,0.99969083070755,-0.0233797337859869,-0.00844254344701767,-0.000575502694118768
228.0,0.0,0.0,0.0,0.0,0.0,0.0,-0.006886378861963749,-0.0013846856309100986,0.009191456250846386,0.9996924996376038,-0.023390905931591988,-0.00821851845830679,-0.0004115257179364562
229.0,0.0,0.0,0.0,0.0,0.0,0.0,-0.0031650958117097616,-0.003989925142377615,0.007041490636765957,0.9996998906135559,-0.023122861981391907,-0.008075760677456856,-0.0004225179145578295
230.0,0.0,0.0,0.0,0.0,0.0,0.0,-0.0017472765175625682,-0.007590536493808031,0.001920506707392633,0.9997000694274902,-0.02318524569272995,-0.007880501449108124,-0.0004358197038527578
231.0,0.0,0.0,0.0,0.0,0.0,0.0,-0.0005577525007538497,-0.010040565393865108,0.006141980178654194,0.999713659286499,-0.022513920441269875,-0.008103789761662483,0.00024213717551901937
232.0,0.0,0.0,0.0,0.0,0.0,0.0,-0.003929816652089357,-0.0016612461768090725,0.02015605941414833,0.9997402429580688,-0.02125363238155842,-0.008134501986205578,0.001240746583789587
233.0,0.0,0.0,0.0,0.0,0.0,0.0,-0.012513510882854462,0.013468651100993156,0.041553836315870285,0.9997797012329102,-0.019358810037374496,-0.0077883582562208176,0.002265613991767168
234.0,0.0,0.0,0.0,0.0,0.0,0.0,-0.013595023192465305,0.01130141131579876,0.04014557600021362,0.9998250007629395,-0.017387669533491135,-0.006090247537940741,0.003240787424147129
235.0,0.0,0.0,0.0,0.0,0.0,0.0,-0.031222864985466003,-0.07098415493965149,-0.03942299261689186,0.9997562170028687,-0.02177806757390499,-0.002349122194573283,0.002777171554043889
236.0,0.0,0.0,0.0,0.0,0.0,0.0,0.09716802835464478,-0.01587715372443199,-0.0373651497066021,0.9996680021286011,-0.025034425780177116,-0.003381264628842473,0.005067675374448299
237.0,0.0,0.0,0.0,0.0,0.0,0.0,0.03351143002510071,-0.04927954822778702,-0.04411541298031807,0.9996376633644104,-0.02645242214202881,-0.0036170247476547956,0.003419287968426943
238.0,0.0,0.0,0.0,0.0,0.0,0.0,-0.006847059819847345,0.01109418272972107,0.010995568707585335,0.9996605515480042,-0.025642136111855507,-0.0038637579418718815,0.002522836672142148
239.0,0.0,0.0,0.0,0.0,0.0,0.0,-0.023405417799949646,-0.005766306538134813,0.004631095565855503,0.9996744990348816,-0.025015395134687424,-0.004478094168007374,0.002264698501676321
240.0,0.0,0.0,0.0,0.0,0.0,0.0,-0.02031680941581726,-0.011475981213152409,-0.009514633566141129,0.9996454119682312,-0.02621818147599697,-0.004440749529749155,0.0013745557516813278
241.0,0.0,0.0,0.0,0.0,0.0,0.0,0.010845811106264591,0.0003483082400634885,-0.0005877717630937696,0.9996539354324341,-0.025577953085303307,-0.005964275449514389,0.001494548050686717
242.0,0.0,0.0,0.0,0.0,0.0,0.0,-0.005462924484163523,0.0072263204492628574,0.005263503175228834,0.9996711611747742,-0.02463359758257866,-0.007040855009108782,0.001088630990125239
243.0,0.0,0.0,0.0,0.0,0.0,0.0,-0.008080283179879189,0.003577792551368475,-0.008814262226223946,0.9996961951255798,-0.023402251303195953,-0.007702367380261421,0.0006404999294318259
244.0,0.0,0.0,0.0,0.0,0.0,0.0,-0.008985022082924843,-0.001005049329251051,-0.010714809410274029,0.9997209310531616,-0.022308750078082085,-0.0077562532387673855,0.00037353712832555175
245.0,0.0,0.0,0.0,0.0,0.0,0.0,-0.009675868786871433,-0.00465278048068285,-0.013531063683331013,0.999739944934845,-0.021522071212530136,-0.007536139339208603,-0.00020864004909526557
246.0,0.0,0.0,0.0,0.0,0.0,0.0,-0.00618867389857769,-0.008604598231613636,-0.01805681549012661,0.9997538328170776,-0.02092330902814865,-0.007341029122471809,-0.0007495778845623136
247.0,0.0,0.0,0.0,0.0,0.0,0.0,-0.00099703308660537,-0.009993678890168667,-0.017876431345939636,0.9997622966766357,-0.02064642682671547,-0.0068969568237662315,-0.00124077417422086
248.0,0.0,0.0,0.0,0.0,0.0,0.0,0.0010352896060794592,-0.007814045064151287,-0.013100285083055496,0.999774694442749,-0.020083092153072357,-0.006493819411844015,-0.002215759130194783
249.0,0.0,0.0,0.0,0.0,0.0,0.0,0.008422672748565674,-0.00581766664981842,-0.0076567502692341805,0.9997933506965637,-0.019010081887245178,-0.006711140740662813,-0.0026228029746562243
250.0,0.0,0.0,0.0,0.0,0.0,0.0,0.014007646590471268,-0.0036577342543751,-0.010574034415185452,0.9998088479042053,-0.017862027511000633,-0.007487747352570295,-0.00267415982671082
251.0,0.0,0.0,0.0,0.0,0.0,0.0,0.00797839742153883,-0.0010302619775757194,-0.009145594201982021,0.9998123645782471,-0.017402103170752525,-0.007929963991045952,-0.003090017708018422
252.0,0.0,0.0,0.0,0.0,0.0,0.0,0.05809533968567848,0.008149653673171997,0.10628434270620346,0.9997937679290771,-0.017783652991056442,-0.0094834603369236,-0.0025043056812137365
253.0,0.0,0.0,0.0,0.0,0.0,0.0,0.021248172968626022,-0.000549134099856019,-0.004022389650344849,0.9997720718383789,-0.018148167058825493,-0.010936314240098,-0.0026080089155584574
254.0,0.0,0.0,0.0,0.0,0.0,0.0,0.01631387509405613,-0.000439685391029343,0.0034061376936733723,0.9997432827949524,-0.018682096153497696,-0.012535869143903255,-0.0026679954025894403
255.0,0.0,0.0,0.0,0.0,0.0,0.0,0.013809122145175934,0.0034232670441269875,0.006921934895217419,0.9997144937515259,-0.019314110279083252,-0.013823372311890125,-0.002598282415419817
256.0,0.0,0.0,0.0,0.0,0.0,0.0,0.018862178549170494,0.00020416821644175798,-0.005439071916043758,0.9996531009674072,-0.021033719182014465,-0.015506863594055176,-0.003295652801170945
257.0,0.0,0.0,0.0,0.0,0.0,0.0,0.018273387104272842,-0.0010759111028164625,-0.011027500033378601,0.9995672702789307,-0.02303222380578518,-0.017828969284892082,-0.004106330685317516
258.0,0.0,0.0,0.0,0.0,0.0,0.0,0.007564669940620661,0.00693896459415555,0.0003816362004727125,0.9994659423828125,-0.024932263419032097,-0.020580440759658813,-0.004762553609907627
259.0,0.0,0.0,0.0,0.0,0.0,0.0,-0.008401170372962952,0.018769729882478714,0.018802039325237274,0.9993684887886047,-0.026315610855817795,-0.02322312630712986,-0.005553910043090582
260.0,0.0,0.0,0.0,0.0,0.0,0.0,-0.01573745533823967,0.019519507884979248,0.028652247041463852,0.9992996454238892,-0.027242597192525864,-0.02474970370531082,-0.006747361272573471
261.0,0.0,0.0,0.0,0.0,0.0,0.0,-0.013081804849207401,0.009708047844469547,0.018224075436592102,0.9992536306381226,-0.028014834970235825,-0.025437483564019203,-0.007765368092805147
262.0,0.0,0.0,0.0,0.0,0.0,0.0,-0.004891817457973957,-0.001617103349417448,0.002455604262650013,0.9992145895957947,-0.028841949999332428,-0.026032842695713043,-0.007786672096699476
263.0,0.0,0.0,0.0,0.0,0.0,0.0,0.0016573723405599594,-0.005572434514760971,-0.007066687103360891,0.9991743564605713,-0.029472948983311653,-0.026788823306560516,-0.008014172315597534
264.0,0.0,0.0,0.0,0.0,0.0,0.0,0.0031401491723954678,-0.00910110305994749,-0.014159356243908405,0.9991382360458374,-0.029941575601696968,-0.027587737888097763,-0.008068183436989784
265.0,0.0,0.0,0.0,0.0,0.0,0.0,0.008526420220732689,-0.00970449484884739,-0.017583228647708893,0.9990860223770142,-0.030804572626948357,-0.028418106958270073,-0.00839554239064455
266.0,0.0,0.0,0.0,0.0,0.0,0.0,0.011440460570156574,-0.008789800107479095,-0.02033161371946335,0.9990097284317017,-0.03201596066355705,-0.029663847759366035,-0.008634855970740318
267.0,0.0,0.0,0.0,0.0,0.0,0.0,0.009213365614414215,-0.006203886587172747,-0.018005602061748505,0.9989227056503296,-0.03310881555080414,-0.031256649643182755,-0.008955021388828754
268.0,0.0,0.0,0.0,0.0,0.0,0.0,0.0019463954959064722,-0.0014031622558832169,-0.007808321621268988,0.9988371133804321,-0.03379002586007118,-0.03309996798634529,-0.0093205776065588
269.0,0.0,0.0,0.0,0.0,0.0,0.0,-0.0017549388576298952,0.00523363845422864,-0.0027159596793353558,0.9987514019012451,-0.03473007306456566,-0.03464727848768234,-0.009434248320758343
270.0,0.0,0.0,0.0,0.0,0.0,0.0,-0.0017696842551231384,0.014810037799179554,0.013322494924068451,0.998704195022583,-0.03472049906849861,-0.03608783707022667,-0.009046953171491623
271.0,0.0,0.0,0.0,0.0,0.0,0.0,-0.005295288283377886,0.0219098050147295,0.02713719569146633,0.9987208247184753,-0.03374724090099335,-0.036837510764598846,-0.007796855643391609
272.0,0.0,0.0,0.0,0.0,0.0,0.0,-0.0039151315577328205,0.01423688791692257,0.020080653950572014,0.9987550377845764,-0.033031631261110306,-0.03673843294382095,-0.0068881455808877945
273.0,0.0,0.0,0.0,0.0,0.0,0.0,0.007075789850205183,0.0008371964213438332,0.004876543302088976,0.9988341927528381,-0.03309214487671852,-0.034557044506073,-0.006391375791281462
274.0,0.0,0.0,0.0,0.0,0.0,0.0,0.007165323011577129,0.0008846003329381347,0.0024494852405041456,0.9988406896591187,-0.03293817117810249,-0.034576114267110825,-0.0060589127242565155
275.0,0.0,0.0,0.0,0.0,0.0,0.0,0.0049540335312485695,0.009244471788406372,0.012533063068985939,0.9988745450973511,-0.03252625837922096,-0.03408067673444748,-0.005496586207300425
276.0,0.0,0.0,0.0,0.0,0.0,0.0,0.013549637980759144,0.0013013180578127503,0.013437951914966106,0.9989327192306519,-0.03139158710837364,-0.03350541368126869,-0.0050256624817848206
277.0,0.0,0.0,0.0,0.0,0.0,0.0,0.02632020227611065,-0.01245674304664135,-0.0034998569171875715,0.998945951461792,-0.031535398215055466,-0.03306480497121811,-0.004385608248412609
278.0,0.0,0.0,0.0,0.0,0.0,0.0,0.02009022794663906,-0.0094789182767272,-0.008939017541706562,0.9989458322525024,-0.031739603728055954,-0.0329192653298378,-0.00400433037430048
279.0,0.0,0.0,0.0,0.0,0.0,0.0,0.0098021375015378,-0.0004021629283670336,-0.000116360119136516,0.9989448189735413,-0.0314592607319355,-0.03322311118245125,-0.003952275030314922
280.0,0.0,0.0,0.0,0.0,0.0,0.0,0.005980364978313446,0.002935620490461588,0.00928425695747137,0.9989628195762634,-0.03108312375843525,-0.03304825723171234,-0.003851294983178377
281.0,0.0,0.0,0.0,0.0,0.0,0.0,0.003285619430243969,0.004054711665958166,0.009708045050501823,0.9989947080612183,-0.030876515433192253,-0.0322670042514801,-0.0038651854265481234
282.0,0.0,0.0,0.0,0.0,0.0,0.0,-0.0002638361183926463,0.0017139716073870659,0.005713464692234993,0.9990231394767761,-0.030744310468435287,-0.031536322087049484,-0.0036129378713667393
283.0,0.0,0.0,0.0,0.0,0.0,0.0,-0.0034569764975458384,-4.3424442992545664e-05,0.005093490704894066,0.9990832209587097,-0.03008635714650154,-0.030289625748991966,-0.003154255449771881
284.0,0.0,0.0,0.0,0.0,0.0,0.0,-0.00300855771638453,-0.004010129254311323,0.00043441605521366,0.9991472959518433,-0.029689112678170204,-0.028514264151453972,-0.0031980343628674746
285.0,0.0,0.0,0.0,0.0,0.0,0.0,0.003862896701321006,-0.005703485570847988,-0.0021890418138355017,0.9992191791534424,-0.02897472493350506,-0.02672400511801243,-0.0027008920442312956
286.0,0.0,0.0,0.0,0.0,0.0,0.0,0.007998083718121052,-0.007463025860488415,-0.0085308151319623,0.9992799758911133,-0.027952592819929123,-0.025595158338546753,-0.0016867956146597862
287.0,0.0,0.0,0.0,0.0,0.0,0.0,0.009739147499203682,-0.00348237925209105,-0.00689694844186306,0.9993286728858948,-0.027256207540631294,-0.024456031620502472,-0.001106206444092095
288.0,0.0,0.0,0.0,0.0,0.0,0.0,0.01068958267569542,-0.0029393192380666733,0.0005152164376340806,0.9993932843208313,-0.02620592527091503,-0.022933848202228546,-0.0005687106749974191
289.0,0.0,0.0,0.0,0.0,0.0,0.0,0.009210726246237755,-0.0034658280201256275,0.0023511010222136974,0.9994618892669678,-0.024988388642668724,-0.021244456991553307,0.0001732340024318546
290.0,0.0,0.0,0.0,0.0,0.0,0.0,0.01567177288234234,-0.007274021860212088,-0.008303593844175339,0.9995146989822388,-0.024384723976254463,-0.01936103031039238,0.0008901268593035638
291.0,0.0,0.0,0.0,0.0,0.0,0.0,0.023704124614596367,-0.009702092967927456,-0.01294752024114132,0.9995593428611755,-0.023767836391925812,-0.017702845856547356,0.0016776112606748939
292.0,0.0,0.0,0.0,0.0,0.0,0.0,0.014788676053285599,-0.00847729854285717,-0.006289639510214329,0.9996137619018555,-0.022651545703411102,-0.015906652435660362,0.0024634560104459524
293.0,0.0,0.0,0.0,0.0,0.0,0.0,0.011261644773185253,-0.008225437253713608,-0.0042635113932192326,0.9996628761291504,-0.021631572395563126,-0.01397052314132452,0.0033050323836505413
294.0,0.0,0.0,0.0,0.0,0.0,0.0,0.005022610537707806,-0.00967954657971859,-0.0007713256636634469,0.9997091889381409,-0.020237255841493607,-0.012234353460371494,0.004714980721473694
295.0,0.0,0.0,0.0,0.0,0.0,0.0,0.0003579038311727345,-0.006248012650758028,0.0026588542386889458,0.9997561573982239,-0.018799150362610817,-0.010045183822512627,0.00576461898162961
296.0,0.0,0.0,0.0,0.0,0.0,0.0,-0.0019359495490789413,0.004563838243484497,0.015310651622712612,0.999809205532074,-0.016766348853707314,-0.007488141767680645,0.00664887111634016
297.0,0.0,0.0,0.0,0.0,0.0,0.0,-0.0034066317602992058,0.009899101220071316,0.018515324220061302,0.9998610019683838,-0.014317385852336884,-0.0038635521195828915,0.00761797558516264
298.0,0.0,0.0,0.0,0.0,0.0,0.0,0.00813682284206152,-0.0010634982027113438,0.005543147213757038,0.9999001026153564,-0.011438694782555103,-0.00017862168897408992,0.008301413618028164
299.0,0.0,0.0,0.0,0.0,0.0,0.0,0.02169780805706978,-0.012130143120884895,-0.005092092789709568,0.9999167323112488,-0.008896897546947002,0.004050052724778652,0.008432995527982712
300.0,0.0,0.0,0.0,0.0,0.0,0.0,0.03618635982275009,-0.024264603853225708,-0.015841592103242874,0.9999178647994995,-0.006645411718636751,0.007378903217613697,0.008102044463157654
301.0,0.0,0.0,0.0,0.0,0.0,0.0,0.04165196046233177,-0.03694998845458031,-0.023656850680708885,0.9999088048934937,-0.004983759950846434,0.009476360864937305,0.00822841189801693
302.0,0.0,0.0,0.0,0.0,0.0,0.0,0.03781592845916748,-0.039109062403440475,-0.023032722994685173,0.9999037384986877,-0.003265412524342537,0.010781297460198402,0.008093451149761677
303.0,0.0,0.0,0.0,0.0,0.0,0.0,0.02424866333603859,-0.04301174357533455,-0.020091665908694267,0.9998995661735535,-0.0025470973923802376,0.011656257323920727,0.007663273252546787
304.0,0.0,0.0,0.0,0.0,0.0,0.0,0.005500204395502806,-0.03103271685540676,-0.007052031811326742,0.999906599521637,-0.0025062013883143663,0.011668981984257698,0.006660955958068371
305.0,0.0,0.0,0.0,0.0,0.0,0.0,-0.00679986085742712,-0.014865858480334282,0.008518082089722157,0.9999180436134338,-0.0023282216861844063,0.010891570709645748,0.006309892516583204
306.0,0.0,0.0,0.0,0.0,0.0,0.0,-0.01431130338460207,-0.003963715862482786,0.0187724269926548,0.9999297261238098,-0.0023772434797137976,0.010024058632552624,0.005883929319679737
307.0,0.0,0.0,0.0,0.0,0.0,0.0,-0.013581269420683384,-0.00046166917309165,0.01894075609743595,0.9999390840530396,-0.0030700028873980045,0.009282463230192661,0.00509581109508872
308.0,0.0,0.0,0.0,0.0,0.0,0.0,-0.009905094280838966,0.0003664094256237149,0.010780716314911842,0.9999511241912842,-0.003819436300545931,0.008064644411206245,0.004264818970113993
309.0,0.0,0.0,0.0,0.0,0.0,0.0,-0.012087174691259861,-0.0009371629566885531,0.005735789425671101,0.9999634027481079,-0.004475791472941637,0.006783976685255766,0.0026399167254567146
310.0,0.0,0.0,0.0,0.0,0.0,0.0,-0.013201587833464146,-0.005027829669415951,-0.0019750623032450676,0.9999660849571228,-0.005560358054935932,0.005983509123325348,0.0010999692603945732
311.0,0.0,0.0,0.0,0.0,0.0,0.0,-0.009220251813530922,-0.0030631134286522865,-0.006989517714828253,0.9999668598175049,-0.0066887629218399525,0.00462013715878129,0.000245750998146832
312.0,0.0,0.0,0.0,0.0,0.0,0.0,0.002971591893583536,-0.005399262998253107,0.0016975937178358436,0.9999697804450989,-0.0070720878429710865,0.0031977668404579163,0.00022648836602456868
313.0,0.0,0.0,0.0,0.0,0.0,0.0,0.012126768939197063,-0.011540506035089493,0.012048961594700813,0.9999743700027466,-0.00642002047970891,0.002560867927968502,0.0018955221166834235
314.0,0.0,0.0,0.0,0.0,0.0,0.0,-0.010645942762494087,0.0036348572466522455,-0.018171856179833412,0.9999784827232361,-0.004974568262696266,0.001977998996153474,0.0038001309148967266
315.0,0.0,0.0,0.0,0.0,0.0,0.0,-0.01359974592924118,0.011644154787063599,-0.029182326048612595,0.9999781250953674,-0.00416898587718606,0.0011668330989778042,0.0049943504855036736
316.0,0.0,0.0,0.0,0.0,0.0,0.0,0.0026070596650242805,0.007776523474603891,-0.019942766055464745,0.9999786019325256,-0.004159502685070038,3.09163769998122e-05,0.005047909915447235
317.0,0.0,0.0,0.0,0.0,0.0,0.0,-0.0038581572007387877,0.004603961482644081,-0.01957239955663681,0.9999743700027466,-0.004579388070851564,-0.0020654690451920033,0.005088436882942915
318.0,0.0,0.0,0.0,0.0,0.0,0.0,0.0027444567531347275,0.002156156115233898,-0.01909901760518551,0.9999613761901855,-0.004993259906768799,-0.0048860544338822365,0.005329438950866461
319.0,0.0,0.0,0.0,0.0,0.0,0.0,0.004943566862493753,0.004453431814908981,-0.01329878531396389,0.9999421238899231,-0.004984728060662746,-0.008061903528869152,0.005108530633151531
320.0,0.0,0.0,0.0,0.0,0.0,0.0,-0.003195868106558919,0.002435149159282446,-0.008129199035465717,0.9999135136604309,-0.005322338081896305,-0.011262253858149052,0.004229335114359856
321.0,0.0,0.0,0.0,0.0,0.0,0.0,-0.0010845324723049998,0.0012859008274972439,-0.006607195362448692,0.9998707175254822,-0.005778799299150705,-0.014703220687806606,0.003003443358466029
322.0,0.0,0.0,0.0,0.0,0.0,0.0,-0.005142119247466326,0.0033706279937177896,-0.0018199117621406913,0.9998084306716919,-0.006069780793040991,-0.01841898448765278,0.002651849528774619
323.0,0.0,0.0,0.0,0.0,0.0,0.0,-0.0033515163231641054,0.009281430393457413,0.007380119990557432,0.999725341796875,-0.005656920373439789,-0.02254297211766243,0.003005385398864746
324.0,0.0,0.0,0.0,0.0,0.0,0.0,0.00720898387953639,0.009063470177352428,0.008518168702721596,0.9996282458305359,-0.004606942180544138,-0.026620768010616302,0.0036470815539360046
325.0,0.0,0.0,0.0,0.0,0.0,0.0,0.007328303065150976,0.006612780038267374,0.0038253713864833117,0.9995260834693909,-0.003276597009971738,-0.03033166378736496,0.004089321009814739
326.0,0.0,0.0,0.0,0.0,0.0,0.0,0.00917380303144455,0.000526300398632884,-0.0018476388650014997,0.9994158744812012,-0.0015637656906619668,-0.03382916375994682,0.004570555407553911
327.0,0.0,0.0,0.0,0.0,0.0,0.0,0.002370143076404929,-0.005556196440011263,-0.0025152156595140696,0.9992572069168091,0.0007721141446381807,-0.03801703453063965,0.0062625715509057045
328.0,0.0,0.0,0.0,0.0,0.0,0.0,0.008352071978151798,0.0010952585143968463,-0.0027488821651786566,0.9990382194519043,0.0036574138794094324,-0.0427963025867939,0.00882417056709528
329.0,0.0,0.0,0.0,0.0,0.0,0.0,-0.0008605772745795548,-0.016843972727656364,-0.010291721671819687,0.9988011121749878,0.00594076095148921,-0.04744105041027069,0.010501233860850334
330.0,0.0,0.0,0.0,0.0,0.0,0.0,-0.05720364674925804,-0.08004580438137054,-0.03423267602920532,0.9986355304718018,0.0021928581409156322,-0.05041288584470749,0.01344467792659998
331.0,0.0,0.0,0.0,0.0,0.0,0.0,0.032744694501161575,-0.017194945365190506,-0.037627097219228745,0.9982512593269348,-0.004607929848134518,-0.05515258386731148,0.020771298557519913
332.0,0.0,0.0,0.0,0.0,0.0,0.0,0.07831607013940811,0.11003424227237701,-0.01982700824737549,0.9979134202003479,-0.0028623437974601984,-0.061358846724033356,0.019892198964953423
333.0,0.0,0.0,0.0,0.0,0.0,0.0,-0.028831347823143005,-0.04310471564531326,-0.0383138544857502,0.9977231621742249,-0.0009204359957948327,-0.06386609375476837,0.021651364862918854
334.0,0.0,0.0,0.0,0.0,0.0,0.0,-0.010846256278455257,-0.011684004217386246,0.028610754758119583,0.9974644780158997,-0.0048501864075660706,-0.06678465008735657,0.02410418912768364
335.0,0.0,0.0,0.0,0.0,0.0,0.0,-0.0322689563035965,0.11187396198511124,0.0552600659430027,0.9973289966583252,-0.007581409998238087,-0.06833664327859879,0.024643301963806152
336.0,0.0,0.0,0.0,0.0,0.0,0.0,-0.009006158448755741,0.04927881062030792,0.02323816902935505,0.9972516894340515,-0.009836823679506779,-0.06873273104429245,0.02584279328584671
337.0,0.0,0.0,0.0,0.0,0.0,0.0,-0.009447271004319191,0.03612972050905228,0.024318572133779526,0.9972557425498962,-0.01205984503030777,-0.06793949007987976,0.026825211942195892
338.0,0.0,0.0,0.0,0.0,0.0,0.0,-0.001231790636666119,0.046798184514045715,0.03361163288354874,0.9973139762878418,-0.01374069508165121,-0.06614038348197937,0.028310948982834816
339.0,0.0,0.0,0.0,0.0,0.0,0.0,0.0032968909945338964,0.039929505437612534,0.03818153589963913,0.9973984956741333,-0.014829358085989952,-0.06354150176048279,0.030634410679340363
340.0,0.0,0.0,0.0,0.0,0.0,0.0,-0.00642361119389534,0.04310828447341919,0.038301825523376465,0.9975118041038513,-0.016060370951890945,-0.05999113619327545,0.03336530178785324
341.0,0.0,0.0,0.0,0.0,0.0,0.0,-0.007468346506357193,0.040889471769332886,0.046147700399160385,0.9976596832275391,-0.018066585063934326,-0.05548308789730072,0.03563932701945305
342.0,0.0,0.0,0.0,0.0,0.0,0.0,-0.0012026201002299786,0.03326871618628502,0.03266320377588272,0.9978154301643372,-0.021177176386117935,-0.050604600459337234,0.036810778081417084
343.0,0.0,0.0,0.0,0.0,0.0,0.0,0.0028826138004660606,0.02040516585111618,0.012737087905406952,0.9979657530784607,-0.023625442758202553,-0.04578952491283417,0.03753987327218056
344.0,0.0,0.0,0.0,0.0,0.0,0.0,0.005045467521995306,0.015159004367887974,0.01805989071726799,0.9981408715248108,-0.025966370478272438,-0.04087439179420471,0.03700876981019974
345.0,0.0,0.0,0.0,0.0,0.0,0.0,0.014055147767066956,0.01019327249377966,0.006584666203707457,0.9983006715774536,-0.02775740996003151,-0.03642316162586212,0.036033354699611664
346.0,0.0,0.0,0.0,0.0,0.0,0.0,0.017826799303293228,0.002450510859489441,0.006426903884857893,0.9984132647514343,-0.02862614579498768,-0.03248678520321846,0.03600583225488663
347.0,0.0,0.0,0.0,0.0,0.0,0.0,0.016409294679760933,0.003225957276299596,0.020993540063500404,0.9985240697860718,-0.02822297438979149,-0.02922501601278782,0.0360410176217556
348.0,0.0,0.0,0.0,0.0,0.0,0.0,0.015167671255767345,0.007251754403114319,0.04885539785027504,0.9987524747848511,-0.024968406185507774,-0.026263663545250893,0.03435695916414261
349.0,0.0,0.0,0.0,0.0,0.0,0.0,0.006476743146777153,0.021534789353609085,0.07749209553003311,0.9992272257804871,-0.015181466937065125,-0.02166123129427433,0.029070744290947914
350.0,0.0,0.0,0.0,0.0,0.0,0.0,-0.027267636731266975,-0.0033233999274671078,0.044240523129701614,0.9996364712715149,-0.0007589455926790833,-0.014588477090001106,0.02266170270740986
351.0,0.0,0.0,0.0,0.0,0.0,0.0,-0.020448332652449608,-0.02152176946401596,0.011605523526668549,0.9997142553329468,0.018053913488984108,-0.0073045059107244015,0.013856327161192894
352.0,0.0,0.0,0.0,0.0,0.0,0.0,0.001800177968107164,-0.06137807294726372,-0.004935622680932283,0.9992077350616455,0.039581697434186935,-0.0022170348092913628,0.0035179262049496174
353.0,0.0,0.0,0.0,0.0,0.0,0.0,0.023314811289310455,-0.06149282306432724,-0.07869207859039307,0.998045802116394,0.06172391399741173,0.0013896015007048845,-0.0096324123442173
354.0,0.0,0.0,0.0,0.0,0.0,0.0,0.0409422405064106,-0.11735006421804428,-0.11873603612184525,0.9967523217201233,0.07670754194259644,0.0070436857640743256,-0.023470357060432434
355.0,0.0,0.0,0.0,0.0,0.0,0.0,0.033257462084293365,-0.14800456166267395,-0.13832145929336548,0.9958919882774353,0.08226793259382248,0.013499378226697445,-0.03533679619431496
356.0,0.0,0.0,0.0,0.0,0.0,0.0,0.07444016635417938,-0.0968036949634552,-0.11187983304262161,0.9955810308456421,0.08262069523334503,0.015920590609312057,-0.041694529354572296
357.0,0.0,0.0,0.0,0.0,0.0,0.0,0.07463335245847702,-0.07596782594919205,-0.07894380390644073,0.9955634474754333,0.08025640994310379,0.01655185967683792,-0.046237699687480927
358.0,0.0,0.0,0.0,0.0,0.0,0.0,0.05059761181473732,-0.10208043456077576,-0.08742164820432663,0.9955134391784668,0.07694213837385178,0.015256205573678017,-0.05291398987174034
359.0,0.0,0.0,0.0,0.0,0.0,0.0,0.08340269327163696,-0.042963262647390366,-0.05883295089006424,0.9957721829414368,0.07069569081068039,0.01285349577665329,-0.05722157657146454
360.0,0.0,0.0,0.0,0.0,0.0,0.0,0.0419025681912899,-0.022396989166736603,-0.005109519697725773,0.9960014820098877,0.0659296065568924,0.011278551071882248,-0.05921899527311325
361.0,0.0,0.0,0.0,0.0,0.0,0.0,0.005956931505352259,-0.036625560373067856,-0.03012661077082157,0.9961807131767273,0.061895910650491714,0.009455486200749874,-0.0608534961938858
362.0,0.0,0.0,0.0,0.0,0.0,0.0,-0.0026505955029278994,-0.0042648655362427235,-0.020019492134451866,0.996269941329956,0.06205938383936882,0.005556010641157627,-0.059698354452848434
363.0,0.0,0.0,0.0,0.0,0.0,0.0,-0.017907537519931793,-0.010475128889083862,0.04624602571129799,0.9960060119628906,0.06728048622608185,0.0006315428181551397,-0.0586911141872406
364.0,0.0,0.0,0.0,0.0,0.0,0.0,-0.04833171144127846,-0.010132740251719952,0.0803292915225029,0.9955204725265503,0.07144337892532349,-0.00361078092828393,-0.06181686371564865
365.0,0.0,0.0,0.0,0.0,0.0,0.0,-0.04739149659872055,0.002606305293738842,0.05942845344543457,0.9951306581497192,0.07464254647493362,-0.007016158662736416,-0.06398781388998032
366.0,0.0,0.0,0.0,0.0,0.0,0.0,-0.014387142844498158,-0.007279762998223305,0.030895167961716652,0.9949553608894348,0.07604911923408508,-0.00963384285569191,-0.06471331417560577
367.0,0.0,0.0,0.0,0.0,0.0,0.0,-0.020565716549754143,0.0006503317854367197,0.025560222566127777,0.9949072599411011,0.07593809068202972,-0.011569399386644363,-0.06525756418704987
368.0,0.0,0.0,0.0,0.0,0.0,0.0,-0.04283929243683815,0.0015298746293410659,0.024846620857715607,0.9952061772346497,0.07074659317731857,-0.012911626137793064,-0.06627728044986725
369.0,0.0,0.0,0.0,0.0,0.0,0.0,-0.0457637682557106,-0.0016065743984654546,0.02270345203578472,0.9957085847854614,0.06155426800251007,-0.013949732296168804,-0.0676819235086441
370.0,0.0,0.0,0.0,0.0,0.0,0.0,-0.000831384735647589,0.015524816699326038,0.017280755564570427,0.996070146560669,0.05476169288158417,-0.016146142035722733,-0.06770894676446915
371.0,0.0,0.0,0.0,0.0,0.0,0.0,0.031300138682127,0.008994551375508308,0.01428611483424902,0.9963504672050476,0.049786802381277084,-0.018653444945812225,-0.06677643209695816
372.0,0.0,0.0,0.0,0.0,0.0,0.0,0.037610989063978195,-0.021966569125652313,-0.018689291551709175,0.9968329071998596,0.0442357137799263,-0.021144729107618332,-0.06261248886585236
373.0,0.0,0.0,0.0,0.0,0.0,0.0,0.03346622735261917,-0.04983934387564659,-0.05203089118003845,0.9974789619445801,0.03812895342707634,-0.024311356246471405,-0.054687488824129105
374.0,0.0,0.0,0.0,0.0,0.0,0.0,0.04220079630613327,-0.01390065811574459,-0.02636939473450184,0.998130202293396,0.032235123217105865,-0.028810905292630196,-0.04320746660232544
375.0,0.0,0.0,0.0,0.0,0.0,0.0,-0.0018235541647300124,0.07359998673200607,0.051242731511592865,0.9985378980636597,0.0292870681732893,-0.033377375453710556,-0.030822182074189186
376.0,0.0,0.0,0.0,0.0,0.0,0.0,-0.041242100298404694,0.07658469676971436,0.07326176017522812,0.9988959431648254,0.024451108649373055,-0.036308448761701584,-0.017056934535503387
377.0,0.0,0.0,0.0,0.0,0.0,0.0,-0.01756109483540058,0.044459834694862366,0.0470358282327652,0.9991114139556885,0.016827184706926346,-0.03857993707060814,-0.002254401333630085
378.0,0.0,0.0,0.0,0.0,0.0,0.0,-0.0464637465775013,0.057831741869449615,0.01790016144514084,0.9991275072097778,0.010530281811952591,-0.03950689733028412,0.00851641409099102
379.0,0.0,0.0,0.0,0.0,0.0,0.0,-0.055541396141052246,0.05077975243330002,0.04593515023589134,0.9991001486778259,0.004194892942905426,-0.039124760776758194,0.015834713354706764
380.0,0.0,0.0,0.0,0.0,0.0,0.0,0.0010959762148559093,0.03227852284908295,0.08508935570716858,0.9990635514259338,-0.003178265178576112,-0.037379924207925797,0.02155541069805622
381.0,0.0,0.0,0.0,0.0,0.0,0.0,-0.003486510831862688,0.014368074014782906,0.02656037174165249,0.9990022778511047,-0.012384375557303429,-0.03442266210913658,0.02561343088746071
382.0,0.0,0.0,0.0,0.0,0.0,0.0,0.00576735520735383,0.015562894754111767,-0.004579128231853247,0.9990327954292297,-0.016355587169528008,-0.03089592605829239,0.026673821732401848
383.0,0.0,0.0,0.0,0.0,0.0,0.0,-0.029157904908061028,0.04265223443508148,-0.04258662834763527,0.9991751909255981,-0.017174217849969864,-0.02714714966714382,0.024842707440257072
384.0,0.0,0.0,0.0,0.0,0.0,0.0,-0.06821408122777939,0.030580567196011543,-0.04290308803319931,0.9994023442268372,-0.01398108433932066,-0.02324340119957924,0.02143268659710884
385.0,0.0,0.0,0.0,0.0,0.0,0.0,-0.037441007792949677,-0.014718268066644669,-0.06625468283891678,0.9995422959327698,-0.008872151374816895,-0.02108948864042759,0.019788911566138268
386.0,0.0,0.0,0.0,0.0,0.0,0.0,-0.006207553669810295,-0.03074050508439541,-0.07500014454126358,0.9995626211166382,-0.006196054629981518,-0.02088361606001854,0.02000224031507969
387.0,0.0,0.0,0.0,0.0,0.0,0.0,0.008460190147161484,-0.029236651957035065,-0.07429946213960648,0.9995371699333191,-0.004924374166876078,-0.022739723324775696,0.019600627943873405
388.0,0.0,0.0,0.0,0.0,0.0,0.0,-0.006148184183984995,-0.009042862802743912,-0.02660468779504299,0.9994946122169495,-0.004716670606285334,-0.025114567950367928,0.018908662721514702
389.0,0.0,0.0,0.0,0.0,0.0,0.0,0.008638705126941204,-0.001015639049001038,-0.01649327389895916,0.9993926882743835,-0.0032166875898838043,-0.0286808293312788,0.01952589489519596
390.0,0.0,0.0,0.0,0.0,0.0,0.0,0.019068844616413116,-0.03141779080033302,0.002797708846628666,0.9992431998252869,-0.0018928517820313573,-0.03291740640997887,0.020636582747101784
391.0,0.0,0.0,0.0,0.0,0.0,0.0,0.016231782734394073,-0.012105881236493587,0.0355345755815506,0.9990842342376709,0.00012397718091960996,-0.036937911063432693,0.021594222635030746
392.0,0.0,0.0,0.0,0.0,0.0,0.0,0.010555573739111423,-0.03100419230759144,-0.00019136621267534792,0.9988709688186646,0.0028408574871718884,-0.04024805501103401,0.025076258927583694
393.0,0.0,0.0,0.0,0.0,0.0,0.0,0.02048286236822605,-0.04306617006659508,-0.04948495328426361,0.9987242221832275,0.005725068971514702,-0.039870910346508026,0.030454259365797043
394.0,0.0,0.0,0.0,0.0,0.0,0.0,0.07325402647256851,-0.059785258024930954,-0.05674365907907486,0.998223066329956,0.0033930218778550625,-0.041585054248571396,0.04254268482327461
395.0,0.0,0.0,0.0,0.0,0.0,0.0,0.0008526767487637699,0.015916302800178528,-0.019822068512439728,0.9978418946266174,0.0002817872154992074,-0.04223651438951492,0.0502733550965786
396.0,0.0,0.0,0.0,0.0,0.0,0.0,-0.020602550357580185,0.05717480182647705,-0.0035192621871829033,0.9974284172058105,-0.0015153276035562158,-0.04268601909279823,0.057546090334653854
397.0,0.0,0.0,0.0,0.0,0.0,0.0,0.006135493516921997,0.0647517591714859,0.0046810549683868885,0.9969905018806458,-0.002745270263403654,-0.042875986546278,0.06452628970146179
398.0,0.0,0.0,0.0,0.0,0.0,0.0,-0.0012095835991203785,0.10829482972621918,0.035627581179142,0.9967324137687683,-0.0010554918553680182,-0.04106162488460541,0.06954743713140488
399.0,0.0,0.0,0.0,0.0,0.0,0.0,-0.03191181272268295,0.07929720729589462,0.040041178464889526,0.996650755405426,0.0025962686631828547,-0.03755241632461548,0.07259322702884674
400.0,0.0,0.0,0.0,0.0,0.0,0.0,-0.008057903498411179,0.027486121281981468,0.030743490904569626,0.9965469241142273,0.004169334191828966,-0.03314274922013283,0.07601363956928253
401.0,0.0,0.0,0.0,0.0,0.0,0.0,0.00020084049901925027,0.013678434304893017,0.012166662141680717,0.9966292381286621,0.003177660284563899,-0.028842007741332054,0.07673271745443344
402.0,0.0,0.0,0.0,0.0,0.0,0.0,0.027860291302204132,0.0011198770953342319,-0.016018759459257126,0.9967566728591919,0.0019373944960534573,-0.0251604150980711,0.07640790194272995
403.0,0.0,0.0,0.0,0.0,0.0,0.0,0.04678116366267204,-0.008213665336370468,-0.007287177257239819,0.9967899322509766,0.0010594810592010617,-0.02323872782289982,0.07660358399152756
404.0,0.0,0.0,0.0,0.0,0.0,0.0,0.01895364373922348,0.010475670918822289,0.02358131855726242,0.9969276189804077,0.0003404741582926363,-0.02128015272319317,0.075375497341156
405.0,0.0,0.0,0.0,0.0,0.0,0.0,-0.004229244776070118,0.020937521010637283,0.032438725233078,0.9970288872718811,0.001057291985489428,-0.01969197951257229,0.07445494830608368
406.0,0.0,0.0,0.0,0.0,0.0,0.0,-0.01135751698166132,0.015401365235447884,0.041013773530721664,0.9970720410346985,0.0017240243032574654,-0.01844603754580021,0.0741855725646019
407.0,0.0,0.0,0.0,0.0,0.0,0.0,-0.005503871478140354,0.0061894371174275875,0.034179482609033585,0.9971011877059937,0.002960914047434926,-0.017178839072585106,0.07406101375818253
408.0,0.0,0.0,0.0,0.0,0.0,0.0,-0.011803348548710346,-0.0012578672030940652,0.020258959382772446,0.9970808029174805,0.004362443462014198,-0.01590149477124214,0.07454764097929001
409.0,0.0,0.0,0.0,0.0,0.0,0.0,-0.017724644392728806,-0.008055737242102623,0.004699969198554754,0.9971776008605957,0.0053734686225652695,-0.01469542644917965,0.07343067973852158
410.0,0.0,0.0,0.0,0.0,0.0,0.0,-0.0022523582447320223,-0.037441398948431015,-0.02431388571858406,0.9972735643386841,0.004986741114407778,-0.014649548567831516,0.07215257734060287
411.0,0.0,0.0,0.0,0.0,0.0,0.0,0.06199898198246956,-0.022236553952097893,-0.009748443961143494,0.9971457123756409,0.004429195541888475,-0.017186176031827927,0.0733855590224266
412.0,0.0,0.0,0.0,0.0,0.0,0.0,0.03770872578024864,-0.02423396147787571,-0.0029498508665710688,0.9970817565917969,0.0039818319492042065,-0.020255543291568756,0.07349758595228195
413.0,0.0,0.0,0.0,0.0,0.0,0.0,0.005054131615906954,-0.04962410777807236,-0.030625740066170692,0.9969069361686707,0.000543805945198983,-0.024011507630348206,0.07482408732175827
414.0,0.0,0.0,0.0,0.0,0.0,0.0,0.01576053537428379,-0.05107719451189041,-0.06316577643156052,0.9965649247169495,-0.005655429791659117,-0.029948072507977486,0.07699783891439438
415.0,0.0,0.0,0.0,0.0,0.0,0.0,0.020567039027810097,-0.041321732103824615,-0.07186223566532135,0.9961753487586975,-0.012429384514689445,-0.03612985461950302,0.07857499271631241
416.0,0.0,0.0,0.0,0.0,0.0,0.0,-0.020376985892653465,0.011666239239275455,-0.02020120434463024,0.9960248470306396,-0.01572706736624241,-0.040041472762823105,0.07799326628446579
417.0,0.0,0.0,0.0,0.0,0.0,0.0,-0.034347593784332275,0.047838252037763596,0.006850825622677803,0.9958881139755249,-0.0173648651689291,-0.04329095035791397,0.0776614397764206
418.0,0.0,0.0,0.0,0.0,0.0,0.0,-0.0019696643576025963,0.05396270751953125,0.014606951735913754,0.9956496953964233,-0.017250830307602882,-0.046503834426403046,0.0788712203502655
419.0,0.0,0.0,0.0,0.0,0.0,0.0,0.010716804303228855,0.03702801093459129,0.030697748064994812,0.9954093098640442,-0.016598014160990715,-0.04878435283899307,0.080654077231884
420.0,0.0,0.0,0.0,0.0,0.0,0.0,-0.019051184877753258,0.02461448311805725,0.015083498321473598,0.9952211380004883,-0.01750887744128704,-0.05003979057073593,0.0820012167096138
421.0,0.0,0.0,0.0,0.0,0.0,0.0,-0.013083914294838905,0.01813671365380287,-0.0064430804923176765,0.9951368570327759,-0.018341585993766785,-0.05031532049179077,0.08267061412334442
422.0,0.0,0.0,0.0,0.0,0.0,0.0,0.0023730199318379164,0.013865395449101925,0.010161612182855606,0.9951096773147583,-0.017843982204794884,-0.05050201341509819,0.08299072086811066
423.0,0.0,0.0,0.0,0.0,0.0,0.0,0.010417109355330467,0.013066990301012993,0.022648407146334648,0.9950937628746033,-0.016765182837843895,-0.049884263426065445,0.08377615362405777
424.0,0.0,0.0,0.0,0.0,0.0,0.0,0.0189080648124218,0.01134880818426609,0.008264484815299511,0.9949472546577454,-0.017655575647950172,-0.049749355763196945,0.08539318293333054
425.0,0.0,0.0,0.0,0.0,0.0,0.0,0.011035981588065624,0.0019539378117769957,-0.0021466510370373726,0.9948859214782715,-0.01926504634320736,-0.04942109435796738,0.08595464378595352
426.0,0.0,0.0,0.0,0.0,0.0,0.0,0.001770104980096221,-0.021468937397003174,-0.0255644042044878,0.9950161576271057,-0.01948116533458233,-0.04863068088889122,0.08483903855085373
427.0,0.0,0.0,0.0,0.0,0.0,0.0,0.019047299399971962,-0.00841168686747551,-0.027871908619999886,0.995093047618866,-0.017794311046600342,-0.04913034662604332,0.0840190052986145
428.0,0.0,0.0,0.0,0.0,0.0,0.0,0.023570621386170387,-0.011436369270086288,-0.006825118325650692,0.9951452612876892,-0.01626601256430149,-0.04994189366698265,0.08322632312774658
429.0,0.0,0.0,0.0,0.0,0.0,0.0,0.017357144504785538,-0.01096341386437416,-0.005772532895207405,0.995111882686615,-0.01547267660498619,-0.05094941332936287,0.08316536247730255
430.0,0.0,0.0,0.0,0.0,0.0,0.0,0.01021186076104641,0.012843244709074497,-0.00395364360883832,0.995047390460968,-0.014532878063619137,-0.05183078721165657,0.08356262743473053
431.0,0.0,0.0,0.0,0.0,0.0,0.0,0.0023897753562778234,0.022496044635772705,0.00501594040542841,0.9949383735656738,-0.012956222519278526,-0.05297243595123291,0.08439639210700989
432.0,0.0,0.0,0.0,0.0,0.0,0.0,0.002274565165862441,0.023457281291484833,0.015737803652882576,0.9948251843452454,-0.010629036463797092,-0.053530775010585785,0.0856967568397522
433.0,0.0,0.0,0.0,0.0,0.0,0.0,0.0033083665184676647,0.03973871469497681,0.023032017052173615,0.9948286414146423,-0.008033250458538532,-0.053091246634721756,0.08621331304311752
434.0,0.0,0.0,0.0,0.0,0.0,0.0,0.001082349568605423,0.04067406803369522,0.025365861132740974,0.9949313402175903,-0.005590572953224182,-0.05190880969166756,0.08594246953725815
435.0,0.0,0.0,0.0,0.0,0.0,0.0,0.016172215342521667,0.018642785027623177,0.017280803993344307,0.9950356483459473,-0.003317824797704816,-0.05033006891608238,0.08579017966985703
436.0,0.0,0.0,0.0,0.0,0.0,0.0,0.020600279793143272,0.0025357177946716547,0.00296911527402699,0.9952626824378967,-0.002111440524458885,-0.04802336543798447,0.08450863510370255
437.0,0.0,0.0,0.0,0.0,0.0,0.0,0.018480444326996803,-0.007543823216110468,0.00784741248935461,0.9955665469169617,-0.003092745551839471,-0.04518282786011696,0.08243995904922485
438.0,0.0,0.0,0.0,0.0,0.0,0.0,0.0084124356508255,0.013179460540413857,0.008702468127012253,0.9959468841552734,-0.00398410577327013,-0.0426020510494709,0.07911016047000885
439.0,0.0,0.0,0.0,0.0,0.0,0.0,0.021882670000195503,0.0073461271822452545,-0.012718682177364826,0.996163010597229,-0.006554383784532547,-0.04078521206974983,0.07715203613042831
440.0,0.0,0.0,0.0,0.0,0.0,0.0,0.01806643232703209,0.0011895517818629742,-0.00605231337249279,0.9963611960411072,-0.0105257797986269,-0.03873412683606148,0.07518760859966278
441.0,0.0,0.0,0.0,0.0,0.0,0.0,-0.008329756557941437,0.012759996578097343,-0.010617341846227646,0.9966436624526978,-0.012163154780864716,-0.036944326013326645,0.07203009724617004
442.0,0.0,0.0,0.0,0.0,0.0,0.0,-0.014971830882132053,-0.00046560043119825423,-0.006629701238125563,0.9969396591186523,-0.013348172418773174,-0.03537842631340027,0.06842152029275894
443.0,0.0,0.0,0.0,0.0,0.0,0.0,-0.021085100248456,-0.0033076810650527477,-0.010240304283797741,0.9972469806671143,-0.014994136989116669,-0.03375387564301491,0.0642976313829422
444.0,0.0,0.0,0.0,0.0,0.0,0.0,-0.012109218165278435,-0.02921057678759098,-0.04444598779082298,0.997477650642395,-0.017198137938976288,-0.032220110297203064,0.06086038798093796
445.0,0.0,0.0,0.0,0.0,0.0,0.0,0.01080434862524271,-0.036191076040267944,-0.05957278981804848,0.9977053999900818,-0.019268114119768143,-0.030275557190179825,0.05740729346871376
446.0,0.0,0.0,0.0,0.0,0.0,0.0,-0.005650208331644535,-0.0065056937746703625,-0.056393008679151535,0.9981461763381958,-0.019211048260331154,-0.02793525718152523,0.050539955496788025
447.0,0.0,0.0,0.0,0.0,0.0,0.0,-0.03914162889122963,0.08161134272813797,0.04460011422634125,0.9990543127059937,-0.014079006388783455,-0.02537241205573082,0.032378021627664566
448.0,0.0,0.0,0.0,0.0,0.0,0.0,-0.06984826177358627,0.09845581650733948,0.1570851057767868,0.9997135400772095,-0.00622522784397006,-0.02127903141081333,0.00901153963059187
449.0,0.0,0.0,0.0,0.0,0.0,0.0,-0.03002924658358097,0.032287318259477615,0.06760253012180328,0.9997674226760864,0.005608383100479841,-0.016106417402625084,-0.013200764544308186
450.0,0.0,0.0,0.0,0.0,0.0,0.0,0.011195325292646885,-0.007858389057219028,-0.035913318395614624,0.9990602135658264,0.023517943918704987,-0.0115567771717906,-0.034524936228990555
451.0,0.0,0.0,0.0,0.0,0.0,0.0,0.016305210068821907,-0.06181933358311653,-0.04997759684920311,0.9980036020278931,0.037300486117601395,-0.007196241524070501,-0.05045377090573311
452.0,0.0,0.0,0.0,0.0,0.0,0.0,0.08614048361778259,-0.0851655825972557,-0.04820587858557701,0.9974058270454407,0.04317677766084671,-0.005735378712415695,-0.05730946734547615
453.0,0.0,0.0,0.0,0.0,0.0,0.0,0.1360626369714737,-0.05551990494132042,-0.043503254652023315,0.9972175359725952,0.043744564056396484,-0.007862907834351063,-0.059847548604011536
454.0,0.0,0.0,0.0,0.0,0.0,0.0,0.15387780964374542,-0.0388445220887661,-0.04766057804226875,0.9972296953201294,0.041317831724882126,-0.01111596543341875,-0.060844141989946365
455.0,0.0,0.0,0.0,0.0,0.0,0.0,0.10939652472734451,-0.03493109345436096,-0.04556342214345932,0.9971441030502319,0.03694971650838852,-0.015063728205859661,-0.06412097066640854
456.0,0.0,0.0,0.0,0.0,0.0,0.0,0.06920459866523743,-0.033593226224184036,-0.009840668179094791,0.9969778060913086,0.03289654105901718,-0.019330359995365143,-0.06767023354768753
457.0,0.0,0.0,0.0,0.0,0.0,0.0,0.04849753528833389,-0.016131138429045677,0.011820011772215366,0.9968598484992981,0.03109506145119667,-0.023114362731575966,-0.06905815005302429
458.0,0.0,0.0,0.0,0.0,0.0,0.0,0.030553165823221207,-0.011755484156310558,0.0158709529787302,0.9968115091323853,0.029853271320462227,-0.026113765314221382,-0.06923545897006989
459.0,0.0,0.0,0.0,0.0,0.0,0.0,0.012671991251409054,-0.010176696814596653,0.02740912325680256,0.9968520402908325,0.028933774679899216,-0.028070993721485138,-0.06826997548341751
460.0,0.0,0.0,0.0,0.0,0.0,0.0,0.017299149185419083,-0.013554436154663563,0.009161680936813354,0.9969829320907593,0.027329396456480026,-0.03019334003329277,-0.06607761979103088
461.0,0.0,0.0,0.0,0.0,0.0,0.0,0.016889799386262894,-0.025694234296679497,-0.019563928246498108,0.9971964359283447,0.02388804778456688,-0.03315916657447815,-0.062679722905159
462.0,0.0,0.0,0.0,0.0,0.0,0.0,0.003259912831708789,-0.03860681876540184,-0.04374491050839424,0.9975085854530334,0.01855054497718811,-0.03648361563682556,-0.0574573390185833
463.0,0.0,0.0,0.0,0.0,0.0,0.0,0.013745985925197601,-0.04531807452440262,-0.044400934129953384,0.9979434013366699,0.010129468515515327,-0.04093329608440399,-0.048275385051965714
464.0,0.0,0.0,0.0,0.0,0.0,0.0,0.008000033907592297,-0.023337172344326973,-0.019264744594693184,0.9982774257659912,-0.0015937599819153547,-0.046481043100357056,-0.03576553612947464
465.0,0.0,0.0,0.0,0.0,0.0,0.0,0.00674486393108964,0.015433665364980698,0.040449243038892746,0.9983527064323425,-0.012132653035223484,-0.051937926560640335,-0.02114425040781498
466.0,0.0,0.0,0.0,0.0,0.0,0.0,-0.019593680277466774,0.027989035472273827,0.08503439277410507,0.99828040599823,-0.01814037747681141,-0.05505811423063278,-0.008702415972948074
467.0,0.0,0.0,0.0,0.0,0.0,0.0,-0.0573643334209919,0.027274373918771744,0.07426504045724869,0.9982608556747437,-0.01871708780527115,-0.055895209312438965,-0.0006245076074264944
468.0,0.0,0.0,0.0,0.0,0.0,0.0,-0.016126368194818497,0.01206286158412695,0.10222885012626648,0.9982585906982422,-0.018248576670885086,-0.05570906400680542,0.006577197462320328
469.0,0.0,0.0,0.0,0.0,0.0,0.0,-0.006516552064567804,0.006292335223406553,0.04813351482152939,0.998283863067627,-0.01744767464697361,-0.054694972932338715,0.011529418639838696
470.0,0.0,0.0,0.0,0.0,0.0,0.0,-0.044186223298311234,-0.014009857550263405,0.005412606056779623,0.9983500838279724,-0.01731082797050476,-0.05313810706138611,0.013172782026231289
471.0,0.0,0.0,0.0,0.0,0.0,0.0,-0.04086356610059738,-0.005187189672142267,0.005704031791538,0.9983735680580139,-0.017224343493580818,-0.052805833518505096,0.012841539457440376
472.0,0.0,0.0,0.0,0.0,0.0,0.0,-0.03815783932805061,-0.012798401527106762,0.028072237968444824,0.9984655380249023,-0.01650872454047203,-0.052141010761260986,0.008665254339575768
473.0,0.0,0.0,0.0,0.0,0.0,0.0,-0.036346182227134705,-0.01818840578198433,0.01827603206038475,0.9986557364463806,-0.014598257839679718,-0.049717795103788376,0.0013060070341452956
474.0,0.0,0.0,0.0,0.0,0.0,0.0,-0.0456262081861496,-0.015599463135004044,0.0029107388108968735,0.9988341331481934,-0.011036662384867668,-0.04611104726791382,-0.009066839702427387
475.0,0.0,0.0,0.0,0.0,0.0,0.0,-0.06311360001564026,-0.037582188844680786,-0.03294205665588379,0.9988085031509399,-0.0062469979748129845,-0.04155644774436951,-0.024811161682009697
476.0,0.0,0.0,0.0,0.0,0.0,0.0,-0.05315590649843216,-0.04288595914840698,-0.050521377474069595,0.9985093474388123,-0.0008221802418120205,-0.038039401173591614,-0.039132196456193924
477.0,0.0,0.0,0.0,0.0,0.0,0.0,0.008747686631977558,-0.05638750642538071,-0.07352885603904724,0.9980627298355103,0.004391856491565704,-0.03602426126599312,-0.0505334734916687
478.0,0.0,0.0,0.0,0.0,0.0,0.0,0.027346551418304443,-0.06382234394550323,-0.05518629401922226,0.9975133538246155,0.006771849002689123,-0.03425808250904083,-0.06121433898806572
479.0,0.0,0.0,0.0,0.0,0.0,0.0,0.019170895218849182,-0.0455271378159523,-0.005016118288040161,0.9971194863319397,0.006691282615065575,-0.03310893848538399,-0.06790855526924133
480.0,0.0,0.0,0.0,0.0,0.0,0.0,0.02246066741645336,-0.006700457539409399,-0.022398101165890694,0.9968821406364441,0.008975665085017681,-0.031194821000099182,-0.07191886007785797
481.0,0.0,0.0,0.0,0.0,0.0,0.0,0.030050568282604218,-0.00865867268294096,-0.053114552050828934,0.9969342947006226,0.010836669243872166,-0.028932174667716026,-0.07188433408737183
482.0,0.0,0.0,0.0,0.0,0.0,0.0,0.02492157369852066,0.009541986510157585,-0.042017679661512375,0.9969708323478699,0.011060172691941261,-0.028190728276968002,-0.07163683325052261
483.0,0.0,0.0,0.0,0.0,0.0,0.0,0.0651969313621521,0.010214301757514477,-0.054843511432409286,0.9971263408660889,0.008559498004615307,-0.028861206024885178,-0.06951523572206497
484.0,0.0,0.0,0.0,0.0,0.0,0.0,0.057875629514455795,0.0020337470341473818,-0.062027838081121445,0.9973212480545044,0.0030954054091125727,-0.030409784987568855,-0.0664527490735054
485.0,0.0,0.0,0.0,0.0,0.0,0.0,0.0530758760869503,0.003572861896827817,-0.05182109773159027,0.9977025985717773,-0.005366829689592123,-0.032916005700826645,-0.0589679591357708
486.0,0.0,0.0,0.0,0.0,0.0,0.0,0.051118403673172,0.024009406566619873,-0.020029012113809586,0.9982256889343262,-0.012968734838068485,-0.0365634523332119,-0.04517114907503128
487.0,0.0,0.0,0.0,0.0,0.0,0.0,0.01477697491645813,0.05134056508541107,0.05853712558746338,0.9986410737037659,-0.017671816051006317,-0.03910454735159874,-0.029570993036031723
488.0,0.0,0.0,0.0,0.0,0.0,0.0,-0.02564539946615696,0.07508854568004608,0.08783629536628723,0.9988433718681335,-0.021450111642479897,-0.040539514273405075,-0.014419964514672756
489.0,0.0,0.0,0.0,0.0,0.0,0.0,-0.0022636051289737225,0.09748204797506332,0.10062269121408463,0.9988519549369812,-0.02413708157837391,-0.041373126208782196,-0.0005834056646563113
490.0,0.0,0.0,0.0,0.0,0.0,0.0,-0.05020235478878021,0.11853322386741638,0.06066294386982918,0.9988441467285156,-0.025836044922471046,-0.03948838263750076,0.009121032431721687
491.0,0.0,0.0,0.0,0.0,0.0,0.0,-0.07782179117202759,0.13403959572315216,0.051701586693525314,0.998997151851654,-0.022632339969277382,-0.03543805330991745,0.015373858623206615
492.0,0.0,0.0,0.0,0.0,0.0,0.0,-0.08527107536792755,0.1347164362668991,0.08080508559942245,0.9993845820426941,-0.013687112368643284,-0.028970813378691673,0.014271678403019905
493.0,0.0,0.0,0.0,0.0,0.0,0.0,-0.07785689830780029,0.045941803604364395,0.06301724165678024,0.9997621178627014,-0.0004410525143612176,-0.021021313965320587,0.005803990177810192
494.0,0.0,0.0,0.0,0.0,0.0,0.0,-0.033457763493061066,-0.04151281341910362,0.08855944126844406,0.999823272228241,0.012775902636349201,-0.012596354819834232,-0.005613609217107296
495.0,0.0,0.0,0.0,0.0,0.0,0.0,-0.004615567624568939,-0.013343065977096558,0.01712116412818432,0.9994543194770813,0.027525927871465683,-0.007133780978620052,-0.016806799918413162
496.0,0.0,0.0,0.0,0.0,0.0,0.0,0.040159013122320175,-0.0633765310049057,-0.02736307866871357,0.9985910654067993,0.0440775565803051,-0.004762870259582996,-0.0291618462651968
497.0,0.0,0.0,0.0,0.0,0.0,0.0,0.008366230875253677,-0.10540040582418442,-0.13200490176677704,0.9973511695861816,0.058911796659231186,-0.004464802797883749,-0.04242807254195213
498.0,0.0,0.0,0.0,0.0,0.0,0.0,0.06733815371990204,-0.1020563542842865,-0.09467107057571411,0.996605396270752,0.06430959701538086,-0.005999609362334013,-0.051048800349235535
499.0,0.0,0.0,0.0,0.0,0.0,0.0,0.056600093841552734,-0.09931376576423645,-0.1180146336555481,0.9961317181587219,0.06424067169427872,-0.008804909884929657,-0.05930643528699875
500.0,0.0,0.0,0.0,0.0,0.0,0.0,0.09336618334054947,-0.08790373057126999,-0.10600966215133667,0.9961735010147095,0.05884208902716637,-0.0154182780534029,-0.06275332719087601
501.0,0.0,0.0,0.0,0.0,0.0,0.0,0.09698821604251862,-0.033495932817459106,-0.06537292152643204,0.9963476061820984,0.053755983710289,-0.02147829346358776,-0.06277324259281158
502.0,0.0,0.0,0.0,0.0,0.0,0.0,0.12918759882450104,-0.011342810466885567,-0.06527338176965714,0.9966848492622375,0.04517102986574173,-0.026630764827132225,-0.062206704169511795
503.0,0.0,0.0,0.0,0.0,0.0,0.0,0.11268726736307144,0.02378160133957863,0.0130376648157835,0.9969310760498047,0.0355849452316761,-0.030189886689186096,-0.06285645812749863
504.0,0.0,0.0,0.0,0.0,0.0,0.0,0.030674360692501068,0.033548977226018906,0.048611029982566833,0.9970709681510925,0.03114834800362587,-0.030636927112936974,-0.06277114897966385
505.0,0.0,0.0,0.0,0.0,0.0,0.0,0.03306334838271141,0.019630273804068565,0.011018402874469757,0.9971984624862671,0.029753362759947777,-0.03008977510035038,-0.06167875975370407
506.0,0.0,0.0,0.0,0.0,0.0,0.0,0.04303523898124695,0.0035046010743826628,-0.010836811736226082,0.9972484111785889,0.029165061190724373,-0.028974581509828568,-0.06168508529663086
507.0,0.0,0.0,0.0,0.0,0.0,0.0,0.025971656665205956,-0.0016999456565827131,-0.0013075735187157989,0.9972613453865051,0.02951464056968689,-0.027888327836990356,-0.06181402504444122
508.0,0.0,0.0,0.0,0.0,0.0,0.0,0.008066139183938503,-0.011337315663695335,-0.008336803875863552,0.9973393678665161,0.02969033643603325,-0.027557838708162308,-0.060605183243751526
509.0,0.0,0.0,0.0,0.0,0.0,0.0,-0.007780928630381823,-0.023039786145091057,-0.006050609052181244,0.9975136518478394,0.028757726773619652,-0.027301125228405,-0.05826063081622124
510.0,0.0,0.0,0.0,0.0,0.0,0.0,-0.028946032747626305,-0.025633560493588448,-0.006593458354473114,0.9977169036865234,0.026957416906952858,-0.027325885370373726,-0.055564820766448975
511.0,0.0,0.0,0.0,0.0,0.0,0.0,-0.020970148965716362,-0.01169655006378889,-0.02195976860821247,0.9979024529457092,0.024344099685549736,-0.0283195860683918,-0.05287998542189598
512.0,0.0,0.0,0.0,0.0,0.0,0.0,-0.017295055091381073,0.0021098724100738764,-0.013880151323974133,0.9980030655860901,0.021361149847507477,-0.03002595156431198,-0.051306966692209244
513.0,0.0,0.0,0.0,0.0,0.0,0.0,-0.02152641862630844,0.004632032010704279,-0.0015659056371077895,0.9980657696723938,0.01864241436123848,-0.03193719685077667,-0.0499749630689621
514.0,0.0,0.0,0.0,0.0,0.0,0.0,-0.0037017446011304855,4.272919977665879e-05,0.0003081268514506519,0.9981331825256348,0.013919049873948097,-0.03502759337425232,-0.04805099964141846
515.0,0.0,0.0,0.0,0.0,0.0,0.0,-0.015461038798093796,0.02468414045870304,-0.00013978472270537168,0.9982227683067322,0.006500009912997484,-0.03835625201463699,-0.04514522850513458
516.0,0.0,0.0,0.0,0.0,0.0,0.0,-0.024172523990273476,0.046843234449625015,0.019270138815045357,0.9983099102973938,-0.001886059413664043,-0.04143025353550911,-0.04070667549967766
517.0,0.0,0.0,0.0,0.0,0.0,0.0,-0.030151935294270515,0.0691755935549736,0.04858257248997688,0.9983226656913757,-0.01002430822700262,-0.04428316652774811,-0.035921093076467514
518.0,0.0,0.0,0.0,0.0,0.0,0.0,-0.044891756027936935,0.07851573824882507,0.027903828769922256,0.9982818961143494,-0.01586541160941124,-0.04702330008149147,-0.03114289417862892
519.0,0.0,0.0,0.0,0.0,0.0,0.0,-0.03562990576028824,0.06893448531627655,0.023279158398509026,0.9982136487960815,-0.020772837102413177,-0.05027693882584572,-0.02468368224799633
520.0,0.0,0.0,0.0,0.0,0.0,0.0,-0.02626023441553116,0.0702986791729927,0.03933584317564964,0.9981328845024109,-0.025957228615880013,-0.0529891662299633,-0.01575181446969509
521.0,0.0,0.0,0.0,0.0,0.0,0.0,-0.029233049601316452,0.07485474646091461,0.04917053133249283,0.997987687587738,-0.030008923262357712,-0.05542251467704773,-0.006950533948838711
522.0,0.0,0.0,0.0,0.0,0.0,0.0,-0.03650451824069023,0.05213427543640137,0.03169767186045647,0.9978004693984985,-0.03271595761179924,-0.05764491856098175,0.0009028172353282571
523.0,0.0,0.0,0.0,0.0,0.0,0.0,-0.022904299199581146,0.034632015973329544,0.02299424819648266,0.9975908994674683,-0.03498636186122894,-0.059242717921733856,0.008830120787024498
524.0,0.0,0.0,0.0,0.0,0.0,0.0,-0.03163629025220871,0.04419544339179993,0.010075380094349384,0.997412383556366,-0.03575137257575989,-0.06042392924427986,0.015446680597960949
525.0,0.0,0.0,0.0,0.0,0.0,0.0,-0.03095284476876259,0.029709402471780777,0.007134294603019953,0.9972949028015137,-0.03498409315943718,-0.061344582587480545,0.020376477390527725
526.0,0.0,0.0,0.0,0.0,0.0,0.0,-0.02904120460152626,0.02510545589029789,-0.0006538121378980577,0.997225821018219,-0.03359723091125488,-0.06202233210206032,0.02375953458249569
527.0,0.0,0.0,0.0,0.0,0.0,0.0,-0.02334871143102646,0.0248259287327528,-0.015603289008140564,0.9972130656242371,-0.031800296157598495,-0.06244748830795288,0.025595564395189285
528.0,0.0,0.0,0.0,0.0,0.0,0.0,-0.019797200337052345,0.021914541721343994,-0.005430998280644417,0.9972309470176697,-0.029998114332556725,-0.06259454041719437,0.026682935655117035
529.0,0.0,0.0,0.0,0.0,0.0,0.0,0.00243437010794878,0.019734570756554604,0.017385970801115036,0.9973018169403076,-0.0283125638961792,-0.0620187446475029,0.02721165493130684
530.0,0.0,0.0,0.0,0.0,0.0,0.0,-0.005384789314121008,0.013429874554276466,0.013704363256692886,0.9973928928375244,-0.02772587165236473,-0.061090949922800064,0.026569996029138565
531.0,0.0,0.0,0.0,0.0,0.0,0.0,-0.005485507659614086,0.011529681272804737,-0.0036772401072084904,0.9974789023399353,-0.027648746967315674,-0.05993843823671341,0.026035504415631294
532.0,0.0,0.0,0.0,0.0,0.0,0.0,0.0192473866045475,0.0031146176625043154,-0.004571377765387297,0.9975442290306091,-0.028262212872505188,-0.058824725449085236,0.02541579306125641
533.0,0.0,0.0,0.0,0.0,0.0,0.0,0.02403143420815468,-0.00013494670565705746,-0.010268398560583591,0.9975445866584778,-0.02979975752532482,-0.05772165209054947,0.026171892881393433
534.0,0.0,0.0,0.0,0.0,0.0,0.0,0.014658247120678425,0.0050886389799416065,-0.010041547007858753,0.997511088848114,-0.031035760417580605,-0.05739341676235199,0.026717014610767365
535.0,0.0,0.0,0.0,0.0,0.0,0.0,0.004201437812298536,-0.00048804617836140096,-0.009293872863054276,0.9975195527076721,-0.031994935125112534,-0.05668254569172859,0.026798546314239502
536.0,0.0,0.0,0.0,0.0,0.0,0.0,0.0004402883641887456,-0.010924884118139744,0.0001804327330319211,0.997519314289093,-0.0334257148206234,-0.05532914400100708,0.027880866080522537
537.0,0.0,0.0,0.0,0.0,0.0,0.0,0.004760312847793102,0.005305547267198563,0.0026146036107093096,0.9974908828735352,-0.0342865027487278,-0.054413747042417526,0.029591171070933342
538.0,0.0,0.0,0.0,0.0,0.0,0.0,0.01089301984757185,0.0037814173847436905,0.0066664451733231544,0.997565746307373,-0.03376295790076256,-0.052682626992464066,0.030778013169765472
539.0,0.0,0.0,0.0,0.0,0.0,0.0,0.012827995233237743,-0.0036872595082968473,-0.005731553770601749,0.997739851474762,-0.03262059763073921,-0.04979679733514786,0.031164804473519325
540.0,0.0,0.0,0.0,0.0,0.0,0.0,0.005076842848211527,-0.028751127421855927,-0.023637041449546814,0.9978716373443604,-0.0330883152782917,-0.046643272042274475,0.03132905438542366
541.0,0.0,0.0,0.0,0.0,0.0,0.0,0.017118092626333237,-0.010187823325395584,-0.02186586707830429,0.9979467988014221,-0.034240834414958954,-0.04451073706150055,0.030797524377703667
542.0,0.0,0.0,0.0,0.0,0.0,0.0,0.002073694486171007,0.009401323273777962,0.006896560546010733,0.9980539083480835,-0.03346286341547966,-0.04233558475971222,0.03123471513390541
543.0,0.0,0.0,0.0,0.0,0.0,0.0,-0.0017934489296749234,0.021564176306128502,0.03370644524693489,0.9981411099433899,-0.032553914934396744,-0.03977496549487114,0.03274714946746826
544.0,0.0,0.0,0.0,0.0,0.0,0.0,-0.020969582721590996,0.0349123552441597,0.03224111720919609,0.9982861280441284,-0.031203370541334152,-0.03708413615822792,0.03280339390039444
545.0,0.0,0.0,0.0,0.0,0.0,0.0,0.0019122397061437368,0.014950351789593697,0.03076883964240551,0.9984040260314941,-0.02976241707801819,-0.03418662026524544,0.03368561714887619
546.0,0.0,0.0,0.0,0.0,0.0,0.0,0.013130034320056438,0.0019129811553284526,0.0176047682762146,0.9984041452407837,-0.02867877297103405,-0.03210557624697685,0.036554619669914246
547.0,0.0,0.0,0.0,0.0,0.0,0.0,0.010906237177550793,-0.004321706015616655,0.0010470090201124549,0.9983798861503601,-0.027934040874242783,-0.03053930215537548,0.03903668373823166
548.0,0.0,0.0,0.0,0.0,0.0,0.0,0.023747989907860756,-0.026420073583722115,-0.002836441621184349,0.9981948733329773,-0.029353035613894463,-0.029527952894568443,0.04327966272830963
549.0,0.0,0.0,0.0,0.0,0.0,0.0,0.008205842226743698,-0.014636825770139694,-0.04437512531876564,0.9979045391082764,-0.03218154236674309,-0.029072221368551254,0.048018425703048706
550.0,0.0,0.0,0.0,0.0,0.0,0.0,0.006283335853368044,0.01458418183028698,-0.05137849971652031,0.9976204037666321,-0.03366532176733017,-0.03053855709731579,0.051837414503097534
551.0,0.0,0.0,0.0,0.0,0.0,0.0,0.014136227779090405,0.026151448488235474,-0.010429034009575844,0.99741131067276,-0.033559877425432205,-0.03331572934985161,0.05416492000222206
552.0,0.0,0.0,0.0,0.0,0.0,0.0,0.04108203947544098,0.02803419902920723,0.018633659929037094,0.9972355961799622,-0.03234086185693741,-0.034819796681404114,0.05712275952100754
553.0,0.0,0.0,0.0,0.0,0.0,0.0,0.016927309334278107,0.03537163883447647,-0.0023269755765795708,0.9971209764480591,-0.03101489134132862,-0.03516652062535286,0.05958351120352745
554.0,0.0,0.0,0.0,0.0,0.0,0.0,0.011896515265107155,0.020663630217313766,0.0005732554127462208,0.9970243573188782,-0.031158320605754852,-0.03646951541304588,0.06034020334482193
555.0,0.0,0.0,0.0,0.0,0.0,0.0,0.017626740038394928,0.01132358517497778,0.010130257345736027,0.9969567060470581,-0.03259005397558212,-0.03962773457169533,0.058690980076789856
556.0,0.0,0.0,0.0,0.0,0.0,0.0,0.02365882322192192,0.030683055520057678,-0.0021360251121222973,0.9969515800476074,-0.0348329171538353,-0.04437620937824249,0.05389890447258949
557.0,0.0,0.0,0.0,0.0,0.0,0.0,0.04011351987719536,-0.01398402452468872,-0.02100517600774765,0.9967387318611145,-0.03738681599497795,-0.05185486748814583,0.04924243688583374
558.0,0.0,0.0,0.0,0.0,0.0,0.0,0.09347894042730331,-0.0025605945847928524,-0.013501360081136227,0.9965022206306458,-0.03692858666181564,-0.05900631472468376,0.046229928731918335
559.0,0.0,0.0,0.0,0.0,0.0,0.0,-0.006335832178592682,0.09253763407468796,0.1329616755247116,0.9967795610427856,-0.02861899882555008,-0.06354623287916183,0.0396629273891449
560.0,0.0,0.0,0.0,0.0,0.0,0.0,-0.014476106502115726,0.0665694996714592,0.15972207486629486,0.9971761107444763,-0.011578395031392574,-0.0652209147810936,0.03538508340716362
561.0,0.0,0.0,0.0,0.0,0.0,0.0,0.03569991886615753,-0.01072906143963337,0.007823055610060692,0.9971792697906494,0.009501419961452484,-0.06643731892108917,0.03360513970255852
562.0,0.0,0.0,0.0,0.0,0.0,0.0,-0.05553393065929413,-0.184452086687088,-0.10906253010034561,0.9972406625747681,0.02253660187125206,-0.06734948605298996,0.021616093814373016
563.0,0.0,0.0,0.0,0.0,0.0,0.0,-0.01892193593084812,-0.040292415767908096,-0.06356333941221237,0.9968342781066895,0.03586762771010399,-0.07086420059204102,0.0036302886437624693
564.0,0.0,0.0,0.0,0.0,0.0,0.0,-0.03749117627739906,-0.1535799652338028,-0.09265392273664474,0.996349036693573,0.04552045464515686,-0.07096806913614273,-0.013424177654087543
565.0,0.0,0.0,0.0,0.0,0.0,0.0,-0.007837879471480846,-0.1777501255273819,-0.10883600264787674,0.9965548515319824,0.038632310926914215,-0.07024096697568893,-0.02125607803463936
566.0,0.0,0.0,0.0,0.0,0.0,0.0,0.10716655105352402,-0.0840788409113884,-0.11919478327035904,0.9967262148857117,0.027154970914125443,-0.07157904654741287,-0.025991937145590782
567.0,0.0,0.0,0.0,0.0,0.0,0.0,0.12127305567264557,-0.08211759477853775,-0.11558189243078232,0.9967462420463562,0.011277220211923122,-0.07261218130588531,-0.03312280774116516
568.0,0.0,0.0,0.0,0.0,0.0,0.0,0.024797797203063965,-0.0005951104103587568,-0.01889800652861595,0.9965930581092834,-0.00471971882507205,-0.07289228588342667,-0.03829164430499077
569.0,0.0,0.0,0.0,0.0,0.0,0.0,0.010442809201776981,0.04094313457608223,0.06927201896905899,0.9966720938682556,-0.012346806935966015,-0.0744566023349762,-0.03080468252301216
570.0,0.0,0.0,0.0,0.0,0.0,0.0,0.03535798564553261,0.008539221249520779,0.08322525769472122,0.9968069195747375,-0.016074083745479584,-0.07682883739471436,-0.0146586699411273
571.0,0.0,0.0,0.0,0.0,0.0,0.0,-0.014856279827654362,0.027460847049951553,0.033631835132837296,0.9968549013137817,-0.020164668560028076,-0.0765383169054985,0.003933243453502655
572.0,0.0,0.0,0.0,0.0,0.0,0.0,-0.030136611312627792,0.01688922941684723,0.020914660766720772,0.9965195059776306,-0.02509233169257641,-0.07625120878219604,0.022474883124232292
573.0,0.0,0.0,0.0,0.0,0.0,0.0,-0.027841687202453613,0.0034319928381592035,0.02564217522740364,0.9960047006607056,-0.029787855222821236,-0.07542064040899277,0.03739987313747406
574.0,0.0,0.0,0.0,0.0,0.0,0.0,-0.041938669979572296,0.014677762053906918,0.009354347363114357,0.9953965544700623,-0.0365629680454731,-0.07473007589578629,0.0475853867828846
575.0,0.0,0.0,0.0,0.0,0.0,0.0,-0.008633025921881199,-0.004164678510278463,-0.02071942761540413,0.9947357773780823,-0.042797334492206573,-0.07533912360668182,0.054706282913684845
576.0,0.0,0.0,0.0,0.0,0.0,0.0,-0.014058819971978664,-0.010339774191379547,-0.060137346386909485,0.9940599203109741,-0.050739847123622894,-0.07652987539768219,0.05842484533786774
577.0,0.0,0.0,0.0,0.0,0.0,0.0,-0.007949586026370525,0.0011262890184298158,-0.0231635682284832,0.9933881759643555,-0.05875760689377785,-0.07841940969228745,0.05981434881687164
578.0,0.0,0.0,0.0,0.0,0.0,0.0,-0.0550154410302639,0.04721323400735855,-0.00038308848161250353,0.9931155443191528,-0.06253288686275482,-0.08049650490283966,0.05771461874246597
579.0,0.0,0.0,0.0,0.0,0.0,0.0,-0.05653669685125351,0.050575364381074905,-0.0022762459702789783,0.9929845333099365,-0.06390099227428436,-0.08299040049314499,0.054872430860996246
580.0,0.0,0.0,0.0,0.0,0.0,0.0,-0.03388381004333496,0.03527659922838211,0.02864750660955906,0.9931743144989014,-0.06255435198545456,-0.08386532962322235,0.05155790224671364
581.0,0.0,0.0,0.0,0.0,0.0,0.0,-0.06504091620445251,0.053583793342113495,0.02831472083926201,0.9937498569488525,-0.05928265303373337,-0.08225412666797638,0.046696554869413376
582.0,0.0,0.0,0.0,0.0,0.0,0.0,-0.04790574684739113,0.023668020963668823,0.018802164122462273,0.9943195581436157,-0.05639839544892311,-0.07971451431512833,0.04234835505485535
583.0,0.0,0.0,0.0,0.0,0.0,0.0,-0.016426950693130493,0.013681499287486076,-0.0012857014080509543,0.9949331283569336,-0.05224926397204399,-0.07681671530008316,0.03843238577246666
584.0,0.0,0.0,0.0,0.0,0.0,0.0,-0.016489235684275627,0.017131809145212173,-0.015508695505559444,0.9956115484237671,-0.046416617929935455,-0.07317741960287094,0.03532768785953522
585.0,0.0,0.0,0.0,0.0,0.0,0.0,-0.010136250406503677,-0.0054269712418317795,-0.0038356310687959194,0.9962294697761536,-0.040452565997838974,-0.06982593983411789,0.031848493963479996
586.0,0.0,0.0,0.0,0.0,0.0,0.0,0.002132891211658716,0.0018787316512316465,0.00846857950091362,0.9967182874679565,-0.034681446850299835,-0.06732933968305588,0.02857491746544838
587.0,0.0,0.0,0.0,0.0,0.0,0.0,0.0008608567295596004,0.002828463912010193,-0.010346206836402416,0.9970942735671997,-0.029174042865633965,-0.06550036370754242,0.02572166919708252
588.0,0.0,0.0,0.0,0.0,0.0,0.0,0.0021375513169914484,-0.026399197056889534,-0.01794775016605854,0.9973282814025879,-0.026261135935783386,-0.06435658037662506,0.02247244119644165
589.0,0.0,0.0,0.0,0.0,0.0,0.0,0.015176704153418541,-0.022124702110886574,-0.006363776046782732,0.9974002242088318,-0.027563657611608505,-0.06370725482702255,0.01934926025569439
590.0,0.0,0.0,0.0,0.0,0.0,0.0,0.009439713321626186,-0.001987196272239089,-0.009059073403477669,0.9974197745323181,-0.03028995729982853,-0.06300205737352371,0.016333334147930145
591.0,0.0,0.0,0.0,0.0,0.0,0.0,-0.0005183914327062666,0.012081656605005264,0.001118336571380496,0.9974781274795532,-0.03238982707262039,-0.06119067221879959,0.01560760848224163
592.0,0.0,0.0,0.0,0.0,0.0,0.0,0.016750983893871307,0.017543187364935875,-0.01274155918508768,0.9975171089172363,-0.03327525034546852,-0.059944845736026764,0.016077643260359764
593.0,0.0,0.0,0.0,0.0,0.0,0.0,0.02637198194861412,0.03313877433538437,0.007633618079125881,0.9975842237472534,-0.03291577845811844,-0.059193383902311325,0.015436001121997833
594.0,0.0,0.0,0.0,0.0,0.0,0.0,0.02554737590253353,0.029871363192796707,0.024929603561758995,0.9976685643196106,-0.030839597806334496,-0.05865289270877838,0.01630232483148575
595.0,0.0,0.0,0.0,0.0,0.0,0.0,0.023702917620539665,0.0277764443308115,0.020202990621328354,0.997769832611084,-0.027866315096616745,-0.057785071432590485,0.018425628542900085
596.0,0.0,0.0,0.0,0.0,0.0,0.0,0.023893536999821663,0.017767861485481262,0.015033355914056301,0.9978671073913574,-0.025294190272688866,-0.0570572167634964,0.019124764949083328
597.0,0.0,0.0,0.0,0.0,0.0,0.0,0.0245908685028553,0.017078299075365067,0.013408062979578972,0.997952401638031,-0.0222042016685009,-0.056694433093070984,0.01958138309419155
598.0,0.0,0.0,0.0,0.0,0.0,0.0,0.015651173889636993,0.012589825317263603,0.008847557008266449,0.9980893135070801,-0.018235154449939728,-0.05622986704111099,0.017976924777030945
599.0,0.0,0.0,0.0,0.0,0.0,0.0,-0.019517838954925537,0.06562415510416031,0.05023131147027016,0.9983986616134644,-0.013613957911729813,-0.0541984997689724,0.00878757331520319
600.0,0.0,0.0,0.0,0.0,0.0,0.0,0.003662778763100505,0.005886818282306194,0.03317294642329216,0.9986161589622498,-0.008349670097231865,-0.051923491060733795,0.000245119706960395
601.0,0.0,0.0,0.0,0.0,0.0,0.0,-0.005729545373469591,-0.03420446440577507,-0.00123048375826329,0.9987435340881348,-0.003135334700345993,-0.0493769533932209,-0.007972926832735538
602.0,0.0,0.0,0.0,0.0,0.0,0.0,0.0010946845868602395,-0.03394357115030289,-0.008887480944395065,0.9988594651222229,0.000563328736461699,-0.045644357800483704,-0.013987245969474316
603.0,0.0,0.0,0.0,0.0,0.0,0.0,-0.010803374461829662,-0.011547229252755642,-0.0163558479398489,0.9988868236541748,0.003727109171450138,-0.041907332837581635,-0.021329563111066818
604.0,0.0,0.0,0.0,0.0,0.0,0.0,-0.014361346140503883,-0.03632381930947304,-0.015104834921658039,0.9988783597946167,0.006108414381742477,-0.0379212312400341,-0.027689650654792786
605.0,0.0,0.0,0.0,0.0,0.0,0.0,0.030354002490639687,-0.019322404637932777,-0.018774792551994324,0.9988082051277161,0.009222369641065598,-0.035627976059913635,-0.032057762145996094
606.0,0.0,0.0,0.0,0.0,0.0,0.0,0.034569788724184036,-0.026902906596660614,-0.023958778008818626,0.9986056685447693,0.011270550079643726,-0.035227105021476746,-0.037663426250219345
607.0,0.0,0.0,0.0,0.0,0.0,0.0,-0.003640457522124052,-0.04161858186125755,-0.017179816961288452,0.9983057975769043,0.012468615546822548,-0.03557097166776657,-0.04432499036192894
608.0,0.0,0.0,0.0,0.0,0.0,0.0,-0.004882604815065861,-0.029621820896863937,-0.014412406831979752,0.9978114366531372,0.012659072875976562,-0.037084437906742096,-0.05325997620820999
609.0,0.0,0.0,0.0,0.0,0.0,0.0,0.021135767921805382,-0.028625156730413437,-0.027193037793040276,0.9972128868103027,0.01153036579489708,-0.03925850987434387,-0.0623868927359581
610.0,0.0,0.0,0.0,0.0,0.0,0.0,-0.06061740964651108,-0.003527785185724497,0.005922801326960325,0.9965589046478271,0.012525927275419235,-0.03831472247838974,-0.07242048531770706
611.0,0.0,0.0,0.0,0.0,0.0,0.0,-0.05866912007331848,0.00742741022258997,0.008348854258656502,0.9960632920265198,0.013938563875854015,-0.036723386496305466,-0.0794646292924881
612.0,0.0,0.0,0.0,0.0,0.0,0.0,0.024998247623443604,0.0009773614583536983,-0.0067942203022539616,0.9956765174865723,0.014314034953713417,-0.0371481254696846,-0.08392395079135895
613.0,0.0,0.0,0.0,0.0,0.0,0.0,0.03361028805375099,-0.019298875704407692,-0.016900843009352684,0.9952455163002014,0.01528027094900608,-0.0380670428276062,-0.08833692222833633
614.0,0.0,0.0,0.0,0.0,0.0,0.0,0.08423537760972977,-0.03210821375250816,0.011472762562334538,0.9949817657470703,0.018655139952898026,-0.03965720906853676,-0.08994591981172562
615.0,0.0,0.0,0.0,0.0,0.0,0.0,0.08352598547935486,-0.02590874396264553,0.010092969052493572,0.9947137832641602,0.02353331632912159,-0.04147959128022194,-0.09093870967626572
616.0,0.0,0.0,0.0,0.0,0.0,0.0,0.0481259860098362,-0.02841261215507984,-0.0035375484731048346,0.9944456815719604,0.027457483112812042,-0.04210621491074562,-0.09246791154146194
617.0,0.0,0.0,0.0,0.0,0.0,0.0,0.049435850232839584,-0.025229021906852722,0.012081931345164776,0.9942784905433655,0.030599916353821754,-0.04150926694273949,-0.09354229271411896
618.0,0.0,0.0,0.0,0.0,0.0,0.0,0.021818295121192932,-0.017509188503026962,0.022253097966313362,0.9940695762634277,0.0345938540995121,-0.04189123958349228,-0.09419745206832886
619.0,0.0,0.0,0.0,0.0,0.0,0.0,0.012273960746824741,-0.013179237954318523,0.0027960781008005142,0.9941043257713318,0.03763136640191078,-0.04176083207130432,-0.09271783381700516
620.0,0.0,0.0,0.0,0.0,0.0,0.0,0.007425915449857712,-0.01335327047854662,-0.010226896964013577,0.9942970871925354,0.03978561982512474,-0.04053995758295059,-0.09025953710079193
621.0,0.0,0.0,0.0,0.0,0.0,0.0,0.04077894613146782,-0.02530498057603836,-0.003308333223685622,0.9947475790977478,0.03900749608874321,-0.04114101082086563,-0.08522213995456696
622.0,0.0,0.0,0.0,0.0,0.0,0.0,0.04067579284310341,-0.018710795789957047,0.005677848123013973,0.995338499546051,0.036866195499897,-0.04235335811972618,-0.07841085642576218
623.0,0.0,0.0,0.0,0.0,0.0,0.0,0.03065459430217743,-0.0145121980458498,0.0017600731225684285,0.9958411455154419,0.03292644023895264,-0.04512304067611694,-0.07197406888008118
624.0,0.0,0.0,0.0,0.0,0.0,0.0,-0.037652697414159775,-0.003096139756962657,-0.002988897729665041,0.9962178468704224,0.028035160154104233,-0.047095347195863724,-0.06742557883262634
625.0,0.0,0.0,0.0,0.0,0.0,0.0,-0.05144083499908447,0.0041245026513934135,-0.021629082038998604,0.9964293241500854,0.02415545843541622,-0.04776803404092789,-0.0652974396944046
626.0,0.0,0.0,0.0,0.0,0.0,0.0,-0.030063312500715256,0.010491469874978065,-0.016969988122582436,0.9964324831962585,0.02283637598156929,-0.04854979366064072,-0.06514815241098404
627.0,0.0,0.0,0.0,0.0,0.0,0.0,-0.025541245937347412,0.0002310052077518776,0.0050029088743031025,0.9963542819023132,0.023224448785185814,-0.047774478793144226,-0.06675682961940765
628.0,0.0,0.0,0.0,0.0,0.0,0.0,0.021367715671658516,0.008325058966875076,0.002833044156432152,0.9962772727012634,0.022759703919291496,-0.04783709719777107,-0.06800954788923264
629.0,0.0,0.0,0.0,0.0,0.0,0.0,0.01844073459506035,0.004765789024531841,-0.01183163933455944,0.9961252212524414,0.022626493126153946,-0.04843025282025337,-0.0698368102312088
630.0,0.0,0.0,0.0,0.0,0.0,0.0,0.020722365006804466,-0.0020512582268565893,-0.0066371336579322815,0.9960463047027588,0.022494520992040634,-0.04923417419195175,-0.07043837010860443
631.0,0.0,0.0,0.0,0.0,0.0,0.0,0.050187114626169205,0.0019562970846891403,0.00783514603972435,0.9959787130355835,0.021937130019068718,-0.05108102783560753,-0.07025223225355148
632.0,0.0,0.0,0.0,0.0,0.0,0.0,0.030097490176558495,0.002091672969982028,0.003441606182605028,0.9958366751670837,0.01991136744618416,-0.05422259867191315,-0.0705161914229393
633.0,0.0,0.0,0.0,0.0,0.0,0.0,0.0037943420466035604,0.009247452951967716,0.009637346491217613,0.9956027865409851,0.018510207533836365,-0.05797070264816284,-0.07121574878692627
634.0,0.0,0.0,0.0,0.0,0.0,0.0,-0.01651792787015438,0.016541896387934685,0.01750742457807064,0.9952946305274963,0.017840825021266937,-0.06164928898215294,-0.07259215414524078
635.0,0.0,0.0,0.0,0.0,0.0,0.0,-0.05025014653801918,0.020016301423311234,0.05021284893155098,0.9949423670768738,0.017773328348994255,-0.06410582363605499,-0.07525862008333206
636.0,0.0,0.0,0.0,0.0,0.0,0.0,-0.06247493997216225,0.0128133250400424,0.03832433745265007,0.9945517778396606,0.01818745769560337,-0.06570711731910706,-0.07885493338108063
637.0,0.0,0.0,0.0,0.0,0.0,0.0,-0.04777685925364494,-0.005811612121760845,0.0026115404907613993,0.9942183494567871,0.01844378001987934,-0.06714054197072983,-0.08173882961273193
638.0,0.0,0.0,0.0,0.0,0.0,0.0,-0.018678758293390274,-0.010290581732988358,-0.015502563677728176,0.9941301941871643,0.017289264127612114,-0.06897846609354019,-0.08153773099184036
639.0,0.0,0.0,0.0,0.0,0.0,0.0,0.015847280621528625,0.0023062722757458687,-0.022582238540053368,0.9941473603248596,0.015284670516848564,-0.07221493124961853,-0.0788850337266922
640.0,0.0,0.0,0.0,0.0,0.0,0.0,-0.0765848457813263,0.0009729457669891417,0.03747034817934036,0.994002640247345,0.014658430591225624,-0.07309026271104813,-0.08000631630420685
641.0,0.0,0.0,0.0,0.0,0.0,0.0,-0.10228981077671051,-0.009688961319625378,0.028737662360072136,0.9939446449279785,0.014767803251743317,-0.07231641560792923,-0.08140049129724503
642.0,0.0,0.0,0.0,0.0,0.0,0.0,-0.028259817510843277,0.0019120642682537436,0.0006676012999378145,0.9939787983894348,0.01346900500357151,-0.0730518102645874,-0.08054174482822418
643.0,0.0,0.0,0.0,0.0,0.0,0.0,-0.017537347972393036,0.027551569044589996,0.029476771131157875,0.9939082264900208,0.013753850944340229,-0.07333941757678986,-0.08110906183719635
644.0,0.0,0.0,0.0,0.0,0.0,0.0,-0.024120861664414406,0.010600678622722626,0.03174137324094772,0.9938817620277405,0.015399656258523464,-0.07264386117458344,-0.08176244795322418
645.0,0.0,0.0,0.0,0.0,0.0,0.0,0.005894127767533064,-0.010117952711880207,-0.0137193463742733,0.9938111305236816,0.017061535269021988,-0.07220091670751572,-0.08267012238502502
646.0,0.0,0.0,0.0,0.0,0.0,0.0,0.040867727249860764,-0.012136400677263737,-0.020490441471338272,0.9937582015991211,0.018834933638572693,-0.07199714332818985,-0.08310505002737045
647.0,0.0,0.0,0.0,0.0,0.0,0.0,-0.017795782536268234,-0.004210260696709156,-0.013220456428825855,0.9936637878417969,0.02128833904862404,-0.06942718476057053,-0.0857827216386795
648.0,0.0,0.0,0.0,0.0,0.0,0.0,-0.07342956960201263,-0.010673897340893745,0.009753048419952393,0.993838369846344,0.023442348465323448,-0.06422168016433716,-0.08723931014537811
649.0,0.0,0.0,0.0,0.0,0.0,0.0,-0.0078850407153368,-0.021731188520789146,-0.01584644988179207,0.9941403269767761,0.02625920996069908,-0.05994128808379173,-0.08603528141975403
650.0,0.0,0.0,0.0,0.0,0.0,0.0,-0.011135542765259743,-0.02232792228460312,-0.05103044956922531,0.9943503737449646,0.027533214539289474,-0.05572840943932533,-0.08604364097118378
651.0,0.0,0.0,0.0,0.0,0.0,0.0,-0.015616382472217083,-0.014122446067631245,-0.03802323713898659,0.994539201259613,0.026624949648976326,-0.05198722332715988,-0.086489237844944
652.0,0.0,0.0,0.0,0.0,0.0,0.0,-0.0035293458495289087,-0.011748576536774635,-0.0189672764390707,0.9947415590286255,0.025885459035634995,-0.0488620288670063,-0.08620303124189377
653.0,0.0,0.0,0.0,0.0,0.0,0.0,0.03638136759400368,-0.008974633179605007,-0.006537115201354027,0.9950045943260193,0.024773145094513893,-0.046765826642513275,-0.08464784920215607
654.0,0.0,0.0,0.0,0.0,0.0,0.0,0.04907060042023659,0.004450743552297354,-0.017784371972084045,0.9952253103256226,0.02285752072930336,-0.04541990906000137,-0.08331158012151718
655.0,0.0,0.0,0.0,0.0,0.0,0.0,0.038322169333696365,-0.005045345053076744,-0.03293374553322792,0.9954557418823242,0.020992303267121315,-0.04565177485346794,-0.08088202774524689
656.0,0.0,0.0,0.0,0.0,0.0,0.0,0.021953662857413292,-0.003345751203596592,-0.031575459986925125,0.9955839514732361,0.018672198057174683,-0.04698146507143974,-0.0790959894657135
657.0,0.0,0.0,0.0,0.0,0.0,0.0,0.00992945209145546,0.009818796068429947,-0.018381109461188316,0.9955382943153381,0.0178487878292799,-0.049175702035427094,-0.07853034883737564
658.0,0.0,0.0,0.0,0.0,0.0,0.0,0.003295643487945199,0.022809075191617012,0.011905607767403126,0.9954721331596375,0.018802741542458534,-0.05115440860390663,-0.07787714153528214
659.0,0.0,0.0,0.0,0.0,0.0,0.0,-0.0125304339453578,0.024195581674575806,0.00587573554366827,0.9953957200050354,0.020377960056066513,-0.053305644541978836,-0.0770072415471077
660.0,0.0,0.0,0.0,0.0,0.0,0.0,-0.017780590802431107,0.03403257951140404,0.011538769118487835,0.9954397082328796,0.021738216280937195,-0.05530121922492981,-0.07462408393621445
661.0,0.0,0.0,0.0,0.0,0.0,0.0,0.009933987632393837,0.04338524118065834,0.053388629108667374,0.9955819249153137,0.02266603149473667,-0.05758446082472801,-0.07061613351106644
662.0,0.0,0.0,0.0,0.0,0.0,0.0,0.010664794594049454,0.038898780941963196,0.04814236983656883,0.9958274364471436,0.021394900977611542,-0.05935680493712425,-0.06593619287014008
663.0,0.0,0.0,0.0,0.0,0.0,0.0,0.04554137587547302,0.036691825836896896,0.07516549527645111,0.9961773753166199,0.018170887604355812,-0.061210714280605316,-0.059603918343782425
664.0,0.0,0.0,0.0,0.0,0.0,0.0,0.0374276377260685,0.01862003654241562,0.040486402809619904,0.996484100818634,0.014091378077864647,-0.06314380466938019,-0.05322994291782379
665.0,0.0,0.0,0.0,0.0,0.0,0.0,-0.034743085503578186,-0.010979628190398216,-0.003242488019168377,0.9967344403266907,0.009272463619709015,-0.06344421207904816,-0.04908442497253418
666.0,0.0,0.0,0.0,0.0,0.0,0.0,0.007250912953168154,-0.02687808685004711,-0.005865950603038073,0.9969111680984497,0.004889000207185745,-0.0656273365020752,-0.04285556450486183
667.0,0.0,0.0,0.0,0.0,0.0,0.0,0.0153052331879735,-0.031043482944369316,-0.03602724149823189,0.9969920516014099,0.0004917003680020571,-0.06898801028728485,-0.03530965372920036
668.0,0.0,0.0,0.0,0.0,0.0,0.0,0.0052153742872178555,-0.027242561802268028,-0.04510977491736412,0.9970346093177795,-0.005760488100349903,-0.07193227112293243,-0.026728136464953423
669.0,0.0,0.0,0.0,0.0,0.0,0.0,-0.004006862640380859,-0.0257981326431036,-0.03821690380573273,0.9969921708106995,-0.012010338716208935,-0.07477743923664093,-0.01641939766705036
670.0,0.0,0.0,0.0,0.0,0.0,0.0,-0.026202933862805367,-0.02935388684272766,-0.026152826845645905,0.9967502951622009,-0.019711097702383995,-0.0778866857290268,-0.005749168805778027
671.0,0.0,0.0,0.0,0.0,0.0,0.0,-0.04557645320892334,-0.0016549313440918922,0.0016081586945801973,0.9963713884353638,-0.027663061395287514,-0.0804051086306572,0.0037261811085045338
672.0,0.0,0.0,0.0,0.0,0.0,0.0,-0.04489310085773468,0.01089034229516983,0.007946680299937725,0.9959182739257812,-0.034772343933582306,-0.08253969252109528,0.011088091880083084
673.0,0.0,0.0,0.0,0.0,0.0,0.0,-0.04751255735754967,0.019050873816013336,0.003931803163141012,0.9954314231872559,-0.0411623939871788,-0.08427271991968155,0.017855742946267128
674.0,0.0,0.0,0.0,0.0,0.0,0.0,-0.04137285053730011,0.020616937428712845,0.002279235515743494,0.9949401617050171,-0.04692968726158142,-0.08533482998609543,0.024648794904351234
675.0,0.0,0.0,0.0,0.0,0.0,0.0,-0.04195442423224449,0.016297204419970512,-0.00885570514947176,0.9946467280387878,-0.05303868278861046,-0.08354586362838745,0.02973196841776371
676.0,0.0,0.0,0.0,0.0,0.0,0.0,-0.04580681025981903,0.01400109101086855,-0.0037541904021054506,0.9942120909690857,-0.0585690438747406,-0.08332175761461258,0.03417849913239479
677.0,0.0,0.0,0.0,0.0,0.0,0.0,-0.051420483738183975,0.012706303037703037,-0.007033318281173706,0.9939318299293518,-0.06227453052997589,-0.08281077444553375,0.036941125988960266
678.0,0.0,0.0,0.0,0.0,0.0,0.0,-0.05077545717358589,-0.0020254570990800858,0.010693223215639591,0.9936906099319458,-0.06680022925138474,-0.08115385472774506,0.039110515266656876
679.0,0.0,0.0,0.0,0.0,0.0,0.0,-0.024268751963973045,-0.015737855806946754,0.026287276297807693,0.9932090044021606,-0.07530529052019119,-0.07840091735124588,0.04145544394850731
680.0,0.0,0.0,0.0,0.0,0.0,0.0,-0.028766751289367676,-0.054856859147548676,0.021870896220207214,0.9920340180397034,-0.09202031046152115,-0.07453320175409317,0.04293852671980858
681.0,0.0,0.0,0.0,0.0,0.0,0.0,-0.0471661239862442,-0.008955301716923714,0.030703827738761902,0.98984694480896,-0.11634163558483124,-0.0687679648399353,0.04397726431488991
682.0,0.0,0.0,0.0,0.0,0.0,0.0,-0.015593083575367928,0.1288396567106247,0.06989555805921555,0.9870926737785339,-0.1391933411359787,-0.06319335103034973,0.047706153243780136
683.0,0.0,0.0,0.0,0.0,0.0,0.0,-0.032781463116407394,0.18918955326080322,0.041053224354982376,0.9851046204566956,-0.1533796191215515,-0.056165024638175964,0.053723596036434174
684.0,0.0,0.0,0.0,0.0,0.0,0.0,0.08447887748479843,0.09822209179401398,-0.05043679475784302,0.9837427735328674,-0.15956330299377441,-0.04920445382595062,0.06605342775583267
685.0,0.0,0.0,0.0,0.0,0.0,0.0,0.07790066301822662,0.12147675454616547,-0.08022436499595642,0.9846509099006653,-0.1506238579750061,-0.04599178582429886,0.0752188190817833
686.0,0.0,0.0,0.0,0.0,0.0,0.0,-0.0026356896851211786,0.14019711315631866,0.07241853326559067,0.9886536002159119,-0.12372033298015594,-0.04517824575304985,0.07220593094825745
687.0,0.0,0.0,0.0,0.0,0.0,0.0,-0.06732697039842606,0.06432702392339706,0.09019847959280014,0.9927920699119568,-0.09290659427642822,-0.03921740874648094,0.06474489718675613
688.0,0.0,0.0,0.0,0.0,0.0,0.0,-0.004471281077712774,-0.074370838701725,-0.07335393130779266,0.9951095581054688,-0.07158879190683365,-0.032405491918325424,0.05985477566719055
689.0,0.0,0.0,0.0,0.0,0.0,0.0,0.10283993184566498,-0.13956846296787262,-0.11038388311862946,0.996391236782074,-0.05493994429707527,-0.033451858907938004,0.05536339059472084
690.0,0.0,0.0,0.0,0.0,0.0,0.0,0.10177608579397202,-0.13423943519592285,0.009017604403197765,0.9969801306724548,-0.040387701243162155,-0.03642888739705086,0.05542440339922905
691.0,0.0,0.0,0.0,0.0,0.0,0.0,0.08277233690023422,-0.16322095692157745,0.07106749713420868,0.9960911870002747,-0.03457443416118622,-0.0367174930870533,0.07251386344432831
692.0,0.0,0.0,0.0,0.0,0.0,0.0,0.023538822308182716,-0.06274344027042389,0.016406401991844177,0.9934492707252502,-0.0450904555618763,-0.03749426081776619,0.09807443618774414
693.0,0.0,0.0,0.0,0.0,0.0,0.0,0.0778098851442337,0.06937572360038757,-0.0292954184114933,0.9907086491584778,-0.04932401329278946,-0.04370935261249542,0.11895818263292313
694.0,0.0,0.0,0.0,0.0,0.0,0.0,-0.036464497447013855,0.019425654783844948,-0.028868215158581734,0.989201545715332,-0.0479283407330513,-0.04910225793719292,0.12949664890766144
695.0,0.0,0.0,0.0,0.0,0.0,0.0,-0.09366212040185928,0.04696018621325493,-0.019531022757291794,0.9883431196212769,-0.04846411198377609,-0.05156534165143967,0.13479816913604736
696.0,0.0,0.0,0.0,0.0,0.0,0.0,-0.061261650174856186,0.027204133570194244,0.010753478854894638,0.9878187775611877,-0.050780124962329865,-0.05214593559503555,0.1375298947095871
697.0,0.0,0.0,0.0,0.0,0.0,0.0,-0.04269620403647423,0.02408790960907936,0.028893833979964256,0.9874383807182312,-0.05633009225130081,-0.049340248107910156,0.1391206979751587
698.0,0.0,0.0,0.0,0.0,0.0,0.0,0.009550977498292923,0.03966861218214035,0.017089035362005234,0.9867575764656067,-0.06107597425580025,-0.04599654674530029,0.14304198324680328
699.0,0.0,0.0,0.0,0.0,0.0,0.0,0.024365436285734177,0.028399070724844933,-0.015359733253717422,0.9856370687484741,-0.06430531293153763,-0.04308098554611206,0.1500893235206604
700.0,0.0,0.0,0.0,0.0,0.0,0.0,0.03911940008401871,-0.022957419976592064,-0.01704992912709713,0.9843569993972778,-0.07041298598051071,-0.03952930122613907,0.15659207105636597
701.0,0.0,0.0,0.0,0.0,0.0,0.0,0.02301337942481041,0.00018499215366318822,-0.032180219888687134,0.9833391308784485,-0.07667078822851181,-0.03745124116539955,0.1605050414800644
702.0,0.0,0.0,0.0,0.0,0.0,0.0,-0.028627833351492882,0.05748128518462181,-0.021578557789325714,0.9836586117744446,-0.07434405386447906,-0.03665066510438919,0.15981897711753845
703.0,0.0,0.0,0.0,0.0,0.0,0.0,-0.02720612660050392,0.001622562063857913,-0.029175186529755592,0.9843742847442627,-0.07038504630327225,-0.03567088022828102,0.15741603076457977
704.0,0.0,0.0,0.0,0.0,0.0,0.0,0.03818368911743164,-0.024620121344923973,-0.04262511804699898,0.9849463105201721,-0.06714367866516113,-0.03576657176017761,0.15521898865699768
705.0,0.0,0.0,0.0,0.0,0.0,0.0,0.03333898261189461,-0.02099505253136158,-0.054074663668870926,0.9864916205406189,-0.06181851029396057,-0.037943772971630096,0.14686475694179535
706.0,0.0,0.0,0.0,0.0,0.0,0.0,0.0469936765730381,-0.03492451831698418,0.001310456544160843,0.9876778721809387,-0.05787527561187744,-0.0408908873796463,0.13952744007110596
707.0,0.0,0.0,0.0,0.0,0.0,0.0,0.029294418171048164,-0.018316125497221947,-0.005522531922906637,0.9883707165718079,-0.0558999665081501,-0.0430934876203537,0.13469789922237396
708.0,0.0,0.0,0.0,0.0,0.0,0.0,0.015285172499716282,0.01084818597882986,-0.03688680753111839,0.9891274571418762,-0.053480446338653564,-0.04580700770020485,0.12910312414169312
709.0,0.0,0.0,0.0,0.0,0.0,0.0,0.008717121556401253,0.029974794015288353,-0.007357100024819374,0.9900482892990112,-0.04996557533740997,-0.048514917492866516,0.12228725850582123
710.0,0.0,0.0,0.0,0.0,0.0,0.0,0.0037123803049325943,0.05710592493414879,0.02734384685754776,0.9909796118736267,-0.04491811990737915,-0.04974222928285599,0.11603929102420807
711.0,0.0,0.0,0.0,0.0,0.0,0.0,0.0022875098511576653,0.04196489602327347,0.017675507813692093,0.9917985200881958,-0.039317816495895386,-0.049790412187576294,0.11094781011343002
712.0,0.0,0.0,0.0,0.0,0.0,0.0,0.037522509694099426,0.02445785142481327,0.03263113647699356,0.9924508333206177,-0.034345950931310654,-0.04938611388206482,0.10687502473592758
713.0,0.0,0.0,0.0,0.0,0.0,0.0,0.022354016080498695,0.04505253955721855,0.034562595188617706,0.9930984973907471,-0.029123960062861443,-0.04811979830265045,0.10291738063097
714.0,0.0,0.0,0.0,0.0,0.0,0.0,-0.0022716738749295473,0.021225377917289734,0.020416952669620514,0.9938700795173645,-0.02224247343838215,-0.046065740287303925,0.0980035811662674
715.0,0.0,0.0,0.0,0.0,0.0,0.0,0.00682394253090024,-0.011324570514261723,-3.945591379306279e-05,0.9946700930595398,-0.015082055702805519,-0.04306933656334877,0.09245916455984116
716.0,0.0,0.0,0.0,0.0,0.0,0.0,0.024238495156168938,-0.035946477204561234,-0.024708746001124382,0.9953687191009521,-0.00891844742000103,-0.040589869022369385,0.0866766944527626
717.0,0.0,0.0,0.0,0.0,0.0,0.0,0.03896498680114746,-0.05908526852726936,-0.028090203180909157,0.9957250952720642,-0.007008180022239685,-0.03957032412290573,0.08316168189048767
718.0,0.0,0.0,0.0,0.0,0.0,0.0,0.026669099926948547,-0.013444822281599045,0.0019371326779946685,0.9959632158279419,-0.0069504473358392715,-0.04040722921490669,0.07984821498394012
719.0,0.0,0.0,0.0,0.0,0.0,0.0,0.0027976306155323982,-0.03548014536499977,-0.0014624947216361761,0.9962097406387329,-0.009220832027494907,-0.041227806359529495,0.07602937519550323
720.0,0.0,0.0,0.0,0.0,0.0,0.0,0.0008022509282454848,-0.06518960744142532,-0.03304258733987808,0.9963590502738953,-0.013258843682706356,-0.04180410876870155,0.07311011850833893
721.0,0.0,0.0,0.0,0.0,0.0,0.0,-0.007509489543735981,-0.045476291328668594,-0.03370602801442146,0.9966974854469299,-0.017069894820451736,-0.041584596037864685,0.06762560456991196
722.0,0.0,0.0,0.0,0.0,0.0,0.0,-0.0006059571751393378,0.023222343996167183,-0.007990340702235699,0.9971557259559631,-0.017054785043001175,-0.04223921522498131,0.06004207208752632
723.0,0.0,0.0,0.0,0.0,0.0,0.0,-0.06404832750558853,0.05519324168562889,0.03873051330447197,0.998142659664154,-0.009642161428928375,-0.0407085083425045,0.04427902027964592
724.0,0.0,0.0,0.0,0.0,0.0,0.0,-0.0780569389462471,0.04709587246179581,0.018554197624325752,0.9990482926368713,0.0004198954557068646,-0.03753140941262245,0.02221464365720749
725.0,0.0,0.0,0.0,0.0,0.0,0.0,-0.02952420711517334,0.033361610025167465,0.030466562137007713,0.9993284940719604,0.010013473220169544,-0.03522700443863869,-0.0011315394658595324
726.0,0.0,0.0,0.0,0.0,0.0,0.0,-0.009250798262655735,0.0035093154292553663,0.10709641873836517,0.9989787936210632,0.020863093435764313,-0.03248853608965874,-0.023466115817427635
727.0,0.0,0.0,0.0,0.0,0.0,0.0,0.029917918145656586,-0.0064775943756103516,0.07791070640087128,0.9981420636177063,0.03410471975803375,-0.02738523669540882,-0.04241663217544556
728.0,0.0,0.0,0.0,0.0,0.0,0.0,-0.03344333916902542,-0.047163110226392746,-0.019951989874243736,0.9968409538269043,0.047025639563798904,-0.02117728814482689,-0.06040097400546074
729.0,0.0,0.0,0.0,0.0,0.0,0.0,0.006865454837679863,-0.10847609490156174,-0.0635337233543396,0.9955843091011047,0.05724645406007767,-0.016323667019605637,-0.0725807473063469
730.0,0.0,0.0,0.0,0.0,0.0,0.0,0.07403557002544403,-0.10567761212587357,-0.07831940799951553,0.994701087474823,0.06221011281013489,-0.014977332204580307,-0.0804670974612236
731.0,0.0,0.0,0.0,0.0,0.0,0.0,0.09713784605264664,-0.07463313639163971,-0.03549531102180481,0.994308352470398,0.06306322664022446,-0.015331956557929516,-0.08449111133813858
732.0,0.0,0.0,0.0,0.0,0.0,0.0,0.10943689197301865,-0.059348274022340775,-0.035826265811920166,0.9942231774330139,0.060959722846746445,-0.016362043097615242,-0.0868123322725296
733.0,0.0,0.0,0.0,0.0,0.0,0.0,0.09769169241189957,-0.05698945373296738,-0.0322013795375824,0.9942348599433899,0.05709712207317352,-0.017851028591394424,-0.08898218721151352
734.0,0.0,0.0,0.0,0.0,0.0,0.0,0.07340928912162781,-0.047568097710609436,0.014362205751240253,0.994255781173706,0.05456795543432236,-0.01897772215306759,-0.09009508043527603
735.0,0.0,0.0,0.0,0.0,0.0,0.0,0.05309052765369415,-0.0282615814357996,-0.017921004444360733,0.9943053126335144,0.0546736940741539,-0.02016625925898552,-0.08922441303730011
736.0,0.0,0.0,0.0,0.0,0.0,0.0,0.06238197907805443,-0.03330017253756523,-0.03346216678619385,0.9945482611656189,0.05399703234434128,-0.021278169006109238,-0.08663235604763031
737.0,0.0,0.0,0.0,0.0,0.0,0.0,0.06172412261366844,-0.026038160547614098,-0.028255613520741463,0.9950966238975525,0.05116792023181915,-0.021952252835035324,-0.08174507319927216
738.0,0.0,0.0,0.0,0.0,0.0,0.0,0.050311628729104996,-0.022468870505690575,-0.025716282427310944,0.9958104491233826,0.046285759657621384,-0.022299230098724365,-0.07564151287078857
739.0,0.0,0.0,0.0,0.0,0.0,0.0,0.04761945828795433,-0.035295531153678894,-0.052408408373594284,0.9968433380126953,0.0376204177737236,-0.02353730984032154,-0.06583426892757416
740.0,0.0,0.0,0.0,0.0,0.0,0.0,0.024403192102909088,-0.035405177623033524,-0.05997810140252113,0.9979571104049683,0.02468859776854515,-0.02651333063840866,-0.05261972174048424
741.0,0.0,0.0,0.0,0.0,0.0,0.0,-0.02813495695590973,-0.011883977800607681,-0.03964180126786232,0.99880051612854,0.00924895890057087,-0.03070577047765255,-0.03699842840433121
742.0,0.0,0.0,0.0,0.0,0.0,0.0,-0.02594432793557644,0.018868809565901756,0.012052630074322224,0.9991655349731445,-0.0018955582054331899,-0.035643938928842545,-0.019850602373480797
743.0,0.0,0.0,0.0,0.0,0.0,0.0,-0.04759412631392479,0.007646980695426464,0.022332079708576202,0.9991602301597595,-0.00854523666203022,-0.03991958498954773,-0.0033995851408690214
744.0,0.0,0.0,0.0,0.0,0.0,0.0,-0.021421467885375023,0.003050577361136675,0.02462858334183693,0.9988880753517151,-0.013292571529746056,-0.04377835988998413,0.011355855502188206
745.0,0.0,0.0,0.0,0.0,0.0,0.0,-0.033949051052331924,0.026816342025995255,0.045864179730415344,0.9986211657524109,-0.01628425158560276,-0.045539941638708115,0.020419975742697716
746.0,0.0,0.0,0.0,0.0,0.0,0.0,-0.046854063868522644,0.03241673484444618,0.040185242891311646,0.9984124302864075,-0.01716753840446472,-0.04695223271846771,0.025940384715795517
747.0,0.0,0.0,0.0,0.0,0.0,0.0,-0.018232673406600952,0.0185579564422369,0.025710761547088623,0.9982162714004517,-0.01737155020236969,-0.0479741096496582,0.03100043721497059
748.0,0.0,0.0,0.0,0.0,0.0,0.0,-0.012521827593445778,0.03126931190490723,0.027927054092288017,0.9981261491775513,-0.017201928421854973,-0.047951240092515945,0.033890608698129654
749.0,0.0,0.0,0.0,0.0,0.0,0.0,-0.026878615841269493,0.025414321571588516,0.014085674658417702,0.9981212019920349,-0.01501774787902832,-0.04803461953997612,0.0349368192255497
750.0,0.0,0.0,0.0,0.0,0.0,0.0,-0.01530329417437315,0.01309973280876875,0.020193474367260933,0.9981440901756287,-0.012376484461128712,-0.047851160168647766,0.03556552156805992
751.0,0.0,0.0,0.0,0.0,0.0,0.0,-0.010043301619589329,0.003848925931379199,0.016953451558947563,0.9981924891471863,-0.009054269641637802,-0.047109205275774,0.03619319200515747
752.0,0.0,0.0,0.0,0.0,0.0,0.0,-0.0031628203578293324,-0.00010486243263585493,0.014845933765172958,0.9982030987739563,-0.005388512741774321,-0.04598221182823181,0.03804295137524605
753.0,0.0,0.0,0.0,0.0,0.0,0.0,-0.004504217300564051,-0.015284014865756035,0.009683115407824516,0.9981646537780762,-0.0018143211491405964,-0.044866252690553665,0.04063364863395691
754.0,0.0,0.0,0.0,0.0,0.0,0.0,-0.010834645479917526,-0.01543454173952341,-0.007574727293103933,0.9981207251548767,0.0008630894008092582,-0.044346995651721954,0.04227573797106743
755.0,0.0,0.0,0.0,0.0,0.0,0.0,-0.0032687901984900236,-0.021170973777770996,-0.011514865793287754,0.998101532459259,0.002155463909730315,-0.044303715229034424,0.04273204132914543
756.0,0.0,0.0,0.0,0.0,0.0,0.0,-0.0031728099565953016,-0.025957735255360603,-0.00123591220472008,0.9980912208557129,0.002524114679545164,-0.04420030862092972,0.043061092495918274
757.0,0.0,0.0,0.0,0.0,0.0,0.0,-0.007782990112900734,-0.0087208803743124,0.006594145204871893,0.9980453252792358,0.002053670585155487,-0.04477487504482269,0.043550364673137665
758.0,0.0,0.0,0.0,0.0,0.0,0.0,-0.03078792430460453,0.011786581948399544,0.009598073549568653,0.9981488585472107,0.0025559866335242987,-0.04558722302317619,0.04016987234354019
759.0,0.0,0.0,0.0,0.0,0.0,0.0,-0.07836133986711502,0.04058565944433212,0.04568581283092499,0.9985153079032898,0.00578584847971797,-0.04613569751381874,0.028369629755616188
760.0,0.0,0.0,0.0,0.0,0.0,0.0,-0.0871652290225029,0.043224483728408813,0.02875431254506111,0.9987473487854004,0.013257583603262901,-0.047521188855171204,0.008356492035090923
761.0,0.0,0.0,0.0,0.0,0.0,0.0,-0.116886205971241,0.028675170615315437,-0.04260481521487236,0.9982254505157471,0.026363849639892578,-0.05003448203206062,-0.01863962970674038
762.0,0.0,0.0,0.0,0.0,0.0,0.0,-0.09359011799097061,0.017046282067894936,-0.01992524415254593,0.9966750741004944,0.04029763489961624,-0.0540858656167984,-0.04571342095732689
763.0,0.0,0.0,0.0,0.0,0.0,0.0,0.06899936497211456,-0.06420949101448059,0.07255717366933823,0.9947536587715149,0.05111324042081833,-0.05792756751179695,-0.06705772876739502
764.0,0.0,0.0,0.0,0.0,0.0,0.0,0.08290338516235352,-0.06803427636623383,0.04848597198724747,0.992945671081543,0.05860287323594093,-0.06178615987300873,-0.08250375092029572
765.0,0.0,0.0,0.0,0.0,0.0,0.0,0.07821018993854523,-0.035398196429014206,-0.023091021925210953,0.9911106824874878,0.06767180562019348,-0.06471697986125946,-0.09450338035821915
766.0,0.0,0.0,0.0,0.0,0.0,0.0,0.05299271270632744,-0.05398974567651749,-0.055238477885723114,0.9899850487709045,0.07509530335664749,-0.06389715522527695,-0.10103003680706024
767.0,0.0,0.0,0.0,0.0,0.0,0.0,0.07061567902565002,-0.09178262203931808,-0.06096910685300827,0.9898126721382141,0.07498422265052795,-0.06490346044301987,-0.1021505743265152
768.0,0.0,0.0,0.0,0.0,0.0,0.0,0.11490902304649353,-0.06648945808410645,-0.0668397918343544,0.9899362921714783,0.0697268471121788,-0.06894736737012863,-0.10203372687101364
769.0,0.0,0.0,0.0,0.0,0.0,0.0,0.11953040957450867,-0.05516107380390167,-0.034044984728097916,0.990170419216156,0.06231282278895378,-0.07280614972114563,-0.1018727496266365
770.0,0.0,0.0,0.0,0.0,0.0,0.0,0.08472046256065369,-0.036244891583919525,0.01769750937819481,0.9905913472175598,0.05226348340511322,-0.07420410960912704,-0.10242273658514023
771.0,0.0,0.0,0.0,0.0,0.0,0.0,0.04065735638141632,-0.0036178077571094036,0.03909296542406082,0.9910147190093994,0.04168500378727913,-0.0735698714852333,-0.10363089293241501
772.0,0.0,0.0,0.0,0.0,0.0,0.0,0.03569793701171875,0.0293410737067461,0.06305304169654846,0.9914771318435669,0.03341617435216904,-0.07120440155267715,-0.10385248064994812
773.0,0.0,0.0,0.0,0.0,0.0,0.0,0.013460040092468262,0.05648361146450043,0.05912507697939873,0.9921700954437256,0.02856305055320263,-0.0663047656416893,-0.10191164165735245
774.0,0.0,0.0,0.0,0.0,0.0,0.0,0.005661425180733204,0.02503935992717743,0.040117472410202026,0.9930330514907837,0.024816229939460754,-0.0606890469789505,-0.09790875017642975
775.0,0.0,0.0,0.0,0.0,0.0,0.0,0.000849275675136596,-0.021050121635198593,0.0031669046729803085,0.993964672088623,0.022994156926870346,-0.055728573352098465,-0.09164723008871078
776.0,0.0,0.0,0.0,0.0,0.0,0.0,-0.021051662042737007,-0.0347476601600647,-0.06175331398844719,0.9954970479011536,0.020319458097219467,-0.05118444189429283,-0.07715436071157455
777.0,0.0,0.0,0.0,0.0,0.0,0.0,-0.016078313812613487,-0.0068923067301511765,-0.069399893283844,0.9971155524253845,0.015496817417442799,-0.047234486788511276,-0.057352833449840546
778.0,0.0,0.0,0.0,0.0,0.0,0.0,-0.0182319488376379,0.01727275364100933,-0.05170512944459915,0.998269259929657,0.01093234121799469,-0.044416774064302444,-0.03695927932858467
779.0,0.0,0.0,0.0,0.0,0.0,0.0,-0.009761204943060875,0.008016987703740597,-0.0009756111539900303,0.998901903629303,0.007514946162700653,-0.042856939136981964,-0.017372170463204384
780.0,0.0,0.0,0.0,0.0,0.0,0.0,-0.02333894558250904,0.027507226914167404,0.022663403302431107,0.9991664290428162,0.006958453916013241,-0.0401839017868042,-0.0017722145421430469
781.0,0.0,0.0,0.0,0.0,0.0,0.0,-0.030203478410840034,0.02386980690062046,-0.016612619161605835,0.9992139935493469,0.007135896477848291,-0.03764099255204201,0.010175764560699463
782.0,0.0,0.0,0.0,0.0,0.0,0.0,-0.027561867609620094,-0.020147118717432022,-0.003718892578035593,0.9991152286529541,0.007680678274482489,-0.036398932337760925,0.019613681361079216
783.0,0.0,0.0,0.0,0.0,0.0,0.0,-0.005848612170666456,-0.01870747283101082,-0.013480879366397858,0.9989555478096008,0.005419437307864428,-0.035819798707962036,0.027848804369568825
784.0,0.0,0.0,0.0,0.0,0.0,0.0,-0.003330711042508483,0.002413008362054825,-0.01436186395585537,0.9987053275108337,0.0031470083631575108,-0.03666311502456665,0.03511827811598778
785.0,0.0,0.0,0.0,0.0,0.0,0.0,-0.008416376076638699,-0.009059527888894081,-0.020643694326281548,0.9983539581298828,-0.0005084494478069246,-0.038676727563142776,0.04234447330236435
786.0,0.0,0.0,0.0,0.0,0.0,0.0,-0.0476628877222538,-0.01712404564023018,-0.021115578711032867,0.9979543685913086,-0.0070546697825193405,-0.042019233107566833,0.04766163229942322
787.0,0.0,0.0,0.0,0.0,0.0,0.0,0.00015305806300602853,-0.008635918609797955,-0.011044541373848915,0.9973551034927368,-0.013455439358949661,-0.04620888829231262,0.054461631923913956
788.0,0.0,0.0,0.0,0.0,0.0,0.0,-0.015772270038723946,0.047163669019937515,-0.012953825294971466,0.9968711733818054,-0.015172448009252548,-0.04958882927894592,0.05965454503893852
789.0,0.0,0.0,0.0,0.0,0.0,0.0,-0.0594838447868824,0.04174581542611122,-0.0010900488123297691,0.9965713024139404,-0.014325453899800777,-0.05148572474718094,0.06316103786230087
790.0,0.0,0.0,0.0,0.0,0.0,0.0,-0.03864334151148796,0.05126413702964783,0.03066042996942997,0.9961710572242737,-0.013435473665595055,-0.05322210118174553,0.06804502010345459
791.0,0.0,0.0,0.0,0.0,0.0,0.0,-0.026768457144498825,0.042646605521440506,0.022269774228334427,0.9958311915397644,-0.011138346046209335,-0.05379949510097504,0.07281388342380524
792.0,0.0,0.0,0.0,0.0,0.0,0.0,-0.040490418672561646,0.025217659771442413,0.002256691688671708,0.9956881999969482,-0.008678683079779148,-0.053727854043245316,0.0751165971159935
793.0,0.0,0.0,0.0,0.0,0.0,0.0,-0.03973986580967903,0.03621935471892357,-0.002964829560369253,0.9957110285758972,-0.006607005838304758,-0.053684037178754807,0.0750608891248703
794.0,0.0,0.0,0.0,0.0,0.0,0.0,-0.02138856239616871,0.026701081544160843,0.013362755998969078,0.9958288669586182,-0.002778309863060713,-0.05305729806423187,0.07417115569114685
795.0,0.0,0.0,0.0,0.0,0.0,0.0,0.0018548354273661971,0.005576095078140497,0.025607168674468994,0.9958771467208862,-0.0007800488965585828,-0.05207272246479988,0.07427013665437698
796.0,0.0,0.0,0.0,0.0,0.0,0.0,-0.008208969607949257,0.006088622845709324,0.0008575846441090107,0.9959493279457092,-0.001209976035170257,-0.050982698798179626,0.0740552619099617
797.0,0.0,0.0,0.0,0.0,0.0,0.0,-0.002891653450205922,-0.003790521528571844,-0.009045751765370369,0.9960008263587952,-0.0015642809448763728,-0.0502329058945179,0.0738622397184372
798.0,0.0,0.0,0.0,0.0,0.0,0.0,0.012251103296875954,0.0033103725872933865,-0.00680088484659791,0.9959444403648376,-0.0021876743994653225,-0.05024619400501251,0.07459352910518646
799.0,0.0,0.0,0.0,0.0,0.0,0.0,-0.0057391757145524025,0.005358315072953701,-0.0032919691875576973,0.9959256052970886,-0.002145681530237198,-0.05033125355839729,0.07479935139417648
800.0,0.0,0.0,0.0,0.0,0.0,0.0,-0.018815698102116585,0.006139907520264387,-0.005964234471321106,0.996014416217804,-0.0003880500444211066,-0.04965674877166748,0.07408568263053894
801.0,0.0,0.0,0.0,0.0,0.0,0.0,-0.009645226411521435,0.005235436372458935,-0.0031494121067225933,0.9961257576942444,0.001865536323748529,-0.04870065301656723,0.07320035994052887
802.0,0.0,0.0,0.0,0.0,0.0,0.0,0.009051783010363579,0.025045599788427353,0.004039218183606863,0.9961809515953064,0.004748642910271883,-0.04785298556089401,0.0728815346956253
803.0,0.0,0.0,0.0,0.0,0.0,0.0,0.007085965946316719,0.026324138045310974,0.005505209788680077,0.9961556792259216,0.007701465394347906,-0.046107567846775055,0.0740843266248703
804.0,0.0,0.0,0.0,0.0,0.0,0.0,0.006097439676523209,0.008091571740806103,0.005772675387561321,0.9960885643959045,0.008023818954825401,-0.04391958937048912,0.0762440636754036
805.0,0.0,0.0,0.0,0.0,0.0,0.0,0.011279791593551636,-0.008962386287748814,-0.011449343524873257,0.9961643218994141,0.005734110251069069,-0.041695281863212585,0.07671549171209335
806.0,0.0,0.0,0.0,0.0,0.0,0.0,0.009104369208216667,-0.004102138336747885,-0.024691523984074593,0.9963958859443665,0.004561549052596092,-0.0393623523414135,0.07500270754098892
807.0,0.0,0.0,0.0,0.0,0.0,0.0,0.010049848817288876,0.017301244661211967,-0.0050642709247767925,0.9967372417449951,0.006817988585680723,-0.036534637212753296,0.07164690643548965
808.0,0.0,0.0,0.0,0.0,0.0,0.0,-0.0013761840527877212,0.009364593774080276,0.0014119837433099747,0.9972377419471741,0.007108907215297222,-0.03346562013030052,0.06592845916748047
809.0,0.0,0.0,0.0,0.0,0.0,0.0,0.018038123846054077,0.00698299054056406,0.010653549805283546,0.9977291226387024,0.004763939883559942,-0.031153015792369843,0.05953114107251167
810.0,0.0,0.0,0.0,0.0,0.0,0.0,0.02019551396369934,0.020347826182842255,0.007668907288461924,0.998284637928009,0.0008001171518117189,-0.02940516732633114,0.050621047616004944
811.0,0.0,0.0,0.0,0.0,0.0,0.0,-0.026290029287338257,0.04818874970078468,0.017840556800365448,0.9989699125289917,-0.002974723232910037,-0.026979368180036545,0.03636881709098816
812.0,0.0,0.0,0.0,0.0,0.0,0.0,-0.004047400783747435,0.07456768304109573,0.028424806892871857,0.999405562877655,-0.003935922868549824,-0.027079420164227486,0.02097320929169655
813.0,0.0,0.0,0.0,0.0,0.0,0.0,0.04404956102371216,0.05812002345919609,0.09429097175598145,0.9995790719985962,-0.0029555722139775753,-0.027925165370106697,0.0073096007108688354
814.0,0.0,0.0,0.0,0.0,0.0,0.0,0.15124265849590302,0.010134757496416569,0.08011627197265625,0.999505877494812,0.007511630654335022,-0.030453471466898918,-0.001912999665364623
815.0,0.0,0.0,0.0,0.0,0.0,0.0,0.06334985792636871,-0.030700573697686195,0.09807614237070084,0.9992144107818604,0.02526923082768917,-0.027777262032032013,-0.012672766111791134
816.0,0.0,0.0,0.0,0.0,0.0,0.0,-0.05715653672814369,-0.047270189970731735,-0.07117684930562973,0.9990428686141968,0.031915102154016495,-0.022094467654824257,-0.02016657032072544
817.0,0.0,0.0,0.0,0.0,0.0,0.0,0.021466150879859924,-0.03894120827317238,-0.11827244609594345,0.9990224242210388,0.032222796231508255,-0.020350633189082146,-0.02241038903594017
818.0,0.0,0.0,0.0,0.0,0.0,0.0,0.04714132472872734,-0.03930075839161873,-0.12678055465221405,0.9991741180419922,0.026971761137247086,-0.02045711874961853,-0.022468144074082375
819.0,0.0,0.0,0.0,0.0,0.0,0.0,0.06936630606651306,-0.03181788697838783,-0.10624238103628159,0.9995173215866089,0.01629186049103737,-0.021398672834038734,-0.015553366392850876
820.0,0.0,0.0,0.0,0.0,0.0,0.0,0.04596548154950142,-0.04002221301198006,-0.08031471073627472,0.9997085332870483,0.003935309126973152,-0.023177219554781914,-0.005501209758222103
821.0,0.0,0.0,0.0,0.0,0.0,0.0,-0.04426547884941101,-0.09703215956687927,-0.04354569688439369,0.9995762705802917,-0.014611436985433102,-0.02220867946743965,0.011827848851680756
822.0,0.0,0.0,0.0,0.0,0.0,0.0,0.017563441768288612,0.07702679932117462,0.0792902335524559,0.9990089535713196,-0.020482685416936874,-0.02459591068327427,0.030920512974262238
823.0,0.0,0.0,0.0,0.0,0.0,0.0,-0.09068946540355682,0.004299518186599016,0.10017082840204239,0.998583972454071,-0.02182745561003685,-0.02461984194815159,0.041799433529376984
824.0,0.0,0.0,0.0,0.0,0.0,0.0,-0.12152327597141266,0.06141866371035576,0.04834023863077164,0.9982380270957947,-0.022748475894331932,-0.023346660658717155,0.04957727715373039
825.0,0.0,0.0,0.0,0.0,0.0,0.0,-0.07074958831071854,0.06377160549163818,0.036470647901296616,0.9981719851493835,-0.020911671221256256,-0.02115081436932087,0.05261020362377167
826.0,0.0,0.0,0.0,0.0,0.0,0.0,-0.05011117830872536,0.015331411734223366,0.013467798940837383,0.9983891248703003,-0.015749439597129822,-0.01665486954152584,0.051894836127758026
827.0,0.0,0.0,0.0,0.0,0.0,0.0,-0.03712061047554016,-0.0036985334008932114,-0.012372828088700771,0.9986968040466309,-0.010462765581905842,-0.010052732191979885,0.04892461374402046
828.0,0.0,0.0,0.0,0.0,0.0,0.0,0.0025952637661248446,-0.018476257100701332,-0.013681882992386818,0.998923122882843,-0.005799740552902222,-0.004855416715145111,0.04576997831463814
829.0,0.0,0.0,0.0,0.0,0.0,0.0,0.04338117316365242,-0.025657929480075836,-0.0271044559776783,0.9990680813789368,-0.00219829473644495,-9.218958439305425e-05,0.04309944435954094
830.0,0.0,0.0,0.0,0.0,0.0,0.0,0.06040863320231438,-0.037511423230171204,-0.040853485465049744,0.999163031578064,0.0010830367682501674,0.003504287451505661,0.04074174538254738
831.0,0.0,0.0,0.0,0.0,0.0,0.0,0.0612928606569767,-0.04196374490857124,-0.03374020382761955,0.9992128014564514,0.004455039277672768,0.006789486855268478,0.03882788494229317
832.0,0.0,0.0,0.0,0.0,0.0,0.0,0.04605758935213089,-0.010734611190855503,-0.03198518231511116,0.9992403388023376,0.008366472087800503,0.00919236522167921,0.03693618252873421
833.0,0.0,0.0,0.0,0.0,0.0,0.0,0.042673707008361816,-0.020021965727210045,-0.026491232216358185,0.9992672801017761,0.012067249976098537,0.01052485778927803,0.034760888665914536
834.0,0.0,0.0,0.0,0.0,0.0,0.0,0.061129480600357056,-0.03204888105392456,-0.029292501509189606,0.9993067979812622,0.014245467260479927,0.010999699123203754,0.03259029611945152
835.0,0.0,0.0,0.0,0.0,0.0,0.0,0.06998073309659958,-0.006914274301379919,-0.008479855954647064,0.9993368983268738,0.01751074194908142,0.010403743013739586,0.030179046094417572
836.0,0.0,0.0,0.0,0.0,0.0,0.0,0.045836105942726135,0.002915136283263564,0.03921758010983467,0.9993584156036377,0.021707959473133087,0.009334038943052292,0.02692127414047718
837.0,0.0,0.0,0.0,0.0,0.0,0.0,0.02120191603899002,0.001915921806357801,0.02706092596054077,0.9993706941604614,0.02490231767296791,0.007917034439742565,0.023993805050849915
838.0,0.0,0.0,0.0,0.0,0.0,0.0,0.04406280070543289,-0.0005460363463498652,0.00633693253621459,0.999367892742157,0.02780214510858059,0.005369271617382765,0.02149347960948944
839.0,0.0,0.0,0.0,0.0,0.0,0.0,0.03425680473446846,-0.005034733563661575,-0.009307135827839375,0.9993780851364136,0.03168465197086334,0.0020986138842999935,0.015337059274315834
840.0,0.0,0.0,0.0,0.0,0.0,0.0,0.028945304453372955,-0.026328962296247482,-0.020971663296222687,0.9993736743927002,0.034600578248500824,-0.002119646640494466,0.007135813124477863
841.0,0.0,0.0,0.0,0.0,0.0,0.0,0.035655148327350616,-0.04379957169294357,-0.02988193742930889,0.9993033409118652,0.03650910034775734,-0.00757059408351779,-0.0015807091258466244
