,Position_X,Position_Y,Position_Z,Velocity_X,Velocity_Y,Velocity_Z,Acceleration_X,Acceleration_Y,Acceleration_Z,Quaterion_0,Quaterion_1,Quaterion_2,Quaterion_3
166.0,0.0,0.0,0.0,0.0,0.0,0.0,-0.3710505962371826,-1.9863646030426025,-0.4818596839904785,1.0,2.7755575615628914e-17,-2.0816681711721685e-17,-6.938893903907228e-17
167.0,0.0,0.0,0.0,0.0,0.0,0.0,-0.38302603363990784,-0.5757181644439697,-0.13918545842170715,0.9998821020126343,-0.013445311225950718,-0.006725164130330086,-0.003127478761598468
168.0,0.0,0.0,0.0,0.0,0.0,0.0,0.39556407928466797,0.1114545464515686,0.03693944960832596,0.9997015595436096,-0.006608886644244194,-0.021454134956002235,0.009638097137212753
169.0,0.0,0.0,0.0,0.0,0.0,0.0,-0.09103325009346008,-0.19079875946044922,-0.049573060125112534,0.9997329115867615,-0.005445772781968117,-0.021961331367492676,0.004702978301793337
170.0,0.0,0.0,0.0,0.0,0.0,0.0,-0.0370304137468338,-0.18200398981571198,0.033040061593055725,0.9997438788414001,-0.00690580764785409,-0.021429477259516716,0.0023005823604762554
171.0,0.0,0.0,0.0,0.0,0.0,0.0,-0.09638026356697083,-0.08691715449094772,0.03174504637718201,0.9997166991233826,-0.00448428001254797,-0.023237206041812897,-0.002552581485360861
172.0,0.0,0.0,0.0,0.0,0.0,0.0,-0.14166989922523499,-0.07010491192340851,0.013246196322143078,0.9996424913406372,-0.00038324002525769174,-0.024751340970396996,-0.010102860629558563
173.0,0.0,0.0,0.0,0.0,0.0,0.0,-0.06818632781505585,-0.10292067378759384,0.013928556814789772,0.9994980692863464,0.006166248582303524,-0.024793235585093498,-0.01873387023806572
174.0,0.0,0.0,0.0,0.0,0.0,0.0,-0.04939510300755501,-0.11486899107694626,0.0009931322420015931,0.9992106556892395,0.014492189511656761,-0.02315768599510193,-0.028841644525527954
175.0,0.0,0.0,0.0,0.0,0.0,0.0,-0.06686330586671829,-0.14305414259433746,-0.007357151713222265,0.9986395835876465,0.023145921528339386,-0.020380765199661255,-0.04204820469021797
176.0,0.0,0.0,0.0,0.0,0.0,0.0,-0.13578177988529205,-0.3913322389125824,0.03221771493554115,0.9983049631118774,0.022237220779061317,-0.021451974287629128,-0.04932250827550888
177.0,0.0,0.0,0.0,0.0,0.0,0.0,0.15212027728557587,-0.3924369812011719,0.4368043541908264,0.9998107552528381,-0.006604418158531189,0.018285511061549187,-0.0007053208537399769
178.0,0.0,0.0,0.0,0.0,0.0,0.0,0.356560081243515,0.22886498272418976,-0.0812290608882904,0.9968472123146057,-0.04501495510339737,0.05920462682843208,0.02764744870364666
179.0,0.0,0.0,0.0,0.0,0.0,0.0,-0.13894306123256683,-0.04847056791186333,-0.08199228346347809,0.9975171089172363,-0.042514268308877945,0.05210816487669945,0.020906668156385422
180.0,0.0,0.0,0.0,0.0,0.0,0.0,0.05424868315458298,-0.2543998658657074,0.09981397539377213,0.9973195195198059,-0.044582072645425797,0.05418708920478821,0.020732857286930084
181.0,0.0,0.0,0.0,0.0,0.0,0.0,0.01062947977334261,-0.19358617067337036,0.04472723975777626,0.9971045255661011,-0.04882259666919708,0.0546652115881443,0.020267929881811142
182.0,0.0,0.0,0.0,0.0,0.0,0.0,-0.061474621295928955,-0.20673765242099762,0.05303480103611946,0.9971370697021484,-0.050724055618047714,0.05302952975034714,0.018235450610518456
183.0,0.0,0.0,0.0,0.0,0.0,0.0,-0.041754137724637985,-0.21394403278827667,0.06004923954606056,0.997055172920227,-0.053186170756816864,0.05275113135576248,0.016415603458881378
184.0,0.0,0.0,0.0,0.0,0.0,0.0,-0.0454062856733799,-0.1948433369398117,0.04885100573301315,0.9969703555107117,-0.05561947077512741,0.05235714837908745,0.01467189658433199
185.0,0.0,0.0,0.0,0.0,0.0,0.0,-0.036476343870162964,-0.1908540576696396,0.045024022459983826,0.9968854784965515,-0.05771785229444504,0.052114635705947876,0.013124572113156319
186.0,0.0,0.0,0.0,0.0,0.0,0.0,-0.023633956909179688,-0.19864675402641296,0.04992585629224777,0.9967785477638245,-0.05952312797307968,0.05247834324836731,0.011654006317257881
187.0,0.0,0.0,0.0,0.0,0.0,0.0,-0.01600717008113861,-0.19457779824733734,0.04867066815495491,0.9966846704483032,-0.06084746494889259,0.05298846215009689,0.010474499315023422
188.0,0.0,0.0,0.0,0.0,0.0,0.0,-0.013195394538342953,-0.18410758674144745,0.043237436562776566,0.9966148734092712,-0.06167150288820267,0.05346883460879326,0.009840479120612144
189.0,0.0,0.0,0.0,0.0,0.0,0.0,-0.005840292200446129,-0.17847688496112823,0.03951440379023552,0.9965347051620483,-0.06211498752236366,0.05456514656543732,0.009118818677961826
190.0,0.0,0.0,0.0,0.0,0.0,0.0,0.0010346241760998964,-0.1776694655418396,0.040565427392721176,0.9964615702629089,-0.06252485513687134,0.05557473003864288,0.008162937127053738
191.0,0.0,0.0,0.0,0.0,0.0,0.0,-0.0010447223903611302,-0.17662249505519867,0.042966440320014954,0.9964444041252136,-0.06233341246843338,0.05611585080623627,0.008020712062716484
192.0,0.0,0.0,0.0,0.0,0.0,0.0,-0.006252215709537268,-0.17576876282691956,0.04548759013414383,0.9964346885681152,-0.062139783054590225,0.05656067654490471,0.007610436528921127
193.0,0.0,0.0,0.0,0.0,0.0,0.0,-0.009596114978194237,-0.17414215207099915,0.04477525129914284,0.996386706829071,-0.06234271079301834,0.057290393859148026,0.006684435531497002
194.0,0.0,0.0,0.0,0.0,0.0,0.0,-0.009087908081710339,-0.1707787960767746,0.045551881194114685,0.996396541595459,-0.061812568455934525,0.05769704654812813,0.006666777189821005
195.0,0.0,0.0,0.0,0.0,0.0,0.0,-0.003866830375045538,-0.16356049478054047,0.04334321990609169,0.9963914752006531,-0.061508893966674805,0.0581396110355854,0.006350720301270485
196.0,0.0,0.0,0.0,0.0,0.0,0.0,0.0015144151402637362,-0.1593208611011505,0.03821868821978569,0.9963855147361755,-0.0613296702504158,0.05849708616733551,0.005729225464165211
197.0,0.0,0.0,0.0,0.0,0.0,0.0,0.002367097418755293,-0.1578686535358429,0.04014348238706589,0.9963980913162231,-0.060844097286462784,0.058792512863874435,0.0057010771706700325
198.0,0.0,0.0,0.0,0.0,0.0,0.0,0.005902065429836512,-0.16021864116191864,0.04432130604982376,0.9964171051979065,-0.060284800827503204,0.05910947546362877,0.005004989914596081
199.0,0.0,0.0,0.0,0.0,0.0,0.0,0.00783702451735735,-0.16382397711277008,0.04649701341986656,0.9964311122894287,-0.05975179001688957,0.059470124542713165,0.004212057217955589
200.0,0.0,0.0,0.0,0.0,0.0,0.0,-0.003960840869694948,-0.16602852940559387,0.04981783777475357,0.9964445233345032,-0.05935940146446228,0.059676237404346466,0.0037206385750323534
201.0,0.0,0.0,0.0,0.0,0.0,0.0,0.5218232870101929,-0.8606016635894775,0.4123813509941101,0.9964556097984314,-0.008883156813681126,0.055682241916656494,-0.06242050603032112
202.0,0.0,0.0,0.0,0.0,0.0,0.0,-1.7568659782409668,-1.6099743843078613,-0.4214921295642853,0.9889206290245056,0.039032090455293655,0.052551306784152985,-0.1332302987575531
203.0,0.0,0.0,0.0,0.0,0.0,0.0,0.4539441168308258,0.08922050148248672,-0.2794121205806732,0.9915891885757446,0.0447128489613533,0.0402701236307621,-0.11458833515644073
204.0,0.0,0.0,0.0,0.0,0.0,0.0,0.31557798385620117,-0.07149911671876907,-0.06671041995286942,0.9918173551559448,0.052548848092556,0.03545636311173439,-0.11081726849079132
205.0,0.0,0.0,0.0,0.0,0.0,0.0,-0.11317726224660873,-0.07928108423948288,-0.0677119791507721,0.9906478524208069,0.05361079052090645,0.04293714091181755,-0.11790420860052109
206.0,0.0,0.0,0.0,0.0,0.0,0.0,0.047100622206926346,-0.13658879697322845,0.01946791261434555,0.9893920421600342,0.052406977862119675,0.05047895386815071,-0.12574146687984467
207.0,0.0,0.0,0.0,0.0,0.0,0.0,-0.11536428332328796,-0.040645141154527664,0.04672176018357277,0.9874255657196045,0.052810635417699814,0.0560869425535202,-0.13804082572460175
208.0,0.0,0.0,0.0,0.0,0.0,0.0,-0.15910477936267853,-0.07690219581127167,0.06226273626089096,0.9857354760169983,0.04937923327088356,0.05904342606663704,-0.14968015253543854
209.0,0.0,0.0,0.0,0.0,0.0,0.0,-0.18748019635677338,-0.24860671162605286,0.07135360687971115,0.9879458546638489,0.03054695762693882,0.05148635059595108,-0.14275597035884857
210.0,0.0,0.0,0.0,0.0,0.0,0.0,0.26583489775657654,-0.3373218774795532,0.14272339642047882,0.9941679835319519,-0.002588527509942651,0.049009762704372406,-0.09602737426757812
211.0,0.0,0.0,0.0,0.0,0.0,0.0,0.3037159740924835,0.11831282824277878,0.20478487014770508,0.994938313961029,-0.03048914298415184,0.06226571649312973,-0.07274290174245834
212.0,0.0,0.0,0.0,0.0,0.0,0.0,-0.046306904405355453,-0.030742021277546883,0.03952748700976372,0.9947819709777832,-0.031567808240652084,0.05966173857450485,-0.07650121301412582
213.0,0.0,0.0,0.0,0.0,0.0,0.0,0.0716647058725357,-0.1474701166152954,0.04799603670835495,0.9948627352714539,-0.034353576600551605,0.05776628479361534,-0.07570556551218033
214.0,0.0,0.0,0.0,0.0,0.0,0.0,0.029887868091464043,-0.07629427313804626,0.04669295623898506,0.9948828220367432,-0.03692622855305672,0.0562857948243618,-0.07534079998731613
215.0,0.0,0.0,0.0,0.0,0.0,0.0,0.0033749016001820564,-0.10881448537111282,0.0495167002081871,0.9948883652687073,-0.038185395300388336,0.05404733866453171,-0.07628017663955688
216.0,0.0,0.0,0.0,0.0,0.0,0.0,0.0059403893537819386,-0.12255463749170303,0.05885276198387146,0.9948452115058899,-0.04008537903428078,0.052322059869766235,-0.07706711441278458
217.0,0.0,0.0,0.0,0.0,0.0,0.0,0.006031436379998922,-0.11998621374368668,0.057056915014982224,0.9947543144226074,-0.04205525293946266,0.050942618399858475,-0.07810550183057785
218.0,0.0,0.0,0.0,0.0,0.0,0.0,0.010998858138918877,-0.1208864375948906,0.05491376295685768,0.9946169257164001,-0.04436651989817619,0.049874793738126755,-0.07925236225128174
219.0,0.0,0.0,0.0,0.0,0.0,0.0,0.01693495362997055,-0.11604023724794388,0.05243401229381561,0.9943225383758545,-0.047250110656023026,0.04954603314399719,-0.08145713806152344
220.0,0.0,0.0,0.0,0.0,0.0,0.0,0.014436125755310059,-0.11483757942914963,0.052581507712602615,0.9940219521522522,-0.04995066300034523,0.04933707043528557,-0.08361703902482986
221.0,0.0,0.0,0.0,0.0,0.0,0.0,-0.0026095109060406685,-0.10643729567527771,0.05346353352069855,0.9938527941703796,-0.05205035209655762,0.04869735985994339,-0.08471399545669556
222.0,0.0,0.0,0.0,0.0,0.0,0.0,0.0014713325072079897,-0.10062281787395477,0.0515986792743206,0.993712306022644,-0.05317263305187225,0.04853501543402672,-0.08575195074081421
223.0,0.0,0.0,0.0,0.0,0.0,0.0,0.014768259599804878,-0.09478328377008438,0.047775398939847946,0.9935471415519714,-0.05401487275958061,0.04858509823679924,-0.08709774166345596
224.0,0.0,0.0,0.0,0.0,0.0,0.0,0.022541560232639313,-0.08757708966732025,0.044322073459625244,0.9934548735618591,-0.05419494956731796,0.04844331368803978,-0.08811970800161362
225.0,0.0,0.0,0.0,0.0,0.0,0.0,0.026610447093844414,-0.09938425570726395,0.0493481382727623,0.993425190448761,-0.053853798657655716,0.04829852655529976,-0.08873604983091354
226.0,0.0,0.0,0.0,0.0,0.0,0.0,0.018320979550480843,-0.10919275879859924,0.060120318084955215,0.9934005737304688,-0.05368264764547348,0.04784464091062546,-0.08935688436031342
227.0,0.0,0.0,0.0,0.0,0.0,0.0,0.013126710429787636,-0.10366309434175491,0.06055062264204025,0.9933227896690369,-0.053800586611032486,0.04763229563832283,-0.090257428586483
228.0,0.0,0.0,0.0,0.0,0.0,0.0,0.016503827646374702,-0.09756684303283691,0.05965234339237213,0.9932944774627686,-0.05341543257236481,0.04750155285000801,-0.09086884558200836
229.0,0.0,0.0,0.0,0.0,0.0,0.0,0.02335667796432972,-0.10097935050725937,0.06250140070915222,0.9932708144187927,-0.052929144352674484,0.04747958853840828,-0.09142022579908371
230.0,0.0,0.0,0.0,0.0,0.0,0.0,0.021884331479668617,-0.10025811195373535,0.06364701688289642,0.9932106137275696,-0.0524384044110775,0.0474044494330883,-0.09239353239536285
231.0,0.0,0.0,0.0,0.0,0.0,0.0,0.007213905919343233,-0.09941379725933075,0.06805892288684845,0.9932313561439514,-0.05185188725590706,0.046931833028793335,-0.09273253381252289
232.0,0.0,0.0,0.0,0.0,0.0,0.0,-0.019618770107626915,-0.1007748618721962,0.0755726769566536,0.9933027029037476,-0.0514015257358551,0.046650223433971405,-0.09236326068639755
233.0,0.0,0.0,0.0,0.0,0.0,0.0,0.02562948502600193,-0.08691700547933578,0.07175108045339584,0.9934272170066833,-0.04854470118880272,0.04675823822617531,-0.09252281486988068
234.0,0.0,0.0,0.0,0.0,0.0,0.0,-0.4567657709121704,-1.5573819875717163,-0.09608784317970276,0.9813181757926941,0.006040281616151333,0.048081740736961365,-0.18618540465831757
235.0,0.0,0.0,0.0,0.0,0.0,0.0,-1.2418506145477295,-0.6495469212532043,-0.5286666750907898,0.9751700758934021,0.013050355017185211,0.04453197121620178,-0.2165423333644867
236.0,0.0,0.0,0.0,0.0,0.0,0.0,0.6056085228919983,0.17035932838916779,-0.07369688898324966,0.9794986248016357,0.021309655159711838,0.04095946624875069,-0.19609346985816956
237.0,0.0,0.0,0.0,0.0,0.0,0.0,0.016962435096502304,0.028812577947974205,0.03708035498857498,0.9783310294151306,0.02818222902715206,0.04792418330907822,-0.199440598487854
238.0,0.0,0.0,0.0,0.0,0.0,0.0,0.038455184549093246,-0.1127038225531578,0.14010177552700043,0.9771684408187866,0.028989065438508987,0.05357346311211586,-0.20354969799518585
239.0,0.0,0.0,0.0,0.0,0.0,0.0,0.07507458329200745,0.001172119751572609,0.1650501936674118,0.9757684469223022,0.0335947647690773,0.05500162020325661,-0.20909179747104645
240.0,0.0,0.0,0.0,0.0,0.0,0.0,0.04010334238409996,0.013280538842082024,0.1384878158569336,0.9728254675865173,0.03997749462723732,0.05527673661708832,-0.2212800830602646
241.0,0.0,0.0,0.0,0.0,0.0,0.0,0.12103644758462906,-0.1006874069571495,0.09543918073177338,0.9696090817451477,0.04585564509034157,0.05599589645862579,-0.23371854424476624
242.0,0.0,0.0,0.0,0.0,0.0,0.0,0.13468338549137115,-0.13118739426136017,0.09905289858579636,0.9663925170898438,0.05181584507226944,0.0572224035859108,-0.24520981311798096
243.0,0.0,0.0,0.0,0.0,0.0,0.0,0.1294427216053009,-0.12920698523521423,0.11664281785488129,0.9630897045135498,0.057481471449136734,0.057399846613407135,-0.2566264271736145
244.0,0.0,0.0,0.0,0.0,0.0,0.0,0.14141634106636047,-0.1548197865486145,0.11035025119781494,0.9595794081687927,0.06242597848176956,0.056071147322654724,-0.268655925989151
245.0,0.0,0.0,0.0,0.0,0.0,0.0,0.14960411190986633,-0.15887893736362457,0.10131874680519104,0.9559703469276428,0.06715411692857742,0.05264616757631302,-0.2807697355747223
246.0,0.0,0.0,0.0,0.0,0.0,0.0,0.12368084490299225,-0.130043163895607,0.08519282191991806,0.952231228351593,0.07213463634252548,0.047581568360328674,-0.29291054606437683
247.0,0.0,0.0,0.0,0.0,0.0,0.0,0.028830571100115776,-0.07552434504032135,0.04484090209007263,0.9508877396583557,0.0700133666396141,0.03930302709341049,-0.29894396662712097
248.0,0.0,0.0,0.0,0.0,0.0,0.0,-0.06830538064241409,-0.03495936840772629,0.01110926829278469,0.9582812190055847,0.04478873312473297,0.02396879345178604,-0.2812734544277191
249.0,0.0,0.0,0.0,0.0,0.0,0.0,0.2561131715774536,0.07709261775016785,0.48955339193344116,0.9722343683242798,0.015495037660002708,0.05704201012849808,-0.22641699016094208
250.0,0.0,0.0,0.0,0.0,0.0,0.0,0.48892220854759216,-0.030936066061258316,-0.017233146354556084,0.973625659942627,0.019624514505267143,0.08433982729911804,-0.21107730269432068
251.0,0.0,0.0,0.0,0.0,0.0,0.0,0.07859960943460464,-0.0845329612493515,0.05604400113224983,0.9727182388305664,0.018046371638774872,0.07622542232275009,-0.21837086975574493
252.0,0.0,0.0,0.0,0.0,0.0,0.0,0.1012227013707161,-0.044035397469997406,0.12813468277454376,0.9726139903068542,0.015682438388466835,0.0764203816652298,-0.2189437597990036
253.0,0.0,0.0,0.0,0.0,0.0,0.0,0.1273319125175476,-0.06036549061536789,0.07935327291488647,0.9718520641326904,0.015211149118840694,0.0756107047200203,-0.222616046667099
254.0,0.0,0.0,0.0,0.0,0.0,0.0,0.1018127053976059,-0.048683445900678635,0.09606511890888214,0.9712551236152649,0.014451834373176098,0.07368240505456924,-0.22588227689266205
255.0,0.0,0.0,0.0,0.0,0.0,0.0,0.11212561279535294,-0.04065018147230148,0.0872003361582756,0.9706000685691833,0.014182665385305882,0.07240787148475647,-0.22911480069160461
256.0,0.0,0.0,0.0,0.0,0.0,0.0,0.11590197682380676,-0.04246710613369942,0.07934590429067612,0.9696621894836426,0.013375923037528992,0.07131729274988174,-0.23344801366329193
257.0,0.0,0.0,0.0,0.0,0.0,0.0,0.10468707978725433,-0.043003860861063004,0.08184105157852173,0.9687421321868896,0.011769164353609085,0.06998899579048157,-0.23771022260189056
258.0,0.0,0.0,0.0,0.0,0.0,0.0,0.07861410826444626,-0.03654879704117775,0.08940214663743973,0.9679001569747925,0.009635047055780888,0.06846224516630173,-0.24164979159832
259.0,0.0,0.0,0.0,0.0,0.0,0.0,0.06686995923519135,-0.033347681164741516,0.0973823219537735,0.9670060276985168,0.007871365174651146,0.06747965514659882,-0.24552814662456512
260.0,0.0,0.0,0.0,0.0,0.0,0.0,0.08105099201202393,-0.03787529096007347,0.0979633629322052,0.9660757184028625,0.006317961495369673,0.06720080226659775,-0.2492780089378357
261.0,0.0,0.0,0.0,0.0,0.0,0.0,0.10009730607271194,-0.03894124552607536,0.09053414314985275,0.9651177525520325,0.0053166612051427364,0.0673406571149826,-0.2529488205909729
262.0,0.0,0.0,0.0,0.0,0.0,0.0,0.1136418804526329,-0.03545093536376953,0.08477338403463364,0.9642914533615112,0.004921655636280775,0.06739265471696854,-0.25607171654701233
263.0,0.0,0.0,0.0,0.0,0.0,0.0,0.12454871833324432,-0.03620576858520508,0.08354318886995316,0.963462233543396,0.004815602209419012,0.0671270489692688,-0.2592499256134033
264.0,0.0,0.0,0.0,0.0,0.0,0.0,0.13113197684288025,-0.029947146773338318,0.08042645454406738,0.9627267718315125,0.005271035712212324,0.06655563414096832,-0.26210352778434753
265.0,0.0,0.0,0.0,0.0,0.0,0.0,0.13338404893875122,-0.02529546432197094,0.07495489716529846,0.9619057178497314,0.0053147063590586185,0.06571431457996368,-0.26531562209129333
266.0,0.0,0.0,0.0,0.0,0.0,0.0,0.13065244257450104,-0.02057790383696556,0.0737362876534462,0.9610549211502075,0.0051948754116892815,0.06485305726528168,-0.26860401034355164
267.0,0.0,0.0,0.0,0.0,0.0,0.0,0.1198834627866745,-0.01986025460064411,0.07973676919937134,0.9602015018463135,0.00482566561549902,0.06369928270578384,-0.2719052731990814
268.0,0.0,0.0,0.0,0.0,0.0,0.0,0.1105966791510582,-0.016678160056471825,0.08275920897722244,0.9594579935073853,0.004414108116179705,0.06222153455018997,-0.27485421299934387
269.0,0.0,0.0,0.0,0.0,0.0,0.0,0.09579391777515411,-0.002957308432087302,0.0839562863111496,0.9587610960006714,0.003759890329092741,0.060688674449920654,-0.27763304114341736
270.0,0.0,0.0,0.0,0.0,0.0,0.0,0.0777621865272522,0.011266965419054031,0.08999413996934891,0.9581994414329529,0.0036626732908189297,0.059425435960292816,-0.27984556555747986
271.0,0.0,0.0,0.0,0.0,0.0,0.0,0.08448050916194916,0.009576551616191864,0.09042437374591827,0.9578980207443237,0.004356643185019493,0.05855798348784447,-0.2810455858707428
272.0,0.0,0.0,0.0,0.0,0.0,0.0,0.10193860530853271,0.0014235145645216107,0.08734027296304703,0.9574768543243408,0.004762296564877033,0.05806221440434456,-0.28257811069488525
273.0,0.0,0.0,0.0,0.0,0.0,0.0,0.1029776856303215,0.0017277542501688004,0.08418232202529907,0.9569427967071533,0.004888264928013086,0.057188980281353,-0.28454485535621643
274.0,0.0,0.0,0.0,0.0,0.0,0.0,0.10142533481121063,0.01353931613266468,0.08812522143125534,0.9563498497009277,0.004940026439726353,0.05671898275613785,-0.28661859035491943
275.0,0.0,0.0,0.0,0.0,0.0,0.0,0.11220218241214752,0.021544616669416428,0.08530586212873459,0.955918550491333,0.0055337329395115376,0.05672181025147438,-0.28804442286491394
276.0,0.0,0.0,0.0,0.0,0.0,0.0,0.13174203038215637,0.01578547991812229,0.08285142481327057,0.9554308652877808,0.00693139061331749,0.05684325844049454,-0.2896178662776947
277.0,0.0,0.0,0.0,0.0,0.0,0.0,0.13845783472061157,0.011067083105444908,0.079035684466362,0.9548306465148926,0.00749688595533371,0.056863050907850266,-0.291553258895874
278.0,0.0,0.0,0.0,0.0,0.0,0.0,0.12602859735488892,0.01618010550737381,0.07847578078508377,0.9542990326881409,0.008042681030929089,0.05674074590206146,-0.29331275820732117
279.0,0.0,0.0,0.0,0.0,0.0,0.0,0.11595632135868073,0.019542325288057327,0.07966617494821548,0.9537929892539978,0.008468113839626312,0.05638714134693146,-0.29500895738601685
280.0,0.0,0.0,0.0,0.0,0.0,0.0,0.11489623039960861,0.01950915716588497,0.08185529708862305,0.9533029794692993,0.008619372732937336,0.056575074791908264,-0.29654890298843384
281.0,0.0,0.0,0.0,0.0,0.0,0.0,0.11525274813175201,0.01718432642519474,0.08301025629043579,0.9527254700660706,0.008853867650032043,0.057376570999622345,-0.29824700951576233
282.0,0.0,0.0,0.0,0.0,0.0,0.0,0.11667870730161667,0.015642434358596802,0.0837738960981369,0.9523311853408813,0.009151455014944077,0.058294713497161865,-0.29930371046066284
283.0,0.0,0.0,0.0,0.0,0.0,0.0,0.11986346542835236,0.0122324638068676,0.08307410031557083,0.9520175457000732,0.009597890079021454,0.059286054223775864,-0.3000898063182831
284.0,0.0,0.0,0.0,0.0,0.0,0.0,0.12323804944753647,0.016194628551602364,0.08325262367725372,0.9515401124954224,0.01005821954458952,0.06048904359340668,-0.30135250091552734
285.0,0.0,0.0,0.0,0.0,0.0,0.0,0.12508872151374817,0.01805676892399788,0.07994621992111206,0.9511223435401917,0.01066604070365429,0.0616307370364666,-0.3024262487888336
286.0,0.0,0.0,0.0,0.0,0.0,0.0,0.12330552190542221,0.02576158568263054,0.08030330389738083,0.9508760571479797,0.011639167554676533,0.062084637582302094,-0.30305206775665283
287.0,0.0,0.0,0.0,0.0,0.0,0.0,0.11922069638967514,0.030552171170711517,0.08232245594263077,0.9504373073577881,0.012619729153811932,0.06261661648750305,-0.30429607629776
288.0,0.0,0.0,0.0,0.0,0.0,0.0,0.11824103444814682,0.03207920491695404,0.08233033120632172,0.9499865770339966,0.013725453056395054,0.06310362368822098,-0.305547833442688
289.0,0.0,0.0,0.0,0.0,0.0,0.0,0.13120223581790924,0.03449305519461632,0.07404908537864685,0.949650764465332,0.015130991116166115,0.06328295171260834,-0.3064764440059662
290.0,0.0,0.0,0.0,0.0,0.0,0.0,0.13633719086647034,0.03551628813147545,0.07113438844680786,0.9492347836494446,0.016537584364414215,0.0633263811469078,-0.3076794147491455
291.0,0.0,0.0,0.0,0.0,0.0,0.0,0.12751729786396027,0.03500454127788544,0.08128266036510468,0.9488628506660461,0.01808089017868042,0.06320599466562271,-0.3087785840034485
292.0,0.0,0.0,0.0,0.0,0.0,0.0,0.13032451272010803,0.035633377730846405,0.08059076219797134,0.9486709237098694,0.019593900069594383,0.06290014833211899,-0.30934518575668335
293.0,0.0,0.0,0.0,0.0,0.0,0.0,0.12026004493236542,0.032902881503105164,0.08741378784179688,0.9485644698143005,0.020988091826438904,0.06231800839304924,-0.30966976284980774
294.0,0.0,0.0,0.0,0.0,0.0,0.0,0.11645929515361786,0.03294802084565163,0.08680940419435501,0.948707640171051,0.022651642560958862,0.06128161773085594,-0.30932480096817017
295.0,0.0,0.0,0.0,0.0,0.0,0.0,0.10192611068487167,0.04406517371535301,0.09095737338066101,0.9490231275558472,0.02439933642745018,0.05990521237254143,-0.30849120020866394
296.0,0.0,0.0,0.0,0.0,0.0,0.0,0.09793560951948166,0.06017417833209038,0.09322452545166016,0.9494566321372986,0.027069179341197014,0.058723676949739456,-0.3071708083152771
297.0,0.0,0.0,0.0,0.0,0.0,0.0,0.11122328042984009,0.04916078597307205,0.09022486954927444,0.9501892924308777,0.030587369576096535,0.058441318571567535,-0.3046181797981262
298.0,0.0,0.0,0.0,0.0,0.0,0.0,0.1380794495344162,0.04707247391343117,0.0764818862080574,0.9510252475738525,0.03427955508232117,0.05820762366056442,-0.3016485869884491
299.0,0.0,0.0,0.0,0.0,0.0,0.0,0.16465122997760773,0.054600007832050323,0.07453907281160355,0.9516668915748596,0.038107141852378845,0.05816640704870224,-0.29915839433670044
300.0,0.0,0.0,0.0,0.0,0.0,0.0,0.1834135502576828,0.04834723845124245,0.06903277337551117,0.9520774483680725,0.04186519235372543,0.057389307767152786,-0.297478049993515
301.0,0.0,0.0,0.0,0.0,0.0,0.0,0.18192839622497559,0.045417577028274536,0.07289706915616989,0.9522496461868286,0.045130692422389984,0.05591233819723129,-0.29675018787384033
302.0,0.0,0.0,0.0,0.0,0.0,0.0,0.17142149806022644,0.0379803329706192,0.07706696540117264,0.9522749185562134,0.04762553796172142,0.054027408361434937,-0.29660534858703613
303.0,0.0,0.0,0.0,0.0,0.0,0.0,0.14969222247600555,0.03603287413716316,0.08076470345258713,0.9520498514175415,0.04918349161744118,0.05157281085848808,-0.2975150942802429
304.0,0.0,0.0,0.0,0.0,0.0,0.0,0.12387719005346298,0.04713302478194237,0.08840899914503098,0.9517058730125427,0.04947774112224579,0.048621416091918945,-0.2990811765193939
305.0,0.0,0.0,0.0,0.0,0.0,0.0,0.11222657561302185,0.0533817894756794,0.08745719492435455,0.951465904712677,0.04905752092599869,0.045434415340423584,-0.30040034651756287
306.0,0.0,0.0,0.0,0.0,0.0,0.0,0.11858212202787399,0.0637238398194313,0.07232074439525604,0.9510663747787476,0.04835691303014755,0.04217855632305145,-0.30224382877349854
307.0,0.0,0.0,0.0,0.0,0.0,0.0,0.12474913150072098,0.06275727599859238,0.06963663548231125,0.950337290763855,0.04723460227251053,0.03943336009979248,-0.30508527159690857
308.0,0.0,0.0,0.0,0.0,0.0,0.0,0.12736359238624573,0.050080556422472,0.07292713969945908,0.9494861364364624,0.045719046145677567,0.03753288835287094,-0.3081984221935272
309.0,0.0,0.0,0.0,0.0,0.0,0.0,0.1432894617319107,0.04849863052368164,0.06290926784276962,0.9484038949012756,0.04436612129211426,0.03541744500398636,-0.3119392395019531
310.0,0.0,0.0,0.0,0.0,0.0,0.0,0.14236681163311005,0.05120951309800148,0.07272399216890335,0.9471118450164795,0.043152887374162674,0.03359956666827202,-0.31621888279914856
311.0,0.0,0.0,0.0,0.0,0.0,0.0,0.13942214846611023,0.05584682524204254,0.07812296599149704,0.9458151459693909,0.04152859374880791,0.03172760456800461,-0.3204726278781891
312.0,0.0,0.0,0.0,0.0,0.0,0.0,0.1407894641160965,0.052994225174188614,0.0783495083451271,0.9445112347602844,0.04007907956838608,0.030155301094055176,-0.3246329724788666
313.0,0.0,0.0,0.0,0.0,0.0,0.0,0.1396930068731308,0.05441057309508324,0.06984953582286835,0.9432200789451599,0.03902086243033409,0.028643621131777763,-0.3286186754703522
314.0,0.0,0.0,0.0,0.0,0.0,0.0,0.13770323991775513,0.054755207151174545,0.07206815481185913,0.9421212077140808,0.03828286752104759,0.026593061164021492,-0.3320293724536896
315.0,0.0,0.0,0.0,0.0,0.0,0.0,0.14725281298160553,0.060925524681806564,0.07292447239160538,0.9411540031433105,0.037389468401670456,0.025052057579159737,-0.334963321685791
316.0,0.0,0.0,0.0,0.0,0.0,0.0,0.1593344509601593,0.06521821022033691,0.06604278832674026,0.9401969909667969,0.036815330386161804,0.02419198304414749,-0.3377705216407776
317.0,0.0,0.0,0.0,0.0,0.0,0.0,0.1667240858078003,0.06715022772550583,0.058607783168554306,0.9393596053123474,0.03664609044790268,0.022276250645518303,-0.34024086594581604
318.0,0.0,0.0,0.0,0.0,0.0,0.0,0.15639296174049377,0.06543651968240738,0.06711821258068085,0.9385319352149963,0.03607475385069847,0.019634533673524857,-0.34274598956108093
319.0,0.0,0.0,0.0,0.0,0.0,0.0,0.15109682083129883,0.061474286019802094,0.07445815950632095,0.937589168548584,0.035567596554756165,0.01760503277182579,-0.3454907536506653
320.0,0.0,0.0,0.0,0.0,0.0,0.0,0.15067951381206512,0.06055472046136856,0.06782742589712143,0.9365451335906982,0.034637946635484695,0.015332898125052452,-0.34849438071250916
321.0,0.0,0.0,0.0,0.0,0.0,0.0,0.15400071442127228,0.06737399101257324,0.05818033218383789,0.9353963136672974,0.03342325612902641,0.011919122189283371,-0.35184216499328613
322.0,0.0,0.0,0.0,0.0,0.0,0.0,0.15296505391597748,0.07370854914188385,0.06412957608699799,0.9344098567962646,0.0323178768157959,0.007658667862415314,-0.3546549081802368
323.0,0.0,0.0,0.0,0.0,0.0,0.0,0.14952675998210907,0.08170285075902939,0.08147630095481873,0.9333943724632263,0.03183446079492569,0.003723002737388015,-0.35741880536079407
324.0,0.0,0.0,0.0,0.0,0.0,0.0,0.16297781467437744,0.07009405642747879,0.06752224266529083,0.9324190616607666,0.03191262483596802,0.00037119301850907505,-0.35995572805404663
325.0,0.0,0.0,0.0,0.0,0.0,0.0,0.1795930564403534,0.05859552323818207,0.04333404079079628,0.9313609004020691,0.032686371356248856,-0.0026644000317901373,-0.3626214265823364
326.0,0.0,0.0,0.0,0.0,0.0,0.0,0.186453178524971,0.04648026078939438,0.023364709690213203,0.9302729964256287,0.035021379590034485,-0.0063681271858513355,-0.36513635516166687
327.0,0.0,0.0,0.0,0.0,0.0,0.0,0.18507696688175201,0.07239054888486862,0.03736795112490654,0.9294703602790833,0.03775293007493019,-0.010896243155002594,-0.3667996823787689
328.0,0.0,0.0,0.0,0.0,0.0,0.0,0.18250544369220734,0.040016792714595795,0.02904427796602249,0.9287315607070923,0.041739821434020996,-0.01391499675810337,-0.3681524693965912
329.0,0.0,0.0,0.0,0.0,0.0,0.0,0.2506532669067383,-0.03496977314352989,-0.11780184507369995,0.9279099702835083,0.048668548464775085,-0.01996697671711445,-0.3690653443336487
330.0,0.0,0.0,0.0,0.0,0.0,0.0,0.2684856653213501,0.05881984531879425,-0.008167102001607418,0.9272810816764832,0.05749499797821045,-0.029511170461773872,-0.36874085664749146
331.0,0.0,0.0,0.0,0.0,0.0,0.0,0.2105388194322586,0.10707975924015045,0.0760396271944046,0.9268545508384705,0.06329158693552017,-0.03633420169353485,-0.36825019121170044
332.0,0.0,0.0,0.0,0.0,0.0,0.0,0.19544373452663422,0.07074593007564545,0.003594758687540889,0.926659107208252,0.06665756553411484,-0.04444880411028862,-0.36724576354026794
333.0,0.0,0.0,0.0,0.0,0.0,0.0,0.07754570990800858,0.15901951491832733,0.09710879623889923,0.9268609285354614,0.06736836582422256,-0.05412567779421806,-0.36534762382507324
334.0,0.0,0.0,0.0,0.0,0.0,0.0,0.014387966133654118,0.2157817929983139,0.11571699380874634,0.9273306131362915,0.06776290386915207,-0.06191740930080414,-0.36281618475914
335.0,0.0,0.0,0.0,0.0,0.0,0.0,0.05502187833189964,0.20378519594669342,0.055290766060352325,0.9276816844940186,0.06919272989034653,-0.0669163167476654,-0.3607586622238159
336.0,0.0,0.0,0.0,0.0,0.0,0.0,0.0695532038807869,0.18296343088150024,0.05176536366343498,0.9279338121414185,0.07089120894670486,-0.07212481647729874,-0.35878387093544006
337.0,0.0,0.0,0.0,0.0,0.0,0.0,0.07708939164876938,0.21458889544010162,0.04790626838803291,0.9285117983818054,0.07332417368888855,-0.07586678117513657,-0.35600748658180237
338.0,0.0,0.0,0.0,0.0,0.0,0.0,0.08000657707452774,0.23754528164863586,0.03325740247964859,0.9290244579315186,0.07645450532436371,-0.07768847048282623,-0.35360196232795715
339.0,0.0,0.0,0.0,0.0,0.0,0.0,0.0598294772207737,0.21940505504608154,0.04784582182765007,0.929827094078064,0.07882561534643173,-0.07755773514509201,-0.3510138690471649
340.0,0.0,0.0,0.0,0.0,0.0,0.0,0.05651320144534111,0.21944962441921234,0.042612820863723755,0.9313660860061646,0.0807277262210846,-0.07585366070270538,-0.3468100130558014
341.0,0.0,0.0,0.0,0.0,0.0,0.0,0.09044795483350754,0.22269251942634583,0.009359423071146011,0.9328963160514832,0.08389642089605331,-0.07278496026992798,-0.34256404638290405
342.0,0.0,0.0,0.0,0.0,0.0,0.0,0.10139205306768417,0.19756069779396057,0.007819764316082,0.9338608384132385,0.08699050545692444,-0.06972222775220871,-0.33982256054878235
343.0,0.0,0.0,0.0,0.0,0.0,0.0,0.09851592034101486,0.18967071175575256,0.03204447403550148,0.9355331659317017,0.08937215805053711,-0.06380432844161987,-0.33573272824287415
344.0,0.0,0.0,0.0,0.0,0.0,0.0,0.10351346433162689,0.2306109219789505,0.00035384780494496226,0.9363406300544739,0.09223372489213943,-0.058244410902261734,-0.333714097738266
345.0,0.0,0.0,0.0,0.0,0.0,0.0,0.09994221478700638,0.1963030993938446,0.019385164603590965,0.9360895752906799,0.09571187943220139,-0.053265199065208435,-0.3342744708061218
346.0,0.0,0.0,0.0,0.0,0.0,0.0,0.07714180648326874,0.22271628677845,0.04772430285811424,0.9361511468887329,0.09905067086219788,-0.049303896725177765,-0.33372828364372253
347.0,0.0,0.0,0.0,0.0,0.0,0.0,0.0435408353805542,0.3016917109489441,0.05967966839671135,0.9356293082237244,0.09819251298904419,-0.04555172473192215,-0.33598238229751587
348.0,0.0,0.0,0.0,0.0,0.0,0.0,0.009638943709433079,0.33830395340919495,0.08072039484977722,0.933372974395752,0.09562608599662781,-0.03836032375693321,-0.343812495470047
349.0,0.0,0.0,0.0,0.0,0.0,0.0,0.04715605080127716,0.20097364485263824,0.10071506351232529,0.9286020398139954,0.09362386912107468,-0.025797933340072632,-0.35816144943237305
350.0,0.0,0.0,0.0,0.0,0.0,0.0,0.1191975548863411,0.0717279240489006,0.13241155445575714,0.9237645268440247,0.08895313739776611,-0.0109061598777771,-0.3723453879356384
351.0,0.0,0.0,0.0,0.0,0.0,0.0,0.1597638726234436,0.038848504424095154,0.08999168127775192,0.9205539226531982,0.0848369151353836,0.006843825336545706,-0.3812307119369507
352.0,0.0,0.0,0.0,0.0,0.0,0.0,0.24425774812698364,0.004450421780347824,-0.007202620152384043,0.9167662262916565,0.08870217949151993,0.024929126724600792,-0.38867300748825073
353.0,0.0,0.0,0.0,0.0,0.0,0.0,0.30118921399116516,-0.08654911816120148,-0.040673136711120605,0.9132368564605713,0.0939931720495224,0.03978629782795906,-0.3944467008113861
354.0,0.0,0.0,0.0,0.0,0.0,0.0,0.32916533946990967,-0.016512136906385422,-0.061727236956357956,0.9106923341751099,0.10010910034179688,0.04944029822945595,-0.3977023959159851
355.0,0.0,0.0,0.0,0.0,0.0,0.0,0.25420284271240234,0.0023169899359345436,-0.006951688323169947,0.9088547229766846,0.10666036605834961,0.055430177599191666,-0.39939552545547485
356.0,0.0,0.0,0.0,0.0,0.0,0.0,0.18839259445667267,0.03488381206989288,0.009653262794017792,0.9079909920692444,0.11006231606006622,0.05777612328529358,-0.400145560503006
357.0,0.0,0.0,0.0,0.0,0.0,0.0,0.24782484769821167,0.0528426319360733,-0.009318865835666656,0.9077544212341309,0.11394394189119339,0.05707302317023277,-0.399675577878952
358.0,0.0,0.0,0.0,0.0,0.0,0.0,0.2684483230113983,0.039210837334394455,0.03423237428069115,0.9063643217086792,0.11852900683879852,0.05114252120256424,-0.40229225158691406
359.0,0.0,0.0,0.0,0.0,0.0,0.0,0.111372210085392,0.05333618447184563,0.0673874244093895,0.9048340916633606,0.11911218613386154,0.04584886133670807,-0.40618857741355896
360.0,0.0,0.0,0.0,0.0,0.0,0.0,0.15515927970409393,0.07550272345542908,0.00628000358119607,0.9039267301559448,0.11985590308904648,0.03913244605064392,-0.4086950719356537
361.0,0.0,0.0,0.0,0.0,0.0,0.0,0.11416091024875641,0.07764694839715958,0.043744854629039764,0.9030781984329224,0.11972391605377197,0.030436886474490166,-0.41132819652557373
362.0,0.0,0.0,0.0,0.0,0.0,0.0,0.04104884713888168,0.11562411487102509,0.11631055176258087,0.9022339582443237,0.11794253438711166,0.023730279877781868,-0.41410958766937256
363.0,0.0,0.0,0.0,0.0,0.0,0.0,0.03478867560625076,0.09767014533281326,0.1190318912267685,0.9012966752052307,0.1154794916510582,0.017341487109661102,-0.4171762466430664
364.0,0.0,0.0,0.0,0.0,0.0,0.0,0.022624477744102478,0.1259995698928833,0.11792125552892685,0.900835394859314,0.11231344193220139,0.011809967458248138,-0.41922837495803833
365.0,0.0,0.0,0.0,0.0,0.0,0.0,0.06909391283988953,0.13533563911914825,0.08127894252538681,0.9008412957191467,0.10989755392074585,0.007434575352817774,-0.4199542999267578
366.0,0.0,0.0,0.0,0.0,0.0,0.0,0.08009806275367737,0.13303786516189575,0.09284230321645737,0.9013761878013611,0.10768699645996094,0.004223204683512449,-0.4194251298904419
367.0,0.0,0.0,0.0,0.0,0.0,0.0,0.11543640494346619,0.13880297541618347,0.07994765043258667,0.9022086262702942,0.10550960898399353,0.0016134909819811583,-0.4181748330593109
368.0,0.0,0.0,0.0,0.0,0.0,0.0,0.1512078046798706,0.14438185095787048,0.05013298615813255,0.9026497006416321,0.10330091416835785,-0.0013933377340435982,-0.41776415705680847
369.0,0.0,0.0,0.0,0.0,0.0,0.0,0.12888304889202118,0.15948644280433655,0.016318384557962418,0.9030023217201233,0.10115726292133331,-0.005380469840019941,-0.41753843426704407
370.0,0.0,0.0,0.0,0.0,0.0,0.0,0.1528017371892929,0.1758294254541397,-0.019557181745767593,0.9034928679466248,0.10104948282241821,-0.010507140308618546,-0.4163857102394104
371.0,0.0,0.0,0.0,0.0,0.0,0.0,0.25613951683044434,0.12929648160934448,-0.05598478391766548,0.9036538004875183,0.10282135754823685,-0.01644696481525898,-0.4154152572154999
372.0,0.0,0.0,0.0,0.0,0.0,0.0,0.2838844358921051,0.06860089302062988,-0.07691410928964615,0.9032527208328247,0.10306321829557419,-0.023487303406000137,-0.4158886671066284
373.0,0.0,0.0,0.0,0.0,0.0,0.0,0.19851598143577576,0.07077805697917938,-0.006737577263265848,0.9027177691459656,0.10029619932174683,-0.03227941691875458,-0.4171418845653534
374.0,0.0,0.0,0.0,0.0,0.0,0.0,0.0499093122780323,0.17314468324184418,0.060726895928382874,0.9029445648193359,0.09575942158699036,-0.039794642478227615,-0.4170624613761902
375.0,0.0,0.0,0.0,0.0,0.0,0.0,0.03866933658719063,0.2558581531047821,0.06689497083425522,0.9038031101226807,0.09303992986679077,-0.045148417353630066,-0.415283203125
376.0,0.0,0.0,0.0,0.0,0.0,0.0,0.11671965569257736,0.23412106931209564,0.012229270301759243,0.9048346281051636,0.09093692153692245,-0.04964132234454155,-0.41295817494392395
377.0,0.0,0.0,0.0,0.0,0.0,0.0,0.08025015890598297,0.1904221624135971,0.032989222556352615,0.9056776165962219,0.08660852164030075,-0.053965967148542404,-0.4115094840526581
378.0,0.0,0.0,0.0,0.0,0.0,0.0,0.032190486788749695,0.18314117193222046,0.10336902737617493,0.9063794016838074,0.08155656605958939,-0.05695588141679764,-0.41058772802352905
379.0,0.0,0.0,0.0,0.0,0.0,0.0,0.05922851338982582,0.18543538451194763,0.10416760295629501,0.9071747064590454,0.07804669439792633,-0.0571051649749279,-0.4094984531402588
380.0,0.0,0.0,0.0,0.0,0.0,0.0,0.11653950810432434,0.17794688045978546,0.06842467933893204,0.9078254103660583,0.07547131180763245,-0.05463016405701637,-0.4088670015335083
381.0,0.0,0.0,0.0,0.0,0.0,0.0,0.15394461154937744,0.16353599727153778,0.07062969356775284,0.9082477688789368,0.07327785342931747,-0.049359530210494995,-0.4090099036693573
382.0,0.0,0.0,0.0,0.0,0.0,0.0,0.18571056425571442,0.13260570168495178,0.026888268068432808,0.9079890847206116,0.07083570212125778,-0.04142215475440025,-0.4108964800834656
383.0,0.0,0.0,0.0,0.0,0.0,0.0,0.20377060770988464,0.0780593678355217,-0.08051098138093948,0.9073306322097778,0.0684625655412674,-0.033799126744270325,-0.4134490489959717
384.0,0.0,0.0,0.0,0.0,0.0,0.0,0.20503686368465424,0.07465258985757828,-0.02919733338057995,0.9059518575668335,0.06573377549648285,-0.02706446871161461,-0.4173935651779175
385.0,0.0,0.0,0.0,0.0,0.0,0.0,0.24359358847141266,0.08049006760120392,-0.00528973201289773,0.9034775495529175,0.0656818076968193,-0.019845711067318916,-0.4231216609477997
386.0,0.0,0.0,0.0,0.0,0.0,0.0,0.2749021351337433,0.04773449897766113,-0.06125786155462265,0.8999185562133789,0.06674866378307343,-0.012559975497424603,-0.43074727058410645
387.0,0.0,0.0,0.0,0.0,0.0,0.0,0.223823681473732,0.10601373761892319,-0.010846799239516258,0.896101176738739,0.06714653223752975,-0.005694958381354809,-0.43870043754577637
388.0,0.0,0.0,0.0,0.0,0.0,0.0,0.24519336223602295,0.1155734583735466,-0.050650402903556824,0.8921336531639099,0.06871452182531357,-0.0010188863379880786,-0.446521133184433
389.0,0.0,0.0,0.0,0.0,0.0,0.0,0.20593701303005219,0.05369618162512779,-0.029023801907896996,0.8883168697357178,0.06875675171613693,-0.0019849904347211123,-0.4540373682975769
390.0,0.0,0.0,0.0,0.0,0.0,0.0,0.11045198887586594,0.1191292479634285,0.0364430695772171,0.8858051300048828,0.06855840981006622,-0.007248777896165848,-0.4589144289493561
391.0,0.0,0.0,0.0,0.0,0.0,0.0,0.16522514820098877,0.1345912665128708,-0.05544576048851013,0.8846973776817322,0.07139125466346741,-0.01802874729037285,-0.46031418442726135
392.0,0.0,0.0,0.0,0.0,0.0,0.0,0.26495158672332764,0.04679562896490097,-0.061482176184654236,0.884306788444519,0.07541593164205551,-0.03109402023255825,-0.45974498987197876
393.0,0.0,0.0,0.0,0.0,0.0,0.0,0.24673785269260406,0.07043824344873428,0.028208164498209953,0.8848176002502441,0.07963328063488007,-0.04482981562614441,-0.4568779170513153
394.0,0.0,0.0,0.0,0.0,0.0,0.0,0.1825808882713318,0.18073758482933044,0.08353839814662933,0.8861472606658936,0.08073905855417252,-0.05657368153333664,-0.4528067409992218
395.0,0.0,0.0,0.0,0.0,0.0,0.0,0.10181781649589539,0.246648907661438,0.08421843498945236,0.8873149752616882,0.0811699703335762,-0.06461317837238312,-0.4493235647678375
396.0,0.0,0.0,0.0,0.0,0.0,0.0,-0.013059495948255062,0.29283493757247925,0.0936458557844162,0.888518214225769,0.08075517416000366,-0.07084684073925018,-0.44607558846473694
397.0,0.0,0.0,0.0,0.0,0.0,0.0,-0.07247604429721832,0.3973117172718048,0.08411823213100433,0.8899167776107788,0.08094410598278046,-0.07405415922403336,-0.4427347779273987
398.0,0.0,0.0,0.0,0.0,0.0,0.0,-0.04055502265691757,0.3804505169391632,0.05838434025645256,0.89057457447052,0.0823678970336914,-0.07251924276351929,-0.4414050877094269
399.0,0.0,0.0,0.0,0.0,0.0,0.0,0.037288110703229904,0.2708341181278229,0.0792902261018753,0.8914362192153931,0.08252720534801483,-0.06885327398777008,-0.44024649262428284
400.0,0.0,0.0,0.0,0.0,0.0,0.0,0.13628581166267395,0.21819646656513214,0.03761279955506325,0.8933113813400269,0.08249098807573318,-0.06418078392744064,-0.4370964467525482
401.0,0.0,0.0,0.0,0.0,0.0,0.0,0.23251879215240479,0.19979414343833923,-0.06043084338307381,0.8949722051620483,0.08437525480985641,-0.06008537858724594,-0.43393340706825256
402.0,0.0,0.0,0.0,0.0,0.0,0.0,0.21949410438537598,0.21205097436904907,-0.056090403348207474,0.8963233828544617,0.08627717941999435,-0.057041630148887634,-0.43116796016693115
403.0,0.0,0.0,0.0,0.0,0.0,0.0,0.14660730957984924,0.23424363136291504,-0.02553265355527401,0.8973449468612671,0.08760672062635422,-0.05409012362360954,-0.4291597306728363
404.0,0.0,0.0,0.0,0.0,0.0,0.0,0.11758773773908615,0.2541845440864563,-0.019573597237467766,0.8981891870498657,0.08856116235256195,-0.05171993374824524,-0.4274609088897705
405.0,0.0,0.0,0.0,0.0,0.0,0.0,0.09789001941680908,0.2455204278230667,0.004514556378126144,0.8989802598953247,0.08889952301979065,-0.049513403326272964,-0.4260285794734955
406.0,0.0,0.0,0.0,0.0,0.0,0.0,0.08906514197587967,0.2384359985589981,-0.009252435527741909,0.8997747302055359,0.08835203945636749,-0.04699012637138367,-0.4247346818447113
407.0,0.0,0.0,0.0,0.0,0.0,0.0,0.07092905789613724,0.23655712604522705,0.013100949116051197,0.9004198908805847,0.08701179921627045,-0.04433540254831314,-0.42392846941947937
408.0,0.0,0.0,0.0,0.0,0.0,0.0,0.08726295083761215,0.2191518247127533,0.015528847463428974,0.9013519883155823,0.08538194745779037,-0.040553659200668335,-0.42265084385871887
409.0,0.0,0.0,0.0,0.0,0.0,0.0,0.19306612014770508,0.17652738094329834,-0.019457494840025902,0.9020510315895081,0.08444643765687943,-0.0374516025185585,-0.4216371178627014
410.0,0.0,0.0,0.0,0.0,0.0,0.0,0.14831778407096863,0.2223990112543106,0.012045792303979397,0.902375340461731,0.08342926949262619,-0.03702141344547272,-0.42117124795913696
411.0,0.0,0.0,0.0,0.0,0.0,0.0,0.12156639248132706,0.20683641731739044,0.008558695204555988,0.9022653698921204,0.08303675800561905,-0.037123505026102066,-0.42149224877357483
412.0,0.0,0.0,0.0,0.0,0.0,0.0,0.20968353748321533,0.14704467356204987,-0.02970425970852375,0.9018045663833618,0.08310747891664505,-0.038956236094236374,-0.422306090593338
413.0,0.0,0.0,0.0,0.0,0.0,0.0,0.28897857666015625,0.12441984564065933,-0.06337977200746536,0.9013957977294922,0.0839255303144455,-0.0450078547000885,-0.42240941524505615
414.0,0.0,0.0,0.0,0.0,0.0,0.0,0.2604910731315613,0.13596294820308685,-0.08133246004581451,0.9003766179084778,0.08379518240690231,-0.05521198362112045,-0.42338281869888306
415.0,0.0,0.0,0.0,0.0,0.0,0.0,0.09321682900190353,0.16882728040218353,-0.0057995859533548355,0.8990263938903809,0.07973963022232056,-0.06526349484920502,-0.42558395862579346
416.0,0.0,0.0,0.0,0.0,0.0,0.0,0.019953878596425056,0.21900023519992828,0.052947476506233215,0.8980533480644226,0.07452815771102905,-0.07312913984060287,-0.42730051279067993
417.0,0.0,0.0,0.0,0.0,0.0,0.0,-0.017832649871706963,0.2896100580692291,0.04318613559007645,0.8974986672401428,0.07034595310688019,-0.07936550676822662,-0.4281037151813507
418.0,0.0,0.0,0.0,0.0,0.0,0.0,-0.006585615687072277,0.29507359862327576,0.04515405371785164,0.897355318069458,0.06784109771251678,-0.08321421593427658,-0.4280381500720978
419.0,0.0,0.0,0.0,0.0,0.0,0.0,0.06721602380275726,0.23380523920059204,0.0254964642226696,0.8974120616912842,0.0660974532365799,-0.08520571887493134,-0.4278010427951813
420.0,0.0,0.0,0.0,0.0,0.0,0.0,0.10147833079099655,0.2275349497795105,-0.0012656262842938304,0.8976773619651794,0.06416887789964676,-0.08684113621711731,-0.4272369146347046
421.0,0.0,0.0,0.0,0.0,0.0,0.0,0.08319179713726044,0.2375388890504837,0.01806928589940071,0.8978440761566162,0.061277084052562714,-0.08717693388462067,-0.42724043130874634
422.0,0.0,0.0,0.0,0.0,0.0,0.0,0.10076333582401276,0.19826939702033997,0.02062803879380226,0.8984005451202393,0.05850889906287193,-0.08624453842639923,-0.4266185462474823
423.0,0.0,0.0,0.0,0.0,0.0,0.0,0.1182887926697731,0.21444541215896606,0.020254753530025482,0.8996843695640564,0.05813320726156235,-0.08476559072732925,-0.42427799105644226
424.0,0.0,0.0,0.0,0.0,0.0,0.0,0.16000249981880188,0.1885436773300171,-0.016078878194093704,0.9010783433914185,0.05826771259307861,-0.08296570181846619,-0.4216465950012207
425.0,0.0,0.0,0.0,0.0,0.0,0.0,0.2373720109462738,0.13521680235862732,-0.07531313598155975,0.9021632075309753,0.058965347707271576,-0.08299094438552856,-0.4192160964012146
426.0,0.0,0.0,0.0,0.0,0.0,0.0,0.1730336844921112,0.1630144715309143,-0.023618390783667564,0.9027478098869324,0.05879083275794983,-0.08435162901878357,-0.41772139072418213
427.0,0.0,0.0,0.0,0.0,0.0,0.0,0.16565772891044617,0.16969376802444458,-0.011198076419532299,0.9032239317893982,0.05907602608203888,-0.08607297390699387,-0.41626793146133423
428.0,0.0,0.0,0.0,0.0,0.0,0.0,0.1669573038816452,0.1612813025712967,-0.021913066506385803,0.90342777967453,0.059291258454322815,-0.08886626362800598,-0.415238618850708
429.0,0.0,0.0,0.0,0.0,0.0,0.0,0.11274372786283493,0.17924262583255768,0.015572684817016125,0.9035730361938477,0.057682737708091736,-0.0916047915816307,-0.4145284593105316
430.0,0.0,0.0,0.0,0.0,0.0,0.0,0.09025553613901138,0.19969792664051056,0.020180953666567802,0.9038218855857849,0.055977217853069305,-0.09331583231687546,-0.41383087635040283
431.0,0.0,0.0,0.0,0.0,0.0,0.0,0.09258262068033218,0.19351167976856232,0.009633325971662998,0.9041606783866882,0.05393800884485245,-0.09477509558200836,-0.41303789615631104
432.0,0.0,0.0,0.0,0.0,0.0,0.0,0.06998315453529358,0.21054725348949432,0.03389282897114754,0.9048665165901184,0.0520060658454895,-0.09494559466838837,-0.4116823077201843
433.0,0.0,0.0,0.0,0.0,0.0,0.0,0.0942276194691658,0.2213636338710785,0.01979059725999832,0.9059157967567444,0.051466140896081924,-0.09307260811328888,-0.4098709523677826
434.0,0.0,0.0,0.0,0.0,0.0,0.0,0.1587943136692047,0.1984950602054596,-0.017519529908895493,0.9069269299507141,0.05190255120396614,-0.09035807102918625,-0.4081999957561493
435.0,0.0,0.0,0.0,0.0,0.0,0.0,0.18516503274440765,0.16973459720611572,-0.04329191893339157,0.9078344702720642,0.052408184856176376,-0.08954063057899475,-0.4062807857990265
436.0,0.0,0.0,0.0,0.0,0.0,0.0,0.15711048245429993,0.15699589252471924,-0.050231654196977615,0.9085304141044617,0.052035704255104065,-0.08537871390581131,-0.4057031273841858
437.0,0.0,0.0,0.0,0.0,0.0,0.0,0.1368166208267212,0.17075876891613007,-0.024839265272021294,0.9093611240386963,0.05163683742284775,-0.07933683693408966,-0.40510594844818115
438.0,0.0,0.0,0.0,0.0,0.0,0.0,0.16983327269554138,0.16706079244613647,-0.019837811589241028,0.9099047183990479,0.053049322217702866,-0.07365873456001282,-0.40477392077445984
439.0,0.0,0.0,0.0,0.0,0.0,0.0,0.14830805361270905,0.15403331816196442,-0.013814494013786316,0.9102362394332886,0.055253468453884125,-0.06752145290374756,-0.40480607748031616
440.0,0.0,0.0,0.0,0.0,0.0,0.0,0.1146179661154747,0.16275064647197723,-0.011696962639689445,0.9106954336166382,0.05677691474556923,-0.0617939829826355,-0.40446987748146057
441.0,0.0,0.0,0.0,0.0,0.0,0.0,0.09920373558998108,0.15670371055603027,-0.005566828418523073,0.9111874103546143,0.0581519715487957,-0.056903935968875885,-0.4038896858692169
442.0,0.0,0.0,0.0,0.0,0.0,0.0,0.11764687299728394,0.13550540804862976,-0.015454919077455997,0.911790668964386,0.05949947610497475,-0.05304289236664772,-0.4028671085834503
443.0,0.0,0.0,0.0,0.0,0.0,0.0,0.1613948792219162,0.12691864371299744,-0.03648266941308975,0.9124094247817993,0.061281606554985046,-0.05099106207489967,-0.40144044160842896
444.0,0.0,0.0,0.0,0.0,0.0,0.0,0.18839721381664276,0.12942957878112793,-0.0639176145195961,0.9127728939056396,0.06283827871084213,-0.0517343170940876,-0.4002610146999359
445.0,0.0,0.0,0.0,0.0,0.0,0.0,0.1531776785850525,0.15583325922489166,-0.039534542709589005,0.9126945734024048,0.06301561743021011,-0.05346289277076721,-0.4001966118812561
446.0,0.0,0.0,0.0,0.0,0.0,0.0,0.008829331956803799,0.255512535572052,0.0750308632850647,0.9122301340103149,0.06253522634506226,-0.05376579612493515,-0.40129706263542175
447.0,0.0,0.0,0.0,0.0,0.0,0.0,-0.17507700622081757,0.34137386083602905,0.21646274626255035,0.9114996194839478,0.06173573061823845,-0.0477324016392231,-0.40382906794548035
448.0,0.0,0.0,0.0,0.0,0.0,0.0,-0.10351328551769257,0.29901984333992004,0.16071979701519012,0.9100990891456604,0.0594259537756443,-0.03573283553123474,-0.4085678160190582
449.0,0.0,0.0,0.0,0.0,0.0,0.0,0.04127591848373413,0.2189939320087433,0.08074584603309631,0.9080773591995239,0.05519019067287445,-0.02243187464773655,-0.4145333170890808
450.0,0.0,0.0,0.0,0.0,0.0,0.0,0.1624690592288971,0.09552653133869171,-0.07534217089414597,0.9058982133865356,0.05196104571223259,-0.01049981452524662,-0.4201723635196686
451.0,0.0,0.0,0.0,0.0,0.0,0.0,0.18641173839569092,0.10986103117465973,-0.12511779367923737,0.9048311710357666,0.05169273540377617,-0.003104541217908263,-0.42261645197868347
452.0,0.0,0.0,0.0,0.0,0.0,0.0,0.1570264995098114,0.1437612622976303,-0.0058445134200155735,0.904147207736969,0.05227250978350639,0.0005772720905952156,-0.42403164505958557
453.0,0.0,0.0,0.0,0.0,0.0,0.0,0.15640579164028168,0.14003828167915344,-0.026660803705453873,0.9039084315299988,0.052809979766607285,0.0016903539653867483,-0.4244373142719269
454.0,0.0,0.0,0.0,0.0,0.0,0.0,0.18545325100421906,0.14938490092754364,-0.03873172774910927,0.9044407606124878,0.0542263463139534,-0.0006276511703617871,-0.42314642667770386
455.0,0.0,0.0,0.0,0.0,0.0,0.0,0.18124105036258698,0.13454943895339966,-0.00497831217944622,0.9046739339828491,0.05491479113698006,-0.00520633440464735,-0.42252930998802185
456.0,0.0,0.0,0.0,0.0,0.0,0.0,0.11676793545484543,0.14956599473953247,-0.01063506118953228,0.9045396447181702,0.05378078669309616,-0.010534022934734821,-0.4228609800338745
457.0,0.0,0.0,0.0,0.0,0.0,0.0,0.08605149388313293,0.1519235074520111,0.01378109771758318,0.9042902588844299,0.051676325500011444,-0.015536073595285416,-0.4234991669654846
458.0,0.0,0.0,0.0,0.0,0.0,0.0,0.08770617097616196,0.16135889291763306,0.012028900906443596,0.9043533205986023,0.04971875995397568,-0.020595619454979897,-0.42339497804641724
459.0,0.0,0.0,0.0,0.0,0.0,0.0,0.10638695955276489,0.14257694780826569,-0.005085008218884468,0.9050166010856628,0.047255102545022964,-0.026143498718738556,-0.42194482684135437
460.0,0.0,0.0,0.0,0.0,0.0,0.0,0.11789675801992416,0.12465513497591019,-0.008223717100918293,0.9060665965080261,0.04409729689359665,-0.03204604983329773,-0.41960790753364563
461.0,0.0,0.0,0.0,0.0,0.0,0.0,0.17864440381526947,0.0964122787117958,-0.04388940706849098,0.9080390334129333,0.042229145765304565,-0.038896411657333374,-0.41494783759117126
462.0,0.0,0.0,0.0,0.0,0.0,0.0,0.21322499215602875,0.07156743109226227,-0.06753529608249664,0.9107875823974609,0.042810212820768356,-0.04690542444586754,-0.4079647362232208
463.0,0.0,0.0,0.0,0.0,0.0,0.0,0.15886805951595306,0.17730839550495148,-0.03932470828294754,0.9126773476600647,0.045088235288858414,-0.056343309581279755,-0.4022766947746277
464.0,0.0,0.0,0.0,0.0,0.0,0.0,0.07722674310207367,0.2633710205554962,0.013788823038339615,0.9135669469833374,0.048772718757390976,-0.06700551509857178,-0.398160845041275
465.0,0.0,0.0,0.0,0.0,0.0,0.0,0.033324796706438065,0.2822558581829071,0.06805367022752762,0.9136873483657837,0.05232027918100357,-0.07542655616998672,-0.39592844247817993
466.0,0.0,0.0,0.0,0.0,0.0,0.0,0.005416183266788721,0.2791036367416382,0.07316561788320541,0.9137016534805298,0.05371292680501938,-0.0792473703622818,-0.3949553370475769
467.0,0.0,0.0,0.0,0.0,0.0,0.0,-0.01385557185858488,0.30559635162353516,0.06101275235414505,0.9134942889213562,0.05453003942966461,-0.07894376665353775,-0.3954005539417267
468.0,0.0,0.0,0.0,0.0,0.0,0.0,0.0005179199506528676,0.27317556738853455,0.0754702165722847,0.912936270236969,0.054075438529253006,-0.07502634078264236,-0.3974914252758026
469.0,0.0,0.0,0.0,0.0,0.0,0.0,0.05775228887796402,0.1899365335702896,0.03919372707605362,0.9126268625259399,0.05237223953008652,-0.0691700354218483,-0.39947524666786194
470.0,0.0,0.0,0.0,0.0,0.0,0.0,0.07009583711624146,0.18446972966194153,0.047660909593105316,0.9125965237617493,0.050406280905008316,-0.0628671795129776,-0.4008576273918152
471.0,0.0,0.0,0.0,0.0,0.0,0.0,0.08869902044534683,0.1654692143201828,0.06336354464292526,0.9130247831344604,0.04751355201005936,-0.055500052869319916,-0.40131014585494995
472.0,0.0,0.0,0.0,0.0,0.0,0.0,0.1062723696231842,0.15588688850402832,0.060639023780822754,0.9132500886917114,0.044561732560396194,-0.046526409685611725,-0.40230053663253784
473.0,0.0,0.0,0.0,0.0,0.0,0.0,0.11405719816684723,0.15657339990139008,0.05672406405210495,0.9132534265518188,0.04297887533903122,-0.03469589352607727,-0.4036356806755066
474.0,0.0,0.0,0.0,0.0,0.0,0.0,0.11620009690523148,0.09606140851974487,0.01876615360379219,0.91282057762146,0.04025755822658539,-0.021795017644762993,-0.40578100085258484
475.0,0.0,0.0,0.0,0.0,0.0,0.0,0.10964450985193253,0.06093606725335121,0.03168584778904915,0.9122572541236877,0.037797439843416214,-0.010297546163201332,-0.40774616599082947
476.0,0.0,0.0,0.0,0.0,0.0,0.0,0.11591986566781998,0.07587143778800964,0.035667892545461655,0.9120156168937683,0.03748217597603798,-0.001083750044927001,-0.4084509313106537
477.0,0.0,0.0,0.0,0.0,0.0,0.0,0.11948183923959732,0.06826958060264587,0.02711491473019123,0.9119369983673096,0.037487078458070755,0.006792758125811815,-0.40856534242630005
478.0,0.0,0.0,0.0,0.0,0.0,0.0,0.11560734361410141,0.08492216467857361,0.012858794070780277,0.9120764136314392,0.03803819417953491,0.011647101491689682,-0.40809544920921326
479.0,0.0,0.0,0.0,0.0,0.0,0.0,0.12233307212591171,0.11692942678928375,-0.0017142673023045063,0.9124876260757446,0.03979530557990074,0.014350980520248413,-0.4069461524486542
480.0,0.0,0.0,0.0,0.0,0.0,0.0,0.11654612421989441,0.10538504272699356,-0.03702322766184807,0.9134407043457031,0.040468480437994,0.01519128866493702,-0.40467149019241333
481.0,0.0,0.0,0.0,0.0,0.0,0.0,0.07692540436983109,0.10413207113742828,-0.012308821082115173,0.9146981239318848,0.039251066744327545,0.01473720371723175,-0.4019543528556824
482.0,0.0,0.0,0.0,0.0,0.0,0.0,0.13927429914474487,0.14353100955486298,-0.029924150556325912,0.9162009358406067,0.04077840596437454,0.01269078440964222,-0.39843469858169556
483.0,0.0,0.0,0.0,0.0,0.0,0.0,0.17009036242961884,0.12826021015644073,-0.08216414600610733,0.9175130128860474,0.044105686247348785,0.009879382327198982,-0.3951302170753479
484.0,0.0,0.0,0.0,0.0,0.0,0.0,0.18082629144191742,0.08692694455385208,-0.08907776325941086,0.9187431335449219,0.04797583818435669,0.006158121395856142,-0.3918758034706116
485.0,0.0,0.0,0.0,0.0,0.0,0.0,0.1620943695306778,0.12554390728473663,-0.11536075919866562,0.9208714962005615,0.05210791900753975,-0.0007970983861014247,-0.38637515902519226
486.0,0.0,0.0,0.0,0.0,0.0,0.0,0.0910116583108902,0.20664118230342865,-0.10208004713058472,0.9235196709632874,0.054611995816230774,-0.01190853025764227,-0.37947505712509155
487.0,0.0,0.0,0.0,0.0,0.0,0.0,0.011828123591840267,0.2534855306148529,-0.028887344524264336,0.9258908033370972,0.05591844394803047,-0.024078862741589546,-0.3728505074977875
488.0,0.0,0.0,0.0,0.0,0.0,0.0,-0.09813424944877625,0.3372504413127899,0.05848998576402664,0.9277438521385193,0.05566350370645523,-0.033909399062395096,-0.3674948811531067
489.0,0.0,0.0,0.0,0.0,0.0,0.0,-0.14680838584899902,0.32226815819740295,0.052781231701374054,0.9293472766876221,0.05535544455051422,-0.039220597594976425,-0.3629396855831146
490.0,0.0,0.0,0.0,0.0,0.0,0.0,-0.17888911068439484,0.31320908665657043,0.025362586602568626,0.9310486912727356,0.05513334646821022,-0.040093738585710526,-0.3584907650947571
491.0,0.0,0.0,0.0,0.0,0.0,0.0,-0.20598553121089935,0.3360079526901245,0.0424492284655571,0.9327194690704346,0.0552280992269516,-0.037017855793237686,-0.3544164001941681
492.0,0.0,0.0,0.0,0.0,0.0,0.0,-0.022013366222381592,0.3121951222419739,0.03880929946899414,0.9340953826904297,0.057277802377939224,-0.027479050680994987,-0.35132649540901184
493.0,0.0,0.0,0.0,0.0,0.0,0.0,0.10670596361160278,0.15452779829502106,0.03667118027806282,0.9351528286933899,0.05873166769742966,-0.017399372532963753,-0.3489284813404083
494.0,0.0,0.0,0.0,0.0,0.0,0.0,0.10292267799377441,0.1654573380947113,0.06929629296064377,0.9366291165351868,0.0594024658203125,-0.006526459939777851,-0.34519559144973755
495.0,0.0,0.0,0.0,0.0,0.0,0.0,0.15213294327259064,0.21839182078838348,-0.054165203124284744,0.9378986954689026,0.06177152693271637,0.005034062545746565,-0.34132635593414307
496.0,0.0,0.0,0.0,0.0,0.0,0.0,0.14595280587673187,0.16502980887889862,-0.08887406438589096,0.9373570680618286,0.06162356957793236,0.016212554648518562,-0.34250327944755554
497.0,0.0,0.0,0.0,0.0,0.0,0.0,0.15529219806194305,0.009407532401382923,-0.007971525192260742,0.9364004135131836,0.05805612727999687,0.02379469946026802,-0.3452918231487274
498.0,0.0,0.0,0.0,0.0,0.0,0.0,0.22684161365032196,0.04888230189681053,-0.01180811133235693,0.9366024136543274,0.05842297524213791,0.02549583651125431,-0.34455013275146484
499.0,0.0,0.0,0.0,0.0,0.0,0.0,0.26379305124282837,0.06886457651853561,-0.01065963413566351,0.936654806137085,0.05982838571071625,0.022747868672013283,-0.344368577003479
500.0,0.0,0.0,0.0,0.0,0.0,0.0,0.18001537024974823,0.07470747828483582,-0.041412461549043655,0.937410295009613,0.058765798807144165,0.016524694859981537,-0.3428395986557007
501.0,0.0,0.0,0.0,0.0,0.0,0.0,0.13133881986141205,0.1508161574602127,-0.0750366821885109,0.9387062788009644,0.05706176906824112,0.007327161263674498,-0.33989420533180237
502.0,0.0,0.0,0.0,0.0,0.0,0.0,-0.017710160464048386,0.18563993275165558,-0.01593061536550522,0.9392175078392029,0.05384598299860954,-0.002259784145280719,-0.3390718400478363
503.0,0.0,0.0,0.0,0.0,0.0,0.0,-0.0637311264872551,0.1822819858789444,0.004464978352189064,0.9395519495010376,0.050011515617370605,-0.010613358579576015,-0.3385755121707916
504.0,0.0,0.0,0.0,0.0,0.0,0.0,-0.021631350740790367,0.18158413469791412,0.0012776781804859638,0.9400484561920166,0.04595808684825897,-0.018451733514666557,-0.33742913603782654
505.0,0.0,0.0,0.0,0.0,0.0,0.0,0.02832608111202717,0.18086662888526917,-0.004475600551813841,0.940332293510437,0.043286144733428955,-0.02551817148923874,-0.3365310728549957
506.0,0.0,0.0,0.0,0.0,0.0,0.0,0.04192584007978439,0.17621874809265137,-0.020143071189522743,0.9402992725372314,0.04153388738632202,-0.031964030116796494,-0.336281418800354
507.0,0.0,0.0,0.0,0.0,0.0,0.0,0.07420448958873749,0.16547103226184845,-0.02318892814218998,0.9401894807815552,0.04014384746551514,-0.03721725940704346,-0.33622607588768005
508.0,0.0,0.0,0.0,0.0,0.0,0.0,0.0999937579035759,0.15859320759773254,-0.026153169572353363,0.9402471780776978,0.03919578343629837,-0.04118923097848892,-0.3357253968715668
509.0,0.0,0.0,0.0,0.0,0.0,0.0,0.12321678549051285,0.14234989881515503,-0.0319039560854435,0.9404434561729431,0.038547515869140625,-0.0452311672270298,-0.33472883701324463
510.0,0.0,0.0,0.0,0.0,0.0,0.0,0.1023474857211113,0.14809492230415344,-0.02160859853029251,0.9405892491340637,0.037483975291252136,-0.05020260810852051,-0.33371514081954956
511.0,0.0,0.0,0.0,0.0,0.0,0.0,0.06062857434153557,0.15448792278766632,-0.015056134201586246,0.9404849410057068,0.03659818693995476,-0.05507088080048561,-0.3333433270454407
512.0,0.0,0.0,0.0,0.0,0.0,0.0,0.06458830833435059,0.1569603681564331,-0.027898970991373062,0.9398128390312195,0.03692937642335892,-0.059367842972278595,-0.33447757363319397
513.0,0.0,0.0,0.0,0.0,0.0,0.0,0.07079844176769257,0.13761968910694122,-0.014708366245031357,0.9387405514717102,0.03883637115359306,-0.06354235857725143,-0.3364983797073364
514.0,0.0,0.0,0.0,0.0,0.0,0.0,0.03627483546733856,0.13629622757434845,0.002274937229231,0.9377568364143372,0.04000600799918175,-0.06860816478729248,-0.3380837142467499
515.0,0.0,0.0,0.0,0.0,0.0,0.0,0.005619681440293789,0.165567547082901,-0.001653439598158002,0.9375290274620056,0.03911929950118065,-0.07418318837881088,-0.33765846490859985
516.0,0.0,0.0,0.0,0.0,0.0,0.0,-0.01576519012451172,0.16846799850463867,0.008907940238714218,0.9378373622894287,0.03699783980846405,-0.07821755856275558,-0.33610519766807556
517.0,0.0,0.0,0.0,0.0,0.0,0.0,-0.03737625107169151,0.17911146581172943,-0.023349149152636528,0.9387235641479492,0.03417198732495308,-0.08127886056900024,-0.33320486545562744
518.0,0.0,0.0,0.0,0.0,0.0,0.0,-0.021929342299699783,0.17409734427928925,-0.05070092901587486,0.9398659467697144,0.03138074651360512,-0.08398443460464478,-0.3295583724975586
519.0,0.0,0.0,0.0,0.0,0.0,0.0,-0.02277573198080063,0.17774233222007751,-0.035431407392024994,0.9408758282661438,0.029324471950531006,-0.08552250266075134,-0.32646337151527405
520.0,0.0,0.0,0.0,0.0,0.0,0.0,-0.021602604538202286,0.17554670572280884,-0.023609459400177002,0.9416767358779907,0.02703722007572651,-0.0854431614279747,-0.32436293363571167
521.0,0.0,0.0,0.0,0.0,0.0,0.0,0.012254691682755947,0.15968218445777893,-0.0435032993555069,0.9424116015434265,0.0248112790286541,-0.08451678603887558,-0.3226589262485504
522.0,0.0,0.0,0.0,0.0,0.0,0.0,0.05033765733242035,0.11924807727336884,-0.048755861818790436,0.9432516694068909,0.02319725602865219,-0.0834793746471405,-0.32058006525039673
523.0,0.0,0.0,0.0,0.0,0.0,0.0,0.019217994064092636,0.14856892824172974,-0.024010397493839264,0.9440216422080994,0.021761540323495865,-0.08328260481357574,-0.31845536828041077
524.0,0.0,0.0,0.0,0.0,0.0,0.0,0.046254198998212814,0.1365988552570343,-0.029786188155412674,0.9443579912185669,0.02067984640598297,-0.08333879709243774,-0.3175186216831207
525.0,0.0,0.0,0.0,0.0,0.0,0.0,0.044836755841970444,0.1131812036037445,0.000800233450718224,0.9444446563720703,0.02009907364845276,-0.08352550864219666,-0.31724536418914795
526.0,0.0,0.0,0.0,0.0,0.0,0.0,0.053446415811777115,0.11659611016511917,-0.01583493873476982,0.9445348978042603,0.02027994953095913,-0.08338626474142075,-0.31700795888900757
527.0,0.0,0.0,0.0,0.0,0.0,0.0,0.029967371374368668,0.10554362833499908,0.007096225395798683,0.9444792866706848,0.019773725420236588,-0.08277714997529984,-0.3173513114452362
528.0,0.0,0.0,0.0,0.0,0.0,0.0,0.030283264815807343,0.10313448309898376,0.015859803184866905,0.9449054598808289,0.018377993255853653,-0.08171956986188889,-0.316444993019104
529.0,0.0,0.0,0.0,0.0,0.0,0.0,0.046831995248794556,0.10761235654354095,0.007652602158486843,0.9458270072937012,0.017955223098397255,-0.080288827419281,-0.31408122181892395
530.0,0.0,0.0,0.0,0.0,0.0,0.0,0.04551329463720322,0.11535705626010895,0.020929627120494843,0.9468929171562195,0.018279140815138817,-0.07849825918674469,-0.3112744987010956
531.0,0.0,0.0,0.0,0.0,0.0,0.0,0.05468474328517914,0.12702421844005585,0.015804897993803024,0.9477296471595764,0.01929474249482155,-0.07679858803749084,-0.3090909719467163
532.0,0.0,0.0,0.0,0.0,0.0,0.0,0.08408449590206146,0.11989765614271164,9.041791781783104e-05,0.9482607841491699,0.02062596194446087,-0.07457828521728516,-0.3079162836074829
533.0,0.0,0.0,0.0,0.0,0.0,0.0,0.07601044327020645,0.10816255211830139,-0.0037167309783399105,0.9487647414207458,0.02103542536497116,-0.07304460555315018,-0.3067145347595215
534.0,0.0,0.0,0.0,0.0,0.0,0.0,0.075240857899189,0.09638321399688721,0.0004996174247935414,0.9493898749351501,0.0214073583483696,-0.07212559133768082,-0.30495789647102356
535.0,0.0,0.0,0.0,0.0,0.0,0.0,0.07539209723472595,0.08211768418550491,0.012906378135085106,0.9500333070755005,0.02231636457145214,-0.07130801677703857,-0.30306458473205566
536.0,0.0,0.0,0.0,0.0,0.0,0.0,0.05763883516192436,0.09280760586261749,0.006664650049060583,0.950667142868042,0.02343689650297165,-0.07094849646091461,-0.30107906460762024
537.0,0.0,0.0,0.0,0.0,0.0,0.0,0.05663284659385681,0.09923882782459259,-0.015566554851830006,0.9514564871788025,0.024934865534305573,-0.07081067562103271,-0.29848068952560425
538.0,0.0,0.0,0.0,0.0,0.0,0.0,0.08541761338710785,0.08125875890254974,-0.04009980708360672,0.952164888381958,0.027787350118160248,-0.07089962810277939,-0.29594579339027405
539.0,0.0,0.0,0.0,0.0,0.0,0.0,0.11765068769454956,0.05660460144281387,-0.017495019361376762,0.9524982571601868,0.03121660090982914,-0.07075721770524979,-0.2945655882358551
540.0,0.0,0.0,0.0,0.0,0.0,0.0,0.11015642434358597,0.06640934944152832,0.0009347866289317608,0.9527050256729126,0.03435499966144562,-0.07128637284040451,-0.2934238910675049
541.0,0.0,0.0,0.0,0.0,0.0,0.0,0.06689366698265076,0.09449651837348938,-0.010039576329290867,0.9529430270195007,0.036342088133096695,-0.07288099825382233,-0.29201698303222656
542.0,0.0,0.0,0.0,0.0,0.0,0.0,0.02698255516588688,0.10861919820308685,0.013131489977240562,0.9537010192871094,0.03829779475927353,-0.07486888766288757,-0.28876999020576477
543.0,0.0,0.0,0.0,0.0,0.0,0.0,-0.02108289860188961,0.11956752091646194,0.033955127000808716,0.9548662304878235,0.04005836695432663,-0.07581846415996552,-0.284376859664917
544.0,0.0,0.0,0.0,0.0,0.0,0.0,-0.005467437207698822,0.11708883196115494,0.026493579149246216,0.9557734727859497,0.04252305626869202,-0.07550011575222015,-0.28104907274246216
545.0,0.0,0.0,0.0,0.0,0.0,0.0,0.024639062583446503,0.09352034330368042,0.03619026020169258,0.9567292928695679,0.0454481765627861,-0.0752573162317276,-0.27739372849464417
546.0,0.0,0.0,0.0,0.0,0.0,0.0,0.03833790868520737,0.09780489653348923,0.03197041526436806,0.9579083919525146,0.048583984375,-0.07554840296506882,-0.2726631760597229
547.0,0.0,0.0,0.0,0.0,0.0,0.0,0.10048401355743408,0.07640904188156128,0.01487259566783905,0.9590157866477966,0.05288467928767204,-0.07581494003534317,-0.26784059405326843
548.0,0.0,0.0,0.0,0.0,0.0,0.0,0.12230043113231659,0.057086315006017685,-0.0018308917060494423,0.9603288173675537,0.05790151655673981,-0.07653248310089111,-0.2618398368358612
549.0,0.0,0.0,0.0,0.0,0.0,0.0,0.031261857599020004,0.08223910629749298,0.0061235190369188786,0.9617869853973389,0.06114023178815842,-0.0782279223203659,-0.25517112016677856
550.0,0.0,0.0,0.0,0.0,0.0,0.0,-0.07258667796850204,0.14262066781520844,-0.001059130416251719,0.963399350643158,0.06299805641174316,-0.07955103367567062,-0.2481081485748291
551.0,0.0,0.0,0.0,0.0,0.0,0.0,-0.05523984506726265,0.16083921492099762,-0.02404106967151165,0.964846134185791,0.06663419306278229,-0.08128734678030014,-0.24088695645332336
552.0,0.0,0.0,0.0,0.0,0.0,0.0,-0.02201213501393795,0.14070914685726166,-0.020055830478668213,0.9657688140869141,0.068873830139637,-0.08391272276639938,-0.2356128692626953
553.0,0.0,0.0,0.0,0.0,0.0,0.0,-0.05120021104812622,0.15936249494552612,-0.032335516065359116,0.9668307900428772,0.07106664031744003,-0.08573853224515915,-0.22986918687820435
554.0,0.0,0.0,0.0,0.0,0.0,0.0,-0.051822200417518616,0.17774342000484467,-0.03894927352666855,0.9679948687553406,0.07230065017938614,-0.08891697973012924,-0.2232721745967865
555.0,0.0,0.0,0.0,0.0,0.0,0.0,-0.07455626130104065,0.22221331298351288,-0.06319586932659149,0.9686440825462341,0.07219390571117401,-0.09649070352315903,-0.21727503836154938
556.0,0.0,0.0,0.0,0.0,0.0,0.0,-0.09657938778400421,0.22249963879585266,-0.031061191111803055,0.9689462184906006,0.07036660611629486,-0.10511228442192078,-0.21246710419654846
557.0,0.0,0.0,0.0,0.0,0.0,0.0,-0.22484669089317322,0.3217208981513977,0.025457486510276794,0.968658983707428,0.06873399764299393,-0.11499852687120438,-0.20917606353759766
558.0,0.0,0.0,0.0,0.0,0.0,0.0,-0.2610783278942108,0.2901105582714081,0.21743138134479523,0.9682363271713257,0.06518272310495377,-0.11571589857339859,-0.21183565258979797
559.0,0.0,0.0,0.0,0.0,0.0,0.0,-0.13773199915885925,0.13859009742736816,0.32924187183380127,0.9690128564834595,0.05909767746925354,-0.10425681620836258,-0.21600425243377686
560.0,0.0,0.0,0.0,0.0,0.0,0.0,0.3072863817214966,-0.06242998316884041,0.020288890227675438,0.9719820618629456,0.05486802011728287,-0.09176778048276901,-0.20933257043361664
561.0,0.0,0.0,0.0,0.0,0.0,0.0,0.5084754228591919,-0.07298369705677032,-0.34078449010849,0.9746072292327881,0.0604361928999424,-0.07889313995838165,-0.20067062973976135
562.0,0.0,0.0,0.0,0.0,0.0,0.0,0.2534063160419464,-0.0020510691683739424,-0.05413169413805008,0.9743706583976746,0.060638658702373505,-0.061251405626535416,-0.20778900384902954
563.0,0.0,0.0,0.0,0.0,0.0,0.0,0.2885815501213074,-0.13352160155773163,-0.19953612983226776,0.9723595380783081,0.06358953565359116,-0.044270146638154984,-0.22025005519390106
564.0,0.0,0.0,0.0,0.0,0.0,0.0,0.1669708490371704,-0.10518337041139603,-0.009667421691119671,0.9695343971252441,0.06516750901937485,-0.03241425007581711,-0.23389391601085663
565.0,0.0,0.0,0.0,0.0,0.0,0.0,0.019622674211859703,-0.11368235945701599,0.045683614909648895,0.9669451117515564,0.06151830032467842,-0.030304206535220146,-0.24560010433197021
566.0,0.0,0.0,0.0,0.0,0.0,0.0,0.08311367779970169,-0.08006798475980759,0.009161104448139668,0.9647060632705688,0.05938471108675003,-0.03329823166131973,-0.25437960028648376
567.0,0.0,0.0,0.0,0.0,0.0,0.0,0.09239523857831955,-0.06690775603055954,0.05460513383150101,0.9632739424705505,0.05645454302430153,-0.04161844775080681,-0.2592117488384247
568.0,0.0,0.0,0.0,0.0,0.0,0.0,-0.04127385839819908,0.05362110212445259,0.07803630828857422,0.9627538919448853,0.053061943501234055,-0.048678621649742126,-0.26061388850212097
569.0,0.0,0.0,0.0,0.0,0.0,0.0,-0.014587225392460823,0.06044374778866768,0.017402468249201775,0.9624843597412109,0.05300528556108475,-0.05476871877908707,-0.26042187213897705
570.0,0.0,0.0,0.0,0.0,0.0,0.0,0.05741675943136215,0.06126995384693146,-0.001799847697839141,0.9623860716819763,0.05511649698019028,-0.06182385981082916,-0.2587639391422272
571.0,0.0,0.0,0.0,0.0,0.0,0.0,0.1285383552312851,0.04647180810570717,-0.05360499769449234,0.9623410701751709,0.059112921357154846,-0.06736385822296143,-0.25665009021759033
572.0,0.0,0.0,0.0,0.0,0.0,0.0,0.08867138624191284,0.041260942816734314,0.01234440878033638,0.9621958136558533,0.06074553355574608,-0.07254358381032944,-0.25540921092033386
573.0,0.0,0.0,0.0,0.0,0.0,0.0,0.08307233452796936,0.054018162190914154,0.07843081653118134,0.962280809879303,0.06153705343604088,-0.07492933422327042,-0.25418999791145325
574.0,0.0,0.0,0.0,0.0,0.0,0.0,0.08002565801143646,0.06113775447010994,0.04109501466155052,0.962257444858551,0.06252771615982056,-0.07573054730892181,-0.25380396842956543
575.0,0.0,0.0,0.0,0.0,0.0,0.0,0.14506596326828003,0.03855482116341591,0.053842756897211075,0.9620435237884521,0.0647989809513092,-0.07755843549966812,-0.25349751114845276
576.0,0.0,0.0,0.0,0.0,0.0,0.0,0.06821971386671066,0.03990423306822777,0.008710323832929134,0.9619855880737305,0.06444995850324631,-0.08013514429330826,-0.2530171573162079
577.0,0.0,0.0,0.0,0.0,0.0,0.0,-0.0533130057156086,0.0749797597527504,0.013489879667758942,0.9619873762130737,0.060720935463905334,-0.08128011971712112,-0.2535385191440582
578.0,0.0,0.0,0.0,0.0,0.0,0.0,-0.05617319047451019,0.11667616665363312,0.050152745097875595,0.9617999196052551,0.05677013844251633,-0.08113247901201248,-0.25521954894065857
579.0,0.0,0.0,0.0,0.0,0.0,0.0,-0.03502422943711281,0.10915172100067139,0.0038212479557842016,0.961472749710083,0.05315820872783661,-0.08048310875892639,-0.2574356198310852
580.0,0.0,0.0,0.0,0.0,0.0,0.0,-0.0016091106226667762,0.0422946959733963,-0.005446823313832283,0.9614142775535583,0.05052138864994049,-0.07793205976486206,-0.2589617669582367
581.0,0.0,0.0,0.0,0.0,0.0,0.0,0.01402596477419138,0.04040098935365677,-0.01683671772480011,0.9619722366333008,0.04923541471362114,-0.07459545135498047,-0.25810346007347107
582.0,0.0,0.0,0.0,0.0,0.0,0.0,0.008082428947091103,0.07984935492277145,-0.003207980189472437,0.9629107117652893,0.0488913357257843,-0.07046893984079361,-0.2558143436908722
583.0,0.0,0.0,0.0,0.0,0.0,0.0,-0.009946497157216072,0.10125639289617538,0.0165499709546566,0.9636937975883484,0.04875817894935608,-0.06638457626104355,-0.25398656725883484
584.0,0.0,0.0,0.0,0.0,0.0,0.0,0.035349417477846146,0.07300245016813278,-0.0099258404225111,0.9647294878959656,0.049494337290525436,-0.06221470981836319,-0.2509613633155823
585.0,0.0,0.0,0.0,0.0,0.0,0.0,0.006857434753328562,0.11867604404687881,-0.006721487268805504,0.9659624099731445,0.05060557276010513,-0.05959067493677139,-0.2465795874595642
586.0,0.0,0.0,0.0,0.0,0.0,0.0,0.002641841536387801,0.14245621860027313,0.005221077706664801,0.9669293165206909,0.05277227237820625,-0.05736088380217552,-0.24285873770713806
587.0,0.0,0.0,0.0,0.0,0.0,0.0,0.058801136910915375,0.10430330783128738,-0.005465500522404909,0.9676225781440735,0.05531521141529083,-0.05628380924463272,-0.23975375294685364
588.0,0.0,0.0,0.0,0.0,0.0,0.0,0.05990767478942871,0.1076093465089798,-0.016562853008508682,0.9680339097976685,0.057542938739061356,-0.05660437420010567,-0.2374848574399948
589.0,0.0,0.0,0.0,0.0,0.0,0.0,0.04223658889532089,0.08939357846975327,-0.05517609044909477,0.9684115052223206,0.05809829384088516,-0.057993438094854355,-0.23546737432479858
590.0,0.0,0.0,0.0,0.0,0.0,0.0,0.041746728122234344,0.08321969956159592,-0.06543418765068054,0.9690507650375366,0.0581100769340992,-0.060397595167160034,-0.23220980167388916
591.0,0.0,0.0,0.0,0.0,0.0,0.0,-0.003934076987206936,0.1440165936946869,-0.05798992142081261,0.9696686863899231,0.058153364807367325,-0.06322230398654938,-0.22884832322597504
592.0,0.0,0.0,0.0,0.0,0.0,0.0,-0.0580737367272377,0.16722187399864197,-0.02191532962024212,0.9700461030006409,0.057252053171396255,-0.06536519527435303,-0.22685188055038452
593.0,0.0,0.0,0.0,0.0,0.0,0.0,-0.04691228270530701,0.15621714293956757,-0.02441610023379326,0.9704247713088989,0.0566098615527153,-0.06601221859455109,-0.22520653903484344
594.0,0.0,0.0,0.0,0.0,0.0,0.0,-0.042398493736982346,0.1679147481918335,-0.03228769451379776,0.9709010124206543,0.056135144084692,-0.06674734503030777,-0.22303426265716553
595.0,0.0,0.0,0.0,0.0,0.0,0.0,-0.04736495390534401,0.15633423626422882,-0.015842029824852943,0.9713260531425476,0.055388737469911575,-0.06659131497144699,-0.22141703963279724
596.0,0.0,0.0,0.0,0.0,0.0,0.0,-0.03559621796011925,0.1451481282711029,-0.016112271696329117,0.9714983701705933,0.054456908255815506,-0.06553886085748672,-0.22119781374931335
597.0,0.0,0.0,0.0,0.0,0.0,0.0,-0.008444206789135933,0.11712811887264252,-0.032042790204286575,0.9716861844062805,0.054137807339429855,-0.06362127512693405,-0.22103285789489746
598.0,0.0,0.0,0.0,0.0,0.0,0.0,-0.0828285962343216,0.1381310224533081,0.015085852704942226,0.9716436266899109,0.0544440820813179,-0.05971701443195343,-0.22220481932163239
599.0,0.0,0.0,0.0,0.0,0.0,0.0,-0.051175035536289215,0.08416023850440979,-0.0012466682819649577,0.9712479710578918,0.053543608635663986,-0.05218762531876564,-0.22603140771389008
600.0,0.0,0.0,0.0,0.0,0.0,0.0,0.041084013879299164,0.05524085834622383,-0.029013196006417274,0.9709479808807373,0.05347249284386635,-0.04522455483675003,-0.2288043051958084
601.0,0.0,0.0,0.0,0.0,0.0,0.0,0.046869099140167236,0.05321400240063667,-0.008927472867071629,0.9706364870071411,0.05324023216962814,-0.03977995738387108,-0.2311871200799942
602.0,0.0,0.0,0.0,0.0,0.0,0.0,0.055880993604660034,0.05449306219816208,-0.005984089337289333,0.9703487157821655,0.05271226167678833,-0.03413684293627739,-0.23341353237628937
603.0,0.0,0.0,0.0,0.0,0.0,0.0,0.07716325670480728,0.04018319770693779,-0.014406939037144184,0.9700714349746704,0.052067771553993225,-0.028388861566781998,-0.23546935617923737
604.0,0.0,0.0,0.0,0.0,0.0,0.0,0.02884880267083645,0.057607557624578476,0.00878661684691906,0.9699580669403076,0.05110395327210426,-0.023654751479625702,-0.23666538298130035
605.0,0.0,0.0,0.0,0.0,0.0,0.0,0.03723323345184326,0.0762723907828331,0.005593570880591869,0.9700211882591248,0.05095590651035309,-0.01911705546081066,-0.23684535920619965
606.0,0.0,0.0,0.0,0.0,0.0,0.0,0.06530890613794327,0.06078631803393364,0.011076955124735832,0.9700974822044373,0.05117900297045708,-0.01693209446966648,-0.23665457963943481
607.0,0.0,0.0,0.0,0.0,0.0,0.0,0.06430520117282867,0.07755342125892639,0.033808834850788116,0.9702653288841248,0.052473943680524826,-0.01662514917552471,-0.23571184277534485
608.0,0.0,0.0,0.0,0.0,0.0,0.0,0.027881987392902374,0.04861600697040558,0.01723277010023594,0.97037273645401,0.05202138051390648,-0.016428129747509956,-0.23537607491016388
609.0,0.0,0.0,0.0,0.0,0.0,0.0,-0.01831052079796791,0.029205139726400375,0.033671263605356216,0.9709307551383972,0.04953712597489357,-0.017255283892154694,-0.2335396111011505
610.0,0.0,0.0,0.0,0.0,0.0,0.0,-0.02013084851205349,0.030592432245612144,0.03201737627387047,0.9719336628913879,0.04699581116437912,-0.015615145675837994,-0.2299763560295105
611.0,0.0,0.0,0.0,0.0,0.0,0.0,0.014967107214033604,0.05929974094033241,-0.030587969347834587,0.9728943705558777,0.044731151312589645,-0.013038129545748234,-0.22650475800037384
612.0,0.0,0.0,0.0,0.0,0.0,0.0,-0.014715701341629028,0.047468315809965134,-0.04400540888309479,0.9735408425331116,0.04211900383234024,-0.011266556568443775,-0.22431910037994385
613.0,0.0,0.0,0.0,0.0,0.0,0.0,-0.010662028566002846,0.05480551719665527,-0.051625657826662064,0.973813533782959,0.04034845530986786,-0.009464348666369915,-0.22354166209697723
614.0,0.0,0.0,0.0,0.0,0.0,0.0,0.014081682078540325,0.050606243312358856,-0.04754488915205002,0.9737086296081543,0.04033220186829567,-0.007387930061668158,-0.2240777611732483
615.0,0.0,0.0,0.0,0.0,0.0,0.0,0.023928407579660416,0.014111751690506935,-0.008032436482608318,0.973400890827179,0.040112581104040146,-0.0060346731916069984,-0.22548921406269073
616.0,0.0,0.0,0.0,0.0,0.0,0.0,0.013685159385204315,0.013642461970448494,0.018726056441664696,0.972854733467102,0.03906803950667381,-0.005886856932193041,-0.22802503407001495
617.0,0.0,0.0,0.0,0.0,0.0,0.0,-0.0012730058515444398,0.0350114107131958,0.011508332565426826,0.9722761511802673,0.038849834352731705,-0.006133474409580231,-0.23050640523433685
618.0,0.0,0.0,0.0,0.0,0.0,0.0,-0.014212851412594318,0.022371619939804077,0.01416504755616188,0.971876323223114,0.03943945840001106,-0.0060096075758337975,-0.23208877444267273
619.0,0.0,0.0,0.0,0.0,0.0,0.0,0.06044073402881622,0.004107281100004911,-0.004636482801288366,0.9718337059020996,0.041327908635139465,-0.0030257422477006912,-0.23199348151683807
620.0,0.0,0.0,0.0,0.0,0.0,0.0,0.04862354323267937,0.029713988304138184,-0.015069258399307728,0.9721750617027283,0.044044073671102524,0.0017917889636009932,-0.2300758957862854
621.0,0.0,0.0,0.0,0.0,0.0,0.0,-0.007922129705548286,0.04079020395874977,0.016198664903640747,0.9726542234420776,0.04585318639874458,0.0048391493037343025,-0.22764097154140472
622.0,0.0,0.0,0.0,0.0,0.0,0.0,-0.00431722542271018,0.04855315014719963,0.009118556044995785,0.9728553891181946,0.04830923303961754,0.007562229409813881,-0.2261897474527359
623.0,0.0,0.0,0.0,0.0,0.0,0.0,-0.019280580803751945,0.02662682719528675,0.017573988065123558,0.9729546904563904,0.05000265687704086,0.00973805133253336,-0.225316122174263
624.0,0.0,0.0,0.0,0.0,0.0,0.0,-0.02106628008186817,0.014849288389086723,0.0002333481825189665,0.9734392762184143,0.05158163607120514,0.010288151912391186,-0.22282415628433228
625.0,0.0,0.0,0.0,0.0,0.0,0.0,-0.0924331322312355,0.0320381224155426,0.014524737372994423,0.9737546443939209,0.05282621458172798,0.010576197877526283,-0.22113661468029022
626.0,0.0,0.0,0.0,0.0,0.0,0.0,-0.066258005797863,0.010076849721372128,0.03050333447754383,0.9729393720626831,0.055679455399513245,0.014855515211820602,-0.22375936806201935
627.0,0.0,0.0,0.0,0.0,0.0,0.0,-0.07320509105920792,0.03480777144432068,0.014143920503556728,0.9728501439094543,0.055167075246572495,0.01932418718934059,-0.22393296658992767
628.0,0.0,0.0,0.0,0.0,0.0,0.0,-0.040471915155649185,0.04235345497727394,-0.014307228848338127,0.972973644733429,0.05341675132513046,0.022656526416540146,-0.22350922226905823
629.0,0.0,0.0,0.0,0.0,0.0,0.0,-0.010060447268188,0.01899181492626667,-0.019096750766038895,0.973103940486908,0.051494866609573364,0.024766139686107635,-0.22316986322402954
630.0,0.0,0.0,0.0,0.0,0.0,0.0,-0.0032494135666638613,0.01812184415757656,-0.012804601341485977,0.9733235239982605,0.04986364021897316,0.025936564430594444,-0.22244901955127716
631.0,0.0,0.0,0.0,0.0,0.0,0.0,-0.011715902015566826,0.018651336431503296,-0.032398611307144165,0.9736087918281555,0.048149846494197845,0.025245770812034607,-0.22165238857269287
632.0,0.0,0.0,0.0,0.0,0.0,0.0,-0.03986421227455139,0.01635410077869892,-0.023349417373538017,0.9739622473716736,0.04539963975548744,0.020951470360159874,-0.22112952172756195
633.0,0.0,0.0,0.0,0.0,0.0,0.0,-0.08270344138145447,0.019707733765244484,0.010643456131219864,0.9741933345794678,0.042030662298202515,0.014081948436796665,-0.22132039070129395
634.0,0.0,0.0,0.0,0.0,0.0,0.0,-0.10027440637350082,0.00531076779589057,0.03957715258002281,0.9743413329124451,0.037135206162929535,0.007326260209083557,-0.2218743860721588
635.0,0.0,0.0,0.0,0.0,0.0,0.0,-0.03225700929760933,-0.04214316979050636,0.02399638295173645,0.9744194149971008,0.032134950160980225,0.004260871559381485,-0.22238805890083313
636.0,0.0,0.0,0.0,0.0,0.0,0.0,0.03869180381298065,-0.07570403814315796,-0.026282845064997673,0.974614679813385,0.02966305986046791,0.0025061185006052256,-0.22189605236053467
637.0,0.0,0.0,0.0,0.0,0.0,0.0,0.011211059987545013,-0.03567816689610481,-0.026163339614868164,0.975464940071106,0.029535263776779175,-0.0024158211890608072,-0.21815674006938934
638.0,0.0,0.0,0.0,0.0,0.0,0.0,0.02179398015141487,0.01747407205402851,-0.05436180904507637,0.9765411615371704,0.03178507462143898,-0.010217181406915188,-0.2127244770526886
639.0,0.0,0.0,0.0,0.0,0.0,0.0,-0.015861662104725838,0.040855105966329575,0.04482569918036461,0.9773142337799072,0.035718392580747604,-0.017027994617819786,-0.20806194841861725
640.0,0.0,0.0,0.0,0.0,0.0,0.0,-0.030585817992687225,-0.008491677232086658,0.07888054102659225,0.9774014949798584,0.034460972994565964,-0.020760532468557358,-0.20752683281898499
641.0,0.0,0.0,0.0,0.0,0.0,0.0,-0.006490133702754974,0.010952123440802097,0.06349349021911621,0.9775079488754272,0.03287426382303238,-0.02148473635315895,-0.20720866322517395
642.0,0.0,0.0,0.0,0.0,0.0,0.0,-0.10789968073368073,0.025996636599302292,0.09890227019786835,0.9777274131774902,0.029378166422247887,-0.019307244569063187,-0.20691423118114471
643.0,0.0,0.0,0.0,0.0,0.0,0.0,-0.05581836774945259,0.004994840361177921,0.03307685628533363,0.9777895212173462,0.024640405550599098,-0.013618972152471542,-0.20769044756889343
644.0,0.0,0.0,0.0,0.0,0.0,0.0,0.05448513478040695,-0.034286051988601685,-0.03533618897199631,0.9779093861579895,0.021817265078425407,-0.007933658547699451,-0.2077343463897705
645.0,0.0,0.0,0.0,0.0,0.0,0.0,0.04167698323726654,-0.040766168385744095,-0.006934436969459057,0.9778836965560913,0.02084052935242653,-0.0023795138113200665,-0.20809690654277802
646.0,0.0,0.0,0.0,0.0,0.0,0.0,0.009071468375623226,-0.05529160425066948,0.03748822584748268,0.9774109125137329,0.020000217482447624,0.004601079970598221,-0.21035324037075043
647.0,0.0,0.0,0.0,0.0,0.0,0.0,0.02830134518444538,-0.052381549030542374,0.03023327887058258,0.9770016074180603,0.018723197281360626,0.012333312071859837,-0.21205230057239532
648.0,0.0,0.0,0.0,0.0,0.0,0.0,0.04678099602460861,-0.0018178856698796153,-0.006491368170827627,0.9768598675727844,0.019217777997255325,0.020236920565366745,-0.2120486944913864
649.0,0.0,0.0,0.0,0.0,0.0,0.0,0.06092744320631027,-0.006509496830403805,-0.01169053465127945,0.9765647649765015,0.020489025861024857,0.026783090084791183,-0.21256834268569946
650.0,0.0,0.0,0.0,0.0,0.0,0.0,0.047992508858442307,-0.06610983610153198,0.037545278668403625,0.9759686589241028,0.02046956866979599,0.03374480456113815,-0.21430844068527222
651.0,0.0,0.0,0.0,0.0,0.0,0.0,0.02134719118475914,-0.06280441582202911,0.019313186407089233,0.9756684899330139,0.019454272463917732,0.039893731474876404,-0.21471786499023438
652.0,0.0,0.0,0.0,0.0,0.0,0.0,0.015501375310122967,-0.01764773391187191,-0.02578132599592209,0.9761070609092712,0.018504824489355087,0.042531948536634445,-0.21228310465812683
653.0,0.0,0.0,0.0,0.0,0.0,0.0,-0.001428495510481298,0.012461591511964798,-0.015311476774513721,0.9767106771469116,0.018265411257743835,0.04218974709510803,-0.20957821607589722
654.0,0.0,0.0,0.0,0.0,0.0,0.0,0.02077297493815422,0.03079637885093689,0.008062559179961681,0.9771715998649597,0.019638262689113617,0.04037832096219063,-0.20765262842178345
655.0,0.0,0.0,0.0,0.0,0.0,0.0,0.0012191763380542397,0.04000471532344818,0.00872744806110859,0.9774782657623291,0.022537631914019585,0.03784869611263275,-0.20639029145240784
656.0,0.0,0.0,0.0,0.0,0.0,0.0,-0.0374087430536747,0.022910337895154953,-0.0025143856182694435,0.9777230024337769,0.024440806359052658,0.032783132046461105,-0.2058742791414261
657.0,0.0,0.0,0.0,0.0,0.0,0.0,-0.07791705429553986,0.020111067220568657,0.010905292816460133,0.9782118797302246,0.02523079514503479,0.0258235651999712,-0.2044471651315689
658.0,0.0,0.0,0.0,0.0,0.0,0.0,-0.07665099948644638,0.015424051322042942,-0.015140640549361706,0.9787219762802124,0.02530604973435402,0.020161954686045647,-0.20262619853019714
659.0,0.0,0.0,0.0,0.0,0.0,0.0,-0.0946069285273552,0.012864185497164726,-0.028335779905319214,0.979232668876648,0.024455636739730835,0.014173968695104122,-0.200761616230011
660.0,0.0,0.0,0.0,0.0,0.0,0.0,-0.11518151313066483,0.041667915880680084,-0.04414590820670128,0.9795889258384705,0.02410360425710678,0.009495453909039497,-0.19933396577835083
661.0,0.0,0.0,0.0,0.0,0.0,0.0,-0.09881347417831421,0.034305110573768616,-0.023447198793292046,0.9797096252441406,0.023470137268304825,0.005892407614737749,-0.19895687699317932
662.0,0.0,0.0,0.0,0.0,0.0,0.0,-0.08220274746417999,0.05080615356564522,-0.029878702014684677,0.9798771739006042,0.023202432319521904,0.0033166382927447557,-0.198219895362854
663.0,0.0,0.0,0.0,0.0,0.0,0.0,-0.05299317464232445,0.05987340956926346,-0.028612235561013222,0.9800323247909546,0.023984193801879883,0.0017117243260145187,-0.19737710058689117
664.0,0.0,0.0,0.0,0.0,0.0,0.0,0.01649867370724678,0.02226405218243599,-0.012195250019431114,0.9802694916725159,0.02453211136162281,0.0003637850459199399,-0.19613569974899292
665.0,0.0,0.0,0.0,0.0,0.0,0.0,0.053555965423583984,0.029553953558206558,-0.0187166016548872,0.9803220629692078,0.025984622538089752,-0.0013038843171671033,-0.19568556547164917
666.0,0.0,0.0,0.0,0.0,0.0,0.0,0.08372888714075089,0.02156118117272854,-0.036258433014154434,0.9804390072822571,0.02801460772752762,-0.003657716792076826,-0.19478414952754974
667.0,0.0,0.0,0.0,0.0,0.0,0.0,0.11246199905872345,-0.008289048448204994,-0.05285431817173958,0.9807190299034119,0.029287099838256836,-0.007144405506551266,-0.19308608770370483
668.0,0.0,0.0,0.0,0.0,0.0,0.0,0.12267661839723587,0.011208132840692997,-0.06775684654712677,0.9811318516731262,0.030213262885808945,-0.011933655478060246,-0.1905924528837204
669.0,0.0,0.0,0.0,0.0,0.0,0.0,0.047936879098415375,0.012073912657797337,-0.03722654655575752,0.981473445892334,0.03183390200138092,-0.018514348194003105,-0.18802981078624725
670.0,0.0,0.0,0.0,0.0,0.0,0.0,-0.09848271310329437,0.027765994891524315,0.06947851926088333,0.9814940094947815,0.03331905975937843,-0.02735155075788498,-0.1865820288658142
671.0,0.0,0.0,0.0,0.0,0.0,0.0,-0.09694036096334457,0.032768212258815765,0.07166939228773117,0.981350839138031,0.034342098981142044,-0.034984834492206573,-0.1858702152967453
672.0,0.0,0.0,0.0,0.0,0.0,0.0,-0.09694816172122955,0.029330281540751457,0.05040363222360611,0.9811498522758484,0.03363332152366638,-0.04164578765630722,-0.18568310141563416
673.0,0.0,0.0,0.0,0.0,0.0,0.0,-0.0679904967546463,0.013206944800913334,0.03462672606110573,0.9810592532157898,0.032098814845085144,-0.04746376723051071,-0.1850442886352539
674.0,0.0,0.0,0.0,0.0,0.0,0.0,-0.02592182718217373,0.00516322860494256,0.010325566865503788,0.9812213182449341,0.03110688552260399,-0.05175914615392685,-0.18319298326969147
675.0,0.0,0.0,0.0,0.0,0.0,0.0,-0.024876127019524574,0.024294432252645493,-0.00284828944131732,0.9814584255218506,0.03128870204091072,-0.05506472289562225,-0.18090978264808655
676.0,0.0,0.0,0.0,0.0,0.0,0.0,-0.02005372941493988,0.011705554090440273,0.0029179921839386225,0.9817277789115906,0.032095879316329956,-0.05822094529867172,-0.1782984584569931
677.0,0.0,0.0,0.0,0.0,0.0,0.0,-0.0012337879743427038,0.005450952332466841,0.002473324304446578,0.9820324182510376,0.03400307521224022,-0.06169841066002846,-0.1750733107328415
678.0,0.0,0.0,0.0,0.0,0.0,0.0,0.04016978666186333,0.029724732041358948,0.008283489383757114,0.9825071692466736,0.03706497699022293,-0.0655391663312912,-0.170329287648201
679.0,0.0,0.0,0.0,0.0,0.0,0.0,0.1532677859067917,0.0366906113922596,-0.008404430001974106,0.9832117557525635,0.041833583265542984,-0.0721573531627655,-0.16228055953979492
680.0,0.0,0.0,0.0,0.0,0.0,0.0,0.15608181059360504,0.0336160771548748,-0.040437180548906326,0.9840483069419861,0.04726613312959671,-0.08320999890565872,-0.14998124539852142
681.0,0.0,0.0,0.0,0.0,0.0,0.0,-0.1891883909702301,0.06576036661863327,-0.013694126158952713,0.9847046732902527,0.046588774770498276,-0.09549586474895477,-0.138072207570076
682.0,0.0,0.0,0.0,0.0,0.0,0.0,-0.5400529503822327,0.08597447723150253,0.029390331357717514,0.9854941368103027,0.043409254401922226,-0.10211901366710663,-0.12841291725635529
683.0,0.0,0.0,0.0,0.0,0.0,0.0,-0.5399842262268066,0.11621604114770889,0.00949398148804903,0.9862273931503296,0.04483051598072052,-0.10643168538808823,-0.1184050515294075
684.0,0.0,0.0,0.0,0.0,0.0,0.0,-0.38970500230789185,0.21854040026664734,-0.11351533234119415,0.9856311082839966,0.055562734603881836,-0.11521981656551361,-0.1103164404630661
685.0,0.0,0.0,0.0,0.0,0.0,0.0,-0.2739700675010681,0.16817706823349,-0.13538803160190582,0.9817818999290466,0.07021425664424896,-0.12957027554512024,-0.11995064467191696
686.0,0.0,0.0,0.0,0.0,0.0,0.0,-0.06316139549016953,0.08757766336202621,-0.10829602181911469,0.9764951467514038,0.08218614757061005,-0.14321470260620117,-0.1385311335325241
687.0,0.0,0.0,0.0,0.0,0.0,0.0,0.42755958437919617,0.019686691462993622,-0.15501554310321808,0.9727445840835571,0.0962628722190857,-0.15041829645633698,-0.1479073464870453
688.0,0.0,0.0,0.0,0.0,0.0,0.0,0.5163413286209106,0.045578572899103165,-0.139215886592865,0.9713520407676697,0.10813365876674652,-0.15041758120059967,-0.148872971534729
689.0,0.0,0.0,0.0,0.0,0.0,0.0,0.484529584646225,0.06819400191307068,-0.1464393436908722,0.9732463359832764,0.1101721003651619,-0.13435077667236328,-0.15032857656478882
690.0,0.0,0.0,0.0,0.0,0.0,0.0,0.5153493285179138,0.06633331626653671,-0.1498153954744339,0.9780247807502747,0.10275602340698242,-0.09676631540060043,-0.1534373164176941
691.0,0.0,0.0,0.0,0.0,0.0,0.0,0.36423560976982117,-0.05688738077878952,-0.35472533106803894,0.9809988141059875,0.08932319283485413,-0.06688696146011353,-0.1587122082710266
692.0,0.0,0.0,0.0,0.0,0.0,0.0,-0.12186464667320251,-0.11518760025501251,-0.01416140515357256,0.9811620116233826,0.07359280437231064,-0.07070402055978775,-0.16403597593307495
693.0,0.0,0.0,0.0,0.0,0.0,0.0,-0.6288498044013977,0.06589758396148682,0.38614168763160706,0.9798035621643066,0.06553766131401062,-0.08997191488742828,-0.16611871123313904
694.0,0.0,0.0,0.0,0.0,0.0,0.0,-0.30776411294937134,0.0322989821434021,0.0896620973944664,0.9787560701370239,0.0624237097799778,-0.09793563187122345,-0.16896933317184448
695.0,0.0,0.0,0.0,0.0,0.0,0.0,-0.16333599388599396,0.0025384060572832823,0.06832732260227203,0.9779754877090454,0.0634739026427269,-0.09924715757369995,-0.1722920686006546
696.0,0.0,0.0,0.0,0.0,0.0,0.0,-0.17132675647735596,-0.011385306715965271,0.11733227223157883,0.9782027006149292,0.0646921768784523,-0.09745632857084274,-0.17158490419387817
697.0,0.0,0.0,0.0,0.0,0.0,0.0,-0.20025260746479034,0.08931803703308105,0.03679525479674339,0.9792541861534119,0.06347313523292542,-0.09664952754974365,-0.1664140820503235
698.0,0.0,0.0,0.0,0.0,0.0,0.0,-0.2192957103252411,0.1314546763896942,0.0573190301656723,0.9802561402320862,0.05906602740287781,-0.09707652777433395,-0.16182494163513184
699.0,0.0,0.0,0.0,0.0,0.0,0.0,0.029881661757826805,0.056566283106803894,0.0029908940196037292,0.9812735915184021,0.05546794459223747,-0.09426157176494598,-0.15855105221271515
700.0,0.0,0.0,0.0,0.0,0.0,0.0,0.04682141914963722,0.012205495499074459,-0.10842280834913254,0.9815683960914612,0.05245432257652283,-0.09230373054742813,-0.15891331434249878
701.0,0.0,0.0,0.0,0.0,0.0,0.0,-0.06863477826118469,-0.00882613193243742,-0.08767074346542358,0.9812967777252197,0.046600956469774246,-0.09182419627904892,-0.16263914108276367
702.0,0.0,0.0,0.0,0.0,0.0,0.0,0.09184486418962479,-0.001973189413547516,-0.03647369146347046,0.9810214042663574,0.04471902921795845,-0.09102614969015121,-0.1652686595916748
703.0,0.0,0.0,0.0,0.0,0.0,0.0,0.09785868227481842,0.019957244396209717,-0.0678357183933258,0.9808564782142639,0.0452410988509655,-0.09234534204006195,-0.16537442803382874
704.0,0.0,0.0,0.0,0.0,0.0,0.0,0.014302798546850681,0.0019219479290768504,-0.04462079703807831,0.9806817173957825,0.04338023439049721,-0.09477230161428452,-0.16553688049316406
705.0,0.0,0.0,0.0,0.0,0.0,0.0,0.03369002416729927,0.016129055991768837,-0.03959495201706886,0.9801775217056274,0.042892083525657654,-0.09815140813589096,-0.1666703075170517
706.0,0.0,0.0,0.0,0.0,0.0,0.0,0.034489430487155914,0.036093469709157944,-0.007445544470101595,0.9791274666786194,0.04538511484861374,-0.10081912577152252,-0.1705445796251297
707.0,0.0,0.0,0.0,0.0,0.0,0.0,0.0011962304124608636,0.02387179061770439,0.006384444423019886,0.9780606627464294,0.04713759943842888,-0.10285840928554535,-0.17492932081222534
708.0,0.0,0.0,0.0,0.0,0.0,0.0,-0.07842866331338882,0.02308810129761696,0.009106962010264397,0.977575421333313,0.04579230025410652,-0.10631667822599411,-0.17591676115989685
709.0,0.0,0.0,0.0,0.0,0.0,0.0,-0.13853150606155396,0.044942595064640045,0.03044370748102665,0.977904200553894,0.042175374925136566,-0.10831794887781143,-0.17377176880836487
710.0,0.0,0.0,0.0,0.0,0.0,0.0,-0.09110519289970398,0.04393293708562851,-0.0046829357743263245,0.9785621166229248,0.038655564188957214,-0.10756358504295349,-0.17132647335529327
711.0,0.0,0.0,0.0,0.0,0.0,0.0,-0.07521480321884155,0.05353976786136627,-0.018167033791542053,0.9791234135627747,0.036649465560913086,-0.10651921480894089,-0.1691974550485611
712.0,0.0,0.0,0.0,0.0,0.0,0.0,-0.10639698803424835,0.06442251801490784,0.004224397707730532,0.97967529296875,0.03465477377176285,-0.10388466715812683,-0.16806229948997498
713.0,0.0,0.0,0.0,0.0,0.0,0.0,-0.05336320772767067,0.024000249803066254,-0.025209687650203705,0.9806972742080688,0.030981430783867836,-0.1002785712480545,-0.16497628390789032
714.0,0.0,0.0,0.0,0.0,0.0,0.0,0.025077957659959793,0.005970519967377186,-0.050544749945402145,0.9818057417869568,0.02931215800344944,-0.09709770232439041,-0.1605345606803894
715.0,0.0,0.0,0.0,0.0,0.0,0.0,0.022403597831726074,0.032764557749032974,-0.04071684926748276,0.9823743104934692,0.030756330117583275,-0.09301336854696274,-0.1591917723417282
716.0,0.0,0.0,0.0,0.0,0.0,0.0,0.03711274266242981,0.0011225041234865785,-0.0309628713876009,0.982926070690155,0.031419333070516586,-0.08901088684797287,-0.15795302391052246
717.0,0.0,0.0,0.0,0.0,0.0,0.0,0.01594311185181141,-0.012885740958154202,-0.05431469902396202,0.9837051630020142,0.0304994136095047,-0.08565209060907364,-0.15510958433151245
718.0,0.0,0.0,0.0,0.0,0.0,0.0,0.017050400376319885,0.018174856901168823,-0.04327065497636795,0.9841262698173523,0.03170058876276016,-0.08297400921583176,-0.1536380648612976
719.0,0.0,0.0,0.0,0.0,0.0,0.0,0.05843276530504227,-0.012762714177370071,-0.06313633173704147,0.9842613339424133,0.033949580043554306,-0.08193755894899368,-0.15285751223564148
720.0,0.0,0.0,0.0,0.0,0.0,0.0,0.08176307380199432,0.010372325778007507,-0.087345190346241,0.984236478805542,0.03732985630631447,-0.08409805595874786,-0.15104271471500397
721.0,0.0,0.0,0.0,0.0,0.0,0.0,-0.07790159434080124,0.013813395984470844,-0.04308561980724335,0.9838602542877197,0.03905225545167923,-0.08810413628816605,-0.15077447891235352
722.0,0.0,0.0,0.0,0.0,0.0,0.0,-0.154048353433609,0.010101131163537502,0.00523157836869359,0.9837841987609863,0.038797806948423386,-0.0889555811882019,-0.15083427727222443
723.0,0.0,0.0,0.0,0.0,0.0,0.0,-0.15586720407009125,0.03170860558748245,0.021109290421009064,0.9838908314704895,0.03901718556880951,-0.08640693128108978,-0.15156595408916473
724.0,0.0,0.0,0.0,0.0,0.0,0.0,-0.21246866881847382,-0.008693433366715908,0.06999529898166656,0.9841294288635254,0.03800957649946213,-0.08106271922588348,-0.15320900082588196
725.0,0.0,0.0,0.0,0.0,0.0,0.0,-0.22676745057106018,0.004433090798556805,0.10340756177902222,0.9846289157867432,0.03543997183442116,-0.07182786613702774,-0.155208557844162
726.0,0.0,0.0,0.0,0.0,0.0,0.0,-0.1614759862422943,0.07063573598861694,0.03238525241613388,0.9852387309074402,0.032983891665935516,-0.05895651876926422,-0.1572951078414917
727.0,0.0,0.0,0.0,0.0,0.0,0.0,-0.0963224321603775,-0.011249427683651447,0.020894285291433334,0.9855495095252991,0.02957751229405403,-0.043225839734077454,-0.16108576953411102
728.0,0.0,0.0,0.0,0.0,0.0,0.0,0.01588606648147106,-0.0772889032959938,-0.007658649701625109,0.9858294129371643,0.02558290958404541,-0.030369354411959648,-0.16298186779022217
729.0,0.0,0.0,0.0,0.0,0.0,0.0,0.06939856708049774,-0.0541367270052433,-0.029014449566602707,0.9863682985305786,0.022397587075829506,-0.02278774231672287,-0.16141830384731293
730.0,0.0,0.0,0.0,0.0,0.0,0.0,0.03620551899075508,-0.060177333652973175,-0.007050703279674053,0.9869661331176758,0.020652398467063904,-0.017403898760676384,-0.1586483120918274
731.0,0.0,0.0,0.0,0.0,0.0,0.0,0.02541695535182953,-0.03592837601900101,-0.025335464626550674,0.9875600337982178,0.020068414509296417,-0.014081314206123352,-0.15532055497169495
732.0,0.0,0.0,0.0,0.0,0.0,0.0,0.05407053232192993,-0.005334340967237949,-0.03808976709842682,0.9881381988525391,0.02211446687579155,-0.011897328309714794,-0.1515059918165207
733.0,0.0,0.0,0.0,0.0,0.0,0.0,0.02284754440188408,-0.014856081455945969,-0.018660400062799454,0.9884592294692993,0.02311471477150917,-0.010517078451812267,-0.14934781193733215
734.0,0.0,0.0,0.0,0.0,0.0,0.0,-0.00836511142551899,-0.005896520800888538,-0.03818165883421898,0.9888550639152527,0.023800212889909744,-0.009426304139196873,-0.1466691493988037
735.0,0.0,0.0,0.0,0.0,0.0,0.0,-0.008434878662228584,-0.04091155156493187,-0.037524253129959106,0.9891748428344727,0.024113574996590614,-0.00884618703275919,-0.14447717368602753
736.0,0.0,0.0,0.0,0.0,0.0,0.0,-0.012136594392359257,-0.06289541721343994,-0.04568992555141449,0.9894508719444275,0.023991549387574196,-0.009694555774331093,-0.14253482222557068
737.0,0.0,0.0,0.0,0.0,0.0,0.0,0.002467482816427946,-0.10005587339401245,-0.06633589416742325,0.9898408055305481,0.022992288693785667,-0.013032899238169193,-0.1397048830986023
738.0,0.0,0.0,0.0,0.0,0.0,0.0,0.050440866500139236,-0.0804062932729721,-0.08637650310993195,0.9904981255531311,0.022090798243880272,-0.020154334604740143,-0.13423627614974976
739.0,0.0,0.0,0.0,0.0,0.0,0.0,0.06718522310256958,-0.03698712959885597,-0.09503337740898132,0.9912223219871521,0.025721898302435875,-0.02856508642435074,-0.12649540603160858
740.0,0.0,0.0,0.0,0.0,0.0,0.0,-0.06789571791887283,0.011433522216975689,-0.04089413955807686,0.9915010929107666,0.03108520433306694,-0.038775719702243805,-0.12023291736841202
741.0,0.0,0.0,0.0,0.0,0.0,0.0,-0.1495310366153717,0.013326894491910934,0.04375748708844185,0.9914283156394958,0.03566946089267731,-0.04786184802651405,-0.1162186786532402
742.0,0.0,0.0,0.0,0.0,0.0,0.0,-0.12061205506324768,-0.00888167042285204,0.0650298148393631,0.9913426041603088,0.03986286744475365,-0.05341638624668121,-0.11312877386808395
743.0,0.0,0.0,0.0,0.0,0.0,0.0,-0.11851968616247177,-0.01335739716887474,0.030087044462561607,0.9911783337593079,0.04263555631041527,-0.058646440505981445,-0.11094213277101517
744.0,0.0,0.0,0.0,0.0,0.0,0.0,-0.11554582417011261,-0.04772324487566948,0.007467886433005333,0.9911070466041565,0.043373532593250275,-0.06349557638168335,-0.10859919339418411
745.0,0.0,0.0,0.0,0.0,0.0,0.0,-0.1444629728794098,-0.03472791984677315,-0.001602178905159235,0.9911510348320007,0.0427609346807003,-0.06779587268829346,-0.1058105006814003
746.0,0.0,0.0,0.0,0.0,0.0,0.0,-0.11863480508327484,-0.03349169343709946,-0.023298440501093864,0.9912732839584351,0.042340125888586044,-0.07056375592947006,-0.10298037528991699
747.0,0.0,0.0,0.0,0.0,0.0,0.0,-0.11919780820608139,-0.03955488279461861,-0.01825566776096821,0.9914670586585999,0.04240213334560394,-0.07250724732875824,-0.0996830016374588
748.0,0.0,0.0,0.0,0.0,0.0,0.0,-0.12229994684457779,-0.029437704011797905,-0.017488539218902588,0.9916468262672424,0.04164071008563042,-0.07342805713415146,-0.097518190741539
749.0,0.0,0.0,0.0,0.0,0.0,0.0,-0.10104271024465561,-0.041345689445734024,-0.015882393345236778,0.991793155670166,0.04058535397052765,-0.07434874773025513,-0.0957702025771141
750.0,0.0,0.0,0.0,0.0,0.0,0.0,-0.06961724162101746,-0.044845469295978546,-0.02349759265780449,0.9919800162315369,0.03970935940742493,-0.07459099590778351,-0.09399401396512985
751.0,0.0,0.0,0.0,0.0,0.0,0.0,-0.06723218411207199,-0.043462589383125305,-0.017948919907212257,0.9921520948410034,0.03906315937638283,-0.07448609173297882,-0.09252867847681046
752.0,0.0,0.0,0.0,0.0,0.0,0.0,-0.03331802040338516,-0.04681308940052986,-0.032498765736818314,0.992436945438385,0.03876900300383568,-0.07402272522449493,-0.08992855250835419
753.0,0.0,0.0,0.0,0.0,0.0,0.0,-0.03768697753548622,-0.05416025221347809,-0.02308811992406845,0.9926583766937256,0.038314659148454666,-0.07469295710325241,-0.0870790109038353
754.0,0.0,0.0,0.0,0.0,0.0,0.0,-0.03911334648728371,-0.05575719475746155,-0.02447393722832203,0.992810845375061,0.03833167999982834,-0.07545776665210724,-0.08464060723781586
755.0,0.0,0.0,0.0,0.0,0.0,0.0,-0.026963448151946068,-0.0739654153585434,-0.009939610958099365,0.9929171204566956,0.03882122039794922,-0.07631814479827881,-0.08236660808324814
756.0,0.0,0.0,0.0,0.0,0.0,0.0,-0.03435957804322243,-0.06885960698127747,-0.011699927039444447,0.9930621981620789,0.04001706838607788,-0.07746459543704987,-0.0789029598236084
757.0,0.0,0.0,0.0,0.0,0.0,0.0,-0.03615754097700119,-0.05624886602163315,-0.039861924946308136,0.9931612014770508,0.042114295065402985,-0.07902411371469498,-0.07491914927959442
758.0,0.0,0.0,0.0,0.0,0.0,0.0,-0.03197550028562546,-0.05156409740447998,-0.04951363429427147,0.9932478070259094,0.046797651797533035,-0.07997038215398788,-0.06981655210256577
759.0,0.0,0.0,0.0,0.0,0.0,0.0,-0.14283408224582672,-0.029004670679569244,-0.005746209993958473,0.9932510852813721,0.05096324160695076,-0.0805535614490509,-0.06608004868030548
760.0,0.0,0.0,0.0,0.0,0.0,0.0,-0.17265616357326508,-0.05717390775680542,0.002063332125544548,0.9931565523147583,0.052720312029123306,-0.08070775121450424,-0.06593596190214157
761.0,0.0,0.0,0.0,0.0,0.0,0.0,-0.19560131430625916,-0.08057254552841187,0.07089939713478088,0.9930794835090637,0.05201955512166023,-0.0813140869140625,-0.06689848005771637
762.0,0.0,0.0,0.0,0.0,0.0,0.0,-0.21872122585773468,-0.026609869673848152,0.1129421591758728,0.9936051368713379,0.04998403042554855,-0.07474377751350403,-0.06829772889614105
763.0,0.0,0.0,0.0,0.0,0.0,0.0,-0.17806337773799896,0.023949041962623596,0.08260439336299896,0.9943622946739197,0.04449480026960373,-0.06202755868434906,-0.07359219342470169
764.0,0.0,0.0,0.0,0.0,0.0,0.0,-0.08118497580289841,-0.05848129838705063,0.055850472301244736,0.9948834776878357,0.03607254847884178,-0.04973004758358002,-0.08020232617855072
765.0,0.0,0.0,0.0,0.0,0.0,0.0,0.10378451645374298,-0.13502003252506256,-0.07079533487558365,0.9951926469802856,0.03082425892353058,-0.04143533110618591,-0.08321598172187805
766.0,0.0,0.0,0.0,0.0,0.0,0.0,0.1798875480890274,-0.1372094750404358,-0.12232038378715515,0.9952898621559143,0.03195825591683388,-0.039642397314310074,-0.08249779790639877
767.0,0.0,0.0,0.0,0.0,0.0,0.0,0.07426388561725616,-0.09208746999502182,-0.04239344969391823,0.9953256249427795,0.033570919185876846,-0.041390787810087204,-0.08054202795028687
768.0,0.0,0.0,0.0,0.0,0.0,0.0,0.028363846242427826,-0.09736135601997375,-0.00569690577685833,0.9952511787414551,0.0336674228310585,-0.0441117100417614,-0.07997285574674606
769.0,0.0,0.0,0.0,0.0,0.0,0.0,0.012519611977040768,-0.11616473644971848,0.023029927164316177,0.9951474070549011,0.03244839236140251,-0.047475747764110565,-0.07984407991170883
770.0,0.0,0.0,0.0,0.0,0.0,0.0,-0.03864653781056404,-0.09360497444868088,0.03381507471203804,0.9950851202011108,0.029855644330382347,-0.04929496720433235,-0.08052495867013931
771.0,0.0,0.0,0.0,0.0,0.0,0.0,-0.1191060021519661,-0.0859079658985138,0.06483887135982513,0.9951215386390686,0.025864677503705025,-0.048514679074287415,-0.08192168176174164
772.0,0.0,0.0,0.0,0.0,0.0,0.0,-0.16852256655693054,-0.1416398137807846,0.12910926342010498,0.9953082799911499,0.020406000316143036,-0.04475924000144005,-0.08332007378339767
773.0,0.0,0.0,0.0,0.0,0.0,0.0,-0.09207452088594437,-0.16023626923561096,0.08952174335718155,0.9956762194633484,0.015077866613864899,-0.038784340023994446,-0.08304979652166367
774.0,0.0,0.0,0.0,0.0,0.0,0.0,0.004772379994392395,-0.13490745425224304,-0.07478590309619904,0.9960641264915466,0.010949335061013699,-0.03560984879732132,-0.08042693883180618
775.0,0.0,0.0,0.0,0.0,0.0,0.0,0.07354232668876648,-0.09523288905620575,-0.14779548346996307,0.9963458180427551,0.008643584325909615,-0.03803906962275505,-0.07598244398832321
776.0,0.0,0.0,0.0,0.0,0.0,0.0,0.040671397000551224,-0.04677116498351097,-0.11425725370645523,0.9964192509651184,0.009270339272916317,-0.044489745050668716,-0.07130187004804611
777.0,0.0,0.0,0.0,0.0,0.0,0.0,-0.05940164253115654,-0.01611369289457798,-0.00431992020457983,0.9961768984794617,0.014399000443518162,-0.05228586494922638,-0.06849239766597748
778.0,0.0,0.0,0.0,0.0,0.0,0.0,-0.05495539680123329,-0.039275579154491425,0.050903771072626114,0.9957907199859619,0.020188434049487114,-0.05797016620635986,-0.06807105243206024
779.0,0.0,0.0,0.0,0.0,0.0,0.0,-0.08198744058609009,-0.06079745292663574,0.0801568478345871,0.9955729842185974,0.023779788985848427,-0.05995505675673485,-0.06837189942598343
780.0,0.0,0.0,0.0,0.0,0.0,0.0,-0.06069893017411232,-0.06845296919345856,0.01548978965729475,0.995493471622467,0.025386992841959,-0.06037678197026253,-0.06858076900243759
781.0,0.0,0.0,0.0,0.0,0.0,0.0,-0.014276139438152313,-0.0709449052810669,0.015346528962254524,0.9955546259880066,0.025686481967568398,-0.060225967317819595,-0.0677085667848587
782.0,0.0,0.0,0.0,0.0,0.0,0.0,0.029662081971764565,-0.08423028886318207,-0.005127005744725466,0.9955829381942749,0.027392756193876266,-0.06109635904431343,-0.06581667810678482
783.0,0.0,0.0,0.0,0.0,0.0,0.0,-0.06758708506822586,-0.10132736712694168,0.00859600305557251,0.9955694079399109,0.028110433369874954,-0.06269281357526779,-0.06419843435287476
784.0,0.0,0.0,0.0,0.0,0.0,0.0,-0.028451398015022278,-0.08889544010162354,-0.019887631759047508,0.995546281337738,0.029813680797815323,-0.06430474668741226,-0.062156111001968384
785.0,0.0,0.0,0.0,0.0,0.0,0.0,0.013980171643197536,-0.07065694779157639,-0.0507095567882061,0.9953529238700867,0.033656880259513855,-0.06758924573659897,-0.059764422476291656
786.0,0.0,0.0,0.0,0.0,0.0,0.0,0.029002662748098373,-0.07742384076118469,-0.0596957802772522,0.9948846697807312,0.03772096335887909,-0.0734933614730835,-0.058141451328992844
787.0,0.0,0.0,0.0,0.0,0.0,0.0,-0.04162762314081192,-0.09012490510940552,-0.046467315405607224,0.9942286610603333,0.04036049544811249,-0.08115416765213013,-0.05739389732480049
788.0,0.0,0.0,0.0,0.0,0.0,0.0,-0.11997619271278381,-0.0963694155216217,-0.008086871355772018,0.9936572909355164,0.04167421907186508,-0.08747289329767227,-0.05707228183746338
789.0,0.0,0.0,0.0,0.0,0.0,0.0,-0.182682067155838,-0.09939998388290405,0.02129586972296238,0.9931806921958923,0.0424087718129158,-0.09199163317680359,-0.05772324651479721
790.0,0.0,0.0,0.0,0.0,0.0,0.0,-0.187002032995224,-0.08315218985080719,0.006259292364120483,0.9928629398345947,0.043761543929576874,-0.09493280202150345,-0.057417288422584534
791.0,0.0,0.0,0.0,0.0,0.0,0.0,-0.16725710034370422,-0.06561129540205002,0.004280409310013056,0.992533266544342,0.04567922651767731,-0.09805871546268463,-0.056360334157943726
792.0,0.0,0.0,0.0,0.0,0.0,0.0,-0.1629159301519394,-0.06728334724903107,0.013305218890309334,0.9922053217887878,0.04610028862953186,-0.10136659443378448,-0.05592874810099602
793.0,0.0,0.0,0.0,0.0,0.0,0.0,-0.1268858164548874,-0.08102056384086609,0.018937338143587112,0.991985023021698,0.046294454485177994,-0.10396569967269897,-0.05489423871040344
794.0,0.0,0.0,0.0,0.0,0.0,0.0,-0.12624360620975494,-0.05541154742240906,0.013128001242876053,0.9919255971908569,0.04709320515394211,-0.10532066971063614,-0.05266820639371872
795.0,0.0,0.0,0.0,0.0,0.0,0.0,-0.11134099960327148,-0.04742301255464554,-0.011843427084386349,0.9919456839561462,0.046566080302000046,-0.10617487877607346,-0.051006756722927094
796.0,0.0,0.0,0.0,0.0,0.0,0.0,-0.08807941526174545,-0.058567292988300323,-0.02031860128045082,0.9918908476829529,0.045499056577682495,-0.10744450986385345,-0.05038014054298401
797.0,0.0,0.0,0.0,0.0,0.0,0.0,-0.07145601511001587,-0.057237379252910614,-0.022982096299529076,0.9917759299278259,0.04521673172712326,-0.10893215984106064,-0.049704257398843765
798.0,0.0,0.0,0.0,0.0,0.0,0.0,-0.07850437611341476,-0.06363968551158905,-0.02808205783367157,0.9916471242904663,0.045372456312179565,-0.11023927479982376,-0.04924188181757927
799.0,0.0,0.0,0.0,0.0,0.0,0.0,-0.08486104756593704,-0.08101287484169006,-0.008952443487942219,0.991537868976593,0.04490936920046806,-0.11169863492250443,-0.048577047884464264
800.0,0.0,0.0,0.0,0.0,0.0,0.0,-0.10080382227897644,-0.07090581953525543,-0.015609456226229668,0.9913899898529053,0.04410526901483536,-0.11357583850622177,-0.047964125871658325
801.0,0.0,0.0,0.0,0.0,0.0,0.0,-0.14035190641880035,-0.0620555616915226,0.005837040953338146,0.9912406206130981,0.04306012764573097,-0.1152946725487709,-0.047905683517456055
802.0,0.0,0.0,0.0,0.0,0.0,0.0,-0.1431092768907547,-0.07127507030963898,0.02939741127192974,0.991223156452179,0.04163277894258499,-0.11573966592550278,-0.048461686819791794
803.0,0.0,0.0,0.0,0.0,0.0,0.0,-0.12185359746217728,-0.0518694669008255,0.03188362717628479,0.9914109110832214,0.040131401270627975,-0.11474095284938812,-0.04827142879366875
804.0,0.0,0.0,0.0,0.0,0.0,0.0,-0.0655590146780014,-0.034611236304044724,-0.008084063418209553,0.991654634475708,0.0383283831179142,-0.11345148831605911,-0.04775092750787735
805.0,0.0,0.0,0.0,0.0,0.0,0.0,0.01679803803563118,-0.07648639380931854,-0.0858091190457344,0.9917950630187988,0.03722251206636429,-0.11278777569532394,-0.047294288873672485
806.0,0.0,0.0,0.0,0.0,0.0,0.0,-0.03169986233115196,-0.07642891258001328,-0.05445296689867973,0.9918419718742371,0.037975192070007324,-0.11298970878124237,-0.045179273933172226
807.0,0.0,0.0,0.0,0.0,0.0,0.0,-0.005497876089066267,-0.06286554038524628,-0.05323503166437149,0.9918001294136047,0.041285861283540726,-0.11411187797784805,-0.04008881002664566
808.0,0.0,0.0,0.0,0.0,0.0,0.0,-0.05545900762081146,-0.046628475189208984,-0.04656943306326866,0.9916403889656067,0.045929133892059326,-0.11648692190647125,-0.031150097027420998
809.0,0.0,0.0,0.0,0.0,0.0,0.0,-0.14276017248630524,-0.030064543709158897,-0.02907944843173027,0.9912137985229492,0.053946539759635925,-0.1192852035164833,-0.018894171342253685
810.0,0.0,0.0,0.0,0.0,0.0,0.0,-0.16990730166435242,-0.03622489050030708,-0.053755536675453186,0.9908358454704285,0.06356627494096756,-0.11902180314064026,-0.006192205008119345
811.0,0.0,0.0,0.0,0.0,0.0,0.0,-0.31904715299606323,-0.05168553814291954,-0.0628872811794281,0.9906923174858093,0.0696251317858696,-0.1169314980506897,0.0030252388678491116
812.0,0.0,0.0,0.0,0.0,0.0,0.0,-0.41393718123435974,0.017645329236984253,-0.031407348811626434,0.9910633563995361,0.07247103005647659,-0.1116814985871315,0.008280814625322819
813.0,0.0,0.0,0.0,0.0,0.0,0.0,-0.32263386249542236,-0.0032153271604329348,-0.0071343546733260155,0.9924473166465759,0.0668766126036644,-0.10270242393016815,0.0053146034479141235
814.0,0.0,0.0,0.0,0.0,0.0,0.0,-0.11025092005729675,-0.11448532342910767,0.019284391775727272,0.9937482476234436,0.058960214257240295,-0.09480485320091248,-0.00041599496034905314
815.0,0.0,0.0,0.0,0.0,0.0,0.0,0.15015414357185364,-0.14565150439739227,-0.16875889897346497,0.994120717048645,0.059152454137802124,-0.09068453311920166,-0.0014215323608368635
816.0,0.0,0.0,0.0,0.0,0.0,0.0,0.13908153772354126,-0.1047932505607605,-0.09245824068784714,0.994064211845398,0.06334524601697922,-0.08843490481376648,-0.001773797208443284
817.0,0.0,0.0,0.0,0.0,0.0,0.0,0.12685489654541016,-0.10144167393445969,-0.04366235435009003,0.9943360090255737,0.0673103928565979,-0.08225294202566147,0.00022160870139487088
818.0,0.0,0.0,0.0,0.0,0.0,0.0,0.14614862203598022,-0.07406213134527206,-0.09463731199502945,0.9952312707901001,0.06823181360960007,-0.06968210637569427,0.0018759571248665452
819.0,0.0,0.0,0.0,0.0,0.0,0.0,0.1424030065536499,-0.09216427057981491,-0.09361706674098969,0.9967976808547974,0.06318943947553635,-0.048983730375766754,-0.0015383708523586392
820.0,0.0,0.0,0.0,0.0,0.0,0.0,0.015290888026356697,-0.07074981927871704,-0.13824471831321716,0.9979669451713562,0.054652679711580276,-0.03170578181743622,-0.008371042087674141
821.0,0.0,0.0,0.0,0.0,0.0,0.0,-0.17356637120246887,-0.11434542387723923,-0.09595692902803421,0.9983870387077332,0.044806886464357376,-0.03098890371620655,-0.015979960560798645
822.0,0.0,0.0,0.0,0.0,0.0,0.0,-0.301588773727417,-0.1585257202386856,0.09266403317451477,0.9983212947845459,0.037783075124025345,-0.03961770981550217,-0.01891155354678631
823.0,0.0,0.0,0.0,0.0,0.0,0.0,-0.37257805466651917,-0.1975182592868805,0.1914609670639038,0.9983133673667908,0.032409582287073135,-0.044387754052877426,-0.01870284229516983
824.0,0.0,0.0,0.0,0.0,0.0,0.0,-0.3635694086551666,-0.1954212784767151,0.12476194649934769,0.9985309839248657,0.0272650346159935,-0.0437077060341835,-0.01678967848420143
825.0,0.0,0.0,0.0,0.0,0.0,0.0,-0.2633286416530609,-0.16155093908309937,0.059273090213537216,0.998814046382904,0.023763909935951233,-0.03965477645397186,-0.015277083963155746
826.0,0.0,0.0,0.0,0.0,0.0,0.0,-0.06739135086536407,-0.15474136173725128,-0.011352651752531528,0.9990677237510681,0.02261796034872532,-0.03443389758467674,-0.012900002300739288
827.0,0.0,0.0,0.0,0.0,0.0,0.0,-0.03147144615650177,-0.13185842335224152,-0.01839466206729412,0.9992831349372864,0.02239316888153553,-0.02901543490588665,-0.009498240426182747
828.0,0.0,0.0,0.0,0.0,0.0,0.0,0.005571992602199316,-0.100681833922863,-0.04599201679229736,0.9994338750839233,0.022863756865262985,-0.023937659338116646,-0.006010056473314762
829.0,0.0,0.0,0.0,0.0,0.0,0.0,0.016993345692753792,-0.07804089039564133,-0.09027711302042007,0.999502956867218,0.024349529296159744,-0.01985982619225979,-0.0025745152961462736
830.0,0.0,0.0,0.0,0.0,0.0,0.0,-0.02747834473848343,-0.08614049851894379,-0.061883509159088135,0.9995340704917908,0.025001579895615578,-0.017486030235886574,-0.0009950044332072139
831.0,0.0,0.0,0.0,0.0,0.0,0.0,-0.05759748816490173,-0.10966943204402924,-0.02132907509803772,0.9995781779289246,0.02425047755241394,-0.0159781351685524,0.0003981459594797343
832.0,0.0,0.0,0.0,0.0,0.0,0.0,-0.051262494176626205,-0.08759976178407669,-0.042304687201976776,0.999581515789032,0.02404959499835968,-0.015755416825413704,0.0032028332352638245
833.0,0.0,0.0,0.0,0.0,0.0,0.0,-0.03326554596424103,-0.06169566884636879,-0.05172695964574814,0.9995019435882568,0.025805450975894928,-0.01723475009202957,0.005730967968702316
834.0,0.0,0.0,0.0,0.0,0.0,0.0,-0.11057793349027634,-0.08902096003293991,-0.04417797178030014,0.9994110465049744,0.027061179280281067,-0.01972457580268383,0.00750673608854413
835.0,0.0,0.0,0.0,0.0,0.0,0.0,-0.14465893805027008,-0.10233957320451736,-0.05502662807703018,0.999348521232605,0.02730325423181057,-0.021844329312443733,0.008944370783865452
836.0,0.0,0.0,0.0,0.0,0.0,0.0,-0.11753860116004944,-0.10202044248580933,-0.04218481108546257,0.9992779493331909,0.027621300891041756,-0.024059869349002838,0.010121588595211506
837.0,0.0,0.0,0.0,0.0,0.0,0.0,-0.11824582517147064,-0.10078337043523788,-0.034933943301439285,0.9991830587387085,0.02823822945356369,-0.026227304711937904,0.012178079225122929
838.0,0.0,0.0,0.0,0.0,0.0,0.0,-0.10619804263114929,-0.09650693833827972,-0.05859432741999626,0.9990251660346985,0.029881197959184647,-0.029001524671912193,0.014657985419034958
839.0,0.0,0.0,0.0,0.0,0.0,0.0,-0.07107572257518768,-0.10867982357740402,-0.06226366385817528,0.998859703540802,0.03170493617653847,-0.0320492722094059,0.015717023983597755
840.0,0.0,0.0,0.0,0.0,0.0,0.0,-0.02087114378809929,-0.09070037305355072,-0.08722174912691116,0.9986043572425842,0.03464093804359436,-0.03639177978038788,0.01629357412457466
841.0,0.0,0.0,0.0,0.0,0.0,0.0,0.04122049733996391,-0.07720246911048889,-0.10463958233594894,0.9981884360313416,0.03935850039124489,-0.04228654503822327,0.016810936853289604
842.0,0.0,0.0,0.0,0.0,0.0,0.0,0.04159601777791977,-0.06622432917356491,-0.08541485667228699,0.9976083636283875,0.04354197159409523,-0.05117180198431015,0.016230963170528412
843.0,0.0,0.0,0.0,0.0,0.0,0.0,-0.07733502984046936,-0.08659335225820541,-0.05546512454748154,0.9969101548194885,0.04535943642258644,-0.06235668808221817,0.01500011794269085
844.0,0.0,0.0,0.0,0.0,0.0,0.0,-0.1871226280927658,-0.10841578990221024,-0.0025708703324198723,0.9963828921318054,0.04510921239852905,-0.07096032798290253,0.012279658578336239
845.0,0.0,0.0,0.0,0.0,0.0,0.0,-0.2192947119474411,-0.13433381915092468,0.03619396686553955,0.9960476160049438,0.044254615902900696,-0.07650752365589142,0.008811195380985737
846.0,0.0,0.0,0.0,0.0,0.0,0.0,-0.20889881253242493,-0.1619950383901596,0.06204633787274361,0.995846152305603,0.04327794164419174,-0.07985208183526993,0.0064423056319355965
847.0,0.0,0.0,0.0,0.0,0.0,0.0,-0.17232054471969604,-0.14106594026088715,0.057394541800022125,0.9958062171936035,0.04149945452809334,-0.081417016685009,0.004443710669875145
848.0,0.0,0.0,0.0,0.0,0.0,0.0,-0.16127093136310577,-0.12115073204040527,0.05557865649461746,0.9959869980812073,0.0374307744204998,-0.08129214495420456,0.00013380743621382862
849.0,0.0,0.0,0.0,0.0,0.0,0.0,-0.14057126641273499,-0.13823671638965607,0.1037520170211792,0.9962958693504333,0.031504664570093155,-0.07977136969566345,-0.006259419489651918
850.0,0.0,0.0,0.0,0.0,0.0,0.0,-0.11741585284471512,-0.1299123615026474,0.1319020539522171,0.9968379139900208,0.024247679859399796,-0.07420255988836288,-0.014838297851383686
851.0,0.0,0.0,0.0,0.0,0.0,0.0,-0.10142212361097336,-0.18223880231380463,0.09336970746517181,0.9972304701805115,0.016972754150629044,-0.06845250725746155,-0.023614583536982536
852.0,0.0,0.0,0.0,0.0,0.0,0.0,-0.05933423712849617,-0.21196913719177246,0.10856860131025314,0.9974063634872437,0.01031592395156622,-0.06407878547906876,-0.031115839257836342
853.0,0.0,0.0,0.0,0.0,0.0,0.0,0.03606276586651802,-0.19284102320671082,0.02882111817598343,0.9976018071174622,0.006703467108309269,-0.05923790857195854,-0.035165589302778244
854.0,0.0,0.0,0.0,0.0,0.0,0.0,0.047832850366830826,-0.16965879499912262,-0.057423315942287445,0.997735321521759,0.005969776771962643,-0.055581580847501755,-0.037410471588373184
855.0,0.0,0.0,0.0,0.0,0.0,0.0,-0.016207564622163773,-0.1624259352684021,-0.037912510335445404,0.9976922869682312,0.005535961128771305,-0.053819384425878525,-0.04102713242173195
