,Position_X,Position_Y,Position_Z,Velocity_X,Velocity_Y,Velocity_Z,Acceleration_X,Acceleration_Y,Acceleration_Z,Quaterion_0,Quaterion_1,Quaterion_2,Quaterion_3
166,0.0,0.0,0.0,0.0,0.0,0.0,-0.9534,-0.0726,-0.2429,0.5718,-0.3458,0.6879,0.2834
167,0.0,0.0,0.0,0.0,0.0,0.0,-0.9631,-0.1112,-0.2346,0.5727,-0.3459,0.6870,0.2835
168,0.0,0.0,0.0,0.0,0.0,0.0,-0.9462,-0.0882,-0.2342,0.5733,-0.3460,0.6865,0.2833
169,0.0,0.0,0.0,0.0,0.0,0.0,-0.9360,-0.0476,-0.2425,0.5736,-0.3459,0.6866,0.2827
170,0.0,0.0,0.0,0.0,0.0,0.0,-0.9384,-0.0289,-0.2552,0.5736,-0.3454,0.6872,0.2817
171,0.0,0.0,0.0,0.0,0.0,0.0,-0.9445,-0.0397,-0.2567,0.5734,-0.3446,0.6881,0.2809
172,0.0,0.0,0.0,0.0,0.0,0.0,-0.9487,-0.0602,-0.2550,0.5734,-0.3441,0.6887,0.2803
173,0.0,0.0,0.0,0.0,0.0,0.0,-0.9598,-0.0687,-0.2490,0.5735,-0.3438,0.6890,0.2797
174,0.0,0.0,0.0,0.0,0.0,0.0,-0.9596,-0.0683,-0.2432,0.5737,-0.3436,0.6892,0.2791
175,0.0,0.0,0.0,0.0,0.0,0.0,-0.9524,-0.0697,-0.2439,0.5741,-0.3435,0.6890,0.2788
176,0.0,0.0,0.0,0.0,0.0,0.0,-0.9476,-0.0696,-0.2421,0.5745,-0.3434,0.6888,0.2784
177,0.0,0.0,0.0,0.0,0.0,0.0,-0.9494,-0.0697,-0.2401,0.5753,-0.3433,0.6885,0.2778
178,0.0,0.0,0.0,0.0,0.0,0.0,-0.9500,-0.0746,-0.2392,0.5761,-0.3432,0.6879,0.2776
179,0.0,0.0,0.0,0.0,0.0,0.0,-0.9487,-0.0809,-0.2394,0.5769,-0.3430,0.6877,0.2767
180,0.0,0.0,0.0,0.0,0.0,0.0,-0.9529,-0.0771,-0.2372,0.5776,-0.3429,0.6875,0.2759
181,0.0,0.0,0.0,0.0,0.0,0.0,-0.9556,-0.0635,-0.2408,0.5781,-0.3428,0.6875,0.2751
182,0.0,0.0,0.0,0.0,0.0,0.0,-0.9532,-0.0556,-0.2446,0.5782,-0.3424,0.6877,0.2748
183,0.0,0.0,0.0,0.0,0.0,0.0,-0.9551,-0.0551,-0.2450,0.5782,-0.3419,0.6880,0.2749
184,0.0,0.0,0.0,0.0,0.0,0.0,-0.9589,-0.0572,-0.2415,0.5782,-0.3412,0.6881,0.2753
185,0.0,0.0,0.0,0.0,0.0,0.0,-0.9565,-0.0576,-0.2411,0.5783,-0.3402,0.6882,0.2761
186,0.0,0.0,0.0,0.0,0.0,0.0,-0.9541,-0.0571,-0.2441,0.5784,-0.3392,0.6883,0.2768
187,0.0,0.0,0.0,0.0,0.0,0.0,-0.9554,-0.0528,-0.2382,0.5785,-0.3383,0.6885,0.2771
188,0.0,0.0,0.0,0.0,0.0,0.0,-0.9553,-0.0544,-0.2338,0.5788,-0.3373,0.6888,0.2771
189,0.0,0.0,0.0,0.0,0.0,0.0,-0.9549,-0.0607,-0.2330,0.5793,-0.3366,0.6888,0.2770
190,0.0,0.0,0.0,0.0,0.0,0.0,-0.9511,-0.0640,-0.2337,0.5798,-0.3363,0.6884,0.2771
191,0.0,0.0,0.0,0.0,0.0,0.0,-0.9497,-0.0654,-0.2342,0.5801,-0.3357,0.6887,0.2765
192,0.0,0.0,0.0,0.0,0.0,0.0,-0.9521,-0.0650,-0.2332,0.5804,-0.3353,0.6889,0.2760
193,0.0,0.0,0.0,0.0,0.0,0.0,-0.9482,-0.0669,-0.2328,0.5807,-0.3352,0.6887,0.2759
194,0.0,0.0,0.0,0.0,0.0,0.0,-0.9493,-0.0693,-0.2333,0.5809,-0.3346,0.6892,0.2750
195,0.0,0.0,0.0,0.0,0.0,0.0,-0.9469,-0.0707,-0.2349,0.5811,-0.3343,0.6894,0.2744
196,0.0,0.0,0.0,0.0,0.0,0.0,-0.9483,-0.0713,-0.2329,0.5815,-0.3340,0.6894,0.2741
197,0.0,0.0,0.0,0.0,0.0,0.0,-0.9517,-0.0723,-0.2299,0.5818,-0.3335,0.6896,0.2734
198,0.0,0.0,0.0,0.0,0.0,0.0,-0.9556,-0.0704,-0.2327,0.5821,-0.3334,0.6896,0.2730
199,0.0,0.0,0.0,0.0,0.0,0.0,-0.9560,-0.0709,-0.2327,0.5824,-0.3335,0.6894,0.2726
200,0.0,0.0,0.0,0.0,0.0,0.0,-0.9575,-0.0685,-0.2326,0.5827,-0.3336,0.6893,0.2721
201,0.0,0.0,0.0,0.0,0.0,0.0,-0.9565,-0.0734,-0.2303,0.5830,-0.3337,0.6893,0.2712
202,0.0,0.0,0.0,0.0,0.0,0.0,-0.9608,-0.1141,-0.2362,0.5838,-0.3346,0.6883,0.2710
203,0.0,0.0,0.0,0.0,0.0,0.0,-0.9506,-0.1169,-0.2327,0.5844,-0.3358,0.6873,0.2709
204,0.0,0.0,0.0,0.0,0.0,0.0,-0.9359,-0.1002,-0.2358,0.5848,-0.3372,0.6864,0.2704
205,0.0,0.0,0.0,0.0,0.0,0.0,-0.9365,-0.0679,-0.2477,0.5846,-0.3382,0.6863,0.2698
206,0.0,0.0,0.0,0.0,0.0,0.0,-0.9438,-0.0655,-0.2518,0.5839,-0.3389,0.6868,0.2692
207,0.0,0.0,0.0,0.0,0.0,0.0,-0.9488,-0.0734,-0.2494,0.5829,-0.3394,0.6875,0.2690
208,0.0,0.0,0.0,0.0,0.0,0.0,-0.9535,-0.0794,-0.2411,0.5822,-0.3401,0.6876,0.2693
209,0.0,0.0,0.0,0.0,0.0,0.0,-0.9567,-0.0816,-0.2309,0.5818,-0.3406,0.6876,0.2698
210,0.0,0.0,0.0,0.0,0.0,0.0,-0.9553,-0.0909,-0.2277,0.5818,-0.3407,0.6874,0.2701
211,0.0,0.0,0.0,0.0,0.0,0.0,-0.9530,-0.1086,-0.2388,0.5822,-0.3409,0.6867,0.2706
212,0.0,0.0,0.0,0.0,0.0,0.0,-0.9499,-0.1172,-0.2448,0.5825,-0.3411,0.6862,0.2710
213,0.0,0.0,0.0,0.0,0.0,0.0,-0.9593,-0.1121,-0.2372,0.5828,-0.3410,0.6861,0.2708
214,0.0,0.0,0.0,0.0,0.0,0.0,-0.9590,-0.0995,-0.2345,0.5829,-0.3405,0.6864,0.2706
215,0.0,0.0,0.0,0.0,0.0,0.0,-0.9507,-0.0896,-0.2390,0.5827,-0.3397,0.6870,0.2705
216,0.0,0.0,0.0,0.0,0.0,0.0,-0.9482,-0.0798,-0.2427,0.5824,-0.3388,0.6876,0.2706
217,0.0,0.0,0.0,0.0,0.0,0.0,-0.9452,-0.0749,-0.2423,0.5821,-0.3376,0.6883,0.2709
218,0.0,0.0,0.0,0.0,0.0,0.0,-0.9484,-0.0727,-0.2363,0.5821,-0.3363,0.6887,0.2716
219,0.0,0.0,0.0,0.0,0.0,0.0,-0.9475,-0.0722,-0.2363,0.5825,-0.3352,0.6882,0.2734
220,0.0,0.0,0.0,0.0,0.0,0.0,-0.9503,-0.0708,-0.2333,0.5829,-0.3343,0.6876,0.2751
221,0.0,0.0,0.0,0.0,0.0,0.0,-0.9535,-0.0690,-0.2308,0.5831,-0.3331,0.6877,0.2759
222,0.0,0.0,0.0,0.0,0.0,0.0,-0.9565,-0.0700,-0.2302,0.5833,-0.3321,0.6879,0.2762
223,0.0,0.0,0.0,0.0,0.0,0.0,-0.9579,-0.0734,-0.2283,0.5836,-0.3315,0.6877,0.2766
224,0.0,0.0,0.0,0.0,0.0,0.0,-0.9589,-0.0769,-0.2269,0.5839,-0.3309,0.6877,0.2767
225,0.0,0.0,0.0,0.0,0.0,0.0,-0.9542,-0.0753,-0.2318,0.5841,-0.3300,0.6881,0.2762
226,0.0,0.0,0.0,0.0,0.0,0.0,-0.9507,-0.0703,-0.2323,0.5842,-0.3294,0.6886,0.2757
227,0.0,0.0,0.0,0.0,0.0,0.0,-0.9521,-0.0704,-0.2318,0.5843,-0.3290,0.6889,0.2754
228,0.0,0.0,0.0,0.0,0.0,0.0,-0.9537,-0.0713,-0.2337,0.5843,-0.3286,0.6893,0.2748
229,0.0,0.0,0.0,0.0,0.0,0.0,-0.9519,-0.0746,-0.2382,0.5843,-0.3283,0.6897,0.2741
230,0.0,0.0,0.0,0.0,0.0,0.0,-0.9506,-0.0789,-0.2431,0.5841,-0.3281,0.6900,0.2738
231,0.0,0.0,0.0,0.0,0.0,0.0,-0.9521,-0.0754,-0.2455,0.5837,-0.3277,0.6910,0.2729
232,0.0,0.0,0.0,0.0,0.0,0.0,-0.9520,-0.0696,-0.2454,0.5832,-0.3269,0.6923,0.2714
233,0.0,0.0,0.0,0.0,0.0,0.0,-0.9540,-0.0681,-0.2496,0.5828,-0.3258,0.6939,0.2697
234,0.0,0.0,0.0,0.0,0.0,0.0,-0.9585,-0.0843,-0.2420,0.5831,-0.3245,0.6949,0.2680
235,0.0,0.0,0.0,0.0,0.0,0.0,-0.9689,-0.1499,-0.2458,0.5838,-0.3242,0.6947,0.2672
236,0.0,0.0,0.0,0.0,0.0,0.0,-0.9498,-0.1356,-0.2442,0.5841,-0.3243,0.6946,0.2668
237,0.0,0.0,0.0,0.0,0.0,0.0,-0.9321,-0.0877,-0.2497,0.5843,-0.3242,0.6947,0.2663
238,0.0,0.0,0.0,0.0,0.0,0.0,-0.9431,-0.0737,-0.2539,0.5842,-0.3236,0.6952,0.2658
239,0.0,0.0,0.0,0.0,0.0,0.0,-0.9470,-0.0767,-0.2529,0.5838,-0.3228,0.6960,0.2655
240,0.0,0.0,0.0,0.0,0.0,0.0,-0.9464,-0.0782,-0.2476,0.5835,-0.3225,0.6962,0.2660
241,0.0,0.0,0.0,0.0,0.0,0.0,-0.9549,-0.0795,-0.2401,0.5834,-0.3223,0.6963,0.2665
242,0.0,0.0,0.0,0.0,0.0,0.0,-0.9485,-0.0746,-0.2378,0.5833,-0.3222,0.6962,0.2670
243,0.0,0.0,0.0,0.0,0.0,0.0,-0.9403,-0.0729,-0.2405,0.5832,-0.3223,0.6961,0.2674
244,0.0,0.0,0.0,0.0,0.0,0.0,-0.9447,-0.0754,-0.2408,0.5832,-0.3225,0.6960,0.2675
245,0.0,0.0,0.0,0.0,0.0,0.0,-0.9463,-0.0788,-0.2428,0.5830,-0.3229,0.6959,0.2675
246,0.0,0.0,0.0,0.0,0.0,0.0,-0.9459,-0.0826,-0.2448,0.5825,-0.3234,0.6962,0.2672
247,0.0,0.0,0.0,0.0,0.0,0.0,-0.9456,-0.0835,-0.2497,0.5819,-0.3241,0.6965,0.2669
248,0.0,0.0,0.0,0.0,0.0,0.0,-0.9485,-0.0845,-0.2496,0.5813,-0.3253,0.6964,0.2670
249,0.0,0.0,0.0,0.0,0.0,0.0,-0.9494,-0.0885,-0.2463,0.5807,-0.3265,0.6963,0.2671
250,0.0,0.0,0.0,0.0,0.0,0.0,-0.9494,-0.0895,-0.2424,0.5801,-0.3276,0.6962,0.2672
251,0.0,0.0,0.0,0.0,0.0,0.0,-0.9518,-0.0906,-0.2419,0.5798,-0.3285,0.6959,0.2676
252,0.0,0.0,0.0,0.0,0.0,0.0,-0.9553,-0.0934,-0.2466,0.5797,-0.3289,0.6956,0.2683
253,0.0,0.0,0.0,0.0,0.0,0.0,-0.9554,-0.0919,-0.2510,0.5795,-0.3292,0.6952,0.2691
254,0.0,0.0,0.0,0.0,0.0,0.0,-0.9568,-0.0890,-0.2514,0.5795,-0.3293,0.6951,0.2696
255,0.0,0.0,0.0,0.0,0.0,0.0,-0.9554,-0.0895,-0.2500,0.5795,-0.3293,0.6949,0.2700
256,0.0,0.0,0.0,0.0,0.0,0.0,-0.9557,-0.0867,-0.2446,0.5797,-0.3294,0.6941,0.2715
257,0.0,0.0,0.0,0.0,0.0,0.0,-0.9538,-0.0737,-0.2391,0.5798,-0.3291,0.6934,0.2734
258,0.0,0.0,0.0,0.0,0.0,0.0,-0.9525,-0.0587,-0.2345,0.5798,-0.3283,0.6930,0.2753
259,0.0,0.0,0.0,0.0,0.0,0.0,-0.9523,-0.0461,-0.2343,0.5797,-0.3273,0.6928,0.2771
260,0.0,0.0,0.0,0.0,0.0,0.0,-0.9547,-0.0505,-0.2318,0.5799,-0.3267,0.6923,0.2788
261,0.0,0.0,0.0,0.0,0.0,0.0,-0.9538,-0.0583,-0.2306,0.5802,-0.3265,0.6916,0.2802
262,0.0,0.0,0.0,0.0,0.0,0.0,-0.9496,-0.0650,-0.2303,0.5804,-0.3262,0.6911,0.2811
263,0.0,0.0,0.0,0.0,0.0,0.0,-0.9516,-0.0675,-0.2313,0.5805,-0.3262,0.6907,0.2819
264,0.0,0.0,0.0,0.0,0.0,0.0,-0.9507,-0.0718,-0.2304,0.5806,-0.3264,0.6904,0.2823
265,0.0,0.0,0.0,0.0,0.0,0.0,-0.9496,-0.0714,-0.2271,0.5807,-0.3268,0.6899,0.2830
266,0.0,0.0,0.0,0.0,0.0,0.0,-0.9495,-0.0661,-0.2250,0.5808,-0.3271,0.6893,0.2840
267,0.0,0.0,0.0,0.0,0.0,0.0,-0.9519,-0.0632,-0.2259,0.5808,-0.3275,0.6887,0.2848
268,0.0,0.0,0.0,0.0,0.0,0.0,-0.9517,-0.0574,-0.2243,0.5806,-0.3278,0.6885,0.2853
269,0.0,0.0,0.0,0.0,0.0,0.0,-0.9539,-0.0483,-0.2217,0.5805,-0.3280,0.6883,0.2858
270,0.0,0.0,0.0,0.0,0.0,0.0,-0.9538,-0.0435,-0.2196,0.5805,-0.3281,0.6883,0.2857
271,0.0,0.0,0.0,0.0,0.0,0.0,-0.9511,-0.0501,-0.2232,0.5807,-0.3279,0.6888,0.2845
272,0.0,0.0,0.0,0.0,0.0,0.0,-0.9510,-0.0636,-0.2298,0.5809,-0.3280,0.6889,0.2836
273,0.0,0.0,0.0,0.0,0.0,0.0,-0.9472,-0.0645,-0.2314,0.5807,-0.3282,0.6891,0.2830
274,0.0,0.0,0.0,0.0,0.0,0.0,-0.9508,-0.0583,-0.2258,0.5806,-0.3284,0.6893,0.2827
275,0.0,0.0,0.0,0.0,0.0,0.0,-0.9592,-0.0701,-0.2258,0.5808,-0.3283,0.6894,0.2821
276,0.0,0.0,0.0,0.0,0.0,0.0,-0.9606,-0.0816,-0.2342,0.5810,-0.3285,0.6895,0.2814
277,0.0,0.0,0.0,0.0,0.0,0.0,-0.9605,-0.0787,-0.2327,0.5811,-0.3287,0.6893,0.2813
278,0.0,0.0,0.0,0.0,0.0,0.0,-0.9589,-0.0715,-0.2287,0.5813,-0.3286,0.6892,0.2812
279,0.0,0.0,0.0,0.0,0.0,0.0,-0.9587,-0.0672,-0.2267,0.5814,-0.3284,0.6893,0.2811
280,0.0,0.0,0.0,0.0,0.0,0.0,-0.9601,-0.0638,-0.2242,0.5818,-0.3283,0.6890,0.2811
281,0.0,0.0,0.0,0.0,0.0,0.0,-0.9595,-0.0639,-0.2213,0.5825,-0.3284,0.6883,0.2812
282,0.0,0.0,0.0,0.0,0.0,0.0,-0.9575,-0.0605,-0.2198,0.5834,-0.3283,0.6877,0.2810
283,0.0,0.0,0.0,0.0,0.0,0.0,-0.9556,-0.0643,-0.2214,0.5843,-0.3284,0.6870,0.2805
284,0.0,0.0,0.0,0.0,0.0,0.0,-0.9553,-0.0725,-0.2225,0.5854,-0.3290,0.6860,0.2802
285,0.0,0.0,0.0,0.0,0.0,0.0,-0.9530,-0.0754,-0.2222,0.5864,-0.3297,0.6850,0.2796
286,0.0,0.0,0.0,0.0,0.0,0.0,-0.9497,-0.0802,-0.2219,0.5871,-0.3302,0.6846,0.2786
287,0.0,0.0,0.0,0.0,0.0,0.0,-0.9507,-0.0856,-0.2224,0.5877,-0.3310,0.6840,0.2779
288,0.0,0.0,0.0,0.0,0.0,0.0,-0.9514,-0.0899,-0.2249,0.5882,-0.3320,0.6834,0.2770
289,0.0,0.0,0.0,0.0,0.0,0.0,-0.9486,-0.0972,-0.2242,0.5887,-0.3330,0.6831,0.2757
290,0.0,0.0,0.0,0.0,0.0,0.0,-0.9464,-0.1087,-0.2264,0.5892,-0.3341,0.6826,0.2744
291,0.0,0.0,0.0,0.0,0.0,0.0,-0.9494,-0.1107,-0.2283,0.5896,-0.3351,0.6824,0.2727
292,0.0,0.0,0.0,0.0,0.0,0.0,-0.9471,-0.1140,-0.2323,0.5901,-0.3358,0.6825,0.2706
293,0.0,0.0,0.0,0.0,0.0,0.0,-0.9444,-0.1138,-0.2386,0.5904,-0.3363,0.6829,0.2683
294,0.0,0.0,0.0,0.0,0.0,0.0,-0.9411,-0.1166,-0.2417,0.5906,-0.3366,0.6838,0.2653
295,0.0,0.0,0.0,0.0,0.0,0.0,-0.9445,-0.1147,-0.2430,0.5907,-0.3369,0.6848,0.2621
296,0.0,0.0,0.0,0.0,0.0,0.0,-0.9402,-0.1195,-0.2428,0.5907,-0.3375,0.6858,0.2587
297,0.0,0.0,0.0,0.0,0.0,0.0,-0.9362,-0.1330,-0.2455,0.5910,-0.3382,0.6865,0.2550
298,0.0,0.0,0.0,0.0,0.0,0.0,-0.9342,-0.1494,-0.2498,0.5913,-0.3391,0.6872,0.2513
299,0.0,0.0,0.0,0.0,0.0,0.0,-0.9413,-0.1689,-0.2509,0.5918,-0.3402,0.6875,0.2477
300,0.0,0.0,0.0,0.0,0.0,0.0,-0.9506,-0.1858,-0.2596,0.5920,-0.3413,0.6879,0.2446
301,0.0,0.0,0.0,0.0,0.0,0.0,-0.9422,-0.1962,-0.2668,0.5920,-0.3423,0.6884,0.2419
302,0.0,0.0,0.0,0.0,0.0,0.0,-0.9319,-0.1983,-0.2788,0.5917,-0.3432,0.6891,0.2393
303,0.0,0.0,0.0,0.0,0.0,0.0,-0.9290,-0.1913,-0.2851,0.5912,-0.3439,0.6899,0.2370
304,0.0,0.0,0.0,0.0,0.0,0.0,-0.9361,-0.1734,-0.2904,0.5903,-0.3442,0.6911,0.2354
305,0.0,0.0,0.0,0.0,0.0,0.0,-0.9413,-0.1652,-0.2896,0.5889,-0.3438,0.6930,0.2339
306,0.0,0.0,0.0,0.0,0.0,0.0,-0.9382,-0.1598,-0.2886,0.5873,-0.3433,0.6949,0.2329
307,0.0,0.0,0.0,0.0,0.0,0.0,-0.9386,-0.1565,-0.2871,0.5860,-0.3429,0.6963,0.2329
308,0.0,0.0,0.0,0.0,0.0,0.0,-0.9405,-0.1511,-0.2884,0.5846,-0.3424,0.6975,0.2334
309,0.0,0.0,0.0,0.0,0.0,0.0,-0.9362,-0.1530,-0.2876,0.5831,-0.3424,0.6984,0.2346
310,0.0,0.0,0.0,0.0,0.0,0.0,-0.9357,-0.1530,-0.2895,0.5819,-0.3427,0.6987,0.2362
311,0.0,0.0,0.0,0.0,0.0,0.0,-0.9305,-0.1523,-0.2945,0.5808,-0.3428,0.6990,0.2379
312,0.0,0.0,0.0,0.0,0.0,0.0,-0.9233,-0.1497,-0.2986,0.5796,-0.3429,0.6994,0.2394
313,0.0,0.0,0.0,0.0,0.0,0.0,-0.9242,-0.1459,-0.2975,0.5782,-0.3430,0.7000,0.2407
314,0.0,0.0,0.0,0.0,0.0,0.0,-0.9254,-0.1411,-0.2916,0.5769,-0.3429,0.7009,0.2416
315,0.0,0.0,0.0,0.0,0.0,0.0,-0.9254,-0.1422,-0.2896,0.5759,-0.3427,0.7015,0.2424
316,0.0,0.0,0.0,0.0,0.0,0.0,-0.9297,-0.1432,-0.2886,0.5756,-0.3426,0.7015,0.2434
317,0.0,0.0,0.0,0.0,0.0,0.0,-0.9302,-0.1418,-0.2885,0.5751,-0.3421,0.7020,0.2439
318,0.0,0.0,0.0,0.0,0.0,0.0,-0.9311,-0.1379,-0.2894,0.5744,-0.3416,0.7027,0.2443
319,0.0,0.0,0.0,0.0,0.0,0.0,-0.9253,-0.1358,-0.2895,0.5736,-0.3412,0.7032,0.2448
320,0.0,0.0,0.0,0.0,0.0,0.0,-0.9267,-0.1329,-0.2918,0.5729,-0.3409,0.7037,0.2456
321,0.0,0.0,0.0,0.0,0.0,0.0,-0.9348,-0.1272,-0.2915,0.5718,-0.3408,0.7043,0.2467
322,0.0,0.0,0.0,0.0,0.0,0.0,-0.9294,-0.1218,-0.2930,0.5704,-0.3402,0.7055,0.2472
323,0.0,0.0,0.0,0.0,0.0,0.0,-0.9318,-0.1198,-0.2934,0.5688,-0.3396,0.7071,0.2473
324,0.0,0.0,0.0,0.0,0.0,0.0,-0.9308,-0.1170,-0.2914,0.5672,-0.3390,0.7086,0.2476
325,0.0,0.0,0.0,0.0,0.0,0.0,-0.9308,-0.1144,-0.2957,0.5658,-0.3384,0.7098,0.2481
326,0.0,0.0,0.0,0.0,0.0,0.0,-0.9270,-0.1124,-0.3007,0.5643,-0.3381,0.7109,0.2488
327,0.0,0.0,0.0,0.0,0.0,0.0,-0.9284,-0.1055,-0.3034,0.5624,-0.3375,0.7125,0.2491
328,0.0,0.0,0.0,0.0,0.0,0.0,-0.9265,-0.0986,-0.3072,0.5603,-0.3371,0.7142,0.2495
329,0.0,0.0,0.0,0.0,0.0,0.0,-0.9251,-0.0936,-0.3159,0.5580,-0.3375,0.7156,0.2504
330,0.0,0.0,0.0,0.0,0.0,0.0,-0.9266,-0.0921,-0.3163,0.5559,-0.3383,0.7165,0.2514
331,0.0,0.0,0.0,0.0,0.0,0.0,-0.9245,-0.0853,-0.3148,0.5544,-0.3385,0.7173,0.2519
332,0.0,0.0,0.0,0.0,0.0,0.0,-0.9211,-0.0828,-0.3163,0.5542,-0.3383,0.7175,0.2522
333,0.0,0.0,0.0,0.0,0.0,0.0,-0.9275,-0.0883,-0.3162,0.5552,-0.3379,0.7169,0.2523
334,0.0,0.0,0.0,0.0,0.0,0.0,-0.9270,-0.0897,-0.3153,0.5561,-0.3373,0.7166,0.2519
335,0.0,0.0,0.0,0.0,0.0,0.0,-0.9326,-0.0840,-0.3130,0.5573,-0.3369,0.7160,0.2515
336,0.0,0.0,0.0,0.0,0.0,0.0,-0.9322,-0.0850,-0.3131,0.5582,-0.3368,0.7155,0.2512
337,0.0,0.0,0.0,0.0,0.0,0.0,-0.9350,-0.0910,-0.3054,0.5594,-0.3369,0.7147,0.2505
338,0.0,0.0,0.0,0.0,0.0,0.0,-0.9354,-0.0950,-0.3011,0.5612,-0.3369,0.7135,0.2498
339,0.0,0.0,0.0,0.0,0.0,0.0,-0.9372,-0.0946,-0.2952,0.5636,-0.3364,0.7122,0.2490
340,0.0,0.0,0.0,0.0,0.0,0.0,-0.9425,-0.0952,-0.2941,0.5665,-0.3352,0.7109,0.2477
341,0.0,0.0,0.0,0.0,0.0,0.0,-0.9441,-0.1040,-0.2922,0.5695,-0.3341,0.7094,0.2466
342,0.0,0.0,0.0,0.0,0.0,0.0,-0.9432,-0.1133,-0.2881,0.5724,-0.3334,0.7075,0.2464
343,0.0,0.0,0.0,0.0,0.0,0.0,-0.9466,-0.1232,-0.2833,0.5751,-0.3328,0.7057,0.2460
344,0.0,0.0,0.0,0.0,0.0,0.0,-0.9519,-0.1312,-0.2755,0.5776,-0.3329,0.7035,0.2462
345,0.0,0.0,0.0,0.0,0.0,0.0,-0.9485,-0.1400,-0.2671,0.5799,-0.3335,0.7012,0.2467
346,0.0,0.0,0.0,0.0,0.0,0.0,-0.9466,-0.1478,-0.2658,0.5821,-0.3338,0.6992,0.2465
347,0.0,0.0,0.0,0.0,0.0,0.0,-0.9435,-0.1530,-0.2704,0.5839,-0.3343,0.6976,0.2462
348,0.0,0.0,0.0,0.0,0.0,0.0,-0.9349,-0.1518,-0.2755,0.5848,-0.3357,0.6963,0.2458
349,0.0,0.0,0.0,0.0,0.0,0.0,-0.9454,-0.1569,-0.2685,0.5850,-0.3381,0.6951,0.2456
350,0.0,0.0,0.0,0.0,0.0,0.0,-0.9454,-0.1599,-0.2666,0.5842,-0.3409,0.6946,0.2452
351,0.0,0.0,0.0,0.0,0.0,0.0,-0.9210,-0.1677,-0.2714,0.5831,-0.3439,0.6942,0.2448
352,0.0,0.0,0.0,0.0,0.0,0.0,-0.9129,-0.1621,-0.2807,0.5813,-0.3468,0.6943,0.2444
353,0.0,0.0,0.0,0.0,0.0,0.0,-0.9082,-0.1678,-0.2785,0.5801,-0.3495,0.6941,0.2439
354,0.0,0.0,0.0,0.0,0.0,0.0,-0.9030,-0.1760,-0.2798,0.5804,-0.3519,0.6927,0.2439
355,0.0,0.0,0.0,0.0,0.0,0.0,-0.9182,-0.2131,-0.2820,0.5813,-0.3543,0.6908,0.2438
356,0.0,0.0,0.0,0.0,0.0,0.0,-0.9208,-0.2086,-0.2891,0.5816,-0.3566,0.6896,0.2431
357,0.0,0.0,0.0,0.0,0.0,0.0,-0.9046,-0.1814,-0.3007,0.5815,-0.3586,0.6888,0.2424
358,0.0,0.0,0.0,0.0,0.0,0.0,-0.9233,-0.2031,-0.3000,0.5796,-0.3624,0.6888,0.2415
359,0.0,0.0,0.0,0.0,0.0,0.0,-0.9247,-0.2164,-0.2881,0.5789,-0.3659,0.6878,0.2407
360,0.0,0.0,0.0,0.0,0.0,0.0,-0.9145,-0.1863,-0.3087,0.5781,-0.3683,0.6876,0.2395
361,0.0,0.0,0.0,0.0,0.0,0.0,-0.9122,-0.1906,-0.3069,0.5764,-0.3713,0.6878,0.2385
362,0.0,0.0,0.0,0.0,0.0,0.0,-0.9122,-0.1857,-0.3112,0.5744,-0.3739,0.6884,0.2375
363,0.0,0.0,0.0,0.0,0.0,0.0,-0.9088,-0.1758,-0.3203,0.5716,-0.3761,0.6900,0.2362
364,0.0,0.0,0.0,0.0,0.0,0.0,-0.9065,-0.1732,-0.3247,0.5679,-0.3785,0.6920,0.2354
365,0.0,0.0,0.0,0.0,0.0,0.0,-0.9039,-0.1659,-0.3246,0.5641,-0.3803,0.6944,0.2343
366,0.0,0.0,0.0,0.0,0.0,0.0,-0.9052,-0.1562,-0.3244,0.5610,-0.3808,0.6971,0.2328
367,0.0,0.0,0.0,0.0,0.0,0.0,-0.9090,-0.1406,-0.3323,0.5585,-0.3803,0.6999,0.2317
368,0.0,0.0,0.0,0.0,0.0,0.0,-0.9088,-0.1384,-0.3472,0.5562,-0.3792,0.7025,0.2312
369,0.0,0.0,0.0,0.0,0.0,0.0,-0.9102,-0.1479,-0.3575,0.5540,-0.3777,0.7050,0.2310
370,0.0,0.0,0.0,0.0,0.0,0.0,-0.9122,-0.1450,-0.3594,0.5519,-0.3762,0.7076,0.2307
371,0.0,0.0,0.0,0.0,0.0,0.0,-0.9095,-0.1358,-0.3564,0.5502,-0.3746,0.7098,0.2306
372,0.0,0.0,0.0,0.0,0.0,0.0,-0.9064,-0.1324,-0.3511,0.5497,-0.3727,0.7110,0.2311
373,0.0,0.0,0.0,0.0,0.0,0.0,-0.9091,-0.1441,-0.3536,0.5502,-0.3707,0.7115,0.2317
374,0.0,0.0,0.0,0.0,0.0,0.0,-0.9186,-0.1567,-0.3589,0.5506,-0.3687,0.7119,0.2326
375,0.0,0.0,0.0,0.0,0.0,0.0,-0.9194,-0.1422,-0.3596,0.5504,-0.3662,0.7131,0.2334
376,0.0,0.0,0.0,0.0,0.0,0.0,-0.9170,-0.1223,-0.3554,0.5502,-0.3624,0.7151,0.2335
377,0.0,0.0,0.0,0.0,0.0,0.0,-0.9246,-0.1146,-0.3574,0.5505,-0.3580,0.7170,0.2336
378,0.0,0.0,0.0,0.0,0.0,0.0,-0.9222,-0.1121,-0.3589,0.5507,-0.3539,0.7188,0.2341
379,0.0,0.0,0.0,0.0,0.0,0.0,-0.9184,-0.1115,-0.3624,0.5503,-0.3503,0.7205,0.2351
380,0.0,0.0,0.0,0.0,0.0,0.0,-0.9213,-0.1175,-0.3581,0.5493,-0.3473,0.7223,0.2364
381,0.0,0.0,0.0,0.0,0.0,0.0,-0.9193,-0.1219,-0.3510,0.5483,-0.3448,0.7238,0.2378
382,0.0,0.0,0.0,0.0,0.0,0.0,-0.9248,-0.1168,-0.3429,0.5478,-0.3431,0.7242,0.2401
383,0.0,0.0,0.0,0.0,0.0,0.0,-0.9255,-0.1077,-0.3408,0.5481,-0.3413,0.7239,0.2430
384,0.0,0.0,0.0,0.0,0.0,0.0,-0.9200,-0.1018,-0.3385,0.5487,-0.3397,0.7231,0.2462
385,0.0,0.0,0.0,0.0,0.0,0.0,-0.9304,-0.1215,-0.3322,0.5488,-0.3392,0.7220,0.2501
386,0.0,0.0,0.0,0.0,0.0,0.0,-0.9466,-0.1180,-0.3249,0.5481,-0.3401,0.7205,0.2545
387,0.0,0.0,0.0,0.0,0.0,0.0,-0.9364,-0.1000,-0.3181,0.5476,-0.3411,0.7187,0.2592
388,0.0,0.0,0.0,0.0,0.0,0.0,-0.9259,-0.0765,-0.3189,0.5474,-0.3419,0.7168,0.2639
389,0.0,0.0,0.0,0.0,0.0,0.0,-0.9325,-0.0693,-0.3196,0.5473,-0.3428,0.7150,0.2679
390,0.0,0.0,0.0,0.0,0.0,0.0,-0.9401,-0.0612,-0.3172,0.5471,-0.3443,0.7132,0.2711
391,0.0,0.0,0.0,0.0,0.0,0.0,-0.9199,-0.0494,-0.3138,0.5465,-0.3468,0.7116,0.2733
392,0.0,0.0,0.0,0.0,0.0,0.0,-0.9169,-0.0529,-0.3057,0.5461,-0.3503,0.7097,0.2747
393,0.0,0.0,0.0,0.0,0.0,0.0,-0.9261,-0.0771,-0.2899,0.5474,-0.3562,0.7059,0.2741
394,0.0,0.0,0.0,0.0,0.0,0.0,-0.9144,-0.0815,-0.2831,0.5501,-0.3599,0.7018,0.2744
395,0.0,0.0,0.0,0.0,0.0,0.0,-0.9066,-0.0958,-0.2860,0.5540,-0.3632,0.6972,0.2740
396,0.0,0.0,0.0,0.0,0.0,0.0,-0.9184,-0.1096,-0.2839,0.5574,-0.3664,0.6932,0.2730
397,0.0,0.0,0.0,0.0,0.0,0.0,-0.9256,-0.1092,-0.2847,0.5598,-0.3690,0.6905,0.2714
398,0.0,0.0,0.0,0.0,0.0,0.0,-0.9313,-0.1054,-0.2844,0.5615,-0.3712,0.6886,0.2697
399,0.0,0.0,0.0,0.0,0.0,0.0,-0.9410,-0.1091,-0.2798,0.5629,-0.3728,0.6872,0.2682
400,0.0,0.0,0.0,0.0,0.0,0.0,-0.9432,-0.1138,-0.2876,0.5642,-0.3736,0.6862,0.2668
401,0.0,0.0,0.0,0.0,0.0,0.0,-0.9507,-0.1172,-0.2937,0.5649,-0.3746,0.6855,0.2659
402,0.0,0.0,0.0,0.0,0.0,0.0,-0.9367,-0.1258,-0.2895,0.5659,-0.3757,0.6843,0.2653
403,0.0,0.0,0.0,0.0,0.0,0.0,-0.9410,-0.1230,-0.2888,0.5671,-0.3769,0.6826,0.2652
404,0.0,0.0,0.0,0.0,0.0,0.0,-0.9481,-0.1202,-0.2856,0.5684,-0.3779,0.6809,0.2653
405,0.0,0.0,0.0,0.0,0.0,0.0,-0.9426,-0.1085,-0.2870,0.5693,-0.3782,0.6799,0.2656
406,0.0,0.0,0.0,0.0,0.0,0.0,-0.9326,-0.1116,-0.2922,0.5700,-0.3782,0.6790,0.2663
407,0.0,0.0,0.0,0.0,0.0,0.0,-0.9207,-0.1216,-0.2933,0.5707,-0.3779,0.6783,0.2673
408,0.0,0.0,0.0,0.0,0.0,0.0,-0.9207,-0.1177,-0.2937,0.5714,-0.3766,0.6781,0.2681
409,0.0,0.0,0.0,0.0,0.0,0.0,-0.9167,-0.1212,-0.2866,0.5717,-0.3755,0.6780,0.2692
410,0.0,0.0,0.0,0.0,0.0,0.0,-0.9325,-0.1468,-0.2808,0.5713,-0.3750,0.6781,0.2705
411,0.0,0.0,0.0,0.0,0.0,0.0,-0.9288,-0.1490,-0.2872,0.5699,-0.3748,0.6790,0.2716
412,0.0,0.0,0.0,0.0,0.0,0.0,-0.9181,-0.1307,-0.2989,0.5675,-0.3749,0.6806,0.2725
413,0.0,0.0,0.0,0.0,0.0,0.0,-0.9143,-0.1198,-0.3070,0.5643,-0.3749,0.6830,0.2729
414,0.0,0.0,0.0,0.0,0.0,0.0,-0.9154,-0.1232,-0.3104,0.5609,-0.3754,0.6854,0.2735
415,0.0,0.0,0.0,0.0,0.0,0.0,-0.9138,-0.1267,-0.3018,0.5590,-0.3755,0.6866,0.2742
416,0.0,0.0,0.0,0.0,0.0,0.0,-0.9173,-0.1272,-0.3051,0.5579,-0.3754,0.6874,0.2745
417,0.0,0.0,0.0,0.0,0.0,0.0,-0.9242,-0.1306,-0.3098,0.5563,-0.3752,0.6888,0.2745
418,0.0,0.0,0.0,0.0,0.0,0.0,-0.9306,-0.1257,-0.3163,0.5540,-0.3745,0.6912,0.2741
419,0.0,0.0,0.0,0.0,0.0,0.0,-0.9280,-0.1130,-0.3200,0.5513,-0.3731,0.6944,0.2733
420,0.0,0.0,0.0,0.0,0.0,0.0,-0.9229,-0.0993,-0.3204,0.5490,-0.3711,0.6977,0.2724
421,0.0,0.0,0.0,0.0,0.0,0.0,-0.9269,-0.0978,-0.3246,0.5471,-0.3691,0.7005,0.2716
422,0.0,0.0,0.0,0.0,0.0,0.0,-0.9304,-0.1046,-0.3266,0.5454,-0.3670,0.7032,0.2709
423,0.0,0.0,0.0,0.0,0.0,0.0,-0.9309,-0.1042,-0.3256,0.5440,-0.3651,0.7056,0.2700
424,0.0,0.0,0.0,0.0,0.0,0.0,-0.9322,-0.0925,-0.3282,0.5426,-0.3632,0.7080,0.2692
425,0.0,0.0,0.0,0.0,0.0,0.0,-0.9196,-0.0849,-0.3328,0.5413,-0.3614,0.7102,0.2684
426,0.0,0.0,0.0,0.0,0.0,0.0,-0.9256,-0.0971,-0.3329,0.5402,-0.3602,0.7119,0.2677
427,0.0,0.0,0.0,0.0,0.0,0.0,-0.9234,-0.0960,-0.3402,0.5387,-0.3592,0.7139,0.2667
428,0.0,0.0,0.0,0.0,0.0,0.0,-0.9218,-0.0892,-0.3411,0.5371,-0.3582,0.7159,0.2658
429,0.0,0.0,0.0,0.0,0.0,0.0,-0.9175,-0.0891,-0.3427,0.5358,-0.3569,0.7177,0.2654
430,0.0,0.0,0.0,0.0,0.0,0.0,-0.9180,-0.0822,-0.3464,0.5346,-0.3554,0.7195,0.2650
431,0.0,0.0,0.0,0.0,0.0,0.0,-0.9206,-0.0677,-0.3465,0.5332,-0.3535,0.7217,0.2645
432,0.0,0.0,0.0,0.0,0.0,0.0,-0.9252,-0.0571,-0.3438,0.5321,-0.3513,0.7237,0.2641
433,0.0,0.0,0.0,0.0,0.0,0.0,-0.9298,-0.0480,-0.3425,0.5314,-0.3494,0.7252,0.2638
434,0.0,0.0,0.0,0.0,0.0,0.0,-0.9379,-0.0443,-0.3388,0.5314,-0.3477,0.7260,0.2638
435,0.0,0.0,0.0,0.0,0.0,0.0,-0.9437,-0.0473,-0.3367,0.5323,-0.3462,0.7260,0.2640
436,0.0,0.0,0.0,0.0,0.0,0.0,-0.9484,-0.0495,-0.3294,0.5348,-0.3452,0.7242,0.2652
437,0.0,0.0,0.0,0.0,0.0,0.0,-0.9456,-0.0369,-0.3249,0.5389,-0.3445,0.7209,0.2668
438,0.0,0.0,0.0,0.0,0.0,0.0,-0.9452,-0.0526,-0.3145,0.5428,-0.3448,0.7172,0.2685
439,0.0,0.0,0.0,0.0,0.0,0.0,-0.9507,-0.0618,-0.2990,0.5471,-0.3461,0.7126,0.2703
440,0.0,0.0,0.0,0.0,0.0,0.0,-0.9443,-0.0583,-0.2948,0.5515,-0.3476,0.7078,0.2722
441,0.0,0.0,0.0,0.0,0.0,0.0,-0.9431,-0.0512,-0.2889,0.5552,-0.3493,0.7034,0.2739
442,0.0,0.0,0.0,0.0,0.0,0.0,-0.9298,-0.0496,-0.2839,0.5583,-0.3514,0.6993,0.2755
443,0.0,0.0,0.0,0.0,0.0,0.0,-0.9223,-0.0617,-0.2815,0.5605,-0.3542,0.6955,0.2768
444,0.0,0.0,0.0,0.0,0.0,0.0,-0.9258,-0.0779,-0.2763,0.5624,-0.3577,0.6919,0.2777
445,0.0,0.0,0.0,0.0,0.0,0.0,-0.9125,-0.0952,-0.2713,0.5645,-0.3616,0.6877,0.2786
446,0.0,0.0,0.0,0.0,0.0,0.0,-0.9224,-0.1169,-0.2651,0.5669,-0.3655,0.6834,0.2794
447,0.0,0.0,0.0,0.0,0.0,0.0,-0.9314,-0.1335,-0.2646,0.5685,-0.3687,0.6802,0.2796
448,0.0,0.0,0.0,0.0,0.0,0.0,-0.9265,-0.1251,-0.2699,0.5687,-0.3709,0.6791,0.2790
449,0.0,0.0,0.0,0.0,0.0,0.0,-0.9153,-0.1103,-0.2753,0.5675,-0.3722,0.6801,0.2772
450,0.0,0.0,0.0,0.0,0.0,0.0,-0.9086,-0.1159,-0.2771,0.5666,-0.3733,0.6810,0.2755
451,0.0,0.0,0.0,0.0,0.0,0.0,-0.9170,-0.1179,-0.2812,0.5663,-0.3737,0.6815,0.2743
452,0.0,0.0,0.0,0.0,0.0,0.0,-0.9267,-0.1413,-0.2838,0.5658,-0.3743,0.6820,0.2732
453,0.0,0.0,0.0,0.0,0.0,0.0,-0.9417,-0.1642,-0.2890,0.5649,-0.3752,0.6826,0.2724
454,0.0,0.0,0.0,0.0,0.0,0.0,-0.9368,-0.1494,-0.2972,0.5639,-0.3754,0.6836,0.2717
455,0.0,0.0,0.0,0.0,0.0,0.0,-0.9332,-0.1502,-0.3065,0.5622,-0.3759,0.6848,0.2713
456,0.0,0.0,0.0,0.0,0.0,0.0,-0.9352,-0.1482,-0.3107,0.5602,-0.3768,0.6860,0.2714
457,0.0,0.0,0.0,0.0,0.0,0.0,-0.9282,-0.1290,-0.3164,0.5581,-0.3769,0.6876,0.2715
458,0.0,0.0,0.0,0.0,0.0,0.0,-0.9189,-0.1162,-0.3199,0.5562,-0.3764,0.6895,0.2714
459,0.0,0.0,0.0,0.0,0.0,0.0,-0.9255,-0.1110,-0.3186,0.5547,-0.3755,0.6913,0.2710
460,0.0,0.0,0.0,0.0,0.0,0.0,-0.9281,-0.1090,-0.3258,0.5538,-0.3743,0.6927,0.2710
461,0.0,0.0,0.0,0.0,0.0,0.0,-0.9339,-0.1166,-0.3388,0.5529,-0.3727,0.6942,0.2712
462,0.0,0.0,0.0,0.0,0.0,0.0,-0.9360,-0.1233,-0.3427,0.5517,-0.3712,0.6959,0.2712
463,0.0,0.0,0.0,0.0,0.0,0.0,-0.9475,-0.1206,-0.3389,0.5510,-0.3706,0.6966,0.2718
464,0.0,0.0,0.0,0.0,0.0,0.0,-0.9574,-0.1180,-0.3327,0.5507,-0.3699,0.6968,0.2726
465,0.0,0.0,0.0,0.0,0.0,0.0,-0.9473,-0.1039,-0.3246,0.5515,-0.3689,0.6962,0.2740
466,0.0,0.0,0.0,0.0,0.0,0.0,-0.9451,-0.0967,-0.3187,0.5534,-0.3673,0.6949,0.2758
467,0.0,0.0,0.0,0.0,0.0,0.0,-0.9450,-0.1007,-0.3130,0.5557,-0.3655,0.6932,0.2777
468,0.0,0.0,0.0,0.0,0.0,0.0,-0.9516,-0.1029,-0.3041,0.5582,-0.3638,0.6912,0.2797
469,0.0,0.0,0.0,0.0,0.0,0.0,-0.9490,-0.1041,-0.2940,0.5610,-0.3620,0.6890,0.2821
470,0.0,0.0,0.0,0.0,0.0,0.0,-0.9453,-0.1003,-0.2853,0.5639,-0.3601,0.6865,0.2848
471,0.0,0.0,0.0,0.0,0.0,0.0,-0.9362,-0.0911,-0.2748,0.5663,-0.3578,0.6847,0.2871
472,0.0,0.0,0.0,0.0,0.0,0.0,-0.9338,-0.0806,-0.2650,0.5688,-0.3558,0.6826,0.2897
473,0.0,0.0,0.0,0.0,0.0,0.0,-0.9217,-0.0735,-0.2498,0.5714,-0.3543,0.6802,0.2920
474,0.0,0.0,0.0,0.0,0.0,0.0,-0.9217,-0.0610,-0.2408,0.5743,-0.3527,0.6780,0.2935
475,0.0,0.0,0.0,0.0,0.0,0.0,-0.9254,-0.0627,-0.2320,0.5765,-0.3521,0.6758,0.2950
476,0.0,0.0,0.0,0.0,0.0,0.0,-0.9209,-0.0741,-0.2164,0.5779,-0.3523,0.6741,0.2959
477,0.0,0.0,0.0,0.0,0.0,0.0,-0.9262,-0.0806,-0.2125,0.5791,-0.3526,0.6727,0.2963
478,0.0,0.0,0.0,0.0,0.0,0.0,-0.9364,-0.0802,-0.2150,0.5794,-0.3538,0.6716,0.2967
479,0.0,0.0,0.0,0.0,0.0,0.0,-0.9396,-0.0799,-0.2077,0.5790,-0.3554,0.6713,0.2964
480,0.0,0.0,0.0,0.0,0.0,0.0,-0.9405,-0.0800,-0.2052,0.5789,-0.3565,0.6713,0.2952
481,0.0,0.0,0.0,0.0,0.0,0.0,-0.9421,-0.0656,-0.2190,0.5789,-0.3574,0.6715,0.2936
482,0.0,0.0,0.0,0.0,0.0,0.0,-0.9448,-0.0743,-0.2244,0.5776,-0.3593,0.6726,0.2914
483,0.0,0.0,0.0,0.0,0.0,0.0,-0.9610,-0.0989,-0.2185,0.5763,-0.3624,0.6728,0.2897
484,0.0,0.0,0.0,0.0,0.0,0.0,-0.9625,-0.0935,-0.2241,0.5752,-0.3659,0.6724,0.2883
485,0.0,0.0,0.0,0.0,0.0,0.0,-0.9614,-0.0902,-0.2193,0.5744,-0.3693,0.6719,0.2868
486,0.0,0.0,0.0,0.0,0.0,0.0,-0.9636,-0.0874,-0.2148,0.5744,-0.3721,0.6710,0.2852
487,0.0,0.0,0.0,0.0,0.0,0.0,-0.9656,-0.0859,-0.2162,0.5750,-0.3745,0.6699,0.2836
488,0.0,0.0,0.0,0.0,0.0,0.0,-0.9683,-0.0911,-0.2239,0.5760,-0.3761,0.6687,0.2822
489,0.0,0.0,0.0,0.0,0.0,0.0,-0.9700,-0.0979,-0.2284,0.5770,-0.3771,0.6680,0.2806
490,0.0,0.0,0.0,0.0,0.0,0.0,-0.9675,-0.1018,-0.2251,0.5777,-0.3776,0.6678,0.2787
491,0.0,0.0,0.0,0.0,0.0,0.0,-0.9748,-0.1024,-0.2239,0.5785,-0.3782,0.6676,0.2769
492,0.0,0.0,0.0,0.0,0.0,0.0,-0.9749,-0.1072,-0.2264,0.5789,-0.3783,0.6678,0.2753
493,0.0,0.0,0.0,0.0,0.0,0.0,-0.9603,-0.1215,-0.2296,0.5793,-0.3782,0.6682,0.2737
494,0.0,0.0,0.0,0.0,0.0,0.0,-0.9547,-0.1355,-0.2305,0.5801,-0.3782,0.6680,0.2724
495,0.0,0.0,0.0,0.0,0.0,0.0,-0.9451,-0.1240,-0.2398,0.5811,-0.3778,0.6679,0.2712
496,0.0,0.0,0.0,0.0,0.0,0.0,-0.9256,-0.1284,-0.2487,0.5819,-0.3789,0.6666,0.2709
497,0.0,0.0,0.0,0.0,0.0,0.0,-0.9254,-0.1513,-0.2462,0.5822,-0.3811,0.6652,0.2707
498,0.0,0.0,0.0,0.0,0.0,0.0,-0.9200,-0.1563,-0.2586,0.5811,-0.3836,0.6649,0.2702
499,0.0,0.0,0.0,0.0,0.0,0.0,-0.9147,-0.1873,-0.2574,0.5792,-0.3873,0.6646,0.2697
500,0.0,0.0,0.0,0.0,0.0,0.0,-0.9221,-0.1952,-0.2539,0.5781,-0.3903,0.6642,0.2691
501,0.0,0.0,0.0,0.0,0.0,0.0,-0.9031,-0.1798,-0.2600,0.5775,-0.3923,0.6638,0.2682
502,0.0,0.0,0.0,0.0,0.0,0.0,-0.9074,-0.1953,-0.2655,0.5770,-0.3945,0.6634,0.2670
503,0.0,0.0,0.0,0.0,0.0,0.0,-0.9086,-0.1955,-0.2776,0.5760,-0.3965,0.6636,0.2658
504,0.0,0.0,0.0,0.0,0.0,0.0,-0.9090,-0.1887,-0.2799,0.5745,-0.3978,0.6647,0.2645
505,0.0,0.0,0.0,0.0,0.0,0.0,-0.9131,-0.1965,-0.2823,0.5728,-0.3994,0.6659,0.2629
506,0.0,0.0,0.0,0.0,0.0,0.0,-0.9172,-0.1944,-0.2928,0.5706,-0.4012,0.6672,0.2614
507,0.0,0.0,0.0,0.0,0.0,0.0,-0.9230,-0.1841,-0.3011,0.5680,-0.4028,0.6689,0.2600
508,0.0,0.0,0.0,0.0,0.0,0.0,-0.9195,-0.1723,-0.3059,0.5655,-0.4039,0.6710,0.2586
509,0.0,0.0,0.0,0.0,0.0,0.0,-0.9229,-0.1621,-0.3119,0.5635,-0.4047,0.6727,0.2571
510,0.0,0.0,0.0,0.0,0.0,0.0,-0.9323,-0.1645,-0.3189,0.5621,-0.4053,0.6741,0.2557
511,0.0,0.0,0.0,0.0,0.0,0.0,-0.9259,-0.1671,-0.3303,0.5606,-0.4061,0.6752,0.2546
512,0.0,0.0,0.0,0.0,0.0,0.0,-0.9274,-0.1660,-0.3365,0.5589,-0.4075,0.6760,0.2541
513,0.0,0.0,0.0,0.0,0.0,0.0,-0.9207,-0.1635,-0.3381,0.5572,-0.4086,0.6770,0.2533
514,0.0,0.0,0.0,0.0,0.0,0.0,-0.9265,-0.1606,-0.3398,0.5556,-0.4095,0.6782,0.2525
515,0.0,0.0,0.0,0.0,0.0,0.0,-0.9201,-0.1566,-0.3390,0.5541,-0.4100,0.6793,0.2518
516,0.0,0.0,0.0,0.0,0.0,0.0,-0.9196,-0.1537,-0.3414,0.5531,-0.4100,0.6802,0.2516
517,0.0,0.0,0.0,0.0,0.0,0.0,-0.9217,-0.1541,-0.3461,0.5522,-0.4095,0.6813,0.2515
518,0.0,0.0,0.0,0.0,0.0,0.0,-0.9240,-0.1478,-0.3460,0.5512,-0.4085,0.6827,0.2514
519,0.0,0.0,0.0,0.0,0.0,0.0,-0.9243,-0.1435,-0.3444,0.5502,-0.4070,0.6844,0.2515
520,0.0,0.0,0.0,0.0,0.0,0.0,-0.9307,-0.1470,-0.3457,0.5497,-0.4050,0.6859,0.2519
521,0.0,0.0,0.0,0.0,0.0,0.0,-0.9270,-0.1473,-0.3502,0.5490,-0.4028,0.6873,0.2529
522,0.0,0.0,0.0,0.0,0.0,0.0,-0.9226,-0.1453,-0.3518,0.5482,-0.4007,0.6887,0.2540
523,0.0,0.0,0.0,0.0,0.0,0.0,-0.9234,-0.1415,-0.3473,0.5475,-0.3987,0.6900,0.2553
524,0.0,0.0,0.0,0.0,0.0,0.0,-0.9189,-0.1366,-0.3449,0.5471,-0.3968,0.6909,0.2569
525,0.0,0.0,0.0,0.0,0.0,0.0,-0.9203,-0.1347,-0.3434,0.5468,-0.3952,0.6915,0.2583
526,0.0,0.0,0.0,0.0,0.0,0.0,-0.9211,-0.1343,-0.3390,0.5467,-0.3935,0.6921,0.2593
527,0.0,0.0,0.0,0.0,0.0,0.0,-0.9187,-0.1367,-0.3387,0.5469,-0.3923,0.6922,0.2605
528,0.0,0.0,0.0,0.0,0.0,0.0,-0.9177,-0.1392,-0.3353,0.5473,-0.3911,0.6920,0.2618
529,0.0,0.0,0.0,0.0,0.0,0.0,-0.9128,-0.1402,-0.3307,0.5481,-0.3897,0.6919,0.2627
530,0.0,0.0,0.0,0.0,0.0,0.0,-0.9167,-0.1417,-0.3296,0.5489,-0.3882,0.6919,0.2632
531,0.0,0.0,0.0,0.0,0.0,0.0,-0.9148,-0.1441,-0.3297,0.5496,-0.3868,0.6922,0.2632
532,0.0,0.0,0.0,0.0,0.0,0.0,-0.9196,-0.1546,-0.3196,0.5505,-0.3859,0.6918,0.2635
533,0.0,0.0,0.0,0.0,0.0,0.0,-0.9223,-0.1547,-0.3147,0.5516,-0.3850,0.6913,0.2638
534,0.0,0.0,0.0,0.0,0.0,0.0,-0.9113,-0.1491,-0.3207,0.5523,-0.3840,0.6912,0.2640
535,0.0,0.0,0.0,0.0,0.0,0.0,-0.9099,-0.1510,-0.3218,0.5530,-0.3830,0.6912,0.2639
536,0.0,0.0,0.0,0.0,0.0,0.0,-0.9181,-0.1501,-0.3225,0.5536,-0.3818,0.6916,0.2634
537,0.0,0.0,0.0,0.0,0.0,0.0,-0.9141,-0.1457,-0.3220,0.5540,-0.3805,0.6924,0.2623
538,0.0,0.0,0.0,0.0,0.0,0.0,-0.9157,-0.1506,-0.3221,0.5543,-0.3800,0.6929,0.2611
539,0.0,0.0,0.0,0.0,0.0,0.0,-0.9211,-0.1595,-0.3182,0.5547,-0.3805,0.6927,0.2601
540,0.0,0.0,0.0,0.0,0.0,0.0,-0.9201,-0.1570,-0.3196,0.5552,-0.3809,0.6924,0.2593
541,0.0,0.0,0.0,0.0,0.0,0.0,-0.9199,-0.1493,-0.3195,0.5558,-0.3813,0.6918,0.2589
542,0.0,0.0,0.0,0.0,0.0,0.0,-0.9218,-0.1430,-0.3188,0.5567,-0.3811,0.6917,0.2578
543,0.0,0.0,0.0,0.0,0.0,0.0,-0.9242,-0.1469,-0.3183,0.5579,-0.3804,0.6917,0.2561
544,0.0,0.0,0.0,0.0,0.0,0.0,-0.9259,-0.1527,-0.3232,0.5589,-0.3800,0.6915,0.2551
545,0.0,0.0,0.0,0.0,0.0,0.0,-0.9323,-0.1635,-0.3208,0.5596,-0.3793,0.6915,0.2545
546,0.0,0.0,0.0,0.0,0.0,0.0,-0.9280,-0.1600,-0.3228,0.5597,-0.3782,0.6923,0.2537
547,0.0,0.0,0.0,0.0,0.0,0.0,-0.9119,-0.1593,-0.3199,0.5597,-0.3775,0.6929,0.2532
548,0.0,0.0,0.0,0.0,0.0,0.0,-0.9062,-0.1641,-0.3197,0.5595,-0.3767,0.6936,0.2529
549,0.0,0.0,0.0,0.0,0.0,0.0,-0.9084,-0.1743,-0.3213,0.5593,-0.3759,0.6943,0.2525
550,0.0,0.0,0.0,0.0,0.0,0.0,-0.9132,-0.1883,-0.3291,0.5586,-0.3751,0.6955,0.2519
551,0.0,0.0,0.0,0.0,0.0,0.0,-0.9093,-0.1892,-0.3302,0.5569,-0.3742,0.6977,0.2510
552,0.0,0.0,0.0,0.0,0.0,0.0,-0.9189,-0.1855,-0.3294,0.5552,-0.3728,0.7002,0.2501
553,0.0,0.0,0.0,0.0,0.0,0.0,-0.9117,-0.1804,-0.3343,0.5535,-0.3706,0.7029,0.2495
554,0.0,0.0,0.0,0.0,0.0,0.0,-0.9137,-0.1730,-0.3409,0.5518,-0.3675,0.7061,0.2488
555,0.0,0.0,0.0,0.0,0.0,0.0,-0.9102,-0.1636,-0.3462,0.5498,-0.3640,0.7097,0.2482
556,0.0,0.0,0.0,0.0,0.0,0.0,-0.9121,-0.1578,-0.3475,0.5479,-0.3605,0.7130,0.2479
557,0.0,0.0,0.0,0.0,0.0,0.0,-0.9082,-0.1509,-0.3514,0.5457,-0.3567,0.7166,0.2478
558,0.0,0.0,0.0,0.0,0.0,0.0,-0.9092,-0.1651,-0.3438,0.5440,-0.3525,0.7200,0.2478
559,0.0,0.0,0.0,0.0,0.0,0.0,-0.9143,-0.1561,-0.3396,0.5426,-0.3464,0.7241,0.2475
560,0.0,0.0,0.0,0.0,0.0,0.0,-0.9182,-0.1255,-0.3428,0.5421,-0.3387,0.7283,0.2469
561,0.0,0.0,0.0,0.0,0.0,0.0,-0.9170,-0.0995,-0.3550,0.5435,-0.3297,0.7318,0.2458
562,0.0,0.0,0.0,0.0,0.0,0.0,-0.9251,-0.1270,-0.3669,0.5436,-0.3235,0.7345,0.2457
563,0.0,0.0,0.0,0.0,0.0,0.0,-0.9190,-0.0881,-0.3668,0.5415,-0.3200,0.7377,0.2453
564,0.0,0.0,0.0,0.0,0.0,0.0,-0.9028,-0.0847,-0.3561,0.5402,-0.3170,0.7398,0.2457
565,0.0,0.0,0.0,0.0,0.0,0.0,-0.9181,-0.1296,-0.3560,0.5391,-0.3158,0.7407,0.2472
566,0.0,0.0,0.0,0.0,0.0,0.0,-0.9081,-0.0823,-0.3598,0.5371,-0.3162,0.7415,0.2486
567,0.0,0.0,0.0,0.0,0.0,0.0,-0.9127,-0.0845,-0.3471,0.5360,-0.3165,0.7416,0.2501
568,0.0,0.0,0.0,0.0,0.0,0.0,-0.9208,-0.1046,-0.3467,0.5362,-0.3159,0.7412,0.2517
569,0.0,0.0,0.0,0.0,0.0,0.0,-0.9180,-0.0797,-0.3497,0.5360,-0.3148,0.7413,0.2531
570,0.0,0.0,0.0,0.0,0.0,0.0,-0.9261,-0.0522,-0.3471,0.5357,-0.3134,0.7419,0.2539
571,0.0,0.0,0.0,0.0,0.0,0.0,-0.9298,-0.0431,-0.3444,0.5369,-0.3118,0.7413,0.2550
572,0.0,0.0,0.0,0.0,0.0,0.0,-0.9209,-0.0318,-0.3459,0.5398,-0.3093,0.7396,0.2568
573,0.0,0.0,0.0,0.0,0.0,0.0,-0.9241,-0.0542,-0.3409,0.5434,-0.3069,0.7373,0.2588
574,0.0,0.0,0.0,0.0,0.0,0.0,-0.9342,-0.0613,-0.3339,0.5469,-0.3054,0.7346,0.2607
575,0.0,0.0,0.0,0.0,0.0,0.0,-0.9330,-0.0649,-0.3219,0.5496,-0.3048,0.7323,0.2623
576,0.0,0.0,0.0,0.0,0.0,0.0,-0.9440,-0.0706,-0.3129,0.5528,-0.3040,0.7296,0.2640
577,0.0,0.0,0.0,0.0,0.0,0.0,-0.9248,-0.0391,-0.3222,0.5563,-0.3030,0.7264,0.2666
578,0.0,0.0,0.0,0.0,0.0,0.0,-0.9143,-0.0303,-0.3156,0.5586,-0.3029,0.7237,0.2691
579,0.0,0.0,0.0,0.0,0.0,0.0,-0.9247,-0.0089,-0.3013,0.5605,-0.3031,0.7215,0.2709
580,0.0,0.0,0.0,0.0,0.0,0.0,-0.9263,-0.0052,-0.2915,0.5627,-0.3043,0.7187,0.2725
581,0.0,0.0,0.0,0.0,0.0,0.0,-0.9291,-0.0108,-0.2828,0.5651,-0.3062,0.7154,0.2742
582,0.0,0.0,0.0,0.0,0.0,0.0,-0.9287,-0.0220,-0.2786,0.5676,-0.3083,0.7119,0.2755
583,0.0,0.0,0.0,0.0,0.0,0.0,-0.9317,-0.0417,-0.2687,0.5699,-0.3110,0.7086,0.2764
584,0.0,0.0,0.0,0.0,0.0,0.0,-0.9370,-0.0448,-0.2618,0.5718,-0.3140,0.7055,0.2768
585,0.0,0.0,0.0,0.0,0.0,0.0,-0.9325,-0.0434,-0.2586,0.5732,-0.3167,0.7032,0.2768
586,0.0,0.0,0.0,0.0,0.0,0.0,-0.9325,-0.0463,-0.2562,0.5739,-0.3196,0.7016,0.2761
587,0.0,0.0,0.0,0.0,0.0,0.0,-0.9385,-0.0536,-0.2590,0.5740,-0.3224,0.7008,0.2747
588,0.0,0.0,0.0,0.0,0.0,0.0,-0.9374,-0.0657,-0.2637,0.5736,-0.3256,0.7002,0.2732
589,0.0,0.0,0.0,0.0,0.0,0.0,-0.9360,-0.0670,-0.2661,0.5735,-0.3287,0.6994,0.2718
590,0.0,0.0,0.0,0.0,0.0,0.0,-0.9317,-0.0659,-0.2706,0.5737,-0.3318,0.6985,0.2701
591,0.0,0.0,0.0,0.0,0.0,0.0,-0.9353,-0.0796,-0.2683,0.5740,-0.3352,0.6972,0.2684
592,0.0,0.0,0.0,0.0,0.0,0.0,-0.9434,-0.0962,-0.2694,0.5745,-0.3387,0.6957,0.2668
593,0.0,0.0,0.0,0.0,0.0,0.0,-0.9423,-0.1097,-0.2735,0.5748,-0.3419,0.6945,0.2654
594,0.0,0.0,0.0,0.0,0.0,0.0,-0.9462,-0.1146,-0.2740,0.5748,-0.3442,0.6941,0.2635
595,0.0,0.0,0.0,0.0,0.0,0.0,-0.9488,-0.1185,-0.2759,0.5749,-0.3462,0.6937,0.2616
596,0.0,0.0,0.0,0.0,0.0,0.0,-0.9466,-0.1271,-0.2780,0.5749,-0.3483,0.6930,0.2607
597,0.0,0.0,0.0,0.0,0.0,0.0,-0.9453,-0.1299,-0.2830,0.5745,-0.3501,0.6927,0.2599
598,0.0,0.0,0.0,0.0,0.0,0.0,-0.9492,-0.1339,-0.2824,0.5737,-0.3521,0.6924,0.2597
599,0.0,0.0,0.0,0.0,0.0,0.0,-0.9446,-0.1188,-0.2833,0.5725,-0.3545,0.6920,0.2604
600,0.0,0.0,0.0,0.0,0.0,0.0,-0.9367,-0.1036,-0.2857,0.5709,-0.3566,0.6920,0.2608
601,0.0,0.0,0.0,0.0,0.0,0.0,-0.9363,-0.1104,-0.2839,0.5695,-0.3587,0.6919,0.2613
602,0.0,0.0,0.0,0.0,0.0,0.0,-0.9342,-0.1080,-0.2824,0.5687,-0.3609,0.6913,0.2618
603,0.0,0.0,0.0,0.0,0.0,0.0,-0.9319,-0.1153,-0.2797,0.5684,-0.3630,0.6901,0.2626
604,0.0,0.0,0.0,0.0,0.0,0.0,-0.9366,-0.1164,-0.2753,0.5684,-0.3651,0.6887,0.2631
605,0.0,0.0,0.0,0.0,0.0,0.0,-0.9443,-0.1121,-0.2740,0.5684,-0.3671,0.6876,0.2633
606,0.0,0.0,0.0,0.0,0.0,0.0,-0.9407,-0.1232,-0.2796,0.5684,-0.3691,0.6865,0.2636
607,0.0,0.0,0.0,0.0,0.0,0.0,-0.9343,-0.1371,-0.2835,0.5683,-0.3715,0.6852,0.2638
608,0.0,0.0,0.0,0.0,0.0,0.0,-0.9405,-0.1372,-0.2794,0.5689,-0.3739,0.6832,0.2641
609,0.0,0.0,0.0,0.0,0.0,0.0,-0.9426,-0.1237,-0.2776,0.5699,-0.3760,0.6809,0.2649
610,0.0,0.0,0.0,0.0,0.0,0.0,-0.9400,-0.1180,-0.2718,0.5711,-0.3781,0.6785,0.2656
611,0.0,0.0,0.0,0.0,0.0,0.0,-0.9385,-0.1160,-0.2733,0.5725,-0.3800,0.6762,0.2656
612,0.0,0.0,0.0,0.0,0.0,0.0,-0.9375,-0.1353,-0.2761,0.5738,-0.3821,0.6740,0.2655
613,0.0,0.0,0.0,0.0,0.0,0.0,-0.9329,-0.1493,-0.2779,0.5748,-0.3848,0.6716,0.2657
614,0.0,0.0,0.0,0.0,0.0,0.0,-0.9369,-0.1586,-0.2741,0.5754,-0.3882,0.6691,0.2656
615,0.0,0.0,0.0,0.0,0.0,0.0,-0.9480,-0.1633,-0.2695,0.5754,-0.3918,0.6669,0.2657
616,0.0,0.0,0.0,0.0,0.0,0.0,-0.9307,-0.1693,-0.2711,0.5750,-0.3963,0.6643,0.2664
617,0.0,0.0,0.0,0.0,0.0,0.0,-0.9329,-0.1800,-0.2727,0.5746,-0.4014,0.6613,0.2674
618,0.0,0.0,0.0,0.0,0.0,0.0,-0.9406,-0.1776,-0.2738,0.5733,-0.4058,0.6594,0.2681
619,0.0,0.0,0.0,0.0,0.0,0.0,-0.9284,-0.1751,-0.2708,0.5721,-0.4098,0.6576,0.2689
620,0.0,0.0,0.0,0.0,0.0,0.0,-0.9343,-0.1736,-0.2778,0.5710,-0.4132,0.6561,0.2697
621,0.0,0.0,0.0,0.0,0.0,0.0,-0.9282,-0.1749,-0.2819,0.5699,-0.4162,0.6549,0.2705
622,0.0,0.0,0.0,0.0,0.0,0.0,-0.9238,-0.1729,-0.2810,0.5690,-0.4193,0.6532,0.2716
623,0.0,0.0,0.0,0.0,0.0,0.0,-0.9257,-0.1719,-0.2805,0.5686,-0.4220,0.6513,0.2727
624,0.0,0.0,0.0,0.0,0.0,0.0,-0.9300,-0.1730,-0.2804,0.5683,-0.4242,0.6498,0.2736
625,0.0,0.0,0.0,0.0,0.0,0.0,-0.9258,-0.1763,-0.2830,0.5680,-0.4258,0.6486,0.2745
626,0.0,0.0,0.0,0.0,0.0,0.0,-0.9129,-0.1824,-0.2850,0.5679,-0.4271,0.6475,0.2753
627,0.0,0.0,0.0,0.0,0.0,0.0,-0.9172,-0.1795,-0.2852,0.5680,-0.4281,0.6466,0.2757
628,0.0,0.0,0.0,0.0,0.0,0.0,-0.9268,-0.1807,-0.2796,0.5682,-0.4283,0.6463,0.2757
629,0.0,0.0,0.0,0.0,0.0,0.0,-0.9239,-0.1881,-0.2731,0.5685,-0.4282,0.6462,0.2754
630,0.0,0.0,0.0,0.0,0.0,0.0,-0.9345,-0.1887,-0.2728,0.5687,-0.4277,0.6466,0.2750
631,0.0,0.0,0.0,0.0,0.0,0.0,-0.9388,-0.1844,-0.2745,0.5685,-0.4269,0.6474,0.2748
632,0.0,0.0,0.0,0.0,0.0,0.0,-0.9358,-0.1722,-0.2773,0.5680,-0.4255,0.6486,0.2750
633,0.0,0.0,0.0,0.0,0.0,0.0,-0.9341,-0.1599,-0.2795,0.5672,-0.4237,0.6505,0.2751
634,0.0,0.0,0.0,0.0,0.0,0.0,-0.9311,-0.1468,-0.2818,0.5665,-0.4212,0.6528,0.2750
635,0.0,0.0,0.0,0.0,0.0,0.0,-0.9319,-0.1366,-0.2826,0.5658,-0.4184,0.6551,0.2751
636,0.0,0.0,0.0,0.0,0.0,0.0,-0.9376,-0.1303,-0.2842,0.5647,-0.4161,0.6573,0.2757
637,0.0,0.0,0.0,0.0,0.0,0.0,-0.9350,-0.1245,-0.2798,0.5632,-0.4138,0.6599,0.2760
638,0.0,0.0,0.0,0.0,0.0,0.0,-0.9310,-0.1142,-0.2836,0.5614,-0.4116,0.6628,0.2758
639,0.0,0.0,0.0,0.0,0.0,0.0,-0.9412,-0.1217,-0.2786,0.5602,-0.4098,0.6653,0.2749
640,0.0,0.0,0.0,0.0,0.0,0.0,-0.9402,-0.1271,-0.2749,0.5603,-0.4079,0.6664,0.2749
641,0.0,0.0,0.0,0.0,0.0,0.0,-0.9496,-0.1330,-0.2790,0.5609,-0.4064,0.6666,0.2756
642,0.0,0.0,0.0,0.0,0.0,0.0,-0.9521,-0.1433,-0.2748,0.5619,-0.4046,0.6668,0.2757
643,0.0,0.0,0.0,0.0,0.0,0.0,-0.9504,-0.1327,-0.2712,0.5631,-0.4028,0.6666,0.2761
644,0.0,0.0,0.0,0.0,0.0,0.0,-0.9507,-0.1249,-0.2696,0.5644,-0.4013,0.6663,0.2763
645,0.0,0.0,0.0,0.0,0.0,0.0,-0.9469,-0.1283,-0.2703,0.5658,-0.4005,0.6655,0.2768
646,0.0,0.0,0.0,0.0,0.0,0.0,-0.9541,-0.1338,-0.2663,0.5667,-0.4014,0.6637,0.2780
647,0.0,0.0,0.0,0.0,0.0,0.0,-0.9519,-0.1291,-0.2581,0.5670,-0.4033,0.6616,0.2796
648,0.0,0.0,0.0,0.0,0.0,0.0,-0.9472,-0.1160,-0.2526,0.5675,-0.4051,0.6596,0.2807
649,0.0,0.0,0.0,0.0,0.0,0.0,-0.9475,-0.1073,-0.2510,0.5687,-0.4065,0.6574,0.2814
650,0.0,0.0,0.0,0.0,0.0,0.0,-0.9347,-0.1261,-0.2493,0.5707,-0.4084,0.6542,0.2821
651,0.0,0.0,0.0,0.0,0.0,0.0,-0.9446,-0.1409,-0.2454,0.5727,-0.4106,0.6507,0.2828
652,0.0,0.0,0.0,0.0,0.0,0.0,-0.9354,-0.1472,-0.2400,0.5745,-0.4128,0.6476,0.2832
653,0.0,0.0,0.0,0.0,0.0,0.0,-0.9354,-0.1589,-0.2349,0.5758,-0.4155,0.6446,0.2833
654,0.0,0.0,0.0,0.0,0.0,0.0,-0.9319,-0.1803,-0.2315,0.5769,-0.4185,0.6417,0.2834
655,0.0,0.0,0.0,0.0,0.0,0.0,-0.9259,-0.1942,-0.2334,0.5776,-0.4213,0.6395,0.2828
656,0.0,0.0,0.0,0.0,0.0,0.0,-0.9236,-0.1966,-0.2364,0.5780,-0.4240,0.6376,0.2822
657,0.0,0.0,0.0,0.0,0.0,0.0,-0.9173,-0.1974,-0.2367,0.5782,-0.4264,0.6360,0.2817
658,0.0,0.0,0.0,0.0,0.0,0.0,-0.9212,-0.1906,-0.2422,0.5783,-0.4281,0.6352,0.2808
659,0.0,0.0,0.0,0.0,0.0,0.0,-0.9198,-0.1837,-0.2480,0.5779,-0.4287,0.6359,0.2791
660,0.0,0.0,0.0,0.0,0.0,0.0,-0.9218,-0.1821,-0.2527,0.5774,-0.4284,0.6375,0.2770
661,0.0,0.0,0.0,0.0,0.0,0.0,-0.9298,-0.1929,-0.2565,0.5769,-0.4272,0.6396,0.2748
662,0.0,0.0,0.0,0.0,0.0,0.0,-0.9334,-0.2001,-0.2590,0.5766,-0.4254,0.6419,0.2729
663,0.0,0.0,0.0,0.0,0.0,0.0,-0.9349,-0.2036,-0.2585,0.5765,-0.4232,0.6443,0.2711
664,0.0,0.0,0.0,0.0,0.0,0.0,-0.9375,-0.2088,-0.2638,0.5763,-0.4203,0.6470,0.2694
665,0.0,0.0,0.0,0.0,0.0,0.0,-0.9368,-0.2097,-0.2707,0.5757,-0.4176,0.6496,0.2686
666,0.0,0.0,0.0,0.0,0.0,0.0,-0.9310,-0.2096,-0.2723,0.5750,-0.4148,0.6524,0.2678
667,0.0,0.0,0.0,0.0,0.0,0.0,-0.9314,-0.2008,-0.2745,0.5744,-0.4119,0.6551,0.2670
668,0.0,0.0,0.0,0.0,0.0,0.0,-0.9289,-0.1905,-0.2778,0.5739,-0.4091,0.6572,0.2670
669,0.0,0.0,0.0,0.0,0.0,0.0,-0.9302,-0.1803,-0.2810,0.5738,-0.4064,0.6591,0.2670
670,0.0,0.0,0.0,0.0,0.0,0.0,-0.9334,-0.1721,-0.2788,0.5736,-0.4036,0.6609,0.2668
671,0.0,0.0,0.0,0.0,0.0,0.0,-0.9294,-0.1672,-0.2769,0.5740,-0.4009,0.6623,0.2667
672,0.0,0.0,0.0,0.0,0.0,0.0,-0.9274,-0.1648,-0.2769,0.5745,-0.3982,0.6637,0.2664
673,0.0,0.0,0.0,0.0,0.0,0.0,-0.9321,-0.1629,-0.2748,0.5747,-0.3956,0.6653,0.2655
674,0.0,0.0,0.0,0.0,0.0,0.0,-0.9288,-0.1623,-0.2783,0.5748,-0.3935,0.6668,0.2648
675,0.0,0.0,0.0,0.0,0.0,0.0,-0.9226,-0.1602,-0.2809,0.5746,-0.3921,0.6681,0.2639
676,0.0,0.0,0.0,0.0,0.0,0.0,-0.9280,-0.1598,-0.2841,0.5743,-0.3910,0.6696,0.2626
677,0.0,0.0,0.0,0.0,0.0,0.0,-0.9141,-0.1634,-0.2894,0.5736,-0.3904,0.6712,0.2608
678,0.0,0.0,0.0,0.0,0.0,0.0,-0.9161,-0.1609,-0.2908,0.5729,-0.3899,0.6730,0.2586
679,0.0,0.0,0.0,0.0,0.0,0.0,-0.9137,-0.1459,-0.2862,0.5730,-0.3886,0.6749,0.2553
680,0.0,0.0,0.0,0.0,0.0,0.0,-0.9073,-0.1381,-0.2838,0.5752,-0.3859,0.6765,0.2503
681,0.0,0.0,0.0,0.0,0.0,0.0,-0.9069,-0.1642,-0.2887,0.5788,-0.3833,0.6766,0.2457
682,0.0,0.0,0.0,0.0,0.0,0.0,-0.9289,-0.2088,-0.2859,0.5818,-0.3822,0.6758,0.2425
683,0.0,0.0,0.0,0.0,0.0,0.0,-0.9360,-0.2362,-0.2804,0.5825,-0.3814,0.6765,0.2399
684,0.0,0.0,0.0,0.0,0.0,0.0,-0.9331,-0.2412,-0.2946,0.5817,-0.3806,0.6785,0.2373
685,0.0,0.0,0.0,0.0,0.0,0.0,-0.9325,-0.2423,-0.3101,0.5789,-0.3817,0.6808,0.2360
686,0.0,0.0,0.0,0.0,0.0,0.0,-0.9265,-0.2296,-0.3096,0.5745,-0.3836,0.6836,0.2356
687,0.0,0.0,0.0,0.0,0.0,0.0,-0.9203,-0.2145,-0.3071,0.5703,-0.3843,0.6867,0.2355
688,0.0,0.0,0.0,0.0,0.0,0.0,-0.9299,-0.2331,-0.3105,0.5676,-0.3841,0.6889,0.2359
689,0.0,0.0,0.0,0.0,0.0,0.0,-0.9283,-0.2585,-0.3227,0.5656,-0.3836,0.6904,0.2373
690,0.0,0.0,0.0,0.0,0.0,0.0,-0.9186,-0.2382,-0.3352,0.5632,-0.3830,0.6922,0.2388
691,0.0,0.0,0.0,0.0,0.0,0.0,-0.9112,-0.2037,-0.3358,0.5605,-0.3820,0.6943,0.2404
692,0.0,0.0,0.0,0.0,0.0,0.0,-0.8998,-0.1686,-0.3331,0.5582,-0.3803,0.6965,0.2421
693,0.0,0.0,0.0,0.0,0.0,0.0,-0.9041,-0.1554,-0.3399,0.5561,-0.3791,0.6982,0.2441
694,0.0,0.0,0.0,0.0,0.0,0.0,-0.8977,-0.1465,-0.3429,0.5535,-0.3784,0.7000,0.2459
695,0.0,0.0,0.0,0.0,0.0,0.0,-0.9033,-0.1340,-0.3425,0.5511,-0.3777,0.7018,0.2472
696,0.0,0.0,0.0,0.0,0.0,0.0,-0.9096,-0.1435,-0.3347,0.5497,-0.3767,0.7031,0.2481
697,0.0,0.0,0.0,0.0,0.0,0.0,-0.9127,-0.1552,-0.3353,0.5495,-0.3750,0.7041,0.2484
698,0.0,0.0,0.0,0.0,0.0,0.0,-0.9168,-0.1649,-0.3378,0.5495,-0.3724,0.7056,0.2480
699,0.0,0.0,0.0,0.0,0.0,0.0,-0.9191,-0.1527,-0.3409,0.5498,-0.3690,0.7075,0.2469
700,0.0,0.0,0.0,0.0,0.0,0.0,-0.9238,-0.1416,-0.3439,0.5508,-0.3664,0.7083,0.2463
701,0.0,0.0,0.0,0.0,0.0,0.0,-0.9135,-0.1248,-0.3512,0.5514,-0.3649,0.7085,0.2468
702,0.0,0.0,0.0,0.0,0.0,0.0,-0.9128,-0.1190,-0.3458,0.5496,-0.3648,0.7098,0.2471
703,0.0,0.0,0.0,0.0,0.0,0.0,-0.9189,-0.1475,-0.3355,0.5474,-0.3652,0.7112,0.2472
704,0.0,0.0,0.0,0.0,0.0,0.0,-0.9182,-0.1561,-0.3429,0.5454,-0.3664,0.7117,0.2483
705,0.0,0.0,0.0,0.0,0.0,0.0,-0.9182,-0.1472,-0.3481,0.5423,-0.3688,0.7123,0.2501
706,0.0,0.0,0.0,0.0,0.0,0.0,-0.9185,-0.1380,-0.3484,0.5391,-0.3711,0.7129,0.2520
707,0.0,0.0,0.0,0.0,0.0,0.0,-0.9217,-0.1343,-0.3434,0.5366,-0.3728,0.7131,0.2539
708,0.0,0.0,0.0,0.0,0.0,0.0,-0.9119,-0.1195,-0.3463,0.5346,-0.3736,0.7136,0.2557
709,0.0,0.0,0.0,0.0,0.0,0.0,-0.9120,-0.1020,-0.3450,0.5335,-0.3732,0.7141,0.2571
710,0.0,0.0,0.0,0.0,0.0,0.0,-0.9185,-0.0866,-0.3445,0.5332,-0.3724,0.7143,0.2585
711,0.0,0.0,0.0,0.0,0.0,0.0,-0.9255,-0.0755,-0.3456,0.5335,-0.3708,0.7145,0.2595
712,0.0,0.0,0.0,0.0,0.0,0.0,-0.9284,-0.0746,-0.3455,0.5344,-0.3693,0.7142,0.2606
713,0.0,0.0,0.0,0.0,0.0,0.0,-0.9289,-0.0722,-0.3459,0.5357,-0.3682,0.7134,0.2617
714,0.0,0.0,0.0,0.0,0.0,0.0,-0.9259,-0.0722,-0.3440,0.5368,-0.3673,0.7128,0.2624
715,0.0,0.0,0.0,0.0,0.0,0.0,-0.9257,-0.0723,-0.3363,0.5381,-0.3667,0.7119,0.2630
716,0.0,0.0,0.0,0.0,0.0,0.0,-0.9261,-0.0788,-0.3282,0.5402,-0.3663,0.7102,0.2640
717,0.0,0.0,0.0,0.0,0.0,0.0,-0.9259,-0.0736,-0.3213,0.5432,-0.3654,0.7080,0.2648
718,0.0,0.0,0.0,0.0,0.0,0.0,-0.9238,-0.0673,-0.3193,0.5458,-0.3651,0.7058,0.2658
719,0.0,0.0,0.0,0.0,0.0,0.0,-0.9359,-0.0748,-0.3142,0.5479,-0.3660,0.7034,0.2667
720,0.0,0.0,0.0,0.0,0.0,0.0,-0.9354,-0.0724,-0.3157,0.5494,-0.3674,0.7013,0.2671
721,0.0,0.0,0.0,0.0,0.0,0.0,-0.9422,-0.0961,-0.3013,0.5512,-0.3696,0.6986,0.2675
722,0.0,0.0,0.0,0.0,0.0,0.0,-0.9308,-0.0813,-0.3009,0.5536,-0.3712,0.6956,0.2682
723,0.0,0.0,0.0,0.0,0.0,0.0,-0.9159,-0.0889,-0.2991,0.5558,-0.3724,0.6930,0.2684
724,0.0,0.0,0.0,0.0,0.0,0.0,-0.9325,-0.1043,-0.2921,0.5578,-0.3742,0.6905,0.2683
725,0.0,0.0,0.0,0.0,0.0,0.0,-0.9392,-0.1075,-0.2866,0.5592,-0.3760,0.6885,0.2682
726,0.0,0.0,0.0,0.0,0.0,0.0,-0.9180,-0.1071,-0.2902,0.5603,-0.3776,0.6867,0.2683
727,0.0,0.0,0.0,0.0,0.0,0.0,-0.9292,-0.1136,-0.2900,0.5615,-0.3794,0.6847,0.2683
728,0.0,0.0,0.0,0.0,0.0,0.0,-0.9259,-0.1214,-0.2854,0.5624,-0.3807,0.6834,0.2678
729,0.0,0.0,0.0,0.0,0.0,0.0,-0.9208,-0.1368,-0.2858,0.5638,-0.3820,0.6817,0.2673
730,0.0,0.0,0.0,0.0,0.0,0.0,-0.9304,-0.1549,-0.2878,0.5651,-0.3837,0.6796,0.2676
731,0.0,0.0,0.0,0.0,0.0,0.0,-0.9175,-0.1605,-0.2912,0.5659,-0.3854,0.6781,0.2673
732,0.0,0.0,0.0,0.0,0.0,0.0,-0.9286,-0.1601,-0.2913,0.5662,-0.3868,0.6774,0.2663
733,0.0,0.0,0.0,0.0,0.0,0.0,-0.9238,-0.1611,-0.2900,0.5666,-0.3884,0.6764,0.2657
734,0.0,0.0,0.0,0.0,0.0,0.0,-0.9227,-0.1586,-0.2886,0.5673,-0.3892,0.6757,0.2648
735,0.0,0.0,0.0,0.0,0.0,0.0,-0.9165,-0.1565,-0.2926,0.5678,-0.3894,0.6756,0.2635
736,0.0,0.0,0.0,0.0,0.0,0.0,-0.9162,-0.1608,-0.2975,0.5680,-0.3900,0.6756,0.2624
737,0.0,0.0,0.0,0.0,0.0,0.0,-0.9176,-0.1604,-0.2965,0.5680,-0.3903,0.6759,0.2611
738,0.0,0.0,0.0,0.0,0.0,0.0,-0.9186,-0.1564,-0.3008,0.5679,-0.3904,0.6763,0.2602
739,0.0,0.0,0.0,0.0,0.0,0.0,-0.9212,-0.1652,-0.3018,0.5674,-0.3906,0.6768,0.2595
740,0.0,0.0,0.0,0.0,0.0,0.0,-0.9217,-0.1657,-0.3013,0.5668,-0.3906,0.6778,0.2586
741,0.0,0.0,0.0,0.0,0.0,0.0,-0.9187,-0.1558,-0.3046,0.5662,-0.3903,0.6787,0.2578
742,0.0,0.0,0.0,0.0,0.0,0.0,-0.9286,-0.1558,-0.3116,0.5651,-0.3902,0.6799,0.2572
743,0.0,0.0,0.0,0.0,0.0,0.0,-0.9273,-0.1621,-0.3137,0.5633,-0.3904,0.6816,0.2564
744,0.0,0.0,0.0,0.0,0.0,0.0,-0.9243,-0.1582,-0.3122,0.5618,-0.3901,0.6833,0.2556
745,0.0,0.0,0.0,0.0,0.0,0.0,-0.9228,-0.1493,-0.3170,0.5610,-0.3896,0.6844,0.2551
746,0.0,0.0,0.0,0.0,0.0,0.0,-0.9252,-0.1445,-0.3197,0.5601,-0.3890,0.6857,0.2545
747,0.0,0.0,0.0,0.0,0.0,0.0,-0.9247,-0.1450,-0.3188,0.5593,-0.3882,0.6871,0.2537
748,0.0,0.0,0.0,0.0,0.0,0.0,-0.9278,-0.1454,-0.3255,0.5588,-0.3876,0.6879,0.2537
749,0.0,0.0,0.0,0.0,0.0,0.0,-0.9249,-0.1458,-0.3280,0.5580,-0.3869,0.6890,0.2535
750,0.0,0.0,0.0,0.0,0.0,0.0,-0.9220,-0.1433,-0.3275,0.5572,-0.3862,0.6900,0.2534
751,0.0,0.0,0.0,0.0,0.0,0.0,-0.9210,-0.1438,-0.3266,0.5566,-0.3857,0.6907,0.2536
752,0.0,0.0,0.0,0.0,0.0,0.0,-0.9203,-0.1375,-0.3246,0.5564,-0.3847,0.6914,0.2535
753,0.0,0.0,0.0,0.0,0.0,0.0,-0.9199,-0.1360,-0.3284,0.5564,-0.3834,0.6924,0.2531
754,0.0,0.0,0.0,0.0,0.0,0.0,-0.9200,-0.1403,-0.3295,0.5561,-0.3825,0.6932,0.2529
755,0.0,0.0,0.0,0.0,0.0,0.0,-0.9185,-0.1389,-0.3261,0.5558,-0.3820,0.6936,0.2530
756,0.0,0.0,0.0,0.0,0.0,0.0,-0.9156,-0.1378,-0.3291,0.5555,-0.3814,0.6943,0.2526
757,0.0,0.0,0.0,0.0,0.0,0.0,-0.9191,-0.1393,-0.3329,0.5550,-0.3810,0.6952,0.2522
758,0.0,0.0,0.0,0.0,0.0,0.0,-0.9212,-0.1456,-0.3320,0.5545,-0.3806,0.6959,0.2518
759,0.0,0.0,0.0,0.0,0.0,0.0,-0.9188,-0.1500,-0.3321,0.5539,-0.3799,0.6970,0.2513
760,0.0,0.0,0.0,0.0,0.0,0.0,-0.9145,-0.1460,-0.3351,0.5529,-0.3791,0.6983,0.2508
761,0.0,0.0,0.0,0.0,0.0,0.0,-0.9087,-0.1459,-0.3353,0.5516,-0.3783,0.7000,0.2501
762,0.0,0.0,0.0,0.0,0.0,0.0,-0.9126,-0.1513,-0.3319,0.5502,-0.3777,0.7016,0.2498
763,0.0,0.0,0.0,0.0,0.0,0.0,-0.9154,-0.1534,-0.3294,0.5489,-0.3773,0.7028,0.2500
764,0.0,0.0,0.0,0.0,0.0,0.0,-0.9149,-0.1426,-0.3340,0.5478,-0.3761,0.7045,0.2494
765,0.0,0.0,0.0,0.0,0.0,0.0,-0.9143,-0.1338,-0.3383,0.5470,-0.3745,0.7062,0.2487
766,0.0,0.0,0.0,0.0,0.0,0.0,-0.9163,-0.1411,-0.3349,0.5469,-0.3730,0.7071,0.2485
767,0.0,0.0,0.0,0.0,0.0,0.0,-0.9202,-0.1431,-0.3358,0.5473,-0.3716,0.7076,0.2484
768,0.0,0.0,0.0,0.0,0.0,0.0,-0.9188,-0.1426,-0.3363,0.5475,-0.3704,0.7080,0.2484
769,0.0,0.0,0.0,0.0,0.0,0.0,-0.9237,-0.1436,-0.3367,0.5476,-0.3696,0.7084,0.2484
770,0.0,0.0,0.0,0.0,0.0,0.0,-0.9279,-0.1428,-0.3322,0.5479,-0.3695,0.7081,0.2487
771,0.0,0.0,0.0,0.0,0.0,0.0,-0.9310,-0.1371,-0.3262,0.5484,-0.3690,0.7078,0.2490
772,0.0,0.0,0.0,0.0,0.0,0.0,-0.9320,-0.1381,-0.3262,0.5487,-0.3680,0.7082,0.2489
773,0.0,0.0,0.0,0.0,0.0,0.0,-0.9272,-0.1322,-0.3301,0.5484,-0.3672,0.7089,0.2487
774,0.0,0.0,0.0,0.0,0.0,0.0,-0.9198,-0.1198,-0.3354,0.5477,-0.3671,0.7094,0.2491
775,0.0,0.0,0.0,0.0,0.0,0.0,-0.9225,-0.1186,-0.3266,0.5470,-0.3677,0.7094,0.2497
776,0.0,0.0,0.0,0.0,0.0,0.0,-0.9198,-0.1148,-0.3203,0.5469,-0.3680,0.7091,0.2501
777,0.0,0.0,0.0,0.0,0.0,0.0,-0.9195,-0.1186,-0.3243,0.5475,-0.3684,0.7083,0.2506
778,0.0,0.0,0.0,0.0,0.0,0.0,-0.9182,-0.1268,-0.3249,0.5483,-0.3694,0.7068,0.2516
779,0.0,0.0,0.0,0.0,0.0,0.0,-0.9226,-0.1313,-0.3229,0.5492,-0.3704,0.7053,0.2524
780,0.0,0.0,0.0,0.0,0.0,0.0,-0.9175,-0.1220,-0.3195,0.5505,-0.3710,0.7037,0.2533
781,0.0,0.0,0.0,0.0,0.0,0.0,-0.9107,-0.1107,-0.3254,0.5524,-0.3706,0.7021,0.2541
782,0.0,0.0,0.0,0.0,0.0,0.0,-0.9110,-0.1257,-0.3285,0.5538,-0.3708,0.7007,0.2547
783,0.0,0.0,0.0,0.0,0.0,0.0,-0.9190,-0.1291,-0.3337,0.5546,-0.3717,0.6993,0.2552
784,0.0,0.0,0.0,0.0,0.0,0.0,-0.9163,-0.1130,-0.3354,0.5544,-0.3726,0.6990,0.2554
785,0.0,0.0,0.0,0.0,0.0,0.0,-0.9112,-0.1008,-0.3329,0.5535,-0.3737,0.6993,0.2548
786,0.0,0.0,0.0,0.0,0.0,0.0,-0.9157,-0.1076,-0.3358,0.5520,-0.3757,0.6994,0.2548
787,0.0,0.0,0.0,0.0,0.0,0.0,-0.9104,-0.1144,-0.3322,0.5505,-0.3778,0.6996,0.2547
788,0.0,0.0,0.0,0.0,0.0,0.0,-0.9056,-0.1060,-0.3366,0.5494,-0.3794,0.6996,0.2543
789,0.0,0.0,0.0,0.0,0.0,0.0,-0.9078,-0.1151,-0.3439,0.5482,-0.3815,0.6994,0.2545
790,0.0,0.0,0.0,0.0,0.0,0.0,-0.9100,-0.1214,-0.3474,0.5466,-0.3835,0.6996,0.2543
791,0.0,0.0,0.0,0.0,0.0,0.0,-0.9120,-0.1179,-0.3516,0.5449,-0.3852,0.7004,0.2535
792,0.0,0.0,0.0,0.0,0.0,0.0,-0.9112,-0.1232,-0.3556,0.5433,-0.3868,0.7008,0.2532
793,0.0,0.0,0.0,0.0,0.0,0.0,-0.9128,-0.1261,-0.3590,0.5417,-0.3880,0.7015,0.2529
794,0.0,0.0,0.0,0.0,0.0,0.0,-0.9104,-0.1260,-0.3595,0.5403,-0.3888,0.7024,0.2522
795,0.0,0.0,0.0,0.0,0.0,0.0,-0.9062,-0.1268,-0.3665,0.5396,-0.3891,0.7029,0.2518
796,0.0,0.0,0.0,0.0,0.0,0.0,-0.9045,-0.1315,-0.3729,0.5390,-0.3892,0.7034,0.2514
797,0.0,0.0,0.0,0.0,0.0,0.0,-0.9041,-0.1290,-0.3772,0.5381,-0.3893,0.7043,0.2508
798,0.0,0.0,0.0,0.0,0.0,0.0,-0.9045,-0.1285,-0.3767,0.5370,-0.3896,0.7052,0.2502
799,0.0,0.0,0.0,0.0,0.0,0.0,-0.8993,-0.1269,-0.3798,0.5357,-0.3899,0.7062,0.2494
800,0.0,0.0,0.0,0.0,0.0,0.0,-0.8964,-0.1288,-0.3809,0.5343,-0.3904,0.7074,0.2485
801,0.0,0.0,0.0,0.0,0.0,0.0,-0.8936,-0.1311,-0.3829,0.5325,-0.3909,0.7088,0.2474
802,0.0,0.0,0.0,0.0,0.0,0.0,-0.8889,-0.1354,-0.3846,0.5307,-0.3914,0.7103,0.2462
803,0.0,0.0,0.0,0.0,0.0,0.0,-0.8962,-0.1379,-0.3854,0.5293,-0.3912,0.7120,0.2446
804,0.0,0.0,0.0,0.0,0.0,0.0,-0.8949,-0.1363,-0.3907,0.5282,-0.3902,0.7141,0.2425
805,0.0,0.0,0.0,0.0,0.0,0.0,-0.8956,-0.1391,-0.3966,0.5272,-0.3895,0.7158,0.2407
806,0.0,0.0,0.0,0.0,0.0,0.0,-0.8964,-0.1319,-0.3964,0.5263,-0.3890,0.7172,0.2392
807,0.0,0.0,0.0,0.0,0.0,0.0,-0.8953,-0.1270,-0.3944,0.5257,-0.3884,0.7186,0.2376
808,0.0,0.0,0.0,0.0,0.0,0.0,-0.9012,-0.1349,-0.3944,0.5259,-0.3877,0.7191,0.2366
809,0.0,0.0,0.0,0.0,0.0,0.0,-0.9039,-0.1451,-0.3964,0.5267,-0.3869,0.7192,0.2356
810,0.0,0.0,0.0,0.0,0.0,0.0,-0.9030,-0.1435,-0.4017,0.5280,-0.3859,0.7192,0.2345
811,0.0,0.0,0.0,0.0,0.0,0.0,-0.8992,-0.1419,-0.4052,0.5293,-0.3845,0.7193,0.2336
812,0.0,0.0,0.0,0.0,0.0,0.0,-0.9010,-0.1411,-0.3993,0.5306,-0.3827,0.7197,0.2325
813,0.0,0.0,0.0,0.0,0.0,0.0,-0.9094,-0.1346,-0.3922,0.5322,-0.3810,0.7196,0.2319
814,0.0,0.0,0.0,0.0,0.0,0.0,-0.9190,-0.1382,-0.3861,0.5340,-0.3793,0.7193,0.2317
815,0.0,0.0,0.0,0.0,0.0,0.0,-0.9170,-0.1402,-0.3824,0.5365,-0.3772,0.7183,0.2322
816,0.0,0.0,0.0,0.0,0.0,0.0,-0.9237,-0.1531,-0.3727,0.5396,-0.3754,0.7165,0.2335
817,0.0,0.0,0.0,0.0,0.0,0.0,-0.9313,-0.1686,-0.3558,0.5433,-0.3738,0.7139,0.2352
818,0.0,0.0,0.0,0.0,0.0,0.0,-0.9261,-0.1571,-0.3461,0.5475,-0.3725,0.7108,0.2374
819,0.0,0.0,0.0,0.0,0.0,0.0,-0.9236,-0.1452,-0.3328,0.5518,-0.3716,0.7070,0.2397
820,0.0,0.0,0.0,0.0,0.0,0.0,-0.9268,-0.1468,-0.3241,0.5554,-0.3717,0.7034,0.2419
821,0.0,0.0,0.0,0.0,0.0,0.0,-0.9376,-0.1536,-0.3079,0.5589,-0.3723,0.6996,0.2443
822,0.0,0.0,0.0,0.0,0.0,0.0,-0.9177,-0.1051,-0.3187,0.5619,-0.3720,0.6966,0.2464
823,0.0,0.0,0.0,0.0,0.0,0.0,-0.8978,-0.1176,-0.3065,0.5648,-0.3715,0.6939,0.2480
824,0.0,0.0,0.0,0.0,0.0,0.0,-0.9012,-0.1177,-0.3084,0.5670,-0.3714,0.6919,0.2489
825,0.0,0.0,0.0,0.0,0.0,0.0,-0.9130,-0.1112,-0.3006,0.5677,-0.3721,0.6907,0.2493
826,0.0,0.0,0.0,0.0,0.0,0.0,-0.8942,-0.1301,-0.2880,0.5684,-0.3739,0.6890,0.2499
827,0.0,0.0,0.0,0.0,0.0,0.0,-0.9205,-0.1509,-0.2837,0.5693,-0.3765,0.6866,0.2504
828,0.0,0.0,0.0,0.0,0.0,0.0,-0.8999,-0.1603,-0.2840,0.5697,-0.3793,0.6848,0.2505
829,0.0,0.0,0.0,0.0,0.0,0.0,-0.9138,-0.1721,-0.2876,0.5699,-0.3820,0.6831,0.2504
830,0.0,0.0,0.0,0.0,0.0,0.0,-0.8976,-0.1844,-0.2908,0.5701,-0.3850,0.6812,0.2505
831,0.0,0.0,0.0,0.0,0.0,0.0,-0.9134,-0.1987,-0.2915,0.5704,-0.3876,0.6796,0.2500
832,0.0,0.0,0.0,0.0,0.0,0.0,-0.9100,-0.1957,-0.2959,0.5705,-0.3893,0.6790,0.2490
833,0.0,0.0,0.0,0.0,0.0,0.0,-0.9094,-0.1994,-0.3052,0.5698,-0.3910,0.6790,0.2479
834,0.0,0.0,0.0,0.0,0.0,0.0,-0.9215,-0.2098,-0.3007,0.5690,-0.3927,0.6791,0.2467
835,0.0,0.0,0.0,0.0,0.0,0.0,-0.9195,-0.1956,-0.3077,0.5684,-0.3935,0.6795,0.2456
836,0.0,0.0,0.0,0.0,0.0,0.0,-0.9152,-0.1911,-0.3126,0.5676,-0.3938,0.6803,0.2447
837,0.0,0.0,0.0,0.0,0.0,0.0,-0.9169,-0.1978,-0.3180,0.5667,-0.3935,0.6817,0.2434
838,0.0,0.0,0.0,0.0,0.0,0.0,-0.9132,-0.1976,-0.3259,0.5655,-0.3926,0.6838,0.2419
839,0.0,0.0,0.0,0.0,0.0,0.0,-0.9135,-0.1994,-0.3337,0.5640,-0.3920,0.6856,0.2413
840,0.0,0.0,0.0,0.0,0.0,0.0,-0.9087,-0.1972,-0.3401,0.5622,-0.3913,0.6873,0.2415
841,0.0,0.0,0.0,0.0,0.0,0.0,-0.9084,-0.1986,-0.3454,0.5608,-0.3904,0.6890,0.2417
842,0.0,0.0,0.0,0.0,0.0,0.0,-0.9157,-0.2051,-0.3415,0.5602,-0.3890,0.6899,0.2425
843,0.0,0.0,0.0,0.0,0.0,0.0,-0.9186,-0.2081,-0.3390,0.5607,-0.3868,0.6905,0.2433
844,0.0,0.0,0.0,0.0,0.0,0.0,-0.9123,-0.2030,-0.3435,0.5616,-0.3840,0.6910,0.2441
845,0.0,0.0,0.0,0.0,0.0,0.0,-0.9120,-0.1826,-0.3470,0.5622,-0.3807,0.6922,0.2446
846,0.0,0.0,0.0,0.0,0.0,0.0,-0.9151,-0.1632,-0.3485,0.5620,-0.3767,0.6944,0.2450
847,0.0,0.0,0.0,0.0,0.0,0.0,-0.9188,-0.1555,-0.3448,0.5617,-0.3724,0.6968,0.2456
848,0.0,0.0,0.0,0.0,0.0,0.0,-0.9263,-0.1474,-0.3420,0.5611,-0.3679,0.6993,0.2466
849,0.0,0.0,0.0,0.0,0.0,0.0,-0.9170,-0.1425,-0.3408,0.5603,-0.3636,0.7018,0.2476
850,0.0,0.0,0.0,0.0,0.0,0.0,-0.9222,-0.1411,-0.3386,0.5594,-0.3595,0.7042,0.2489
851,0.0,0.0,0.0,0.0,0.0,0.0,-0.9240,-0.1349,-0.3356,0.5583,-0.3552,0.7067,0.2503
852,0.0,0.0,0.0,0.0,0.0,0.0,-0.9242,-0.1248,-0.3344,0.5567,-0.3509,0.7095,0.2520
853,0.0,0.0,0.0,0.0,0.0,0.0,-0.9200,-0.1068,-0.3332,0.5546,-0.3467,0.7126,0.2536
854,0.0,0.0,0.0,0.0,0.0,0.0,-0.9149,-0.0764,-0.3425,0.5517,-0.3430,0.7164,0.2545
855,0.0,0.0,0.0,0.0,0.0,0.0,-0.9092,-0.0613,-0.3395,0.5482,-0.3408,0.7198,0.2553
856,0.0,0.0,0.0,0.0,0.0,0.0,-0.9087,-0.0499,-0.3287,0.5449,-0.3387,0.7234,0.2549
857,0.0,0.0,0.0,0.0,0.0,0.0,-0.9159,-0.0402,-0.3336,0.5422,-0.3367,0.7267,0.2541
858,0.0,0.0,0.0,0.0,0.0,0.0,-0.9199,-0.0411,-0.3374,0.5406,-0.3352,0.7287,0.2536
859,0.0,0.0,0.0,0.0,0.0,0.0,-0.9155,-0.0328,-0.3407,0.5402,-0.3337,0.7299,0.2533
860,0.0,0.0,0.0,0.0,0.0,0.0,-0.9230,-0.0518,-0.3384,0.5409,-0.3331,0.7294,0.2539
861,0.0,0.0,0.0,0.0,0.0,0.0,-0.9260,-0.0602,-0.3370,0.5414,-0.3335,0.7285,0.2548
862,0.0,0.0,0.0,0.0,0.0,0.0,-0.9306,-0.0511,-0.3333,0.5414,-0.3338,0.7284,0.2549
863,0.0,0.0,0.0,0.0,0.0,0.0,-0.9315,-0.0467,-0.3327,0.5417,-0.3343,0.7277,0.2554
864,0.0,0.0,0.0,0.0,0.0,0.0,-0.9308,-0.0390,-0.3321,0.5427,-0.3351,0.7262,0.2564
865,0.0,0.0,0.0,0.0,0.0,0.0,-0.9357,-0.0504,-0.3230,0.5444,-0.3365,0.7241,0.2572
866,0.0,0.0,0.0,0.0,0.0,0.0,-0.9406,-0.0583,-0.3210,0.5472,-0.3382,0.7208,0.2583
867,0.0,0.0,0.0,0.0,0.0,0.0,-0.9424,-0.0856,-0.3152,0.5501,-0.3402,0.7172,0.2593
868,0.0,0.0,0.0,0.0,0.0,0.0,-0.9352,-0.0982,-0.3084,0.5534,-0.3425,0.7133,0.2602
869,0.0,0.0,0.0,0.0,0.0,0.0,-0.9356,-0.1022,-0.3031,0.5566,-0.3453,0.7091,0.2611
870,0.0,0.0,0.0,0.0,0.0,0.0,-0.9326,-0.1102,-0.2927,0.5594,-0.3484,0.7052,0.2615
871,0.0,0.0,0.0,0.0,0.0,0.0,-0.9335,-0.1176,-0.2831,0.5622,-0.3517,0.7011,0.2620
872,0.0,0.0,0.0,0.0,0.0,0.0,-0.9344,-0.1236,-0.2769,0.5649,-0.3546,0.6974,0.2623
873,0.0,0.0,0.0,0.0,0.0,0.0,-0.9266,-0.1211,-0.2771,0.5672,-0.3567,0.6946,0.2620
874,0.0,0.0,0.0,0.0,0.0,0.0,-0.9330,-0.1299,-0.2742,0.5685,-0.3590,0.6924,0.2616
875,0.0,0.0,0.0,0.0,0.0,0.0,-0.9343,-0.1242,-0.2716,0.5691,-0.3612,0.6910,0.2612
876,0.0,0.0,0.0,0.0,0.0,0.0,-0.9177,-0.1176,-0.2715,0.5698,-0.3630,0.6896,0.2607
877,0.0,0.0,0.0,0.0,0.0,0.0,-0.9263,-0.1337,-0.2735,0.5708,-0.3646,0.6882,0.2599
878,0.0,0.0,0.0,0.0,0.0,0.0,-0.9331,-0.1556,-0.2775,0.5716,-0.3664,0.6867,0.2595
879,0.0,0.0,0.0,0.0,0.0,0.0,-0.9341,-0.1585,-0.2795,0.5719,-0.3680,0.6858,0.2591
880,0.0,0.0,0.0,0.0,0.0,0.0,-0.9322,-0.1570,-0.2795,0.5721,-0.3691,0.6852,0.2586
881,0.0,0.0,0.0,0.0,0.0,0.0,-0.9268,-0.1559,-0.2806,0.5723,-0.3699,0.6848,0.2583
882,0.0,0.0,0.0,0.0,0.0,0.0,-0.9284,-0.1524,-0.2873,0.5722,-0.3702,0.6849,0.2579
883,0.0,0.0,0.0,0.0,0.0,0.0,-0.9304,-0.1519,-0.2897,0.5718,-0.3705,0.6851,0.2578
884,0.0,0.0,0.0,0.0,0.0,0.0,-0.9347,-0.1501,-0.2885,0.5713,-0.3706,0.6854,0.2579
885,0.0,0.0,0.0,0.0,0.0,0.0,-0.9347,-0.1476,-0.2904,0.5708,-0.3705,0.6858,0.2581
886,0.0,0.0,0.0,0.0,0.0,0.0,-0.9322,-0.1427,-0.2919,0.5701,-0.3702,0.6865,0.2581
887,0.0,0.0,0.0,0.0,0.0,0.0,-0.9298,-0.1387,-0.2938,0.5694,-0.3698,0.6873,0.2582
888,0.0,0.0,0.0,0.0,0.0,0.0,-0.9293,-0.1338,-0.2986,0.5686,-0.3695,0.6879,0.2586
889,0.0,0.0,0.0,0.0,0.0,0.0,-0.9279,-0.1308,-0.3010,0.5676,-0.3691,0.6890,0.2586
890,0.0,0.0,0.0,0.0,0.0,0.0,-0.9239,-0.1274,-0.3006,0.5667,-0.3686,0.6901,0.2585
891,0.0,0.0,0.0,0.0,0.0,0.0,-0.9287,-0.1274,-0.2994,0.5661,-0.3679,0.6910,0.2582
892,0.0,0.0,0.0,0.0,0.0,0.0,-0.9306,-0.1251,-0.2979,0.5662,-0.3669,0.6916,0.2580
893,0.0,0.0,0.0,0.0,0.0,0.0,-0.9297,-0.1215,-0.3056,0.5670,-0.3659,0.6915,0.2580
894,0.0,0.0,0.0,0.0,0.0,0.0,-0.9236,-0.1178,-0.3159,0.5673,-0.3652,0.6914,0.2582
895,0.0,0.0,0.0,0.0,0.0,0.0,-0.9237,-0.1193,-0.3164,0.5670,-0.3646,0.6920,0.2583
896,0.0,0.0,0.0,0.0,0.0,0.0,-0.9232,-0.1208,-0.3150,0.5666,-0.3636,0.6928,0.2584
897,0.0,0.0,0.0,0.0,0.0,0.0,-0.9289,-0.1224,-0.3110,0.5663,-0.3627,0.6932,0.2591
898,0.0,0.0,0.0,0.0,0.0,0.0,-0.9260,-0.1253,-0.3087,0.5660,-0.3618,0.6935,0.2603
899,0.0,0.0,0.0,0.0,0.0,0.0,-0.9346,-0.1230,-0.3059,0.5654,-0.3602,0.6945,0.2613
900,0.0,0.0,0.0,0.0,0.0,0.0,-0.9377,-0.1149,-0.2999,0.5643,-0.3583,0.6959,0.2624
901,0.0,0.0,0.0,0.0,0.0,0.0,-0.9385,-0.1033,-0.3006,0.5630,-0.3564,0.6974,0.2637
902,0.0,0.0,0.0,0.0,0.0,0.0,-0.9368,-0.0907,-0.2985,0.5613,-0.3545,0.6995,0.2645
903,0.0,0.0,0.0,0.0,0.0,0.0,-0.9332,-0.0834,-0.2980,0.5595,-0.3523,0.7019,0.2648
904,0.0,0.0,0.0,0.0,0.0,0.0,-0.9357,-0.0814,-0.3003,0.5583,-0.3499,0.7040,0.2650
905,0.0,0.0,0.0,0.0,0.0,0.0,-0.9321,-0.0905,-0.3064,0.5571,-0.3477,0.7059,0.2653
906,0.0,0.0,0.0,0.0,0.0,0.0,-0.9298,-0.0962,-0.3075,0.5557,-0.3459,0.7080,0.2653
907,0.0,0.0,0.0,0.0,0.0,0.0,-0.9268,-0.0958,-0.3042,0.5539,-0.3443,0.7102,0.2650
908,0.0,0.0,0.0,0.0,0.0,0.0,-0.9292,-0.0978,-0.3008,0.5525,-0.3432,0.7119,0.2650
909,0.0,0.0,0.0,0.0,0.0,0.0,-0.9317,-0.1022,-0.3028,0.5514,-0.3424,0.7131,0.2649
910,0.0,0.0,0.0,0.0,0.0,0.0,-0.9289,-0.1006,-0.3081,0.5500,-0.3416,0.7148,0.2645
911,0.0,0.0,0.0,0.0,0.0,0.0,-0.9210,-0.1042,-0.3167,0.5481,-0.3414,0.7165,0.2642
912,0.0,0.0,0.0,0.0,0.0,0.0,-0.9236,-0.1159,-0.3173,0.5448,-0.3422,0.7194,0.2619
913,0.0,0.0,0.0,0.0,0.0,0.0,-0.9283,-0.1344,-0.3175,0.5430,-0.3435,0.7206,0.2605
914,0.0,0.0,0.0,0.0,0.0,0.0,-0.9315,-0.1154,-0.3233,0.5418,-0.3440,0.7219,0.2589
915,0.0,0.0,0.0,0.0,0.0,0.0,-0.9124,-0.0897,-0.3327,0.5410,-0.3445,0.7229,0.2572
916,0.0,0.0,0.0,0.0,0.0,0.0,-0.9228,-0.1010,-0.3330,0.5404,-0.3451,0.7237,0.2553
917,0.0,0.0,0.0,0.0,0.0,0.0,-0.9210,-0.0955,-0.3407,0.5392,-0.3458,0.7249,0.2536
918,0.0,0.0,0.0,0.0,0.0,0.0,-0.9222,-0.1056,-0.3428,0.5385,-0.3465,0.7254,0.2524
919,0.0,0.0,0.0,0.0,0.0,0.0,-0.9166,-0.1014,-0.3555,0.5373,-0.3468,0.7266,0.2512
920,0.0,0.0,0.0,0.0,0.0,0.0,-0.9150,-0.0704,-0.3535,0.5355,-0.3467,0.7285,0.2497
921,0.0,0.0,0.0,0.0,0.0,0.0,-0.9146,-0.0495,-0.3537,0.5348,-0.3458,0.7299,0.2483
922,0.0,0.0,0.0,0.0,0.0,0.0,-0.9138,-0.0464,-0.3599,0.5353,-0.3444,0.7307,0.2470
923,0.0,0.0,0.0,0.0,0.0,0.0,-0.9120,-0.0443,-0.3672,0.5358,-0.3433,0.7309,0.2467
924,0.0,0.0,0.0,0.0,0.0,0.0,-0.9121,-0.0482,-0.3702,0.5363,-0.3421,0.7310,0.2470
925,0.0,0.0,0.0,0.0,0.0,0.0,-0.9140,-0.0457,-0.3710,0.5368,-0.3407,0.7309,0.2481
926,0.0,0.0,0.0,0.0,0.0,0.0,-0.9238,-0.0620,-0.3638,0.5374,-0.3396,0.7304,0.2497
927,0.0,0.0,0.0,0.0,0.0,0.0,-0.9243,-0.0660,-0.3624,0.5379,-0.3385,0.7299,0.2515
928,0.0,0.0,0.0,0.0,0.0,0.0,-0.9198,-0.0591,-0.3605,0.5382,-0.3376,0.7292,0.2540
929,0.0,0.0,0.0,0.0,0.0,0.0,-0.9220,-0.0718,-0.3611,0.5380,-0.3373,0.7287,0.2566
930,0.0,0.0,0.0,0.0,0.0,0.0,-0.9299,-0.0895,-0.3549,0.5368,-0.3375,0.7285,0.2592
931,0.0,0.0,0.0,0.0,0.0,0.0,-0.9274,-0.0663,-0.3487,0.5357,-0.3372,0.7285,0.2621
932,0.0,0.0,0.0,0.0,0.0,0.0,-0.9166,-0.0579,-0.3489,0.5345,-0.3364,0.7287,0.2648
933,0.0,0.0,0.0,0.0,0.0,0.0,-0.9117,-0.0583,-0.3462,0.5333,-0.3357,0.7292,0.2667
934,0.0,0.0,0.0,0.0,0.0,0.0,-0.9069,-0.0617,-0.3454,0.5326,-0.3350,0.7294,0.2684
935,0.0,0.0,0.0,0.0,0.0,0.0,-0.9100,-0.0729,-0.3455,0.5327,-0.3341,0.7293,0.2699
936,0.0,0.0,0.0,0.0,0.0,0.0,-0.9089,-0.0800,-0.3534,0.5323,-0.3334,0.7294,0.2710
937,0.0,0.0,0.0,0.0,0.0,0.0,-0.9097,-0.1044,-0.3476,0.5317,-0.3330,0.7300,0.2711
938,0.0,0.0,0.0,0.0,0.0,0.0,-0.9137,-0.1167,-0.3433,0.5318,-0.3321,0.7307,0.2700
939,0.0,0.0,0.0,0.0,0.0,0.0,-0.9073,-0.1053,-0.3491,0.5321,-0.3308,0.7315,0.2688
940,0.0,0.0,0.0,0.0,0.0,0.0,-0.9040,-0.1047,-0.3531,0.5319,-0.3296,0.7329,0.2672
941,0.0,0.0,0.0,0.0,0.0,0.0,-0.9109,-0.1076,-0.3563,0.5309,-0.3284,0.7350,0.2648
942,0.0,0.0,0.0,0.0,0.0,0.0,-0.9062,-0.1031,-0.3627,0.5294,-0.3271,0.7376,0.2622
943,0.0,0.0,0.0,0.0,0.0,0.0,-0.9053,-0.1044,-0.3666,0.5284,-0.3256,0.7397,0.2600
944,0.0,0.0,0.0,0.0,0.0,0.0,-0.8977,-0.1003,-0.3759,0.5273,-0.3240,0.7419,0.2579
945,0.0,0.0,0.0,0.0,0.0,0.0,-0.8935,-0.0957,-0.3828,0.5263,-0.3222,0.7444,0.2552
946,0.0,0.0,0.0,0.0,0.0,0.0,-0.9055,-0.0915,-0.3818,0.5254,-0.3202,0.7469,0.2522
947,0.0,0.0,0.0,0.0,0.0,0.0,-0.9054,-0.0842,-0.3841,0.5245,-0.3183,0.7491,0.2497
948,0.0,0.0,0.0,0.0,0.0,0.0,-0.9130,-0.0745,-0.3866,0.5243,-0.3163,0.7510,0.2472
949,0.0,0.0,0.0,0.0,0.0,0.0,-0.9188,-0.0643,-0.3925,0.5242,-0.3141,0.7529,0.2444
950,0.0,0.0,0.0,0.0,0.0,0.0,-0.9081,-0.0548,-0.3990,0.5238,-0.3119,0.7548,0.2422
951,0.0,0.0,0.0,0.0,0.0,0.0,-0.8949,-0.0395,-0.4035,0.5235,-0.3096,0.7564,0.2406
952,0.0,0.0,0.0,0.0,0.0,0.0,-0.8984,-0.0250,-0.4002,0.5236,-0.3075,0.7577,0.2391
953,0.0,0.0,0.0,0.0,0.0,0.0,-0.9034,-0.0081,-0.3998,0.5238,-0.3052,0.7586,0.2387
954,0.0,0.0,0.0,0.0,0.0,0.0,-0.8944,0.0164,-0.4044,0.5234,-0.3030,0.7597,0.2392
955,0.0,0.0,0.0,0.0,0.0,0.0,-0.9064,0.0068,-0.3955,0.5221,-0.3015,0.7609,0.2398
956,0.0,0.0,0.0,0.0,0.0,0.0,-0.9086,-0.0064,-0.3957,0.5214,-0.3006,0.7612,0.2415
957,0.0,0.0,0.0,0.0,0.0,0.0,-0.9069,-0.0135,-0.3997,0.5213,-0.3002,0.7607,0.2439
958,0.0,0.0,0.0,0.0,0.0,0.0,-0.9030,-0.0145,-0.3989,0.5209,-0.3000,0.7602,0.2465
959,0.0,0.0,0.0,0.0,0.0,0.0,-0.9042,-0.0068,-0.3929,0.5205,-0.3002,0.7594,0.2496
960,0.0,0.0,0.0,0.0,0.0,0.0,-0.9054,-0.0016,-0.3870,0.5199,-0.3007,0.7585,0.2528
961,0.0,0.0,0.0,0.0,0.0,0.0,-0.9053,0.0017,-0.3840,0.5191,-0.3011,0.7581,0.2555
962,0.0,0.0,0.0,0.0,0.0,0.0,-0.9048,-0.0022,-0.3826,0.5190,-0.3014,0.7570,0.2585
963,0.0,0.0,0.0,0.0,0.0,0.0,-0.9035,-0.0095,-0.3804,0.5196,-0.3021,0.7551,0.2617
964,0.0,0.0,0.0,0.0,0.0,0.0,-0.9082,-0.0131,-0.3726,0.5208,-0.3030,0.7529,0.2648
965,0.0,0.0,0.0,0.0,0.0,0.0,-0.9162,-0.0139,-0.3651,0.5225,-0.3041,0.7502,0.2678
966,0.0,0.0,0.0,0.0,0.0,0.0,-0.9151,-0.0198,-0.3560,0.5244,-0.3055,0.7473,0.2706
967,0.0,0.0,0.0,0.0,0.0,0.0,-0.9146,-0.0253,-0.3508,0.5263,-0.3064,0.7447,0.2730
968,0.0,0.0,0.0,0.0,0.0,0.0,-0.9126,-0.0297,-0.3461,0.5281,-0.3072,0.7426,0.2746
969,0.0,0.0,0.0,0.0,0.0,0.0,-0.9164,-0.0328,-0.3407,0.5297,-0.3078,0.7407,0.2757
970,0.0,0.0,0.0,0.0,0.0,0.0,-0.9208,-0.0348,-0.3377,0.5312,-0.3082,0.7391,0.2766
971,0.0,0.0,0.0,0.0,0.0,0.0,-0.9222,-0.0388,-0.3358,0.5324,-0.3088,0.7379,0.2770
972,0.0,0.0,0.0,0.0,0.0,0.0,-0.9246,-0.0413,-0.3309,0.5335,-0.3095,0.7368,0.2769
973,0.0,0.0,0.0,0.0,0.0,0.0,-0.9249,-0.0365,-0.3284,0.5344,-0.3102,0.7359,0.2768
974,0.0,0.0,0.0,0.0,0.0,0.0,-0.9248,-0.0302,-0.3293,0.5347,-0.3113,0.7355,0.2763
975,0.0,0.0,0.0,0.0,0.0,0.0,-0.9277,-0.0317,-0.3292,0.5346,-0.3127,0.7351,0.2758
976,0.0,0.0,0.0,0.0,0.0,0.0,-0.9290,-0.0399,-0.3337,0.5343,-0.3145,0.7348,0.2752
977,0.0,0.0,0.0,0.0,0.0,0.0,-0.9233,-0.0392,-0.3382,0.5335,-0.3164,0.7347,0.2748
978,0.0,0.0,0.0,0.0,0.0,0.0,-0.9173,-0.0324,-0.3354,0.5332,-0.3182,0.7340,0.2751
979,0.0,0.0,0.0,0.0,0.0,0.0,-0.9226,-0.0305,-0.3361,0.5336,-0.3197,0.7327,0.2759
980,0.0,0.0,0.0,0.0,0.0,0.0,-0.9257,-0.0417,-0.3391,0.5339,-0.3211,0.7315,0.2770
981,0.0,0.0,0.0,0.0,0.0,0.0,-0.9241,-0.0513,-0.3432,0.5341,-0.3225,0.7305,0.2778
982,0.0,0.0,0.0,0.0,0.0,0.0,-0.9168,-0.0502,-0.3425,0.5338,-0.3239,0.7299,0.2782
983,0.0,0.0,0.0,0.0,0.0,0.0,-0.9155,-0.0604,-0.3412,0.5331,-0.3255,0.7295,0.2788
984,0.0,0.0,0.0,0.0,0.0,0.0,-0.9138,-0.0468,-0.3396,0.5325,-0.3263,0.7294,0.2791
985,0.0,0.0,0.0,0.0,0.0,0.0,-0.9107,-0.0312,-0.3443,0.5328,-0.3267,0.7290,0.2793
986,0.0,0.0,0.0,0.0,0.0,0.0,-0.9157,-0.0276,-0.3547,0.5320,-0.3272,0.7293,0.2794
987,0.0,0.0,0.0,0.0,0.0,0.0,-0.9145,-0.0194,-0.3517,0.5310,-0.3274,0.7300,0.2791
988,0.0,0.0,0.0,0.0,0.0,0.0,-0.9257,-0.0220,-0.3504,0.5310,-0.3271,0.7302,0.2791
989,0.0,0.0,0.0,0.0,0.0,0.0,-0.9272,-0.0230,-0.3528,0.5312,-0.3263,0.7305,0.2788
990,0.0,0.0,0.0,0.0,0.0,0.0,-0.9237,-0.0200,-0.3519,0.5320,-0.3251,0.7307,0.2781
991,0.0,0.0,0.0,0.0,0.0,0.0,-0.9203,-0.0171,-0.3514,0.5332,-0.3243,0.7303,0.2779
992,0.0,0.0,0.0,0.0,0.0,0.0,-0.9182,-0.0093,-0.3518,0.5340,-0.3237,0.7299,0.2780
993,0.0,0.0,0.0,0.0,0.0,0.0,-0.9200,-0.0124,-0.3441,0.5347,-0.3229,0.7297,0.2781
994,0.0,0.0,0.0,0.0,0.0,0.0,-0.9187,-0.0177,-0.3462,0.5356,-0.3219,0.7295,0.2781
995,0.0,0.0,0.0,0.0,0.0,0.0,-0.9157,-0.0133,-0.3457,0.5356,-0.3210,0.7299,0.2781
996,0.0,0.0,0.0,0.0,0.0,0.0,-0.9126,-0.0095,-0.3375,0.5358,-0.3201,0.7301,0.2781
997,0.0,0.0,0.0,0.0,0.0,0.0,-0.9213,-0.0136,-0.3344,0.5364,-0.3191,0.7301,0.2782
998,0.0,0.0,0.0,0.0,0.0,0.0,-0.9279,-0.0330,-0.3355,0.5364,-0.3188,0.7301,0.2785
999,0.0,0.0,0.0,0.0,0.0,0.0,-0.9266,-0.0433,-0.3333,0.5365,-0.3188,0.7300,0.2788
1000,0.0,0.0,0.0,0.0,0.0,0.0,-0.9258,-0.0417,-0.3401,0.5366,-0.3187,0.7298,0.2791
1001,0.0,0.0,0.0,0.0,0.0,0.0,-0.9211,-0.0474,-0.3408,0.5355,-0.3191,0.7304,0.2792
1002,0.0,0.0,0.0,0.0,0.0,0.0,-0.9224,-0.0504,-0.3355,0.5341,-0.3196,0.7313,0.2790
1003,0.0,0.0,0.0,0.0,0.0,0.0,-0.9205,-0.0489,-0.3375,0.5326,-0.3200,0.7323,0.2787
1004,0.0,0.0,0.0,0.0,0.0,0.0,-0.9225,-0.0499,-0.3389,0.5312,-0.3205,0.7332,0.2785
1005,0.0,0.0,0.0,0.0,0.0,0.0,-0.9245,-0.0523,-0.3403,0.5302,-0.3211,0.7337,0.2784
1006,0.0,0.0,0.0,0.0,0.0,0.0,-0.9217,-0.0493,-0.3442,0.5294,-0.3215,0.7342,0.2781
1007,0.0,0.0,0.0,0.0,0.0,0.0,-0.9211,-0.0415,-0.3475,0.5287,-0.3219,0.7348,0.2774
1008,0.0,0.0,0.0,0.0,0.0,0.0,-0.9161,-0.0282,-0.3498,0.5284,-0.3221,0.7352,0.2766
1009,0.0,0.0,0.0,0.0,0.0,0.0,-0.9164,-0.0151,-0.3506,0.5282,-0.3225,0.7355,0.2757
1010,0.0,0.0,0.0,0.0,0.0,0.0,-0.9143,-0.0039,-0.3524,0.5282,-0.3228,0.7357,0.2748
1011,0.0,0.0,0.0,0.0,0.0,0.0,-0.9164,-0.0122,-0.3529,0.5280,-0.3237,0.7356,0.2745
1012,0.0,0.0,0.0,0.0,0.0,0.0,-0.9131,-0.0223,-0.3508,0.5274,-0.3253,0.7354,0.2741
1013,0.0,0.0,0.0,0.0,0.0,0.0,-0.9115,-0.0185,-0.3464,0.5279,-0.3264,0.7348,0.2735
1014,0.0,0.0,0.0,0.0,0.0,0.0,-0.9148,-0.0083,-0.3519,0.5285,-0.3270,0.7344,0.2727
1015,0.0,0.0,0.0,0.0,0.0,0.0,-0.9121,0.0073,-0.3508,0.5287,-0.3276,0.7343,0.2720
1016,0.0,0.0,0.0,0.0,0.0,0.0,-0.9161,0.0203,-0.3475,0.5296,-0.3280,0.7337,0.2714
1017,0.0,0.0,0.0,0.0,0.0,0.0,-0.9186,0.0178,-0.3494,0.5316,-0.3278,0.7325,0.2710
1018,0.0,0.0,0.0,0.0,0.0,0.0,-0.9188,0.0071,-0.3467,0.5342,-0.3276,0.7308,0.2707
1019,0.0,0.0,0.0,0.0,0.0,0.0,-0.9222,-0.0037,-0.3405,0.5370,-0.3275,0.7287,0.2709
1020,0.0,0.0,0.0,0.0,0.0,0.0,-0.9213,-0.0076,-0.3401,0.5392,-0.3271,0.7274,0.2706
1021,0.0,0.0,0.0,0.0,0.0,0.0,-0.9251,-0.0102,-0.3342,0.5407,-0.3267,0.7267,0.2700
1022,0.0,0.0,0.0,0.0,0.0,0.0,-0.9264,-0.0133,-0.3279,0.5419,-0.3266,0.7261,0.2691
1023,0.0,0.0,0.0,0.0,0.0,0.0,-0.9313,-0.0168,-0.3264,0.5431,-0.3263,0.7260,0.2675
1024,0.0,0.0,0.0,0.0,0.0,0.0,-0.9323,-0.0256,-0.3226,0.5442,-0.3263,0.7257,0.2660
1025,0.0,0.0,0.0,0.0,0.0,0.0,-0.9271,-0.0372,-0.3201,0.5450,-0.3268,0.7253,0.2647
1026,0.0,0.0,0.0,0.0,0.0,0.0,-0.9218,-0.0377,-0.3174,0.5453,-0.3275,0.7253,0.2633
1027,0.0,0.0,0.0,0.0,0.0,0.0,-0.9192,-0.0358,-0.3121,0.5455,-0.3283,0.7255,0.2613
1028,0.0,0.0,0.0,0.0,0.0,0.0,-0.9255,-0.0388,-0.3115,0.5460,-0.3288,0.7259,0.2588
1029,0.0,0.0,0.0,0.0,0.0,0.0,-0.9312,-0.0534,-0.3169,0.5472,-0.3288,0.7259,0.2559
1030,0.0,0.0,0.0,0.0,0.0,0.0,-0.9355,-0.0703,-0.3200,0.5488,-0.3288,0.7257,0.2530
1031,0.0,0.0,0.0,0.0,0.0,0.0,-0.9416,-0.0835,-0.3224,0.5507,-0.3288,0.7255,0.2497
1032,0.0,0.0,0.0,0.0,0.0,0.0,-0.9524,-0.0904,-0.3247,0.5522,-0.3293,0.7252,0.2467
1033,0.0,0.0,0.0,0.0,0.0,0.0,-0.9457,-0.0803,-0.3164,0.5545,-0.3293,0.7243,0.2439
1034,0.0,0.0,0.0,0.0,0.0,0.0,-0.9289,-0.0711,-0.3284,0.5576,-0.3288,0.7230,0.2415
1035,0.0,0.0,0.0,0.0,0.0,0.0,-0.9237,-0.0961,-0.3334,0.5607,-0.3295,0.7210,0.2393
1036,0.0,0.0,0.0,0.0,0.0,0.0,-0.9235,-0.1254,-0.3247,0.5635,-0.3313,0.7185,0.2375
1037,0.0,0.0,0.0,0.0,0.0,0.0,-0.9254,-0.1270,-0.3213,0.5660,-0.3335,0.7163,0.2354
1038,0.0,0.0,0.0,0.0,0.0,0.0,-0.9264,-0.1348,-0.3190,0.5685,-0.3366,0.7133,0.2341
1039,0.0,0.0,0.0,0.0,0.0,0.0,-0.9227,-0.1420,-0.3193,0.5704,-0.3407,0.7100,0.2334
1040,0.0,0.0,0.0,0.0,0.0,0.0,-0.9245,-0.1432,-0.3120,0.5718,-0.3452,0.7070,0.2327
1041,0.0,0.0,0.0,0.0,0.0,0.0,-0.9167,-0.1362,-0.3164,0.5727,-0.3497,0.7041,0.2324
1042,0.0,0.0,0.0,0.0,0.0,0.0,-0.9260,-0.1623,-0.3006,0.5745,-0.3548,0.6999,0.2328
1043,0.0,0.0,0.0,0.0,0.0,0.0,-0.9083,-0.1585,-0.3113,0.5763,-0.3590,0.6961,0.2333
1044,0.0,0.0,0.0,0.0,0.0,0.0,-0.9207,-0.1771,-0.3098,0.5775,-0.3643,0.6923,0.2335
1045,0.0,0.0,0.0,0.0,0.0,0.0,-0.9289,-0.1831,-0.3058,0.5784,-0.3698,0.6883,0.2346
1046,0.0,0.0,0.0,0.0,0.0,0.0,-0.9257,-0.1909,-0.3046,0.5789,-0.3749,0.6846,0.2358
1047,0.0,0.0,0.0,0.0,0.0,0.0,-0.9334,-0.1979,-0.3006,0.5792,-0.3796,0.6813,0.2371
1048,0.0,0.0,0.0,0.0,0.0,0.0,-0.9300,-0.2042,-0.2964,0.5792,-0.3842,0.6782,0.2388
1049,0.0,0.0,0.0,0.0,0.0,0.0,-0.9277,-0.2120,-0.2928,0.5791,-0.3881,0.6754,0.2406
1050,0.0,0.0,0.0,0.0,0.0,0.0,-0.9190,-0.2153,-0.2917,0.5789,-0.3919,0.6725,0.2429
1051,0.0,0.0,0.0,0.0,0.0,0.0,-0.9208,-0.2140,-0.2882,0.5786,-0.3954,0.6697,0.2456
1052,0.0,0.0,0.0,0.0,0.0,0.0,-0.9189,-0.2085,-0.2930,0.5777,-0.3982,0.6679,0.2483
1053,0.0,0.0,0.0,0.0,0.0,0.0,-0.9089,-0.1989,-0.3038,0.5758,-0.4006,0.6671,0.2509
1054,0.0,0.0,0.0,0.0,0.0,0.0,-0.9035,-0.1924,-0.3092,0.5730,-0.4025,0.6676,0.2530
1055,0.0,0.0,0.0,0.0,0.0,0.0,-0.9065,-0.1777,-0.3219,0.5698,-0.4033,0.6696,0.2538
1056,0.0,0.0,0.0,0.0,0.0,0.0,-0.8985,-0.1570,-0.3280,0.5659,-0.4031,0.6732,0.2532
1057,0.0,0.0,0.0,0.0,0.0,0.0,-0.8915,-0.1404,-0.3299,0.5619,-0.4017,0.6780,0.2515
1058,0.0,0.0,0.0,0.0,0.0,0.0,-0.8952,-0.1337,-0.3287,0.5577,-0.3995,0.6835,0.2495
1059,0.0,0.0,0.0,0.0,0.0,0.0,-0.8991,-0.1323,-0.3290,0.5540,-0.3964,0.6892,0.2471
1060,0.0,0.0,0.0,0.0,0.0,0.0,-0.8977,-0.1268,-0.3338,0.5509,-0.3921,0.6951,0.2441
1061,0.0,0.0,0.0,0.0,0.0,0.0,-0.8852,-0.1246,-0.3409,0.5483,-0.3870,0.7010,0.2410
1062,0.0,0.0,0.0,0.0,0.0,0.0,-0.8898,-0.1186,-0.3533,0.5461,-0.3818,0.7066,0.2382
1063,0.0,0.0,0.0,0.0,0.0,0.0,-0.9141,-0.1075,-0.3673,0.5437,-0.3773,0.7115,0.2363
1064,0.0,0.0,0.0,0.0,0.0,0.0,-0.9375,-0.1135,-0.3715,0.5412,-0.3733,0.7161,0.2344
1065,0.0,0.0,0.0,0.0,0.0,0.0,-0.9384,-0.1295,-0.3776,0.5384,-0.3700,0.7206,0.2325
1066,0.0,0.0,0.0,0.0,0.0,0.0,-0.9336,-0.1205,-0.3829,0.5355,-0.3676,0.7244,0.2308
1067,0.0,0.0,0.0,0.0,0.0,0.0,-0.9271,-0.0894,-0.3801,0.5330,-0.3654,0.7280,0.2290
1068,0.0,0.0,0.0,0.0,0.0,0.0,-0.9081,-0.0647,-0.3890,0.5315,-0.3634,0.7304,0.2280
1069,0.0,0.0,0.0,0.0,0.0,0.0,-0.9298,-0.1168,-0.3709,0.5301,-0.3634,0.7317,0.2270
1070,0.0,0.0,0.0,0.0,0.0,0.0,-0.9078,-0.1064,-0.3661,0.5302,-0.3619,0.7327,0.2258
1071,0.0,0.0,0.0,0.0,0.0,0.0,-0.9001,-0.0697,-0.3787,0.5313,-0.3600,0.7330,0.2254
1072,0.0,0.0,0.0,0.0,0.0,0.0,-0.9031,-0.0829,-0.3726,0.5320,-0.3588,0.7333,0.2250
1073,0.0,0.0,0.0,0.0,0.0,0.0,-0.9093,-0.0975,-0.3775,0.5326,-0.3579,0.7334,0.2245
1074,0.0,0.0,0.0,0.0,0.0,0.0,-0.9185,-0.1060,-0.3725,0.5331,-0.3568,0.7337,0.2239
1075,0.0,0.0,0.0,0.0,0.0,0.0,-0.9220,-0.1118,-0.3730,0.5341,-0.3550,0.7341,0.2231
1076,0.0,0.0,0.0,0.0,0.0,0.0,-0.9189,-0.1165,-0.3799,0.5349,-0.3543,0.7339,0.2230
1077,0.0,0.0,0.0,0.0,0.0,0.0,-0.9159,-0.1195,-0.3723,0.5351,-0.3544,0.7336,0.2232
1078,0.0,0.0,0.0,0.0,0.0,0.0,-0.9170,-0.1114,-0.3663,0.5353,-0.3550,0.7331,0.2237
1079,0.0,0.0,0.0,0.0,0.0,0.0,-0.9006,-0.0859,-0.3659,0.5359,-0.3554,0.7322,0.2244
1080,0.0,0.0,0.0,0.0,0.0,0.0,-0.8924,-0.0971,-0.3596,0.5373,-0.3557,0.7308,0.2250
1081,0.0,0.0,0.0,0.0,0.0,0.0,-0.9035,-0.1215,-0.3597,0.5389,-0.3567,0.7290,0.2255
1082,0.0,0.0,0.0,0.0,0.0,0.0,-0.9093,-0.1275,-0.3562,0.5404,-0.3584,0.7270,0.2259
1083,0.0,0.0,0.0,0.0,0.0,0.0,-0.9128,-0.1290,-0.3561,0.5419,-0.3603,0.7248,0.2264
1084,0.0,0.0,0.0,0.0,0.0,0.0,-0.9190,-0.1331,-0.3507,0.5437,-0.3618,0.7227,0.2263
1085,0.0,0.0,0.0,0.0,0.0,0.0,-0.9171,-0.1360,-0.3503,0.5454,-0.3639,0.7203,0.2263
1086,0.0,0.0,0.0,0.0,0.0,0.0,-0.9228,-0.1406,-0.3415,0.5482,-0.3664,0.7168,0.2267
1087,0.0,0.0,0.0,0.0,0.0,0.0,-0.9087,-0.1380,-0.3414,0.5524,-0.3684,0.7123,0.2275
1088,0.0,0.0,0.0,0.0,0.0,0.0,-0.9056,-0.1638,-0.3347,0.5571,-0.3704,0.7073,0.2284
1089,0.0,0.0,0.0,0.0,0.0,0.0,-0.9087,-0.1805,-0.3291,0.5606,-0.3728,0.7030,0.2293
1090,0.0,0.0,0.0,0.0,0.0,0.0,-0.9082,-0.1636,-0.3230,0.5622,-0.3752,0.7003,0.2298
1091,0.0,0.0,0.0,0.0,0.0,0.0,-0.9179,-0.1488,-0.3147,0.5631,-0.3767,0.6988,0.2297
1092,0.0,0.0,0.0,0.0,0.0,0.0,-0.9213,-0.1607,-0.3071,0.5643,-0.3783,0.6969,0.2299
1093,0.0,0.0,0.0,0.0,0.0,0.0,-0.9226,-0.1850,-0.3036,0.5656,-0.3799,0.6948,0.2302
1094,0.0,0.0,0.0,0.0,0.0,0.0,-0.9137,-0.1936,-0.3069,0.5670,-0.3814,0.6926,0.2309
1095,0.0,0.0,0.0,0.0,0.0,0.0,-0.9173,-0.2038,-0.3099,0.5685,-0.3836,0.6896,0.2326
1096,0.0,0.0,0.0,0.0,0.0,0.0,-0.9204,-0.2096,-0.3114,0.5692,-0.3863,0.6867,0.2350
1097,0.0,0.0,0.0,0.0,0.0,0.0,-0.9188,-0.2048,-0.3099,0.5689,-0.3893,0.6844,0.2374
1098,0.0,0.0,0.0,0.0,0.0,0.0,-0.9232,-0.1972,-0.3004,0.5680,-0.3917,0.6831,0.2396
1099,0.0,0.0,0.0,0.0,0.0,0.0,-0.9210,-0.1718,-0.3077,0.5669,-0.3928,0.6828,0.2412
1100,0.0,0.0,0.0,0.0,0.0,0.0,-0.9231,-0.1668,-0.3178,0.5656,-0.3932,0.6831,0.2427
1101,0.0,0.0,0.0,0.0,0.0,0.0,-0.9206,-0.1584,-0.3216,0.5643,-0.3933,0.6836,0.2443
1102,0.0,0.0,0.0,0.0,0.0,0.0,-0.9136,-0.1646,-0.3243,0.5632,-0.3931,0.6844,0.2448
1103,0.0,0.0,0.0,0.0,0.0,0.0,-0.9138,-0.1767,-0.3250,0.5628,-0.3930,0.6847,0.2450
1104,0.0,0.0,0.0,0.0,0.0,0.0,-0.9166,-0.1709,-0.3248,0.5635,-0.3926,0.6839,0.2462
1105,0.0,0.0,0.0,0.0,0.0,0.0,-0.9136,-0.1641,-0.3277,0.5646,-0.3924,0.6826,0.2477
1106,0.0,0.0,0.0,0.0,0.0,0.0,-0.9186,-0.1803,-0.3206,0.5650,-0.3930,0.6813,0.2491
1107,0.0,0.0,0.0,0.0,0.0,0.0,-0.9174,-0.1697,-0.3170,0.5653,-0.3939,0.6802,0.2504
1108,0.0,0.0,0.0,0.0,0.0,0.0,-0.9185,-0.1600,-0.3129,0.5655,-0.3946,0.6790,0.2517
1109,0.0,0.0,0.0,0.0,0.0,0.0,-0.9237,-0.1572,-0.3108,0.5659,-0.3952,0.6780,0.2526
1110,0.0,0.0,0.0,0.0,0.0,0.0,-0.9240,-0.1520,-0.3058,0.5661,-0.3962,0.6771,0.2532
1111,0.0,0.0,0.0,0.0,0.0,0.0,-0.9255,-0.1555,-0.3030,0.5659,-0.3978,0.6760,0.2540
1112,0.0,0.0,0.0,0.0,0.0,0.0,-0.9250,-0.1624,-0.2983,0.5654,-0.3997,0.6750,0.2549
1113,0.0,0.0,0.0,0.0,0.0,0.0,-0.9196,-0.1604,-0.2969,0.5650,-0.4012,0.6743,0.2553
1114,0.0,0.0,0.0,0.0,0.0,0.0,-0.9137,-0.1485,-0.3037,0.5644,-0.4025,0.6738,0.2556
1115,0.0,0.0,0.0,0.0,0.0,0.0,-0.9142,-0.1451,-0.3051,0.5636,-0.4041,0.6735,0.2558
1116,0.0,0.0,0.0,0.0,0.0,0.0,-0.9189,-0.1428,-0.3024,0.5627,-0.4054,0.6733,0.2561
1117,0.0,0.0,0.0,0.0,0.0,0.0,-0.9167,-0.1480,-0.3045,0.5619,-0.4061,0.6737,0.2559
1118,0.0,0.0,0.0,0.0,0.0,0.0,-0.9125,-0.1493,-0.3100,0.5612,-0.4062,0.6745,0.2551
1119,0.0,0.0,0.0,0.0,0.0,0.0,-0.9125,-0.1507,-0.3125,0.5603,-0.4062,0.6754,0.2546
1120,0.0,0.0,0.0,0.0,0.0,0.0,-0.9152,-0.1575,-0.3183,0.5590,-0.4061,0.6768,0.2539
1121,0.0,0.0,0.0,0.0,0.0,0.0,-0.9191,-0.1531,-0.3201,0.5574,-0.4056,0.6788,0.2529
1122,0.0,0.0,0.0,0.0,0.0,0.0,-0.9255,-0.1551,-0.3233,0.5560,-0.4050,0.6807,0.2520
1123,0.0,0.0,0.0,0.0,0.0,0.0,-0.9289,-0.1526,-0.3285,0.5544,-0.4040,0.6830,0.2510
1124,0.0,0.0,0.0,0.0,0.0,0.0,-0.9261,-0.1505,-0.3329,0.5529,-0.4029,0.6850,0.2504
1125,0.0,0.0,0.0,0.0,0.0,0.0,-0.9267,-0.1534,-0.3334,0.5519,-0.4015,0.6869,0.2498
1126,0.0,0.0,0.0,0.0,0.0,0.0,-0.9158,-0.1441,-0.3302,0.5516,-0.3992,0.6888,0.2491
1127,0.0,0.0,0.0,0.0,0.0,0.0,-0.9101,-0.1326,-0.3432,0.5512,-0.3966,0.6906,0.2487
1128,0.0,0.0,0.0,0.0,0.0,0.0,-0.9229,-0.1509,-0.3388,0.5501,-0.3950,0.6926,0.2484
1129,0.0,0.0,0.0,0.0,0.0,0.0,-0.9266,-0.1471,-0.3371,0.5490,-0.3935,0.6945,0.2480
1130,0.0,0.0,0.0,0.0,0.0,0.0,-0.9200,-0.1498,-0.3393,0.5477,-0.3924,0.6962,0.2477
1131,0.0,0.0,0.0,0.0,0.0,0.0,-0.9166,-0.1439,-0.3427,0.5467,-0.3915,0.6974,0.2479
1132,0.0,0.0,0.0,0.0,0.0,0.0,-0.9090,-0.1233,-0.3460,0.5459,-0.3902,0.6988,0.2480
1133,0.0,0.0,0.0,0.0,0.0,0.0,-0.9057,-0.1296,-0.3457,0.5451,-0.3887,0.7001,0.2482
1134,0.0,0.0,0.0,0.0,0.0,0.0,-0.9138,-0.1423,-0.3496,0.5447,-0.3873,0.7010,0.2487
1135,0.0,0.0,0.0,0.0,0.0,0.0,-0.9114,-0.1442,-0.3482,0.5444,-0.3856,0.7021,0.2490
1136,0.0,0.0,0.0,0.0,0.0,0.0,-0.9052,-0.1340,-0.3424,0.5451,-0.3829,0.7030,0.2492
1137,0.0,0.0,0.0,0.0,0.0,0.0,-0.9016,-0.1338,-0.3503,0.5465,-0.3799,0.7032,0.2500
1138,0.0,0.0,0.0,0.0,0.0,0.0,-0.9233,-0.1634,-0.3453,0.5469,-0.3779,0.7040,0.2501
1139,0.0,0.0,0.0,0.0,0.0,0.0,-0.9195,-0.1508,-0.3384,0.5466,-0.3765,0.7051,0.2495
1140,0.0,0.0,0.0,0.0,0.0,0.0,-0.9170,-0.1167,-0.3422,0.5466,-0.3749,0.7061,0.2491
1141,0.0,0.0,0.0,0.0,0.0,0.0,-0.9113,-0.1196,-0.3415,0.5465,-0.3741,0.7067,0.2490
1142,0.0,0.0,0.0,0.0,0.0,0.0,-0.9225,-0.1547,-0.3398,0.5463,-0.3743,0.7066,0.2494
1143,0.0,0.0,0.0,0.0,0.0,0.0,-0.9156,-0.1468,-0.3428,0.5448,-0.3746,0.7076,0.2492
1144,0.0,0.0,0.0,0.0,0.0,0.0,-0.9105,-0.1366,-0.3394,0.5432,-0.3748,0.7090,0.2486
1145,0.0,0.0,0.0,0.0,0.0,0.0,-0.9204,-0.1518,-0.3369,0.5423,-0.3748,0.7098,0.2482
1146,0.0,0.0,0.0,0.0,0.0,0.0,-0.9249,-0.1607,-0.3350,0.5421,-0.3748,0.7101,0.2478
1147,0.0,0.0,0.0,0.0,0.0,0.0,-0.9180,-0.1548,-0.3347,0.5423,-0.3744,0.7102,0.2476
1148,0.0,0.0,0.0,0.0,0.0,0.0,-0.9102,-0.1463,-0.3396,0.5428,-0.3739,0.7101,0.2477
1149,0.0,0.0,0.0,0.0,0.0,0.0,-0.9091,-0.1346,-0.3418,0.5432,-0.3730,0.7103,0.2476
1150,0.0,0.0,0.0,0.0,0.0,0.0,-0.9166,-0.1231,-0.3394,0.5435,-0.3719,0.7107,0.2475
1151,0.0,0.0,0.0,0.0,0.0,0.0,-0.9174,-0.1143,-0.3402,0.5436,-0.3704,0.7115,0.2471
1152,0.0,0.0,0.0,0.0,0.0,0.0,-0.9165,-0.1138,-0.3441,0.5434,-0.3691,0.7124,0.2468
1153,0.0,0.0,0.0,0.0,0.0,0.0,-0.9128,-0.1126,-0.3505,0.5427,-0.3682,0.7136,0.2462
1154,0.0,0.0,0.0,0.0,0.0,0.0,-0.9128,-0.1117,-0.3495,0.5417,-0.3677,0.7149,0.2456
1155,0.0,0.0,0.0,0.0,0.0,0.0,-0.9203,-0.1139,-0.3406,0.5413,-0.3672,0.7156,0.2453
1156,0.0,0.0,0.0,0.0,0.0,0.0,-0.9296,-0.1144,-0.3452,0.5415,-0.3665,0.7159,0.2448
1157,0.0,0.0,0.0,0.0,0.0,0.0,-0.9231,-0.1210,-0.3508,0.5418,-0.3665,0.7155,0.2454
1158,0.0,0.0,0.0,0.0,0.0,0.0,-0.9282,-0.1366,-0.3514,0.5418,-0.3672,0.7148,0.2463
1159,0.0,0.0,0.0,0.0,0.0,0.0,-0.9316,-0.1421,-0.3480,0.5411,-0.3686,0.7143,0.2472
1160,0.0,0.0,0.0,0.0,0.0,0.0,-0.9201,-0.1191,-0.3485,0.5411,-0.3699,0.7132,0.2485
1161,0.0,0.0,0.0,0.0,0.0,0.0,-0.9113,-0.1220,-0.3435,0.5419,-0.3710,0.7115,0.2502
1162,0.0,0.0,0.0,0.0,0.0,0.0,-0.9209,-0.1192,-0.3412,0.5427,-0.3717,0.7100,0.2514
1163,0.0,0.0,0.0,0.0,0.0,0.0,-0.9227,-0.1125,-0.3415,0.5440,-0.3716,0.7086,0.2524
1164,0.0,0.0,0.0,0.0,0.0,0.0,-0.9209,-0.1256,-0.3379,0.5461,-0.3712,0.7067,0.2539
1165,0.0,0.0,0.0,0.0,0.0,0.0,-0.9148,-0.1313,-0.3392,0.5480,-0.3711,0.7045,0.2561
1166,0.0,0.0,0.0,0.0,0.0,0.0,-0.9123,-0.1279,-0.3372,0.5489,-0.3713,0.7031,0.2579
1167,0.0,0.0,0.0,0.0,0.0,0.0,-0.9091,-0.1187,-0.3343,0.5489,-0.3717,0.7023,0.2594
1168,0.0,0.0,0.0,0.0,0.0,0.0,-0.9064,-0.1130,-0.3270,0.5488,-0.3726,0.7015,0.2605
1169,0.0,0.0,0.0,0.0,0.0,0.0,-0.9037,-0.1043,-0.3226,0.5492,-0.3731,0.7006,0.2613
1170,0.0,0.0,0.0,0.0,0.0,0.0,-0.8983,-0.0841,-0.3320,0.5497,-0.3728,0.7004,0.2613
1171,0.0,0.0,0.0,0.0,0.0,0.0,-0.9011,-0.1031,-0.3328,0.5492,-0.3735,0.7004,0.2613
1172,0.0,0.0,0.0,0.0,0.0,0.0,-0.9173,-0.1204,-0.3302,0.5484,-0.3745,0.7007,0.2609
1173,0.0,0.0,0.0,0.0,0.0,0.0,-0.9166,-0.1236,-0.3380,0.5474,-0.3753,0.7012,0.2602
1174,0.0,0.0,0.0,0.0,0.0,0.0,-0.9215,-0.1344,-0.3347,0.5458,-0.3758,0.7027,0.2590
1175,0.0,0.0,0.0,0.0,0.0,0.0,-0.9109,-0.1017,-0.3392,0.5444,-0.3749,0.7050,0.2570
1176,0.0,0.0,0.0,0.0,0.0,0.0,-0.8990,-0.0776,-0.3445,0.5431,-0.3733,0.7077,0.2547
1177,0.0,0.0,0.0,0.0,0.0,0.0,-0.9025,-0.0819,-0.3483,0.5420,-0.3711,0.7107,0.2521
1178,0.0,0.0,0.0,0.0,0.0,0.0,-0.9129,-0.0849,-0.3558,0.5411,-0.3690,0.7130,0.2503
1179,0.0,0.0,0.0,0.0,0.0,0.0,-0.9184,-0.0917,-0.3592,0.5404,-0.3664,0.7155,0.2484
1180,0.0,0.0,0.0,0.0,0.0,0.0,-0.9153,-0.0954,-0.3661,0.5394,-0.3638,0.7182,0.2467
1181,0.0,0.0,0.0,0.0,0.0,0.0,-0.9226,-0.0989,-0.3640,0.5382,-0.3619,0.7204,0.2457
1182,0.0,0.0,0.0,0.0,0.0,0.0,-0.9149,-0.1012,-0.3667,0.5370,-0.3601,0.7224,0.2452
1183,0.0,0.0,0.0,0.0,0.0,0.0,-0.9113,-0.1000,-0.3765,0.5350,-0.3589,0.7245,0.2450
1184,0.0,0.0,0.0,0.0,0.0,0.0,-0.9099,-0.1004,-0.3780,0.5320,-0.3586,0.7270,0.2447
1185,0.0,0.0,0.0,0.0,0.0,0.0,-0.9128,-0.1107,-0.3732,0.5294,-0.3579,0.7293,0.2444
1186,0.0,0.0,0.0,0.0,0.0,0.0,-0.9120,-0.1077,-0.3805,0.5278,-0.3566,0.7309,0.2450
1187,0.0,0.0,0.0,0.0,0.0,0.0,-0.9052,-0.0958,-0.3877,0.5256,-0.3553,0.7329,0.2457
1188,0.0,0.0,0.0,0.0,0.0,0.0,-0.9060,-0.0846,-0.3899,0.5230,-0.3539,0.7354,0.2460
1189,0.0,0.0,0.0,0.0,0.0,0.0,-0.8980,-0.0660,-0.3923,0.5203,-0.3523,0.7380,0.2461
1190,0.0,0.0,0.0,0.0,0.0,0.0,-0.9019,-0.0472,-0.3884,0.5193,-0.3508,0.7393,0.2464
1191,0.0,0.0,0.0,0.0,0.0,0.0,-0.9042,-0.0365,-0.3896,0.5190,-0.3492,0.7401,0.2467
1192,0.0,0.0,0.0,0.0,0.0,0.0,-0.9013,-0.0384,-0.3902,0.5199,-0.3475,0.7402,0.2473
1193,0.0,0.0,0.0,0.0,0.0,0.0,-0.9049,-0.0501,-0.3903,0.5216,-0.3460,0.7394,0.2480
1194,0.0,0.0,0.0,0.0,0.0,0.0,-0.9119,-0.0682,-0.3865,0.5234,-0.3456,0.7380,0.2490
1195,0.0,0.0,0.0,0.0,0.0,0.0,-0.9196,-0.0763,-0.3772,0.5251,-0.3460,0.7362,0.2503
1196,0.0,0.0,0.0,0.0,0.0,0.0,-0.9216,-0.0886,-0.3716,0.5265,-0.3471,0.7341,0.2518
1197,0.0,0.0,0.0,0.0,0.0,0.0,-0.9139,-0.0884,-0.3742,0.5276,-0.3483,0.7323,0.2531
1198,0.0,0.0,0.0,0.0,0.0,0.0,-0.9121,-0.0962,-0.3720,0.5283,-0.3499,0.7306,0.2544
1199,0.0,0.0,0.0,0.0,0.0,0.0,-0.9070,-0.0909,-0.3672,0.5290,-0.3514,0.7287,0.2561
1200,0.0,0.0,0.0,0.0,0.0,0.0,-0.9095,-0.0833,-0.3564,0.5302,-0.3523,0.7269,0.2574
1201,0.0,0.0,0.0,0.0,0.0,0.0,-0.9109,-0.0849,-0.3539,0.5318,-0.3530,0.7250,0.2588
1202,0.0,0.0,0.0,0.0,0.0,0.0,-0.9142,-0.0860,-0.3500,0.5337,-0.3532,0.7231,0.2600
1203,0.0,0.0,0.0,0.0,0.0,0.0,-0.9118,-0.0874,-0.3496,0.5356,-0.3529,0.7215,0.2608
1204,0.0,0.0,0.0,0.0,0.0,0.0,-0.9129,-0.0913,-0.3492,0.5371,-0.3529,0.7201,0.2615
1205,0.0,0.0,0.0,0.0,0.0,0.0,-0.9123,-0.0909,-0.3467,0.5382,-0.3532,0.7189,0.2622
1206,0.0,0.0,0.0,0.0,0.0,0.0,-0.9127,-0.0900,-0.3433,0.5391,-0.3536,0.7179,0.2626
1207,0.0,0.0,0.0,0.0,0.0,0.0,-0.9141,-0.0930,-0.3399,0.5398,-0.3540,0.7170,0.2630
1208,0.0,0.0,0.0,0.0,0.0,0.0,-0.9131,-0.0959,-0.3376,0.5404,-0.3543,0.7164,0.2631
1209,0.0,0.0,0.0,0.0,0.0,0.0,-0.9132,-0.0988,-0.3372,0.5409,-0.3545,0.7160,0.2629
1210,0.0,0.0,0.0,0.0,0.0,0.0,-0.9180,-0.0979,-0.3380,0.5415,-0.3549,0.7154,0.2627
1211,0.0,0.0,0.0,0.0,0.0,0.0,-0.9161,-0.0974,-0.3395,0.5419,-0.3553,0.7150,0.2623
1212,0.0,0.0,0.0,0.0,0.0,0.0,-0.9138,-0.0987,-0.3439,0.5421,-0.3558,0.7149,0.2616
1213,0.0,0.0,0.0,0.0,0.0,0.0,-0.9130,-0.0986,-0.3493,0.5418,-0.3560,0.7153,0.2609
1214,0.0,0.0,0.0,0.0,0.0,0.0,-0.9174,-0.0996,-0.3521,0.5414,-0.3566,0.7154,0.2606
1215,0.0,0.0,0.0,0.0,0.0,0.0,-0.9235,-0.0900,-0.3493,0.5408,-0.3573,0.7156,0.2603
1216,0.0,0.0,0.0,0.0,0.0,0.0,-0.9260,-0.0770,-0.3432,0.5402,-0.3584,0.7154,0.2605
1217,0.0,0.0,0.0,0.0,0.0,0.0,-0.9177,-0.0745,-0.3419,0.5397,-0.3603,0.7146,0.2612
1218,0.0,0.0,0.0,0.0,0.0,0.0,-0.9095,-0.0724,-0.3446,0.5389,-0.3622,0.7141,0.2616
1219,0.0,0.0,0.0,0.0,0.0,0.0,-0.9097,-0.0767,-0.3475,0.5383,-0.3643,0.7134,0.2619
1220,0.0,0.0,0.0,0.0,0.0,0.0,-0.9151,-0.0836,-0.3475,0.5381,-0.3667,0.7121,0.2624
1221,0.0,0.0,0.0,0.0,0.0,0.0,-0.9204,-0.0886,-0.3445,0.5383,-0.3685,0.7110,0.2624
1222,0.0,0.0,0.0,0.0,0.0,0.0,-0.9237,-0.0858,-0.3419,0.5389,-0.3696,0.7102,0.2620
1223,0.0,0.0,0.0,0.0,0.0,0.0,-0.9204,-0.0842,-0.3478,0.5395,-0.3703,0.7094,0.2618
1224,0.0,0.0,0.0,0.0,0.0,0.0,-0.9239,-0.0920,-0.3469,0.5405,-0.3706,0.7086,0.2616
1225,0.0,0.0,0.0,0.0,0.0,0.0,-0.9269,-0.0989,-0.3426,0.5416,-0.3701,0.7082,0.2612
1226,0.0,0.0,0.0,0.0,0.0,0.0,-0.9235,-0.1077,-0.3380,0.5435,-0.3681,0.7080,0.2604
1227,0.0,0.0,0.0,0.0,0.0,0.0,-0.9261,-0.1096,-0.3418,0.5462,-0.3648,0.7082,0.2591
1228,0.0,0.0,0.0,0.0,0.0,0.0,-0.9265,-0.0944,-0.3493,0.5482,-0.3617,0.7086,0.2579
1229,0.0,0.0,0.0,0.0,0.0,0.0,-0.9275,-0.0800,-0.3427,0.5493,-0.3600,0.7091,0.2568
1230,0.0,0.0,0.0,0.0,0.0,0.0,-0.9187,-0.0966,-0.3282,0.5503,-0.3594,0.7087,0.2566
1231,0.0,0.0,0.0,0.0,0.0,0.0,-0.9203,-0.1371,-0.3231,0.5513,-0.3602,0.7070,0.2578
1232,0.0,0.0,0.0,0.0,0.0,0.0,-0.9135,-0.1345,-0.3233,0.5515,-0.3627,0.7052,0.2588
1233,0.0,0.0,0.0,0.0,0.0,0.0,-0.9106,-0.1310,-0.3257,0.5503,-0.3673,0.7037,0.2592
1234,0.0,0.0,0.0,0.0,0.0,0.0,-0.9415,-0.1823,-0.2855,0.5518,-0.3724,0.6994,0.2601
1235,0.0,0.0,0.0,0.0,0.0,0.0,-0.9162,-0.1357,-0.3131,0.5547,-0.3760,0.6948,0.2612
1236,0.0,0.0,0.0,0.0,0.0,0.0,-0.9084,-0.1569,-0.3171,0.5562,-0.3807,0.6910,0.2612
1237,0.0,0.0,0.0,0.0,0.0,0.0,-0.9153,-0.1667,-0.3151,0.5561,-0.3860,0.6887,0.2599
1238,0.0,0.0,0.0,0.0,0.0,0.0,-0.9312,-0.1587,-0.3178,0.5547,-0.3903,0.6882,0.2577
1239,0.0,0.0,0.0,0.0,0.0,0.0,-0.9231,-0.1609,-0.3206,0.5526,-0.3942,0.6885,0.2552
1240,0.0,0.0,0.0,0.0,0.0,0.0,-0.9167,-0.1594,-0.3188,0.5515,-0.3977,0.6883,0.2531
1241,0.0,0.0,0.0,0.0,0.0,0.0,-0.9219,-0.1552,-0.3142,0.5531,-0.3997,0.6864,0.2514
1242,0.0,0.0,0.0,0.0,0.0,0.0,-0.8994,-0.1532,-0.3255,0.5562,-0.4011,0.6831,0.2511
1243,0.0,0.0,0.0,0.0,0.0,0.0,-0.9299,-0.2070,-0.3280,0.5581,-0.4035,0.6801,0.2512
1244,0.0,0.0,0.0,0.0,0.0,0.0,-0.9182,-0.1956,-0.3335,0.5583,-0.4060,0.6786,0.2510
1245,0.0,0.0,0.0,0.0,0.0,0.0,-0.9008,-0.1715,-0.3326,0.5582,-0.4078,0.6777,0.2507
1246,0.0,0.0,0.0,0.0,0.0,0.0,-0.8927,-0.1437,-0.3377,0.5582,-0.4088,0.6772,0.2504
1247,0.0,0.0,0.0,0.0,0.0,0.0,-0.8940,-0.1310,-0.3379,0.5579,-0.4105,0.6765,0.2502
1248,0.0,0.0,0.0,0.0,0.0,0.0,-0.9129,-0.1717,-0.3322,0.5578,-0.4121,0.6756,0.2502
1249,0.0,0.0,0.0,0.0,0.0,0.0,-0.9130,-0.1707,-0.3346,0.5571,-0.4138,0.6751,0.2503
1250,0.0,0.0,0.0,0.0,0.0,0.0,-0.9183,-0.1698,-0.3344,0.5566,-0.4154,0.6744,0.2508
1251,0.0,0.0,0.0,0.0,0.0,0.0,-0.9190,-0.1775,-0.3399,0.5563,-0.4164,0.6738,0.2514
1252,0.0,0.0,0.0,0.0,0.0,0.0,-0.9209,-0.1756,-0.3383,0.5557,-0.4169,0.6737,0.2519
1253,0.0,0.0,0.0,0.0,0.0,0.0,-0.9186,-0.1660,-0.3300,0.5552,-0.4167,0.6741,0.2526
1254,0.0,0.0,0.0,0.0,0.0,0.0,-0.9121,-0.1543,-0.3310,0.5549,-0.4153,0.6749,0.2531
1255,0.0,0.0,0.0,0.0,0.0,0.0,-0.9110,-0.1445,-0.3347,0.5546,-0.4131,0.6763,0.2537
1256,0.0,0.0,0.0,0.0,0.0,0.0,-0.9163,-0.1402,-0.3344,0.5543,-0.4105,0.6780,0.2541
1257,0.0,0.0,0.0,0.0,0.0,0.0,-0.9216,-0.1373,-0.3352,0.5540,-0.4074,0.6801,0.2540
1258,0.0,0.0,0.0,0.0,0.0,0.0,-0.9181,-0.1324,-0.3367,0.5537,-0.4042,0.6824,0.2539
1259,0.0,0.0,0.0,0.0,0.0,0.0,-0.9143,-0.1259,-0.3430,0.5529,-0.4012,0.6848,0.2538
1260,0.0,0.0,0.0,0.0,0.0,0.0,-0.9080,-0.1175,-0.3478,0.5513,-0.3986,0.6877,0.2535
1261,0.0,0.0,0.0,0.0,0.0,0.0,-0.9022,-0.1010,-0.3409,0.5493,-0.3960,0.6909,0.2534
1262,0.0,0.0,0.0,0.0,0.0,0.0,-0.9136,-0.1004,-0.3314,0.5481,-0.3931,0.6934,0.2536
1263,0.0,0.0,0.0,0.0,0.0,0.0,-0.9108,-0.1047,-0.3349,0.5483,-0.3889,0.6956,0.2533
1264,0.0,0.0,0.0,0.0,0.0,0.0,-0.9068,-0.1152,-0.3411,0.5490,-0.3844,0.6975,0.2534
1265,0.0,0.0,0.0,0.0,0.0,0.0,-0.9273,-0.1455,-0.3448,0.5485,-0.3807,0.6999,0.2538
1266,0.0,0.0,0.0,0.0,0.0,0.0,-0.9355,-0.1689,-0.3465,0.5465,-0.3780,0.7030,0.2534
1267,0.0,0.0,0.0,0.0,0.0,0.0,-0.9370,-0.1723,-0.3470,0.5446,-0.3752,0.7062,0.2531
1268,0.0,0.0,0.0,0.0,0.0,0.0,-0.9212,-0.1408,-0.3571,0.5421,-0.3718,0.7099,0.2527
1269,0.0,0.0,0.0,0.0,0.0,0.0,-0.9147,-0.1601,-0.3547,0.5397,-0.3688,0.7133,0.2527
1270,0.0,0.0,0.0,0.0,0.0,0.0,-0.9200,-0.1519,-0.3587,0.5371,-0.3659,0.7168,0.2528
1271,0.0,0.0,0.0,0.0,0.0,0.0,-0.9091,-0.1367,-0.3588,0.5344,-0.3630,0.7202,0.2528
1272,0.0,0.0,0.0,0.0,0.0,0.0,-0.9142,-0.1518,-0.3580,0.5327,-0.3600,0.7231,0.2524
1273,0.0,0.0,0.0,0.0,0.0,0.0,-0.9210,-0.1460,-0.3635,0.5317,-0.3566,0.7260,0.2512
1274,0.0,0.0,0.0,0.0,0.0,0.0,-0.9134,-0.1303,-0.3634,0.5310,-0.3534,0.7284,0.2502
1275,0.0,0.0,0.0,0.0,0.0,0.0,-0.9099,-0.1200,-0.3667,0.5309,-0.3504,0.7301,0.2498
1276,0.0,0.0,0.0,0.0,0.0,0.0,-0.9102,-0.1094,-0.3646,0.5312,-0.3479,0.7310,0.2497
1277,0.0,0.0,0.0,0.0,0.0,0.0,-0.9066,-0.1115,-0.3560,0.5319,-0.3455,0.7315,0.2501
1278,0.0,0.0,0.0,0.0,0.0,0.0,-0.9024,-0.1167,-0.3577,0.5336,-0.3431,0.7314,0.2503
1279,0.0,0.0,0.0,0.0,0.0,0.0,-0.9003,-0.1020,-0.3618,0.5355,-0.3411,0.7310,0.2502
1280,0.0,0.0,0.0,0.0,0.0,0.0,-0.9100,-0.0883,-0.3535,0.5366,-0.3395,0.7309,0.2501
1281,0.0,0.0,0.0,0.0,0.0,0.0,-0.9092,-0.0821,-0.3462,0.5380,-0.3380,0.7307,0.2500
1282,0.0,0.0,0.0,0.0,0.0,0.0,-0.9168,-0.0838,-0.3382,0.5401,-0.3370,0.7294,0.2505
1283,0.0,0.0,0.0,0.0,0.0,0.0,-0.9132,-0.0760,-0.3353,0.5419,-0.3363,0.7282,0.2511
1284,0.0,0.0,0.0,0.0,0.0,0.0,-0.9140,-0.0663,-0.3351,0.5430,-0.3356,0.7277,0.2510
1285,0.0,0.0,0.0,0.0,0.0,0.0,-0.9134,-0.0483,-0.3416,0.5434,-0.3350,0.7277,0.2507
1286,0.0,0.0,0.0,0.0,0.0,0.0,-0.9106,-0.0500,-0.3480,0.5436,-0.3354,0.7274,0.2508
1287,0.0,0.0,0.0,0.0,0.0,0.0,-0.9153,-0.0443,-0.3463,0.5439,-0.3361,0.7266,0.2515
1288,0.0,0.0,0.0,0.0,0.0,0.0,-0.9201,-0.0356,-0.3479,0.5438,-0.3363,0.7264,0.2521
1289,0.0,0.0,0.0,0.0,0.0,0.0,-0.9275,-0.0231,-0.3455,0.5432,-0.3364,0.7264,0.2531
1290,0.0,0.0,0.0,0.0,0.0,0.0,-0.9342,-0.0268,-0.3391,0.5424,-0.3360,0.7266,0.2547
1291,0.0,0.0,0.0,0.0,0.0,0.0,-0.9288,-0.0401,-0.3453,0.5415,-0.3355,0.7269,0.2565
1292,0.0,0.0,0.0,0.0,0.0,0.0,-0.9285,-0.0523,-0.3460,0.5408,-0.3356,0.7266,0.2588
1293,0.0,0.0,0.0,0.0,0.0,0.0,-0.9317,-0.0465,-0.3434,0.5399,-0.3355,0.7266,0.2608
1294,0.0,0.0,0.0,0.0,0.0,0.0,-0.9264,-0.0421,-0.3454,0.5387,-0.3354,0.7270,0.2624
1295,0.0,0.0,0.0,0.0,0.0,0.0,-0.9249,-0.0470,-0.3417,0.5377,-0.3358,0.7269,0.2639
1296,0.0,0.0,0.0,0.0,0.0,0.0,-0.9191,-0.0430,-0.3428,0.5370,-0.3362,0.7268,0.2651
1297,0.0,0.0,0.0,0.0,0.0,0.0,-0.9148,-0.0448,-0.3458,0.5365,-0.3369,0.7265,0.2662
1298,0.0,0.0,0.0,0.0,0.0,0.0,-0.9159,-0.0531,-0.3430,0.5363,-0.3381,0.7258,0.2672
1299,0.0,0.0,0.0,0.0,0.0,0.0,-0.9104,-0.0651,-0.3463,0.5362,-0.3394,0.7251,0.2674
1300,0.0,0.0,0.0,0.0,0.0,0.0,-0.9164,-0.0798,-0.3445,0.5361,-0.3413,0.7243,0.2675
1301,0.0,0.0,0.0,0.0,0.0,0.0,-0.9251,-0.0927,-0.3362,0.5365,-0.3431,0.7231,0.2676
1302,0.0,0.0,0.0,0.0,0.0,0.0,-0.9214,-0.0811,-0.3317,0.5373,-0.3444,0.7219,0.2674
1303,0.0,0.0,0.0,0.0,0.0,0.0,-0.9137,-0.0790,-0.3344,0.5382,-0.3452,0.7210,0.2671
1304,0.0,0.0,0.0,0.0,0.0,0.0,-0.9114,-0.0803,-0.3388,0.5390,-0.3460,0.7203,0.2665
1305,0.0,0.0,0.0,0.0,0.0,0.0,-0.9105,-0.0779,-0.3398,0.5396,-0.3465,0.7198,0.2657
1306,0.0,0.0,0.0,0.0,0.0,0.0,-0.9143,-0.0823,-0.3373,0.5405,-0.3469,0.7194,0.2646
1307,0.0,0.0,0.0,0.0,0.0,0.0,-0.9187,-0.0868,-0.3348,0.5416,-0.3470,0.7190,0.2634
1308,0.0,0.0,0.0,0.0,0.0,0.0,-0.9159,-0.0896,-0.3369,0.5431,-0.3462,0.7187,0.2618
1309,0.0,0.0,0.0,0.0,0.0,0.0,-0.9150,-0.0911,-0.3384,0.5448,-0.3454,0.7185,0.2603
1310,0.0,0.0,0.0,0.0,0.0,0.0,-0.9169,-0.0872,-0.3373,0.5461,-0.3448,0.7183,0.2587
1311,0.0,0.0,0.0,0.0,0.0,0.0,-0.9205,-0.0796,-0.3342,0.5476,-0.3444,0.7178,0.2573
1312,0.0,0.0,0.0,0.0,0.0,0.0,-0.9249,-0.0816,-0.3326,0.5491,-0.3441,0.7174,0.2560
1313,0.0,0.0,0.0,0.0,0.0,0.0,-0.9258,-0.0861,-0.3288,0.5504,-0.3440,0.7168,0.2546
1314,0.0,0.0,0.0,0.0,0.0,0.0,-0.9291,-0.0837,-0.3277,0.5517,-0.3445,0.7160,0.2534
1315,0.0,0.0,0.0,0.0,0.0,0.0,-0.9306,-0.0842,-0.3272,0.5531,-0.3453,0.7149,0.2523
1316,0.0,0.0,0.0,0.0,0.0,0.0,-0.9402,-0.0893,-0.3231,0.5546,-0.3467,0.7135,0.2514
1317,0.0,0.0,0.0,0.0,0.0,0.0,-0.9364,-0.0936,-0.3213,0.5563,-0.3488,0.7112,0.2511
1318,0.0,0.0,0.0,0.0,0.0,0.0,-0.9321,-0.1000,-0.3172,0.5583,-0.3519,0.7080,0.2513
1319,0.0,0.0,0.0,0.0,0.0,0.0,-0.9319,-0.0957,-0.3133,0.5602,-0.3555,0.7048,0.2512
1320,0.0,0.0,0.0,0.0,0.0,0.0,-0.9399,-0.0900,-0.3105,0.5622,-0.3597,0.7012,0.2509
1321,0.0,0.0,0.0,0.0,0.0,0.0,-0.9397,-0.0997,-0.3121,0.5641,-0.3644,0.6972,0.2510
1322,0.0,0.0,0.0,0.0,0.0,0.0,-0.9260,-0.1223,-0.3115,0.5660,-0.3703,0.6923,0.2516
1323,0.0,0.0,0.0,0.0,0.0,0.0,-0.9339,-0.1405,-0.3053,0.5680,-0.3772,0.6865,0.2525
1324,0.0,0.0,0.0,0.0,0.0,0.0,-0.9418,-0.1558,-0.2991,0.5696,-0.3845,0.6807,0.2537
1325,0.0,0.0,0.0,0.0,0.0,0.0,-0.9395,-0.1720,-0.2902,0.5710,-0.3917,0.6749,0.2550
1326,0.0,0.0,0.0,0.0,0.0,0.0,-0.9415,-0.1837,-0.2841,0.5721,-0.3986,0.6694,0.2563
1327,0.0,0.0,0.0,0.0,0.0,0.0,-0.9213,-0.1942,-0.2830,0.5729,-0.4054,0.6642,0.2574
1328,0.0,0.0,0.0,0.0,0.0,0.0,-0.9213,-0.2020,-0.2787,0.5734,-0.4119,0.6596,0.2580
1329,0.0,0.0,0.0,0.0,0.0,0.0,-0.9203,-0.1996,-0.2758,0.5735,-0.4176,0.6557,0.2583
1330,0.0,0.0,0.0,0.0,0.0,0.0,-0.9101,-0.2009,-0.2757,0.5737,-0.4230,0.6519,0.2588
1331,0.0,0.0,0.0,0.0,0.0,0.0,-0.9285,-0.1978,-0.2760,0.5739,-0.4276,0.6486,0.2591
1332,0.0,0.0,0.0,0.0,0.0,0.0,-0.9242,-0.1991,-0.2791,0.5735,-0.4315,0.6462,0.2595
1333,0.0,0.0,0.0,0.0,0.0,0.0,-0.9138,-0.2067,-0.2825,0.5730,-0.4353,0.6438,0.2601
1334,0.0,0.0,0.0,0.0,0.0,0.0,-0.9129,-0.2061,-0.2868,0.5724,-0.4393,0.6412,0.2613
1335,0.0,0.0,0.0,0.0,0.0,0.0,-0.9106,-0.2040,-0.2912,0.5715,-0.4429,0.6391,0.2622
1336,0.0,0.0,0.0,0.0,0.0,0.0,-0.9088,-0.2098,-0.2957,0.5705,-0.4462,0.6378,0.2620
1337,0.0,0.0,0.0,0.0,0.0,0.0,-0.9023,-0.2189,-0.2971,0.5695,-0.4494,0.6364,0.2621
1338,0.0,0.0,0.0,0.0,0.0,0.0,-0.9107,-0.2316,-0.2971,0.5686,-0.4527,0.6350,0.2619
1339,0.0,0.0,0.0,0.0,0.0,0.0,-0.9157,-0.2375,-0.2985,0.5677,-0.4557,0.6339,0.2613
1340,0.0,0.0,0.0,0.0,0.0,0.0,-0.9091,-0.2417,-0.3021,0.5667,-0.4586,0.6328,0.2608
1341,0.0,0.0,0.0,0.0,0.0,0.0,-0.9073,-0.2425,-0.3061,0.5657,-0.4610,0.6324,0.2598
1342,0.0,0.0,0.0,0.0,0.0,0.0,-0.9064,-0.2429,-0.3114,0.5647,-0.4628,0.6325,0.2586
1343,0.0,0.0,0.0,0.0,0.0,0.0,-0.9061,-0.2482,-0.3140,0.5636,-0.4644,0.6327,0.2576
1344,0.0,0.0,0.0,0.0,0.0,0.0,-0.9111,-0.2565,-0.3144,0.5623,-0.4659,0.6331,0.2568
1345,0.0,0.0,0.0,0.0,0.0,0.0,-0.9150,-0.2595,-0.3120,0.5610,-0.4673,0.6333,0.2567
1346,0.0,0.0,0.0,0.0,0.0,0.0,-0.8970,-0.2505,-0.3153,0.5600,-0.4677,0.6338,0.2568
1347,0.0,0.0,0.0,0.0,0.0,0.0,-0.8864,-0.2385,-0.3251,0.5592,-0.4672,0.6350,0.2565
1348,0.0,0.0,0.0,0.0,0.0,0.0,-0.8882,-0.2302,-0.3273,0.5582,-0.4665,0.6366,0.2562
1349,0.0,0.0,0.0,0.0,0.0,0.0,-0.8982,-0.2285,-0.3206,0.5574,-0.4660,0.6376,0.2563
1350,0.0,0.0,0.0,0.0,0.0,0.0,-0.9079,-0.2291,-0.3213,0.5566,-0.4651,0.6390,0.2561
1351,0.0,0.0,0.0,0.0,0.0,0.0,-0.9036,-0.2271,-0.3233,0.5557,-0.4635,0.6413,0.2553
1352,0.0,0.0,0.0,0.0,0.0,0.0,-0.8940,-0.2215,-0.3313,0.5546,-0.4621,0.6435,0.2547
1353,0.0,0.0,0.0,0.0,0.0,0.0,-0.8969,-0.2156,-0.3359,0.5533,-0.4610,0.6453,0.2549
1354,0.0,0.0,0.0,0.0,0.0,0.0,-0.9059,-0.2085,-0.3350,0.5521,-0.4596,0.6474,0.2545
1355,0.0,0.0,0.0,0.0,0.0,0.0,-0.9092,-0.2022,-0.3353,0.5506,-0.4579,0.6501,0.2540
1356,0.0,0.0,0.0,0.0,0.0,0.0,-0.9111,-0.1973,-0.3381,0.5493,-0.4560,0.6527,0.2538
1357,0.0,0.0,0.0,0.0,0.0,0.0,-0.9154,-0.1930,-0.3393,0.5479,-0.4540,0.6553,0.2536
1358,0.0,0.0,0.0,0.0,0.0,0.0,-0.9183,-0.1906,-0.3387,0.5463,-0.4523,0.6577,0.2537
1359,0.0,0.0,0.0,0.0,0.0,0.0,-0.9197,-0.1867,-0.3391,0.5449,-0.4510,0.6595,0.2546
1360,0.0,0.0,0.0,0.0,0.0,0.0,-0.9144,-0.1856,-0.3431,0.5434,-0.4494,0.6616,0.2550
1361,0.0,0.0,0.0,0.0,0.0,0.0,-0.9115,-0.1816,-0.3450,0.5418,-0.4478,0.6640,0.2551
1362,0.0,0.0,0.0,0.0,0.0,0.0,-0.9143,-0.1778,-0.3429,0.5404,-0.4464,0.6659,0.2555
1363,0.0,0.0,0.0,0.0,0.0,0.0,-0.9152,-0.1725,-0.3447,0.5392,-0.4447,0.6678,0.2560
1364,0.0,0.0,0.0,0.0,0.0,0.0,-0.9055,-0.1586,-0.3525,0.5378,-0.4429,0.6699,0.2564
1365,0.0,0.0,0.0,0.0,0.0,0.0,-0.9088,-0.1532,-0.3557,0.5364,-0.4410,0.6722,0.2568
1366,0.0,0.0,0.0,0.0,0.0,0.0,-0.9098,-0.1503,-0.3586,0.5348,-0.4389,0.6749,0.2567
1367,0.0,0.0,0.0,0.0,0.0,0.0,-0.9060,-0.1468,-0.3620,0.5331,-0.4366,0.6779,0.2561
1368,0.0,0.0,0.0,0.0,0.0,0.0,-0.9085,-0.1507,-0.3634,0.5317,-0.4348,0.6803,0.2558
1369,0.0,0.0,0.0,0.0,0.0,0.0,-0.9067,-0.1579,-0.3636,0.5303,-0.4334,0.6823,0.2558
1370,0.0,0.0,0.0,0.0,0.0,0.0,-0.9044,-0.1632,-0.3653,0.5291,-0.4322,0.6841,0.2553
1371,0.0,0.0,0.0,0.0,0.0,0.0,-0.9059,-0.1656,-0.3667,0.5284,-0.4313,0.6856,0.2547
1372,0.0,0.0,0.0,0.0,0.0,0.0,-0.9021,-0.1616,-0.3701,0.5277,-0.4304,0.6869,0.2540
1373,0.0,0.0,0.0,0.0,0.0,0.0,-0.8973,-0.1595,-0.3756,0.5272,-0.4299,0.6877,0.2535
1374,0.0,0.0,0.0,0.0,0.0,0.0,-0.8969,-0.1575,-0.3780,0.5268,-0.4296,0.6885,0.2528
1375,0.0,0.0,0.0,0.0,0.0,0.0,-0.8940,-0.1589,-0.3795,0.5263,-0.4295,0.6891,0.2522
1376,0.0,0.0,0.0,0.0,0.0,0.0,-0.8951,-0.1633,-0.3786,0.5261,-0.4296,0.6894,0.2519
1377,0.0,0.0,0.0,0.0,0.0,0.0,-0.8946,-0.1667,-0.3782,0.5258,-0.4300,0.6894,0.2517
1378,0.0,0.0,0.0,0.0,0.0,0.0,-0.8917,-0.1701,-0.3764,0.5256,-0.4304,0.6895,0.2512
