,Position_X,Position_Y,Position_Z,Velocity_X,Velocity_Y,Velocity_Z,Acceleration_X,Acceleration_Y,Acceleration_Z,Quaterion_0,Quaterion_1,Quaterion_2,Quaterion_3
166,0.0,0.0,0.0,0.0,0.0,0.0,-0.2180,0.9424,0.2136,0.4792,0.5212,-0.4116,-0.5738
167,0.0,0.0,0.0,0.0,0.0,0.0,-0.2191,0.9318,0.2107,0.4793,0.5205,-0.4109,-0.5748
168,0.0,0.0,0.0,0.0,0.0,0.0,-0.1964,0.8861,0.1961,0.4798,0.5199,-0.4111,-0.5749
169,0.0,0.0,0.0,0.0,0.0,0.0,-0.2051,0.9022,0.1888,0.4800,0.5196,-0.4117,-0.5746
170,0.0,0.0,0.0,0.0,0.0,0.0,-0.2175,0.9430,0.2029,0.4801,0.5193,-0.4124,-0.5743
171,0.0,0.0,0.0,0.0,0.0,0.0,-0.2285,0.9798,0.2146,0.4801,0.5192,-0.4129,-0.5740
172,0.0,0.0,0.0,0.0,0.0,0.0,-0.2242,0.9725,0.2126,0.4802,0.5192,-0.4134,-0.5735
173,0.0,0.0,0.0,0.0,0.0,0.0,-0.2155,0.9613,0.2126,0.4806,0.5189,-0.4138,-0.5732
174,0.0,0.0,0.0,0.0,0.0,0.0,-0.2175,0.9512,0.2102,0.4811,0.5185,-0.4139,-0.5730
175,0.0,0.0,0.0,0.0,0.0,0.0,-0.2200,0.9425,0.2083,0.4814,0.5183,-0.4141,-0.5729
176,0.0,0.0,0.0,0.0,0.0,0.0,-0.2249,0.9382,0.2053,0.4813,0.5183,-0.4142,-0.5728
177,0.0,0.0,0.0,0.0,0.0,0.0,-0.2302,0.9397,0.2029,0.4810,0.5184,-0.4143,-0.5729
178,0.0,0.0,0.0,0.0,0.0,0.0,-0.2322,0.9402,0.2019,0.4805,0.5186,-0.4147,-0.5729
179,0.0,0.0,0.0,0.0,0.0,0.0,-0.2244,0.9377,0.1975,0.4800,0.5186,-0.4152,-0.5729
180,0.0,0.0,0.0,0.0,0.0,0.0,-0.2093,0.9308,0.1937,0.4799,0.5184,-0.4162,-0.5725
181,0.0,0.0,0.0,0.0,0.0,0.0,-0.2107,0.9366,0.1912,0.4799,0.5184,-0.4176,-0.5714
182,0.0,0.0,0.0,0.0,0.0,0.0,-0.2228,0.9585,0.1927,0.4799,0.5183,-0.4188,-0.5707
183,0.0,0.0,0.0,0.0,0.0,0.0,-0.2276,0.9775,0.1951,0.4799,0.5183,-0.4199,-0.5699
184,0.0,0.0,0.0,0.0,0.0,0.0,-0.2295,0.9789,0.1970,0.4798,0.5184,-0.4209,-0.5692
185,0.0,0.0,0.0,0.0,0.0,0.0,-0.2252,0.9712,0.1956,0.4794,0.5185,-0.4218,-0.5687
186,0.0,0.0,0.0,0.0,0.0,0.0,-0.2208,0.9682,0.1975,0.4789,0.5187,-0.4228,-0.5682
187,0.0,0.0,0.0,0.0,0.0,0.0,-0.2174,0.9662,0.1980,0.4784,0.5185,-0.4235,-0.5683
188,0.0,0.0,0.0,0.0,0.0,0.0,-0.2159,0.9628,0.1976,0.4778,0.5182,-0.4240,-0.5686
189,0.0,0.0,0.0,0.0,0.0,0.0,-0.2131,0.9570,0.1976,0.4775,0.5181,-0.4243,-0.5688
190,0.0,0.0,0.0,0.0,0.0,0.0,-0.2106,0.9521,0.1927,0.4773,0.5182,-0.4247,-0.5686
191,0.0,0.0,0.0,0.0,0.0,0.0,-0.2126,0.9517,0.1883,0.4770,0.5184,-0.4251,-0.5684
192,0.0,0.0,0.0,0.0,0.0,0.0,-0.2155,0.9541,0.1883,0.4768,0.5184,-0.4255,-0.5682
193,0.0,0.0,0.0,0.0,0.0,0.0,-0.2179,0.9595,0.1854,0.4765,0.5187,-0.4260,-0.5678
194,0.0,0.0,0.0,0.0,0.0,0.0,-0.2194,0.9619,0.1825,0.4763,0.5189,-0.4262,-0.5676
195,0.0,0.0,0.0,0.0,0.0,0.0,-0.2208,0.9615,0.1800,0.4762,0.5186,-0.4261,-0.5680
196,0.0,0.0,0.0,0.0,0.0,0.0,-0.2199,0.9590,0.1795,0.4762,0.5183,-0.4261,-0.5684
197,0.0,0.0,0.0,0.0,0.0,0.0,-0.2155,0.9522,0.1791,0.4760,0.5182,-0.4263,-0.5684
198,0.0,0.0,0.0,0.0,0.0,0.0,-0.2106,0.9507,0.1786,0.4758,0.5182,-0.4268,-0.5683
199,0.0,0.0,0.0,0.0,0.0,0.0,-0.2048,0.9531,0.1820,0.4756,0.5182,-0.4275,-0.5680
200,0.0,0.0,0.0,0.0,0.0,0.0,-0.1994,0.9550,0.1839,0.4756,0.5182,-0.4282,-0.5674
201,0.0,0.0,0.0,0.0,0.0,0.0,-0.1998,0.9608,0.1839,0.4746,0.5168,-0.4295,-0.5684
202,0.0,0.0,0.0,0.0,0.0,0.0,-0.2047,0.9657,0.1835,0.4747,0.5170,-0.4299,-0.5680
203,0.0,0.0,0.0,0.0,0.0,0.0,-0.1975,0.9414,0.1689,0.4749,0.5173,-0.4303,-0.5672
204,0.0,0.0,0.0,0.0,0.0,0.0,-0.1706,0.9519,0.1543,0.4755,0.5173,-0.4312,-0.5661
205,0.0,0.0,0.0,0.0,0.0,0.0,-0.1803,0.9661,0.1514,0.4760,0.5176,-0.4319,-0.5648
206,0.0,0.0,0.0,0.0,0.0,0.0,-0.1870,0.9937,0.1655,0.4766,0.5178,-0.4322,-0.5639
207,0.0,0.0,0.0,0.0,0.0,0.0,-0.2020,1.0108,0.1728,0.4774,0.5179,-0.4320,-0.5632
208,0.0,0.0,0.0,0.0,0.0,0.0,-0.2118,0.9992,0.1747,0.4781,0.5183,-0.4315,-0.5626
209,0.0,0.0,0.0,0.0,0.0,0.0,-0.2149,0.9818,0.1757,0.4788,0.5186,-0.4307,-0.5624
210,0.0,0.0,0.0,0.0,0.0,0.0,-0.2252,0.9640,0.1732,0.4793,0.5189,-0.4294,-0.5627
211,0.0,0.0,0.0,0.0,0.0,0.0,-0.2360,0.9500,0.1693,0.4793,0.5196,-0.4281,-0.5630
212,0.0,0.0,0.0,0.0,0.0,0.0,-0.2366,0.9442,0.1698,0.4789,0.5203,-0.4272,-0.5634
213,0.0,0.0,0.0,0.0,0.0,0.0,-0.2307,0.9398,0.1713,0.4787,0.5206,-0.4266,-0.5638
214,0.0,0.0,0.0,0.0,0.0,0.0,-0.2288,0.9383,0.1684,0.4784,0.5208,-0.4266,-0.5638
215,0.0,0.0,0.0,0.0,0.0,0.0,-0.2244,0.9422,0.1693,0.4779,0.5207,-0.4270,-0.5640
216,0.0,0.0,0.0,0.0,0.0,0.0,-0.2204,0.9537,0.1727,0.4775,0.5203,-0.4276,-0.5643
217,0.0,0.0,0.0,0.0,0.0,0.0,-0.2189,0.9668,0.1737,0.4769,0.5199,-0.4283,-0.5647
218,0.0,0.0,0.0,0.0,0.0,0.0,-0.2140,0.9692,0.1737,0.4763,0.5196,-0.4292,-0.5647
219,0.0,0.0,0.0,0.0,0.0,0.0,-0.2091,0.9638,0.1732,0.4760,0.5192,-0.4300,-0.5648
220,0.0,0.0,0.0,0.0,0.0,0.0,-0.2086,0.9614,0.1737,0.4758,0.5186,-0.4308,-0.5649
221,0.0,0.0,0.0,0.0,0.0,0.0,-0.2101,0.9633,0.1762,0.4756,0.5181,-0.4315,-0.5650
222,0.0,0.0,0.0,0.0,0.0,0.0,-0.2130,0.9696,0.1791,0.4754,0.5177,-0.4324,-0.5648
223,0.0,0.0,0.0,0.0,0.0,0.0,-0.2135,0.9687,0.1796,0.4751,0.5172,-0.4331,-0.5650
224,0.0,0.0,0.0,0.0,0.0,0.0,-0.2077,0.9585,0.1771,0.4751,0.5164,-0.4335,-0.5654
225,0.0,0.0,0.0,0.0,0.0,0.0,-0.2018,0.9545,0.1766,0.4749,0.5157,-0.4341,-0.5658
226,0.0,0.0,0.0,0.0,0.0,0.0,-0.1960,0.9569,0.1771,0.4747,0.5150,-0.4347,-0.5661
227,0.0,0.0,0.0,0.0,0.0,0.0,-0.1945,0.9646,0.1776,0.4745,0.5143,-0.4355,-0.5663
228,0.0,0.0,0.0,0.0,0.0,0.0,-0.1920,0.9709,0.1781,0.4745,0.5135,-0.4362,-0.5665
229,0.0,0.0,0.0,0.0,0.0,0.0,-0.1890,0.9719,0.1762,0.4743,0.5131,-0.4369,-0.5665
230,0.0,0.0,0.0,0.0,0.0,0.0,-0.1895,0.9704,0.1742,0.4742,0.5129,-0.4373,-0.5665
231,0.0,0.0,0.0,0.0,0.0,0.0,-0.1905,0.9728,0.1757,0.4741,0.5125,-0.4377,-0.5666
232,0.0,0.0,0.0,0.0,0.0,0.0,-0.1934,0.9806,0.1791,0.4740,0.5122,-0.4379,-0.5668
233,0.0,0.0,0.0,0.0,0.0,0.0,-0.1977,0.9928,0.1849,0.4736,0.5120,-0.4381,-0.5671
234,0.0,0.0,0.0,0.0,0.0,0.0,-0.2006,0.9957,0.1873,0.4731,0.5119,-0.4379,-0.5678
235,0.0,0.0,0.0,0.0,0.0,0.0,-0.1992,0.9840,0.1864,0.4725,0.5117,-0.4371,-0.5691
236,0.0,0.0,0.0,0.0,0.0,0.0,-0.1718,0.9213,0.1655,0.4721,0.5112,-0.4366,-0.5702
237,0.0,0.0,0.0,0.0,0.0,0.0,-0.1649,0.9242,0.1577,0.4717,0.5111,-0.4372,-0.5702
238,0.0,0.0,0.0,0.0,0.0,0.0,-0.1799,0.9495,0.1713,0.4709,0.5112,-0.4378,-0.5702
239,0.0,0.0,0.0,0.0,0.0,0.0,-0.1964,0.9743,0.1830,0.4704,0.5111,-0.4381,-0.5705
240,0.0,0.0,0.0,0.0,0.0,0.0,-0.1969,0.9680,0.1839,0.4700,0.5110,-0.4385,-0.5707
241,0.0,0.0,0.0,0.0,0.0,0.0,-0.1910,0.9636,0.1854,0.4698,0.5108,-0.4390,-0.5707
242,0.0,0.0,0.0,0.0,0.0,0.0,-0.1955,0.9578,0.1835,0.4698,0.5105,-0.4389,-0.5710
243,0.0,0.0,0.0,0.0,0.0,0.0,-0.1984,0.9535,0.1810,0.4695,0.5105,-0.4391,-0.5711
244,0.0,0.0,0.0,0.0,0.0,0.0,-0.2013,0.9560,0.1810,0.4693,0.5107,-0.4392,-0.5710
245,0.0,0.0,0.0,0.0,0.0,0.0,-0.2072,0.9565,0.1800,0.4691,0.5108,-0.4390,-0.5712
246,0.0,0.0,0.0,0.0,0.0,0.0,-0.2043,0.9589,0.1776,0.4690,0.5108,-0.4389,-0.5713
247,0.0,0.0,0.0,0.0,0.0,0.0,-0.2033,0.9550,0.1766,0.4694,0.5106,-0.4388,-0.5713
248,0.0,0.0,0.0,0.0,0.0,0.0,-0.2018,0.9574,0.1786,0.4697,0.5104,-0.4391,-0.5711
249,0.0,0.0,0.0,0.0,0.0,0.0,-0.2008,0.9589,0.1810,0.4702,0.5102,-0.4395,-0.5705
250,0.0,0.0,0.0,0.0,0.0,0.0,-0.2023,0.9550,0.1781,0.4708,0.5100,-0.4398,-0.5699
251,0.0,0.0,0.0,0.0,0.0,0.0,-0.2019,0.9502,0.1737,0.4714,0.5095,-0.4402,-0.5696
252,0.0,0.0,0.0,0.0,0.0,0.0,-0.2004,0.9507,0.1728,0.4718,0.5093,-0.4405,-0.5692
253,0.0,0.0,0.0,0.0,0.0,0.0,-0.1994,0.9511,0.1723,0.4721,0.5093,-0.4412,-0.5684
254,0.0,0.0,0.0,0.0,0.0,0.0,-0.2047,0.9609,0.1723,0.4721,0.5093,-0.4418,-0.5679
255,0.0,0.0,0.0,0.0,0.0,0.0,-0.2081,0.9638,0.1718,0.4720,0.5092,-0.4425,-0.5675
256,0.0,0.0,0.0,0.0,0.0,0.0,-0.2052,0.9580,0.1689,0.4718,0.5094,-0.4435,-0.5668
257,0.0,0.0,0.0,0.0,0.0,0.0,-0.1999,0.9536,0.1659,0.4715,0.5095,-0.4445,-0.5662
258,0.0,0.0,0.0,0.0,0.0,0.0,-0.1979,0.9579,0.1645,0.4709,0.5096,-0.4458,-0.5655
259,0.0,0.0,0.0,0.0,0.0,0.0,-0.1993,0.9710,0.1655,0.4704,0.5095,-0.4469,-0.5651
260,0.0,0.0,0.0,0.0,0.0,0.0,-0.1997,0.9841,0.1674,0.4700,0.5093,-0.4475,-0.5652
261,0.0,0.0,0.0,0.0,0.0,0.0,-0.1973,0.9870,0.1659,0.4695,0.5095,-0.4482,-0.5649
262,0.0,0.0,0.0,0.0,0.0,0.0,-0.1929,0.9763,0.1601,0.4690,0.5098,-0.4488,-0.5646
263,0.0,0.0,0.0,0.0,0.0,0.0,-0.1900,0.9681,0.1562,0.4684,0.5101,-0.4493,-0.5643
264,0.0,0.0,0.0,0.0,0.0,0.0,-0.1905,0.9647,0.1553,0.4680,0.5105,-0.4499,-0.5638
265,0.0,0.0,0.0,0.0,0.0,0.0,-0.1911,0.9589,0.1528,0.4678,0.5108,-0.4505,-0.5633
266,0.0,0.0,0.0,0.0,0.0,0.0,-0.1906,0.9550,0.1484,0.4677,0.5108,-0.4509,-0.5631
267,0.0,0.0,0.0,0.0,0.0,0.0,-0.1867,0.9555,0.1489,0.4677,0.5109,-0.4515,-0.5625
268,0.0,0.0,0.0,0.0,0.0,0.0,-0.1911,0.9623,0.1499,0.4677,0.5111,-0.4523,-0.5616
269,0.0,0.0,0.0,0.0,0.0,0.0,-0.1920,0.9666,0.1484,0.4677,0.5113,-0.4532,-0.5607
270,0.0,0.0,0.0,0.0,0.0,0.0,-0.1929,0.9744,0.1484,0.4678,0.5114,-0.4538,-0.5600
271,0.0,0.0,0.0,0.0,0.0,0.0,-0.1958,0.9865,0.1494,0.4680,0.5113,-0.4541,-0.5598
272,0.0,0.0,0.0,0.0,0.0,0.0,-0.1982,0.9895,0.1450,0.4679,0.5118,-0.4544,-0.5591
273,0.0,0.0,0.0,0.0,0.0,0.0,-0.1968,0.9866,0.1416,0.4678,0.5122,-0.4545,-0.5587
274,0.0,0.0,0.0,0.0,0.0,0.0,-0.1953,0.9793,0.1382,0.4676,0.5125,-0.4546,-0.5586
275,0.0,0.0,0.0,0.0,0.0,0.0,-0.2057,0.9687,0.1402,0.4668,0.5134,-0.4545,-0.5586
276,0.0,0.0,0.0,0.0,0.0,0.0,-0.1885,0.9730,0.1373,0.4658,0.5144,-0.4551,-0.5580
277,0.0,0.0,0.0,0.0,0.0,0.0,-0.1679,0.9922,0.1334,0.4653,0.5149,-0.4560,-0.5572
278,0.0,0.0,0.0,0.0,0.0,0.0,-0.1641,0.9805,0.1363,0.4659,0.5142,-0.4565,-0.5569
279,0.0,0.0,0.0,0.0,0.0,0.0,-0.1886,0.9637,0.1402,0.4668,0.5133,-0.4562,-0.5573
280,0.0,0.0,0.0,0.0,0.0,0.0,-0.1822,0.9675,0.1450,0.4672,0.5131,-0.4558,-0.5574
281,0.0,0.0,0.0,0.0,0.0,0.0,-0.1788,0.9690,0.1465,0.4675,0.5131,-0.4553,-0.5576
282,0.0,0.0,0.0,0.0,0.0,0.0,-0.1793,0.9699,0.1480,0.4678,0.5131,-0.4545,-0.5580
283,0.0,0.0,0.0,0.0,0.0,0.0,-0.1798,0.9719,0.1450,0.4679,0.5137,-0.4540,-0.5577
284,0.0,0.0,0.0,0.0,0.0,0.0,-0.1837,0.9724,0.1431,0.4680,0.5144,-0.4533,-0.5576
285,0.0,0.0,0.0,0.0,0.0,0.0,-0.1871,0.9734,0.1416,0.4683,0.5149,-0.4526,-0.5574
286,0.0,0.0,0.0,0.0,0.0,0.0,-0.1910,0.9701,0.1387,0.4687,0.5159,-0.4520,-0.5568
287,0.0,0.0,0.0,0.0,0.0,0.0,-0.1959,0.9711,0.1368,0.4690,0.5167,-0.4513,-0.5562
288,0.0,0.0,0.0,0.0,0.0,0.0,-0.2007,0.9750,0.1358,0.4696,0.5174,-0.4506,-0.5556
289,0.0,0.0,0.0,0.0,0.0,0.0,-0.2041,0.9794,0.1358,0.4699,0.5182,-0.4500,-0.5551
290,0.0,0.0,0.0,0.0,0.0,0.0,-0.2017,0.9711,0.1324,0.4703,0.5189,-0.4493,-0.5548
291,0.0,0.0,0.0,0.0,0.0,0.0,-0.1984,0.9648,0.1314,0.4708,0.5192,-0.4486,-0.5546
292,0.0,0.0,0.0,0.0,0.0,0.0,-0.1983,0.9682,0.1329,0.4712,0.5193,-0.4480,-0.5546
293,0.0,0.0,0.0,0.0,0.0,0.0,-0.1949,0.9730,0.1338,0.4717,0.5193,-0.4476,-0.5545
294,0.0,0.0,0.0,0.0,0.0,0.0,-0.1944,0.9812,0.1358,0.4721,0.5193,-0.4474,-0.5542
295,0.0,0.0,0.0,0.0,0.0,0.0,-0.1919,0.9827,0.1397,0.4727,0.5190,-0.4474,-0.5540
296,0.0,0.0,0.0,0.0,0.0,0.0,-0.1880,0.9841,0.1436,0.4734,0.5186,-0.4472,-0.5541
297,0.0,0.0,0.0,0.0,0.0,0.0,-0.1826,0.9879,0.1450,0.4748,0.5173,-0.4454,-0.5556
298,0.0,0.0,0.0,0.0,0.0,0.0,-0.1783,0.9791,0.1426,0.4753,0.5169,-0.4449,-0.5559
299,0.0,0.0,0.0,0.0,0.0,0.0,-0.1759,0.9733,0.1397,0.4756,0.5166,-0.4443,-0.5563
300,0.0,0.0,0.0,0.0,0.0,0.0,-0.1715,0.9607,0.1358,0.4759,0.5161,-0.4437,-0.5571
301,0.0,0.0,0.0,0.0,0.0,0.0,-0.1692,0.9505,0.1334,0.4761,0.5158,-0.4434,-0.5574
302,0.0,0.0,0.0,0.0,0.0,0.0,-0.1686,0.9544,0.1353,0.4763,0.5155,-0.4435,-0.5575
303,0.0,0.0,0.0,0.0,0.0,0.0,-0.1701,0.9616,0.1378,0.4763,0.5151,-0.4439,-0.5574
304,0.0,0.0,0.0,0.0,0.0,0.0,-0.1714,0.9757,0.1436,0.4765,0.5144,-0.4445,-0.5575
305,0.0,0.0,0.0,0.0,0.0,0.0,-0.1718,0.9917,0.1504,0.4766,0.5135,-0.4455,-0.5575
306,0.0,0.0,0.0,0.0,0.0,0.0,-0.1679,0.9931,0.1558,0.4767,0.5125,-0.4464,-0.5575
307,0.0,0.0,0.0,0.0,0.0,0.0,-0.1621,0.9920,0.1597,0.4768,0.5114,-0.4473,-0.5577
308,0.0,0.0,0.0,0.0,0.0,0.0,-0.1563,0.9847,0.1640,0.4769,0.5103,-0.4480,-0.5580
309,0.0,0.0,0.0,0.0,0.0,0.0,-0.1548,0.9779,0.1689,0.4771,0.5090,-0.4485,-0.5586
310,0.0,0.0,0.0,0.0,0.0,0.0,-0.1539,0.9692,0.1704,0.4773,0.5080,-0.4489,-0.5591
311,0.0,0.0,0.0,0.0,0.0,0.0,-0.1544,0.9657,0.1752,0.4775,0.5073,-0.4494,-0.5592
312,0.0,0.0,0.0,0.0,0.0,0.0,-0.1593,0.9590,0.1752,0.4777,0.5066,-0.4497,-0.5594
313,0.0,0.0,0.0,0.0,0.0,0.0,-0.1633,0.9556,0.1757,0.4780,0.5058,-0.4499,-0.5597
314,0.0,0.0,0.0,0.0,0.0,0.0,-0.1638,0.9556,0.1777,0.4784,0.5051,-0.4503,-0.5597
315,0.0,0.0,0.0,0.0,0.0,0.0,-0.1672,0.9581,0.1757,0.4787,0.5045,-0.4508,-0.5596
316,0.0,0.0,0.0,0.0,0.0,0.0,-0.1672,0.9567,0.1738,0.4787,0.5039,-0.4513,-0.5597
317,0.0,0.0,0.0,0.0,0.0,0.0,-0.1647,0.9562,0.1708,0.4787,0.5034,-0.4519,-0.5597
318,0.0,0.0,0.0,0.0,0.0,0.0,-0.1647,0.9567,0.1689,0.4785,0.5028,-0.4525,-0.5599
319,0.0,0.0,0.0,0.0,0.0,0.0,-0.1657,0.9615,0.1674,0.4785,0.5020,-0.4531,-0.5601
320,0.0,0.0,0.0,0.0,0.0,0.0,-0.1671,0.9649,0.1631,0.4786,0.5012,-0.4539,-0.5602
321,0.0,0.0,0.0,0.0,0.0,0.0,-0.1695,0.9683,0.1611,0.4785,0.5006,-0.4546,-0.5602
322,0.0,0.0,0.0,0.0,0.0,0.0,-0.1670,0.9761,0.1626,0.4784,0.4999,-0.4556,-0.5601
323,0.0,0.0,0.0,0.0,0.0,0.0,-0.1665,0.9799,0.1650,0.4784,0.4991,-0.4566,-0.5599
324,0.0,0.0,0.0,0.0,0.0,0.0,-0.1641,0.9799,0.1655,0.4785,0.4983,-0.4575,-0.5597
325,0.0,0.0,0.0,0.0,0.0,0.0,-0.1607,0.9770,0.1645,0.4787,0.4975,-0.4583,-0.5597
326,0.0,0.0,0.0,0.0,0.0,0.0,-0.1558,0.9736,0.1636,0.4787,0.4968,-0.4592,-0.5596
327,0.0,0.0,0.0,0.0,0.0,0.0,-0.1539,0.9750,0.1660,0.4787,0.4958,-0.4600,-0.5598
328,0.0,0.0,0.0,0.0,0.0,0.0,-0.1514,0.9735,0.1694,0.4788,0.4947,-0.4607,-0.5602
329,0.0,0.0,0.0,0.0,0.0,0.0,-0.1485,0.9754,0.1713,0.4788,0.4939,-0.4613,-0.5604
330,0.0,0.0,0.0,0.0,0.0,0.0,-0.1509,0.9793,0.1718,0.4788,0.4931,-0.4617,-0.5608
331,0.0,0.0,0.0,0.0,0.0,0.0,-0.1480,0.9768,0.1762,0.4785,0.4925,-0.4621,-0.5612
332,0.0,0.0,0.0,0.0,0.0,0.0,-0.1480,0.9720,0.1840,0.4783,0.4920,-0.4624,-0.5616
333,0.0,0.0,0.0,0.0,0.0,0.0,-0.1514,0.9744,0.1898,0.4781,0.4915,-0.4625,-0.5621
334,0.0,0.0,0.0,0.0,0.0,0.0,-0.1505,0.9657,0.1893,0.4778,0.4911,-0.4623,-0.5629
335,0.0,0.0,0.0,0.0,0.0,0.0,-0.1452,0.9540,0.1879,0.4776,0.4907,-0.4624,-0.5633
336,0.0,0.0,0.0,0.0,0.0,0.0,-0.1462,0.9564,0.1874,0.4772,0.4904,-0.4625,-0.5637
337,0.0,0.0,0.0,0.0,0.0,0.0,-0.1490,0.9661,0.1874,0.4769,0.4902,-0.4623,-0.5644
338,0.0,0.0,0.0,0.0,0.0,0.0,-0.1481,0.9681,0.1869,0.4764,0.4904,-0.4623,-0.5646
339,0.0,0.0,0.0,0.0,0.0,0.0,-0.1466,0.9705,0.1850,0.4760,0.4910,-0.4623,-0.5644
340,0.0,0.0,0.0,0.0,0.0,0.0,-0.1524,0.9749,0.1835,0.4752,0.4916,-0.4620,-0.5648
341,0.0,0.0,0.0,0.0,0.0,0.0,-0.1567,0.9846,0.1811,0.4742,0.4926,-0.4615,-0.5652
342,0.0,0.0,0.0,0.0,0.0,0.0,-0.1577,0.9837,0.1777,0.4730,0.4941,-0.4607,-0.5656
343,0.0,0.0,0.0,0.0,0.0,0.0,-0.1607,0.9832,0.1757,0.4717,0.4956,-0.4597,-0.5662
344,0.0,0.0,0.0,0.0,0.0,0.0,-0.1651,0.9775,0.1723,0.4704,0.4973,-0.4585,-0.5667
345,0.0,0.0,0.0,0.0,0.0,0.0,-0.1661,0.9707,0.1679,0.4690,0.4995,-0.4576,-0.5667
346,0.0,0.0,0.0,0.0,0.0,0.0,-0.1661,0.9702,0.1640,0.4677,0.5018,-0.4564,-0.5666
347,0.0,0.0,0.0,0.0,0.0,0.0,-0.1720,0.9650,0.1577,0.4665,0.5041,-0.4550,-0.5668
348,0.0,0.0,0.0,0.0,0.0,0.0,-0.1789,0.9554,0.1548,0.4669,0.5051,-0.4547,-0.5658
349,0.0,0.0,0.0,0.0,0.0,0.0,-0.1862,0.9559,0.1460,0.4663,0.5075,-0.4537,-0.5649
350,0.0,0.0,0.0,0.0,0.0,0.0,-0.1925,0.9623,0.1373,0.4658,0.5099,-0.4527,-0.5639
351,0.0,0.0,0.0,0.0,0.0,0.0,-0.2032,0.9794,0.1324,0.4650,0.5129,-0.4517,-0.5628
352,0.0,0.0,0.0,0.0,0.0,0.0,-0.2072,0.9586,0.1260,0.4642,0.5160,-0.4507,-0.5613
353,0.0,0.0,0.0,0.0,0.0,0.0,-0.2096,0.9577,0.1236,0.4640,0.5183,-0.4501,-0.5599
354,0.0,0.0,0.0,0.0,0.0,0.0,-0.2115,0.9766,0.1236,0.4641,0.5201,-0.4497,-0.5584
355,0.0,0.0,0.0,0.0,0.0,0.0,-0.2080,0.9795,0.1231,0.4643,0.5214,-0.4494,-0.5573
356,0.0,0.0,0.0,0.0,0.0,0.0,-0.1999,0.9440,0.1139,0.4645,0.5226,-0.4495,-0.5560
357,0.0,0.0,0.0,0.0,0.0,0.0,-0.1956,0.9368,0.1095,0.4648,0.5231,-0.4499,-0.5549
358,0.0,0.0,0.0,0.0,0.0,0.0,-0.1915,0.9624,0.1183,0.4653,0.5230,-0.4508,-0.5539
359,0.0,0.0,0.0,0.0,0.0,0.0,-0.1877,0.9449,0.1188,0.4657,0.5228,-0.4520,-0.5527
360,0.0,0.0,0.0,0.0,0.0,0.0,-0.1813,0.9584,0.1115,0.4660,0.5227,-0.4539,-0.5510
361,0.0,0.0,0.0,0.0,0.0,0.0,-0.1793,0.9749,0.1100,0.4663,0.5222,-0.4559,-0.5495
362,0.0,0.0,0.0,0.0,0.0,0.0,-0.1749,0.9729,0.1120,0.4668,0.5213,-0.4577,-0.5485
363,0.0,0.0,0.0,0.0,0.0,0.0,-0.1724,0.9753,0.1120,0.4674,0.5204,-0.4595,-0.5474
364,0.0,0.0,0.0,0.0,0.0,0.0,-0.1757,0.9923,0.1134,0.4678,0.5193,-0.4615,-0.5463
365,0.0,0.0,0.0,0.0,0.0,0.0,-0.1709,0.9918,0.1110,0.4685,0.5180,-0.4636,-0.5453
366,0.0,0.0,0.0,0.0,0.0,0.0,-0.1645,1.0014,0.1134,0.4692,0.5162,-0.4657,-0.5445
367,0.0,0.0,0.0,0.0,0.0,0.0,-0.1678,1.0068,0.1159,0.4700,0.5145,-0.4675,-0.5439
368,0.0,0.0,0.0,0.0,0.0,0.0,-0.1766,1.0180,0.1217,0.4705,0.5131,-0.4691,-0.5434
369,0.0,0.0,0.0,0.0,0.0,0.0,-0.1736,1.0305,0.1256,0.4710,0.5114,-0.4700,-0.5438
370,0.0,0.0,0.0,0.0,0.0,0.0,-0.1600,1.0062,0.1305,0.4717,0.5092,-0.4707,-0.5447
371,0.0,0.0,0.0,0.0,0.0,0.0,-0.1565,1.0192,0.1412,0.4721,0.5068,-0.4712,-0.5461
372,0.0,0.0,0.0,0.0,0.0,0.0,-0.1517,1.0094,0.1460,0.4724,0.5045,-0.4714,-0.5478
373,0.0,0.0,0.0,0.0,0.0,0.0,-0.1440,0.9880,0.1509,0.4728,0.5023,-0.4713,-0.5496
374,0.0,0.0,0.0,0.0,0.0,0.0,-0.1442,0.9652,0.1543,0.4728,0.5003,-0.4712,-0.5515
375,0.0,0.0,0.0,0.0,0.0,0.0,-0.1380,0.9409,0.1592,0.4725,0.4984,-0.4713,-0.5534
376,0.0,0.0,0.0,0.0,0.0,0.0,-0.1360,0.9487,0.1665,0.4724,0.4963,-0.4715,-0.5552
377,0.0,0.0,0.0,0.0,0.0,0.0,-0.1334,0.9699,0.1762,0.4724,0.4939,-0.4716,-0.5572
378,0.0,0.0,0.0,0.0,0.0,0.0,-0.1304,0.9796,0.1806,0.4723,0.4921,-0.4719,-0.5587
379,0.0,0.0,0.0,0.0,0.0,0.0,-0.1324,0.9728,0.1787,0.4720,0.4905,-0.4720,-0.5602
380,0.0,0.0,0.0,0.0,0.0,0.0,-0.1290,0.9655,0.1796,0.4717,0.4891,-0.4719,-0.5618
381,0.0,0.0,0.0,0.0,0.0,0.0,-0.1237,0.9626,0.1811,0.4713,0.4882,-0.4723,-0.5626
382,0.0,0.0,0.0,0.0,0.0,0.0,-0.1169,0.9606,0.1777,0.4709,0.4873,-0.4727,-0.5634
383,0.0,0.0,0.0,0.0,0.0,0.0,-0.1130,0.9547,0.1753,0.4708,0.4862,-0.4729,-0.5642
384,0.0,0.0,0.0,0.0,0.0,0.0,-0.1114,0.9688,0.1694,0.4705,0.4856,-0.4735,-0.5644
385,0.0,0.0,0.0,0.0,0.0,0.0,-0.1080,0.9688,0.1631,0.4705,0.4851,-0.4739,-0.5646
386,0.0,0.0,0.0,0.0,0.0,0.0,-0.1155,0.9408,0.1553,0.4705,0.4850,-0.4742,-0.5644
387,0.0,0.0,0.0,0.0,0.0,0.0,-0.1198,0.9544,0.1534,0.4703,0.4853,-0.4749,-0.5637
388,0.0,0.0,0.0,0.0,0.0,0.0,-0.1207,0.9646,0.1519,0.4701,0.4860,-0.4757,-0.5626
389,0.0,0.0,0.0,0.0,0.0,0.0,-0.1207,0.9776,0.1529,0.4701,0.4868,-0.4767,-0.5610
390,0.0,0.0,0.0,0.0,0.0,0.0,-0.1274,0.9869,0.1514,0.4701,0.4879,-0.4773,-0.5596
391,0.0,0.0,0.0,0.0,0.0,0.0,-0.1370,1.0151,0.1524,0.4701,0.4894,-0.4777,-0.5579
392,0.0,0.0,0.0,0.0,0.0,0.0,-0.1303,1.0054,0.1490,0.4701,0.4912,-0.4779,-0.5563
393,0.0,0.0,0.0,0.0,0.0,0.0,-0.1323,0.9904,0.1441,0.4702,0.4930,-0.4774,-0.5549
394,0.0,0.0,0.0,0.0,0.0,0.0,-0.1379,0.9594,0.1349,0.4704,0.4950,-0.4767,-0.5536
395,0.0,0.0,0.0,0.0,0.0,0.0,-0.1443,0.9513,0.1300,0.4705,0.4971,-0.4759,-0.5524
396,0.0,0.0,0.0,0.0,0.0,0.0,-0.1449,0.9280,0.1208,0.4708,0.4991,-0.4752,-0.5509
397,0.0,0.0,0.0,0.0,0.0,0.0,-0.1459,0.9198,0.1120,0.4712,0.5013,-0.4752,-0.5485
398,0.0,0.0,0.0,0.0,0.0,0.0,-0.1512,0.9339,0.1071,0.4715,0.5039,-0.4757,-0.5454
399,0.0,0.0,0.0,0.0,0.0,0.0,-0.1544,0.9626,0.1032,0.4719,0.5061,-0.4764,-0.5423
400,0.0,0.0,0.0,0.0,0.0,0.0,-0.1597,0.9811,0.0984,0.4725,0.5081,-0.4770,-0.5396
401,0.0,0.0,0.0,0.0,0.0,0.0,-0.1650,0.9908,0.0969,0.4728,0.5104,-0.4775,-0.5366
402,0.0,0.0,0.0,0.0,0.0,0.0,-0.1596,1.0005,0.0945,0.4730,0.5124,-0.4780,-0.5340
403,0.0,0.0,0.0,0.0,0.0,0.0,-0.1581,1.0038,0.0906,0.4734,0.5144,-0.4784,-0.5315
404,0.0,0.0,0.0,0.0,0.0,0.0,-0.1567,0.9985,0.0877,0.4736,0.5161,-0.4784,-0.5296
405,0.0,0.0,0.0,0.0,0.0,0.0,-0.1605,1.0107,0.0852,0.4736,0.5181,-0.4785,-0.5276
406,0.0,0.0,0.0,0.0,0.0,0.0,-0.1658,1.0209,0.0867,0.4734,0.5202,-0.4784,-0.5257
407,0.0,0.0,0.0,0.0,0.0,0.0,-0.1701,1.0350,0.0862,0.4732,0.5219,-0.4778,-0.5248
408,0.0,0.0,0.0,0.0,0.0,0.0,-0.1720,1.0423,0.0818,0.4728,0.5235,-0.4769,-0.5243
409,0.0,0.0,0.0,0.0,0.0,0.0,-0.1749,1.0423,0.0808,0.4726,0.5249,-0.4760,-0.5241
410,0.0,0.0,0.0,0.0,0.0,0.0,-0.1760,1.0317,0.0750,0.4724,0.5257,-0.4749,-0.5243
411,0.0,0.0,0.0,0.0,0.0,0.0,-0.1655,0.9928,0.0697,0.4724,0.5262,-0.4738,-0.5248
412,0.0,0.0,0.0,0.0,0.0,0.0,-0.1621,0.9943,0.0701,0.4724,0.5262,-0.4730,-0.5256
413,0.0,0.0,0.0,0.0,0.0,0.0,-0.1746,1.0127,0.0794,0.4728,0.5256,-0.4720,-0.5267
414,0.0,0.0,0.0,0.0,0.0,0.0,-0.1756,1.0214,0.0930,0.4732,0.5245,-0.4709,-0.5285
415,0.0,0.0,0.0,0.0,0.0,0.0,-0.1630,1.0024,0.1013,0.4737,0.5231,-0.4704,-0.5299
416,0.0,0.0,0.0,0.0,0.0,0.0,-0.1563,0.9771,0.1081,0.4744,0.5211,-0.4698,-0.5317
417,0.0,0.0,0.0,0.0,0.0,0.0,-0.1472,0.9513,0.1125,0.4751,0.5184,-0.4694,-0.5340
418,0.0,0.0,0.0,0.0,0.0,0.0,-0.1346,0.9362,0.1164,0.4759,0.5156,-0.4694,-0.5360
419,0.0,0.0,0.0,0.0,0.0,0.0,-0.1252,0.9453,0.1232,0.4764,0.5128,-0.4700,-0.5377
420,0.0,0.0,0.0,0.0,0.0,0.0,-0.1222,0.9588,0.1291,0.4769,0.5103,-0.4709,-0.5389
421,0.0,0.0,0.0,0.0,0.0,0.0,-0.1158,0.9762,0.1339,0.4774,0.5077,-0.4719,-0.5401
422,0.0,0.0,0.0,0.0,0.0,0.0,-0.1080,0.9771,0.1339,0.4775,0.5050,-0.4729,-0.5415
423,0.0,0.0,0.0,0.0,0.0,0.0,-0.1051,0.9747,0.1310,0.4776,0.5028,-0.4738,-0.5427
424,0.0,0.0,0.0,0.0,0.0,0.0,-0.1036,0.9688,0.1315,0.4776,0.5009,-0.4750,-0.5434
425,0.0,0.0,0.0,0.0,0.0,0.0,-0.1006,0.9809,0.1335,0.4776,0.4990,-0.4762,-0.5442
426,0.0,0.0,0.0,0.0,0.0,0.0,-0.1001,0.9954,0.1349,0.4776,0.4969,-0.4770,-0.5454
427,0.0,0.0,0.0,0.0,0.0,0.0,-0.0982,0.9775,0.1330,0.4774,0.4952,-0.4778,-0.5464
428,0.0,0.0,0.0,0.0,0.0,0.0,-0.1031,0.9756,0.1310,0.4773,0.4935,-0.4784,-0.5475
429,0.0,0.0,0.0,0.0,0.0,0.0,-0.1055,0.9839,0.1349,0.4771,0.4922,-0.4792,-0.5482
430,0.0,0.0,0.0,0.0,0.0,0.0,-0.1050,0.9785,0.1364,0.4768,0.4910,-0.4801,-0.5487
431,0.0,0.0,0.0,0.0,0.0,0.0,-0.1026,0.9722,0.1383,0.4767,0.4894,-0.4809,-0.5495
432,0.0,0.0,0.0,0.0,0.0,0.0,-0.1001,0.9828,0.1451,0.4767,0.4878,-0.4816,-0.5504
433,0.0,0.0,0.0,0.0,0.0,0.0,-0.0992,0.9828,0.1515,0.4766,0.4864,-0.4823,-0.5511
434,0.0,0.0,0.0,0.0,0.0,0.0,-0.0938,0.9832,0.1544,0.4763,0.4854,-0.4828,-0.5517
435,0.0,0.0,0.0,0.0,0.0,0.0,-0.0869,0.9831,0.1588,0.4761,0.4846,-0.4830,-0.5524
436,0.0,0.0,0.0,0.0,0.0,0.0,-0.0831,0.9768,0.1602,0.4760,0.4843,-0.4830,-0.5528
437,0.0,0.0,0.0,0.0,0.0,0.0,-0.0831,0.9729,0.1583,0.4759,0.4849,-0.4826,-0.5528
438,0.0,0.0,0.0,0.0,0.0,0.0,-0.0894,0.9793,0.1592,0.4756,0.4862,-0.4819,-0.5524
439,0.0,0.0,0.0,0.0,0.0,0.0,-0.0939,0.9590,0.1534,0.4753,0.4881,-0.4810,-0.5518
440,0.0,0.0,0.0,0.0,0.0,0.0,-0.1047,0.9606,0.1442,0.4746,0.4908,-0.4802,-0.5507
441,0.0,0.0,0.0,0.0,0.0,0.0,-0.1158,0.9689,0.1354,0.4738,0.4944,-0.4797,-0.5486
442,0.0,0.0,0.0,0.0,0.0,0.0,-0.1334,0.9783,0.1305,0.4732,0.4982,-0.4788,-0.5465
443,0.0,0.0,0.0,0.0,0.0,0.0,-0.1494,0.9940,0.1242,0.4729,0.5020,-0.4773,-0.5446
444,0.0,0.0,0.0,0.0,0.0,0.0,-0.1625,0.9941,0.1159,0.4726,0.5059,-0.4757,-0.5426
445,0.0,0.0,0.0,0.0,0.0,0.0,-0.1689,0.9884,0.1061,0.4727,0.5096,-0.4739,-0.5406
446,0.0,0.0,0.0,0.0,0.0,0.0,-0.1753,0.9827,0.0969,0.4733,0.5129,-0.4720,-0.5386
447,0.0,0.0,0.0,0.0,0.0,0.0,-0.1847,0.9687,0.0862,0.4741,0.5160,-0.4704,-0.5364
448,0.0,0.0,0.0,0.0,0.0,0.0,-0.1882,0.9567,0.0764,0.4752,0.5186,-0.4690,-0.5341
449,0.0,0.0,0.0,0.0,0.0,0.0,-0.1973,0.9737,0.0725,0.4762,0.5207,-0.4683,-0.5317
450,0.0,0.0,0.0,0.0,0.0,0.0,-0.2030,1.0101,0.0779,0.4774,0.5224,-0.4680,-0.5292
451,0.0,0.0,0.0,0.0,0.0,0.0,-0.1942,1.0129,0.0823,0.4787,0.5233,-0.4678,-0.5275
452,0.0,0.0,0.0,0.0,0.0,0.0,-0.1829,1.0138,0.0828,0.4801,0.5233,-0.4672,-0.5266
453,0.0,0.0,0.0,0.0,0.0,0.0,-0.1734,0.9764,0.0823,0.4814,0.5230,-0.4668,-0.5262
454,0.0,0.0,0.0,0.0,0.0,0.0,-0.1618,0.9632,0.0833,0.4822,0.5224,-0.4669,-0.5259
455,0.0,0.0,0.0,0.0,0.0,0.0,-0.1548,0.9810,0.0920,0.4828,0.5217,-0.4673,-0.5257
456,0.0,0.0,0.0,0.0,0.0,0.0,-0.1470,0.9747,0.0940,0.4831,0.5207,-0.4681,-0.5257
457,0.0,0.0,0.0,0.0,0.0,0.0,-0.1382,0.9760,0.0960,0.4831,0.5194,-0.4692,-0.5260
458,0.0,0.0,0.0,0.0,0.0,0.0,-0.1279,0.9861,0.1033,0.4831,0.5177,-0.4705,-0.5266
459,0.0,0.0,0.0,0.0,0.0,0.0,-0.1230,0.9991,0.1091,0.4826,0.5162,-0.4722,-0.5269
460,0.0,0.0,0.0,0.0,0.0,0.0,-0.1127,0.9995,0.1130,0.4822,0.5145,-0.4740,-0.5273
461,0.0,0.0,0.0,0.0,0.0,0.0,-0.1040,0.9950,0.1169,0.4818,0.5125,-0.4754,-0.5284
462,0.0,0.0,0.0,0.0,0.0,0.0,-0.0888,0.9949,0.1213,0.4814,0.5102,-0.4769,-0.5296
463,0.0,0.0,0.0,0.0,0.0,0.0,-0.0757,0.9928,0.1228,0.4809,0.5081,-0.4785,-0.5307
464,0.0,0.0,0.0,0.0,0.0,0.0,-0.0630,0.9879,0.1267,0.4803,0.5061,-0.4801,-0.5317
465,0.0,0.0,0.0,0.0,0.0,0.0,-0.0542,0.9858,0.1286,0.4794,0.5045,-0.4814,-0.5328
466,0.0,0.0,0.0,0.0,0.0,0.0,-0.0507,0.9984,0.1311,0.4783,0.5034,-0.4826,-0.5338
467,0.0,0.0,0.0,0.0,0.0,0.0,-0.0522,0.9950,0.1291,0.4767,0.5030,-0.4834,-0.5349
468,0.0,0.0,0.0,0.0,0.0,0.0,-0.0543,0.9796,0.1228,0.4748,0.5031,-0.4839,-0.5360
469,0.0,0.0,0.0,0.0,0.0,0.0,-0.0650,0.9758,0.1179,0.4725,0.5041,-0.4843,-0.5368
470,0.0,0.0,0.0,0.0,0.0,0.0,-0.0792,0.9730,0.1130,0.4698,0.5057,-0.4844,-0.5374
471,0.0,0.0,0.0,0.0,0.0,0.0,-0.0905,0.9659,0.1072,0.4671,0.5078,-0.4846,-0.5377
472,0.0,0.0,0.0,0.0,0.0,0.0,-0.1012,0.9660,0.1018,0.4646,0.5103,-0.4847,-0.5374
473,0.0,0.0,0.0,0.0,0.0,0.0,-0.1168,0.9768,0.0955,0.4620,0.5132,-0.4846,-0.5369
474,0.0,0.0,0.0,0.0,0.0,0.0,-0.1318,0.9939,0.0887,0.4599,0.5159,-0.4841,-0.5366
475,0.0,0.0,0.0,0.0,0.0,0.0,-0.1575,1.0204,0.0794,0.4582,0.5187,-0.4833,-0.5361
476,0.0,0.0,0.0,0.0,0.0,0.0,-0.1726,1.0234,0.0662,0.4569,0.5213,-0.4822,-0.5357
477,0.0,0.0,0.0,0.0,0.0,0.0,-0.1834,1.0192,0.0584,0.4562,0.5235,-0.4808,-0.5354
478,0.0,0.0,0.0,0.0,0.0,0.0,-0.1917,1.0110,0.0541,0.4562,0.5252,-0.4793,-0.5350
479,0.0,0.0,0.0,0.0,0.0,0.0,-0.2006,0.9995,0.0555,0.4568,0.5264,-0.4780,-0.5345
480,0.0,0.0,0.0,0.0,0.0,0.0,-0.1992,0.9946,0.0628,0.4580,0.5268,-0.4765,-0.5345
481,0.0,0.0,0.0,0.0,0.0,0.0,-0.1948,0.9921,0.0716,0.4597,0.5267,-0.4751,-0.5344
482,0.0,0.0,0.0,0.0,0.0,0.0,-0.1923,0.9930,0.0794,0.4615,0.5266,-0.4738,-0.5340
483,0.0,0.0,0.0,0.0,0.0,0.0,-0.1900,0.9717,0.0867,0.4637,0.5261,-0.4720,-0.5342
484,0.0,0.0,0.0,0.0,0.0,0.0,-0.1837,0.9614,0.0940,0.4660,0.5257,-0.4705,-0.5340
485,0.0,0.0,0.0,0.0,0.0,0.0,-0.1808,0.9657,0.1018,0.4681,0.5251,-0.4692,-0.5338
486,0.0,0.0,0.0,0.0,0.0,0.0,-0.1790,0.9381,0.1115,0.4702,0.5244,-0.4678,-0.5339
487,0.0,0.0,0.0,0.0,0.0,0.0,-0.1819,0.9356,0.1149,0.4723,0.5241,-0.4664,-0.5337
488,0.0,0.0,0.0,0.0,0.0,0.0,-0.1877,0.9575,0.1188,0.4738,0.5246,-0.4651,-0.5330
489,0.0,0.0,0.0,0.0,0.0,0.0,-0.1895,0.9706,0.1231,0.4748,0.5251,-0.4640,-0.5325
490,0.0,0.0,0.0,0.0,0.0,0.0,-0.1896,0.9619,0.1183,0.4755,0.5260,-0.4628,-0.5320
491,0.0,0.0,0.0,0.0,0.0,0.0,-0.1999,0.9596,0.1100,0.4757,0.5280,-0.4614,-0.5311
492,0.0,0.0,0.0,0.0,0.0,0.0,-0.1998,0.9635,0.1051,0.4759,0.5298,-0.4598,-0.5305
493,0.0,0.0,0.0,0.0,0.0,0.0,-0.1959,0.9717,0.1008,0.4759,0.5318,-0.4583,-0.5298
494,0.0,0.0,0.0,0.0,0.0,0.0,-0.1992,0.9877,0.0954,0.4755,0.5344,-0.4569,-0.5288
495,0.0,0.0,0.0,0.0,0.0,0.0,-0.1953,0.9838,0.0852,0.4750,0.5368,-0.4554,-0.5280
496,0.0,0.0,0.0,0.0,0.0,0.0,-0.1801,0.9968,0.0837,0.4750,0.5387,-0.4541,-0.5271
497,0.0,0.0,0.0,0.0,0.0,0.0,-0.1693,1.0137,0.0799,0.4755,0.5407,-0.4529,-0.5257
498,0.0,0.0,0.0,0.0,0.0,0.0,-0.1826,0.9915,0.0677,0.4764,0.5427,-0.4515,-0.5241
499,0.0,0.0,0.0,0.0,0.0,0.0,-0.1992,0.9897,0.0648,0.4775,0.5445,-0.4498,-0.5227
500,0.0,0.0,0.0,0.0,0.0,0.0,-0.2002,0.9781,0.0628,0.4791,0.5459,-0.4483,-0.5210
501,0.0,0.0,0.0,0.0,0.0,0.0,-0.1969,0.9621,0.0614,0.4811,0.5467,-0.4475,-0.5191
502,0.0,0.0,0.0,0.0,0.0,0.0,-0.2012,0.9743,0.0672,0.4834,0.5466,-0.4470,-0.5175
503,0.0,0.0,0.0,0.0,0.0,0.0,-0.1911,0.9533,0.0667,0.4857,0.5458,-0.4470,-0.5162
504,0.0,0.0,0.0,0.0,0.0,0.0,-0.1808,0.9556,0.0701,0.4880,0.5447,-0.4474,-0.5148
505,0.0,0.0,0.0,0.0,0.0,0.0,-0.1730,0.9619,0.0765,0.4903,0.5432,-0.4484,-0.5133
506,0.0,0.0,0.0,0.0,0.0,0.0,-0.1486,0.9582,0.0799,0.4929,0.5408,-0.4502,-0.5118
507,0.0,0.0,0.0,0.0,0.0,0.0,-0.1286,0.9561,0.0838,0.4957,0.5378,-0.4526,-0.5102
508,0.0,0.0,0.0,0.0,0.0,0.0,-0.1051,0.9602,0.0926,0.4987,0.5342,-0.4553,-0.5086
509,0.0,0.0,0.0,0.0,0.0,0.0,-0.0846,0.9736,0.1043,0.5017,0.5305,-0.4583,-0.5068
510,0.0,0.0,0.0,0.0,0.0,0.0,-0.0674,0.9918,0.1184,0.5052,0.5267,-0.4611,-0.5047
511,0.0,0.0,0.0,0.0,0.0,0.0,-0.0591,0.9883,0.1213,0.5088,0.5231,-0.4634,-0.5027
512,0.0,0.0,0.0,0.0,0.0,0.0,-0.0499,0.9820,0.1218,0.5122,0.5200,-0.4655,-0.5006
513,0.0,0.0,0.0,0.0,0.0,0.0,-0.0488,0.9907,0.1238,0.5154,0.5175,-0.4674,-0.4981
514,0.0,0.0,0.0,0.0,0.0,0.0,-0.0522,0.9955,0.1252,0.5182,0.5155,-0.4690,-0.4958
515,0.0,0.0,0.0,0.0,0.0,0.0,-0.0625,0.9951,0.1247,0.5204,0.5139,-0.4703,-0.4939
516,0.0,0.0,0.0,0.0,0.0,0.0,-0.0683,0.9913,0.1223,0.5218,0.5133,-0.4716,-0.4917
517,0.0,0.0,0.0,0.0,0.0,0.0,-0.0525,1.0256,0.1170,0.5230,0.5126,-0.4731,-0.4898
518,0.0,0.0,0.0,0.0,0.0,0.0,-0.0593,1.0334,0.1199,0.5246,0.5110,-0.4739,-0.4890
519,0.0,0.0,0.0,0.0,0.0,0.0,-0.0711,1.0204,0.1247,0.5261,0.5095,-0.4742,-0.4887
520,0.0,0.0,0.0,0.0,0.0,0.0,-0.0706,1.0233,0.1267,0.5269,0.5085,-0.4742,-0.4889
521,0.0,0.0,0.0,0.0,0.0,0.0,-0.0609,1.0135,0.1281,0.5273,0.5077,-0.4740,-0.4894
522,0.0,0.0,0.0,0.0,0.0,0.0,-0.0556,1.0077,0.1330,0.5273,0.5069,-0.4739,-0.4904
523,0.0,0.0,0.0,0.0,0.0,0.0,-0.0492,1.0037,0.1369,0.5270,0.5061,-0.4736,-0.4917
524,0.0,0.0,0.0,0.0,0.0,0.0,-0.0478,0.9950,0.1393,0.5266,0.5054,-0.4732,-0.4932
525,0.0,0.0,0.0,0.0,0.0,0.0,-0.0489,0.9862,0.1413,0.5261,0.5049,-0.4730,-0.4946
526,0.0,0.0,0.0,0.0,0.0,0.0,-0.0518,0.9756,0.1398,0.5253,0.5046,-0.4725,-0.4961
527,0.0,0.0,0.0,0.0,0.0,0.0,-0.0730,0.9501,0.1398,0.5237,0.5056,-0.4724,-0.4970
528,0.0,0.0,0.0,0.0,0.0,0.0,-0.0661,0.9637,0.1267,0.5210,0.5075,-0.4735,-0.4967
529,0.0,0.0,0.0,0.0,0.0,0.0,-0.0247,1.0263,0.1267,0.5195,0.5079,-0.4741,-0.4974
530,0.0,0.0,0.0,0.0,0.0,0.0,-0.0316,1.0109,0.1257,0.5191,0.5072,-0.4742,-0.4985
531,0.0,0.0,0.0,0.0,0.0,0.0,-0.0678,0.9928,0.1218,0.5184,0.5067,-0.4737,-0.5001
532,0.0,0.0,0.0,0.0,0.0,0.0,-0.0630,0.9913,0.1208,0.5175,0.5064,-0.4729,-0.5022
533,0.0,0.0,0.0,0.0,0.0,0.0,-0.0566,0.9946,0.1199,0.5163,0.5065,-0.4725,-0.5037
534,0.0,0.0,0.0,0.0,0.0,0.0,-0.0646,0.9647,0.1092,0.5149,0.5069,-0.4719,-0.5052
535,0.0,0.0,0.0,0.0,0.0,0.0,-0.0684,0.9749,0.1111,0.5133,0.5074,-0.4716,-0.5067
536,0.0,0.0,0.0,0.0,0.0,0.0,-0.0708,0.9933,0.1145,0.5117,0.5078,-0.4713,-0.5082
537,0.0,0.0,0.0,0.0,0.0,0.0,-0.0727,1.0006,0.1140,0.5101,0.5079,-0.4712,-0.5097
538,0.0,0.0,0.0,0.0,0.0,0.0,-0.0673,1.0001,0.1155,0.5086,0.5078,-0.4712,-0.5113
539,0.0,0.0,0.0,0.0,0.0,0.0,-0.0659,0.9991,0.1155,0.5071,0.5078,-0.4712,-0.5128
540,0.0,0.0,0.0,0.0,0.0,0.0,-0.0679,0.9899,0.1092,0.5056,0.5079,-0.4710,-0.5143
541,0.0,0.0,0.0,0.0,0.0,0.0,-0.0732,1.0021,0.1145,0.5040,0.5080,-0.4707,-0.5161
542,0.0,0.0,0.0,0.0,0.0,0.0,-0.0736,1.0166,0.1218,0.5024,0.5082,-0.4704,-0.5178
543,0.0,0.0,0.0,0.0,0.0,0.0,-0.0833,1.0239,0.1247,0.5007,0.5083,-0.4696,-0.5200
544,0.0,0.0,0.0,0.0,0.0,0.0,-0.0945,1.0177,0.1262,0.4992,0.5082,-0.4681,-0.5229
545,0.0,0.0,0.0,0.0,0.0,0.0,-0.1022,1.0430,0.1310,0.4977,0.5082,-0.4664,-0.5259
546,0.0,0.0,0.0,0.0,0.0,0.0,-0.1087,1.0130,0.1281,0.4957,0.5087,-0.4642,-0.5291
547,0.0,0.0,0.0,0.0,0.0,0.0,-0.1211,0.9835,0.1373,0.4940,0.5091,-0.4620,-0.5323
548,0.0,0.0,0.0,0.0,0.0,0.0,-0.1241,0.9806,0.1427,0.4928,0.5088,-0.4597,-0.5357
549,0.0,0.0,0.0,0.0,0.0,0.0,-0.1363,0.9807,0.1485,0.4914,0.5087,-0.4574,-0.5390
550,0.0,0.0,0.0,0.0,0.0,0.0,-0.1452,0.9575,0.1456,0.4896,0.5090,-0.4550,-0.5425
551,0.0,0.0,0.0,0.0,0.0,0.0,-0.1537,0.9256,0.1451,0.4877,0.5092,-0.4526,-0.5459
552,0.0,0.0,0.0,0.0,0.0,0.0,-0.1576,0.9251,0.1504,0.4858,0.5087,-0.4513,-0.5491
553,0.0,0.0,0.0,0.0,0.0,0.0,-0.1644,0.9354,0.1494,0.4834,0.5081,-0.4509,-0.5521
554,0.0,0.0,0.0,0.0,0.0,0.0,-0.1719,0.9786,0.1587,0.4801,0.5078,-0.4509,-0.5552
555,0.0,0.0,0.0,0.0,0.0,0.0,-0.1578,0.9750,0.1636,0.4767,0.5069,-0.4510,-0.5590
556,0.0,0.0,0.0,0.0,0.0,0.0,-0.1516,0.9522,0.1641,0.4734,0.5051,-0.4520,-0.5625
557,0.0,0.0,0.0,0.0,0.0,0.0,-0.1411,0.9846,0.1655,0.4703,0.5024,-0.4540,-0.5660
558,0.0,0.0,0.0,0.0,0.0,0.0,-0.1377,0.9918,0.1645,0.4672,0.4998,-0.4556,-0.5696
559,0.0,0.0,0.0,0.0,0.0,0.0,-0.1297,0.9404,0.1548,0.4638,0.4977,-0.4572,-0.5729
560,0.0,0.0,0.0,0.0,0.0,0.0,-0.1250,0.9069,0.1495,0.4604,0.4957,-0.4593,-0.5757
561,0.0,0.0,0.0,0.0,0.0,0.0,-0.1311,0.9511,0.1573,0.4573,0.4931,-0.4621,-0.5780
562,0.0,0.0,0.0,0.0,0.0,0.0,-0.1268,1.0111,0.1612,0.4548,0.4904,-0.4653,-0.5798
563,0.0,0.0,0.0,0.0,0.0,0.0,-0.1208,0.9631,0.1524,0.4521,0.4884,-0.4679,-0.5815
564,0.0,0.0,0.0,0.0,0.0,0.0,-0.1249,0.9994,0.1626,0.4496,0.4866,-0.4705,-0.5829
565,0.0,0.0,0.0,0.0,0.0,0.0,-0.1182,0.9776,0.1651,0.4479,0.4842,-0.4730,-0.5841
566,0.0,0.0,0.0,0.0,0.0,0.0,-0.1157,0.9030,0.1471,0.4466,0.4815,-0.4760,-0.5849
567,0.0,0.0,0.0,0.0,0.0,0.0,-0.1268,0.9370,0.1563,0.4457,0.4784,-0.4794,-0.5853
568,0.0,0.0,0.0,0.0,0.0,0.0,-0.1233,0.9432,0.1592,0.4452,0.4756,-0.4831,-0.5850
569,0.0,0.0,0.0,0.0,0.0,0.0,-0.1137,0.9243,0.1558,0.4445,0.4732,-0.4871,-0.5842
570,0.0,0.0,0.0,0.0,0.0,0.0,-0.0994,0.9367,0.1583,0.4436,0.4711,-0.4914,-0.5829
571,0.0,0.0,0.0,0.0,0.0,0.0,-0.1065,0.9828,0.1626,0.4422,0.4698,-0.4954,-0.5817
572,0.0,0.0,0.0,0.0,0.0,0.0,-0.1043,1.0186,0.1636,0.4406,0.4691,-0.4988,-0.5806
573,0.0,0.0,0.0,0.0,0.0,0.0,-0.0979,1.0346,0.1563,0.4386,0.4687,-0.5016,-0.5799
574,0.0,0.0,0.0,0.0,0.0,0.0,-0.0996,0.9939,0.1451,0.4369,0.4686,-0.5036,-0.5795
575,0.0,0.0,0.0,0.0,0.0,0.0,-0.0977,0.9765,0.1403,0.4353,0.4689,-0.5055,-0.5788
576,0.0,0.0,0.0,0.0,0.0,0.0,-0.0968,0.9678,0.1315,0.4339,0.4696,-0.5074,-0.5777
577,0.0,0.0,0.0,0.0,0.0,0.0,-0.0964,0.9562,0.1237,0.4328,0.4706,-0.5096,-0.5758
578,0.0,0.0,0.0,0.0,0.0,0.0,-0.0977,0.9756,0.1198,0.4320,0.4717,-0.5118,-0.5736
579,0.0,0.0,0.0,0.0,0.0,0.0,-0.1002,0.9713,0.1174,0.4315,0.4726,-0.5140,-0.5712
580,0.0,0.0,0.0,0.0,0.0,0.0,-0.1146,1.0072,0.1203,0.4315,0.4738,-0.5158,-0.5686
581,0.0,0.0,0.0,0.0,0.0,0.0,-0.1228,1.0253,0.1145,0.4317,0.4754,-0.5172,-0.5658
582,0.0,0.0,0.0,0.0,0.0,0.0,-0.1326,1.0239,0.1057,0.4321,0.4773,-0.5179,-0.5633
583,0.0,0.0,0.0,0.0,0.0,0.0,-0.1331,1.0201,0.0984,0.4328,0.4793,-0.5183,-0.5607
584,0.0,0.0,0.0,0.0,0.0,0.0,-0.1318,0.9983,0.0867,0.4337,0.4811,-0.5182,-0.5585
585,0.0,0.0,0.0,0.0,0.0,0.0,-0.1430,0.9936,0.0828,0.4350,0.4831,-0.5176,-0.5563
586,0.0,0.0,0.0,0.0,0.0,0.0,-0.1440,1.0008,0.0823,0.4363,0.4849,-0.5168,-0.5544
587,0.0,0.0,0.0,0.0,0.0,0.0,-0.1449,1.0008,0.0818,0.4379,0.4867,-0.5160,-0.5523
588,0.0,0.0,0.0,0.0,0.0,0.0,-0.1518,1.0019,0.0813,0.4394,0.4889,-0.5150,-0.5502
589,0.0,0.0,0.0,0.0,0.0,0.0,-0.1518,0.9966,0.0804,0.4411,0.4909,-0.5137,-0.5482
590,0.0,0.0,0.0,0.0,0.0,0.0,-0.1484,0.9985,0.0818,0.4430,0.4924,-0.5125,-0.5465
591,0.0,0.0,0.0,0.0,0.0,0.0,-0.1498,0.9970,0.0828,0.4448,0.4940,-0.5112,-0.5448
592,0.0,0.0,0.0,0.0,0.0,0.0,-0.1508,0.9902,0.0823,0.4469,0.4952,-0.5096,-0.5435
593,0.0,0.0,0.0,0.0,0.0,0.0,-0.1465,0.9771,0.0775,0.4490,0.4960,-0.5079,-0.5425
594,0.0,0.0,0.0,0.0,0.0,0.0,-0.1441,0.9795,0.0765,0.4510,0.4970,-0.5065,-0.5414
595,0.0,0.0,0.0,0.0,0.0,0.0,-0.1416,0.9849,0.0741,0.4529,0.4978,-0.5053,-0.5402
596,0.0,0.0,0.0,0.0,0.0,0.0,-0.1397,0.9834,0.0726,0.4545,0.4986,-0.5044,-0.5389
597,0.0,0.0,0.0,0.0,0.0,0.0,-0.1343,0.9828,0.0736,0.4559,0.4992,-0.5035,-0.5380
598,0.0,0.0,0.0,0.0,0.0,0.0,-0.1255,0.9813,0.0726,0.4572,0.4994,-0.5028,-0.5374
599,0.0,0.0,0.0,0.0,0.0,0.0,-0.1202,0.9740,0.0712,0.4583,0.4998,-0.5024,-0.5364
600,0.0,0.0,0.0,0.0,0.0,0.0,-0.1133,0.9812,0.0712,0.4593,0.5004,-0.5022,-0.5351
601,0.0,0.0,0.0,0.0,0.0,0.0,-0.1122,1.0049,0.0790,0.4602,0.5007,-0.5019,-0.5344
602,0.0,0.0,0.0,0.0,0.0,0.0,-0.1107,1.0025,0.0819,0.4612,0.5011,-0.5015,-0.5336
603,0.0,0.0,0.0,0.0,0.0,0.0,-0.1083,0.9952,0.0809,0.4619,0.5016,-0.5011,-0.5328
604,0.0,0.0,0.0,0.0,0.0,0.0,-0.1035,0.9879,0.0780,0.4630,0.5025,-0.5007,-0.5314
605,0.0,0.0,0.0,0.0,0.0,0.0,-0.0948,0.9752,0.0765,0.4642,0.5032,-0.5003,-0.5301
606,0.0,0.0,0.0,0.0,0.0,0.0,-0.0982,0.9806,0.0761,0.4652,0.5039,-0.4995,-0.5293
607,0.0,0.0,0.0,0.0,0.0,0.0,-0.0982,0.9801,0.0741,0.4665,0.5050,-0.4987,-0.5279
608,0.0,0.0,0.0,0.0,0.0,0.0,-0.0963,0.9733,0.0722,0.4679,0.5061,-0.4980,-0.5262
609,0.0,0.0,0.0,0.0,0.0,0.0,-0.0992,0.9821,0.0702,0.4693,0.5073,-0.4975,-0.5243
610,0.0,0.0,0.0,0.0,0.0,0.0,-0.1001,0.9893,0.0692,0.4707,0.5086,-0.4972,-0.5221
611,0.0,0.0,0.0,0.0,0.0,0.0,-0.0986,0.9961,0.0678,0.4722,0.5099,-0.4965,-0.5201
612,0.0,0.0,0.0,0.0,0.0,0.0,-0.0990,0.9995,0.0653,0.4739,0.5113,-0.4956,-0.5181
613,0.0,0.0,0.0,0.0,0.0,0.0,-0.1020,0.9952,0.0605,0.4753,0.5133,-0.4946,-0.5157
614,0.0,0.0,0.0,0.0,0.0,0.0,-0.1025,0.9923,0.0556,0.4768,0.5153,-0.4936,-0.5132
615,0.0,0.0,0.0,0.0,0.0,0.0,-0.0977,0.9875,0.0469,0.4783,0.5173,-0.4927,-0.5108
616,0.0,0.0,0.0,0.0,0.0,0.0,-0.1011,0.9851,0.0410,0.4798,0.5193,-0.4918,-0.5082
617,0.0,0.0,0.0,0.0,0.0,0.0,-0.1030,0.9885,0.0376,0.4812,0.5209,-0.4911,-0.5059
618,0.0,0.0,0.0,0.0,0.0,0.0,-0.0971,0.9933,0.0381,0.4827,0.5226,-0.4906,-0.5033
619,0.0,0.0,0.0,0.0,0.0,0.0,-0.0981,0.9923,0.0332,0.4842,0.5244,-0.4899,-0.5006
620,0.0,0.0,0.0,0.0,0.0,0.0,-0.0981,0.9948,0.0318,0.4858,0.5259,-0.4891,-0.4982
621,0.0,0.0,0.0,0.0,0.0,0.0,-0.1020,1.0001,0.0337,0.4872,0.5276,-0.4884,-0.4958
622,0.0,0.0,0.0,0.0,0.0,0.0,-0.1059,0.9963,0.0342,0.4883,0.5290,-0.4880,-0.4935
623,0.0,0.0,0.0,0.0,0.0,0.0,-0.1015,0.9992,0.0362,0.4895,0.5300,-0.4878,-0.4915
624,0.0,0.0,0.0,0.0,0.0,0.0,-0.1025,1.0011,0.0366,0.4908,0.5310,-0.4873,-0.4896
625,0.0,0.0,0.0,0.0,0.0,0.0,-0.1059,1.0007,0.0342,0.4922,0.5319,-0.4866,-0.4880
626,0.0,0.0,0.0,0.0,0.0,0.0,-0.1138,0.9828,0.0274,0.4930,0.5329,-0.4861,-0.4865
627,0.0,0.0,0.0,0.0,0.0,0.0,-0.1109,0.9804,0.0269,0.4934,0.5336,-0.4862,-0.4852
628,0.0,0.0,0.0,0.0,0.0,0.0,-0.1122,0.9997,0.0342,0.4940,0.5341,-0.4861,-0.4842
629,0.0,0.0,0.0,0.0,0.0,0.0,-0.1132,0.9954,0.0332,0.4945,0.5346,-0.4860,-0.4832
630,0.0,0.0,0.0,0.0,0.0,0.0,-0.1094,0.9784,0.0259,0.4948,0.5352,-0.4861,-0.4822
631,0.0,0.0,0.0,0.0,0.0,0.0,-0.1114,0.9755,0.0254,0.4945,0.5357,-0.4864,-0.4815
632,0.0,0.0,0.0,0.0,0.0,0.0,-0.1069,0.9871,0.0269,0.4943,0.5359,-0.4869,-0.4810
633,0.0,0.0,0.0,0.0,0.0,0.0,-0.1005,1.0064,0.0293,0.4940,0.5358,-0.4877,-0.4806
634,0.0,0.0,0.0,0.0,0.0,0.0,-0.0940,1.0253,0.0347,0.4935,0.5355,-0.4888,-0.4804
635,0.0,0.0,0.0,0.0,0.0,0.0,-0.0866,1.0421,0.0386,0.4931,0.5347,-0.4898,-0.4807
636,0.0,0.0,0.0,0.0,0.0,0.0,-0.0822,1.0455,0.0430,0.4924,0.5335,-0.4905,-0.4820
637,0.0,0.0,0.0,0.0,0.0,0.0,-0.0778,1.0391,0.0440,0.4919,0.5321,-0.4908,-0.4838
638,0.0,0.0,0.0,0.0,0.0,0.0,-0.0749,1.0352,0.0508,0.4913,0.5311,-0.4910,-0.4853
639,0.0,0.0,0.0,0.0,0.0,0.0,-0.0705,1.0322,0.0639,0.4906,0.5301,-0.4910,-0.4870
640,0.0,0.0,0.0,0.0,0.0,0.0,-0.0696,1.0254,0.0688,0.4901,0.5290,-0.4906,-0.4891
641,0.0,0.0,0.0,0.0,0.0,0.0,-0.0674,0.9905,0.0673,0.4898,0.5280,-0.4897,-0.4914
642,0.0,0.0,0.0,0.0,0.0,0.0,-0.0695,0.9653,0.0698,0.4899,0.5268,-0.4886,-0.4937
643,0.0,0.0,0.0,0.0,0.0,0.0,-0.0691,0.9537,0.0732,0.4900,0.5259,-0.4876,-0.4955
644,0.0,0.0,0.0,0.0,0.0,0.0,-0.0632,0.9536,0.0785,0.4904,0.5253,-0.4867,-0.4966
645,0.0,0.0,0.0,0.0,0.0,0.0,-0.0632,0.9618,0.0819,0.4908,0.5253,-0.4859,-0.4971
646,0.0,0.0,0.0,0.0,0.0,0.0,-0.0657,0.9512,0.0814,0.4911,0.5258,-0.4853,-0.4968
647,0.0,0.0,0.0,0.0,0.0,0.0,-0.0643,0.9401,0.0766,0.4914,0.5266,-0.4848,-0.4962
648,0.0,0.0,0.0,0.0,0.0,0.0,-0.0691,0.9493,0.0732,0.4916,0.5280,-0.4845,-0.4948
649,0.0,0.0,0.0,0.0,0.0,0.0,-0.0773,0.9702,0.0741,0.4917,0.5300,-0.4841,-0.4929
650,0.0,0.0,0.0,0.0,0.0,0.0,-0.0927,1.0072,0.0751,0.4920,0.5323,-0.4832,-0.4910
651,0.0,0.0,0.0,0.0,0.0,0.0,-0.1020,0.9991,0.0634,0.4925,0.5346,-0.4819,-0.4894
652,0.0,0.0,0.0,0.0,0.0,0.0,-0.1085,0.9740,0.0459,0.4927,0.5374,-0.4804,-0.4875
653,0.0,0.0,0.0,0.0,0.0,0.0,-0.1206,0.9828,0.0371,0.4929,0.5406,-0.4790,-0.4851
654,0.0,0.0,0.0,0.0,0.0,0.0,-0.1338,0.9820,0.0264,0.4932,0.5439,-0.4777,-0.4825
655,0.0,0.0,0.0,0.0,0.0,0.0,-0.1470,0.9764,0.0132,0.4934,0.5470,-0.4764,-0.4800
656,0.0,0.0,0.0,0.0,0.0,0.0,-0.1514,0.9818,0.0045,0.4935,0.5498,-0.4756,-0.4775
657,0.0,0.0,0.0,0.0,0.0,0.0,-0.1592,0.9867,-0.0038,0.4933,0.5525,-0.4754,-0.4747
658,0.0,0.0,0.0,0.0,0.0,0.0,-0.1650,0.9935,-0.0053,0.4935,0.5544,-0.4754,-0.4723
659,0.0,0.0,0.0,0.0,0.0,0.0,-0.1742,1.0014,-0.0072,0.4935,0.5559,-0.4758,-0.4702
660,0.0,0.0,0.0,0.0,0.0,0.0,-0.1834,1.0179,-0.0077,0.4932,0.5568,-0.4766,-0.4686
661,0.0,0.0,0.0,0.0,0.0,0.0,-0.1813,1.0460,-0.0028,0.4930,0.5569,-0.4773,-0.4680
662,0.0,0.0,0.0,0.0,0.0,0.0,-0.1666,1.0498,-0.0009,0.4929,0.5561,-0.4778,-0.4686
663,0.0,0.0,0.0,0.0,0.0,0.0,-0.1452,1.0408,-0.0009,0.4926,0.5549,-0.4781,-0.4700
664,0.0,0.0,0.0,0.0,0.0,0.0,-0.1233,1.0217,0.0021,0.4920,0.5536,-0.4785,-0.4718
665,0.0,0.0,0.0,0.0,0.0,0.0,-0.1059,1.0022,0.0050,0.4912,0.5519,-0.4790,-0.4740
666,0.0,0.0,0.0,0.0,0.0,0.0,-0.0943,0.9798,0.0104,0.4902,0.5502,-0.4799,-0.4760
667,0.0,0.0,0.0,0.0,0.0,0.0,-0.0861,0.9632,0.0182,0.4888,0.5488,-0.4814,-0.4777
668,0.0,0.0,0.0,0.0,0.0,0.0,-0.0538,0.9775,0.0216,0.4875,0.5469,-0.4836,-0.4790
669,0.0,0.0,0.0,0.0,0.0,0.0,-0.0454,0.9972,0.0279,0.4868,0.5445,-0.4856,-0.4804
670,0.0,0.0,0.0,0.0,0.0,0.0,-0.0492,1.0016,0.0401,0.4867,0.5417,-0.4873,-0.4819
671,0.0,0.0,0.0,0.0,0.0,0.0,-0.0556,1.0016,0.0469,0.4864,0.5391,-0.4887,-0.4836
672,0.0,0.0,0.0,0.0,0.0,0.0,-0.0502,1.0025,0.0489,0.4861,0.5367,-0.4902,-0.4852
673,0.0,0.0,0.0,0.0,0.0,0.0,-0.0483,1.0006,0.0489,0.4859,0.5344,-0.4913,-0.4867
674,0.0,0.0,0.0,0.0,0.0,0.0,-0.0493,0.9929,0.0450,0.4857,0.5324,-0.4922,-0.4883
675,0.0,0.0,0.0,0.0,0.0,0.0,-0.0517,0.9958,0.0479,0.4855,0.5311,-0.4929,-0.4891
676,0.0,0.0,0.0,0.0,0.0,0.0,-0.0566,0.9982,0.0503,0.4854,0.5302,-0.4934,-0.4896
677,0.0,0.0,0.0,0.0,0.0,0.0,-0.0711,1.0206,0.0552,0.4853,0.5298,-0.4935,-0.4901
678,0.0,0.0,0.0,0.0,0.0,0.0,-0.0534,1.0404,0.0537,0.4849,0.5294,-0.4939,-0.4905
679,0.0,0.0,0.0,0.0,0.0,0.0,-0.0545,1.0975,0.0591,0.4845,0.5283,-0.4940,-0.4920
680,0.0,0.0,0.0,0.0,0.0,0.0,-0.0776,1.1646,0.0668,0.4839,0.5262,-0.4934,-0.4955
681,0.0,0.0,0.0,0.0,0.0,0.0,-0.0917,1.1656,0.0814,0.4837,0.5236,-0.4896,-0.5022
682,0.0,0.0,0.0,0.0,0.0,0.0,-0.0962,1.0591,0.0678,0.4837,0.5219,-0.4840,-0.5093
683,0.0,0.0,0.0,0.0,0.0,0.0,-0.0922,0.9224,0.0551,0.4833,0.5207,-0.4789,-0.5157
684,0.0,0.0,0.0,0.0,0.0,0.0,-0.0901,0.8585,0.0581,0.4822,0.5205,-0.4764,-0.5193
685,0.0,0.0,0.0,0.0,0.0,0.0,-0.1075,0.8852,0.0756,0.4824,0.5196,-0.4736,-0.5224
686,0.0,0.0,0.0,0.0,0.0,0.0,-0.1080,0.8847,0.0853,0.4839,0.5179,-0.4714,-0.5248
687,0.0,0.0,0.0,0.0,0.0,0.0,-0.1147,0.9128,0.1018,0.4857,0.5159,-0.4697,-0.5266
688,0.0,0.0,0.0,0.0,0.0,0.0,-0.1246,0.9783,0.1222,0.4873,0.5141,-0.4686,-0.5279
689,0.0,0.0,0.0,0.0,0.0,0.0,-0.1125,0.9559,0.1223,0.4893,0.5122,-0.4673,-0.5290
690,0.0,0.0,0.0,0.0,0.0,0.0,-0.1010,0.9151,0.1194,0.4913,0.5103,-0.4659,-0.5303
691,0.0,0.0,0.0,0.0,0.0,0.0,-0.0897,0.9260,0.1359,0.4923,0.5090,-0.4653,-0.5310
692,0.0,0.0,0.0,0.0,0.0,0.0,-0.0845,0.9758,0.1573,0.4923,0.5082,-0.4658,-0.5314
693,0.0,0.0,0.0,0.0,0.0,0.0,-0.0820,0.9996,0.1627,0.4918,0.5068,-0.4668,-0.5323
694,0.0,0.0,0.0,0.0,0.0,0.0,-0.0834,0.9995,0.1695,0.4912,0.5050,-0.4681,-0.5335
695,0.0,0.0,0.0,0.0,0.0,0.0,-0.0697,1.0140,0.1734,0.4907,0.5028,-0.4696,-0.5348
696,0.0,0.0,0.0,0.0,0.0,0.0,-0.0819,1.0058,0.1675,0.4903,0.5008,-0.4703,-0.5364
697,0.0,0.0,0.0,0.0,0.0,0.0,-0.0748,0.9758,0.1597,0.4903,0.4991,-0.4705,-0.5377
698,0.0,0.0,0.0,0.0,0.0,0.0,-0.0753,0.9714,0.1632,0.4904,0.4973,-0.4708,-0.5390
699,0.0,0.0,0.0,0.0,0.0,0.0,-0.0750,0.9326,0.1573,0.4907,0.4955,-0.4715,-0.5399
700,0.0,0.0,0.0,0.0,0.0,0.0,-0.0784,0.9462,0.1568,0.4912,0.4938,-0.4726,-0.5400
701,0.0,0.0,0.0,0.0,0.0,0.0,-0.0855,0.9754,0.1534,0.4917,0.4924,-0.4736,-0.5399
702,0.0,0.0,0.0,0.0,0.0,0.0,-0.0869,0.9890,0.1481,0.4924,0.4913,-0.4746,-0.5394
703,0.0,0.0,0.0,0.0,0.0,0.0,-0.0913,0.9842,0.1466,0.4930,0.4905,-0.4752,-0.5390
704,0.0,0.0,0.0,0.0,0.0,0.0,-0.0914,0.9789,0.1442,0.4933,0.4898,-0.4757,-0.5389
705,0.0,0.0,0.0,0.0,0.0,0.0,-0.0851,0.9648,0.1354,0.4933,0.4891,-0.4763,-0.5390
706,0.0,0.0,0.0,0.0,0.0,0.0,-0.0846,0.9677,0.1320,0.4929,0.4890,-0.4774,-0.5385
707,0.0,0.0,0.0,0.0,0.0,0.0,-0.0846,0.9735,0.1359,0.4923,0.4890,-0.4787,-0.5379
708,0.0,0.0,0.0,0.0,0.0,0.0,-0.0885,0.9745,0.1408,0.4916,0.4885,-0.4798,-0.5380
709,0.0,0.0,0.0,0.0,0.0,0.0,-0.0846,0.9725,0.1417,0.4907,0.4883,-0.4812,-0.5377
710,0.0,0.0,0.0,0.0,0.0,0.0,-0.0797,0.9744,0.1422,0.4897,0.4884,-0.4829,-0.5371
711,0.0,0.0,0.0,0.0,0.0,0.0,-0.0830,0.9865,0.1447,0.4888,0.4883,-0.4845,-0.5366
712,0.0,0.0,0.0,0.0,0.0,0.0,-0.0868,0.9992,0.1456,0.4877,0.4884,-0.4860,-0.5361
713,0.0,0.0,0.0,0.0,0.0,0.0,-0.0849,1.0011,0.1456,0.4866,0.4890,-0.4873,-0.5354
714,0.0,0.0,0.0,0.0,0.0,0.0,-0.0829,0.9987,0.1417,0.4855,0.4896,-0.4881,-0.5352
715,0.0,0.0,0.0,0.0,0.0,0.0,-0.0845,0.9895,0.1349,0.4843,0.4903,-0.4884,-0.5352
716,0.0,0.0,0.0,0.0,0.0,0.0,-0.0879,0.9890,0.1340,0.4829,0.4916,-0.4889,-0.5349
717,0.0,0.0,0.0,0.0,0.0,0.0,-0.0869,0.9827,0.1305,0.4814,0.4930,-0.4894,-0.5345
718,0.0,0.0,0.0,0.0,0.0,0.0,-0.0942,0.9872,0.1242,0.4800,0.4943,-0.4894,-0.5345
719,0.0,0.0,0.0,0.0,0.0,0.0,-0.0942,0.9911,0.1218,0.4789,0.4959,-0.4893,-0.5342
720,0.0,0.0,0.0,0.0,0.0,0.0,-0.0996,0.9931,0.1174,0.4779,0.4978,-0.4891,-0.5335
721,0.0,0.0,0.0,0.0,0.0,0.0,-0.1048,1.0140,0.1174,0.4769,0.4999,-0.4886,-0.5328
722,0.0,0.0,0.0,0.0,0.0,0.0,-0.1069,0.9980,0.1101,0.4760,0.5022,-0.4882,-0.5319
723,0.0,0.0,0.0,0.0,0.0,0.0,-0.1137,0.9962,0.1004,0.4752,0.5049,-0.4875,-0.5307
724,0.0,0.0,0.0,0.0,0.0,0.0,-0.1211,0.9841,0.0950,0.4748,0.5074,-0.4865,-0.5296
725,0.0,0.0,0.0,0.0,0.0,0.0,-0.1260,0.9784,0.0887,0.4744,0.5099,-0.4854,-0.5285
726,0.0,0.0,0.0,0.0,0.0,0.0,-0.1304,0.9818,0.0867,0.4742,0.5126,-0.4845,-0.5270
727,0.0,0.0,0.0,0.0,0.0,0.0,-0.1337,0.9930,0.0862,0.4742,0.5148,-0.4836,-0.5256
728,0.0,0.0,0.0,0.0,0.0,0.0,-0.1381,0.9935,0.0818,0.4743,0.5169,-0.4824,-0.5245
729,0.0,0.0,0.0,0.0,0.0,0.0,-0.1484,0.9926,0.0804,0.4745,0.5193,-0.4811,-0.5232
730,0.0,0.0,0.0,0.0,0.0,0.0,-0.1484,0.9844,0.0770,0.4747,0.5212,-0.4800,-0.5221
731,0.0,0.0,0.0,0.0,0.0,0.0,-0.1481,0.9651,0.0697,0.4750,0.5228,-0.4789,-0.5213
732,0.0,0.0,0.0,0.0,0.0,0.0,-0.1501,0.9588,0.0677,0.4751,0.5246,-0.4782,-0.5200
733,0.0,0.0,0.0,0.0,0.0,0.0,-0.1451,0.9704,0.0682,0.4753,0.5260,-0.4782,-0.5184
734,0.0,0.0,0.0,0.0,0.0,0.0,-0.1504,0.9777,0.0668,0.4757,0.5270,-0.4782,-0.5169
735,0.0,0.0,0.0,0.0,0.0,0.0,-0.1475,0.9830,0.0658,0.4763,0.5274,-0.4784,-0.5158
736,0.0,0.0,0.0,0.0,0.0,0.0,-0.1445,0.9902,0.0638,0.4767,0.5277,-0.4790,-0.5147
737,0.0,0.0,0.0,0.0,0.0,0.0,-0.1420,0.9931,0.0619,0.4769,0.5279,-0.4798,-0.5135
738,0.0,0.0,0.0,0.0,0.0,0.0,-0.1347,0.9955,0.0609,0.4774,0.5275,-0.4805,-0.5128
739,0.0,0.0,0.0,0.0,0.0,0.0,-0.1293,1.0037,0.0648,0.4780,0.5268,-0.4813,-0.5121
740,0.0,0.0,0.0,0.0,0.0,0.0,-0.1176,0.9939,0.0629,0.4784,0.5262,-0.4823,-0.5114
741,0.0,0.0,0.0,0.0,0.0,0.0,-0.1123,0.9900,0.0644,0.4789,0.5254,-0.4831,-0.5112
742,0.0,0.0,0.0,0.0,0.0,0.0,-0.1069,1.0005,0.0721,0.4794,0.5242,-0.4839,-0.5112
743,0.0,0.0,0.0,0.0,0.0,0.0,-0.1039,0.9981,0.0736,0.4796,0.5231,-0.4846,-0.5113
744,0.0,0.0,0.0,0.0,0.0,0.0,-0.0981,0.9898,0.0751,0.4801,0.5216,-0.4855,-0.5116
745,0.0,0.0,0.0,0.0,0.0,0.0,-0.0932,0.9926,0.0790,0.4805,0.5202,-0.4866,-0.5116
746,0.0,0.0,0.0,0.0,0.0,0.0,-0.0908,0.9931,0.0819,0.4810,0.5188,-0.4877,-0.5115
747,0.0,0.0,0.0,0.0,0.0,0.0,-0.0864,0.9955,0.0838,0.4816,0.5171,-0.4887,-0.5117
748,0.0,0.0,0.0,0.0,0.0,0.0,-0.0854,1.0008,0.0838,0.4818,0.5157,-0.4896,-0.5120
749,0.0,0.0,0.0,0.0,0.0,0.0,-0.0810,1.0022,0.0868,0.4821,0.5145,-0.4904,-0.5122
750,0.0,0.0,0.0,0.0,0.0,0.0,-0.0785,1.0007,0.0868,0.4821,0.5136,-0.4912,-0.5124
751,0.0,0.0,0.0,0.0,0.0,0.0,-0.0785,1.0017,0.0868,0.4821,0.5126,-0.4917,-0.5130
752,0.0,0.0,0.0,0.0,0.0,0.0,-0.0751,0.9983,0.0877,0.4823,0.5114,-0.4919,-0.5137
753,0.0,0.0,0.0,0.0,0.0,0.0,-0.0761,1.0046,0.0892,0.4823,0.5108,-0.4924,-0.5138
754,0.0,0.0,0.0,0.0,0.0,0.0,-0.0795,1.0070,0.0911,0.4822,0.5103,-0.4926,-0.5142
755,0.0,0.0,0.0,0.0,0.0,0.0,-0.0770,1.0085,0.0931,0.4823,0.5098,-0.4927,-0.5145
756,0.0,0.0,0.0,0.0,0.0,0.0,-0.0809,1.0143,0.0926,0.4818,0.5097,-0.4928,-0.5149
757,0.0,0.0,0.0,0.0,0.0,0.0,-0.0858,1.0192,0.0941,0.4814,0.5096,-0.4926,-0.5157
758,0.0,0.0,0.0,0.0,0.0,0.0,-0.0846,1.0410,0.0984,0.4809,0.5090,-0.4920,-0.5172
759,0.0,0.0,0.0,0.0,0.0,0.0,-0.0881,1.0362,0.0936,0.4805,0.5080,-0.4907,-0.5199
760,0.0,0.0,0.0,0.0,0.0,0.0,-0.0960,1.0198,0.0906,0.4800,0.5069,-0.4888,-0.5232
761,0.0,0.0,0.0,0.0,0.0,0.0,-0.1049,1.0000,0.0916,0.4794,0.5059,-0.4867,-0.5267
762,0.0,0.0,0.0,0.0,0.0,0.0,-0.1104,0.9806,0.0931,0.4784,0.5051,-0.4850,-0.5300
763,0.0,0.0,0.0,0.0,0.0,0.0,-0.1051,0.9612,0.0975,0.4774,0.5038,-0.4839,-0.5331
764,0.0,0.0,0.0,0.0,0.0,0.0,-0.1009,0.9398,0.1052,0.4767,0.5019,-0.4831,-0.5361
765,0.0,0.0,0.0,0.0,0.0,0.0,-0.1008,0.9475,0.1116,0.4764,0.5003,-0.4824,-0.5386
766,0.0,0.0,0.0,0.0,0.0,0.0,-0.1017,0.9659,0.1184,0.4763,0.4990,-0.4819,-0.5403
767,0.0,0.0,0.0,0.0,0.0,0.0,-0.1022,0.9703,0.1218,0.4762,0.4981,-0.4816,-0.5415
768,0.0,0.0,0.0,0.0,0.0,0.0,-0.0993,0.9640,0.1189,0.4763,0.4976,-0.4814,-0.5421
769,0.0,0.0,0.0,0.0,0.0,0.0,-0.0949,0.9610,0.1194,0.4767,0.4968,-0.4811,-0.5427
770,0.0,0.0,0.0,0.0,0.0,0.0,-0.0963,0.9688,0.1237,0.4767,0.4960,-0.4812,-0.5433
771,0.0,0.0,0.0,0.0,0.0,0.0,-0.0933,0.9760,0.1291,0.4767,0.4956,-0.4817,-0.5433
772,0.0,0.0,0.0,0.0,0.0,0.0,-0.0913,0.9813,0.1296,0.4765,0.4951,-0.4821,-0.5435
773,0.0,0.0,0.0,0.0,0.0,0.0,-0.0914,0.9697,0.1247,0.4760,0.4948,-0.4827,-0.5437
774,0.0,0.0,0.0,0.0,0.0,0.0,-0.0958,0.9785,0.1252,0.4754,0.4947,-0.4835,-0.5436
775,0.0,0.0,0.0,0.0,0.0,0.0,-0.0908,0.9968,0.1262,0.4748,0.4947,-0.4843,-0.5434
776,0.0,0.0,0.0,0.0,0.0,0.0,-0.0889,0.9896,0.1213,0.4744,0.4947,-0.4848,-0.5433
777,0.0,0.0,0.0,0.0,0.0,0.0,-0.0982,0.9838,0.1208,0.4738,0.4953,-0.4853,-0.5428
778,0.0,0.0,0.0,0.0,0.0,0.0,-0.1031,0.9785,0.1213,0.4734,0.4961,-0.4858,-0.5420
779,0.0,0.0,0.0,0.0,0.0,0.0,-0.1061,0.9674,0.1154,0.4732,0.4967,-0.4858,-0.5416
780,0.0,0.0,0.0,0.0,0.0,0.0,-0.1081,0.9573,0.1101,0.4733,0.4972,-0.4858,-0.5411
781,0.0,0.0,0.0,0.0,0.0,0.0,-0.1109,0.9733,0.1120,0.4733,0.4978,-0.4863,-0.5402
782,0.0,0.0,0.0,0.0,0.0,0.0,-0.1128,0.9908,0.1130,0.4735,0.4982,-0.4865,-0.5393
783,0.0,0.0,0.0,0.0,0.0,0.0,-0.1104,0.9849,0.1106,0.4739,0.4987,-0.4866,-0.5385
784,0.0,0.0,0.0,0.0,0.0,0.0,-0.1064,0.9869,0.1062,0.4743,0.4991,-0.4868,-0.5376
785,0.0,0.0,0.0,0.0,0.0,0.0,-0.1093,1.0072,0.1101,0.4747,0.4995,-0.4871,-0.5366
786,0.0,0.0,0.0,0.0,0.0,0.0,-0.1120,1.0383,0.1140,0.4751,0.4997,-0.4875,-0.5356
787,0.0,0.0,0.0,0.0,0.0,0.0,-0.1081,1.0397,0.1125,0.4755,0.4999,-0.4876,-0.5351
788,0.0,0.0,0.0,0.0,0.0,0.0,-0.1027,1.0459,0.1193,0.4762,0.4994,-0.4872,-0.5353
789,0.0,0.0,0.0,0.0,0.0,0.0,-0.1051,1.0411,0.1188,0.4772,0.4982,-0.4862,-0.5363
790,0.0,0.0,0.0,0.0,0.0,0.0,-0.1050,0.9912,0.1140,0.4783,0.4967,-0.4850,-0.5379
791,0.0,0.0,0.0,0.0,0.0,0.0,-0.1016,0.9776,0.1223,0.4799,0.4946,-0.4838,-0.5395
792,0.0,0.0,0.0,0.0,0.0,0.0,-0.1002,0.9712,0.1300,0.4814,0.4928,-0.4828,-0.5406
793,0.0,0.0,0.0,0.0,0.0,0.0,-0.0929,0.9624,0.1344,0.4834,0.4914,-0.4819,-0.5409
794,0.0,0.0,0.0,0.0,0.0,0.0,-0.0920,0.9566,0.1359,0.4854,0.4905,-0.4809,-0.5409
795,0.0,0.0,0.0,0.0,0.0,0.0,-0.0929,0.9609,0.1437,0.4875,0.4902,-0.4796,-0.5404
796,0.0,0.0,0.0,0.0,0.0,0.0,-0.0948,0.9716,0.1495,0.4895,0.4904,-0.4781,-0.5397
797,0.0,0.0,0.0,0.0,0.0,0.0,-0.0914,0.9692,0.1485,0.4917,0.4908,-0.4767,-0.5386
798,0.0,0.0,0.0,0.0,0.0,0.0,-0.0929,0.9682,0.1519,0.4942,0.4911,-0.4751,-0.5376
799,0.0,0.0,0.0,0.0,0.0,0.0,-0.0860,0.9817,0.1612,0.4963,0.4909,-0.4739,-0.5367
800,0.0,0.0,0.0,0.0,0.0,0.0,-0.0820,0.9903,0.1631,0.4981,0.4905,-0.4733,-0.5359
801,0.0,0.0,0.0,0.0,0.0,0.0,-0.0800,0.9976,0.1636,0.4996,0.4898,-0.4731,-0.5355
802,0.0,0.0,0.0,0.0,0.0,0.0,-0.0770,1.0073,0.1666,0.5008,0.4884,-0.4729,-0.5357
803,0.0,0.0,0.0,0.0,0.0,0.0,-0.0786,0.9845,0.1607,0.5019,0.4870,-0.4727,-0.5362
804,0.0,0.0,0.0,0.0,0.0,0.0,-0.0787,0.9709,0.1607,0.5029,0.4858,-0.4729,-0.5362
805,0.0,0.0,0.0,0.0,0.0,0.0,-0.0791,0.9874,0.1636,0.5038,0.4845,-0.4732,-0.5362
806,0.0,0.0,0.0,0.0,0.0,0.0,-0.0793,0.9637,0.1573,0.5044,0.4831,-0.4732,-0.5369
807,0.0,0.0,0.0,0.0,0.0,0.0,-0.0670,0.9655,0.1598,0.5049,0.4818,-0.4735,-0.5373
808,0.0,0.0,0.0,0.0,0.0,0.0,-0.0607,0.9577,0.1675,0.5058,0.4803,-0.4739,-0.5375
809,0.0,0.0,0.0,0.0,0.0,0.0,-0.0623,0.9427,0.1637,0.5067,0.4782,-0.4752,-0.5373
810,0.0,0.0,0.0,0.0,0.0,0.0,-0.0644,0.9926,0.1646,0.5070,0.4763,-0.4772,-0.5370
811,0.0,0.0,0.0,0.0,0.0,0.0,-0.0657,1.0333,0.1758,0.5065,0.4753,-0.4778,-0.5379
812,0.0,0.0,0.0,0.0,0.0,0.0,-0.0580,1.0051,0.1744,0.5054,0.4754,-0.4773,-0.5392
813,0.0,0.0,0.0,0.0,0.0,0.0,-0.0552,0.9828,0.1744,0.5036,0.4764,-0.4768,-0.5405
814,0.0,0.0,0.0,0.0,0.0,0.0,-0.0563,0.9707,0.1753,0.5016,0.4774,-0.4761,-0.5419
815,0.0,0.0,0.0,0.0,0.0,0.0,-0.0670,0.9640,0.1729,0.4993,0.4789,-0.4754,-0.5435
816,0.0,0.0,0.0,0.0,0.0,0.0,-0.0782,0.9738,0.1739,0.4966,0.4807,-0.4750,-0.5447
817,0.0,0.0,0.0,0.0,0.0,0.0,-0.0809,0.8454,0.1690,0.4943,0.4822,-0.4743,-0.5461
818,0.0,0.0,0.0,0.0,0.0,0.0,-0.0784,0.9448,0.1612,0.4917,0.4841,-0.4741,-0.5469
819,0.0,0.0,0.0,0.0,0.0,0.0,-0.0828,0.9429,0.1588,0.4891,0.4863,-0.4744,-0.5471
820,0.0,0.0,0.0,0.0,0.0,0.0,-0.0832,0.9487,0.1534,0.4867,0.4886,-0.4748,-0.5468
821,0.0,0.0,0.0,0.0,0.0,0.0,-0.0862,0.9425,0.1408,0.4842,0.4916,-0.4755,-0.5457
822,0.0,0.0,0.0,0.0,0.0,0.0,-0.0838,0.9328,0.1349,0.4820,0.4945,-0.4765,-0.5442
823,0.0,0.0,0.0,0.0,0.0,0.0,-0.1029,1.0081,0.1388,0.4801,0.4978,-0.4772,-0.5422
824,0.0,0.0,0.0,0.0,0.0,0.0,-0.1098,0.9960,0.1266,0.4788,0.5012,-0.4776,-0.5399
825,0.0,0.0,0.0,0.0,0.0,0.0,-0.1219,1.0127,0.1130,0.4777,0.5045,-0.4776,-0.5377
826,0.0,0.0,0.0,0.0,0.0,0.0,-0.1253,1.0243,0.1047,0.4773,0.5073,-0.4772,-0.5358
827,0.0,0.0,0.0,0.0,0.0,0.0,-0.1360,1.0269,0.0935,0.4774,0.5100,-0.4763,-0.5340
828,0.0,0.0,0.0,0.0,0.0,0.0,-0.1449,1.0101,0.0804,0.4776,0.5132,-0.4752,-0.5317
829,0.0,0.0,0.0,0.0,0.0,0.0,-0.1615,1.0030,0.0736,0.4781,0.5161,-0.4738,-0.5297
830,0.0,0.0,0.0,0.0,0.0,0.0,-0.1693,0.9992,0.0716,0.4790,0.5183,-0.4720,-0.5283
831,0.0,0.0,0.0,0.0,0.0,0.0,-0.1708,0.9934,0.0721,0.4800,0.5203,-0.4706,-0.5267
832,0.0,0.0,0.0,0.0,0.0,0.0,-0.1719,0.9832,0.0701,0.4810,0.5219,-0.4695,-0.5252
833,0.0,0.0,0.0,0.0,0.0,0.0,-0.1738,0.9890,0.0726,0.4819,0.5231,-0.4684,-0.5241
834,0.0,0.0,0.0,0.0,0.0,0.0,-0.1655,0.9860,0.0770,0.4831,0.5235,-0.4677,-0.5233
835,0.0,0.0,0.0,0.0,0.0,0.0,-0.1577,0.9864,0.0794,0.4840,0.5234,-0.4672,-0.5229
836,0.0,0.0,0.0,0.0,0.0,0.0,-0.1498,1.0009,0.0818,0.4849,0.5229,-0.4666,-0.5232
837,0.0,0.0,0.0,0.0,0.0,0.0,-0.1468,1.0086,0.0872,0.4854,0.5222,-0.4662,-0.5238
838,0.0,0.0,0.0,0.0,0.0,0.0,-0.1434,1.0042,0.0882,0.4857,0.5216,-0.4658,-0.5245
839,0.0,0.0,0.0,0.0,0.0,0.0,-0.1410,0.9988,0.0921,0.4856,0.5208,-0.4654,-0.5257
840,0.0,0.0,0.0,0.0,0.0,0.0,-0.1410,0.9969,0.0960,0.4854,0.5199,-0.4651,-0.5270
841,0.0,0.0,0.0,0.0,0.0,0.0,-0.1484,0.9974,0.1013,0.4845,0.5192,-0.4651,-0.5285
842,0.0,0.0,0.0,0.0,0.0,0.0,-0.1474,0.9896,0.1071,0.4832,0.5181,-0.4653,-0.5307
843,0.0,0.0,0.0,0.0,0.0,0.0,-0.1427,0.9726,0.1159,0.4818,0.5164,-0.4658,-0.5331
844,0.0,0.0,0.0,0.0,0.0,0.0,-0.1335,0.9512,0.1193,0.4801,0.5145,-0.4668,-0.5357
845,0.0,0.0,0.0,0.0,0.0,0.0,-0.1267,0.9405,0.1232,0.4783,0.5120,-0.4683,-0.5383
846,0.0,0.0,0.0,0.0,0.0,0.0,-0.1174,0.9491,0.1325,0.4764,0.5091,-0.4705,-0.5408
847,0.0,0.0,0.0,0.0,0.0,0.0,-0.1066,0.9606,0.1403,0.4746,0.5060,-0.4733,-0.5429
848,0.0,0.0,0.0,0.0,0.0,0.0,-0.0953,0.9697,0.1427,0.4729,0.5026,-0.4763,-0.5450
849,0.0,0.0,0.0,0.0,0.0,0.0,-0.0816,0.9739,0.1456,0.4714,0.4988,-0.4794,-0.5470
850,0.0,0.0,0.0,0.0,0.0,0.0,-0.0763,0.9705,0.1442,0.4699,0.4951,-0.4825,-0.5489
851,0.0,0.0,0.0,0.0,0.0,0.0,-0.0641,0.9684,0.1418,0.4683,0.4918,-0.4861,-0.5500
852,0.0,0.0,0.0,0.0,0.0,0.0,-0.0578,0.9582,0.1398,0.4669,0.4885,-0.4897,-0.5509
853,0.0,0.0,0.0,0.0,0.0,0.0,-0.0515,0.9543,0.1398,0.4659,0.4851,-0.4933,-0.5516
854,0.0,0.0,0.0,0.0,0.0,0.0,-0.0480,0.9678,0.1442,0.4652,0.4818,-0.4971,-0.5517
855,0.0,0.0,0.0,0.0,0.0,0.0,-0.0464,0.9882,0.1447,0.4645,0.4788,-0.5008,-0.5515
856,0.0,0.0,0.0,0.0,0.0,0.0,-0.0395,1.0021,0.1437,0.4642,0.4761,-0.5042,-0.5511
857,0.0,0.0,0.0,0.0,0.0,0.0,-0.0424,1.0094,0.1432,0.4643,0.4735,-0.5068,-0.5508
858,0.0,0.0,0.0,0.0,0.0,0.0,-0.0477,1.0192,0.1427,0.4643,0.4718,-0.5090,-0.5502
859,0.0,0.0,0.0,0.0,0.0,0.0,-0.0491,1.0197,0.1413,0.4645,0.4704,-0.5106,-0.5497
860,0.0,0.0,0.0,0.0,0.0,0.0,-0.0535,1.0280,0.1413,0.4651,0.4690,-0.5110,-0.5501
861,0.0,0.0,0.0,0.0,0.0,0.0,-0.0580,1.0048,0.1345,0.4659,0.4683,-0.5108,-0.5502
862,0.0,0.0,0.0,0.0,0.0,0.0,-0.0605,0.9980,0.1277,0.4664,0.4682,-0.5105,-0.5502
863,0.0,0.0,0.0,0.0,0.0,0.0,-0.0677,1.0107,0.1306,0.4666,0.4685,-0.5100,-0.5502
864,0.0,0.0,0.0,0.0,0.0,0.0,-0.0706,1.0155,0.1315,0.4668,0.4692,-0.5090,-0.5503
865,0.0,0.0,0.0,0.0,0.0,0.0,-0.0740,1.0238,0.1354,0.4671,0.4704,-0.5074,-0.5505
866,0.0,0.0,0.0,0.0,0.0,0.0,-0.0736,1.0102,0.1364,0.4674,0.4720,-0.5055,-0.5508
867,0.0,0.0,0.0,0.0,0.0,0.0,-0.0775,1.0045,0.1335,0.4676,0.4739,-0.5031,-0.5511
868,0.0,0.0,0.0,0.0,0.0,0.0,-0.0817,0.9662,0.1276,0.4678,0.4761,-0.5009,-0.5510
869,0.0,0.0,0.0,0.0,0.0,0.0,-0.0915,0.9586,0.1247,0.4679,0.4786,-0.4987,-0.5507
870,0.0,0.0,0.0,0.0,0.0,0.0,-0.1032,0.9568,0.1189,0.4681,0.4811,-0.4965,-0.5504
871,0.0,0.0,0.0,0.0,0.0,0.0,-0.1159,0.9496,0.1140,0.4684,0.4838,-0.4945,-0.5496
872,0.0,0.0,0.0,0.0,0.0,0.0,-0.1248,0.9458,0.1086,0.4688,0.4864,-0.4927,-0.5485
873,0.0,0.0,0.0,0.0,0.0,0.0,-0.1320,0.9512,0.1018,0.4689,0.4894,-0.4916,-0.5468
874,0.0,0.0,0.0,0.0,0.0,0.0,-0.1398,0.9644,0.0969,0.4691,0.4922,-0.4907,-0.5449
875,0.0,0.0,0.0,0.0,0.0,0.0,-0.1461,0.9621,0.0887,0.4693,0.4948,-0.4900,-0.5430
876,0.0,0.0,0.0,0.0,0.0,0.0,-0.1416,0.9877,0.0877,0.4696,0.4971,-0.4899,-0.5407
877,0.0,0.0,0.0,0.0,0.0,0.0,-0.1454,1.0081,0.0857,0.4698,0.4990,-0.4896,-0.5391
878,0.0,0.0,0.0,0.0,0.0,0.0,-0.1464,1.0047,0.0794,0.4699,0.5006,-0.4892,-0.5379
879,0.0,0.0,0.0,0.0,0.0,0.0,-0.1425,0.9946,0.0731,0.4699,0.5023,-0.4889,-0.5365
880,0.0,0.0,0.0,0.0,0.0,0.0,-0.1396,0.9921,0.0711,0.4700,0.5035,-0.4888,-0.5355
881,0.0,0.0,0.0,0.0,0.0,0.0,-0.1377,0.9926,0.0726,0.4700,0.5040,-0.4888,-0.5349
882,0.0,0.0,0.0,0.0,0.0,0.0,-0.1323,0.9916,0.0741,0.4699,0.5046,-0.4892,-0.5341
883,0.0,0.0,0.0,0.0,0.0,0.0,-0.1254,0.9978,0.0770,0.4698,0.5047,-0.4897,-0.5336
884,0.0,0.0,0.0,0.0,0.0,0.0,-0.1215,0.9963,0.0780,0.4696,0.5047,-0.4902,-0.5334
885,0.0,0.0,0.0,0.0,0.0,0.0,-0.1152,0.9982,0.0819,0.4693,0.5044,-0.4908,-0.5333
886,0.0,0.0,0.0,0.0,0.0,0.0,-0.1088,0.9995,0.0853,0.4692,0.5039,-0.4914,-0.5334
887,0.0,0.0,0.0,0.0,0.0,0.0,-0.1039,0.9995,0.0882,0.4690,0.5033,-0.4920,-0.5336
888,0.0,0.0,0.0,0.0,0.0,0.0,-0.1010,0.9995,0.0916,0.4687,0.5026,-0.4925,-0.5340
889,0.0,0.0,0.0,0.0,0.0,0.0,-0.0981,0.9951,0.0955,0.4685,0.5020,-0.4933,-0.5340
890,0.0,0.0,0.0,0.0,0.0,0.0,-0.0967,0.9907,0.0975,0.4683,0.5011,-0.4939,-0.5344
891,0.0,0.0,0.0,0.0,0.0,0.0,-0.0972,0.9892,0.1023,0.4682,0.5002,-0.4945,-0.5349
892,0.0,0.0,0.0,0.0,0.0,0.0,-0.0982,0.9819,0.1057,0.4681,0.4994,-0.4949,-0.5353
893,0.0,0.0,0.0,0.0,0.0,0.0,-0.1021,0.9776,0.1111,0.4679,0.4984,-0.4954,-0.5359
894,0.0,0.0,0.0,0.0,0.0,0.0,-0.1046,0.9757,0.1169,0.4676,0.4975,-0.4958,-0.5366
895,0.0,0.0,0.0,0.0,0.0,0.0,-0.1085,0.9742,0.1203,0.4671,0.4968,-0.4965,-0.5371
896,0.0,0.0,0.0,0.0,0.0,0.0,-0.1134,0.9753,0.1188,0.4663,0.4961,-0.4972,-0.5378
897,0.0,0.0,0.0,0.0,0.0,0.0,-0.1158,0.9792,0.1184,0.4654,0.4952,-0.4979,-0.5388
898,0.0,0.0,0.0,0.0,0.0,0.0,-0.1138,0.9820,0.1169,0.4645,0.4941,-0.4988,-0.5397
899,0.0,0.0,0.0,0.0,0.0,0.0,-0.1128,0.9854,0.1130,0.4634,0.4929,-0.4999,-0.5408
900,0.0,0.0,0.0,0.0,0.0,0.0,-0.1074,0.9888,0.1077,0.4623,0.4914,-0.5012,-0.5419
901,0.0,0.0,0.0,0.0,0.0,0.0,-0.0976,0.9945,0.1062,0.4612,0.4897,-0.5026,-0.5430
902,0.0,0.0,0.0,0.0,0.0,0.0,-0.0912,1.0022,0.1086,0.4600,0.4879,-0.5041,-0.5443
903,0.0,0.0,0.0,0.0,0.0,0.0,-0.0853,1.0119,0.1135,0.4591,0.4858,-0.5054,-0.5456
904,0.0,0.0,0.0,0.0,0.0,0.0,-0.0799,1.0181,0.1155,0.4586,0.4837,-0.5063,-0.5472
905,0.0,0.0,0.0,0.0,0.0,0.0,-0.0780,1.0166,0.1145,0.4579,0.4820,-0.5071,-0.5485
906,0.0,0.0,0.0,0.0,0.0,0.0,-0.0780,1.0089,0.1096,0.4573,0.4805,-0.5078,-0.5497
907,0.0,0.0,0.0,0.0,0.0,0.0,-0.0761,1.0011,0.1057,0.4568,0.4790,-0.5082,-0.5511
908,0.0,0.0,0.0,0.0,0.0,0.0,-0.0737,0.9968,0.1033,0.4563,0.4777,-0.5089,-0.5519
909,0.0,0.0,0.0,0.0,0.0,0.0,-0.0698,0.9909,0.1004,0.4561,0.4763,-0.5094,-0.5528
910,0.0,0.0,0.0,0.0,0.0,0.0,-0.0689,0.9851,0.0989,0.4561,0.4747,-0.5095,-0.5541
911,0.0,0.0,0.0,0.0,0.0,0.0,-0.0723,0.9832,0.0975,0.4561,0.4736,-0.5099,-0.5547
912,0.0,0.0,0.0,0.0,0.0,0.0,-0.0718,0.9779,0.0980,0.4562,0.4726,-0.5103,-0.5551
913,0.0,0.0,0.0,0.0,0.0,0.0,-0.0627,0.9628,0.1004,0.4567,0.4710,-0.5105,-0.5559
914,0.0,0.0,0.0,0.0,0.0,0.0,-0.0589,0.9351,0.0965,0.4573,0.4694,-0.5110,-0.5562
915,0.0,0.0,0.0,0.0,0.0,0.0,-0.0530,0.9423,0.1029,0.4579,0.4682,-0.5124,-0.5555
916,0.0,0.0,0.0,0.0,0.0,0.0,-0.0573,0.9593,0.1092,0.4586,0.4671,-0.5141,-0.5543
917,0.0,0.0,0.0,0.0,0.0,0.0,-0.0559,0.9491,0.1038,0.4593,0.4661,-0.5159,-0.5529
918,0.0,0.0,0.0,0.0,0.0,0.0,-0.0520,0.9568,0.1009,0.4599,0.4656,-0.5179,-0.5510
919,0.0,0.0,0.0,0.0,0.0,0.0,-0.0535,0.9511,0.0956,0.4605,0.4652,-0.5199,-0.5488
920,0.0,0.0,0.0,0.0,0.0,0.0,-0.0510,0.9535,0.0941,0.4609,0.4648,-0.5223,-0.5466
921,0.0,0.0,0.0,0.0,0.0,0.0,-0.0517,0.9980,0.1019,0.4613,0.4645,-0.5248,-0.5441
922,0.0,0.0,0.0,0.0,0.0,0.0,-0.0628,1.0223,0.1058,0.4615,0.4647,-0.5271,-0.5415
923,0.0,0.0,0.0,0.0,0.0,0.0,-0.0627,1.0335,0.1062,0.4616,0.4649,-0.5288,-0.5396
924,0.0,0.0,0.0,0.0,0.0,0.0,-0.0637,1.0369,0.1028,0.4614,0.4654,-0.5297,-0.5384
925,0.0,0.0,0.0,0.0,0.0,0.0,-0.0656,1.0490,0.0989,0.4609,0.4661,-0.5301,-0.5378
926,0.0,0.0,0.0,0.0,0.0,0.0,-0.0645,1.0602,0.0965,0.4603,0.4668,-0.5298,-0.5381
927,0.0,0.0,0.0,0.0,0.0,0.0,-0.0578,1.0441,0.0921,0.4597,0.4675,-0.5290,-0.5388
928,0.0,0.0,0.0,0.0,0.0,0.0,-0.0578,1.0412,0.0921,0.4592,0.4682,-0.5279,-0.5397
929,0.0,0.0,0.0,0.0,0.0,0.0,-0.0627,1.0442,0.0946,0.4585,0.4693,-0.5265,-0.5406
930,0.0,0.0,0.0,0.0,0.0,0.0,-0.0676,1.0326,0.0907,0.4579,0.4703,-0.5247,-0.5420
931,0.0,0.0,0.0,0.0,0.0,0.0,-0.0682,1.0103,0.0882,0.4573,0.4712,-0.5229,-0.5436
932,0.0,0.0,0.0,0.0,0.0,0.0,-0.0731,1.0094,0.0921,0.4566,0.4719,-0.5211,-0.5452
933,0.0,0.0,0.0,0.0,0.0,0.0,-0.0800,1.0051,0.1009,0.4561,0.4726,-0.5192,-0.5468
934,0.0,0.0,0.0,0.0,0.0,0.0,-0.0878,1.0041,0.1057,0.4555,0.4732,-0.5169,-0.5489
935,0.0,0.0,0.0,0.0,0.0,0.0,-0.0864,0.9872,0.1048,0.4551,0.4738,-0.5148,-0.5508
936,0.0,0.0,0.0,0.0,0.0,0.0,-0.0865,0.9717,0.1067,0.4549,0.4741,-0.5128,-0.5526
937,0.0,0.0,0.0,0.0,0.0,0.0,-0.0881,0.9615,0.1072,0.4547,0.4743,-0.5110,-0.5542
938,0.0,0.0,0.0,0.0,0.0,0.0,-0.0930,0.9509,0.1057,0.4544,0.4743,-0.5098,-0.5556
939,0.0,0.0,0.0,0.0,0.0,0.0,-0.0975,0.9379,0.0984,0.4539,0.4744,-0.5093,-0.5563
940,0.0,0.0,0.0,0.0,0.0,0.0,-0.1034,0.9297,0.0926,0.4534,0.4742,-0.5091,-0.5571
941,0.0,0.0,0.0,0.0,0.0,0.0,-0.0927,0.9219,0.0907,0.4531,0.4732,-0.5096,-0.5577
942,0.0,0.0,0.0,0.0,0.0,0.0,-0.0848,0.9291,0.0882,0.4526,0.4720,-0.5111,-0.5578
943,0.0,0.0,0.0,0.0,0.0,0.0,-0.0814,0.9339,0.0877,0.4520,0.4704,-0.5134,-0.5575
944,0.0,0.0,0.0,0.0,0.0,0.0,-0.0686,0.9459,0.0839,0.4514,0.4683,-0.5164,-0.5570
945,0.0,0.0,0.0,0.0,0.0,0.0,-0.0593,0.9550,0.0834,0.4510,0.4661,-0.5197,-0.5561
946,0.0,0.0,0.0,0.0,0.0,0.0,-0.0549,0.9598,0.0834,0.4506,0.4642,-0.5237,-0.5543
947,0.0,0.0,0.0,0.0,0.0,0.0,-0.0485,0.9612,0.0810,0.4503,0.4618,-0.5278,-0.5526
948,0.0,0.0,0.0,0.0,0.0,0.0,-0.0436,0.9626,0.0810,0.4501,0.4590,-0.5321,-0.5510
949,0.0,0.0,0.0,0.0,0.0,0.0,-0.0343,0.9708,0.0829,0.4497,0.4562,-0.5367,-0.5492
950,0.0,0.0,0.0,0.0,0.0,0.0,-0.0317,0.9887,0.0815,0.4488,0.4538,-0.5414,-0.5473
951,0.0,0.0,0.0,0.0,0.0,0.0,-0.0244,0.9920,0.0786,0.4476,0.4519,-0.5461,-0.5452
952,0.0,0.0,0.0,0.0,0.0,0.0,-0.0194,1.0157,0.0790,0.4463,0.4499,-0.5507,-0.5433
953,0.0,0.0,0.0,0.0,0.0,0.0,-0.0168,1.0385,0.0795,0.4449,0.4481,-0.5548,-0.5417
954,0.0,0.0,0.0,0.0,0.0,0.0,-0.0084,1.0486,0.0791,0.4436,0.4465,-0.5583,-0.5405
955,0.0,0.0,0.0,0.0,0.0,0.0,0.0009,1.0630,0.0834,0.4424,0.4451,-0.5610,-0.5399
956,0.0,0.0,0.0,0.0,0.0,0.0,0.0067,1.0538,0.0854,0.4415,0.4438,-0.5630,-0.5395
957,0.0,0.0,0.0,0.0,0.0,0.0,0.0116,1.0489,0.0825,0.4409,0.4428,-0.5641,-0.5398
958,0.0,0.0,0.0,0.0,0.0,0.0,0.0140,1.0450,0.0776,0.4405,0.4423,-0.5646,-0.5399
959,0.0,0.0,0.0,0.0,0.0,0.0,0.0091,1.0451,0.0776,0.4404,0.4421,-0.5646,-0.5401
960,0.0,0.0,0.0,0.0,0.0,0.0,0.0013,1.0432,0.0776,0.4404,0.4421,-0.5642,-0.5406
961,0.0,0.0,0.0,0.0,0.0,0.0,-0.0071,1.0268,0.0815,0.4407,0.4425,-0.5633,-0.5410
962,0.0,0.0,0.0,0.0,0.0,0.0,-0.0160,1.0167,0.0873,0.4411,0.4429,-0.5619,-0.5419
963,0.0,0.0,0.0,0.0,0.0,0.0,-0.0282,1.0080,0.0873,0.4415,0.4437,-0.5599,-0.5429
964,0.0,0.0,0.0,0.0,0.0,0.0,-0.0376,0.9936,0.0868,0.4420,0.4451,-0.5579,-0.5434
965,0.0,0.0,0.0,0.0,0.0,0.0,-0.0479,0.9835,0.0844,0.4424,0.4466,-0.5559,-0.5438
966,0.0,0.0,0.0,0.0,0.0,0.0,-0.0577,0.9788,0.0829,0.4426,0.4484,-0.5540,-0.5442
967,0.0,0.0,0.0,0.0,0.0,0.0,-0.0655,0.9759,0.0800,0.4427,0.4504,-0.5524,-0.5441
968,0.0,0.0,0.0,0.0,0.0,0.0,-0.0738,0.9750,0.0746,0.4427,0.4522,-0.5508,-0.5442
969,0.0,0.0,0.0,0.0,0.0,0.0,-0.0826,0.9780,0.0712,0.4426,0.4539,-0.5492,-0.5445
970,0.0,0.0,0.0,0.0,0.0,0.0,-0.0845,0.9795,0.0688,0.4422,0.4553,-0.5479,-0.5449
971,0.0,0.0,0.0,0.0,0.0,0.0,-0.0860,0.9839,0.0668,0.4417,0.4565,-0.5469,-0.5453
972,0.0,0.0,0.0,0.0,0.0,0.0,-0.0796,0.9814,0.0644,0.4413,0.4575,-0.5461,-0.5457
973,0.0,0.0,0.0,0.0,0.0,0.0,-0.0733,0.9799,0.0605,0.4407,0.4582,-0.5456,-0.5460
974,0.0,0.0,0.0,0.0,0.0,0.0,-0.0660,0.9828,0.0586,0.4402,0.4589,-0.5457,-0.5458
975,0.0,0.0,0.0,0.0,0.0,0.0,-0.0605,0.9915,0.0566,0.4398,0.4594,-0.5457,-0.5456
976,0.0,0.0,0.0,0.0,0.0,0.0,-0.0551,1.0016,0.0542,0.4394,0.4599,-0.5457,-0.5456
977,0.0,0.0,0.0,0.0,0.0,0.0,-0.0463,1.0015,0.0537,0.4391,0.4605,-0.5458,-0.5451
978,0.0,0.0,0.0,0.0,0.0,0.0,-0.0385,1.0078,0.0537,0.4389,0.4612,-0.5460,-0.5445
979,0.0,0.0,0.0,0.0,0.0,0.0,-0.0418,1.0272,0.0566,0.4390,0.4617,-0.5459,-0.5442
980,0.0,0.0,0.0,0.0,0.0,0.0,-0.0495,1.0447,0.0557,0.4392,0.4624,-0.5453,-0.5441
981,0.0,0.0,0.0,0.0,0.0,0.0,-0.0520,1.0287,0.0542,0.4391,0.4636,-0.5447,-0.5437
982,0.0,0.0,0.0,0.0,0.0,0.0,-0.0585,1.0094,0.0537,0.4389,0.4647,-0.5438,-0.5437
983,0.0,0.0,0.0,0.0,0.0,0.0,-0.0572,0.9851,0.0600,0.4394,0.4652,-0.5425,-0.5443
984,0.0,0.0,0.0,0.0,0.0,0.0,-0.0519,0.9594,0.0649,0.4399,0.4656,-0.5417,-0.5442
985,0.0,0.0,0.0,0.0,0.0,0.0,-0.0539,0.9540,0.0717,0.4404,0.4659,-0.5413,-0.5440
986,0.0,0.0,0.0,0.0,0.0,0.0,-0.0695,0.9561,0.0795,0.4410,0.4661,-0.5407,-0.5440
987,0.0,0.0,0.0,0.0,0.0,0.0,-0.0808,0.9504,0.0819,0.4414,0.4665,-0.5405,-0.5435
988,0.0,0.0,0.0,0.0,0.0,0.0,-0.0860,0.9712,0.0887,0.4417,0.4668,-0.5404,-0.5431
989,0.0,0.0,0.0,0.0,0.0,0.0,-0.0855,0.9746,0.0916,0.4418,0.4671,-0.5406,-0.5426
990,0.0,0.0,0.0,0.0,0.0,0.0,-0.0797,0.9770,0.0907,0.4419,0.4671,-0.5408,-0.5422
991,0.0,0.0,0.0,0.0,0.0,0.0,-0.0708,0.9871,0.0887,0.4418,0.4671,-0.5414,-0.5417
992,0.0,0.0,0.0,0.0,0.0,0.0,-0.0644,1.0030,0.0839,0.4418,0.4671,-0.5421,-0.5411
993,0.0,0.0,0.0,0.0,0.0,0.0,-0.0613,1.0219,0.0790,0.4417,0.4670,-0.5425,-0.5408
994,0.0,0.0,0.0,0.0,0.0,0.0,-0.0593,1.0277,0.0756,0.4416,0.4668,-0.5425,-0.5411
995,0.0,0.0,0.0,0.0,0.0,0.0,-0.0613,1.0215,0.0707,0.4415,0.4670,-0.5424,-0.5411
996,0.0,0.0,0.0,0.0,0.0,0.0,-0.0666,1.0293,0.0707,0.4414,0.4673,-0.5422,-0.5412
997,0.0,0.0,0.0,0.0,0.0,0.0,-0.0695,1.0400,0.0712,0.4414,0.4674,-0.5416,-0.5416
998,0.0,0.0,0.0,0.0,0.0,0.0,-0.0710,1.0395,0.0688,0.4414,0.4673,-0.5408,-0.5425
999,0.0,0.0,0.0,0.0,0.0,0.0,-0.0706,1.0288,0.0673,0.4415,0.4673,-0.5397,-0.5436
1000,0.0,0.0,0.0,0.0,0.0,0.0,-0.0647,1.0205,0.0654,0.4415,0.4676,-0.5386,-0.5444
1001,0.0,0.0,0.0,0.0,0.0,0.0,-0.0658,1.0104,0.0639,0.4414,0.4678,-0.5375,-0.5453
1002,0.0,0.0,0.0,0.0,0.0,0.0,-0.0630,0.9900,0.0659,0.4413,0.4676,-0.5363,-0.5468
1003,0.0,0.0,0.0,0.0,0.0,0.0,-0.0636,0.9750,0.0698,0.4413,0.4672,-0.5350,-0.5484
1004,0.0,0.0,0.0,0.0,0.0,0.0,-0.0611,0.9715,0.0746,0.4414,0.4668,-0.5339,-0.5498
1005,0.0,0.0,0.0,0.0,0.0,0.0,-0.0627,0.9594,0.0805,0.4416,0.4664,-0.5332,-0.5505
1006,0.0,0.0,0.0,0.0,0.0,0.0,-0.0632,0.9473,0.0844,0.4417,0.4662,-0.5330,-0.5509
1007,0.0,0.0,0.0,0.0,0.0,0.0,-0.0648,0.9381,0.0848,0.4419,0.4659,-0.5329,-0.5511
1008,0.0,0.0,0.0,0.0,0.0,0.0,-0.0662,0.9371,0.0853,0.4421,0.4654,-0.5332,-0.5510
1009,0.0,0.0,0.0,0.0,0.0,0.0,-0.0632,0.9575,0.0912,0.4423,0.4650,-0.5341,-0.5503
1010,0.0,0.0,0.0,0.0,0.0,0.0,-0.0621,0.9700,0.0951,0.4426,0.4647,-0.5352,-0.5493
1011,0.0,0.0,0.0,0.0,0.0,0.0,-0.0630,0.9875,0.0951,0.4428,0.4644,-0.5363,-0.5483
1012,0.0,0.0,0.0,0.0,0.0,0.0,-0.0635,0.9778,0.0892,0.4428,0.4646,-0.5376,-0.5469
1013,0.0,0.0,0.0,0.0,0.0,0.0,-0.0665,0.9764,0.0878,0.4428,0.4646,-0.5387,-0.5458
1014,0.0,0.0,0.0,0.0,0.0,0.0,-0.0689,0.9866,0.0858,0.4431,0.4643,-0.5398,-0.5447
1015,0.0,0.0,0.0,0.0,0.0,0.0,-0.0742,0.9959,0.0843,0.4432,0.4642,-0.5408,-0.5437
1016,0.0,0.0,0.0,0.0,0.0,0.0,-0.0770,1.0152,0.0902,0.4433,0.4639,-0.5413,-0.5433
1017,0.0,0.0,0.0,0.0,0.0,0.0,-0.0749,1.0419,0.0941,0.4435,0.4638,-0.5416,-0.5431
1018,0.0,0.0,0.0,0.0,0.0,0.0,-0.0754,1.0424,0.0911,0.4437,0.4640,-0.5415,-0.5428
1019,0.0,0.0,0.0,0.0,0.0,0.0,-0.0828,1.0298,0.0907,0.4437,0.4645,-0.5408,-0.5430
1020,0.0,0.0,0.0,0.0,0.0,0.0,-0.0853,1.0110,0.0897,0.4438,0.4651,-0.5399,-0.5433
1021,0.0,0.0,0.0,0.0,0.0,0.0,-0.0873,1.0095,0.0897,0.4438,0.4657,-0.5391,-0.5436
1022,0.0,0.0,0.0,0.0,0.0,0.0,-0.0926,1.0227,0.0902,0.4438,0.4663,-0.5381,-0.5441
1023,0.0,0.0,0.0,0.0,0.0,0.0,-0.0940,1.0256,0.0902,0.4441,0.4667,-0.5367,-0.5449
1024,0.0,0.0,0.0,0.0,0.0,0.0,-0.0994,1.0213,0.0897,0.4440,0.4673,-0.5351,-0.5460
1025,0.0,0.0,0.0,0.0,0.0,0.0,-0.1156,1.0040,0.0892,0.4435,0.4686,-0.5332,-0.5472
1026,0.0,0.0,0.0,0.0,0.0,0.0,-0.1173,0.9730,0.0867,0.4424,0.4709,-0.5317,-0.5476
1027,0.0,0.0,0.0,0.0,0.0,0.0,-0.0920,1.0362,0.0838,0.4406,0.4736,-0.5306,-0.5477
1028,0.0,0.0,0.0,0.0,0.0,0.0,-0.0788,1.1199,0.0882,0.4394,0.4761,-0.5276,-0.5495
1029,0.0,0.0,0.0,0.0,0.0,0.0,-0.1144,1.1338,0.0911,0.4381,0.4792,-0.5210,-0.5540
1030,0.0,0.0,0.0,0.0,0.0,0.0,-0.1608,1.0397,0.1008,0.4367,0.4821,-0.5125,-0.5605
1031,0.0,0.0,0.0,0.0,0.0,0.0,-0.1409,0.9421,0.1125,0.4353,0.4844,-0.5050,-0.5664
1032,0.0,0.0,0.0,0.0,0.0,0.0,-0.1299,0.8993,0.1213,0.4341,0.4855,-0.4990,-0.5717
1033,0.0,0.0,0.0,0.0,0.0,0.0,-0.1379,0.8790,0.1261,0.4333,0.4870,-0.4947,-0.5748
1034,0.0,0.0,0.0,0.0,0.0,0.0,-0.1396,0.9071,0.1305,0.4330,0.4885,-0.4917,-0.5762
1035,0.0,0.0,0.0,0.0,0.0,0.0,-0.1337,0.9269,0.1397,0.4332,0.4899,-0.4894,-0.5770
1036,0.0,0.0,0.0,0.0,0.0,0.0,-0.1503,0.9266,0.1324,0.4336,0.4923,-0.4868,-0.5768
1037,0.0,0.0,0.0,0.0,0.0,0.0,-0.1436,0.8936,0.1208,0.4347,0.4945,-0.4847,-0.5758
1038,0.0,0.0,0.0,0.0,0.0,0.0,-0.1391,0.9183,0.1305,0.4372,0.4948,-0.4834,-0.5747
1039,0.0,0.0,0.0,0.0,0.0,0.0,-0.1611,0.9839,0.1378,0.4396,0.4955,-0.4824,-0.5731
1040,0.0,0.0,0.0,0.0,0.0,0.0,-0.1529,0.9746,0.1373,0.4423,0.4963,-0.4812,-0.5714
1041,0.0,0.0,0.0,0.0,0.0,0.0,-0.1567,0.9843,0.1358,0.4450,0.4974,-0.4795,-0.5697
1042,0.0,0.0,0.0,0.0,0.0,0.0,-0.1519,0.9722,0.1324,0.4475,0.4991,-0.4779,-0.5677
1043,0.0,0.0,0.0,0.0,0.0,0.0,-0.1525,0.9542,0.1310,0.4503,0.5004,-0.4762,-0.5657
1044,0.0,0.0,0.0,0.0,0.0,0.0,-0.1617,0.9723,0.1246,0.4533,0.5018,-0.4746,-0.5635
1045,0.0,0.0,0.0,0.0,0.0,0.0,-0.1651,0.9757,0.1207,0.4560,0.5038,-0.4729,-0.5609
1046,0.0,0.0,0.0,0.0,0.0,0.0,-0.1715,0.9700,0.1188,0.4590,0.5057,-0.4711,-0.5583
1047,0.0,0.0,0.0,0.0,0.0,0.0,-0.1813,0.9676,0.1178,0.4617,0.5075,-0.4693,-0.5559
1048,0.0,0.0,0.0,0.0,0.0,0.0,-0.1867,0.9531,0.1139,0.4643,0.5091,-0.4679,-0.5534
1049,0.0,0.0,0.0,0.0,0.0,0.0,-0.1864,0.9304,0.1095,0.4672,0.5103,-0.4669,-0.5508
1050,0.0,0.0,0.0,0.0,0.0,0.0,-0.1861,0.8999,0.1042,0.4703,0.5115,-0.4668,-0.5471
1051,0.0,0.0,0.0,0.0,0.0,0.0,-0.1912,0.9295,0.1056,0.4733,0.5129,-0.4674,-0.5427
1052,0.0,0.0,0.0,0.0,0.0,0.0,-0.1944,0.9658,0.1071,0.4753,0.5143,-0.4683,-0.5387
1053,0.0,0.0,0.0,0.0,0.0,0.0,-0.1838,0.9498,0.0988,0.4768,0.5148,-0.4701,-0.5354
1054,0.0,0.0,0.0,0.0,0.0,0.0,-0.1753,0.9759,0.1003,0.4781,0.5151,-0.4723,-0.5320
1055,0.0,0.0,0.0,0.0,0.0,0.0,-0.1708,1.0020,0.0979,0.4790,0.5153,-0.4746,-0.5289
1056,0.0,0.0,0.0,0.0,0.0,0.0,-0.1619,1.0261,0.0998,0.4794,0.5149,-0.4775,-0.5264
1057,0.0,0.0,0.0,0.0,0.0,0.0,-0.1569,1.0474,0.1023,0.4795,0.5137,-0.4802,-0.5249
1058,0.0,0.0,0.0,0.0,0.0,0.0,-0.1442,1.0415,0.1062,0.4795,0.5121,-0.4827,-0.5242
1059,0.0,0.0,0.0,0.0,0.0,0.0,-0.1262,1.0350,0.1067,0.4795,0.5099,-0.4850,-0.5243
1060,0.0,0.0,0.0,0.0,0.0,0.0,-0.1141,1.0208,0.1072,0.4794,0.5070,-0.4871,-0.5252
1061,0.0,0.0,0.0,0.0,0.0,0.0,-0.1068,1.0072,0.1086,0.4792,0.5040,-0.4889,-0.5266
1062,0.0,0.0,0.0,0.0,0.0,0.0,-0.0942,0.9940,0.1072,0.4789,0.5006,-0.4906,-0.5286
1063,0.0,0.0,0.0,0.0,0.0,0.0,-0.0883,0.9969,0.1135,0.4787,0.4970,-0.4921,-0.5307
1064,0.0,0.0,0.0,0.0,0.0,0.0,-0.0867,1.0172,0.1237,0.4785,0.4937,-0.4935,-0.5326
1065,0.0,0.0,0.0,0.0,0.0,0.0,-0.0804,1.0123,0.1271,0.4783,0.4907,-0.4946,-0.5346
1066,0.0,0.0,0.0,0.0,0.0,0.0,-0.0678,0.9942,0.1291,0.4781,0.4876,-0.4955,-0.5367
1067,0.0,0.0,0.0,0.0,0.0,0.0,-0.0718,0.9923,0.1383,0.4778,0.4848,-0.4964,-0.5387
1068,0.0,0.0,0.0,0.0,0.0,0.0,-0.0756,1.0112,0.1510,0.4776,0.4821,-0.4970,-0.5408
1069,0.0,0.0,0.0,0.0,0.0,0.0,-0.0774,1.0276,0.1578,0.4771,0.4798,-0.4971,-0.5432
1070,0.0,0.0,0.0,0.0,0.0,0.0,-0.0714,0.9646,0.1510,0.4768,0.4780,-0.4969,-0.5453
1071,0.0,0.0,0.0,0.0,0.0,0.0,-0.0710,0.9578,0.1452,0.4761,0.4767,-0.4967,-0.5472
1072,0.0,0.0,0.0,0.0,0.0,0.0,-0.0821,0.9783,0.1529,0.4756,0.4759,-0.4964,-0.5486
1073,0.0,0.0,0.0,0.0,0.0,0.0,-0.0884,0.9798,0.1534,0.4749,0.4758,-0.4958,-0.5498
1074,0.0,0.0,0.0,0.0,0.0,0.0,-0.0914,0.9774,0.1515,0.4742,0.4762,-0.4950,-0.5508
1075,0.0,0.0,0.0,0.0,0.0,0.0,-0.0948,0.9735,0.1510,0.4734,0.4767,-0.4939,-0.5519
1076,0.0,0.0,0.0,0.0,0.0,0.0,-0.0963,0.9668,0.1490,0.4729,0.4769,-0.4927,-0.5533
1077,0.0,0.0,0.0,0.0,0.0,0.0,-0.0954,0.9653,0.1466,0.4726,0.4772,-0.4919,-0.5541
1078,0.0,0.0,0.0,0.0,0.0,0.0,-0.0930,0.9551,0.1442,0.4725,0.4778,-0.4915,-0.5540
1079,0.0,0.0,0.0,0.0,0.0,0.0,-0.0983,0.9605,0.1412,0.4725,0.4785,-0.4913,-0.5535
1080,0.0,0.0,0.0,0.0,0.0,0.0,-0.1069,0.9911,0.1432,0.4726,0.4795,-0.4912,-0.5526
1081,0.0,0.0,0.0,0.0,0.0,0.0,-0.1085,0.9727,0.1383,0.4729,0.4809,-0.4910,-0.5515
1082,0.0,0.0,0.0,0.0,0.0,0.0,-0.1080,0.9694,0.1320,0.4732,0.4821,-0.4906,-0.5505
1083,0.0,0.0,0.0,0.0,0.0,0.0,-0.1109,0.9810,0.1286,0.4734,0.4835,-0.4901,-0.5495
1084,0.0,0.0,0.0,0.0,0.0,0.0,-0.1133,0.9772,0.1266,0.4735,0.4854,-0.4893,-0.5484
1085,0.0,0.0,0.0,0.0,0.0,0.0,-0.1148,0.9859,0.1242,0.4732,0.4875,-0.4884,-0.5476
1086,0.0,0.0,0.0,0.0,0.0,0.0,-0.1177,0.9806,0.1222,0.4729,0.4899,-0.4872,-0.5468
1087,0.0,0.0,0.0,0.0,0.0,0.0,-0.1279,0.9948,0.1217,0.4726,0.4925,-0.4860,-0.5459
1088,0.0,0.0,0.0,0.0,0.0,0.0,-0.1361,1.0031,0.1159,0.4719,0.4953,-0.4850,-0.5448
1089,0.0,0.0,0.0,0.0,0.0,0.0,-0.1373,0.9726,0.1028,0.4710,0.4983,-0.4839,-0.5438
1090,0.0,0.0,0.0,0.0,0.0,0.0,-0.1399,0.9383,0.0921,0.4704,0.5011,-0.4830,-0.5425
1091,0.0,0.0,0.0,0.0,0.0,0.0,-0.1423,0.9514,0.0916,0.4701,0.5033,-0.4830,-0.5407
1092,0.0,0.0,0.0,0.0,0.0,0.0,-0.1518,0.9989,0.0916,0.4699,0.5050,-0.4831,-0.5393
1093,0.0,0.0,0.0,0.0,0.0,0.0,-0.1556,1.0145,0.0901,0.4700,0.5063,-0.4830,-0.5381
1094,0.0,0.0,0.0,0.0,0.0,0.0,-0.1498,0.9999,0.0828,0.4701,0.5077,-0.4827,-0.5368
1095,0.0,0.0,0.0,0.0,0.0,0.0,-0.1475,0.9800,0.0770,0.4702,0.5091,-0.4826,-0.5355
1096,0.0,0.0,0.0,0.0,0.0,0.0,-0.1446,0.9674,0.0765,0.4704,0.5102,-0.4828,-0.5341
1097,0.0,0.0,0.0,0.0,0.0,0.0,-0.1345,0.9494,0.0736,0.4708,0.5110,-0.4834,-0.5325
1098,0.0,0.0,0.0,0.0,0.0,0.0,-0.1208,0.9493,0.0736,0.4715,0.5112,-0.4844,-0.5308
1099,0.0,0.0,0.0,0.0,0.0,0.0,-0.1160,0.9405,0.0726,0.4723,0.5115,-0.4861,-0.5282
1100,0.0,0.0,0.0,0.0,0.0,0.0,-0.1221,0.9822,0.0770,0.4729,0.5118,-0.4879,-0.5257
1101,0.0,0.0,0.0,0.0,0.0,0.0,-0.1205,0.9982,0.0799,0.4736,0.5118,-0.4898,-0.5234
1102,0.0,0.0,0.0,0.0,0.0,0.0,-0.1204,1.0181,0.0804,0.4743,0.5118,-0.4916,-0.5210
1103,0.0,0.0,0.0,0.0,0.0,0.0,-0.1097,1.0165,0.0780,0.4748,0.5120,-0.4934,-0.5187
1104,0.0,0.0,0.0,0.0,0.0,0.0,-0.0912,1.0052,0.0731,0.4755,0.5117,-0.4951,-0.5166
1105,0.0,0.0,0.0,0.0,0.0,0.0,-0.0722,1.0061,0.0727,0.4765,0.5110,-0.4967,-0.5150
1106,0.0,0.0,0.0,0.0,0.0,0.0,-0.0668,1.0065,0.0722,0.4774,0.5103,-0.4980,-0.5135
1107,0.0,0.0,0.0,0.0,0.0,0.0,-0.0621,0.9813,0.0654,0.4780,0.5102,-0.4995,-0.5116
1108,0.0,0.0,0.0,0.0,0.0,0.0,-0.0616,0.9832,0.0649,0.4783,0.5102,-0.5009,-0.5099
1109,0.0,0.0,0.0,0.0,0.0,0.0,-0.0596,0.9905,0.0659,0.4789,0.5100,-0.5019,-0.5086
1110,0.0,0.0,0.0,0.0,0.0,0.0,-0.0610,0.9973,0.0649,0.4794,0.5101,-0.5026,-0.5074
1111,0.0,0.0,0.0,0.0,0.0,0.0,-0.0663,1.0026,0.0620,0.4796,0.5107,-0.5033,-0.5058
1112,0.0,0.0,0.0,0.0,0.0,0.0,-0.0668,1.0051,0.0586,0.4796,0.5116,-0.5038,-0.5045
1113,0.0,0.0,0.0,0.0,0.0,0.0,-0.0693,0.9988,0.0532,0.4796,0.5125,-0.5040,-0.5033
1114,0.0,0.0,0.0,0.0,0.0,0.0,-0.0751,0.9969,0.0483,0.4796,0.5135,-0.5041,-0.5022
1115,0.0,0.0,0.0,0.0,0.0,0.0,-0.0790,1.0096,0.0479,0.4797,0.5146,-0.5041,-0.5010
1116,0.0,0.0,0.0,0.0,0.0,0.0,-0.0877,1.0208,0.0469,0.4800,0.5156,-0.5039,-0.4998
1117,0.0,0.0,0.0,0.0,0.0,0.0,-0.0989,1.0262,0.0488,0.4805,0.5165,-0.5033,-0.4991
1118,0.0,0.0,0.0,0.0,0.0,0.0,-0.1028,1.0200,0.0488,0.4810,0.5171,-0.5025,-0.4987
1119,0.0,0.0,0.0,0.0,0.0,0.0,-0.1072,1.0171,0.0498,0.4819,0.5173,-0.5018,-0.4984
1120,0.0,0.0,0.0,0.0,0.0,0.0,-0.1131,1.0104,0.0522,0.4827,0.5172,-0.5010,-0.4986
1121,0.0,0.0,0.0,0.0,0.0,0.0,-0.1117,1.0006,0.0546,0.4835,0.5168,-0.5003,-0.4988
1122,0.0,0.0,0.0,0.0,0.0,0.0,-0.1068,1.0078,0.0629,0.4841,0.5162,-0.4998,-0.4994
1123,0.0,0.0,0.0,0.0,0.0,0.0,-0.1015,0.9991,0.0678,0.4848,0.5152,-0.4992,-0.5004
1124,0.0,0.0,0.0,0.0,0.0,0.0,-0.0962,0.9937,0.0726,0.4856,0.5140,-0.4985,-0.5014
1125,0.0,0.0,0.0,0.0,0.0,0.0,-0.0942,0.9980,0.0795,0.4863,0.5126,-0.4980,-0.5028
1126,0.0,0.0,0.0,0.0,0.0,0.0,-0.0830,0.9935,0.0824,0.4869,0.5109,-0.4976,-0.5042
1127,0.0,0.0,0.0,0.0,0.0,0.0,-0.0781,0.9944,0.0853,0.4872,0.5096,-0.4976,-0.5053
1128,0.0,0.0,0.0,0.0,0.0,0.0,-0.0766,1.0002,0.0887,0.4871,0.5085,-0.4974,-0.5067
1129,0.0,0.0,0.0,0.0,0.0,0.0,-0.0669,0.9885,0.0882,0.4871,0.5073,-0.4971,-0.5082
1130,0.0,0.0,0.0,0.0,0.0,0.0,-0.0659,0.9938,0.0897,0.4871,0.5062,-0.4969,-0.5094
1131,0.0,0.0,0.0,0.0,0.0,0.0,-0.0669,0.9856,0.0897,0.4869,0.5053,-0.4968,-0.5107
1132,0.0,0.0,0.0,0.0,0.0,0.0,-0.0610,0.9918,0.0921,0.4866,0.5045,-0.4968,-0.5117
1133,0.0,0.0,0.0,0.0,0.0,0.0,-0.0639,1.0011,0.0951,0.4864,0.5038,-0.4966,-0.5129
1134,0.0,0.0,0.0,0.0,0.0,0.0,-0.0624,1.0020,0.0999,0.4862,0.5028,-0.4962,-0.5145
1135,0.0,0.0,0.0,0.0,0.0,0.0,-0.0576,0.9947,0.0990,0.4860,0.5017,-0.4956,-0.5162
1136,0.0,0.0,0.0,0.0,0.0,0.0,-0.0562,0.9816,0.0975,0.4861,0.5006,-0.4951,-0.5178
1137,0.0,0.0,0.0,0.0,0.0,0.0,-0.0595,1.0015,0.1019,0.4862,0.4995,-0.4945,-0.5191
1138,0.0,0.0,0.0,0.0,0.0,0.0,-0.0595,0.9986,0.1033,0.4863,0.4986,-0.4940,-0.5205
1139,0.0,0.0,0.0,0.0,0.0,0.0,-0.0596,0.9773,0.1014,0.4864,0.4975,-0.4935,-0.5220
1140,0.0,0.0,0.0,0.0,0.0,0.0,-0.0634,0.9971,0.1058,0.4864,0.4965,-0.4931,-0.5232
1141,0.0,0.0,0.0,0.0,0.0,0.0,-0.0683,1.0045,0.1062,0.4862,0.4955,-0.4926,-0.5248
1142,0.0,0.0,0.0,0.0,0.0,0.0,-0.0804,1.0162,0.1091,0.4858,0.4949,-0.4916,-0.5267
1143,0.0,0.0,0.0,0.0,0.0,0.0,-0.0748,0.9808,0.0980,0.4853,0.4946,-0.4908,-0.5283
1144,0.0,0.0,0.0,0.0,0.0,0.0,-0.0786,0.9837,0.1014,0.4845,0.4942,-0.4901,-0.5300
1145,0.0,0.0,0.0,0.0,0.0,0.0,-0.0796,0.9929,0.1087,0.4837,0.4937,-0.4891,-0.5320
1146,0.0,0.0,0.0,0.0,0.0,0.0,-0.0782,0.9818,0.1087,0.4828,0.4933,-0.4884,-0.5339
1147,0.0,0.0,0.0,0.0,0.0,0.0,-0.0749,0.9609,0.1082,0.4820,0.4928,-0.4879,-0.5355
1148,0.0,0.0,0.0,0.0,0.0,0.0,-0.0749,0.9609,0.1072,0.4811,0.4923,-0.4877,-0.5369
1149,0.0,0.0,0.0,0.0,0.0,0.0,-0.0773,0.9556,0.1087,0.4805,0.4918,-0.4876,-0.5381
1150,0.0,0.0,0.0,0.0,0.0,0.0,-0.0783,0.9662,0.1145,0.4798,0.4913,-0.4878,-0.5389
1151,0.0,0.0,0.0,0.0,0.0,0.0,-0.0816,0.9798,0.1189,0.4792,0.4908,-0.4882,-0.5395
1152,0.0,0.0,0.0,0.0,0.0,0.0,-0.0864,0.9949,0.1223,0.4787,0.4902,-0.4883,-0.5404
1153,0.0,0.0,0.0,0.0,0.0,0.0,-0.0839,1.0036,0.1252,0.4781,0.4898,-0.4886,-0.5411
1154,0.0,0.0,0.0,0.0,0.0,0.0,-0.0809,1.0127,0.1267,0.4774,0.4894,-0.4886,-0.5420
1155,0.0,0.0,0.0,0.0,0.0,0.0,-0.0752,0.9953,0.1237,0.4771,0.4887,-0.4884,-0.5431
1156,0.0,0.0,0.0,0.0,0.0,0.0,-0.0718,0.9787,0.1281,0.4770,0.4883,-0.4882,-0.5438
1157,0.0,0.0,0.0,0.0,0.0,0.0,-0.0772,0.9827,0.1301,0.4770,0.4882,-0.4879,-0.5441
1158,0.0,0.0,0.0,0.0,0.0,0.0,-0.0787,0.9710,0.1291,0.4770,0.4885,-0.4876,-0.5442
1159,0.0,0.0,0.0,0.0,0.0,0.0,-0.0802,0.9633,0.1272,0.4771,0.4887,-0.4874,-0.5441
1160,0.0,0.0,0.0,0.0,0.0,0.0,-0.0862,0.9425,0.1262,0.4773,0.4891,-0.4871,-0.5438
1161,0.0,0.0,0.0,0.0,0.0,0.0,-0.0880,0.9755,0.1305,0.4773,0.4898,-0.4875,-0.5428
1162,0.0,0.0,0.0,0.0,0.0,0.0,-0.0827,0.9570,0.1242,0.4776,0.4905,-0.4880,-0.5414
1163,0.0,0.0,0.0,0.0,0.0,0.0,-0.0919,0.9659,0.1198,0.4780,0.4910,-0.4885,-0.5402
1164,0.0,0.0,0.0,0.0,0.0,0.0,-0.0937,0.9949,0.1193,0.4781,0.4920,-0.4891,-0.5386
1165,0.0,0.0,0.0,0.0,0.0,0.0,-0.0884,0.9794,0.1121,0.4784,0.4930,-0.4900,-0.5367
1166,0.0,0.0,0.0,0.0,0.0,0.0,-0.0919,0.9649,0.1048,0.4785,0.4940,-0.4911,-0.5346
1167,0.0,0.0,0.0,0.0,0.0,0.0,-0.0954,0.9596,0.1028,0.4788,0.4947,-0.4921,-0.5328
1168,0.0,0.0,0.0,0.0,0.0,0.0,-0.0997,0.9679,0.1023,0.4791,0.4953,-0.4932,-0.5310
1169,0.0,0.0,0.0,0.0,0.0,0.0,-0.1041,0.9757,0.1018,0.4794,0.4959,-0.4946,-0.5288
1170,0.0,0.0,0.0,0.0,0.0,0.0,-0.1036,0.9777,0.0999,0.4797,0.4961,-0.4959,-0.5271
1171,0.0,0.0,0.0,0.0,0.0,0.0,-0.1073,1.0063,0.0984,0.4800,0.4964,-0.4971,-0.5254
1172,0.0,0.0,0.0,0.0,0.0,0.0,-0.1025,0.9966,0.0936,0.4802,0.4965,-0.4984,-0.5239
1173,0.0,0.0,0.0,0.0,0.0,0.0,-0.0947,0.9994,0.0892,0.4803,0.4965,-0.4999,-0.5224
1174,0.0,0.0,0.0,0.0,0.0,0.0,-0.0873,1.0071,0.0868,0.4804,0.4961,-0.5014,-0.5212
1175,0.0,0.0,0.0,0.0,0.0,0.0,-0.0810,0.9949,0.0853,0.4806,0.4953,-0.5031,-0.5203
1176,0.0,0.0,0.0,0.0,0.0,0.0,-0.0765,1.0119,0.0863,0.4807,0.4943,-0.5050,-0.5192
1177,0.0,0.0,0.0,0.0,0.0,0.0,-0.0770,1.0211,0.0892,0.4808,0.4929,-0.5062,-0.5192
1178,0.0,0.0,0.0,0.0,0.0,0.0,-0.0735,1.0249,0.0936,0.4809,0.4917,-0.5075,-0.5190
1179,0.0,0.0,0.0,0.0,0.0,0.0,-0.0642,1.0330,0.0951,0.4812,0.4904,-0.5085,-0.5190
1180,0.0,0.0,0.0,0.0,0.0,0.0,-0.0529,1.0363,0.0951,0.4816,0.4888,-0.5092,-0.5195
1181,0.0,0.0,0.0,0.0,0.0,0.0,-0.0448,1.0179,0.0946,0.4819,0.4870,-0.5098,-0.5203
1182,0.0,0.0,0.0,0.0,0.0,0.0,-0.0448,1.0067,0.0980,0.4824,0.4850,-0.5101,-0.5214
1183,0.0,0.0,0.0,0.0,0.0,0.0,-0.0410,1.0004,0.1019,0.4828,0.4832,-0.5102,-0.5226
1184,0.0,0.0,0.0,0.0,0.0,0.0,-0.0415,0.9921,0.1063,0.4832,0.4816,-0.5103,-0.5236
1185,0.0,0.0,0.0,0.0,0.0,0.0,-0.0420,0.9814,0.1102,0.4837,0.4801,-0.5102,-0.5246
1186,0.0,0.0,0.0,0.0,0.0,0.0,-0.0387,0.9649,0.1092,0.4841,0.4788,-0.5104,-0.5253
1187,0.0,0.0,0.0,0.0,0.0,0.0,-0.0339,0.9542,0.1097,0.4845,0.4774,-0.5107,-0.5259
1188,0.0,0.0,0.0,0.0,0.0,0.0,-0.0363,0.9654,0.1160,0.4846,0.4759,-0.5110,-0.5269
1189,0.0,0.0,0.0,0.0,0.0,0.0,-0.0338,0.9697,0.1199,0.4847,0.4748,-0.5116,-0.5272
1190,0.0,0.0,0.0,0.0,0.0,0.0,-0.0318,0.9842,0.1291,0.4847,0.4737,-0.5124,-0.5274
1191,0.0,0.0,0.0,0.0,0.0,0.0,-0.0390,1.0056,0.1359,0.4847,0.4728,-0.5127,-0.5280
1192,0.0,0.0,0.0,0.0,0.0,0.0,-0.0399,1.0119,0.1350,0.4845,0.4722,-0.5128,-0.5286
1193,0.0,0.0,0.0,0.0,0.0,0.0,-0.0399,1.0211,0.1320,0.4840,0.4722,-0.5126,-0.5292
1194,0.0,0.0,0.0,0.0,0.0,0.0,-0.0350,1.0225,0.1267,0.4836,0.4726,-0.5123,-0.5295
1195,0.0,0.0,0.0,0.0,0.0,0.0,-0.0308,0.9905,0.1175,0.4834,0.4730,-0.5118,-0.5298
1196,0.0,0.0,0.0,0.0,0.0,0.0,-0.0328,0.9799,0.1126,0.4830,0.4738,-0.5111,-0.5301
1197,0.0,0.0,0.0,0.0,0.0,0.0,-0.0353,0.9678,0.1092,0.4826,0.4748,-0.5108,-0.5300
1198,0.0,0.0,0.0,0.0,0.0,0.0,-0.0436,0.9713,0.1053,0.4823,0.4757,-0.5102,-0.5299
1199,0.0,0.0,0.0,0.0,0.0,0.0,-0.0485,0.9675,0.1019,0.4821,0.4768,-0.5099,-0.5293
1200,0.0,0.0,0.0,0.0,0.0,0.0,-0.0518,0.9791,0.1004,0.4819,0.4778,-0.5101,-0.5285
1201,0.0,0.0,0.0,0.0,0.0,0.0,-0.0610,0.9938,0.0965,0.4816,0.4789,-0.5104,-0.5274
1202,0.0,0.0,0.0,0.0,0.0,0.0,-0.0630,0.9914,0.0907,0.4813,0.4800,-0.5105,-0.5266
1203,0.0,0.0,0.0,0.0,0.0,0.0,-0.0635,0.9914,0.0863,0.4811,0.4810,-0.5104,-0.5260
1204,0.0,0.0,0.0,0.0,0.0,0.0,-0.0678,0.9968,0.0824,0.4807,0.4821,-0.5105,-0.5253
1205,0.0,0.0,0.0,0.0,0.0,0.0,-0.0693,1.0007,0.0795,0.4801,0.4832,-0.5107,-0.5246
1206,0.0,0.0,0.0,0.0,0.0,0.0,-0.0678,1.0040,0.0805,0.4796,0.4840,-0.5108,-0.5242
1207,0.0,0.0,0.0,0.0,0.0,0.0,-0.0644,1.0050,0.0805,0.4791,0.4848,-0.5110,-0.5238
1208,0.0,0.0,0.0,0.0,0.0,0.0,-0.0615,0.9972,0.0756,0.4787,0.4853,-0.5110,-0.5236
1209,0.0,0.0,0.0,0.0,0.0,0.0,-0.0581,0.9953,0.0761,0.4784,0.4856,-0.5110,-0.5236
1210,0.0,0.0,0.0,0.0,0.0,0.0,-0.0547,0.9928,0.0766,0.4783,0.4857,-0.5109,-0.5237
1211,0.0,0.0,0.0,0.0,0.0,0.0,-0.0537,0.9894,0.0756,0.4782,0.4859,-0.5110,-0.5236
1212,0.0,0.0,0.0,0.0,0.0,0.0,-0.0527,0.9928,0.0771,0.4780,0.4859,-0.5112,-0.5235
1213,0.0,0.0,0.0,0.0,0.0,0.0,-0.0507,0.9976,0.0776,0.4778,0.4858,-0.5112,-0.5238
1214,0.0,0.0,0.0,0.0,0.0,0.0,-0.0487,1.0058,0.0780,0.4778,0.4857,-0.5112,-0.5240
1215,0.0,0.0,0.0,0.0,0.0,0.0,-0.0443,1.0067,0.0815,0.4777,0.4852,-0.5112,-0.5244
1216,0.0,0.0,0.0,0.0,0.0,0.0,-0.0404,1.0086,0.0858,0.4777,0.4851,-0.5112,-0.5246
1217,0.0,0.0,0.0,0.0,0.0,0.0,-0.0399,1.0106,0.0883,0.4776,0.4851,-0.5110,-0.5248
1218,0.0,0.0,0.0,0.0,0.0,0.0,-0.0424,1.0091,0.0892,0.4773,0.4856,-0.5107,-0.5249
1219,0.0,0.0,0.0,0.0,0.0,0.0,-0.0448,1.0116,0.0926,0.4769,0.4864,-0.5101,-0.5250
1220,0.0,0.0,0.0,0.0,0.0,0.0,-0.0487,1.0160,0.0931,0.4767,0.4872,-0.5091,-0.5256
1221,0.0,0.0,0.0,0.0,0.0,0.0,-0.0555,1.0228,0.0941,0.4762,0.4884,-0.5080,-0.5261
1222,0.0,0.0,0.0,0.0,0.0,0.0,-0.0560,1.0209,0.0936,0.4757,0.4894,-0.5066,-0.5268
1223,0.0,0.0,0.0,0.0,0.0,0.0,-0.0579,1.0214,0.0951,0.4755,0.4901,-0.5049,-0.5280
1224,0.0,0.0,0.0,0.0,0.0,0.0,-0.0677,1.0248,0.0960,0.4754,0.4914,-0.5026,-0.5291
1225,0.0,0.0,0.0,0.0,0.0,0.0,-0.0725,1.0253,0.1009,0.4754,0.4923,-0.5001,-0.5307
1226,0.0,0.0,0.0,0.0,0.0,0.0,-0.0814,1.0172,0.1038,0.4755,0.4930,-0.4971,-0.5327
1227,0.0,0.0,0.0,0.0,0.0,0.0,-0.0883,1.0070,0.1106,0.4757,0.4939,-0.4940,-0.5346
1228,0.0,0.0,0.0,0.0,0.0,0.0,-0.0908,0.9983,0.1135,0.4761,0.4945,-0.4906,-0.5367
1229,0.0,0.0,0.0,0.0,0.0,0.0,-0.1035,0.9941,0.1169,0.4766,0.4955,-0.4873,-0.5385
1230,0.0,0.0,0.0,0.0,0.0,0.0,-0.1088,1.0019,0.1237,0.4770,0.4967,-0.4841,-0.5398
1231,0.0,0.0,0.0,0.0,0.0,0.0,-0.1143,0.9854,0.1257,0.4773,0.4984,-0.4807,-0.5410
1232,0.0,0.0,0.0,0.0,0.0,0.0,-0.1098,0.9243,0.1213,0.4776,0.5000,-0.4773,-0.5423
1233,0.0,0.0,0.0,0.0,0.0,0.0,-0.1200,0.9273,0.1271,0.4780,0.5014,-0.4744,-0.5431
1234,0.0,0.0,0.0,0.0,0.0,0.0,-0.1298,0.9254,0.1339,0.4782,0.5029,-0.4722,-0.5436
1235,0.0,0.0,0.0,0.0,0.0,0.0,-0.1202,0.8895,0.1261,0.4785,0.5042,-0.4706,-0.5435
1236,0.0,0.0,0.0,0.0,0.0,0.0,-0.1328,0.9143,0.1242,0.4787,0.5057,-0.4696,-0.5428
1237,0.0,0.0,0.0,0.0,0.0,0.0,-0.1377,0.9100,0.1208,0.4788,0.5073,-0.4694,-0.5413
1238,0.0,0.0,0.0,0.0,0.0,0.0,-0.1288,0.9153,0.1091,0.4791,0.5087,-0.4700,-0.5392
1239,0.0,0.0,0.0,0.0,0.0,0.0,-0.1262,0.9420,0.1047,0.4795,0.5101,-0.4714,-0.5363
1240,0.0,0.0,0.0,0.0,0.0,0.0,-0.1125,0.9617,0.0960,0.4805,0.5108,-0.4731,-0.5332
1241,0.0,0.0,0.0,0.0,0.0,0.0,-0.1030,0.9937,0.0892,0.4816,0.5115,-0.4751,-0.5297
1242,0.0,0.0,0.0,0.0,0.0,0.0,-0.0921,1.0217,0.0877,0.4828,0.5122,-0.4772,-0.5261
1243,0.0,0.0,0.0,0.0,0.0,0.0,-0.0965,1.0169,0.0780,0.4841,0.5129,-0.4786,-0.5229
1244,0.0,0.0,0.0,0.0,0.0,0.0,-0.0958,0.9709,0.0629,0.4852,0.5139,-0.4801,-0.5196
1245,0.0,0.0,0.0,0.0,0.0,0.0,-0.0903,0.9970,0.0654,0.4862,0.5147,-0.4817,-0.5165
1246,0.0,0.0,0.0,0.0,0.0,0.0,-0.0995,1.0136,0.0741,0.4871,0.5152,-0.4830,-0.5139
1247,0.0,0.0,0.0,0.0,0.0,0.0,-0.0979,1.0237,0.0775,0.4881,0.5153,-0.4844,-0.5114
1248,0.0,0.0,0.0,0.0,0.0,0.0,-0.1134,1.0442,0.0824,0.4889,0.5158,-0.4852,-0.5094
1249,0.0,0.0,0.0,0.0,0.0,0.0,-0.0917,1.0004,0.0751,0.4898,0.5161,-0.4858,-0.5078
1250,0.0,0.0,0.0,0.0,0.0,0.0,-0.0912,1.0086,0.0795,0.4905,0.5161,-0.4861,-0.5067
1251,0.0,0.0,0.0,0.0,0.0,0.0,-0.1009,1.0160,0.0814,0.4910,0.5164,-0.4862,-0.5058
1252,0.0,0.0,0.0,0.0,0.0,0.0,-0.1015,1.0048,0.0804,0.4912,0.5166,-0.4864,-0.5053
1253,0.0,0.0,0.0,0.0,0.0,0.0,-0.1025,0.9951,0.0819,0.4911,0.5169,-0.4866,-0.5049
1254,0.0,0.0,0.0,0.0,0.0,0.0,-0.1035,0.9961,0.0848,0.4908,0.5171,-0.4870,-0.5044
1255,0.0,0.0,0.0,0.0,0.0,0.0,-0.1025,0.9971,0.0872,0.4904,0.5171,-0.4875,-0.5044
1256,0.0,0.0,0.0,0.0,0.0,0.0,-0.0985,1.0033,0.0955,0.4900,0.5164,-0.4875,-0.5056
1257,0.0,0.0,0.0,0.0,0.0,0.0,-0.0956,1.0047,0.0989,0.4899,0.5155,-0.4875,-0.5066
1258,0.0,0.0,0.0,0.0,0.0,0.0,-0.0941,1.0032,0.1028,0.4896,0.5148,-0.4875,-0.5076
1259,0.0,0.0,0.0,0.0,0.0,0.0,-0.0961,1.0062,0.1057,0.4894,0.5138,-0.4874,-0.5090
1260,0.0,0.0,0.0,0.0,0.0,0.0,-0.1005,1.0091,0.1062,0.4890,0.5129,-0.4873,-0.5103
1261,0.0,0.0,0.0,0.0,0.0,0.0,-0.1009,1.0183,0.1062,0.4884,0.5120,-0.4869,-0.5121
1262,0.0,0.0,0.0,0.0,0.0,0.0,-0.1017,1.0391,0.1101,0.4880,0.5108,-0.4862,-0.5144
1263,0.0,0.0,0.0,0.0,0.0,0.0,-0.1110,1.0416,0.1145,0.4873,0.5099,-0.4850,-0.5171
1264,0.0,0.0,0.0,0.0,0.0,0.0,-0.1202,1.0475,0.1183,0.4864,0.5091,-0.4833,-0.5202
1265,0.0,0.0,0.0,0.0,0.0,0.0,-0.1214,1.0093,0.1130,0.4855,0.5082,-0.4811,-0.5240
1266,0.0,0.0,0.0,0.0,0.0,0.0,-0.1305,0.9696,0.1110,0.4843,0.5071,-0.4789,-0.5282
1267,0.0,0.0,0.0,0.0,0.0,0.0,-0.1310,0.9565,0.1154,0.4830,0.5056,-0.4771,-0.5324
1268,0.0,0.0,0.0,0.0,0.0,0.0,-0.1218,0.9482,0.1213,0.4817,0.5038,-0.4763,-0.5360
1269,0.0,0.0,0.0,0.0,0.0,0.0,-0.1207,0.9661,0.1305,0.4802,0.5016,-0.4762,-0.5395
1270,0.0,0.0,0.0,0.0,0.0,0.0,-0.1082,0.9340,0.1296,0.4789,0.4988,-0.4766,-0.5430
1271,0.0,0.0,0.0,0.0,0.0,0.0,-0.0946,0.9353,0.1339,0.4775,0.4958,-0.4778,-0.5458
1272,0.0,0.0,0.0,0.0,0.0,0.0,-0.0911,0.9382,0.1364,0.4759,0.4928,-0.4795,-0.5484
1273,0.0,0.0,0.0,0.0,0.0,0.0,-0.0770,0.9240,0.1320,0.4742,0.4900,-0.4818,-0.5504
1274,0.0,0.0,0.0,0.0,0.0,0.0,-0.0614,0.9297,0.1301,0.4725,0.4870,-0.4849,-0.5518
1275,0.0,0.0,0.0,0.0,0.0,0.0,-0.0555,0.9432,0.1272,0.4708,0.4843,-0.4884,-0.5525
1276,0.0,0.0,0.0,0.0,0.0,0.0,-0.0476,0.9572,0.1228,0.4687,0.4825,-0.4927,-0.5521
1277,0.0,0.0,0.0,0.0,0.0,0.0,-0.0461,0.9582,0.1175,0.4667,0.4804,-0.4968,-0.5519
1278,0.0,0.0,0.0,0.0,0.0,0.0,-0.0476,0.9510,0.1116,0.4645,0.4783,-0.5008,-0.5520
1279,0.0,0.0,0.0,0.0,0.0,0.0,-0.0393,0.9431,0.1068,0.4626,0.4765,-0.5051,-0.5512
1280,0.0,0.0,0.0,0.0,0.0,0.0,-0.0389,0.9417,0.0995,0.4609,0.4752,-0.5097,-0.5496
1281,0.0,0.0,0.0,0.0,0.0,0.0,-0.0408,0.9495,0.0961,0.4591,0.4739,-0.5144,-0.5477
1282,0.0,0.0,0.0,0.0,0.0,0.0,-0.0392,0.9635,0.0902,0.4576,0.4728,-0.5192,-0.5454
1283,0.0,0.0,0.0,0.0,0.0,0.0,-0.0358,0.9679,0.0815,0.4564,0.4716,-0.5238,-0.5430
1284,0.0,0.0,0.0,0.0,0.0,0.0,-0.0343,0.9732,0.0737,0.4554,0.4706,-0.5284,-0.5403
1285,0.0,0.0,0.0,0.0,0.0,0.0,-0.0342,0.9878,0.0649,0.4544,0.4700,-0.5329,-0.5372
1286,0.0,0.0,0.0,0.0,0.0,0.0,-0.0408,1.0189,0.0596,0.4535,0.4697,-0.5371,-0.5341
1287,0.0,0.0,0.0,0.0,0.0,0.0,-0.0446,1.0451,0.0562,0.4530,0.4695,-0.5407,-0.5311
1288,0.0,0.0,0.0,0.0,0.0,0.0,-0.0382,1.0509,0.0557,0.4529,0.4692,-0.5437,-0.5283
1289,0.0,0.0,0.0,0.0,0.0,0.0,-0.0352,1.0688,0.0542,0.4531,0.4687,-0.5461,-0.5261
1290,0.0,0.0,0.0,0.0,0.0,0.0,-0.0346,1.0862,0.0532,0.4534,0.4685,-0.5479,-0.5242
1291,0.0,0.0,0.0,0.0,0.0,0.0,-0.0394,1.0877,0.0498,0.4538,0.4686,-0.5487,-0.5229
1292,0.0,0.0,0.0,0.0,0.0,0.0,-0.0420,1.0732,0.0474,0.4543,0.4689,-0.5484,-0.5225
1293,0.0,0.0,0.0,0.0,0.0,0.0,-0.0436,1.0524,0.0484,0.4548,0.4693,-0.5477,-0.5224
1294,0.0,0.0,0.0,0.0,0.0,0.0,-0.0509,1.0423,0.0503,0.4551,0.4700,-0.5464,-0.5229
1295,0.0,0.0,0.0,0.0,0.0,0.0,-0.0525,1.0292,0.0566,0.4555,0.4706,-0.5449,-0.5236
1296,0.0,0.0,0.0,0.0,0.0,0.0,-0.0541,1.0098,0.0615,0.4559,0.4712,-0.5431,-0.5245
1297,0.0,0.0,0.0,0.0,0.0,0.0,-0.0566,1.0021,0.0649,0.4563,0.4720,-0.5413,-0.5254
1298,0.0,0.0,0.0,0.0,0.0,0.0,-0.0600,0.9967,0.0683,0.4566,0.4726,-0.5394,-0.5265
1299,0.0,0.0,0.0,0.0,0.0,0.0,-0.0664,0.9871,0.0659,0.4568,0.4733,-0.5376,-0.5275
1300,0.0,0.0,0.0,0.0,0.0,0.0,-0.0597,0.9754,0.0644,0.4570,0.4740,-0.5360,-0.5284
1301,0.0,0.0,0.0,0.0,0.0,0.0,-0.0529,0.9623,0.0615,0.4572,0.4747,-0.5346,-0.5290
1302,0.0,0.0,0.0,0.0,0.0,0.0,-0.0515,0.9550,0.0552,0.4573,0.4754,-0.5339,-0.5290
1303,0.0,0.0,0.0,0.0,0.0,0.0,-0.0519,0.9618,0.0523,0.4574,0.4760,-0.5332,-0.5290
1304,0.0,0.0,0.0,0.0,0.0,0.0,-0.0514,0.9735,0.0518,0.4573,0.4766,-0.5330,-0.5288
1305,0.0,0.0,0.0,0.0,0.0,0.0,-0.0556,0.9914,0.0518,0.4573,0.4774,-0.5328,-0.5283
1306,0.0,0.0,0.0,0.0,0.0,0.0,-0.0551,1.0035,0.0523,0.4575,0.4779,-0.5324,-0.5281
1307,0.0,0.0,0.0,0.0,0.0,0.0,-0.0536,1.0103,0.0513,0.4577,0.4782,-0.5320,-0.5280
1308,0.0,0.0,0.0,0.0,0.0,0.0,-0.0458,1.0069,0.0508,0.4580,0.4783,-0.5316,-0.5280
1309,0.0,0.0,0.0,0.0,0.0,0.0,-0.0419,1.0039,0.0493,0.4584,0.4786,-0.5315,-0.5276
1310,0.0,0.0,0.0,0.0,0.0,0.0,-0.0424,1.0063,0.0498,0.4587,0.4788,-0.5312,-0.5273
1311,0.0,0.0,0.0,0.0,0.0,0.0,-0.0385,1.0068,0.0532,0.4593,0.4787,-0.5306,-0.5275
1312,0.0,0.0,0.0,0.0,0.0,0.0,-0.0321,1.0116,0.0576,0.4600,0.4785,-0.5299,-0.5278
1313,0.0,0.0,0.0,0.0,0.0,0.0,-0.0267,1.0091,0.0635,0.4611,0.4785,-0.5290,-0.5277
1314,0.0,0.0,0.0,0.0,0.0,0.0,-0.0194,1.0046,0.0688,0.4625,0.4786,-0.5281,-0.5274
1315,0.0,0.0,0.0,0.0,0.0,0.0,-0.0190,1.0027,0.0732,0.4642,0.4787,-0.5267,-0.5272
1316,0.0,0.0,0.0,0.0,0.0,0.0,-0.0229,0.9983,0.0766,0.4661,0.4793,-0.5250,-0.5266
1317,0.0,0.0,0.0,0.0,0.0,0.0,-0.0147,0.9890,0.0800,0.4681,0.4806,-0.5235,-0.5252
1318,0.0,0.0,0.0,0.0,0.0,0.0,-0.0141,0.9934,0.0820,0.4706,0.4818,-0.5216,-0.5238
1319,0.0,0.0,0.0,0.0,0.0,0.0,-0.0113,0.9837,0.0829,0.4733,0.4832,-0.5195,-0.5221
1320,0.0,0.0,0.0,0.0,0.0,0.0,-0.0186,0.9847,0.0883,0.4764,0.4851,-0.5171,-0.5199
1321,0.0,0.0,0.0,0.0,0.0,0.0,-0.0127,0.9967,0.0927,0.4800,0.4872,-0.5143,-0.5174
1322,0.0,0.0,0.0,0.0,0.0,0.0,-0.0117,0.9929,0.0883,0.4839,0.4898,-0.5108,-0.5148
1323,0.0,0.0,0.0,0.0,0.0,0.0,-0.0298,0.9901,0.0820,0.4877,0.4933,-0.5069,-0.5117
1324,0.0,0.0,0.0,0.0,0.0,0.0,-0.0508,0.9889,0.0751,0.4913,0.4978,-0.5030,-0.5077
1325,0.0,0.0,0.0,0.0,0.0,0.0,-0.0699,0.9838,0.0683,0.4950,0.5024,-0.4988,-0.5037
1326,0.0,0.0,0.0,0.0,0.0,0.0,-0.0884,0.9805,0.0600,0.4985,0.5070,-0.4945,-0.5000
1327,0.0,0.0,0.0,0.0,0.0,0.0,-0.0997,0.9782,0.0532,0.5017,0.5116,-0.4905,-0.4959
1328,0.0,0.0,0.0,0.0,0.0,0.0,-0.1114,0.9750,0.0464,0.5046,0.5163,-0.4867,-0.4919
1329,0.0,0.0,0.0,0.0,0.0,0.0,-0.1197,0.9731,0.0425,0.5072,0.5209,-0.4834,-0.4876
1330,0.0,0.0,0.0,0.0,0.0,0.0,-0.1275,0.9776,0.0415,0.5095,0.5250,-0.4805,-0.4836
1331,0.0,0.0,0.0,0.0,0.0,0.0,-0.1466,0.9695,0.0419,0.5111,0.5292,-0.4779,-0.4800
1332,0.0,0.0,0.0,0.0,0.0,0.0,-0.1659,0.9295,0.0351,0.5110,0.5347,-0.4764,-0.4753
1333,0.0,0.0,0.0,0.0,0.0,0.0,-0.1309,0.9752,0.0235,0.5098,0.5401,-0.4775,-0.4694
1334,0.0,0.0,0.0,0.0,0.0,0.0,-0.0596,1.0569,0.0347,0.5112,0.5424,-0.4777,-0.4650
1335,0.0,0.0,0.0,0.0,0.0,0.0,-0.0573,1.0409,0.0352,0.5142,0.5436,-0.4764,-0.4617
1336,0.0,0.0,0.0,0.0,0.0,0.0,-0.0916,1.0233,0.0342,0.5175,0.5441,-0.4745,-0.4594
1337,0.0,0.0,0.0,0.0,0.0,0.0,-0.0976,0.9962,0.0371,0.5204,0.5446,-0.4722,-0.4578
1338,0.0,0.0,0.0,0.0,0.0,0.0,-0.0855,0.9854,0.0357,0.5228,0.5452,-0.4702,-0.4565
1339,0.0,0.0,0.0,0.0,0.0,0.0,-0.0738,0.9771,0.0342,0.5250,0.5456,-0.4688,-0.4548
1340,0.0,0.0,0.0,0.0,0.0,0.0,-0.0645,0.9736,0.0333,0.5272,0.5459,-0.4683,-0.4526
1341,0.0,0.0,0.0,0.0,0.0,0.0,-0.0562,0.9765,0.0338,0.5291,0.5460,-0.4682,-0.4504
1342,0.0,0.0,0.0,0.0,0.0,0.0,-0.0508,0.9856,0.0343,0.5309,0.5457,-0.4685,-0.4482
1343,0.0,0.0,0.0,0.0,0.0,0.0,-0.0449,0.9962,0.0313,0.5326,0.5455,-0.4690,-0.4459
1344,0.0,0.0,0.0,0.0,0.0,0.0,-0.0380,0.9957,0.0284,0.5341,0.5450,-0.4698,-0.4438
1345,0.0,0.0,0.0,0.0,0.0,0.0,-0.0239,0.9912,0.0260,0.5357,0.5441,-0.4709,-0.4419
1346,0.0,0.0,0.0,0.0,0.0,0.0,-0.0093,0.9834,0.0246,0.5371,0.5432,-0.4723,-0.4398
1347,0.0,0.0,0.0,0.0,0.0,0.0,-0.0015,0.9847,0.0260,0.5383,0.5422,-0.4740,-0.4377
1348,0.0,0.0,0.0,0.0,0.0,0.0,-0.0053,0.9993,0.0299,0.5394,0.5410,-0.4756,-0.4361
1349,0.0,0.0,0.0,0.0,0.0,0.0,-0.0057,1.0109,0.0304,0.5404,0.5396,-0.4771,-0.4349
1350,0.0,0.0,0.0,0.0,0.0,0.0,-0.0077,1.0080,0.0280,0.5412,0.5384,-0.4785,-0.4340
1351,0.0,0.0,0.0,0.0,0.0,0.0,-0.0152,0.9873,0.0260,0.5410,0.5380,-0.4799,-0.4331
1352,0.0,0.0,0.0,0.0,0.0,0.0,0.0073,0.9929,0.0212,0.5400,0.5381,-0.4821,-0.4317
1353,0.0,0.0,0.0,0.0,0.0,0.0,0.0340,1.0465,0.0251,0.5398,0.5374,-0.4838,-0.4310
1354,0.0,0.0,0.0,0.0,0.0,0.0,0.0560,1.0448,0.0310,0.5411,0.5350,-0.4853,-0.4306
1355,0.0,0.0,0.0,0.0,0.0,0.0,0.0227,1.0344,0.0348,0.5427,0.5322,-0.4861,-0.4313
1356,0.0,0.0,0.0,0.0,0.0,0.0,0.0207,1.0194,0.0407,0.5438,0.5298,-0.4863,-0.4326
1357,0.0,0.0,0.0,0.0,0.0,0.0,0.0256,1.0193,0.0460,0.5446,0.5282,-0.4862,-0.4337
1358,0.0,0.0,0.0,0.0,0.0,0.0,0.0250,1.0164,0.0518,0.5453,0.5266,-0.4859,-0.4351
1359,0.0,0.0,0.0,0.0,0.0,0.0,0.0275,1.0120,0.0577,0.5458,0.5251,-0.4856,-0.4366
1360,0.0,0.0,0.0,0.0,0.0,0.0,0.0284,1.0062,0.0626,0.5463,0.5238,-0.4851,-0.4379
1361,0.0,0.0,0.0,0.0,0.0,0.0,0.0274,1.0018,0.0669,0.5468,0.5228,-0.4846,-0.4391
1362,0.0,0.0,0.0,0.0,0.0,0.0,0.0235,0.9994,0.0718,0.5472,0.5220,-0.4842,-0.4400
1363,0.0,0.0,0.0,0.0,0.0,0.0,0.0205,0.9960,0.0752,0.5476,0.5213,-0.4838,-0.4409
1364,0.0,0.0,0.0,0.0,0.0,0.0,0.0137,0.9985,0.0776,0.5478,0.5205,-0.4832,-0.4422
1365,0.0,0.0,0.0,0.0,0.0,0.0,0.0084,1.0068,0.0835,0.5481,0.5195,-0.4824,-0.4439
1366,0.0,0.0,0.0,0.0,0.0,0.0,0.0074,1.0101,0.0898,0.5483,0.5185,-0.4816,-0.4455
1367,0.0,0.0,0.0,0.0,0.0,0.0,0.0055,1.0068,0.0946,0.5485,0.5178,-0.4809,-0.4469
1368,0.0,0.0,0.0,0.0,0.0,0.0,0.0079,1.0004,0.1015,0.5488,0.5169,-0.4800,-0.4485
1369,0.0,0.0,0.0,0.0,0.0,0.0,0.0107,0.9883,0.1073,0.5492,0.5157,-0.4791,-0.4503
1370,0.0,0.0,0.0,0.0,0.0,0.0,0.0155,0.9693,0.1092,0.5495,0.5146,-0.4786,-0.4518
1371,0.0,0.0,0.0,0.0,0.0,0.0,0.0232,0.9576,0.1112,0.5499,0.5133,-0.4782,-0.4532
1372,0.0,0.0,0.0,0.0,0.0,0.0,0.0300,0.9493,0.1112,0.5504,0.5117,-0.4779,-0.4547
1373,0.0,0.0,0.0,0.0,0.0,0.0,0.0325,0.9532,0.1112,0.5508,0.5104,-0.4781,-0.4556
1374,0.0,0.0,0.0,0.0,0.0,0.0,0.0350,0.9667,0.1102,0.5510,0.5096,-0.4786,-0.4558
1375,0.0,0.0,0.0,0.0,0.0,0.0,0.0351,0.9813,0.1068,0.5510,0.5088,-0.4790,-0.4561
1376,0.0,0.0,0.0,0.0,0.0,0.0,0.0366,0.9929,0.1015,0.5509,0.5080,-0.4794,-0.4566
1377,0.0,0.0,0.0,0.0,0.0,0.0,0.0396,0.9977,0.0976,0.5509,0.5074,-0.4798,-0.4570
1378,0.0,0.0,0.0,0.0,0.0,0.0,0.0396,1.0036,0.0922,0.5507,0.5070,-0.4801,-0.4574
