,Position_X,Position_Y,Position_Z,Velocity_X,Velocity_Y,Velocity_Z,Acceleration_X,Acceleration_Y,Acceleration_Z,Quaterion_0,Quaterion_1,Quaterion_2,Quaterion_3
166,0.0,0.0,0.0,0.0,0.0,0.0,0.0583,0.9480,0.1233,0.6043,0.5610,-0.4068,-0.3933
167,0.0,0.0,0.0,0.0,0.0,0.0,0.0500,0.9304,0.1123,0.6047,0.5599,-0.4079,-0.3929
168,0.0,0.0,0.0,0.0,0.0,0.0,0.0331,0.9746,0.1296,0.6047,0.5600,-0.4090,-0.3918
169,0.0,0.0,0.0,0.0,0.0,0.0,0.0259,1.0165,0.1492,0.6044,0.5607,-0.4099,-0.3903
170,0.0,0.0,0.0,0.0,0.0,0.0,0.0254,1.0165,0.1530,0.6050,0.5600,-0.4099,-0.3903
171,0.0,0.0,0.0,0.0,0.0,0.0,0.0373,1.0059,0.1501,0.6058,0.5591,-0.4099,-0.3905
172,0.0,0.0,0.0,0.0,0.0,0.0,0.0324,0.9857,0.1410,0.6059,0.5592,-0.4102,-0.3897
173,0.0,0.0,0.0,0.0,0.0,0.0,0.0269,0.9825,0.1362,0.6058,0.5598,-0.4106,-0.3887
174,0.0,0.0,0.0,0.0,0.0,0.0,0.0243,0.9763,0.1334,0.6058,0.5597,-0.4109,-0.3884
175,0.0,0.0,0.0,0.0,0.0,0.0,0.0199,0.9779,0.1324,0.6059,0.5595,-0.4112,-0.3884
176,0.0,0.0,0.0,0.0,0.0,0.0,0.0196,0.9818,0.1296,0.6054,0.5600,-0.4117,-0.3878
177,0.0,0.0,0.0,0.0,0.0,0.0,0.0289,0.9826,0.1278,0.6051,0.5599,-0.4126,-0.3875
178,0.0,0.0,0.0,0.0,0.0,0.0,0.0493,0.9771,0.1263,0.6047,0.5598,-0.4139,-0.3869
179,0.0,0.0,0.0,0.0,0.0,0.0,0.0516,0.9712,0.1211,0.6047,0.5589,-0.4157,-0.3863
180,0.0,0.0,0.0,0.0,0.0,0.0,0.0390,0.9945,0.1241,0.6052,0.5575,-0.4168,-0.3862
181,0.0,0.0,0.0,0.0,0.0,0.0,0.0336,1.0117,0.1322,0.6049,0.5577,-0.4183,-0.3848
182,0.0,0.0,0.0,0.0,0.0,0.0,0.0278,1.0128,0.1341,0.6046,0.5576,-0.4195,-0.3841
183,0.0,0.0,0.0,0.0,0.0,0.0,0.0296,1.0084,0.1317,0.6046,0.5568,-0.4203,-0.3845
184,0.0,0.0,0.0,0.0,0.0,0.0,0.0318,1.0000,0.1307,0.6041,0.5567,-0.4211,-0.3844
185,0.0,0.0,0.0,0.0,0.0,0.0,0.0382,1.0003,0.1326,0.6034,0.5569,-0.4219,-0.3843
186,0.0,0.0,0.0,0.0,0.0,0.0,0.0421,1.0002,0.1331,0.6031,0.5569,-0.4225,-0.3841
187,0.0,0.0,0.0,0.0,0.0,0.0,0.0414,0.9939,0.1293,0.6028,0.5566,-0.4231,-0.3844
188,0.0,0.0,0.0,0.0,0.0,0.0,0.0457,0.9879,0.1273,0.6028,0.5560,-0.4235,-0.3849
189,0.0,0.0,0.0,0.0,0.0,0.0,0.0461,0.9860,0.1226,0.6027,0.5557,-0.4240,-0.3850
190,0.0,0.0,0.0,0.0,0.0,0.0,0.0477,0.9899,0.1208,0.6022,0.5559,-0.4247,-0.3846
191,0.0,0.0,0.0,0.0,0.0,0.0,0.0474,0.9948,0.1194,0.6018,0.5565,-0.4252,-0.3837
192,0.0,0.0,0.0,0.0,0.0,0.0,0.0445,0.9969,0.1180,0.6017,0.5566,-0.4256,-0.3835
193,0.0,0.0,0.0,0.0,0.0,0.0,0.0436,0.9994,0.1176,0.6019,0.5559,-0.4258,-0.3840
194,0.0,0.0,0.0,0.0,0.0,0.0,0.0445,0.9964,0.1171,0.6017,0.5559,-0.4261,-0.3839
195,0.0,0.0,0.0,0.0,0.0,0.0,0.0467,0.9886,0.1156,0.6014,0.5565,-0.4264,-0.3831
196,0.0,0.0,0.0,0.0,0.0,0.0,0.0495,0.9846,0.1146,0.6012,0.5570,-0.4269,-0.3824
197,0.0,0.0,0.0,0.0,0.0,0.0,0.0564,0.9843,0.1165,0.6012,0.5566,-0.4274,-0.3822
198,0.0,0.0,0.0,0.0,0.0,0.0,0.0623,0.9861,0.1184,0.6018,0.5550,-0.4279,-0.3830
199,0.0,0.0,0.0,0.0,0.0,0.0,0.0614,0.9895,0.1189,0.6023,0.5541,-0.4283,-0.3830
200,0.0,0.0,0.0,0.0,0.0,0.0,0.0601,0.9955,0.1175,0.6018,0.5553,-0.4290,-0.3814
201,0.0,0.0,0.0,0.0,0.0,0.0,0.0669,0.9915,0.1090,0.6003,0.5554,-0.4309,-0.3814
202,0.0,0.0,0.0,0.0,0.0,0.0,0.1099,0.9698,0.0976,0.6006,0.5549,-0.4323,-0.3802
203,0.0,0.0,0.0,0.0,0.0,0.0,0.0909,0.9748,0.0953,0.6012,0.5544,-0.4335,-0.3787
204,0.0,0.0,0.0,0.0,0.0,0.0,0.0831,1.0115,0.1111,0.6020,0.5538,-0.4337,-0.3779
205,0.0,0.0,0.0,0.0,0.0,0.0,0.0743,1.0287,0.1211,0.6028,0.5540,-0.4334,-0.3766
206,0.0,0.0,0.0,0.0,0.0,0.0,0.0571,1.0287,0.1220,0.6038,0.5539,-0.4327,-0.3761
207,0.0,0.0,0.0,0.0,0.0,0.0,0.0548,1.0142,0.1158,0.6048,0.5535,-0.4316,-0.3762
208,0.0,0.0,0.0,0.0,0.0,0.0,0.0386,0.9943,0.1081,0.6051,0.5542,-0.4306,-0.3759
209,0.0,0.0,0.0,0.0,0.0,0.0,0.0266,0.9855,0.1010,0.6049,0.5553,-0.4294,-0.3759
210,0.0,0.0,0.0,0.0,0.0,0.0,0.0305,0.9863,0.1024,0.6046,0.5561,-0.4286,-0.3763
211,0.0,0.0,0.0,0.0,0.0,0.0,0.0448,0.9898,0.1043,0.6043,0.5565,-0.4282,-0.3766
212,0.0,0.0,0.0,0.0,0.0,0.0,0.0445,0.9796,0.1014,0.6041,0.5566,-0.4283,-0.3766
213,0.0,0.0,0.0,0.0,0.0,0.0,0.0417,0.9836,0.1005,0.6034,0.5573,-0.4288,-0.3761
214,0.0,0.0,0.0,0.0,0.0,0.0,0.0471,0.9863,0.1052,0.6030,0.5571,-0.4297,-0.3760
215,0.0,0.0,0.0,0.0,0.0,0.0,0.0465,0.9984,0.1100,0.6030,0.5563,-0.4304,-0.3764
216,0.0,0.0,0.0,0.0,0.0,0.0,0.0530,1.0035,0.1143,0.6030,0.5555,-0.4310,-0.3768
217,0.0,0.0,0.0,0.0,0.0,0.0,0.0581,0.9946,0.1147,0.6031,0.5548,-0.4316,-0.3772
218,0.0,0.0,0.0,0.0,0.0,0.0,0.0576,0.9927,0.1133,0.6025,0.5550,-0.4326,-0.3767
219,0.0,0.0,0.0,0.0,0.0,0.0,0.0582,0.9951,0.1124,0.6023,0.5548,-0.4333,-0.3764
220,0.0,0.0,0.0,0.0,0.0,0.0,0.0559,1.0010,0.1133,0.6027,0.5538,-0.4337,-0.3768
221,0.0,0.0,0.0,0.0,0.0,0.0,0.0525,1.0021,0.1162,0.6032,0.5525,-0.4339,-0.3777
222,0.0,0.0,0.0,0.0,0.0,0.0,0.0532,0.9938,0.1147,0.6036,0.5515,-0.4340,-0.3784
223,0.0,0.0,0.0,0.0,0.0,0.0,0.0593,0.9829,0.1118,0.6038,0.5507,-0.4343,-0.3789
224,0.0,0.0,0.0,0.0,0.0,0.0,0.0662,0.9836,0.1141,0.6038,0.5502,-0.4349,-0.3790
225,0.0,0.0,0.0,0.0,0.0,0.0,0.0708,0.9912,0.1184,0.6038,0.5497,-0.4354,-0.3791
226,0.0,0.0,0.0,0.0,0.0,0.0,0.0714,0.9961,0.1199,0.6036,0.5497,-0.4361,-0.3786
227,0.0,0.0,0.0,0.0,0.0,0.0,0.0738,0.9960,0.1185,0.6035,0.5495,-0.4367,-0.3783
228,0.0,0.0,0.0,0.0,0.0,0.0,0.0753,0.9940,0.1180,0.6034,0.5491,-0.4370,-0.3787
229,0.0,0.0,0.0,0.0,0.0,0.0,0.0739,0.9970,0.1199,0.6034,0.5489,-0.4371,-0.3788
230,0.0,0.0,0.0,0.0,0.0,0.0,0.0726,1.0033,0.1223,0.6037,0.5481,-0.4370,-0.3795
231,0.0,0.0,0.0,0.0,0.0,0.0,0.0635,1.0118,0.1261,0.6037,0.5481,-0.4369,-0.3799
232,0.0,0.0,0.0,0.0,0.0,0.0,0.0573,1.0168,0.1318,0.6034,0.5484,-0.4363,-0.3805
233,0.0,0.0,0.0,0.0,0.0,0.0,0.0571,1.0115,0.1308,0.6032,0.5484,-0.4354,-0.3819
234,0.0,0.0,0.0,0.0,0.0,0.0,0.0884,0.9732,0.1108,0.6025,0.5486,-0.4352,-0.3829
235,0.0,0.0,0.0,0.0,0.0,0.0,0.1109,0.9381,0.0964,0.6020,0.5482,-0.4361,-0.3833
236,0.0,0.0,0.0,0.0,0.0,0.0,0.0767,0.9594,0.1116,0.6018,0.5479,-0.4365,-0.3836
237,0.0,0.0,0.0,0.0,0.0,0.0,0.0713,1.0096,0.1285,0.6014,0.5479,-0.4369,-0.3838
238,0.0,0.0,0.0,0.0,0.0,0.0,0.0632,1.0015,0.1298,0.6009,0.5481,-0.4371,-0.3839
239,0.0,0.0,0.0,0.0,0.0,0.0,0.0713,0.9925,0.1283,0.6008,0.5480,-0.4373,-0.3841
240,0.0,0.0,0.0,0.0,0.0,0.0,0.0648,0.9865,0.1217,0.6005,0.5481,-0.4376,-0.3839
241,0.0,0.0,0.0,0.0,0.0,0.0,0.0609,0.9886,0.1184,0.6005,0.5478,-0.4376,-0.3843
242,0.0,0.0,0.0,0.0,0.0,0.0,0.0588,0.9843,0.1179,0.6005,0.5477,-0.4376,-0.3847
243,0.0,0.0,0.0,0.0,0.0,0.0,0.0541,0.9908,0.1151,0.6001,0.5476,-0.4378,-0.3851
244,0.0,0.0,0.0,0.0,0.0,0.0,0.0649,0.9933,0.1194,0.6001,0.5471,-0.4380,-0.3857
245,0.0,0.0,0.0,0.0,0.0,0.0,0.0635,0.9924,0.1170,0.6004,0.5468,-0.4381,-0.3855
246,0.0,0.0,0.0,0.0,0.0,0.0,0.0634,0.9905,0.1184,0.6007,0.5463,-0.4384,-0.3853
247,0.0,0.0,0.0,0.0,0.0,0.0,0.0689,0.9946,0.1218,0.6012,0.5459,-0.4387,-0.3848
248,0.0,0.0,0.0,0.0,0.0,0.0,0.0648,0.9895,0.1165,0.6017,0.5456,-0.4391,-0.3840
249,0.0,0.0,0.0,0.0,0.0,0.0,0.0597,0.9790,0.1113,0.6021,0.5456,-0.4395,-0.3830
250,0.0,0.0,0.0,0.0,0.0,0.0,0.0612,0.9814,0.1104,0.6026,0.5453,-0.4398,-0.3823
251,0.0,0.0,0.0,0.0,0.0,0.0,0.0631,0.9794,0.1094,0.6028,0.5450,-0.4404,-0.3817
252,0.0,0.0,0.0,0.0,0.0,0.0,0.0604,0.9868,0.1104,0.6028,0.5450,-0.4410,-0.3810
253,0.0,0.0,0.0,0.0,0.0,0.0,0.0582,0.9985,0.1129,0.6028,0.5446,-0.4418,-0.3807
254,0.0,0.0,0.0,0.0,0.0,0.0,0.0599,0.9887,0.1095,0.6025,0.5445,-0.4426,-0.3803
255,0.0,0.0,0.0,0.0,0.0,0.0,0.0637,0.9833,0.1080,0.6016,0.5453,-0.4440,-0.3790
256,0.0,0.0,0.0,0.0,0.0,0.0,0.0676,0.9832,0.1066,0.6008,0.5454,-0.4455,-0.3783
257,0.0,0.0,0.0,0.0,0.0,0.0,0.0684,0.9920,0.1057,0.5998,0.5462,-0.4470,-0.3771
258,0.0,0.0,0.0,0.0,0.0,0.0,0.0672,1.0037,0.1087,0.5990,0.5469,-0.4480,-0.3759
259,0.0,0.0,0.0,0.0,0.0,0.0,0.0713,1.0114,0.1073,0.5987,0.5468,-0.4488,-0.3758
260,0.0,0.0,0.0,0.0,0.0,0.0,0.0795,1.0039,0.1040,0.5982,0.5470,-0.4495,-0.3754
261,0.0,0.0,0.0,0.0,0.0,0.0,0.0841,0.9935,0.1001,0.5978,0.5475,-0.4502,-0.3745
262,0.0,0.0,0.0,0.0,0.0,0.0,0.0855,0.9901,0.0977,0.5972,0.5485,-0.4510,-0.3730
263,0.0,0.0,0.0,0.0,0.0,0.0,0.0845,0.9892,0.0958,0.5971,0.5484,-0.4517,-0.3724
264,0.0,0.0,0.0,0.0,0.0,0.0,0.0863,0.9848,0.0925,0.5971,0.5475,-0.4525,-0.3727
265,0.0,0.0,0.0,0.0,0.0,0.0,0.0915,0.9788,0.0934,0.5972,0.5470,-0.4533,-0.3722
266,0.0,0.0,0.0,0.0,0.0,0.0,0.0844,0.9873,0.0921,0.5975,0.5461,-0.4541,-0.3722
267,0.0,0.0,0.0,0.0,0.0,0.0,0.0866,0.9945,0.0945,0.5975,0.5464,-0.4549,-0.3708
268,0.0,0.0,0.0,0.0,0.0,0.0,0.0851,0.9951,0.0931,0.5969,0.5480,-0.4560,-0.3680
269,0.0,0.0,0.0,0.0,0.0,0.0,0.0814,1.0035,0.0931,0.5968,0.5486,-0.4567,-0.3666
270,0.0,0.0,0.0,0.0,0.0,0.0,0.0796,1.0089,0.0927,0.5972,0.5482,-0.4567,-0.3664
271,0.0,0.0,0.0,0.0,0.0,0.0,0.0791,1.0085,0.0880,0.5974,0.5482,-0.4566,-0.3662
272,0.0,0.0,0.0,0.0,0.0,0.0,0.0562,1.0111,0.0626,0.5947,0.5500,-0.4574,-0.3670
273,0.0,0.0,0.0,0.0,0.0,0.0,-0.0349,1.0087,0.0460,0.5829,0.5549,-0.4594,-0.3759
274,0.0,0.0,0.0,0.0,0.0,0.0,0.1053,0.9655,0.1366,0.5778,0.5557,-0.4608,-0.3808
275,0.0,0.0,0.0,0.0,0.0,0.0,0.2244,1.0241,0.1231,0.5816,0.5527,-0.4614,-0.3786
276,0.0,0.0,0.0,0.0,0.0,0.0,0.1569,1.0053,0.1120,0.5881,0.5516,-0.4591,-0.3732
277,0.0,0.0,0.0,0.0,0.0,0.0,0.0463,0.9718,0.0656,0.5940,0.5514,-0.4569,-0.3667
278,0.0,0.0,0.0,0.0,0.0,0.0,0.0462,0.9850,0.0633,0.5956,0.5495,-0.4581,-0.3654
279,0.0,0.0,0.0,0.0,0.0,0.0,0.0772,0.9901,0.0831,0.5960,0.5497,-0.4581,-0.3644
280,0.0,0.0,0.0,0.0,0.0,0.0,0.0893,0.9872,0.0869,0.5965,0.5495,-0.4577,-0.3643
281,0.0,0.0,0.0,0.0,0.0,0.0,0.0934,0.9920,0.0888,0.5967,0.5498,-0.4575,-0.3638
282,0.0,0.0,0.0,0.0,0.0,0.0,0.0973,0.9938,0.0898,0.5968,0.5509,-0.4570,-0.3627
283,0.0,0.0,0.0,0.0,0.0,0.0,0.0969,0.9968,0.0879,0.5974,0.5508,-0.4563,-0.3626
284,0.0,0.0,0.0,0.0,0.0,0.0,0.0945,0.9964,0.0851,0.5980,0.5509,-0.4556,-0.3624
285,0.0,0.0,0.0,0.0,0.0,0.0,0.0895,0.9936,0.0836,0.5984,0.5515,-0.4549,-0.3617
286,0.0,0.0,0.0,0.0,0.0,0.0,0.0877,0.9986,0.0842,0.5989,0.5521,-0.4542,-0.3608
287,0.0,0.0,0.0,0.0,0.0,0.0,0.0864,1.0059,0.0847,0.5993,0.5532,-0.4535,-0.3595
288,0.0,0.0,0.0,0.0,0.0,0.0,0.0856,1.0054,-0.0372,0.5973,0.5567,-0.4533,-0.3576
289,0.0,0.0,0.0,0.0,0.0,0.0,0.0875,0.9913,0.0789,0.5980,0.5572,-0.4525,-0.3567
290,0.0,0.0,0.0,0.0,0.0,0.0,0.0889,0.9912,0.0827,0.5989,0.5574,-0.4517,-0.3559
291,0.0,0.0,0.0,0.0,0.0,0.0,0.0916,0.9975,0.0837,0.5999,0.5578,-0.4509,-0.3545
292,0.0,0.0,0.0,0.0,0.0,0.0,0.0859,1.0044,0.0866,0.6004,0.5582,-0.4504,-0.3537
293,0.0,0.0,0.0,0.0,0.0,0.0,0.0957,1.0045,0.0946,0.6012,0.5583,-0.4498,-0.3529
294,0.0,0.0,0.0,0.0,0.0,0.0,0.0912,1.0022,0.0945,0.6024,0.5580,-0.4489,-0.3524
295,0.0,0.0,0.0,0.0,0.0,0.0,0.0927,1.0036,0.0955,0.6037,0.5573,-0.4477,-0.3528
296,0.0,0.0,0.0,0.0,0.0,0.0,0.0983,0.9956,0.0940,0.6048,0.5568,-0.4464,-0.3534
297,0.0,0.0,0.0,0.0,0.0,0.0,0.0992,0.9893,0.0921,0.6059,0.5564,-0.4450,-0.3540
298,0.0,0.0,0.0,0.0,0.0,0.0,0.1013,0.9790,0.0892,0.6062,0.5568,-0.4439,-0.3540
299,0.0,0.0,0.0,0.0,0.0,0.0,0.1070,0.9711,0.0858,0.6064,0.5575,-0.4433,-0.3535
300,0.0,0.0,0.0,0.0,0.0,0.0,0.1100,0.9744,0.0887,0.6068,0.5574,-0.4429,-0.3534
301,0.0,0.0,0.0,0.0,0.0,0.0,0.1112,0.9816,0.0949,0.6073,0.5574,-0.4428,-0.3529
302,0.0,0.0,0.0,0.0,0.0,0.0,0.1091,0.9937,0.1025,0.6081,0.5565,-0.4429,-0.3526
303,0.0,0.0,0.0,0.0,0.0,0.0,0.1045,1.0069,0.1106,0.6091,0.5549,-0.4431,-0.3531
304,0.0,0.0,0.0,0.0,0.0,0.0,0.1041,1.0093,0.1158,0.6098,0.5540,-0.4433,-0.3531
305,0.0,0.0,0.0,0.0,0.0,0.0,0.1054,1.0053,0.1186,0.6108,0.5525,-0.4431,-0.3539
306,0.0,0.0,0.0,0.0,0.0,0.0,0.1048,0.9985,0.1199,0.6119,0.5510,-0.4427,-0.3549
307,0.0,0.0,0.0,0.0,0.0,0.0,0.1040,0.9897,0.1199,0.6124,0.5504,-0.4425,-0.3554
308,0.0,0.0,0.0,0.0,0.0,0.0,0.1048,0.9843,0.1212,0.6127,0.5497,-0.4423,-0.3561
309,0.0,0.0,0.0,0.0,0.0,0.0,0.1043,0.9818,0.1250,0.6136,0.5482,-0.4418,-0.3574
310,0.0,0.0,0.0,0.0,0.0,0.0,0.1002,0.9770,0.1254,0.6144,0.5472,-0.4414,-0.3582
311,0.0,0.0,0.0,0.0,0.0,0.0,0.0954,0.9791,0.1283,0.6145,0.5468,-0.4415,-0.3586
312,0.0,0.0,0.0,0.0,0.0,0.0,0.0949,0.9800,0.1311,0.6149,0.5459,-0.4415,-0.3592
313,0.0,0.0,0.0,0.0,0.0,0.0,0.0896,0.9808,0.1259,0.6145,0.5465,-0.4419,-0.3584
314,0.0,0.0,0.0,0.0,0.0,0.0,0.0880,0.9789,0.1231,0.6141,0.5469,-0.4422,-0.3580
315,0.0,0.0,0.0,0.0,0.0,0.0,0.0914,0.9773,0.1216,0.6138,0.5469,-0.4425,-0.3581
316,0.0,0.0,0.0,0.0,0.0,0.0,0.0929,0.9773,0.1202,0.6142,0.5464,-0.4426,-0.3581
317,0.0,0.0,0.0,0.0,0.0,0.0,0.0925,0.9813,0.1179,0.6148,0.5452,-0.4427,-0.3589
318,0.0,0.0,0.0,0.0,0.0,0.0,0.0927,0.9876,0.1180,0.6146,0.5446,-0.4433,-0.3594
319,0.0,0.0,0.0,0.0,0.0,0.0,0.0948,0.9910,0.1185,0.6142,0.5446,-0.4440,-0.3594
320,0.0,0.0,0.0,0.0,0.0,0.0,0.0978,0.9938,0.1194,0.6141,0.5448,-0.4444,-0.3585
321,0.0,0.0,0.0,0.0,0.0,0.0,0.0955,0.9993,0.1171,0.6141,0.5444,-0.4449,-0.3586
322,0.0,0.0,0.0,0.0,0.0,0.0,0.0975,1.0016,0.1195,0.6142,0.5440,-0.4453,-0.3587
323,0.0,0.0,0.0,0.0,0.0,0.0,0.0968,0.9943,0.1180,0.6139,0.5442,-0.4458,-0.3581
324,0.0,0.0,0.0,0.0,0.0,0.0,0.0997,0.9913,0.1199,0.6139,0.5438,-0.4462,-0.3581
325,0.0,0.0,0.0,0.0,0.0,0.0,0.0975,0.9855,0.1203,0.6141,0.5432,-0.4466,-0.3583
326,0.0,0.0,0.0,0.0,0.0,0.0,0.1001,0.9893,0.1227,0.6139,0.5438,-0.4468,-0.3574
327,0.0,0.0,0.0,0.0,0.0,0.0,0.1000,0.9859,0.1231,0.6137,0.5440,-0.4473,-0.3569
328,0.0,0.0,0.0,0.0,0.0,0.0,0.0926,0.9851,0.1264,0.6140,0.5439,-0.4472,-0.3567
329,0.0,0.0,0.0,0.0,0.0,0.0,0.0956,0.9883,0.1302,0.6145,0.5434,-0.4467,-0.3571
330,0.0,0.0,0.0,0.0,0.0,0.0,0.0960,0.9853,0.1344,0.6148,0.5426,-0.4466,-0.3580
331,0.0,0.0,0.0,0.0,0.0,0.0,0.0901,0.9840,0.1372,0.6149,0.5417,-0.4464,-0.3594
332,0.0,0.0,0.0,0.0,0.0,0.0,0.0910,0.9815,0.1363,0.6146,0.5412,-0.4463,-0.3608
333,0.0,0.0,0.0,0.0,0.0,0.0,0.0967,0.9745,0.1372,0.6148,0.5406,-0.4461,-0.3616
334,0.0,0.0,0.0,0.0,0.0,0.0,0.0947,0.9727,0.1348,0.6150,0.5399,-0.4460,-0.3626
335,0.0,0.0,0.0,0.0,0.0,0.0,0.0924,0.9781,0.1344,0.6149,0.5395,-0.4458,-0.3634
336,0.0,0.0,0.0,0.0,0.0,0.0,0.0945,0.9839,0.1368,0.6145,0.5400,-0.4457,-0.3635
337,0.0,0.0,0.0,0.0,0.0,0.0,0.0950,0.9819,0.1339,0.6135,0.5413,-0.4457,-0.3632
338,0.0,0.0,0.0,0.0,0.0,0.0,0.0897,0.9851,0.1316,0.6128,0.5422,-0.4453,-0.3636
339,0.0,0.0,0.0,0.0,0.0,0.0,0.0866,0.9969,0.1289,0.6118,0.5432,-0.4450,-0.3641
340,0.0,0.0,0.0,0.0,0.0,0.0,0.0831,0.9947,0.1246,0.6104,0.5449,-0.4445,-0.3645
341,0.0,0.0,0.0,0.0,0.0,0.0,0.0864,0.9912,0.1194,0.6093,0.5460,-0.4439,-0.3656
342,0.0,0.0,0.0,0.0,0.0,0.0,0.0870,0.9947,0.1161,0.6078,0.5476,-0.4434,-0.3663
343,0.0,0.0,0.0,0.0,0.0,0.0,0.0870,0.9923,0.1105,0.6055,0.5505,-0.4432,-0.3659
344,0.0,0.0,0.0,0.0,0.0,0.0,0.0950,0.9829,0.1047,0.6034,0.5535,-0.4431,-0.3649
345,0.0,0.0,0.0,0.0,0.0,0.0,0.0946,0.9835,0.0996,0.6017,0.5558,-0.4432,-0.3643
346,0.0,0.0,0.0,0.0,0.0,0.0,0.0960,0.9835,0.0953,0.6003,0.5578,-0.4432,-0.3634
347,0.0,0.0,0.0,0.0,0.0,0.0,0.0943,0.9924,0.0879,0.5984,0.5612,-0.4436,-0.3607
348,0.0,0.0,0.0,0.0,0.0,0.0,0.0928,0.9907,0.0794,0.5970,0.5639,-0.4439,-0.3584
349,0.0,0.0,0.0,0.0,0.0,0.0,0.0843,1.0017,0.0738,0.5964,0.5652,-0.4441,-0.3571
350,0.0,0.0,0.0,0.0,0.0,0.0,0.0864,1.0046,0.0720,0.5956,0.5669,-0.4445,-0.3555
351,0.0,0.0,0.0,0.0,0.0,0.0,0.0877,0.9977,0.0729,0.5953,0.5680,-0.4447,-0.3538
352,0.0,0.0,0.0,0.0,0.0,0.0,0.0841,1.0096,0.0744,0.5957,0.5684,-0.4446,-0.3527
353,0.0,0.0,0.0,0.0,0.0,0.0,0.0861,1.0124,0.0772,0.5955,0.5696,-0.4445,-0.3513
354,0.0,0.0,0.0,0.0,0.0,0.0,0.0927,0.9850,0.0633,0.5953,0.5710,-0.4445,-0.3492
355,0.0,0.0,0.0,0.0,0.0,0.0,0.0979,0.9601,0.0575,0.5956,0.5713,-0.4448,-0.3478
356,0.0,0.0,0.0,0.0,0.0,0.0,0.0980,0.9829,0.0680,0.5962,0.5710,-0.4455,-0.3465
357,0.0,0.0,0.0,0.0,0.0,0.0,0.0972,0.9877,0.0700,0.5961,0.5714,-0.4466,-0.3445
358,0.0,0.0,0.0,0.0,0.0,0.0,0.1099,0.9680,0.0604,0.5963,0.5715,-0.4481,-0.3422
359,0.0,0.0,0.0,0.0,0.0,0.0,0.1206,1.0032,0.0677,0.5970,0.5702,-0.4496,-0.3409
360,0.0,0.0,0.0,0.0,0.0,0.0,0.1129,0.9887,0.0695,0.5978,0.5685,-0.4513,-0.3403
361,0.0,0.0,0.0,0.0,0.0,0.0,0.1217,0.9880,0.0695,0.5986,0.5669,-0.4528,-0.3394
362,0.0,0.0,0.0,0.0,0.0,0.0,0.1259,1.0166,0.0759,0.5999,0.5645,-0.4545,-0.3389
363,0.0,0.0,0.0,0.0,0.0,0.0,0.1243,1.0137,0.0744,0.6006,0.5628,-0.4563,-0.3382
364,0.0,0.0,0.0,0.0,0.0,0.0,0.1331,1.0115,0.0768,0.6012,0.5615,-0.4579,-0.3371
365,0.0,0.0,0.0,0.0,0.0,0.0,0.1283,1.0155,0.0806,0.6024,0.5594,-0.4592,-0.3367
366,0.0,0.0,0.0,0.0,0.0,0.0,0.1118,1.0208,0.0844,0.6038,0.5571,-0.4598,-0.3371
367,0.0,0.0,0.0,0.0,0.0,0.0,0.1108,1.0388,0.0925,0.6051,0.5555,-0.4598,-0.3374
368,0.0,0.0,0.0,0.0,0.0,0.0,0.1194,1.0136,0.0932,0.6068,0.5528,-0.4595,-0.3393
369,0.0,0.0,0.0,0.0,0.0,0.0,0.1193,1.0110,0.0993,0.6081,0.5507,-0.4589,-0.3411
370,0.0,0.0,0.0,0.0,0.0,0.0,0.1154,1.0120,0.1064,0.6087,0.5493,-0.4584,-0.3430
371,0.0,0.0,0.0,0.0,0.0,0.0,0.1154,0.9944,0.1110,0.6096,0.5480,-0.4573,-0.3450
372,0.0,0.0,0.0,0.0,0.0,0.0,0.1064,0.9703,0.1061,0.6107,0.5462,-0.4558,-0.3479
373,0.0,0.0,0.0,0.0,0.0,0.0,0.1139,0.9564,0.1069,0.6114,0.5441,-0.4550,-0.3509
374,0.0,0.0,0.0,0.0,0.0,0.0,0.1240,0.9696,0.1178,0.6119,0.5421,-0.4549,-0.3534
375,0.0,0.0,0.0,0.0,0.0,0.0,0.1240,0.9870,0.1279,0.6127,0.5395,-0.4548,-0.3560
376,0.0,0.0,0.0,0.0,0.0,0.0,0.1222,0.9938,0.1326,0.6131,0.5377,-0.4546,-0.3583
377,0.0,0.0,0.0,0.0,0.0,0.0,0.1209,0.9817,0.1316,0.6131,0.5370,-0.4542,-0.3597
378,0.0,0.0,0.0,0.0,0.0,0.0,0.1203,0.9754,0.1282,0.6132,0.5362,-0.4539,-0.3612
379,0.0,0.0,0.0,0.0,0.0,0.0,0.1271,0.9756,0.1320,0.6134,0.5343,-0.4537,-0.3639
380,0.0,0.0,0.0,0.0,0.0,0.0,0.1369,0.9763,0.1325,0.6133,0.5330,-0.4538,-0.3657
381,0.0,0.0,0.0,0.0,0.0,0.0,0.1371,0.9632,0.1263,0.6130,0.5327,-0.4542,-0.3663
382,0.0,0.0,0.0,0.0,0.0,0.0,0.1357,0.9668,0.1197,0.6125,0.5321,-0.4548,-0.3672
383,0.0,0.0,0.0,0.0,0.0,0.0,0.1506,0.9746,0.1231,0.6120,0.5320,-0.4555,-0.3674
384,0.0,0.0,0.0,0.0,0.0,0.0,0.1411,0.9506,0.1088,0.6111,0.5328,-0.4562,-0.3668
385,0.0,0.0,0.0,0.0,0.0,0.0,0.1423,0.9570,0.1046,0.6102,0.5332,-0.4573,-0.3664
386,0.0,0.0,0.0,0.0,0.0,0.0,0.1421,0.9683,0.1042,0.6097,0.5330,-0.4583,-0.3662
387,0.0,0.0,0.0,0.0,0.0,0.0,0.1394,0.9761,0.1075,0.6089,0.5339,-0.4593,-0.3650
388,0.0,0.0,0.0,0.0,0.0,0.0,0.1344,0.9894,0.1114,0.6078,0.5363,-0.4599,-0.3625
389,0.0,0.0,0.0,0.0,0.0,0.0,0.1266,1.0092,0.1102,0.6074,0.5376,-0.4596,-0.3616
390,0.0,0.0,0.0,0.0,0.0,0.0,0.1304,1.0032,0.1101,0.6072,0.5388,-0.4589,-0.3611
391,0.0,0.0,0.0,0.0,0.0,0.0,0.1281,0.9907,0.1029,0.6067,0.5409,-0.4583,-0.3596
392,0.0,0.0,0.0,0.0,0.0,0.0,0.1215,0.9657,0.0924,0.6059,0.5427,-0.4580,-0.3586
393,0.0,0.0,0.0,0.0,0.0,0.0,0.1187,0.9526,0.0871,0.6054,0.5444,-0.4577,-0.3571
394,0.0,0.0,0.0,0.0,0.0,0.0,0.1272,0.9593,0.0796,0.6049,0.5465,-0.4578,-0.3548
395,0.0,0.0,0.0,0.0,0.0,0.0,0.1348,0.9514,0.0725,0.6044,0.5482,-0.4587,-0.3519
396,0.0,0.0,0.0,0.0,0.0,0.0,0.1236,0.9509,0.0654,0.6034,0.5507,-0.4601,-0.3479
397,0.0,0.0,0.0,0.0,0.0,0.0,0.1262,0.9728,0.0651,0.6024,0.5531,-0.4615,-0.3439
398,0.0,0.0,0.0,0.0,0.0,0.0,0.1248,0.9938,0.0653,0.6016,0.5555,-0.4628,-0.3397
399,0.0,0.0,0.0,0.0,0.0,0.0,0.1193,1.0072,0.0631,0.6004,0.5585,-0.4638,-0.3353
400,0.0,0.0,0.0,0.0,0.0,0.0,0.1262,1.0085,0.0621,0.5998,0.5604,-0.4646,-0.3322
401,0.0,0.0,0.0,0.0,0.0,0.0,0.1307,1.0113,0.0608,0.5995,0.5618,-0.4651,-0.3297
402,0.0,0.0,0.0,0.0,0.0,0.0,0.1289,0.9988,0.0512,0.5987,0.5637,-0.4658,-0.3269
403,0.0,0.0,0.0,0.0,0.0,0.0,0.1251,1.0042,0.0536,0.5982,0.5650,-0.4662,-0.3249
404,0.0,0.0,0.0,0.0,0.0,0.0,0.1228,1.0262,0.0580,0.5979,0.5665,-0.4660,-0.3232
405,0.0,0.0,0.0,0.0,0.0,0.0,0.1200,1.0317,0.0581,0.5975,0.5684,-0.4653,-0.3216
406,0.0,0.0,0.0,0.0,0.0,0.0,0.1242,1.0442,0.0629,0.5974,0.5698,-0.4642,-0.3208
407,0.0,0.0,0.0,0.0,0.0,0.0,0.1248,1.0481,0.0620,0.5975,0.5706,-0.4631,-0.3208
408,0.0,0.0,0.0,0.0,0.0,0.0,0.1222,1.0404,0.0577,0.5982,0.5702,-0.4620,-0.3219
409,0.0,0.0,0.0,0.0,0.0,0.0,0.1325,1.0060,0.0494,0.5986,0.5704,-0.4610,-0.3222
410,0.0,0.0,0.0,0.0,0.0,0.0,0.1429,0.9925,0.0498,0.6001,0.5705,-0.4598,-0.3209
411,0.0,0.0,0.0,0.0,0.0,0.0,0.1212,1.0235,0.0495,0.6018,0.5702,-0.4583,-0.3204
412,0.0,0.0,0.0,0.0,0.0,0.0,0.1156,1.0351,0.0685,0.6024,0.5698,-0.4572,-0.3216
413,0.0,0.0,0.0,0.0,0.0,0.0,0.1268,1.0130,0.0848,0.6044,0.5680,-0.4557,-0.3232
414,0.0,0.0,0.0,0.0,0.0,0.0,0.1236,0.9892,0.0808,0.6066,0.5655,-0.4546,-0.3249
415,0.0,0.0,0.0,0.0,0.0,0.0,0.1241,0.9706,0.0835,0.6083,0.5634,-0.4539,-0.3265
416,0.0,0.0,0.0,0.0,0.0,0.0,0.1325,0.9571,0.0843,0.6104,0.5600,-0.4534,-0.3290
417,0.0,0.0,0.0,0.0,0.0,0.0,0.1408,0.9539,0.0914,0.6123,0.5566,-0.4534,-0.3313
418,0.0,0.0,0.0,0.0,0.0,0.0,0.1405,0.9616,0.0994,0.6135,0.5540,-0.4538,-0.3328
419,0.0,0.0,0.0,0.0,0.0,0.0,0.1454,0.9798,0.1076,0.6150,0.5509,-0.4541,-0.3348
420,0.0,0.0,0.0,0.0,0.0,0.0,0.1511,0.9748,0.1090,0.6162,0.5482,-0.4543,-0.3368
421,0.0,0.0,0.0,0.0,0.0,0.0,0.1579,0.9736,0.1094,0.6176,0.5449,-0.4543,-0.3393
422,0.0,0.0,0.0,0.0,0.0,0.0,0.1618,0.9706,0.1052,0.6184,0.5425,-0.4547,-0.3414
423,0.0,0.0,0.0,0.0,0.0,0.0,0.1573,0.9673,0.1065,0.6191,0.5401,-0.4551,-0.3434
424,0.0,0.0,0.0,0.0,0.0,0.0,0.1623,0.9885,0.1147,0.6196,0.5379,-0.4552,-0.3457
425,0.0,0.0,0.0,0.0,0.0,0.0,0.1639,0.9758,0.1094,0.6198,0.5369,-0.4554,-0.3467
426,0.0,0.0,0.0,0.0,0.0,0.0,0.1573,0.9678,0.1075,0.6200,0.5356,-0.4557,-0.3480
427,0.0,0.0,0.0,0.0,0.0,0.0,0.1577,0.9818,0.1142,0.6196,0.5349,-0.4563,-0.3489
428,0.0,0.0,0.0,0.0,0.0,0.0,0.1576,0.9798,0.1189,0.6191,0.5350,-0.4569,-0.3490
429,0.0,0.0,0.0,0.0,0.0,0.0,0.1549,0.9696,0.1188,0.6190,0.5344,-0.4572,-0.3495
430,0.0,0.0,0.0,0.0,0.0,0.0,0.1576,0.9812,0.1255,0.6195,0.5333,-0.4571,-0.3506
431,0.0,0.0,0.0,0.0,0.0,0.0,0.1517,0.9774,0.1255,0.6199,0.5318,-0.4572,-0.3521
432,0.0,0.0,0.0,0.0,0.0,0.0,0.1485,0.9706,0.1296,0.6198,0.5309,-0.4573,-0.3534
433,0.0,0.0,0.0,0.0,0.0,0.0,0.1501,0.9735,0.1325,0.6197,0.5304,-0.4572,-0.3545
434,0.0,0.0,0.0,0.0,0.0,0.0,0.1500,0.9710,0.1343,0.6199,0.5297,-0.4562,-0.3565
435,0.0,0.0,0.0,0.0,0.0,0.0,0.1500,0.9724,0.1358,0.6200,0.5295,-0.4541,-0.3592
436,0.0,0.0,0.0,0.0,0.0,0.0,0.1518,0.9671,0.1324,0.6194,0.5306,-0.4525,-0.3606
437,0.0,0.0,0.0,0.0,0.0,0.0,0.1409,0.9436,0.1195,0.6181,0.5325,-0.4521,-0.3605
438,0.0,0.0,0.0,0.0,0.0,0.0,0.1355,0.9420,0.1115,0.6157,0.5355,-0.4529,-0.3592
439,0.0,0.0,0.0,0.0,0.0,0.0,0.1411,0.9687,0.1113,0.6131,0.5391,-0.4541,-0.3568
440,0.0,0.0,0.0,0.0,0.0,0.0,0.1282,0.9770,0.1052,0.6105,0.5433,-0.4549,-0.3537
441,0.0,0.0,0.0,0.0,0.0,0.0,0.1186,1.0032,0.1030,0.6086,0.5471,-0.4550,-0.3510
442,0.0,0.0,0.0,0.0,0.0,0.0,0.1141,1.0147,0.0961,0.6071,0.5509,-0.4546,-0.3483
443,0.0,0.0,0.0,0.0,0.0,0.0,0.1155,1.0133,0.0890,0.6059,0.5551,-0.4537,-0.3449
444,0.0,0.0,0.0,0.0,0.0,0.0,0.1165,1.0124,0.0810,0.6056,0.5585,-0.4522,-0.3419
445,0.0,0.0,0.0,0.0,0.0,0.0,0.1133,1.0039,0.0673,0.6059,0.5609,-0.4506,-0.3394
446,0.0,0.0,0.0,0.0,0.0,0.0,0.1112,0.9963,0.0569,0.6065,0.5629,-0.4497,-0.3362
447,0.0,0.0,0.0,0.0,0.0,0.0,0.1096,1.0120,0.0551,0.6076,0.5638,-0.4489,-0.3337
448,0.0,0.0,0.0,0.0,0.0,0.0,0.1012,1.0437,0.0746,0.6093,0.5642,-0.4477,-0.3316
449,0.0,0.0,0.0,0.0,0.0,0.0,0.0859,1.0217,0.0726,0.6110,0.5647,-0.4464,-0.3295
450,0.0,0.0,0.0,0.0,0.0,0.0,0.0954,1.0136,0.0763,0.6125,0.5643,-0.4456,-0.3284
451,0.0,0.0,0.0,0.0,0.0,0.0,0.0984,0.9969,0.0757,0.6143,0.5638,-0.4444,-0.3275
452,0.0,0.0,0.0,0.0,0.0,0.0,0.1053,0.9636,0.0674,0.6155,0.5635,-0.4437,-0.3268
453,0.0,0.0,0.0,0.0,0.0,0.0,0.1196,0.9839,0.0836,0.6168,0.5623,-0.4435,-0.3266
454,0.0,0.0,0.0,0.0,0.0,0.0,0.1195,0.9824,0.0897,0.6183,0.5605,-0.4436,-0.3268
455,0.0,0.0,0.0,0.0,0.0,0.0,0.1286,0.9752,0.0901,0.6192,0.5587,-0.4444,-0.3271
456,0.0,0.0,0.0,0.0,0.0,0.0,0.1386,0.9817,0.0982,0.6192,0.5580,-0.4458,-0.3264
457,0.0,0.0,0.0,0.0,0.0,0.0,0.1419,0.9970,0.1110,0.6196,0.5568,-0.4467,-0.3263
458,0.0,0.0,0.0,0.0,0.0,0.0,0.1467,0.9920,0.1105,0.6205,0.5540,-0.4476,-0.3282
459,0.0,0.0,0.0,0.0,0.0,0.0,0.1513,0.9811,0.1118,0.6204,0.5521,-0.4490,-0.3297
460,0.0,0.0,0.0,0.0,0.0,0.0,0.1675,0.9843,0.1227,0.6205,0.5507,-0.4499,-0.3306
461,0.0,0.0,0.0,0.0,0.0,0.0,0.1691,0.9725,0.1235,0.6208,0.5492,-0.4504,-0.3319
462,0.0,0.0,0.0,0.0,0.0,0.0,0.1798,0.9668,0.1230,0.6211,0.5475,-0.4507,-0.3336
463,0.0,0.0,0.0,0.0,0.0,0.0,0.1857,0.9681,0.1230,0.6207,0.5467,-0.4512,-0.3350
464,0.0,0.0,0.0,0.0,0.0,0.0,0.1940,0.9684,0.1216,0.6203,0.5446,-0.4523,-0.3377
465,0.0,0.0,0.0,0.0,0.0,0.0,0.1817,0.9657,0.1277,0.6194,0.5432,-0.4532,-0.3405
466,0.0,0.0,0.0,0.0,0.0,0.0,0.1788,0.9494,0.1149,0.6174,0.5430,-0.4543,-0.3430
467,0.0,0.0,0.0,0.0,0.0,0.0,0.1759,0.9491,0.1106,0.6145,0.5447,-0.4552,-0.3442
468,0.0,0.0,0.0,0.0,0.0,0.0,0.1779,0.9687,0.1033,0.6109,0.5478,-0.4561,-0.3446
469,0.0,0.0,0.0,0.0,0.0,0.0,0.1689,0.9632,0.0957,0.6077,0.5497,-0.4572,-0.3457
470,0.0,0.0,0.0,0.0,0.0,0.0,0.1630,0.9625,0.0905,0.6040,0.5529,-0.4585,-0.3455
471,0.0,0.0,0.0,0.0,0.0,0.0,0.1578,0.9866,0.0869,0.6006,0.5559,-0.4593,-0.3454
472,0.0,0.0,0.0,0.0,0.0,0.0,0.1564,1.0038,0.0828,0.5980,0.5579,-0.4598,-0.3459
473,0.0,0.0,0.0,0.0,0.0,0.0,0.1392,1.0192,0.0702,0.5958,0.5604,-0.4599,-0.3456
474,0.0,0.0,0.0,0.0,0.0,0.0,0.1304,1.0372,0.0614,0.5942,0.5630,-0.4594,-0.3448
475,0.0,0.0,0.0,0.0,0.0,0.0,0.1236,1.0380,0.0506,0.5929,0.5653,-0.4588,-0.3441
476,0.0,0.0,0.0,0.0,0.0,0.0,0.1231,1.0371,0.0482,0.5931,0.5664,-0.4574,-0.3438
477,0.0,0.0,0.0,0.0,0.0,0.0,0.1085,1.0235,0.0401,0.5939,0.5674,-0.4559,-0.3428
478,0.0,0.0,0.0,0.0,0.0,0.0,0.0985,1.0145,0.0419,0.5948,0.5681,-0.4546,-0.3416
479,0.0,0.0,0.0,0.0,0.0,0.0,0.0996,1.0197,0.0533,0.5968,0.5680,-0.4527,-0.3409
480,0.0,0.0,0.0,0.0,0.0,0.0,0.0890,1.0111,0.0584,0.5988,0.5683,-0.4505,-0.3398
481,0.0,0.0,0.0,0.0,0.0,0.0,0.0829,1.0029,0.0658,0.6011,0.5686,-0.4475,-0.3392
482,0.0,0.0,0.0,0.0,0.0,0.0,0.0779,0.9791,0.0675,0.6033,0.5690,-0.4445,-0.3385
483,0.0,0.0,0.0,0.0,0.0,0.0,0.0779,0.9814,0.0727,0.6053,0.5704,-0.4409,-0.3375
484,0.0,0.0,0.0,0.0,0.0,0.0,0.0843,0.9656,0.0726,0.6080,0.5701,-0.4378,-0.3371
485,0.0,0.0,0.0,0.0,0.0,0.0,0.0631,0.9419,0.0672,0.6101,0.5699,-0.4361,-0.3360
486,0.0,0.0,0.0,0.0,0.0,0.0,0.0477,0.9694,0.0891,0.6110,0.5721,-0.4340,-0.3332
487,0.0,0.0,0.0,0.0,0.0,0.0,0.0588,0.9994,0.0865,0.6120,0.5738,-0.4312,-0.3321
488,0.0,0.0,0.0,0.0,0.0,0.0,0.0586,0.9755,0.0807,0.6130,0.5745,-0.4289,-0.3318
489,0.0,0.0,0.0,0.0,0.0,0.0,0.0364,0.9860,0.0826,0.6137,0.5755,-0.4265,-0.3320
490,0.0,0.0,0.0,0.0,0.0,0.0,0.0583,0.9982,0.0719,0.6134,0.5773,-0.4247,-0.3318
491,0.0,0.0,0.0,0.0,0.0,0.0,0.0597,0.9763,0.0623,0.6128,0.5786,-0.4239,-0.3317
492,0.0,0.0,0.0,0.0,0.0,0.0,0.0500,1.0159,0.0814,0.6122,0.5802,-0.4225,-0.3317
493,0.0,0.0,0.0,0.0,0.0,0.0,0.0598,1.0185,0.0787,0.6109,0.5839,-0.4187,-0.3324
494,0.0,0.0,0.0,0.0,0.0,0.0,0.0860,1.0096,0.0678,0.6108,0.5853,-0.4168,-0.3326
495,0.0,0.0,0.0,0.0,0.0,0.0,0.1100,1.0244,0.0736,0.6108,0.5857,-0.4161,-0.3327
496,0.0,0.0,0.0,0.0,0.0,0.0,0.1027,1.0111,0.0678,0.6108,0.5873,-0.4153,-0.3310
497,0.0,0.0,0.0,0.0,0.0,0.0,0.0755,1.0196,0.0716,0.6119,0.5891,-0.4129,-0.3287
498,0.0,0.0,0.0,0.0,0.0,0.0,0.0887,1.0173,0.0725,0.6136,0.5896,-0.4111,-0.3271
499,0.0,0.0,0.0,0.0,0.0,0.0,0.0852,0.9950,0.0672,0.6164,0.5890,-0.4089,-0.3256
500,0.0,0.0,0.0,0.0,0.0,0.0,0.0907,1.0003,0.0569,0.6184,0.5878,-0.4087,-0.3239
501,0.0,0.0,0.0,0.0,0.0,0.0,0.0633,0.9662,0.0731,0.6209,0.5865,-0.4085,-0.3219
502,0.0,0.0,0.0,0.0,0.0,0.0,0.0783,0.9968,0.0884,0.6247,0.5847,-0.4066,-0.3202
503,0.0,0.0,0.0,0.0,0.0,0.0,0.0964,0.8714,0.0761,0.6278,0.5820,-0.4067,-0.3189
504,0.0,0.0,0.0,0.0,0.0,0.0,0.1101,0.9608,0.0806,0.6293,0.5795,-0.4096,-0.3168
505,0.0,0.0,0.0,0.0,0.0,0.0,0.1195,0.9627,0.0990,0.6316,0.5777,-0.4117,-0.3128
506,0.0,0.0,0.0,0.0,0.0,0.0,0.1447,0.9745,0.1089,0.6346,0.5749,-0.4133,-0.3097
507,0.0,0.0,0.0,0.0,0.0,0.0,0.1586,0.9641,0.1225,0.6384,0.5701,-0.4152,-0.3083
508,0.0,0.0,0.0,0.0,0.0,0.0,0.1744,0.9683,0.1343,0.6431,0.5645,-0.4166,-0.3070
509,0.0,0.0,0.0,0.0,0.0,0.0,0.1772,0.9642,0.1385,0.6476,0.5586,-0.4182,-0.3060
510,0.0,0.0,0.0,0.0,0.0,0.0,0.1662,0.9571,0.1502,0.6510,0.5547,-0.4193,-0.3044
511,0.0,0.0,0.0,0.0,0.0,0.0,0.1887,0.9739,0.1556,0.6546,0.5510,-0.4197,-0.3029
512,0.0,0.0,0.0,0.0,0.0,0.0,0.1716,0.9568,0.1545,0.6571,0.5487,-0.4206,-0.3004
513,0.0,0.0,0.0,0.0,0.0,0.0,0.1400,0.9983,0.1266,0.6571,0.5479,-0.4219,-0.3002
514,0.0,0.0,0.0,0.0,0.0,0.0,0.1225,0.9692,0.1160,0.6517,0.5458,-0.4273,-0.3080
515,0.0,0.0,0.0,0.0,0.0,0.0,0.2372,0.9774,0.2432,0.6552,0.5405,-0.4281,-0.3088
516,0.0,0.0,0.0,0.0,0.0,0.0,0.2213,1.0201,0.2021,0.6622,0.5379,-0.4246,-0.3031
517,0.0,0.0,0.0,0.0,0.0,0.0,0.1415,0.9823,0.1434,0.6659,0.5378,-0.4222,-0.2986
518,0.0,0.0,0.0,0.0,0.0,0.0,0.1343,0.9902,0.1552,0.6673,0.5380,-0.4208,-0.2969
519,0.0,0.0,0.0,0.0,0.0,0.0,0.1590,0.9970,0.1694,0.6674,0.5389,-0.4200,-0.2961
520,0.0,0.0,0.0,0.0,0.0,0.0,0.1620,0.9837,0.1712,0.6673,0.5387,-0.4197,-0.2971
521,0.0,0.0,0.0,0.0,0.0,0.0,0.1750,0.9745,0.1749,0.6671,0.5387,-0.4193,-0.2984
522,0.0,0.0,0.0,0.0,0.0,0.0,0.1827,0.9704,0.1753,0.6666,0.5385,-0.4193,-0.2998
523,0.0,0.0,0.0,0.0,0.0,0.0,0.1717,0.9615,0.1715,0.6661,0.5379,-0.4194,-0.3018
524,0.0,0.0,0.0,0.0,0.0,0.0,0.1531,0.9791,0.1405,0.6629,0.5386,-0.4210,-0.3055
525,0.0,0.0,0.0,0.0,0.0,0.0,0.0882,0.9664,0.1074,0.6523,0.5405,-0.4264,-0.3170
526,0.0,0.0,0.0,0.0,0.0,0.0,0.1868,0.9096,0.2125,0.6479,0.5381,-0.4306,-0.3244
527,0.0,0.0,0.0,0.0,0.0,0.0,0.3033,1.0115,0.2186,0.6497,0.5355,-0.4313,-0.3240
528,0.0,0.0,0.0,0.0,0.0,0.0,0.2370,0.9855,0.1938,0.6532,0.5367,-0.4279,-0.3195
529,0.0,0.0,0.0,0.0,0.0,0.0,0.1322,0.9650,0.1484,0.6562,0.5397,-0.4235,-0.3144
530,0.0,0.0,0.0,0.0,0.0,0.0,0.1442,0.9732,0.1306,0.6566,0.5409,-0.4218,-0.3138
531,0.0,0.0,0.0,0.0,0.0,0.0,0.1639,0.9593,0.1399,0.6555,0.5420,-0.4215,-0.3146
532,0.0,0.0,0.0,0.0,0.0,0.0,0.1714,0.9668,0.1400,0.6536,0.5438,-0.4215,-0.3152
533,0.0,0.0,0.0,0.0,0.0,0.0,0.1768,0.9662,0.1390,0.6519,0.5447,-0.4220,-0.3167
534,0.0,0.0,0.0,0.0,0.0,0.0,0.1681,0.9707,0.1475,0.6503,0.5456,-0.4223,-0.3179
535,0.0,0.0,0.0,0.0,0.0,0.0,0.1728,0.9989,0.1501,0.6488,0.5469,-0.4222,-0.3190
536,0.0,0.0,0.0,0.0,0.0,0.0,0.1781,0.9783,0.1438,0.6478,0.5469,-0.4225,-0.3207
537,0.0,0.0,0.0,0.0,0.0,0.0,0.1729,0.9678,0.1395,0.6464,0.5475,-0.4229,-0.3218
538,0.0,0.0,0.0,0.0,0.0,0.0,0.1701,0.9733,0.1363,0.6444,0.5494,-0.4233,-0.3222
539,0.0,0.0,0.0,0.0,0.0,0.0,0.1729,0.9853,0.1420,0.6430,0.5503,-0.4233,-0.3234
540,0.0,0.0,0.0,0.0,0.0,0.0,0.1667,0.9899,0.1434,0.6417,0.5509,-0.4231,-0.3252
541,0.0,0.0,0.0,0.0,0.0,0.0,0.1582,1.0018,0.1478,0.6405,0.5517,-0.4225,-0.3270
542,0.0,0.0,0.0,0.0,0.0,0.0,0.1495,1.0069,0.1478,0.6392,0.5529,-0.4214,-0.3288
543,0.0,0.0,0.0,0.0,0.0,0.0,0.1398,1.0102,0.1441,0.6382,0.5531,-0.4203,-0.3318
544,0.0,0.0,0.0,0.0,0.0,0.0,0.1298,1.0017,0.1454,0.6371,0.5539,-0.4188,-0.3345
545,0.0,0.0,0.0,0.0,0.0,0.0,0.1362,1.0210,0.1522,0.6359,0.5549,-0.4169,-0.3374
546,0.0,0.0,0.0,0.0,0.0,0.0,0.1173,0.9937,0.1543,0.6358,0.5545,-0.4146,-0.3411
547,0.0,0.0,0.0,0.0,0.0,0.0,0.0998,0.9975,0.1585,0.6362,0.5545,-0.4108,-0.3450
548,0.0,0.0,0.0,0.0,0.0,0.0,0.0850,0.9953,0.1717,0.6363,0.5553,-0.4065,-0.3485
549,0.0,0.0,0.0,0.0,0.0,0.0,0.0885,0.9789,0.1570,0.6361,0.5566,-0.4021,-0.3520
550,0.0,0.0,0.0,0.0,0.0,0.0,0.0982,0.9395,0.1228,0.6355,0.5561,-0.4006,-0.3554
551,0.0,0.0,0.0,0.0,0.0,0.0,0.0443,0.9599,0.1723,0.6352,0.5568,-0.3986,-0.3571
552,0.0,0.0,0.0,0.0,0.0,0.0,0.0525,1.0058,0.1586,0.6350,0.5598,-0.3941,-0.3579
553,0.0,0.0,0.0,0.0,0.0,0.0,0.0916,0.9478,0.1068,0.6339,0.5577,-0.3945,-0.3626
554,0.0,0.0,0.0,0.0,0.0,0.0,0.0814,0.9718,0.1536,0.6326,0.5522,-0.3979,-0.3695
555,0.0,0.0,0.0,0.0,0.0,0.0,0.0839,0.9745,0.1640,0.6303,0.5483,-0.4018,-0.3749
556,0.0,0.0,0.0,0.0,0.0,0.0,0.0973,0.9630,0.1535,0.6265,0.5459,-0.4067,-0.3796
557,0.0,0.0,0.0,0.0,0.0,0.0,0.1116,0.9465,0.1506,0.6222,0.5446,-0.4122,-0.3826
558,0.0,0.0,0.0,0.0,0.0,0.0,0.1081,0.9611,0.1592,0.6187,0.5434,-0.4165,-0.3854
559,0.0,0.0,0.0,0.0,0.0,0.0,0.1150,0.9816,0.1457,0.6152,0.5411,-0.4206,-0.3896
560,0.0,0.0,0.0,0.0,0.0,0.0,0.1163,1.0097,0.1605,0.6116,0.5405,-0.4245,-0.3919
561,0.0,0.0,0.0,0.0,0.0,0.0,0.1090,0.9958,0.1604,0.6089,0.5400,-0.4268,-0.3944
562,0.0,0.0,0.0,0.0,0.0,0.0,0.1305,0.9914,0.1448,0.6069,0.5381,-0.4292,-0.3974
563,0.0,0.0,0.0,0.0,0.0,0.0,0.1244,1.0202,0.1620,0.6040,0.5380,-0.4322,-0.3987
564,0.0,0.0,0.0,0.0,0.0,0.0,0.1258,0.9468,0.1379,0.6032,0.5363,-0.4337,-0.4006
565,0.0,0.0,0.0,0.0,0.0,0.0,0.1118,0.9540,0.1370,0.6026,0.5341,-0.4356,-0.4024
566,0.0,0.0,0.0,0.0,0.0,0.0,0.0905,0.9626,0.1615,0.6022,0.5328,-0.4372,-0.4029
567,0.0,0.0,0.0,0.0,0.0,0.0,0.1086,0.9799,0.1447,0.6025,0.5317,-0.4374,-0.4038
568,0.0,0.0,0.0,0.0,0.0,0.0,0.1236,0.9182,0.1250,0.6017,0.5280,-0.4407,-0.4061
569,0.0,0.0,0.0,0.0,0.0,0.0,0.0974,0.9459,0.1553,0.6003,0.5256,-0.4448,-0.4068
570,0.0,0.0,0.0,0.0,0.0,0.0,0.0970,0.9864,0.1575,0.5988,0.5249,-0.4478,-0.4067
571,0.0,0.0,0.0,0.0,0.0,0.0,0.1091,0.9987,0.1609,0.5972,0.5241,-0.4506,-0.4070
572,0.0,0.0,0.0,0.0,0.0,0.0,0.1127,0.9856,0.1476,0.5945,0.5248,-0.4538,-0.4065
573,0.0,0.0,0.0,0.0,0.0,0.0,0.1281,0.9590,0.1323,0.5917,0.5266,-0.4569,-0.4047
574,0.0,0.0,0.0,0.0,0.0,0.0,0.1335,0.9754,0.1330,0.5900,0.5270,-0.4596,-0.4036
575,0.0,0.0,0.0,0.0,0.0,0.0,0.1284,0.9513,0.1229,0.5883,0.5283,-0.4624,-0.4012
576,0.0,0.0,0.0,0.0,0.0,0.0,0.1468,0.9797,0.1161,0.5865,0.5289,-0.4661,-0.3989
577,0.0,0.0,0.0,0.0,0.0,0.0,0.1373,0.9707,0.1179,0.5853,0.5288,-0.4697,-0.3965
578,0.0,0.0,0.0,0.0,0.0,0.0,0.1255,0.9886,0.1185,0.5846,0.5294,-0.4728,-0.3930
579,0.0,0.0,0.0,0.0,0.0,0.0,0.1240,1.0200,0.1112,0.5839,0.5300,-0.4758,-0.3896
580,0.0,0.0,0.0,0.0,0.0,0.0,0.1182,1.0241,0.1070,0.5834,0.5315,-0.4779,-0.3856
581,0.0,0.0,0.0,0.0,0.0,0.0,0.1266,1.0264,0.1009,0.5840,0.5315,-0.4791,-0.3833
582,0.0,0.0,0.0,0.0,0.0,0.0,0.1242,1.0104,0.0989,0.5845,0.5321,-0.4798,-0.3809
583,0.0,0.0,0.0,0.0,0.0,0.0,0.1246,1.0071,0.0880,0.5846,0.5339,-0.4804,-0.3773
584,0.0,0.0,0.0,0.0,0.0,0.0,0.1267,1.0106,0.0805,0.5854,0.5341,-0.4810,-0.3751
585,0.0,0.0,0.0,0.0,0.0,0.0,0.1165,0.9978,0.0771,0.5859,0.5344,-0.4818,-0.3728
586,0.0,0.0,0.0,0.0,0.0,0.0,0.1100,1.0105,0.0894,0.5869,0.5354,-0.4817,-0.3701
587,0.0,0.0,0.0,0.0,0.0,0.0,0.1178,1.0240,0.0872,0.5886,0.5357,-0.4804,-0.3685
588,0.0,0.0,0.0,0.0,0.0,0.0,0.1179,0.9938,0.0771,0.5899,0.5360,-0.4796,-0.3671
589,0.0,0.0,0.0,0.0,0.0,0.0,0.1146,0.9997,0.0856,0.5912,0.5370,-0.4784,-0.3650
590,0.0,0.0,0.0,0.0,0.0,0.0,0.1162,1.0041,0.0790,0.5925,0.5384,-0.4770,-0.3627
591,0.0,0.0,0.0,0.0,0.0,0.0,0.1172,0.9861,0.0765,0.5936,0.5403,-0.4757,-0.3598
592,0.0,0.0,0.0,0.0,0.0,0.0,0.1212,0.9874,0.0770,0.5950,0.5419,-0.4743,-0.3569
593,0.0,0.0,0.0,0.0,0.0,0.0,0.1234,0.9966,0.0780,0.5965,0.5432,-0.4726,-0.3546
594,0.0,0.0,0.0,0.0,0.0,0.0,0.1241,0.9859,0.0747,0.5982,0.5433,-0.4713,-0.3533
595,0.0,0.0,0.0,0.0,0.0,0.0,0.1274,0.9838,0.0756,0.5982,0.5453,-0.4713,-0.3501
596,0.0,0.0,0.0,0.0,0.0,0.0,0.1328,0.9827,0.0756,0.5989,0.5464,-0.4711,-0.3475
597,0.0,0.0,0.0,0.0,0.0,0.0,0.1395,0.9776,0.0765,0.6001,0.5466,-0.4708,-0.3457
598,0.0,0.0,0.0,0.0,0.0,0.0,0.1448,0.9750,0.0769,0.6012,0.5466,-0.4703,-0.3444
599,0.0,0.0,0.0,0.0,0.0,0.0,0.1478,0.9967,0.0894,0.6024,0.5465,-0.4697,-0.3433
600,0.0,0.0,0.0,0.0,0.0,0.0,0.1458,0.9943,0.0875,0.6033,0.5467,-0.4692,-0.3422
601,0.0,0.0,0.0,0.0,0.0,0.0,0.1466,0.9860,0.0883,0.6040,0.5471,-0.4684,-0.3412
602,0.0,0.0,0.0,0.0,0.0,0.0,0.1531,0.9922,0.0860,0.6051,0.5471,-0.4674,-0.3407
603,0.0,0.0,0.0,0.0,0.0,0.0,0.1561,0.9580,0.0778,0.6055,0.5486,-0.4666,-0.3387
604,0.0,0.0,0.0,0.0,0.0,0.0,0.1589,0.9715,0.0807,0.6060,0.5500,-0.4657,-0.3366
605,0.0,0.0,0.0,0.0,0.0,0.0,0.1632,0.9846,0.0836,0.6069,0.5511,-0.4647,-0.3346
606,0.0,0.0,0.0,0.0,0.0,0.0,0.1626,0.9647,0.0769,0.6076,0.5528,-0.4639,-0.3318
607,0.0,0.0,0.0,0.0,0.0,0.0,0.1624,0.9739,0.0779,0.6085,0.5541,-0.4632,-0.3288
608,0.0,0.0,0.0,0.0,0.0,0.0,0.1654,0.9934,0.0785,0.6099,0.5548,-0.4623,-0.3264
609,0.0,0.0,0.0,0.0,0.0,0.0,0.1546,0.9752,0.0755,0.6110,0.5563,-0.4615,-0.3230
610,0.0,0.0,0.0,0.0,0.0,0.0,0.1555,0.9903,0.0771,0.6119,0.5581,-0.4603,-0.3196
611,0.0,0.0,0.0,0.0,0.0,0.0,0.1561,0.9932,0.0757,0.6129,0.5601,-0.4587,-0.3166
612,0.0,0.0,0.0,0.0,0.0,0.0,0.1637,0.9843,0.0667,0.6137,0.5618,-0.4576,-0.3136
613,0.0,0.0,0.0,0.0,0.0,0.0,0.1700,0.9837,0.0643,0.6144,0.5639,-0.4568,-0.3095
614,0.0,0.0,0.0,0.0,0.0,0.0,0.1631,0.9806,0.0577,0.6152,0.5659,-0.4557,-0.3059
615,0.0,0.0,0.0,0.0,0.0,0.0,0.1677,0.9868,0.0582,0.6159,0.5681,-0.4545,-0.3022
616,0.0,0.0,0.0,0.0,0.0,0.0,0.1723,0.9779,0.0516,0.6167,0.5700,-0.4537,-0.2983
617,0.0,0.0,0.0,0.0,0.0,0.0,0.1726,0.9867,0.0521,0.6173,0.5719,-0.4530,-0.2944
618,0.0,0.0,0.0,0.0,0.0,0.0,0.1705,0.9824,0.0511,0.6178,0.5742,-0.4521,-0.2902
619,0.0,0.0,0.0,0.0,0.0,0.0,0.1698,0.9907,0.0545,0.6186,0.5759,-0.4511,-0.2867
620,0.0,0.0,0.0,0.0,0.0,0.0,0.1708,0.9921,0.0536,0.6198,0.5769,-0.4502,-0.2836
621,0.0,0.0,0.0,0.0,0.0,0.0,0.1687,0.9869,0.0507,0.6206,0.5781,-0.4498,-0.2800
622,0.0,0.0,0.0,0.0,0.0,0.0,0.1660,0.9952,0.0536,0.6218,0.5788,-0.4491,-0.2769
623,0.0,0.0,0.0,0.0,0.0,0.0,0.1605,0.9919,0.0531,0.6229,0.5795,-0.4482,-0.2743
624,0.0,0.0,0.0,0.0,0.0,0.0,0.1596,0.9955,0.0484,0.6235,0.5810,-0.4473,-0.2714
625,0.0,0.0,0.0,0.0,0.0,0.0,0.1573,0.9819,0.0455,0.6241,0.5818,-0.4467,-0.2692
626,0.0,0.0,0.0,0.0,0.0,0.0,0.1583,0.9994,0.0508,0.6244,0.5830,-0.4462,-0.2668
627,0.0,0.0,0.0,0.0,0.0,0.0,0.1578,0.9989,0.0508,0.6250,0.5828,-0.4460,-0.2660
628,0.0,0.0,0.0,0.0,0.0,0.0,0.1528,0.9777,0.0445,0.6262,0.5814,-0.4457,-0.2669
629,0.0,0.0,0.0,0.0,0.0,0.0,0.1559,0.9679,0.0369,0.6267,0.5809,-0.4457,-0.2667
630,0.0,0.0,0.0,0.0,0.0,0.0,0.1670,0.9773,0.0398,0.6263,0.5813,-0.4465,-0.2656
631,0.0,0.0,0.0,0.0,0.0,0.0,0.1711,0.9873,0.0460,0.6262,0.5805,-0.4475,-0.2657
632,0.0,0.0,0.0,0.0,0.0,0.0,0.1770,1.0041,0.0560,0.6269,0.5786,-0.4485,-0.2667
633,0.0,0.0,0.0,0.0,0.0,0.0,0.1825,1.0107,0.0622,0.6275,0.5765,-0.4494,-0.2683
634,0.0,0.0,0.0,0.0,0.0,0.0,0.1851,1.0144,0.0669,0.6275,0.5752,-0.4502,-0.2697
635,0.0,0.0,0.0,0.0,0.0,0.0,0.1870,1.0129,0.0688,0.6274,0.5744,-0.4504,-0.2711
636,0.0,0.0,0.0,0.0,0.0,0.0,0.1843,1.0056,0.0725,0.6275,0.5735,-0.4500,-0.2735
637,0.0,0.0,0.0,0.0,0.0,0.0,0.1866,1.0005,0.0809,0.6279,0.5727,-0.4489,-0.2763
638,0.0,0.0,0.0,0.0,0.0,0.0,0.1875,0.9956,0.0804,0.6285,0.5716,-0.4476,-0.2791
639,0.0,0.0,0.0,0.0,0.0,0.0,0.1893,0.9717,0.0727,0.6286,0.5710,-0.4466,-0.2817
640,0.0,0.0,0.0,0.0,0.0,0.0,0.1898,0.9732,0.0737,0.6288,0.5705,-0.4455,-0.2839
641,0.0,0.0,0.0,0.0,0.0,0.0,0.1879,0.9586,0.0745,0.6285,0.5710,-0.4446,-0.2850
642,0.0,0.0,0.0,0.0,0.0,0.0,0.1864,0.9405,0.0743,0.6278,0.5723,-0.4441,-0.2849
643,0.0,0.0,0.0,0.0,0.0,0.0,0.1843,0.9522,0.0791,0.6277,0.5729,-0.4433,-0.2851
644,0.0,0.0,0.0,0.0,0.0,0.0,0.1824,0.9523,0.0758,0.6279,0.5731,-0.4426,-0.2854
645,0.0,0.0,0.0,0.0,0.0,0.0,0.1808,0.9300,0.0695,0.6273,0.5742,-0.4423,-0.2846
646,0.0,0.0,0.0,0.0,0.0,0.0,0.1795,0.9365,0.0668,0.6265,0.5760,-0.4421,-0.2832
647,0.0,0.0,0.0,0.0,0.0,0.0,0.1761,0.9541,0.0669,0.6255,0.5784,-0.4418,-0.2811
648,0.0,0.0,0.0,0.0,0.0,0.0,0.1666,0.9822,0.0690,0.6243,0.5813,-0.4413,-0.2786
649,0.0,0.0,0.0,0.0,0.0,0.0,0.1605,0.9918,0.0630,0.6232,0.5844,-0.4405,-0.2759
650,0.0,0.0,0.0,0.0,0.0,0.0,0.1635,0.9763,0.0459,0.6223,0.5872,-0.4395,-0.2734
651,0.0,0.0,0.0,0.0,0.0,0.0,0.1575,0.9874,0.0375,0.6212,0.5903,-0.4387,-0.2705
652,0.0,0.0,0.0,0.0,0.0,0.0,0.1546,0.9910,0.0281,0.6203,0.5935,-0.4376,-0.2673
653,0.0,0.0,0.0,0.0,0.0,0.0,0.1466,0.9842,0.0121,0.6192,0.5966,-0.4370,-0.2638
654,0.0,0.0,0.0,0.0,0.0,0.0,0.1488,0.9911,0.0055,0.6182,0.5995,-0.4368,-0.2600
655,0.0,0.0,0.0,0.0,0.0,0.0,0.1464,0.9941,0.0018,0.6177,0.6017,-0.4366,-0.2563
656,0.0,0.0,0.0,0.0,0.0,0.0,0.1389,1.0032,-0.0010,0.6171,0.6036,-0.4370,-0.2528
657,0.0,0.0,0.0,0.0,0.0,0.0,0.1357,1.0140,0.0015,0.6174,0.6038,-0.4375,-0.2506
658,0.0,0.0,0.0,0.0,0.0,0.0,0.1258,1.0279,0.0058,0.6181,0.6033,-0.4378,-0.2494
659,0.0,0.0,0.0,0.0,0.0,0.0,0.1184,1.0442,0.0111,0.6185,0.6029,-0.4383,-0.2489
660,0.0,0.0,0.0,0.0,0.0,0.0,0.1296,1.0423,0.0130,0.6194,0.6011,-0.4387,-0.2500
661,0.0,0.0,0.0,0.0,0.0,0.0,0.1415,1.0283,0.0138,0.6199,0.5993,-0.4393,-0.2520
662,0.0,0.0,0.0,0.0,0.0,0.0,0.1617,1.0140,0.0161,0.6204,0.5973,-0.4396,-0.2553
663,0.0,0.0,0.0,0.0,0.0,0.0,0.1762,0.9911,0.0126,0.6212,0.5942,-0.4400,-0.2597
664,0.0,0.0,0.0,0.0,0.0,0.0,0.1744,0.9768,-0.0087,0.6196,0.5922,-0.4418,-0.2648
665,0.0,0.0,0.0,0.0,0.0,0.0,0.1469,0.9729,-0.0167,0.6122,0.5911,-0.4469,-0.2759
666,0.0,0.0,0.0,0.0,0.0,0.0,0.2253,0.9268,0.0615,0.6090,0.5865,-0.4516,-0.2849
667,0.0,0.0,0.0,0.0,0.0,0.0,0.2920,0.9684,0.0855,0.6128,0.5810,-0.4528,-0.2861
668,0.0,0.0,0.0,0.0,0.0,0.0,0.2388,0.9724,0.0577,0.6175,0.5788,-0.4518,-0.2821
669,0.0,0.0,0.0,0.0,0.0,0.0,0.1809,0.9659,0.0242,0.6194,0.5783,-0.4519,-0.2788
670,0.0,0.0,0.0,0.0,0.0,0.0,0.2125,0.9788,0.0436,0.6205,0.5760,-0.4528,-0.2797
671,0.0,0.0,0.0,0.0,0.0,0.0,0.2244,0.9841,0.0545,0.6215,0.5735,-0.4533,-0.2815
672,0.0,0.0,0.0,0.0,0.0,0.0,0.2216,0.9706,0.0511,0.6212,0.5726,-0.4526,-0.2852
673,0.0,0.0,0.0,0.0,0.0,0.0,0.2224,0.9833,0.0488,0.6212,0.5707,-0.4533,-0.2880
674,0.0,0.0,0.0,0.0,0.0,0.0,0.2083,0.9849,0.0352,0.6190,0.5696,-0.4547,-0.2926
675,0.0,0.0,0.0,0.0,0.0,0.0,0.1503,0.9938,0.0136,0.6117,0.5696,-0.4584,-0.3021
676,0.0,0.0,0.0,0.0,0.0,0.0,0.2115,0.9616,0.0854,0.6084,0.5673,-0.4609,-0.3092
677,0.0,0.0,0.0,0.0,0.0,0.0,0.3139,1.0361,0.1190,0.6121,0.5638,-0.4602,-0.3094
678,0.0,0.0,0.0,0.0,0.0,0.0,0.2495,1.0594,0.1003,0.6175,0.5648,-0.4555,-0.3035
679,0.0,0.0,0.0,0.0,0.0,0.0,0.1273,1.0667,0.0546,0.6208,0.5675,-0.4506,-0.2992
680,0.0,0.0,0.0,0.0,0.0,0.0,0.1605,1.0633,0.0532,0.6214,0.5685,-0.4472,-0.3012
681,0.0,0.0,0.0,0.0,0.0,0.0,0.1960,0.9833,0.0394,0.6211,0.5700,-0.4442,-0.3033
682,0.0,0.0,0.0,0.0,0.0,0.0,0.1955,0.9278,0.0281,0.6207,0.5713,-0.4419,-0.3049
683,0.0,0.0,0.0,0.0,0.0,0.0,0.1833,0.9504,0.0419,0.6208,0.5716,-0.4398,-0.3073
684,0.0,0.0,0.0,0.0,0.0,0.0,0.1738,0.9428,0.0485,0.6215,0.5709,-0.4378,-0.3103
685,0.0,0.0,0.0,0.0,0.0,0.0,0.1591,0.9436,0.0555,0.6226,0.5692,-0.4357,-0.3139
686,0.0,0.0,0.0,0.0,0.0,0.0,0.1465,1.0007,0.0809,0.6237,0.5672,-0.4338,-0.3179
687,0.0,0.0,0.0,0.0,0.0,0.0,0.1316,0.9936,0.0978,0.6250,0.5656,-0.4307,-0.3223
688,0.0,0.0,0.0,0.0,0.0,0.0,0.1392,0.9499,0.0951,0.6270,0.5640,-0.4262,-0.3273
689,0.0,0.0,0.0,0.0,0.0,0.0,0.1547,0.9459,0.1035,0.6289,0.5619,-0.4226,-0.3319
690,0.0,0.0,0.0,0.0,0.0,0.0,0.1653,0.9587,0.1117,0.6305,0.5585,-0.4212,-0.3364
691,0.0,0.0,0.0,0.0,0.0,0.0,0.1520,0.9724,0.1325,0.6317,0.5564,-0.4202,-0.3389
692,0.0,0.0,0.0,0.0,0.0,0.0,0.1524,0.9700,0.1310,0.6324,0.5530,-0.4202,-0.3431
693,0.0,0.0,0.0,0.0,0.0,0.0,0.1607,0.9350,0.1374,0.6338,0.5490,-0.4209,-0.3459
694,0.0,0.0,0.0,0.0,0.0,0.0,0.1428,0.9940,0.1439,0.6335,0.5485,-0.4218,-0.3463
695,0.0,0.0,0.0,0.0,0.0,0.0,0.1426,0.9890,0.1528,0.6325,0.5482,-0.4223,-0.3479
696,0.0,0.0,0.0,0.0,0.0,0.0,0.1664,0.9815,0.1490,0.6324,0.5469,-0.4223,-0.3500
697,0.0,0.0,0.0,0.0,0.0,0.0,0.1672,0.9368,0.1345,0.6326,0.5453,-0.4227,-0.3517
698,0.0,0.0,0.0,0.0,0.0,0.0,0.1604,0.9575,0.1361,0.6327,0.5438,-0.4237,-0.3527
699,0.0,0.0,0.0,0.0,0.0,0.0,0.1465,0.9871,0.1415,0.6331,0.5425,-0.4244,-0.3533
700,0.0,0.0,0.0,0.0,0.0,0.0,0.1443,0.9785,0.1335,0.6333,0.5412,-0.4253,-0.3538
701,0.0,0.0,0.0,0.0,0.0,0.0,0.1412,0.9902,0.1425,0.6334,0.5395,-0.4261,-0.3551
702,0.0,0.0,0.0,0.0,0.0,0.0,0.1360,0.9791,0.1415,0.6339,0.5381,-0.4262,-0.3564
703,0.0,0.0,0.0,0.0,0.0,0.0,0.1427,0.9557,0.1234,0.6337,0.5373,-0.4269,-0.3571
704,0.0,0.0,0.0,0.0,0.0,0.0,0.1449,0.9653,0.1315,0.6331,0.5369,-0.4279,-0.3575
705,0.0,0.0,0.0,0.0,0.0,0.0,0.1422,0.9891,0.1448,0.6335,0.5362,-0.4273,-0.3586
706,0.0,0.0,0.0,0.0,0.0,0.0,0.1420,0.9828,0.1424,0.6336,0.5361,-0.4262,-0.3598
707,0.0,0.0,0.0,0.0,0.0,0.0,0.1389,0.9590,0.1394,0.6331,0.5370,-0.4257,-0.3601
708,0.0,0.0,0.0,0.0,0.0,0.0,0.1395,0.9648,0.1437,0.6325,0.5373,-0.4259,-0.3604
709,0.0,0.0,0.0,0.0,0.0,0.0,0.1372,0.9687,0.1470,0.6324,0.5368,-0.4263,-0.3609
710,0.0,0.0,0.0,0.0,0.0,0.0,0.1306,0.9772,0.1476,0.6312,0.5374,-0.4275,-0.3605
711,0.0,0.0,0.0,0.0,0.0,0.0,0.1272,0.9808,0.1433,0.6294,0.5384,-0.4293,-0.3602
712,0.0,0.0,0.0,0.0,0.0,0.0,0.1321,0.9801,0.1462,0.6280,0.5380,-0.4313,-0.3608
713,0.0,0.0,0.0,0.0,0.0,0.0,0.1283,0.9836,0.1490,0.6267,0.5382,-0.4325,-0.3614
714,0.0,0.0,0.0,0.0,0.0,0.0,0.1347,0.9851,0.1392,0.6247,0.5396,-0.4333,-0.3617
715,0.0,0.0,0.0,0.0,0.0,0.0,0.1341,0.9613,0.1295,0.6226,0.5411,-0.4348,-0.3613
716,0.0,0.0,0.0,0.0,0.0,0.0,0.1320,0.9755,0.1273,0.6206,0.5424,-0.4362,-0.3611
717,0.0,0.0,0.0,0.0,0.0,0.0,0.1382,0.9880,0.1321,0.6188,0.5442,-0.4373,-0.3602
718,0.0,0.0,0.0,0.0,0.0,0.0,0.1276,0.9734,0.1183,0.6167,0.5467,-0.4383,-0.3587
719,0.0,0.0,0.0,0.0,0.0,0.0,0.1308,1.0025,0.1228,0.6150,0.5494,-0.4388,-0.3570
720,0.0,0.0,0.0,0.0,0.0,0.0,0.1341,0.9953,0.1115,0.6133,0.5519,-0.4390,-0.3556
721,0.0,0.0,0.0,0.0,0.0,0.0,0.1330,0.9929,0.1072,0.6120,0.5541,-0.4394,-0.3540
722,0.0,0.0,0.0,0.0,0.0,0.0,0.1309,1.0042,0.1059,0.6107,0.5570,-0.4395,-0.3517
723,0.0,0.0,0.0,0.0,0.0,0.0,0.1208,0.9929,0.0987,0.6098,0.5598,-0.4388,-0.3496
724,0.0,0.0,0.0,0.0,0.0,0.0,0.1303,0.9987,0.0880,0.6091,0.5620,-0.4382,-0.3482
725,0.0,0.0,0.0,0.0,0.0,0.0,0.1288,0.9977,0.0889,0.6082,0.5643,-0.4379,-0.3462
726,0.0,0.0,0.0,0.0,0.0,0.0,0.1214,0.9955,0.0870,0.6079,0.5663,-0.4373,-0.3444
727,0.0,0.0,0.0,0.0,0.0,0.0,0.1115,0.9920,0.0841,0.6076,0.5682,-0.4369,-0.3422
728,0.0,0.0,0.0,0.0,0.0,0.0,0.1103,1.0023,0.0814,0.6074,0.5697,-0.4366,-0.3406
729,0.0,0.0,0.0,0.0,0.0,0.0,0.1122,0.9818,0.0742,0.6072,0.5708,-0.4363,-0.3394
730,0.0,0.0,0.0,0.0,0.0,0.0,0.1132,0.9833,0.0756,0.6070,0.5719,-0.4361,-0.3381
731,0.0,0.0,0.0,0.0,0.0,0.0,0.1226,0.9859,0.0756,0.6079,0.5719,-0.4357,-0.3368
732,0.0,0.0,0.0,0.0,0.0,0.0,0.1139,0.9896,0.0733,0.6082,0.5731,-0.4357,-0.3344
733,0.0,0.0,0.0,0.0,0.0,0.0,0.1198,0.9910,0.0705,0.6087,0.5733,-0.4362,-0.3325
734,0.0,0.0,0.0,0.0,0.0,0.0,0.1184,0.9938,0.0761,0.6095,0.5723,-0.4371,-0.3317
735,0.0,0.0,0.0,0.0,0.0,0.0,0.1221,1.0025,0.0767,0.6098,0.5724,-0.4379,-0.3298
736,0.0,0.0,0.0,0.0,0.0,0.0,0.1298,0.9975,0.0729,0.6106,0.5719,-0.4385,-0.3283
737,0.0,0.0,0.0,0.0,0.0,0.0,0.1318,1.0022,0.0790,0.6121,0.5700,-0.4391,-0.3282
738,0.0,0.0,0.0,0.0,0.0,0.0,0.1335,0.9909,0.0818,0.6129,0.5693,-0.4397,-0.3269
739,0.0,0.0,0.0,0.0,0.0,0.0,0.1463,0.9929,0.0813,0.6131,0.5694,-0.4404,-0.3254
740,0.0,0.0,0.0,0.0,0.0,0.0,0.1479,0.9826,0.0822,0.6142,0.5676,-0.4413,-0.3255
741,0.0,0.0,0.0,0.0,0.0,0.0,0.1518,0.9976,0.0865,0.6158,0.5650,-0.4418,-0.3262
742,0.0,0.0,0.0,0.0,0.0,0.0,0.1562,0.9818,0.0892,0.6167,0.5625,-0.4431,-0.3271
743,0.0,0.0,0.0,0.0,0.0,0.0,0.1605,0.9757,0.0939,0.6175,0.5607,-0.4443,-0.3270
744,0.0,0.0,0.0,0.0,0.0,0.0,0.1653,0.9930,0.0997,0.6188,0.5584,-0.4451,-0.3274
745,0.0,0.0,0.0,0.0,0.0,0.0,0.1606,0.9810,0.1005,0.6201,0.5563,-0.4456,-0.3277
746,0.0,0.0,0.0,0.0,0.0,0.0,0.1607,0.9844,0.0996,0.6205,0.5554,-0.4465,-0.3275
747,0.0,0.0,0.0,0.0,0.0,0.0,0.1672,0.9890,0.1039,0.6211,0.5540,-0.4471,-0.3277
748,0.0,0.0,0.0,0.0,0.0,0.0,0.1691,0.9885,0.1044,0.6218,0.5526,-0.4475,-0.3282
749,0.0,0.0,0.0,0.0,0.0,0.0,0.1711,0.9884,0.1058,0.6219,0.5520,-0.4480,-0.3285
750,0.0,0.0,0.0,0.0,0.0,0.0,0.1745,0.9877,0.1100,0.6222,0.5513,-0.4481,-0.3289
751,0.0,0.0,0.0,0.0,0.0,0.0,0.1710,0.9854,0.1081,0.6225,0.5503,-0.4482,-0.3299
752,0.0,0.0,0.0,0.0,0.0,0.0,0.1717,0.9932,0.1110,0.6227,0.5492,-0.4482,-0.3313
753,0.0,0.0,0.0,0.0,0.0,0.0,0.1699,0.9825,0.1100,0.6228,0.5487,-0.4481,-0.3320
754,0.0,0.0,0.0,0.0,0.0,0.0,0.1617,0.9857,0.1072,0.6229,0.5481,-0.4478,-0.3332
755,0.0,0.0,0.0,0.0,0.0,0.0,0.1611,0.9993,0.1148,0.6235,0.5472,-0.4468,-0.3347
756,0.0,0.0,0.0,0.0,0.0,0.0,0.1595,0.9955,0.1101,0.6236,0.5472,-0.4461,-0.3358
757,0.0,0.0,0.0,0.0,0.0,0.0,0.1562,0.9985,0.1101,0.6231,0.5478,-0.4454,-0.3365
758,0.0,0.0,0.0,0.0,0.0,0.0,0.1559,1.0054,0.1101,0.6222,0.5491,-0.4445,-0.3373
759,0.0,0.0,0.0,0.0,0.0,0.0,0.1531,0.9938,0.1044,0.6213,0.5506,-0.4435,-0.3380
760,0.0,0.0,0.0,0.0,0.0,0.0,0.1453,0.9955,0.1030,0.6204,0.5512,-0.4425,-0.3398
761,0.0,0.0,0.0,0.0,0.0,0.0,0.1444,0.9780,0.1005,0.6195,0.5514,-0.4420,-0.3419
762,0.0,0.0,0.0,0.0,0.0,0.0,0.1466,0.9721,0.1009,0.6192,0.5504,-0.4414,-0.3446
763,0.0,0.0,0.0,0.0,0.0,0.0,0.1467,0.9745,0.1052,0.6191,0.5494,-0.4410,-0.3470
764,0.0,0.0,0.0,0.0,0.0,0.0,0.1426,0.9872,0.1100,0.6188,0.5486,-0.4407,-0.3493
765,0.0,0.0,0.0,0.0,0.0,0.0,0.1344,0.9733,0.1103,0.6187,0.5477,-0.4401,-0.3515
766,0.0,0.0,0.0,0.0,0.0,0.0,0.1435,0.9842,0.1137,0.6183,0.5476,-0.4396,-0.3529
767,0.0,0.0,0.0,0.0,0.0,0.0,0.1447,0.9715,0.1113,0.6189,0.5460,-0.4390,-0.3551
768,0.0,0.0,0.0,0.0,0.0,0.0,0.1369,0.9732,0.1118,0.6195,0.5440,-0.4387,-0.3576
769,0.0,0.0,0.0,0.0,0.0,0.0,0.1473,0.9776,0.1198,0.6196,0.5430,-0.4386,-0.3589
770,0.0,0.0,0.0,0.0,0.0,0.0,0.1446,0.9715,0.1141,0.6200,0.5415,-0.4388,-0.3603
771,0.0,0.0,0.0,0.0,0.0,0.0,0.1411,0.9681,0.1150,0.6203,0.5400,-0.4390,-0.3617
772,0.0,0.0,0.0,0.0,0.0,0.0,0.1407,0.9721,0.1141,0.6199,0.5399,-0.4395,-0.3620
773,0.0,0.0,0.0,0.0,0.0,0.0,0.1382,0.9867,0.1232,0.6197,0.5394,-0.4400,-0.3624
774,0.0,0.0,0.0,0.0,0.0,0.0,0.1414,0.9788,0.1212,0.6193,0.5398,-0.4403,-0.3623
775,0.0,0.0,0.0,0.0,0.0,0.0,0.1339,0.9727,0.1188,0.6181,0.5413,-0.4408,-0.3614
776,0.0,0.0,0.0,0.0,0.0,0.0,0.1320,0.9742,0.1169,0.6173,0.5425,-0.4411,-0.3607
777,0.0,0.0,0.0,0.0,0.0,0.0,0.1308,0.9656,0.1126,0.6169,0.5432,-0.4413,-0.3601
778,0.0,0.0,0.0,0.0,0.0,0.0,0.1321,0.9612,0.1060,0.6165,0.5437,-0.4420,-0.3592
779,0.0,0.0,0.0,0.0,0.0,0.0,0.1338,0.9680,0.1094,0.6158,0.5445,-0.4432,-0.3576
780,0.0,0.0,0.0,0.0,0.0,0.0,0.1296,0.9924,0.1190,0.6154,0.5455,-0.4441,-0.3557
781,0.0,0.0,0.0,0.0,0.0,0.0,0.1285,0.9895,0.1175,0.6150,0.5464,-0.4445,-0.3545
782,0.0,0.0,0.0,0.0,0.0,0.0,0.1385,0.9790,0.1118,0.6147,0.5475,-0.4450,-0.3527
783,0.0,0.0,0.0,0.0,0.0,0.0,0.1404,0.9940,0.1152,0.6149,0.5482,-0.4453,-0.3508
784,0.0,0.0,0.0,0.0,0.0,0.0,0.1357,1.0195,0.1225,0.6154,0.5488,-0.4455,-0.3487
785,0.0,0.0,0.0,0.0,0.0,0.0,0.1291,1.0118,0.1234,0.6160,0.5497,-0.4454,-0.3465
786,0.0,0.0,0.0,0.0,0.0,0.0,0.1380,1.0135,0.1239,0.6167,0.5501,-0.4449,-0.3451
787,0.0,0.0,0.0,0.0,0.0,0.0,0.1399,1.0135,0.1243,0.6178,0.5501,-0.4442,-0.3442
788,0.0,0.0,0.0,0.0,0.0,0.0,0.1377,1.0023,0.1214,0.6189,0.5501,-0.4431,-0.3435
789,0.0,0.0,0.0,0.0,0.0,0.0,0.1392,0.9872,0.1194,0.6202,0.5498,-0.4422,-0.3429
790,0.0,0.0,0.0,0.0,0.0,0.0,0.1417,0.9904,0.1270,0.6212,0.5497,-0.4415,-0.3420
791,0.0,0.0,0.0,0.0,0.0,0.0,0.1431,0.9888,0.1307,0.6224,0.5491,-0.4410,-0.3414
792,0.0,0.0,0.0,0.0,0.0,0.0,0.1393,0.9752,0.1325,0.6240,0.5480,-0.4404,-0.3411
793,0.0,0.0,0.0,0.0,0.0,0.0,0.1352,0.9836,0.1373,0.6260,0.5463,-0.4395,-0.3414
794,0.0,0.0,0.0,0.0,0.0,0.0,0.1362,0.9864,0.1458,0.6277,0.5449,-0.4385,-0.3416
795,0.0,0.0,0.0,0.0,0.0,0.0,0.1420,0.9857,0.1490,0.6300,0.5429,-0.4373,-0.3423
796,0.0,0.0,0.0,0.0,0.0,0.0,0.1368,0.9737,0.1452,0.6319,0.5410,-0.4366,-0.3427
797,0.0,0.0,0.0,0.0,0.0,0.0,0.1418,0.9773,0.1560,0.6337,0.5393,-0.4360,-0.3427
798,0.0,0.0,0.0,0.0,0.0,0.0,0.1439,0.9810,0.1598,0.6355,0.5385,-0.4351,-0.3420
799,0.0,0.0,0.0,0.0,0.0,0.0,0.1464,0.9824,0.1594,0.6372,0.5378,-0.4339,-0.3415
800,0.0,0.0,0.0,0.0,0.0,0.0,0.1467,0.9785,0.1631,0.6387,0.5368,-0.4329,-0.3412
801,0.0,0.0,0.0,0.0,0.0,0.0,0.1486,0.9755,0.1645,0.6402,0.5358,-0.4320,-0.3411
802,0.0,0.0,0.0,0.0,0.0,0.0,0.1538,0.9698,0.1711,0.6423,0.5353,-0.4305,-0.3399
803,0.0,0.0,0.0,0.0,0.0,0.0,0.1364,0.9769,0.1589,0.6440,0.5357,-0.4290,-0.3381
804,0.0,0.0,0.0,0.0,0.0,0.0,0.1337,0.9677,0.1560,0.6444,0.5349,-0.4287,-0.3388
805,0.0,0.0,0.0,0.0,0.0,0.0,0.1482,0.9627,0.1710,0.6449,0.5342,-0.4286,-0.3393
806,0.0,0.0,0.0,0.0,0.0,0.0,0.1448,0.9613,0.1682,0.6456,0.5334,-0.4282,-0.3396
807,0.0,0.0,0.0,0.0,0.0,0.0,0.1463,0.9637,0.1696,0.6457,0.5336,-0.4279,-0.3395
808,0.0,0.0,0.0,0.0,0.0,0.0,0.1424,0.9658,0.1701,0.6456,0.5340,-0.4276,-0.3395
809,0.0,0.0,0.0,0.0,0.0,0.0,0.1249,0.9693,0.1696,0.6453,0.5342,-0.4273,-0.3400
810,0.0,0.0,0.0,0.0,0.0,0.0,0.1259,0.9678,0.1672,0.6442,0.5349,-0.4272,-0.3411
811,0.0,0.0,0.0,0.0,0.0,0.0,0.1424,0.9648,0.1705,0.6429,0.5355,-0.4274,-0.3425
812,0.0,0.0,0.0,0.0,0.0,0.0,0.1424,0.9644,0.1663,0.6410,0.5369,-0.4279,-0.3432
813,0.0,0.0,0.0,0.0,0.0,0.0,0.1338,0.9720,0.1645,0.6384,0.5390,-0.4284,-0.3441
814,0.0,0.0,0.0,0.0,0.0,0.0,0.1292,0.9805,0.1626,0.6361,0.5402,-0.4284,-0.3465
815,0.0,0.0,0.0,0.0,0.0,0.0,0.1283,0.9665,0.1512,0.6334,0.5417,-0.4286,-0.3488
816,0.0,0.0,0.0,0.0,0.0,0.0,0.1300,0.9402,0.1397,0.6307,0.5439,-0.4294,-0.3494
817,0.0,0.0,0.0,0.0,0.0,0.0,0.1368,0.9563,0.1333,0.6270,0.5469,-0.4310,-0.3493
818,0.0,0.0,0.0,0.0,0.0,0.0,0.1368,0.9529,0.1276,0.6232,0.5504,-0.4329,-0.3482
819,0.0,0.0,0.0,0.0,0.0,0.0,0.1394,0.9584,0.1187,0.6201,0.5533,-0.4347,-0.3469
820,0.0,0.0,0.0,0.0,0.0,0.0,0.1530,0.9367,0.1002,0.6175,0.5546,-0.4372,-0.3464
821,0.0,0.0,0.0,0.0,0.0,0.0,0.1477,0.9948,0.1181,0.6151,0.5564,-0.4394,-0.3449
822,0.0,0.0,0.0,0.0,0.0,0.0,0.1413,1.0101,0.1144,0.6130,0.5588,-0.4408,-0.3430
823,0.0,0.0,0.0,0.0,0.0,0.0,0.1402,1.0030,0.1021,0.6112,0.5612,-0.4421,-0.3406
824,0.0,0.0,0.0,0.0,0.0,0.0,0.1444,1.0308,0.0995,0.6104,0.5627,-0.4428,-0.3386
825,0.0,0.0,0.0,0.0,0.0,0.0,0.1416,1.0369,0.0920,0.6099,0.5646,-0.4428,-0.3366
826,0.0,0.0,0.0,0.0,0.0,0.0,0.1309,1.0218,0.0740,0.6096,0.5671,-0.4421,-0.3337
827,0.0,0.0,0.0,0.0,0.0,0.0,0.1229,1.0159,0.0645,0.6096,0.5693,-0.4412,-0.3311
828,0.0,0.0,0.0,0.0,0.0,0.0,0.1076,1.0100,0.0612,0.6099,0.5712,-0.4400,-0.3288
829,0.0,0.0,0.0,0.0,0.0,0.0,0.1070,1.0071,0.0616,0.6107,0.5727,-0.4387,-0.3265
830,0.0,0.0,0.0,0.0,0.0,0.0,0.1095,1.0081,0.0588,0.6116,0.5739,-0.4375,-0.3244
831,0.0,0.0,0.0,0.0,0.0,0.0,0.1031,1.0067,0.0621,0.6129,0.5738,-0.4364,-0.3234
832,0.0,0.0,0.0,0.0,0.0,0.0,0.1000,1.0014,0.0658,0.6145,0.5735,-0.4353,-0.3226
833,0.0,0.0,0.0,0.0,0.0,0.0,0.1061,0.9910,0.0657,0.6154,0.5738,-0.4347,-0.3211
834,0.0,0.0,0.0,0.0,0.0,0.0,0.1132,0.9989,0.0729,0.6165,0.5731,-0.4343,-0.3205
835,0.0,0.0,0.0,0.0,0.0,0.0,0.1120,1.0110,0.0824,0.6181,0.5720,-0.4333,-0.3208
836,0.0,0.0,0.0,0.0,0.0,0.0,0.1130,1.0100,0.0871,0.6188,0.5719,-0.4325,-0.3210
837,0.0,0.0,0.0,0.0,0.0,0.0,0.1130,0.9943,0.0865,0.6190,0.5714,-0.4320,-0.3221
838,0.0,0.0,0.0,0.0,0.0,0.0,0.1174,0.9941,0.0936,0.6196,0.5704,-0.4314,-0.3235
839,0.0,0.0,0.0,0.0,0.0,0.0,0.1048,0.9978,0.0973,0.6201,0.5697,-0.4306,-0.3248
840,0.0,0.0,0.0,0.0,0.0,0.0,0.1003,0.9964,0.1025,0.6201,0.5687,-0.4300,-0.3272
841,0.0,0.0,0.0,0.0,0.0,0.0,0.1054,0.9864,0.1090,0.6200,0.5675,-0.4298,-0.3299
842,0.0,0.0,0.0,0.0,0.0,0.0,0.1127,0.9652,0.1093,0.6202,0.5646,-0.4304,-0.3337
843,0.0,0.0,0.0,0.0,0.0,0.0,0.1166,0.9484,0.1092,0.6201,0.5614,-0.4318,-0.3375
844,0.0,0.0,0.0,0.0,0.0,0.0,0.1257,0.9578,0.1182,0.6197,0.5581,-0.4340,-0.3408
845,0.0,0.0,0.0,0.0,0.0,0.0,0.1363,0.9734,0.1334,0.6198,0.5538,-0.4365,-0.3444
846,0.0,0.0,0.0,0.0,0.0,0.0,0.1453,0.9789,0.1396,0.6198,0.5496,-0.4393,-0.3476
847,0.0,0.0,0.0,0.0,0.0,0.0,0.1590,0.9779,0.1433,0.6193,0.5459,-0.4423,-0.3505
848,0.0,0.0,0.0,0.0,0.0,0.0,0.1574,0.9746,0.1386,0.6182,0.5425,-0.4454,-0.3537
849,0.0,0.0,0.0,0.0,0.0,0.0,0.1745,0.9730,0.1466,0.6177,0.5384,-0.4482,-0.3573
850,0.0,0.0,0.0,0.0,0.0,0.0,0.1790,0.9574,0.1371,0.6170,0.5353,-0.4511,-0.3594
851,0.0,0.0,0.0,0.0,0.0,0.0,0.1831,0.9480,0.1361,0.6161,0.5325,-0.4546,-0.3607
852,0.0,0.0,0.0,0.0,0.0,0.0,0.1878,0.9580,0.1394,0.6154,0.5297,-0.4582,-0.3616
853,0.0,0.0,0.0,0.0,0.0,0.0,0.1863,0.9731,0.1461,0.6148,0.5270,-0.4616,-0.3622
854,0.0,0.0,0.0,0.0,0.0,0.0,0.1938,0.9797,0.1490,0.6146,0.5242,-0.4646,-0.3628
855,0.0,0.0,0.0,0.0,0.0,0.0,0.1880,0.9818,0.1486,0.6146,0.5218,-0.4670,-0.3633
856,0.0,0.0,0.0,0.0,0.0,0.0,0.1804,0.9929,0.1458,0.6147,0.5197,-0.4687,-0.3639
857,0.0,0.0,0.0,0.0,0.0,0.0,0.1820,0.9967,0.1449,0.6151,0.5177,-0.4697,-0.3647
858,0.0,0.0,0.0,0.0,0.0,0.0,0.1776,0.9964,0.1407,0.6151,0.5173,-0.4704,-0.3645
859,0.0,0.0,0.0,0.0,0.0,0.0,0.1714,0.9855,0.1354,0.6149,0.5178,-0.4707,-0.3636
860,0.0,0.0,0.0,0.0,0.0,0.0,0.1741,0.9753,0.1273,0.6150,0.5177,-0.4706,-0.3638
861,0.0,0.0,0.0,0.0,0.0,0.0,0.1675,0.9832,0.1307,0.6148,0.5183,-0.4702,-0.3637
862,0.0,0.0,0.0,0.0,0.0,0.0,0.1598,0.9893,0.1298,0.6147,0.5196,-0.4693,-0.3632
863,0.0,0.0,0.0,0.0,0.0,0.0,0.1612,1.0039,0.1327,0.6148,0.5204,-0.4678,-0.3638
864,0.0,0.0,0.0,0.0,0.0,0.0,0.1539,0.9880,0.1307,0.6144,0.5222,-0.4663,-0.3639
865,0.0,0.0,0.0,0.0,0.0,0.0,0.1548,0.9846,0.1265,0.6135,0.5254,-0.4646,-0.3629
866,0.0,0.0,0.0,0.0,0.0,0.0,0.1544,0.9692,0.1155,0.6130,0.5279,-0.4628,-0.3625
867,0.0,0.0,0.0,0.0,0.0,0.0,0.1526,0.9591,0.1107,0.6119,0.5313,-0.4614,-0.3611
868,0.0,0.0,0.0,0.0,0.0,0.0,0.1449,0.9642,0.1075,0.6106,0.5352,-0.4605,-0.3588
869,0.0,0.0,0.0,0.0,0.0,0.0,0.1342,0.9647,0.0971,0.6098,0.5384,-0.4596,-0.3565
870,0.0,0.0,0.0,0.0,0.0,0.0,0.1303,0.9664,0.0919,0.6093,0.5412,-0.4588,-0.3542
871,0.0,0.0,0.0,0.0,0.0,0.0,0.1308,0.9665,0.0853,0.6090,0.5437,-0.4582,-0.3514
872,0.0,0.0,0.0,0.0,0.0,0.0,0.1234,0.9795,0.0784,0.6093,0.5461,-0.4576,-0.3481
873,0.0,0.0,0.0,0.0,0.0,0.0,0.1167,0.9851,0.0732,0.6089,0.5480,-0.4576,-0.3458
874,0.0,0.0,0.0,0.0,0.0,0.0,0.1280,0.9862,0.0747,0.6072,0.5518,-0.4586,-0.3413
875,0.0,0.0,0.0,0.0,0.0,0.0,0.1239,1.0157,0.0744,0.6069,0.5541,-0.4586,-0.3381
876,0.0,0.0,0.0,0.0,0.0,0.0,0.1179,1.0115,0.0716,0.6068,0.5554,-0.4585,-0.3363
877,0.0,0.0,0.0,0.0,0.0,0.0,0.1299,1.0019,0.0673,0.6069,0.5563,-0.4582,-0.3350
878,0.0,0.0,0.0,0.0,0.0,0.0,0.1356,0.9960,0.0625,0.6073,0.5568,-0.4581,-0.3337
879,0.0,0.0,0.0,0.0,0.0,0.0,0.1328,0.9985,0.0625,0.6072,0.5576,-0.4584,-0.3321
880,0.0,0.0,0.0,0.0,0.0,0.0,0.1361,0.9974,0.0668,0.6072,0.5584,-0.4585,-0.3305
881,0.0,0.0,0.0,0.0,0.0,0.0,0.1395,0.9953,0.0696,0.6076,0.5586,-0.4587,-0.3293
882,0.0,0.0,0.0,0.0,0.0,0.0,0.1425,0.9961,0.0743,0.6078,0.5584,-0.4591,-0.3287
883,0.0,0.0,0.0,0.0,0.0,0.0,0.1488,0.9943,0.0799,0.6087,0.5577,-0.4590,-0.3283
884,0.0,0.0,0.0,0.0,0.0,0.0,0.1502,0.9934,0.0738,0.6091,0.5569,-0.4592,-0.3286
885,0.0,0.0,0.0,0.0,0.0,0.0,0.1550,0.9902,0.0832,0.6092,0.5563,-0.4596,-0.3289
886,0.0,0.0,0.0,0.0,0.0,0.0,0.1585,0.9939,0.0879,0.6095,0.5557,-0.4598,-0.3290
887,0.0,0.0,0.0,0.0,0.0,0.0,0.1614,0.9899,0.0903,0.6099,0.5549,-0.4600,-0.3294
888,0.0,0.0,0.0,0.0,0.0,0.0,0.1597,0.9845,0.0912,0.6103,0.5544,-0.4600,-0.3295
889,0.0,0.0,0.0,0.0,0.0,0.0,0.1563,0.9861,0.0954,0.6109,0.5533,-0.4599,-0.3304
890,0.0,0.0,0.0,0.0,0.0,0.0,0.1532,0.9793,0.0982,0.6116,0.5518,-0.4599,-0.3315
891,0.0,0.0,0.0,0.0,0.0,0.0,0.1477,0.9741,0.0986,0.6120,0.5507,-0.4600,-0.3324
892,0.0,0.0,0.0,0.0,0.0,0.0,0.1393,0.9723,0.1014,0.6123,0.5499,-0.4600,-0.3333
893,0.0,0.0,0.0,0.0,0.0,0.0,0.1369,0.9752,0.1089,0.6121,0.5497,-0.4602,-0.3335
894,0.0,0.0,0.0,0.0,0.0,0.0,0.1342,0.9816,0.1123,0.6119,0.5493,-0.4606,-0.3342
895,0.0,0.0,0.0,0.0,0.0,0.0,0.1313,0.9841,0.1114,0.6118,0.5477,-0.4612,-0.3363
896,0.0,0.0,0.0,0.0,0.0,0.0,0.1367,0.9849,0.1166,0.6115,0.5462,-0.4618,-0.3383
897,0.0,0.0,0.0,0.0,0.0,0.0,0.1368,0.9869,0.1086,0.6115,0.5445,-0.4625,-0.3401
898,0.0,0.0,0.0,0.0,0.0,0.0,0.1471,0.9891,0.1029,0.6112,0.5429,-0.4635,-0.3419
899,0.0,0.0,0.0,0.0,0.0,0.0,0.2788,0.9881,0.1021,0.6112,0.5404,-0.4656,-0.3429
900,0.0,0.0,0.0,0.0,0.0,0.0,0.1570,0.9923,0.1020,0.6106,0.5390,-0.4669,-0.3444
901,0.0,0.0,0.0,0.0,0.0,0.0,0.1621,0.9994,0.1068,0.6099,0.5378,-0.4681,-0.3460
902,0.0,0.0,0.0,0.0,0.0,0.0,0.1656,1.0036,0.1125,0.6098,0.5356,-0.4687,-0.3487
903,0.0,0.0,0.0,0.0,0.0,0.0,0.1715,1.0034,0.1111,0.6096,0.5342,-0.4692,-0.3506
904,0.0,0.0,0.0,0.0,0.0,0.0,0.1733,0.9990,0.1063,0.6091,0.5334,-0.4697,-0.3519
905,0.0,0.0,0.0,0.0,0.0,0.0,0.1797,0.9983,0.1078,0.6095,0.5313,-0.4696,-0.3545
906,0.0,0.0,0.0,0.0,0.0,0.0,0.1789,0.9882,0.1011,0.6097,0.5299,-0.4696,-0.3562
907,0.0,0.0,0.0,0.0,0.0,0.0,0.1786,0.9775,0.0982,0.6096,0.5286,-0.4700,-0.3580
908,0.0,0.0,0.0,0.0,0.0,0.0,0.1805,0.9741,0.0967,0.6100,0.5267,-0.4700,-0.3600
909,0.0,0.0,0.0,0.0,0.0,0.0,0.1756,0.9728,0.0953,0.6096,0.5269,-0.4703,-0.3600
910,0.0,0.0,0.0,0.0,0.0,0.0,0.1765,0.9732,0.0977,0.6091,0.5274,-0.4708,-0.3595
911,0.0,0.0,0.0,0.0,0.0,0.0,0.1861,0.9660,0.0990,0.6095,0.5263,-0.4711,-0.3600
912,0.0,0.0,0.0,0.0,0.0,0.0,0.1901,0.9480,0.0890,0.6098,0.5254,-0.4717,-0.3599
913,0.0,0.0,0.0,0.0,0.0,0.0,0.1965,0.9166,0.0845,0.6108,0.5223,-0.4732,-0.3608
914,0.0,0.0,0.0,0.0,0.0,0.0,0.1898,0.9561,0.1037,0.6118,0.5201,-0.4748,-0.3602
915,0.0,0.0,0.0,0.0,0.0,0.0,0.1866,0.9479,0.1003,0.6118,0.5202,-0.4768,-0.3575
916,0.0,0.0,0.0,0.0,0.0,0.0,0.1894,0.9425,0.0965,0.6122,0.5190,-0.4788,-0.3558
917,0.0,0.0,0.0,0.0,0.0,0.0,0.1904,0.9440,0.0932,0.6126,0.5178,-0.4807,-0.3543
918,0.0,0.0,0.0,0.0,0.0,0.0,0.2013,0.9476,0.0946,0.6124,0.5167,-0.4834,-0.3526
919,0.0,0.0,0.0,0.0,0.0,0.0,0.1974,0.9680,0.1080,0.6127,0.5154,-0.4857,-0.3509
920,0.0,0.0,0.0,0.0,0.0,0.0,0.1760,0.9906,0.1072,0.6127,0.5154,-0.4872,-0.3488
921,0.0,0.0,0.0,0.0,0.0,0.0,0.1719,0.9990,0.1110,0.6119,0.5162,-0.4885,-0.3471
922,0.0,0.0,0.0,0.0,0.0,0.0,0.1758,1.0013,0.1120,0.6112,0.5169,-0.4894,-0.3460
923,0.0,0.0,0.0,0.0,0.0,0.0,0.1813,1.0212,0.1141,0.6102,0.5184,-0.4898,-0.3450
924,0.0,0.0,0.0,0.0,0.0,0.0,0.1885,1.0351,0.1123,0.6092,0.5194,-0.4899,-0.3451
925,0.0,0.0,0.0,0.0,0.0,0.0,0.1896,1.0206,0.1051,0.6088,0.5197,-0.4892,-0.3464
926,0.0,0.0,0.0,0.0,0.0,0.0,0.1952,1.0117,0.1008,0.6082,0.5207,-0.4882,-0.3475
927,0.0,0.0,0.0,0.0,0.0,0.0,0.1915,1.0190,0.1046,0.6074,0.5222,-0.4869,-0.3483
928,0.0,0.0,0.0,0.0,0.0,0.0,0.1871,1.0192,0.1027,0.6067,0.5234,-0.4853,-0.3499
929,0.0,0.0,0.0,0.0,0.0,0.0,0.1870,0.9954,0.0960,0.6067,0.5234,-0.4833,-0.3528
930,0.0,0.0,0.0,0.0,0.0,0.0,0.1845,0.9949,0.0974,0.6067,0.5235,-0.4813,-0.3553
931,0.0,0.0,0.0,0.0,0.0,0.0,0.1754,1.0020,0.1031,0.6062,0.5246,-0.4794,-0.3571
932,0.0,0.0,0.0,0.0,0.0,0.0,0.1641,0.9998,0.1063,0.6060,0.5248,-0.4772,-0.3601
933,0.0,0.0,0.0,0.0,0.0,0.0,0.1612,0.9851,0.1128,0.6067,0.5239,-0.4744,-0.3640
934,0.0,0.0,0.0,0.0,0.0,0.0,0.1624,0.9764,0.1085,0.6067,0.5244,-0.4721,-0.3662
935,0.0,0.0,0.0,0.0,0.0,0.0,0.1591,0.9628,0.1084,0.6066,0.5246,-0.4706,-0.3679
936,0.0,0.0,0.0,0.0,0.0,0.0,0.1576,0.9608,0.1126,0.6071,0.5232,-0.4690,-0.3710
937,0.0,0.0,0.0,0.0,0.0,0.0,0.1589,0.9371,0.0945,0.6072,0.5229,-0.4685,-0.3721
938,0.0,0.0,0.0,0.0,0.0,0.0,0.1490,0.9326,0.0907,0.6067,0.5230,-0.4692,-0.3718
939,0.0,0.0,0.0,0.0,0.0,0.0,0.1555,0.9367,0.0959,0.6065,0.5223,-0.4704,-0.3716
940,0.0,0.0,0.0,0.0,0.0,0.0,0.1657,0.9340,0.0931,0.6061,0.5217,-0.4723,-0.3706
941,0.0,0.0,0.0,0.0,0.0,0.0,0.1748,0.9459,0.0951,0.6052,0.5216,-0.4750,-0.3688
942,0.0,0.0,0.0,0.0,0.0,0.0,0.1843,0.9514,0.0998,0.6049,0.5198,-0.4780,-0.3681
943,0.0,0.0,0.0,0.0,0.0,0.0,0.1941,0.9521,0.0984,0.6044,0.5178,-0.4815,-0.3672
944,0.0,0.0,0.0,0.0,0.0,0.0,0.1962,0.9579,0.1013,0.6038,0.5155,-0.4853,-0.3663
945,0.0,0.0,0.0,0.0,0.0,0.0,0.2035,0.9562,0.1032,0.6035,0.5127,-0.4891,-0.3656
946,0.0,0.0,0.0,0.0,0.0,0.0,0.2056,0.9440,0.0989,0.6034,0.5101,-0.4929,-0.3644
947,0.0,0.0,0.0,0.0,0.0,0.0,0.2096,0.9473,0.0989,0.6035,0.5071,-0.4967,-0.3633
948,0.0,0.0,0.0,0.0,0.0,0.0,0.2076,0.9615,0.0999,0.6029,0.5046,-0.5009,-0.3620
949,0.0,0.0,0.0,0.0,0.0,0.0,0.2174,0.9621,0.1023,0.6017,0.5021,-0.5054,-0.3611
950,0.0,0.0,0.0,0.0,0.0,0.0,0.2255,0.9730,0.1071,0.6008,0.4994,-0.5097,-0.3604
951,0.0,0.0,0.0,0.0,0.0,0.0,0.2241,0.9926,0.1101,0.5995,0.4975,-0.5136,-0.3595
952,0.0,0.0,0.0,0.0,0.0,0.0,0.2365,0.9985,0.1120,0.5983,0.4956,-0.5171,-0.3591
953,0.0,0.0,0.0,0.0,0.0,0.0,0.2457,1.0118,0.1183,0.5972,0.4942,-0.5200,-0.3588
954,0.0,0.0,0.0,0.0,0.0,0.0,0.2496,1.0132,0.1187,0.5961,0.4943,-0.5220,-0.3576
955,0.0,0.0,0.0,0.0,0.0,0.0,0.2591,1.0027,0.1135,0.5948,0.4949,-0.5235,-0.3565
956,0.0,0.0,0.0,0.0,0.0,0.0,0.2692,0.9965,0.1134,0.5943,0.4951,-0.5243,-0.3561
957,0.0,0.0,0.0,0.0,0.0,0.0,0.2694,1.0029,0.1121,0.5947,0.4947,-0.5240,-0.3563
958,0.0,0.0,0.0,0.0,0.0,0.0,0.2576,1.0019,0.1074,0.5948,0.4944,-0.5238,-0.3569
959,0.0,0.0,0.0,0.0,0.0,0.0,0.2466,0.9924,0.1082,0.5949,0.4952,-0.5231,-0.3567
960,0.0,0.0,0.0,0.0,0.0,0.0,0.2330,0.9802,0.1043,0.5955,0.4959,-0.5218,-0.3567
961,0.0,0.0,0.0,0.0,0.0,0.0,0.2222,0.9771,0.1038,0.5956,0.4971,-0.5205,-0.3566
962,0.0,0.0,0.0,0.0,0.0,0.0,0.2147,0.9715,0.1028,0.5959,0.4988,-0.5190,-0.3561
963,0.0,0.0,0.0,0.0,0.0,0.0,0.2074,0.9732,0.0977,0.5969,0.4992,-0.5170,-0.3567
964,0.0,0.0,0.0,0.0,0.0,0.0,0.1975,0.9707,0.0911,0.5973,0.5003,-0.5152,-0.3571
965,0.0,0.0,0.0,0.0,0.0,0.0,0.1915,0.9651,0.0863,0.5973,0.5021,-0.5137,-0.3568
966,0.0,0.0,0.0,0.0,0.0,0.0,0.1841,0.9635,0.0783,0.5973,0.5035,-0.5122,-0.3568
967,0.0,0.0,0.0,0.0,0.0,0.0,0.1791,0.9744,0.0784,0.5971,0.5050,-0.5109,-0.3569
968,0.0,0.0,0.0,0.0,0.0,0.0,0.1791,0.9764,0.0756,0.5969,0.5060,-0.5098,-0.3573
969,0.0,0.0,0.0,0.0,0.0,0.0,0.1776,0.9760,0.0718,0.5963,0.5077,-0.5091,-0.3571
970,0.0,0.0,0.0,0.0,0.0,0.0,0.1836,0.9787,0.0723,0.5947,0.5079,-0.5097,-0.3585
971,0.0,0.0,0.0,0.0,0.0,0.0,0.1907,0.9693,0.0680,0.5946,0.5079,-0.5093,-0.3594
972,0.0,0.0,0.0,0.0,0.0,0.0,0.1970,0.9672,0.0651,0.5944,0.5080,-0.5092,-0.3596
973,0.0,0.0,0.0,0.0,0.0,0.0,0.2021,0.9734,0.0633,0.5939,0.5082,-0.5094,-0.3598
974,0.0,0.0,0.0,0.0,0.0,0.0,0.2041,0.9744,0.0629,0.5932,0.5090,-0.5097,-0.3595
975,0.0,0.0,0.0,0.0,0.0,0.0,0.2179,0.9779,0.0629,0.5925,0.5102,-0.5101,-0.3584
976,0.0,0.0,0.0,0.0,0.0,0.0,0.2288,0.9828,0.0681,0.5923,0.5106,-0.5101,-0.3581
977,0.0,0.0,0.0,0.0,0.0,0.0,0.2277,0.9979,0.0739,0.5923,0.5113,-0.5099,-0.3575
978,0.0,0.0,0.0,0.0,0.0,0.0,0.2181,1.0060,0.0735,0.5921,0.5123,-0.5094,-0.3570
979,0.0,0.0,0.0,0.0,0.0,0.0,0.2130,0.9974,0.0692,0.5920,0.5132,-0.5086,-0.3571
980,0.0,0.0,0.0,0.0,0.0,0.0,0.2123,0.9897,0.0682,0.5917,0.5150,-0.5077,-0.3564
981,0.0,0.0,0.0,0.0,0.0,0.0,0.2074,0.9722,0.0708,0.5918,0.5159,-0.5068,-0.3560
982,0.0,0.0,0.0,0.0,0.0,0.0,0.2115,0.9608,0.0726,0.5923,0.5165,-0.5060,-0.3555
983,0.0,0.0,0.0,0.0,0.0,0.0,0.2072,0.9307,0.0696,0.5924,0.5171,-0.5060,-0.3544
984,0.0,0.0,0.0,0.0,0.0,0.0,0.1875,0.9604,0.0801,0.5931,0.5173,-0.5056,-0.3535
985,0.0,0.0,0.0,0.0,0.0,0.0,0.1736,0.9526,0.0796,0.5940,0.5173,-0.5050,-0.3528
986,0.0,0.0,0.0,0.0,0.0,0.0,0.1676,0.9692,0.0891,0.5944,0.5174,-0.5048,-0.3524
987,0.0,0.0,0.0,0.0,0.0,0.0,0.1643,0.9722,0.0911,0.5943,0.5172,-0.5049,-0.3526
988,0.0,0.0,0.0,0.0,0.0,0.0,0.1725,0.9695,0.0896,0.5938,0.5179,-0.5053,-0.3519
989,0.0,0.0,0.0,0.0,0.0,0.0,0.1805,0.9752,0.0878,0.5935,0.5184,-0.5058,-0.3511
990,0.0,0.0,0.0,0.0,0.0,0.0,0.1925,0.9836,0.0883,0.5932,0.5187,-0.5063,-0.3503
991,0.0,0.0,0.0,0.0,0.0,0.0,0.1993,0.9980,0.0894,0.5930,0.5193,-0.5066,-0.3494
992,0.0,0.0,0.0,0.0,0.0,0.0,0.1999,1.0020,0.0847,0.5930,0.5197,-0.5067,-0.3486
993,0.0,0.0,0.0,0.0,0.0,0.0,0.2023,1.0000,0.0805,0.5929,0.5197,-0.5068,-0.3487
994,0.0,0.0,0.0,0.0,0.0,0.0,0.2000,1.0050,0.0819,0.5930,0.5191,-0.5065,-0.3496
995,0.0,0.0,0.0,0.0,0.0,0.0,0.1984,1.0177,0.0844,0.5932,0.5193,-0.5060,-0.3498
996,0.0,0.0,0.0,0.0,0.0,0.0,0.1929,1.0130,0.0810,0.5934,0.5197,-0.5051,-0.3503
997,0.0,0.0,0.0,0.0,0.0,0.0,0.1907,1.0048,0.0782,0.5937,0.5200,-0.5038,-0.3512
998,0.0,0.0,0.0,0.0,0.0,0.0,0.2007,0.9958,0.0753,0.5939,0.5209,-0.5024,-0.3514
999,0.0,0.0,0.0,0.0,0.0,0.0,0.2001,0.9909,0.0762,0.5941,0.5216,-0.5010,-0.3521
1000,0.0,0.0,0.0,0.0,0.0,0.0,0.2002,0.9787,0.0756,0.5947,0.5213,-0.4994,-0.3537
1001,0.0,0.0,0.0,0.0,0.0,0.0,0.1959,0.9632,0.0736,0.5952,0.5204,-0.4982,-0.3559
1002,0.0,0.0,0.0,0.0,0.0,0.0,0.1963,0.9596,0.0839,0.5959,0.5192,-0.4970,-0.3581
1003,0.0,0.0,0.0,0.0,0.0,0.0,0.1912,0.9534,0.0829,0.5970,0.5181,-0.4957,-0.3599
1004,0.0,0.0,0.0,0.0,0.0,0.0,0.1895,0.9437,0.0819,0.5976,0.5165,-0.4950,-0.3619
1005,0.0,0.0,0.0,0.0,0.0,0.0,0.1869,0.9389,0.0837,0.5978,0.5158,-0.4950,-0.3627
1006,0.0,0.0,0.0,0.0,0.0,0.0,0.1839,0.9380,0.0842,0.5974,0.5161,-0.4957,-0.3621
1007,0.0,0.0,0.0,0.0,0.0,0.0,0.1855,0.9443,0.0875,0.5970,0.5160,-0.4966,-0.3615
1008,0.0,0.0,0.0,0.0,0.0,0.0,0.1858,0.9549,0.0909,0.5969,0.5155,-0.4977,-0.3609
1009,0.0,0.0,0.0,0.0,0.0,0.0,0.1858,0.9725,0.0948,0.5968,0.5145,-0.4987,-0.3610
1010,0.0,0.0,0.0,0.0,0.0,0.0,0.1852,0.9667,0.0906,0.5964,0.5141,-0.4998,-0.3608
1011,0.0,0.0,0.0,0.0,0.0,0.0,0.1861,0.9628,0.0896,0.5959,0.5151,-0.5010,-0.3587
1012,0.0,0.0,0.0,0.0,0.0,0.0,0.1889,0.9759,0.0897,0.5959,0.5149,-0.5019,-0.3576
1013,0.0,0.0,0.0,0.0,0.0,0.0,0.1836,0.9800,0.0883,0.5960,0.5144,-0.5028,-0.3568
1014,0.0,0.0,0.0,0.0,0.0,0.0,0.1751,0.9909,0.0907,0.5955,0.5148,-0.5040,-0.3554
1015,0.0,0.0,0.0,0.0,0.0,0.0,0.1775,1.0088,0.0989,0.5954,0.5153,-0.5046,-0.3540
1016,0.0,0.0,0.0,0.0,0.0,0.0,0.1792,1.0142,0.0971,0.5958,0.5154,-0.5044,-0.3536
1017,0.0,0.0,0.0,0.0,0.0,0.0,0.1746,1.0070,0.0937,0.5959,0.5157,-0.5039,-0.3537
1018,0.0,0.0,0.0,0.0,0.0,0.0,0.1749,1.0031,0.0908,0.5960,0.5161,-0.5032,-0.3538
1019,0.0,0.0,0.0,0.0,0.0,0.0,0.1764,1.0017,0.0899,0.5965,0.5162,-0.5022,-0.3543
1020,0.0,0.0,0.0,0.0,0.0,0.0,0.1733,1.0154,0.0924,0.5966,0.5169,-0.5014,-0.3542
1021,0.0,0.0,0.0,0.0,0.0,0.0,0.1664,1.0136,0.0919,0.5969,0.5174,-0.5001,-0.3549
1022,0.0,0.0,0.0,0.0,0.0,0.0,0.1540,1.0045,0.0725,0.5964,0.5178,-0.4990,-0.3565
1023,0.0,0.0,0.0,0.0,0.0,0.0,0.1072,1.0277,0.0227,0.5883,0.5190,-0.5026,-0.3633
1024,0.0,0.0,0.0,0.0,0.0,0.0,0.0725,0.9469,0.0724,0.5764,0.5191,-0.5080,-0.3744
1025,0.0,0.0,0.0,0.0,0.0,0.0,0.2286,0.9790,0.1255,0.5777,0.5149,-0.5083,-0.3779
1026,0.0,0.0,0.0,0.0,0.0,0.0,0.2657,1.0474,0.1171,0.5801,0.5130,-0.5073,-0.3781
1027,0.0,0.0,0.0,0.0,0.0,0.0,0.2554,1.0460,0.1336,0.5861,0.5145,-0.5021,-0.3736
1028,0.0,0.0,0.0,0.0,0.0,0.0,0.0478,1.0056,0.0517,0.5898,0.5225,-0.4947,-0.3668
1029,0.0,0.0,0.0,0.0,0.0,0.0,0.0967,0.9702,0.0364,0.5888,0.5287,-0.4914,-0.3638
1030,0.0,0.0,0.0,0.0,0.0,0.0,0.1588,0.9684,0.0623,0.5873,0.5328,-0.4896,-0.3627
1031,0.0,0.0,0.0,0.0,0.0,0.0,0.1558,0.9471,0.0584,0.5857,0.5357,-0.4883,-0.3627
1032,0.0,0.0,0.0,0.0,0.0,0.0,0.1558,0.9465,0.0645,0.5846,0.5374,-0.4875,-0.3630
1033,0.0,0.0,0.0,0.0,0.0,0.0,0.1679,0.9606,0.0726,0.5838,0.5395,-0.4867,-0.3622
1034,0.0,0.0,0.0,0.0,0.0,0.0,0.1623,0.9711,0.0717,0.5835,0.5410,-0.4856,-0.3620
1035,0.0,0.0,0.0,0.0,0.0,0.0,0.1732,0.9567,0.0646,0.5836,0.5423,-0.4846,-0.3614
1036,0.0,0.0,0.0,0.0,0.0,0.0,0.1738,0.9420,0.0640,0.5844,0.5434,-0.4836,-0.3595
1037,0.0,0.0,0.0,0.0,0.0,0.0,0.1545,0.9880,0.0686,0.5860,0.5446,-0.4819,-0.3574
1038,0.0,0.0,0.0,0.0,0.0,0.0,0.1586,0.9791,0.0666,0.5877,0.5462,-0.4800,-0.3548
1039,0.0,0.0,0.0,0.0,0.0,0.0,0.1587,0.9811,0.0605,0.5893,0.5482,-0.4781,-0.3517
1040,0.0,0.0,0.0,0.0,0.0,0.0,0.1656,0.9818,0.0662,0.5910,0.5499,-0.4764,-0.3484
1041,0.0,0.0,0.0,0.0,0.0,0.0,0.1684,0.9793,0.0633,0.5938,0.5507,-0.4746,-0.3448
1042,0.0,0.0,0.0,0.0,0.0,0.0,0.1485,0.9655,0.0500,0.5957,0.5519,-0.4732,-0.3416
1043,0.0,0.0,0.0,0.0,0.0,0.0,0.1590,0.9919,0.0568,0.5967,0.5535,-0.4723,-0.3384
1044,0.0,0.0,0.0,0.0,0.0,0.0,0.1519,0.9829,0.0544,0.5981,0.5554,-0.4712,-0.3344
1045,0.0,0.0,0.0,0.0,0.0,0.0,0.1437,0.9861,0.0511,0.5997,0.5572,-0.4697,-0.3306
1046,0.0,0.0,0.0,0.0,0.0,0.0,0.1389,0.9907,0.0502,0.6007,0.5598,-0.4685,-0.3261
1047,0.0,0.0,0.0,0.0,0.0,0.0,0.1322,0.9772,0.0492,0.6019,0.5621,-0.4670,-0.3219
1048,0.0,0.0,0.0,0.0,0.0,0.0,0.1272,0.9570,0.0382,0.6038,0.5626,-0.4657,-0.3194
1049,0.0,0.0,0.0,0.0,0.0,0.0,0.1263,0.9589,0.0424,0.6053,0.5626,-0.4654,-0.3169
1050,0.0,0.0,0.0,0.0,0.0,0.0,0.1243,0.9751,0.0454,0.6068,0.5623,-0.4657,-0.3142
1051,0.0,0.0,0.0,0.0,0.0,0.0,0.1336,0.9743,0.0459,0.6080,0.5617,-0.4666,-0.3117
1052,0.0,0.0,0.0,0.0,0.0,0.0,0.1426,0.9827,0.0521,0.6091,0.5603,-0.4680,-0.3097
1053,0.0,0.0,0.0,0.0,0.0,0.0,0.1488,0.9927,0.0568,0.6099,0.5591,-0.4699,-0.3076
1054,0.0,0.0,0.0,0.0,0.0,0.0,0.1592,1.0177,0.0660,0.6102,0.5586,-0.4720,-0.3045
1055,0.0,0.0,0.0,0.0,0.0,0.0,0.1676,1.0387,0.0770,0.6108,0.5576,-0.4740,-0.3022
1056,0.0,0.0,0.0,0.0,0.0,0.0,0.1718,1.0307,0.0816,0.6121,0.5552,-0.4756,-0.3016
1057,0.0,0.0,0.0,0.0,0.0,0.0,0.1769,1.0193,0.0816,0.6133,0.5524,-0.4769,-0.3021
1058,0.0,0.0,0.0,0.0,0.0,0.0,0.1848,1.0030,0.0795,0.6147,0.5490,-0.4780,-0.3038
1059,0.0,0.0,0.0,0.0,0.0,0.0,0.1934,0.9964,0.0819,0.6159,0.5457,-0.4788,-0.3059
1060,0.0,0.0,0.0,0.0,0.0,0.0,0.2015,0.9887,0.0865,0.6172,0.5425,-0.4791,-0.3085
1061,0.0,0.0,0.0,0.0,0.0,0.0,0.2031,0.9774,0.0883,0.6187,0.5385,-0.4792,-0.3124
1062,0.0,0.0,0.0,0.0,0.0,0.0,0.2015,0.9901,0.0936,0.6199,0.5350,-0.4791,-0.3161
1063,0.0,0.0,0.0,0.0,0.0,0.0,0.2045,0.9919,0.0978,0.6206,0.5326,-0.4786,-0.3195
1064,0.0,0.0,0.0,0.0,0.0,0.0,0.2138,0.9745,0.0982,0.6216,0.5300,-0.4779,-0.3231
1065,0.0,0.0,0.0,0.0,0.0,0.0,0.2028,0.9670,0.1000,0.6223,0.5277,-0.4773,-0.3261
1066,0.0,0.0,0.0,0.0,0.0,0.0,0.2000,0.9888,0.1138,0.6227,0.5262,-0.4767,-0.3288
1067,0.0,0.0,0.0,0.0,0.0,0.0,0.1881,1.0017,0.1243,0.6231,0.5244,-0.4756,-0.3324
1068,0.0,0.0,0.0,0.0,0.0,0.0,0.1832,0.9668,0.1174,0.6233,0.5231,-0.4743,-0.3360
1069,0.0,0.0,0.0,0.0,0.0,0.0,0.1903,0.9389,0.1068,0.6230,0.5227,-0.4733,-0.3386
1070,0.0,0.0,0.0,0.0,0.0,0.0,0.1849,0.9746,0.1203,0.6228,0.5220,-0.4723,-0.3413
1071,0.0,0.0,0.0,0.0,0.0,0.0,0.1672,0.9746,0.1221,0.6229,0.5217,-0.4706,-0.3439
1072,0.0,0.0,0.0,0.0,0.0,0.0,0.1715,0.9687,0.1164,0.6221,0.5223,-0.4693,-0.3464
1073,0.0,0.0,0.0,0.0,0.0,0.0,0.1751,0.9735,0.1127,0.6212,0.5226,-0.4685,-0.3487
1074,0.0,0.0,0.0,0.0,0.0,0.0,0.1716,0.9726,0.1132,0.6205,0.5227,-0.4678,-0.3505
1075,0.0,0.0,0.0,0.0,0.0,0.0,0.1746,0.9740,0.1137,0.6196,0.5240,-0.4671,-0.3511
1076,0.0,0.0,0.0,0.0,0.0,0.0,0.1777,0.9613,0.1060,0.6188,0.5249,-0.4669,-0.3516
1077,0.0,0.0,0.0,0.0,0.0,0.0,0.1718,0.9615,0.1027,0.6180,0.5258,-0.4669,-0.3516
1078,0.0,0.0,0.0,0.0,0.0,0.0,0.1617,0.9852,0.1081,0.6175,0.5268,-0.4666,-0.3513
1079,0.0,0.0,0.0,0.0,0.0,0.0,0.1526,0.9748,0.1066,0.6167,0.5285,-0.4661,-0.3509
1080,0.0,0.0,0.0,0.0,0.0,0.0,0.1568,0.9674,0.1004,0.6162,0.5299,-0.4655,-0.3504
1081,0.0,0.0,0.0,0.0,0.0,0.0,0.1554,0.9704,0.0957,0.6157,0.5312,-0.4650,-0.3501
1082,0.0,0.0,0.0,0.0,0.0,0.0,0.1540,0.9705,0.0939,0.6148,0.5331,-0.4647,-0.3491
1083,0.0,0.0,0.0,0.0,0.0,0.0,0.1531,0.9759,0.0915,0.6136,0.5358,-0.4644,-0.3474
1084,0.0,0.0,0.0,0.0,0.0,0.0,0.1511,0.9732,0.0849,0.6124,0.5387,-0.4641,-0.3457
1085,0.0,0.0,0.0,0.0,0.0,0.0,0.1464,0.9792,0.0831,0.6111,0.5417,-0.4637,-0.3437
1086,0.0,0.0,0.0,0.0,0.0,0.0,0.1435,0.9974,0.0837,0.6100,0.5444,-0.4632,-0.3419
1087,0.0,0.0,0.0,0.0,0.0,0.0,0.1434,0.9775,0.0737,0.6093,0.5461,-0.4628,-0.3411
1088,0.0,0.0,0.0,0.0,0.0,0.0,0.1532,0.9593,0.0599,0.6082,0.5484,-0.4628,-0.3393
1089,0.0,0.0,0.0,0.0,0.0,0.0,0.1624,0.9732,0.0581,0.6069,0.5513,-0.4636,-0.3360
1090,0.0,0.0,0.0,0.0,0.0,0.0,0.1490,1.0185,0.0627,0.6057,0.5534,-0.4644,-0.3334
1091,0.0,0.0,0.0,0.0,0.0,0.0,0.1419,1.0270,0.0637,0.6051,0.5554,-0.4644,-0.3312
1092,0.0,0.0,0.0,0.0,0.0,0.0,0.1460,0.9978,0.0494,0.6044,0.5577,-0.4643,-0.3289
1093,0.0,0.0,0.0,0.0,0.0,0.0,0.1541,0.9912,0.0474,0.6037,0.5596,-0.4645,-0.3265
1094,0.0,0.0,0.0,0.0,0.0,0.0,0.1635,0.9934,0.0470,0.6037,0.5609,-0.4648,-0.3240
1095,0.0,0.0,0.0,0.0,0.0,0.0,0.1716,0.9679,0.0355,0.6033,0.5620,-0.4658,-0.3212
1096,0.0,0.0,0.0,0.0,0.0,0.0,0.1862,0.9650,0.0383,0.6033,0.5617,-0.4675,-0.3193
1097,0.0,0.0,0.0,0.0,0.0,0.0,0.1756,0.9366,0.0357,0.6047,0.5600,-0.4686,-0.3179
1098,0.0,0.0,0.0,0.0,0.0,0.0,0.1800,0.9715,0.0426,0.6055,0.5595,-0.4702,-0.3150
1099,0.0,0.0,0.0,0.0,0.0,0.0,0.1779,1.0026,0.0537,0.6060,0.5587,-0.4721,-0.3128
1100,0.0,0.0,0.0,0.0,0.0,0.0,0.1754,1.0012,0.0593,0.6066,0.5577,-0.4734,-0.3112
1101,0.0,0.0,0.0,0.0,0.0,0.0,0.1890,1.0124,0.0622,0.6073,0.5574,-0.4744,-0.3089
1102,0.0,0.0,0.0,0.0,0.0,0.0,0.2016,0.9916,0.0588,0.6078,0.5569,-0.4757,-0.3069
1103,0.0,0.0,0.0,0.0,0.0,0.0,0.2178,0.9769,0.0610,0.6084,0.5557,-0.4770,-0.3057
1104,0.0,0.0,0.0,0.0,0.0,0.0,0.2254,0.9844,0.0658,0.6096,0.5544,-0.4777,-0.3048
1105,0.0,0.0,0.0,0.0,0.0,0.0,0.2241,0.9548,0.0547,0.6097,0.5541,-0.4788,-0.3032
1106,0.0,0.0,0.0,0.0,0.0,0.0,0.2265,0.9548,0.0533,0.6097,0.5543,-0.4800,-0.3010
1107,0.0,0.0,0.0,0.0,0.0,0.0,0.2248,0.9626,0.0548,0.6099,0.5540,-0.4810,-0.2996
1108,0.0,0.0,0.0,0.0,0.0,0.0,0.2264,0.9694,0.0572,0.6099,0.5544,-0.4816,-0.2977
1109,0.0,0.0,0.0,0.0,0.0,0.0,0.2241,0.9725,0.0516,0.6095,0.5555,-0.4822,-0.2957
1110,0.0,0.0,0.0,0.0,0.0,0.0,0.2247,0.9769,0.0502,0.6094,0.5559,-0.4825,-0.2946
1111,0.0,0.0,0.0,0.0,0.0,0.0,0.2266,0.9725,0.0421,0.6094,0.5569,-0.4823,-0.2930
1112,0.0,0.0,0.0,0.0,0.0,0.0,0.2276,0.9750,0.0370,0.6093,0.5584,-0.4819,-0.2910
1113,0.0,0.0,0.0,0.0,0.0,0.0,0.2270,0.9873,0.0361,0.6094,0.5590,-0.4817,-0.2900
1114,0.0,0.0,0.0,0.0,0.0,0.0,0.2200,0.9997,0.0386,0.6093,0.5599,-0.4817,-0.2884
1115,0.0,0.0,0.0,0.0,0.0,0.0,0.2105,1.0102,0.0396,0.6091,0.5616,-0.4813,-0.2863
1116,0.0,0.0,0.0,0.0,0.0,0.0,0.2126,1.0165,0.0401,0.6097,0.5623,-0.4803,-0.2853
1117,0.0,0.0,0.0,0.0,0.0,0.0,0.2006,1.0071,0.0401,0.6109,0.5621,-0.4792,-0.2850
1118,0.0,0.0,0.0,0.0,0.0,0.0,0.1952,1.0086,0.0429,0.6120,0.5624,-0.4775,-0.2850
1119,0.0,0.0,0.0,0.0,0.0,0.0,0.1914,0.9932,0.0395,0.6126,0.5622,-0.4767,-0.2852
1120,0.0,0.0,0.0,0.0,0.0,0.0,0.1920,0.9969,0.0489,0.6134,0.5616,-0.4760,-0.2859
1121,0.0,0.0,0.0,0.0,0.0,0.0,0.1953,0.9938,0.0527,0.6146,0.5609,-0.4749,-0.2867
1122,0.0,0.0,0.0,0.0,0.0,0.0,0.1920,0.9802,0.0544,0.6160,0.5595,-0.4738,-0.2881
1123,0.0,0.0,0.0,0.0,0.0,0.0,0.1917,0.9874,0.0634,0.6172,0.5579,-0.4728,-0.2901
1124,0.0,0.0,0.0,0.0,0.0,0.0,0.1988,0.9784,0.0666,0.6185,0.5565,-0.4718,-0.2919
1125,0.0,0.0,0.0,0.0,0.0,0.0,0.2005,0.9705,0.0689,0.6199,0.5544,-0.4709,-0.2943
1126,0.0,0.0,0.0,0.0,0.0,0.0,0.1988,0.9797,0.0751,0.6209,0.5523,-0.4703,-0.2970
1127,0.0,0.0,0.0,0.0,0.0,0.0,0.2039,0.9678,0.0755,0.6215,0.5513,-0.4694,-0.2991
1128,0.0,0.0,0.0,0.0,0.0,0.0,0.2063,0.9678,0.0746,0.6221,0.5501,-0.4687,-0.3011
1129,0.0,0.0,0.0,0.0,0.0,0.0,0.2064,0.9697,0.0755,0.6227,0.5489,-0.4679,-0.3033
1130,0.0,0.0,0.0,0.0,0.0,0.0,0.2122,0.9705,0.0788,0.6233,0.5480,-0.4669,-0.3051
1131,0.0,0.0,0.0,0.0,0.0,0.0,0.2130,0.9821,0.0850,0.6240,0.5471,-0.4659,-0.3070
1132,0.0,0.0,0.0,0.0,0.0,0.0,0.2072,0.9846,0.0869,0.6244,0.5463,-0.4650,-0.3090
1133,0.0,0.0,0.0,0.0,0.0,0.0,0.2155,0.9819,0.0930,0.6244,0.5451,-0.4645,-0.3117
1134,0.0,0.0,0.0,0.0,0.0,0.0,0.2166,0.9697,0.0901,0.6249,0.5439,-0.4638,-0.3139
1135,0.0,0.0,0.0,0.0,0.0,0.0,0.2105,0.9805,0.0935,0.6248,0.5437,-0.4633,-0.3154
1136,0.0,0.0,0.0,0.0,0.0,0.0,0.2092,0.9844,0.1001,0.6248,0.5432,-0.4625,-0.3173
1137,0.0,0.0,0.0,0.0,0.0,0.0,0.2062,0.9636,0.0938,0.6252,0.5422,-0.4616,-0.3195
1138,0.0,0.0,0.0,0.0,0.0,0.0,0.2073,0.9708,0.0948,0.6255,0.5413,-0.4609,-0.3212
1139,0.0,0.0,0.0,0.0,0.0,0.0,0.1947,0.9727,0.0934,0.6260,0.5401,-0.4602,-0.3235
1140,0.0,0.0,0.0,0.0,0.0,0.0,0.1798,1.0018,0.1021,0.6262,0.5395,-0.4588,-0.3261
1141,0.0,0.0,0.0,0.0,0.0,0.0,0.1889,0.9768,0.0906,0.6260,0.5394,-0.4575,-0.3285
1142,0.0,0.0,0.0,0.0,0.0,0.0,0.1896,0.9651,0.0920,0.6255,0.5398,-0.4565,-0.3301
1143,0.0,0.0,0.0,0.0,0.0,0.0,0.1885,0.9821,0.0996,0.6253,0.5396,-0.4555,-0.3321
1144,0.0,0.0,0.0,0.0,0.0,0.0,0.1867,0.9846,0.0987,0.6252,0.5386,-0.4547,-0.3351
1145,0.0,0.0,0.0,0.0,0.0,0.0,0.1884,0.9583,0.0914,0.6244,0.5386,-0.4543,-0.3371
1146,0.0,0.0,0.0,0.0,0.0,0.0,0.1911,0.9494,0.0918,0.6239,0.5381,-0.4542,-0.3389
1147,0.0,0.0,0.0,0.0,0.0,0.0,0.1893,0.9563,0.0938,0.6234,0.5378,-0.4543,-0.3402
1148,0.0,0.0,0.0,0.0,0.0,0.0,0.1871,0.9636,0.0985,0.6230,0.5373,-0.4546,-0.3414
1149,0.0,0.0,0.0,0.0,0.0,0.0,0.1808,0.9696,0.1014,0.6226,0.5365,-0.4550,-0.3428
1150,0.0,0.0,0.0,0.0,0.0,0.0,0.1753,0.9814,0.1057,0.6216,0.5367,-0.4556,-0.3435
1151,0.0,0.0,0.0,0.0,0.0,0.0,0.1785,0.9896,0.1086,0.6209,0.5363,-0.4561,-0.3448
1152,0.0,0.0,0.0,0.0,0.0,0.0,0.1830,0.9953,0.1101,0.6200,0.5358,-0.4565,-0.3465
1153,0.0,0.0,0.0,0.0,0.0,0.0,0.1849,0.9932,0.1124,0.6189,0.5368,-0.4567,-0.3469
1154,0.0,0.0,0.0,0.0,0.0,0.0,0.1859,0.9742,0.1090,0.6183,0.5372,-0.4564,-0.3475
1155,0.0,0.0,0.0,0.0,0.0,0.0,0.1777,0.9633,0.1065,0.6180,0.5375,-0.4559,-0.3483
1156,0.0,0.0,0.0,0.0,0.0,0.0,0.1796,0.9774,0.1071,0.6174,0.5380,-0.4555,-0.3491
1157,0.0,0.0,0.0,0.0,0.0,0.0,0.1778,0.9478,0.0979,0.6170,0.5380,-0.4557,-0.3497
1158,0.0,0.0,0.0,0.0,0.0,0.0,0.1759,0.9488,0.0984,0.6162,0.5395,-0.4561,-0.3481
1159,0.0,0.0,0.0,0.0,0.0,0.0,0.1775,0.9721,0.1033,0.6158,0.5405,-0.4566,-0.3466
1160,0.0,0.0,0.0,0.0,0.0,0.0,0.1805,0.9739,0.1047,0.6153,0.5411,-0.4575,-0.3453
1161,0.0,0.0,0.0,0.0,0.0,0.0,0.1697,0.9554,0.0956,0.6149,0.5419,-0.4584,-0.3435
1162,0.0,0.0,0.0,0.0,0.0,0.0,0.1718,0.9948,0.1002,0.6145,0.5428,-0.4591,-0.3419
1163,0.0,0.0,0.0,0.0,0.0,0.0,0.1788,0.9824,0.0963,0.6138,0.5439,-0.4602,-0.3401
1164,0.0,0.0,0.0,0.0,0.0,0.0,0.1763,0.9621,0.0882,0.6135,0.5445,-0.4613,-0.3383
1165,0.0,0.0,0.0,0.0,0.0,0.0,0.1763,0.9646,0.0849,0.6125,0.5461,-0.4627,-0.3355
1166,0.0,0.0,0.0,0.0,0.0,0.0,0.1720,0.9681,0.0858,0.6108,0.5463,-0.4655,-0.3343
1167,0.0,0.0,0.0,0.0,0.0,0.0,0.1672,0.9712,0.0887,0.6112,0.5457,-0.4669,-0.3327
1168,0.0,0.0,0.0,0.0,0.0,0.0,0.1688,0.9765,0.0859,0.6114,0.5456,-0.4683,-0.3305
1169,0.0,0.0,0.0,0.0,0.0,0.0,0.1698,0.9955,0.0898,0.6113,0.5456,-0.4699,-0.3284
1170,0.0,0.0,0.0,0.0,0.0,0.0,0.1699,0.9979,0.0899,0.6113,0.5456,-0.4714,-0.3263
1171,0.0,0.0,0.0,0.0,0.0,0.0,0.1793,0.9846,0.0841,0.6115,0.5455,-0.4727,-0.3240
1172,0.0,0.0,0.0,0.0,0.0,0.0,0.1918,0.9930,0.0842,0.6122,0.5444,-0.4739,-0.3230
1173,0.0,0.0,0.0,0.0,0.0,0.0,0.1988,0.9806,0.0803,0.6131,0.5425,-0.4752,-0.3224
1174,0.0,0.0,0.0,0.0,0.0,0.0,0.2059,1.1122,0.0852,0.6141,0.5403,-0.4766,-0.3222
1175,0.0,0.0,0.0,0.0,0.0,0.0,0.1979,1.0025,0.0908,0.6146,0.5391,-0.4780,-0.3213
1176,0.0,0.0,0.0,0.0,0.0,0.0,0.1967,1.0098,0.0942,0.6149,0.5385,-0.4789,-0.3203
1177,0.0,0.0,0.0,0.0,0.0,0.0,0.2075,1.0138,0.0971,0.6156,0.5370,-0.4794,-0.3206
1178,0.0,0.0,0.0,0.0,0.0,0.0,0.2192,1.0095,0.0989,0.6167,0.5350,-0.4796,-0.3216
1179,0.0,0.0,0.0,0.0,0.0,0.0,0.2196,0.9886,0.0940,0.6174,0.5335,-0.4796,-0.3226
1180,0.0,0.0,0.0,0.0,0.0,0.0,0.2203,0.9802,0.0963,0.6182,0.5313,-0.4797,-0.3247
1181,0.0,0.0,0.0,0.0,0.0,0.0,0.2253,0.9819,0.1015,0.6196,0.5282,-0.4794,-0.3274
1182,0.0,0.0,0.0,0.0,0.0,0.0,0.2202,0.9767,0.1043,0.6204,0.5265,-0.4791,-0.3292
1183,0.0,0.0,0.0,0.0,0.0,0.0,0.2130,0.9627,0.1047,0.6209,0.5250,-0.4790,-0.3308
1184,0.0,0.0,0.0,0.0,0.0,0.0,0.2157,0.9558,0.1065,0.6216,0.5232,-0.4786,-0.3328
1185,0.0,0.0,0.0,0.0,0.0,0.0,0.2199,0.9478,0.1050,0.6217,0.5226,-0.4788,-0.3334
1186,0.0,0.0,0.0,0.0,0.0,0.0,0.2130,0.9451,0.1092,0.6219,0.5219,-0.4790,-0.3338
1187,0.0,0.0,0.0,0.0,0.0,0.0,0.2131,0.9513,0.1135,0.6227,0.5199,-0.4790,-0.3355
1188,0.0,0.0,0.0,0.0,0.0,0.0,0.2127,0.9552,0.1197,0.6230,0.5187,-0.4792,-0.3363
1189,0.0,0.0,0.0,0.0,0.0,0.0,0.2085,0.9796,0.1255,0.6237,0.5169,-0.4792,-0.3380
1190,0.0,0.0,0.0,0.0,0.0,0.0,0.1971,0.9741,0.1226,0.6238,0.5160,-0.4790,-0.3394
1191,0.0,0.0,0.0,0.0,0.0,0.0,0.2033,0.9861,0.1265,0.6230,0.5169,-0.4790,-0.3396
1192,0.0,0.0,0.0,0.0,0.0,0.0,0.2133,0.9931,0.1261,0.6227,0.5170,-0.4784,-0.3407
1193,0.0,0.0,0.0,0.0,0.0,0.0,0.2146,0.9679,0.1151,0.6223,0.5170,-0.4778,-0.3423
1194,0.0,0.0,0.0,0.0,0.0,0.0,0.2218,0.9638,0.1136,0.6222,0.5177,-0.4769,-0.3426
1195,0.0,0.0,0.0,0.0,0.0,0.0,0.2193,0.9445,0.1040,0.6223,0.5196,-0.4758,-0.3412
1196,0.0,0.0,0.0,0.0,0.0,0.0,0.2088,0.9523,0.0933,0.6217,0.5216,-0.4752,-0.3399
1197,0.0,0.0,0.0,0.0,0.0,0.0,0.2143,0.9574,0.0971,0.6205,0.5222,-0.4758,-0.3405
1198,0.0,0.0,0.0,0.0,0.0,0.0,0.2135,0.9647,0.1028,0.6207,0.5238,-0.4751,-0.3386
1199,0.0,0.0,0.0,0.0,0.0,0.0,0.2036,0.9773,0.0972,0.6198,0.5257,-0.4754,-0.3368
1200,0.0,0.0,0.0,0.0,0.0,0.0,0.1987,0.9770,0.0930,0.6191,0.5272,-0.4757,-0.3355
1201,0.0,0.0,0.0,0.0,0.0,0.0,0.2006,0.9751,0.0869,0.6183,0.5286,-0.4760,-0.3342
1202,0.0,0.0,0.0,0.0,0.0,0.0,0.1998,0.9810,0.0827,0.6175,0.5300,-0.4764,-0.3330
1203,0.0,0.0,0.0,0.0,0.0,0.0,0.1989,0.9835,0.0832,0.6171,0.5303,-0.4767,-0.3326
1204,0.0,0.0,0.0,0.0,0.0,0.0,0.2015,0.9883,0.0841,0.6166,0.5309,-0.4770,-0.3322
1205,0.0,0.0,0.0,0.0,0.0,0.0,0.2029,0.9877,0.0841,0.6158,0.5321,-0.4775,-0.3311
1206,0.0,0.0,0.0,0.0,0.0,0.0,0.2048,0.9829,0.0808,0.6157,0.5321,-0.4777,-0.3312
1207,0.0,0.0,0.0,0.0,0.0,0.0,0.2095,0.9773,0.0808,0.6157,0.5316,-0.4778,-0.3318
1208,0.0,0.0,0.0,0.0,0.0,0.0,0.2119,0.9743,0.0807,0.6155,0.5321,-0.4778,-0.3312
1209,0.0,0.0,0.0,0.0,0.0,0.0,0.2127,0.9705,0.0774,0.6155,0.5324,-0.4778,-0.3309
1210,0.0,0.0,0.0,0.0,0.0,0.0,0.2133,0.9743,0.0812,0.6157,0.5319,-0.4778,-0.3313
1211,0.0,0.0,0.0,0.0,0.0,0.0,0.2144,0.9762,0.0808,0.6156,0.5320,-0.4779,-0.3310
1212,0.0,0.0,0.0,0.0,0.0,0.0,0.2179,0.9823,0.0883,0.6154,0.5317,-0.4784,-0.3313
1213,0.0,0.0,0.0,0.0,0.0,0.0,0.2199,0.9813,0.0912,0.6155,0.5314,-0.4784,-0.3315
1214,0.0,0.0,0.0,0.0,0.0,0.0,0.2203,0.9774,0.0902,0.6157,0.5314,-0.4782,-0.3315
1215,0.0,0.0,0.0,0.0,0.0,0.0,0.2149,0.9771,0.0892,0.6164,0.5327,-0.4767,-0.3302
1216,0.0,0.0,0.0,0.0,0.0,0.0,0.2104,0.9752,0.0916,0.6158,0.5338,-0.4763,-0.3301
1217,0.0,0.0,0.0,0.0,0.0,0.0,0.2095,0.9772,0.0925,0.6156,0.5345,-0.4755,-0.3306
1218,0.0,0.0,0.0,0.0,0.0,0.0,0.2096,0.9825,0.0949,0.6154,0.5350,-0.4745,-0.3315
1219,0.0,0.0,0.0,0.0,0.0,0.0,0.2055,0.9943,0.0983,0.6153,0.5357,-0.4733,-0.3324
1220,0.0,0.0,0.0,0.0,0.0,0.0,0.2025,0.9925,0.0959,0.6151,0.5364,-0.4718,-0.3337
1221,0.0,0.0,0.0,0.0,0.0,0.0,0.2025,0.9915,0.0969,0.6152,0.5370,-0.4700,-0.3350
1222,0.0,0.0,0.0,0.0,0.0,0.0,0.1940,1.0025,0.0965,0.6154,0.5377,-0.4678,-0.3365
1223,0.0,0.0,0.0,0.0,0.0,0.0,0.1927,1.0093,0.0980,0.6157,0.5383,-0.4655,-0.3383
1224,0.0,0.0,0.0,0.0,0.0,0.0,0.1834,1.0096,0.0994,0.6157,0.5393,-0.4630,-0.3401
1225,0.0,0.0,0.0,0.0,0.0,0.0,0.1787,1.0150,0.1041,0.6155,0.5408,-0.4605,-0.3415
1226,0.0,0.0,0.0,0.0,0.0,0.0,0.1780,1.0087,0.1022,0.6155,0.5422,-0.4579,-0.3428
1227,0.0,0.0,0.0,0.0,0.0,0.0,0.1555,0.9909,0.0992,0.6157,0.5430,-0.4552,-0.3448
1228,0.0,0.0,0.0,0.0,0.0,0.0,0.1488,0.9969,0.1030,0.6159,0.5439,-0.4524,-0.3467
1229,0.0,0.0,0.0,0.0,0.0,0.0,0.1347,0.9827,0.0987,0.6158,0.5456,-0.4495,-0.3480
1230,0.0,0.0,0.0,0.0,0.0,0.0,0.1375,0.9413,0.0894,0.6153,0.5475,-0.4469,-0.3492
1231,0.0,0.0,0.0,0.0,0.0,0.0,0.1358,0.9345,0.0884,0.6152,0.5489,-0.4446,-0.3501
1232,0.0,0.0,0.0,0.0,0.0,0.0,0.1215,0.9490,0.0979,0.6154,0.5499,-0.4424,-0.3509
1233,0.0,0.0,0.0,0.0,0.0,0.0,0.1295,0.9016,0.0796,0.6156,0.5505,-0.4411,-0.3512
1234,0.0,0.0,0.0,0.0,0.0,0.0,0.1361,0.9278,0.0817,0.6152,0.5520,-0.4411,-0.3495
1235,0.0,0.0,0.0,0.0,0.0,0.0,0.1283,0.9465,0.0833,0.6147,0.5539,-0.4417,-0.3468
1236,0.0,0.0,0.0,0.0,0.0,0.0,0.1434,0.9428,0.0757,0.6145,0.5549,-0.4427,-0.3443
1237,0.0,0.0,0.0,0.0,0.0,0.0,0.1574,0.9701,0.0793,0.6147,0.5546,-0.4444,-0.3423
1238,0.0,0.0,0.0,0.0,0.0,0.0,0.1643,0.9880,0.0799,0.6149,0.5540,-0.4463,-0.3401
1239,0.0,0.0,0.0,0.0,0.0,0.0,0.1740,0.9849,0.0742,0.6152,0.5535,-0.4484,-0.3378
1240,0.0,0.0,0.0,0.0,0.0,0.0,0.1812,0.9993,0.0753,0.6155,0.5535,-0.4502,-0.3348
1241,0.0,0.0,0.0,0.0,0.0,0.0,0.1795,1.0091,0.0763,0.6160,0.5539,-0.4514,-0.3316
1242,0.0,0.0,0.0,0.0,0.0,0.0,0.1725,0.9661,0.0562,0.6162,0.5543,-0.4524,-0.3293
1243,0.0,0.0,0.0,0.0,0.0,0.0,0.1886,0.9652,0.0567,0.6165,0.5541,-0.4538,-0.3271
1244,0.0,0.0,0.0,0.0,0.0,0.0,0.1825,0.9920,0.0719,0.6165,0.5543,-0.4555,-0.3243
1245,0.0,0.0,0.0,0.0,0.0,0.0,0.1814,1.0075,0.0815,0.6175,0.5544,-0.4563,-0.3213
1246,0.0,0.0,0.0,0.0,0.0,0.0,0.1585,1.0272,0.0868,0.6187,0.5541,-0.4562,-0.3194
1247,0.0,0.0,0.0,0.0,0.0,0.0,0.1713,0.9951,0.0781,0.6197,0.5537,-0.4563,-0.3182
1248,0.0,0.0,0.0,0.0,0.0,0.0,0.1817,0.9826,0.0775,0.6207,0.5529,-0.4565,-0.3173
1249,0.0,0.0,0.0,0.0,0.0,0.0,0.1725,1.0024,0.0795,0.6215,0.5522,-0.4567,-0.3167
1250,0.0,0.0,0.0,0.0,0.0,0.0,0.1685,1.0001,0.0814,0.6216,0.5526,-0.4568,-0.3156
1251,0.0,0.0,0.0,0.0,0.0,0.0,0.1706,0.9883,0.0808,0.6216,0.5528,-0.4571,-0.3148
1252,0.0,0.0,0.0,0.0,0.0,0.0,0.1682,0.9874,0.0827,0.6221,0.5519,-0.4572,-0.3152
1253,0.0,0.0,0.0,0.0,0.0,0.0,0.1682,0.9888,0.0851,0.6223,0.5514,-0.4572,-0.3156
1254,0.0,0.0,0.0,0.0,0.0,0.0,0.1713,0.9954,0.0912,0.6222,0.5510,-0.4575,-0.3162
1255,0.0,0.0,0.0,0.0,0.0,0.0,0.1732,0.9933,0.0959,0.6219,0.5509,-0.4577,-0.3166
1256,0.0,0.0,0.0,0.0,0.0,0.0,0.1723,0.9953,0.0974,0.6220,0.5505,-0.4576,-0.3174
1257,0.0,0.0,0.0,0.0,0.0,0.0,0.1709,1.0002,0.0998,0.6223,0.5496,-0.4573,-0.3188
1258,0.0,0.0,0.0,0.0,0.0,0.0,0.1670,0.9998,0.1012,0.6222,0.5489,-0.4571,-0.3203
1259,0.0,0.0,0.0,0.0,0.0,0.0,0.1618,1.0048,0.1031,0.6221,0.5487,-0.4566,-0.3217
1260,0.0,0.0,0.0,0.0,0.0,0.0,0.1617,1.0194,0.1112,0.6220,0.5486,-0.4557,-0.3232
1261,0.0,0.0,0.0,0.0,0.0,0.0,0.1454,1.0175,0.1079,0.6219,0.5483,-0.4543,-0.3260
1262,0.0,0.0,0.0,0.0,0.0,0.0,0.1393,1.0263,0.1131,0.6220,0.5478,-0.4521,-0.3295
1263,0.0,0.0,0.0,0.0,0.0,0.0,0.1421,1.0199,0.1112,0.6223,0.5472,-0.4495,-0.3335
1264,0.0,0.0,0.0,0.0,0.0,0.0,0.1282,0.9786,0.0977,0.6218,0.5448,-0.4482,-0.3403
1265,0.0,0.0,0.0,0.0,0.0,0.0,0.1325,0.9750,0.0991,0.6218,0.5431,-0.4463,-0.3453
1266,0.0,0.0,0.0,0.0,0.0,0.0,0.1417,0.9703,0.1004,0.6210,0.5424,-0.4454,-0.3490
1267,0.0,0.0,0.0,0.0,0.0,0.0,0.1439,0.9803,0.1132,0.6207,0.5404,-0.4451,-0.3531
1268,0.0,0.0,0.0,0.0,0.0,0.0,0.1424,0.9622,0.1150,0.6200,0.5385,-0.4453,-0.3569
1269,0.0,0.0,0.0,0.0,0.0,0.0,0.1564,0.9369,0.1167,0.6196,0.5354,-0.4462,-0.3609
1270,0.0,0.0,0.0,0.0,0.0,0.0,0.1567,0.9485,0.1215,0.6192,0.5319,-0.4475,-0.3652
1271,0.0,0.0,0.0,0.0,0.0,0.0,0.1637,0.9337,0.1152,0.6182,0.5290,-0.4496,-0.3685
1272,0.0,0.0,0.0,0.0,0.0,0.0,0.1800,0.9225,0.1161,0.6173,0.5253,-0.4526,-0.3717
1273,0.0,0.0,0.0,0.0,0.0,0.0,0.1876,0.9330,0.1152,0.6159,0.5223,-0.4563,-0.3737
1274,0.0,0.0,0.0,0.0,0.0,0.0,0.1931,0.9358,0.1167,0.6144,0.5192,-0.4604,-0.3754
1275,0.0,0.0,0.0,0.0,0.0,0.0,0.1977,0.9411,0.1134,0.6129,0.5160,-0.4647,-0.3770
1276,0.0,0.0,0.0,0.0,0.0,0.0,0.2005,0.9386,0.1092,0.6107,0.5144,-0.4692,-0.3772
1277,0.0,0.0,0.0,0.0,0.0,0.0,0.2095,0.9247,0.1025,0.6082,0.5136,-0.4741,-0.3762
1278,0.0,0.0,0.0,0.0,0.0,0.0,0.2209,0.9308,0.0983,0.6061,0.5122,-0.4793,-0.3751
1279,0.0,0.0,0.0,0.0,0.0,0.0,0.2191,0.9377,0.0969,0.6042,0.5105,-0.4845,-0.3736
1280,0.0,0.0,0.0,0.0,0.0,0.0,0.2209,0.9494,0.0951,0.6019,0.5097,-0.4900,-0.3711
1281,0.0,0.0,0.0,0.0,0.0,0.0,0.2268,0.9479,0.0843,0.5997,0.5091,-0.4956,-0.3683
1282,0.0,0.0,0.0,0.0,0.0,0.0,0.2293,0.9504,0.0768,0.5974,0.5089,-0.5010,-0.3648
1283,0.0,0.0,0.0,0.0,0.0,0.0,0.2336,0.9635,0.0746,0.5951,0.5103,-0.5060,-0.3596
1284,0.0,0.0,0.0,0.0,0.0,0.0,0.2381,0.9854,0.0700,0.5934,0.5111,-0.5104,-0.3550
1285,0.0,0.0,0.0,0.0,0.0,0.0,0.2383,1.0098,0.0726,0.5928,0.5098,-0.5143,-0.3525
1286,0.0,0.0,0.0,0.0,0.0,0.0,0.2465,1.0208,0.0746,0.5927,0.5087,-0.5173,-0.3499
1287,0.0,0.0,0.0,0.0,0.0,0.0,0.2586,1.0356,0.0733,0.5933,0.5066,-0.5198,-0.3480
1288,0.0,0.0,0.0,0.0,0.0,0.0,0.2485,1.0408,0.0710,0.5935,0.5054,-0.5221,-0.3460
1289,0.0,0.0,0.0,0.0,0.0,0.0,0.2416,1.0395,0.0714,0.5936,0.5051,-0.5232,-0.3446
1290,0.0,0.0,0.0,0.0,0.0,0.0,0.2419,1.0322,0.0690,0.5940,0.5053,-0.5232,-0.3437
1291,0.0,0.0,0.0,0.0,0.0,0.0,0.2440,1.0210,0.0656,0.5947,0.5055,-0.5225,-0.3433
1292,0.0,0.0,0.0,0.0,0.0,0.0,0.2350,1.0115,0.0660,0.5955,0.5057,-0.5211,-0.3434
1293,0.0,0.0,0.0,0.0,0.0,0.0,0.2258,0.9986,0.0668,0.5961,0.5074,-0.5193,-0.3428
1294,0.0,0.0,0.0,0.0,0.0,0.0,0.2189,0.9783,0.0634,0.5963,0.5093,-0.5176,-0.3422
1295,0.0,0.0,0.0,0.0,0.0,0.0,0.2168,0.9768,0.0699,0.5969,0.5100,-0.5158,-0.3428
1296,0.0,0.0,0.0,0.0,0.0,0.0,0.2135,0.9817,0.0742,0.5978,0.5103,-0.5137,-0.3439
1297,0.0,0.0,0.0,0.0,0.0,0.0,0.2054,0.9698,0.0713,0.5983,0.5117,-0.5115,-0.3442
1298,0.0,0.0,0.0,0.0,0.0,0.0,0.2101,0.9643,0.0708,0.5985,0.5136,-0.5097,-0.3438
1299,0.0,0.0,0.0,0.0,0.0,0.0,0.2186,0.9504,0.0655,0.5989,0.5141,-0.5084,-0.3444
1300,0.0,0.0,0.0,0.0,0.0,0.0,0.2228,0.9435,0.0621,0.5996,0.5140,-0.5072,-0.3451
1301,0.0,0.0,0.0,0.0,0.0,0.0,0.2223,0.9426,0.0598,0.6000,0.5148,-0.5064,-0.3443
1302,0.0,0.0,0.0,0.0,0.0,0.0,0.2195,0.9471,0.0551,0.6009,0.5152,-0.5056,-0.3434
1303,0.0,0.0,0.0,0.0,0.0,0.0,0.2191,0.9691,0.0567,0.6011,0.5153,-0.5052,-0.3433
1304,0.0,0.0,0.0,0.0,0.0,0.0,0.2252,0.9776,0.0662,0.6009,0.5163,-0.5050,-0.3425
1305,0.0,0.0,0.0,0.0,0.0,0.0,0.2284,0.9877,0.0658,0.6008,0.5173,-0.5049,-0.3413
1306,0.0,0.0,0.0,0.0,0.0,0.0,0.2327,0.9818,0.0625,0.6011,0.5173,-0.5046,-0.3412
1307,0.0,0.0,0.0,0.0,0.0,0.0,0.2365,0.9792,0.0648,0.6019,0.5166,-0.5042,-0.3415
1308,0.0,0.0,0.0,0.0,0.0,0.0,0.2360,0.9802,0.0643,0.6026,0.5164,-0.5036,-0.3415
1309,0.0,0.0,0.0,0.0,0.0,0.0,0.2370,0.9782,0.0657,0.6030,0.5166,-0.5031,-0.3412
1310,0.0,0.0,0.0,0.0,0.0,0.0,0.2429,0.9819,0.0714,0.6041,0.5160,-0.5022,-0.3413
1311,0.0,0.0,0.0,0.0,0.0,0.0,0.2462,0.9773,0.0742,0.6055,0.5152,-0.5011,-0.3419
1312,0.0,0.0,0.0,0.0,0.0,0.0,0.2515,0.9732,0.0789,0.6069,0.5147,-0.4997,-0.3420
1313,0.0,0.0,0.0,0.0,0.0,0.0,0.2505,0.9737,0.0812,0.6083,0.5153,-0.4983,-0.3409
1314,0.0,0.0,0.0,0.0,0.0,0.0,0.2290,0.9746,0.0605,0.6076,0.5164,-0.4978,-0.3412
1315,0.0,0.0,0.0,0.0,0.0,0.0,0.2330,0.9607,0.0698,0.6055,0.5145,-0.4985,-0.3466
1316,0.0,0.0,0.0,0.0,0.0,0.0,0.2525,0.9563,0.0957,0.6055,0.5146,-0.4979,-0.3473
1317,0.0,0.0,0.0,0.0,0.0,0.0,0.2708,0.9492,0.1093,0.6094,0.5157,-0.4946,-0.3437
1318,0.0,0.0,0.0,0.0,0.0,0.0,0.2456,0.9565,0.0929,0.6155,0.5186,-0.4889,-0.3364
1319,0.0,0.0,0.0,0.0,0.0,0.0,0.2326,0.9640,0.0746,0.6193,0.5228,-0.4845,-0.3292
1320,0.0,0.0,0.0,0.0,0.0,0.0,0.2477,0.9605,0.0849,0.6216,0.5267,-0.4812,-0.3234
1321,0.0,0.0,0.0,0.0,0.0,0.0,0.2384,0.9618,0.0844,0.6234,0.5309,-0.4777,-0.3182
1322,0.0,0.0,0.0,0.0,0.0,0.0,0.2239,0.9671,0.0812,0.6248,0.5359,-0.4741,-0.3125
1323,0.0,0.0,0.0,0.0,0.0,0.0,0.2113,0.9726,0.0699,0.6264,0.5407,-0.4704,-0.3066
1324,0.0,0.0,0.0,0.0,0.0,0.0,0.1982,0.9750,0.0624,0.6281,0.5449,-0.4666,-0.3014
1325,0.0,0.0,0.0,0.0,0.0,0.0,0.1875,0.9760,0.0553,0.6293,0.5497,-0.4631,-0.2955
1326,0.0,0.0,0.0,0.0,0.0,0.0,0.1805,0.9733,0.0501,0.6300,0.5549,-0.4600,-0.2891
1327,0.0,0.0,0.0,0.0,0.0,0.0,0.1708,0.9737,0.0421,0.6304,0.5598,-0.4573,-0.2829
1328,0.0,0.0,0.0,0.0,0.0,0.0,0.1612,0.9796,0.0299,0.6296,0.5651,-0.4555,-0.2771
1329,0.0,0.0,0.0,0.0,0.0,0.0,0.0734,0.9900,-0.0280,0.6230,0.5703,-0.4575,-0.2781
1330,0.0,0.0,0.0,0.0,0.0,0.0,-0.0014,0.9612,0.0217,0.6117,0.5742,-0.4628,-0.2861
1331,0.0,0.0,0.0,0.0,0.0,0.0,0.2754,0.9897,0.1026,0.6112,0.5747,-0.4644,-0.2837
1332,0.0,0.0,0.0,0.0,0.0,0.0,0.3507,1.0178,0.0633,0.6145,0.5749,-0.4635,-0.2776
1333,0.0,0.0,0.0,0.0,0.0,0.0,0.2653,1.0114,0.0783,0.6214,0.5749,-0.4588,-0.2698
1334,0.0,0.0,0.0,0.0,0.0,0.0,0.1748,0.9760,0.0445,0.6291,0.5768,-0.4524,-0.2585
1335,0.0,0.0,0.0,0.0,0.0,0.0,0.1591,0.9754,0.0214,0.6341,0.5778,-0.4490,-0.2500
1336,0.0,0.0,0.0,0.0,0.0,0.0,0.1848,0.9836,0.0417,0.6377,0.5772,-0.4469,-0.2459
1337,0.0,0.0,0.0,0.0,0.0,0.0,0.2143,0.9713,0.0482,0.6405,0.5762,-0.4457,-0.2431
1338,0.0,0.0,0.0,0.0,0.0,0.0,0.2293,0.9645,0.0510,0.6424,0.5757,-0.4452,-0.2401
1339,0.0,0.0,0.0,0.0,0.0,0.0,0.2424,0.9626,0.0534,0.6442,0.5750,-0.4451,-0.2373
1340,0.0,0.0,0.0,0.0,0.0,0.0,0.2523,0.9667,0.0562,0.6457,0.5746,-0.4453,-0.2339
1341,0.0,0.0,0.0,0.0,0.0,0.0,0.2549,0.9704,0.0591,0.6473,0.5736,-0.4456,-0.2312
1342,0.0,0.0,0.0,0.0,0.0,0.0,0.2636,0.9673,0.0591,0.6493,0.5715,-0.4460,-0.2298
1343,0.0,0.0,0.0,0.0,0.0,0.0,0.2713,0.9607,0.0562,0.6509,0.5698,-0.4468,-0.2282
1344,0.0,0.0,0.0,0.0,0.0,0.0,0.2836,0.9467,0.0542,0.6518,0.5688,-0.4478,-0.2259
1345,0.0,0.0,0.0,0.0,0.0,0.0,0.2903,0.9430,0.0575,0.6526,0.5682,-0.4489,-0.2232
1346,0.0,0.0,0.0,0.0,0.0,0.0,0.2867,0.9528,0.0646,0.6545,0.5656,-0.4498,-0.2222
1347,0.0,0.0,0.0,0.0,0.0,0.0,0.2816,0.9647,0.0657,0.6558,0.5633,-0.4509,-0.2221
1348,0.0,0.0,0.0,0.0,0.0,0.0,0.2471,0.9705,0.0360,0.6540,0.5628,-0.4529,-0.2245
1349,0.0,0.0,0.0,0.0,0.0,0.0,0.1921,0.9625,0.0025,0.6455,0.5656,-0.4568,-0.2341
1350,0.0,0.0,0.0,0.0,0.0,0.0,0.3038,0.9187,0.0893,0.6413,0.5640,-0.4606,-0.2418
1351,0.0,0.0,0.0,0.0,0.0,0.0,0.3975,0.9943,0.1050,0.6452,0.5583,-0.4621,-0.2418
1352,0.0,0.0,0.0,0.0,0.0,0.0,0.4053,1.0126,0.1071,0.6506,0.5563,-0.4594,-0.2370
1353,0.0,0.0,0.0,0.0,0.0,0.0,0.2950,0.9525,0.0656,0.6569,0.5561,-0.4551,-0.2285
1354,0.0,0.0,0.0,0.0,0.0,0.0,0.2576,0.9607,0.0491,0.6603,0.5559,-0.4531,-0.2228
1355,0.0,0.0,0.0,0.0,0.0,0.0,0.2851,0.9674,0.0718,0.6625,0.5548,-0.4520,-0.2214
1356,0.0,0.0,0.0,0.0,0.0,0.0,0.2954,0.9683,0.0855,0.6647,0.5526,-0.4510,-0.2224
1357,0.0,0.0,0.0,0.0,0.0,0.0,0.3007,0.9642,0.0925,0.6664,0.5503,-0.4502,-0.2245
1358,0.0,0.0,0.0,0.0,0.0,0.0,0.2985,0.9578,0.0957,0.6675,0.5488,-0.4493,-0.2264
1359,0.0,0.0,0.0,0.0,0.0,0.0,0.3019,0.9557,0.1023,0.6686,0.5477,-0.4483,-0.2280
1360,0.0,0.0,0.0,0.0,0.0,0.0,0.2965,0.9553,0.1051,0.6696,0.5466,-0.4471,-0.2300
1361,0.0,0.0,0.0,0.0,0.0,0.0,0.2925,0.9535,0.1056,0.6703,0.5460,-0.4461,-0.2317
1362,0.0,0.0,0.0,0.0,0.0,0.0,0.2852,0.9541,0.1070,0.6708,0.5457,-0.4450,-0.2329
1363,0.0,0.0,0.0,0.0,0.0,0.0,0.2777,0.9655,0.1141,0.6715,0.5452,-0.4436,-0.2346
1364,0.0,0.0,0.0,0.0,0.0,0.0,0.2762,0.9664,0.1198,0.6721,0.5448,-0.4422,-0.2365
1365,0.0,0.0,0.0,0.0,0.0,0.0,0.2699,0.9680,0.1250,0.6726,0.5447,-0.4406,-0.2384
1366,0.0,0.0,0.0,0.0,0.0,0.0,0.2689,0.9684,0.1306,0.6738,0.5432,-0.4389,-0.2414
1367,0.0,0.0,0.0,0.0,0.0,0.0,0.2719,0.9541,0.1338,0.6749,0.5418,-0.4374,-0.2443
1368,0.0,0.0,0.0,0.0,0.0,0.0,0.2725,0.9385,0.1356,0.6757,0.5408,-0.4360,-0.2468
1369,0.0,0.0,0.0,0.0,0.0,0.0,0.2717,0.9297,0.1355,0.6765,0.5396,-0.4349,-0.2491
1370,0.0,0.0,0.0,0.0,0.0,0.0,0.2761,0.9115,0.1344,0.6774,0.5379,-0.4343,-0.2513
1371,0.0,0.0,0.0,0.0,0.0,0.0,0.2806,0.9147,0.1373,0.6782,0.5361,-0.4342,-0.2532
1372,0.0,0.0,0.0,0.0,0.0,0.0,0.2819,0.9254,0.1402,0.6784,0.5352,-0.4344,-0.2543
1373,0.0,0.0,0.0,0.0,0.0,0.0,0.2836,0.9346,0.1412,0.6785,0.5345,-0.4346,-0.2550
1374,0.0,0.0,0.0,0.0,0.0,0.0,0.2893,0.9447,0.1389,0.6785,0.5341,-0.4348,-0.2555
1375,0.0,0.0,0.0,0.0,0.0,0.0,0.2938,0.9495,0.1376,0.6784,0.5339,-0.4350,-0.2560
1376,0.0,0.0,0.0,0.0,0.0,0.0,0.2969,0.9558,0.1348,0.6781,0.5338,-0.4353,-0.2564
1377,0.0,0.0,0.0,0.0,0.0,0.0,0.2994,0.9573,0.1310,0.6778,0.5338,-0.4354,-0.2571
1378,0.0,0.0,0.0,0.0,0.0,0.0,0.3038,0.9562,0.1263,0.6774,0.5340,-0.4354,-0.2576
