,Position_X,Position_Y,Position_Z,Velocity_X,Velocity_Y,Velocity_Z,Acceleration_X,Acceleration_Y,Acceleration_Z,Quaterion_0,Quaterion_1,Quaterion_2,Quaterion_3
166,0.0,0.0,0.0,0.0,0.0,0.0,-0.0770,-0.9756,0.1914,0.7903,-0.6072,0.0006,0.0823
167,0.0,0.0,0.0,0.0,0.0,0.0,-0.0683,-0.9307,0.1699,0.7904,-0.6070,0.0013,0.0824
168,0.0,0.0,0.0,0.0,0.0,0.0,-0.0536,-0.9361,0.1655,0.7901,-0.6074,0.0006,0.0824
169,0.0,0.0,0.0,0.0,0.0,0.0,-0.0550,-0.9712,0.1797,0.7897,-0.6079,-0.0005,0.0824
170,0.0,0.0,0.0,0.0,0.0,0.0,-0.0677,-1.0063,0.1914,0.7894,-0.6083,-0.0013,0.0824
171,0.0,0.0,0.0,0.0,0.0,0.0,-0.0677,-1.0073,0.1890,0.7895,-0.6082,-0.0015,0.0824
172,0.0,0.0,0.0,0.0,0.0,0.0,-0.0702,-0.9927,0.1826,0.7894,-0.6083,-0.0014,0.0825
173,0.0,0.0,0.0,0.0,0.0,0.0,-0.0667,-0.9917,0.1821,0.7893,-0.6084,-0.0015,0.0828
174,0.0,0.0,0.0,0.0,0.0,0.0,-0.0609,-0.9931,0.1821,0.7893,-0.6084,-0.0017,0.0830
175,0.0,0.0,0.0,0.0,0.0,0.0,-0.0574,-0.9883,0.1831,0.7890,-0.6087,-0.0023,0.0830
176,0.0,0.0,0.0,0.0,0.0,0.0,-0.0530,-0.9834,0.1846,0.7890,-0.6088,-0.0030,0.0827
177,0.0,0.0,0.0,0.0,0.0,0.0,-0.0501,-0.9805,0.1866,0.7891,-0.6088,-0.0036,0.0823
178,0.0,0.0,0.0,0.0,0.0,0.0,-0.0516,-0.9751,0.1856,0.7890,-0.6090,-0.0042,0.0818
179,0.0,0.0,0.0,0.0,0.0,0.0,-0.0565,-0.9610,0.1768,0.7886,-0.6095,-0.0050,0.0813
180,0.0,0.0,0.0,0.0,0.0,0.0,-0.0580,-0.9629,0.1748,0.7881,-0.6103,-0.0060,0.0807
181,0.0,0.0,0.0,0.0,0.0,0.0,-0.0491,-0.9868,0.1812,0.7875,-0.6111,-0.0073,0.0803
182,0.0,0.0,0.0,0.0,0.0,0.0,-0.0462,-1.0024,0.1831,0.7869,-0.6118,-0.0087,0.0801
183,0.0,0.0,0.0,0.0,0.0,0.0,-0.0452,-1.0166,0.1827,0.7864,-0.6125,-0.0098,0.0796
184,0.0,0.0,0.0,0.0,0.0,0.0,-0.0442,-1.0146,0.1788,0.7858,-0.6133,-0.0106,0.0791
185,0.0,0.0,0.0,0.0,0.0,0.0,-0.0476,-1.0122,0.1783,0.7857,-0.6135,-0.0110,0.0785
186,0.0,0.0,0.0,0.0,0.0,0.0,-0.0530,-1.0058,0.1783,0.7859,-0.6133,-0.0108,0.0780
187,0.0,0.0,0.0,0.0,0.0,0.0,-0.0560,-0.9990,0.1787,0.7859,-0.6133,-0.0105,0.0775
188,0.0,0.0,0.0,0.0,0.0,0.0,-0.0564,-0.9975,0.1787,0.7859,-0.6134,-0.0103,0.0770
189,0.0,0.0,0.0,0.0,0.0,0.0,-0.0584,-0.9941,0.1768,0.7862,-0.6131,-0.0099,0.0765
190,0.0,0.0,0.0,0.0,0.0,0.0,-0.0525,-0.9888,0.1763,0.7865,-0.6128,-0.0099,0.0762
191,0.0,0.0,0.0,0.0,0.0,0.0,-0.0477,-0.9858,0.1748,0.7865,-0.6128,-0.0102,0.0757
192,0.0,0.0,0.0,0.0,0.0,0.0,-0.0432,-0.9893,0.1753,0.7865,-0.6128,-0.0106,0.0755
193,0.0,0.0,0.0,0.0,0.0,0.0,-0.0393,-0.9932,0.1758,0.7865,-0.6129,-0.0111,0.0753
194,0.0,0.0,0.0,0.0,0.0,0.0,-0.0364,-0.9946,0.1763,0.7864,-0.6130,-0.0115,0.0751
195,0.0,0.0,0.0,0.0,0.0,0.0,-0.0344,-0.9922,0.1734,0.7864,-0.6131,-0.0120,0.0749
196,0.0,0.0,0.0,0.0,0.0,0.0,-0.0359,-0.9888,0.1705,0.7864,-0.6131,-0.0121,0.0747
197,0.0,0.0,0.0,0.0,0.0,0.0,-0.0379,-0.9883,0.1695,0.7864,-0.6131,-0.0122,0.0744
198,0.0,0.0,0.0,0.0,0.0,0.0,-0.0457,-0.9897,0.1675,0.7863,-0.6133,-0.0123,0.0741
199,0.0,0.0,0.0,0.0,0.0,0.0,-0.0491,-0.9907,0.1651,0.7861,-0.6136,-0.0124,0.0738
200,0.0,0.0,0.0,0.0,0.0,0.0,-0.0501,-0.9946,0.1651,0.7859,-0.6138,-0.0125,0.0738
201,0.0,0.0,0.0,0.0,0.0,0.0,-0.0511,-1.0000,0.1670,0.7860,-0.6137,-0.0127,0.0739
202,0.0,0.0,0.0,0.0,0.0,0.0,-0.0447,-0.9892,0.1597,0.7860,-0.6137,-0.0131,0.0739
203,0.0,0.0,0.0,0.0,0.0,0.0,-0.0316,-0.9580,0.1343,0.7854,-0.6143,-0.0144,0.0738
204,0.0,0.0,0.0,0.0,0.0,0.0,0.0968,-0.9991,0.1389,0.7847,-0.6152,-0.0197,0.0740
205,0.0,0.0,0.0,0.0,0.0,0.0,-0.0305,-1.0068,0.1416,0.7839,-0.6160,-0.0213,0.0743
206,0.0,0.0,0.0,0.0,0.0,0.0,-0.0344,-1.0312,0.1543,0.7835,-0.6164,-0.0224,0.0750
207,0.0,0.0,0.0,0.0,0.0,0.0,-0.0310,-1.0263,0.1597,0.7834,-0.6165,-0.0231,0.0759
208,0.0,0.0,0.0,0.0,0.0,0.0,-0.0300,-1.0185,0.1646,0.7834,-0.6162,-0.0234,0.0770
209,0.0,0.0,0.0,0.0,0.0,0.0,-0.0241,-1.0107,0.1700,0.7838,-0.6157,-0.0237,0.0779
210,0.0,0.0,0.0,0.0,0.0,0.0,-0.0153,-1.0005,0.1764,0.7845,-0.6147,-0.0239,0.0785
211,0.0,0.0,0.0,0.0,0.0,0.0,-0.0114,-0.9868,0.1773,0.7854,-0.6134,-0.0241,0.0789
212,0.0,0.0,0.0,0.0,0.0,0.0,-0.0168,-0.9659,0.1724,0.7859,-0.6128,-0.0242,0.0790
213,0.0,0.0,0.0,0.0,0.0,0.0,-0.0159,-0.9649,0.1720,0.7858,-0.6129,-0.0245,0.0789
214,0.0,0.0,0.0,0.0,0.0,0.0,-0.0168,-0.9756,0.1724,0.7856,-0.6133,-0.0249,0.0786
215,0.0,0.0,0.0,0.0,0.0,0.0,-0.0242,-0.9858,0.1705,0.7853,-0.6137,-0.0251,0.0782
216,0.0,0.0,0.0,0.0,0.0,0.0,-0.0241,-0.9941,0.1695,0.7850,-0.6142,-0.0252,0.0776
217,0.0,0.0,0.0,0.0,0.0,0.0,-0.0295,-0.9971,0.1656,0.7847,-0.6146,-0.0250,0.0769
218,0.0,0.0,0.0,0.0,0.0,0.0,-0.0359,-0.9951,0.1636,0.7846,-0.6149,-0.0244,0.0761
219,0.0,0.0,0.0,0.0,0.0,0.0,-0.0354,-0.9907,0.1636,0.7840,-0.6156,-0.0240,0.0754
220,0.0,0.0,0.0,0.0,0.0,0.0,-0.0354,-0.9892,0.1661,0.7835,-0.6164,-0.0235,0.0750
221,0.0,0.0,0.0,0.0,0.0,0.0,-0.0374,-0.9975,0.1709,0.7831,-0.6169,-0.0230,0.0746
222,0.0,0.0,0.0,0.0,0.0,0.0,-0.0374,-1.0044,0.1709,0.7827,-0.6176,-0.0224,0.0743
223,0.0,0.0,0.0,0.0,0.0,0.0,-0.0364,-0.9990,0.1646,0.7823,-0.6181,-0.0219,0.0739
224,0.0,0.0,0.0,0.0,0.0,0.0,-0.0379,-0.9946,0.1592,0.7821,-0.6185,-0.0213,0.0735
225,0.0,0.0,0.0,0.0,0.0,0.0,-0.0408,-0.9931,0.1553,0.7820,-0.6187,-0.0205,0.0729
226,0.0,0.0,0.0,0.0,0.0,0.0,-0.0428,-0.9946,0.1529,0.7818,-0.6190,-0.0199,0.0724
227,0.0,0.0,0.0,0.0,0.0,0.0,-0.0442,-1.0034,0.1524,0.7813,-0.6196,-0.0195,0.0720
228,0.0,0.0,0.0,0.0,0.0,0.0,-0.0457,-1.0058,0.1514,0.7810,-0.6201,-0.0190,0.0715
229,0.0,0.0,0.0,0.0,0.0,0.0,-0.0437,-1.0043,0.1494,0.7809,-0.6202,-0.0184,0.0712
230,0.0,0.0,0.0,0.0,0.0,0.0,-0.0413,-1.0029,0.1470,0.7808,-0.6204,-0.0180,0.0710
231,0.0,0.0,0.0,0.0,0.0,0.0,-0.0413,-1.0082,0.1460,0.7805,-0.6209,-0.0175,0.0708
232,0.0,0.0,0.0,0.0,0.0,0.0,-0.0427,-1.0253,0.1524,0.7805,-0.6209,-0.0169,0.0707
233,0.0,0.0,0.0,0.0,0.0,0.0,-0.0427,-1.0365,0.1573,0.7808,-0.6206,-0.0159,0.0705
234,0.0,0.0,0.0,0.0,0.0,0.0,-0.0457,-1.0292,0.1563,0.7815,-0.6198,-0.0146,0.0703
235,0.0,0.0,0.0,0.0,0.0,0.0,-0.0467,-0.9887,0.1401,0.7823,-0.6189,-0.0129,0.0697
236,0.0,0.0,0.0,0.0,0.0,0.0,-0.0331,-0.9511,0.1191,0.7821,-0.6191,-0.0124,0.0692
237,0.0,0.0,0.0,0.0,0.0,0.0,-0.0360,-0.9785,0.1338,0.7819,-0.6195,-0.0124,0.0686
238,0.0,0.0,0.0,0.0,0.0,0.0,-0.0506,-0.9985,0.1489,0.7819,-0.6196,-0.0120,0.0679
239,0.0,0.0,0.0,0.0,0.0,0.0,-0.0472,-0.9990,0.1548,0.7821,-0.6194,-0.0114,0.0673
240,0.0,0.0,0.0,0.0,0.0,0.0,-0.0526,-0.9902,0.1533,0.7822,-0.6193,-0.0106,0.0669
241,0.0,0.0,0.0,0.0,0.0,0.0,-0.0526,-0.9931,0.1563,0.7825,-0.6191,-0.0100,0.0666
242,0.0,0.0,0.0,0.0,0.0,0.0,-0.0482,-0.9917,0.1602,0.7828,-0.6186,-0.0096,0.0663
243,0.0,0.0,0.0,0.0,0.0,0.0,-0.0472,-0.9887,0.1621,0.7832,-0.6182,-0.0093,0.0661
244,0.0,0.0,0.0,0.0,0.0,0.0,-0.0433,-0.9853,0.1612,0.7833,-0.6181,-0.0092,0.0660
245,0.0,0.0,0.0,0.0,0.0,0.0,-0.0418,-0.9892,0.1646,0.7835,-0.6178,-0.0092,0.0661
246,0.0,0.0,0.0,0.0,0.0,0.0,-0.0438,-0.9829,0.1631,0.7836,-0.6176,-0.0092,0.0661
247,0.0,0.0,0.0,0.0,0.0,0.0,-0.0418,-0.9795,0.1607,0.7835,-0.6177,-0.0093,0.0663
248,0.0,0.0,0.0,0.0,0.0,0.0,-0.0452,-0.9839,0.1597,0.7833,-0.6180,-0.0095,0.0665
249,0.0,0.0,0.0,0.0,0.0,0.0,-0.0433,-0.9863,0.1577,0.7829,-0.6185,-0.0098,0.0669
250,0.0,0.0,0.0,0.0,0.0,0.0,-0.0369,-0.9873,0.1553,0.7823,-0.6192,-0.0105,0.0671
251,0.0,0.0,0.0,0.0,0.0,0.0,-0.0330,-0.9912,0.1543,0.7817,-0.6200,-0.0114,0.0674
252,0.0,0.0,0.0,0.0,0.0,0.0,-0.0335,-0.9892,0.1509,0.7811,-0.6206,-0.0121,0.0674
253,0.0,0.0,0.0,0.0,0.0,0.0,-0.0305,-0.9951,0.1519,0.7807,-0.6211,-0.0128,0.0674
254,0.0,0.0,0.0,0.0,0.0,0.0,-0.0271,-1.0029,0.1553,0.7804,-0.6216,-0.0137,0.0671
255,0.0,0.0,0.0,0.0,0.0,0.0,-0.0247,-0.9995,0.1524,0.7798,-0.6223,-0.0147,0.0667
256,0.0,0.0,0.0,0.0,0.0,0.0,-0.0247,-0.9931,0.1480,0.7792,-0.6231,-0.0156,0.0661
257,0.0,0.0,0.0,0.0,0.0,0.0,-0.0242,-0.9917,0.1475,0.7787,-0.6237,-0.0165,0.0653
258,0.0,0.0,0.0,0.0,0.0,0.0,-0.0271,-1.0014,0.1504,0.7782,-0.6245,-0.0173,0.0643
259,0.0,0.0,0.0,0.0,0.0,0.0,-0.0295,-1.0170,0.1524,0.7778,-0.6250,-0.0178,0.0635
260,0.0,0.0,0.0,0.0,0.0,0.0,-0.0305,-1.0219,0.1534,0.7778,-0.6252,-0.0180,0.0626
261,0.0,0.0,0.0,0.0,0.0,0.0,-0.0291,-1.0112,0.1509,0.7779,-0.6251,-0.0181,0.0619
262,0.0,0.0,0.0,0.0,0.0,0.0,-0.0266,-0.9995,0.1475,0.7780,-0.6249,-0.0181,0.0614
263,0.0,0.0,0.0,0.0,0.0,0.0,-0.0237,-0.9907,0.1426,0.7781,-0.6249,-0.0183,0.0610
264,0.0,0.0,0.0,0.0,0.0,0.0,-0.0213,-0.9873,0.1416,0.7782,-0.6248,-0.0186,0.0607
265,0.0,0.0,0.0,0.0,0.0,0.0,-0.0173,-0.9814,0.1402,0.7780,-0.6251,-0.0193,0.0603
266,0.0,0.0,0.0,0.0,0.0,0.0,-0.0198,-0.9814,0.1402,0.7775,-0.6257,-0.0200,0.0600
267,0.0,0.0,0.0,0.0,0.0,0.0,-0.0164,-0.9878,0.1407,0.7771,-0.6262,-0.0208,0.0599
268,0.0,0.0,0.0,0.0,0.0,0.0,-0.0149,-0.9926,0.1417,0.7769,-0.6265,-0.0216,0.0596
269,0.0,0.0,0.0,0.0,0.0,0.0,-0.0163,-0.9975,0.1431,0.7765,-0.6269,-0.0223,0.0595
270,0.0,0.0,0.0,0.0,0.0,0.0,-0.0149,-1.0136,0.1456,0.7760,-0.6274,-0.0232,0.0596
271,0.0,0.0,0.0,0.0,0.0,0.0,-0.0104,-1.0224,0.1441,0.7758,-0.6277,-0.0240,0.0595
272,0.0,0.0,0.0,0.0,0.0,0.0,-0.0031,-1.0161,0.1397,0.7759,-0.6276,-0.0246,0.0596
273,0.0,0.0,0.0,0.0,0.0,0.0,-0.0002,-1.0039,0.1324,0.7756,-0.6278,-0.0252,0.0597
274,0.0,0.0,0.0,0.0,0.0,0.0,-0.0183,-1.0004,0.1299,0.7751,-0.6285,-0.0248,0.0602
275,0.0,0.0,0.0,0.0,0.0,0.0,-0.0183,-0.9970,0.1270,0.7740,-0.6298,-0.0244,0.0608
276,0.0,0.0,0.0,0.0,0.0,0.0,0.0037,-1.0209,0.1309,0.7733,-0.6306,-0.0246,0.0613
277,0.0,0.0,0.0,0.0,0.0,0.0,0.0032,-1.0219,0.1256,0.7740,-0.6298,-0.0247,0.0612
278,0.0,0.0,0.0,0.0,0.0,0.0,-0.0139,-0.9965,0.1211,0.7746,-0.6290,-0.0250,0.0607
279,0.0,0.0,0.0,0.0,0.0,0.0,-0.0252,-1.0033,0.1270,0.7750,-0.6286,-0.0248,0.0605
280,0.0,0.0,0.0,0.0,0.0,0.0,-0.0208,-1.0092,0.1299,0.7754,-0.6281,-0.0244,0.0602
281,0.0,0.0,0.0,0.0,0.0,0.0,-0.0247,-1.0033,0.1319,0.7758,-0.6277,-0.0243,0.0600
282,0.0,0.0,0.0,0.0,0.0,0.0,-0.0247,-1.0024,0.1328,0.7760,-0.6274,-0.0243,0.0600
283,0.0,0.0,0.0,0.0,0.0,0.0,-0.0222,-1.0024,0.1348,0.7765,-0.6268,-0.0243,0.0601
284,0.0,0.0,0.0,0.0,0.0,0.0,-0.0173,-0.9985,0.1363,0.7769,-0.6262,-0.0247,0.0603
285,0.0,0.0,0.0,0.0,0.0,0.0,-0.0100,-0.9961,0.1368,0.7773,-0.6256,-0.0254,0.0608
286,0.0,0.0,0.0,0.0,0.0,0.0,-0.0041,-0.9931,0.1373,0.7778,-0.6249,-0.0260,0.0614
287,0.0,0.0,0.0,0.0,0.0,0.0,0.0003,-0.9961,0.1392,0.7781,-0.6245,-0.0270,0.0620
288,0.0,0.0,0.0,0.0,0.0,0.0,0.0057,-1.0019,0.1412,0.7782,-0.6243,-0.0281,0.0627
289,0.0,0.0,0.0,0.0,0.0,0.0,0.0062,-1.0000,0.1397,0.7783,-0.6240,-0.0289,0.0634
290,0.0,0.0,0.0,0.0,0.0,0.0,0.0081,-0.9922,0.1339,0.7784,-0.6238,-0.0297,0.0641
291,0.0,0.0,0.0,0.0,0.0,0.0,0.0076,-0.9927,0.1339,0.7783,-0.6238,-0.0305,0.0647
292,0.0,0.0,0.0,0.0,0.0,0.0,0.0032,-0.9946,0.1324,0.7779,-0.6242,-0.0310,0.0653
293,0.0,0.0,0.0,0.0,0.0,0.0,0.0042,-1.0014,0.1334,0.7777,-0.6244,-0.0315,0.0658
294,0.0,0.0,0.0,0.0,0.0,0.0,-0.0036,-1.0029,0.1309,0.7774,-0.6247,-0.0318,0.0661
295,0.0,0.0,0.0,0.0,0.0,0.0,-0.0061,-1.0068,0.1290,0.7768,-0.6255,-0.0318,0.0667
296,0.0,0.0,0.0,0.0,0.0,0.0,-0.0110,-1.0190,0.1299,0.7764,-0.6259,-0.0315,0.0673
297,0.0,0.0,0.0,0.0,0.0,0.0,-0.0115,-1.0136,0.1251,0.7762,-0.6261,-0.0309,0.0680
298,0.0,0.0,0.0,0.0,0.0,0.0,-0.0090,-1.0043,0.1177,0.7759,-0.6264,-0.0303,0.0685
299,0.0,0.0,0.0,0.0,0.0,0.0,-0.0071,-0.9965,0.1138,0.7755,-0.6268,-0.0297,0.0691
300,0.0,0.0,0.0,0.0,0.0,0.0,-0.0071,-0.9877,0.1079,0.7750,-0.6274,-0.0294,0.0696
301,0.0,0.0,0.0,0.0,0.0,0.0,-0.0047,-0.9853,0.1060,0.7745,-0.6281,-0.0292,0.0699
302,0.0,0.0,0.0,0.0,0.0,0.0,-0.0042,-0.9853,0.1045,0.7739,-0.6287,-0.0291,0.0700
303,0.0,0.0,0.0,0.0,0.0,0.0,-0.0061,-0.9921,0.1045,0.7731,-0.6297,-0.0291,0.0699
304,0.0,0.0,0.0,0.0,0.0,0.0,-0.0125,-1.0072,0.1065,0.7719,-0.6313,-0.0290,0.0697
305,0.0,0.0,0.0,0.0,0.0,0.0,-0.0227,-1.0189,0.1074,0.7705,-0.6330,-0.0284,0.0695
306,0.0,0.0,0.0,0.0,0.0,0.0,-0.0310,-1.0243,0.1084,0.7696,-0.6341,-0.0272,0.0695
307,0.0,0.0,0.0,0.0,0.0,0.0,-0.0399,-1.0204,0.1064,0.7691,-0.6348,-0.0255,0.0693
308,0.0,0.0,0.0,0.0,0.0,0.0,-0.0462,-1.0189,0.1094,0.7686,-0.6355,-0.0239,0.0692
309,0.0,0.0,0.0,0.0,0.0,0.0,-0.0506,-1.0101,0.1113,0.7685,-0.6358,-0.0221,0.0691
310,0.0,0.0,0.0,0.0,0.0,0.0,-0.0536,-1.0028,0.1123,0.7686,-0.6357,-0.0202,0.0690
311,0.0,0.0,0.0,0.0,0.0,0.0,-0.0526,-0.9926,0.1128,0.7685,-0.6358,-0.0188,0.0689
312,0.0,0.0,0.0,0.0,0.0,0.0,-0.0507,-0.9867,0.1137,0.7684,-0.6360,-0.0176,0.0689
313,0.0,0.0,0.0,0.0,0.0,0.0,-0.0531,-0.9877,0.1162,0.7686,-0.6358,-0.0164,0.0692
314,0.0,0.0,0.0,0.0,0.0,0.0,-0.0502,-0.9931,0.1181,0.7684,-0.6360,-0.0154,0.0692
315,0.0,0.0,0.0,0.0,0.0,0.0,-0.0467,-0.9931,0.1211,0.7681,-0.6364,-0.0146,0.0690
316,0.0,0.0,0.0,0.0,0.0,0.0,-0.0458,-0.9936,0.1191,0.7678,-0.6368,-0.0141,0.0688
317,0.0,0.0,0.0,0.0,0.0,0.0,-0.0463,-0.9887,0.1181,0.7674,-0.6373,-0.0137,0.0684
318,0.0,0.0,0.0,0.0,0.0,0.0,-0.0433,-0.9897,0.1186,0.7671,-0.6378,-0.0133,0.0680
319,0.0,0.0,0.0,0.0,0.0,0.0,-0.0414,-0.9916,0.1152,0.7665,-0.6385,-0.0132,0.0675
320,0.0,0.0,0.0,0.0,0.0,0.0,-0.0340,-0.9940,0.1143,0.7659,-0.6393,-0.0131,0.0670
321,0.0,0.0,0.0,0.0,0.0,0.0,-0.0355,-0.9994,0.1157,0.7652,-0.6402,-0.0131,0.0665
322,0.0,0.0,0.0,0.0,0.0,0.0,-0.0355,-1.0033,0.1133,0.7644,-0.6412,-0.0130,0.0661
323,0.0,0.0,0.0,0.0,0.0,0.0,-0.0369,-1.0072,0.1128,0.7636,-0.6422,-0.0129,0.0658
324,0.0,0.0,0.0,0.0,0.0,0.0,-0.0389,-1.0082,0.1108,0.7628,-0.6432,-0.0124,0.0655
325,0.0,0.0,0.0,0.0,0.0,0.0,-0.0399,-1.0067,0.1069,0.7621,-0.6441,-0.0120,0.0651
326,0.0,0.0,0.0,0.0,0.0,0.0,-0.0423,-1.0067,0.1040,0.7613,-0.6451,-0.0115,0.0649
327,0.0,0.0,0.0,0.0,0.0,0.0,-0.0443,-1.0057,0.1035,0.7608,-0.6457,-0.0108,0.0646
328,0.0,0.0,0.0,0.0,0.0,0.0,-0.0472,-1.0091,0.1025,0.7602,-0.6464,-0.0100,0.0643
329,0.0,0.0,0.0,0.0,0.0,0.0,-0.0472,-1.0135,0.1015,0.7598,-0.6470,-0.0093,0.0641
330,0.0,0.0,0.0,0.0,0.0,0.0,-0.0492,-1.0140,0.1025,0.7597,-0.6471,-0.0083,0.0638
331,0.0,0.0,0.0,0.0,0.0,0.0,-0.0600,-1.0111,0.1049,0.7597,-0.6471,-0.0070,0.0634
332,0.0,0.0,0.0,0.0,0.0,0.0,-0.0653,-1.0111,0.1083,0.7598,-0.6471,-0.0057,0.0632
333,0.0,0.0,0.0,0.0,0.0,0.0,-0.0663,-1.0086,0.1093,0.7599,-0.6469,-0.0044,0.0630
334,0.0,0.0,0.0,0.0,0.0,0.0,-0.0683,-0.9925,0.1078,0.7603,-0.6465,-0.0031,0.0628
335,0.0,0.0,0.0,0.0,0.0,0.0,-0.0683,-0.9945,0.1078,0.7608,-0.6460,-0.0020,0.0625
336,0.0,0.0,0.0,0.0,0.0,0.0,-0.0678,-1.0052,0.1079,0.7612,-0.6455,-0.0012,0.0622
337,0.0,0.0,0.0,0.0,0.0,0.0,-0.0673,-1.0077,0.1074,0.7617,-0.6450,-0.0005,0.0618
338,0.0,0.0,0.0,0.0,0.0,0.0,-0.0688,-1.0140,0.1059,0.7624,-0.6442,0.0003,0.0613
339,0.0,0.0,0.0,0.0,0.0,0.0,-0.0658,-1.0184,0.1079,0.7631,-0.6434,0.0007,0.0608
340,0.0,0.0,0.0,0.0,0.0,0.0,-0.0634,-1.0321,0.1127,0.7642,-0.6421,0.0011,0.0604
341,0.0,0.0,0.0,0.0,0.0,0.0,-0.0594,-1.0355,0.1142,0.7657,-0.6404,0.0015,0.0596
342,0.0,0.0,0.0,0.0,0.0,0.0,-0.0570,-1.0252,0.1157,0.7674,-0.6385,0.0018,0.0590
343,0.0,0.0,0.0,0.0,0.0,0.0,-0.0545,-1.0155,0.1196,0.7691,-0.6364,0.0021,0.0584
344,0.0,0.0,0.0,0.0,0.0,0.0,-0.0511,-1.0072,0.1216,0.7711,-0.6341,0.0023,0.0578
345,0.0,0.0,0.0,0.0,0.0,0.0,-0.0487,-1.0062,0.1235,0.7728,-0.6321,0.0022,0.0572
346,0.0,0.0,0.0,0.0,0.0,0.0,-0.0462,-0.9945,0.1250,0.7744,-0.6301,0.0018,0.0568
347,0.0,0.0,0.0,0.0,0.0,0.0,-0.0399,-0.9770,0.1250,0.7758,-0.6284,0.0011,0.0565
348,0.0,0.0,0.0,0.0,0.0,0.0,-0.0316,-0.9770,0.1255,0.7767,-0.6273,-0.0003,0.0563
349,0.0,0.0,0.0,0.0,0.0,0.0,-0.0203,-0.9833,0.1270,0.7773,-0.6266,-0.0021,0.0561
350,0.0,0.0,0.0,0.0,0.0,0.0,-0.0110,-0.9956,0.1309,0.7776,-0.6262,-0.0042,0.0562
351,0.0,0.0,0.0,0.0,0.0,0.0,-0.0041,-0.9902,0.1290,0.7778,-0.6260,-0.0061,0.0565
352,0.0,0.0,0.0,0.0,0.0,0.0,-0.0012,-0.9682,0.1226,0.7779,-0.6257,-0.0079,0.0567
353,0.0,0.0,0.0,0.0,0.0,0.0,0.0027,-0.9873,0.1221,0.7778,-0.6258,-0.0102,0.0570
354,0.0,0.0,0.0,0.0,0.0,0.0,-0.0007,-1.0024,0.1197,0.7775,-0.6261,-0.0121,0.0574
355,0.0,0.0,0.0,0.0,0.0,0.0,0.0017,-0.9751,0.1085,0.7772,-0.6264,-0.0136,0.0580
356,0.0,0.0,0.0,0.0,0.0,0.0,0.0129,-0.9624,0.1006,0.7763,-0.6275,-0.0157,0.0583
357,0.0,0.0,0.0,0.0,0.0,0.0,0.0027,-0.9833,0.1011,0.7750,-0.6290,-0.0177,0.0583
358,0.0,0.0,0.0,0.0,0.0,0.0,-0.0051,-0.9887,0.1016,0.7738,-0.6305,-0.0194,0.0582
359,0.0,0.0,0.0,0.0,0.0,0.0,0.0066,-0.9731,0.0904,0.7723,-0.6323,-0.0214,0.0581
360,0.0,0.0,0.0,0.0,0.0,0.0,0.0076,-1.0033,0.0889,0.7705,-0.6343,-0.0237,0.0577
361,0.0,0.0,0.0,0.0,0.0,0.0,0.0017,-0.9940,0.0874,0.7689,-0.6363,-0.0254,0.0572
362,0.0,0.0,0.0,0.0,0.0,0.0,0.0046,-0.9950,0.0855,0.7672,-0.6383,-0.0270,0.0568
363,0.0,0.0,0.0,0.0,0.0,0.0,0.0037,-1.0053,0.0884,0.7654,-0.6405,-0.0284,0.0563
364,0.0,0.0,0.0,0.0,0.0,0.0,0.0042,-1.0057,0.0855,0.7637,-0.6424,-0.0294,0.0559
365,0.0,0.0,0.0,0.0,0.0,0.0,0.0032,-1.0111,0.0796,0.7621,-0.6444,-0.0300,0.0555
366,0.0,0.0,0.0,0.0,0.0,0.0,-0.0007,-1.0243,0.0835,0.7602,-0.6466,-0.0303,0.0552
367,0.0,0.0,0.0,0.0,0.0,0.0,0.0008,-1.0321,0.0889,0.7585,-0.6487,-0.0303,0.0552
368,0.0,0.0,0.0,0.0,0.0,0.0,-0.0022,-1.0550,0.0884,0.7569,-0.6505,-0.0297,0.0553
369,0.0,0.0,0.0,0.0,0.0,0.0,-0.0081,-1.0369,0.0801,0.7557,-0.6519,-0.0284,0.0555
370,0.0,0.0,0.0,0.0,0.0,0.0,-0.0164,-1.0379,0.0781,0.7547,-0.6531,-0.0266,0.0558
371,0.0,0.0,0.0,0.0,0.0,0.0,-0.0267,-1.0442,0.0791,0.7539,-0.6542,-0.0241,0.0559
372,0.0,0.0,0.0,0.0,0.0,0.0,-0.0374,-1.0340,0.0776,0.7534,-0.6549,-0.0211,0.0562
373,0.0,0.0,0.0,0.0,0.0,0.0,-0.0404,-1.0198,0.0761,0.7531,-0.6552,-0.0179,0.0564
374,0.0,0.0,0.0,0.0,0.0,0.0,-0.0429,-0.9886,0.0737,0.7531,-0.6554,-0.0146,0.0564
375,0.0,0.0,0.0,0.0,0.0,0.0,-0.0517,-0.9847,0.0761,0.7531,-0.6554,-0.0114,0.0561
376,0.0,0.0,0.0,0.0,0.0,0.0,-0.0654,-1.0027,0.0790,0.7530,-0.6556,-0.0083,0.0556
377,0.0,0.0,0.0,0.0,0.0,0.0,-0.0752,-1.0203,0.0795,0.7529,-0.6558,-0.0052,0.0550
378,0.0,0.0,0.0,0.0,0.0,0.0,-0.0712,-1.0183,0.0790,0.7530,-0.6558,-0.0024,0.0544
379,0.0,0.0,0.0,0.0,0.0,0.0,-0.0722,-1.0071,0.0785,0.7532,-0.6556,0.0004,0.0536
380,0.0,0.0,0.0,0.0,0.0,0.0,-0.0752,-1.0018,0.0770,0.7535,-0.6553,0.0029,0.0529
381,0.0,0.0,0.0,0.0,0.0,0.0,-0.0781,-0.9998,0.0731,0.7537,-0.6551,0.0054,0.0521
382,0.0,0.0,0.0,0.0,0.0,0.0,-0.0806,-0.9905,0.0707,0.7539,-0.6549,0.0074,0.0515
383,0.0,0.0,0.0,0.0,0.0,0.0,-0.0772,-0.9974,0.0682,0.7540,-0.6548,0.0089,0.0509
384,0.0,0.0,0.0,0.0,0.0,0.0,-0.0752,-1.0076,0.0643,0.7539,-0.6549,0.0098,0.0503
385,0.0,0.0,0.0,0.0,0.0,0.0,-0.0659,-0.9832,0.0644,0.7541,-0.6548,0.0101,0.0499
386,0.0,0.0,0.0,0.0,0.0,0.0,-0.0546,-0.9852,0.0678,0.7541,-0.6548,0.0096,0.0494
387,0.0,0.0,0.0,0.0,0.0,0.0,-0.0532,-1.0023,0.0707,0.7540,-0.6550,0.0087,0.0489
388,0.0,0.0,0.0,0.0,0.0,0.0,-0.0541,-1.0071,0.0698,0.7539,-0.6552,0.0074,0.0485
389,0.0,0.0,0.0,0.0,0.0,0.0,-0.0531,-1.0145,0.0722,0.7539,-0.6552,0.0059,0.0482
390,0.0,0.0,0.0,0.0,0.0,0.0,-0.0467,-1.0340,0.0810,0.7543,-0.6547,0.0042,0.0480
391,0.0,0.0,0.0,0.0,0.0,0.0,-0.0487,-1.0442,0.0825,0.7550,-0.6540,0.0028,0.0481
392,0.0,0.0,0.0,0.0,0.0,0.0,-0.0502,-1.0257,0.0810,0.7559,-0.6529,0.0019,0.0483
393,0.0,0.0,0.0,0.0,0.0,0.0,-0.0399,-0.9984,0.0825,0.7571,-0.6515,0.0005,0.0486
394,0.0,0.0,0.0,0.0,0.0,0.0,-0.0316,-0.9803,0.0840,0.7582,-0.6502,-0.0015,0.0490
395,0.0,0.0,0.0,0.0,0.0,0.0,-0.0248,-0.9594,0.0840,0.7592,-0.6490,-0.0040,0.0496
396,0.0,0.0,0.0,0.0,0.0,0.0,-0.0135,-0.9404,0.0791,0.7598,-0.6482,-0.0071,0.0501
397,0.0,0.0,0.0,0.0,0.0,0.0,-0.0033,-0.9545,0.0777,0.7599,-0.6479,-0.0108,0.0506
398,0.0,0.0,0.0,0.0,0.0,0.0,0.0056,-0.9740,0.0777,0.7596,-0.6482,-0.0150,0.0510
399,0.0,0.0,0.0,0.0,0.0,0.0,0.0086,-1.0053,0.0801,0.7591,-0.6487,-0.0192,0.0512
400,0.0,0.0,0.0,0.0,0.0,0.0,0.0154,-1.0184,0.0826,0.7587,-0.6490,-0.0235,0.0512
401,0.0,0.0,0.0,0.0,0.0,0.0,0.0193,-1.0209,0.0753,0.7584,-0.6492,-0.0275,0.0513
402,0.0,0.0,0.0,0.0,0.0,0.0,0.0213,-1.0282,0.0728,0.7583,-0.6492,-0.0310,0.0512
403,0.0,0.0,0.0,0.0,0.0,0.0,0.0233,-1.0257,0.0714,0.7580,-0.6494,-0.0343,0.0511
404,0.0,0.0,0.0,0.0,0.0,0.0,0.0282,-1.0345,0.0733,0.7579,-0.6493,-0.0375,0.0510
405,0.0,0.0,0.0,0.0,0.0,0.0,0.0306,-1.0477,0.0777,0.7582,-0.6488,-0.0404,0.0509
406,0.0,0.0,0.0,0.0,0.0,0.0,0.0331,-1.0472,0.0792,0.7585,-0.6482,-0.0427,0.0509
407,0.0,0.0,0.0,0.0,0.0,0.0,0.0370,-1.0448,0.0787,0.7592,-0.6473,-0.0444,0.0510
408,0.0,0.0,0.0,0.0,0.0,0.0,0.0409,-1.0389,0.0782,0.7599,-0.6464,-0.0453,0.0513
409,0.0,0.0,0.0,0.0,0.0,0.0,0.0433,-1.0375,0.0787,0.7604,-0.6458,-0.0457,0.0518
410,0.0,0.0,0.0,0.0,0.0,0.0,0.0467,-1.0097,0.0743,0.7609,-0.6452,-0.0456,0.0523
411,0.0,0.0,0.0,0.0,0.0,0.0,0.0448,-0.9931,0.0704,0.7608,-0.6452,-0.0453,0.0532
412,0.0,0.0,0.0,0.0,0.0,0.0,0.0472,-1.0082,0.0758,0.7606,-0.6454,-0.0448,0.0542
413,0.0,0.0,0.0,0.0,0.0,0.0,0.0394,-1.0228,0.0812,0.7606,-0.6454,-0.0438,0.0552
414,0.0,0.0,0.0,0.0,0.0,0.0,0.0188,-1.0072,0.0772,0.7603,-0.6457,-0.0418,0.0561
415,0.0,0.0,0.0,0.0,0.0,0.0,0.0125,-0.9921,0.0747,0.7598,-0.6465,-0.0393,0.0572
416,0.0,0.0,0.0,0.0,0.0,0.0,0.0056,-0.9794,0.0703,0.7588,-0.6477,-0.0366,0.0583
417,0.0,0.0,0.0,0.0,0.0,0.0,-0.0037,-0.9701,0.0654,0.7575,-0.6493,-0.0338,0.0590
418,0.0,0.0,0.0,0.0,0.0,0.0,-0.0145,-0.9730,0.0600,0.7561,-0.6511,-0.0312,0.0593
419,0.0,0.0,0.0,0.0,0.0,0.0,-0.0214,-0.9862,0.0561,0.7545,-0.6530,-0.0289,0.0593
420,0.0,0.0,0.0,0.0,0.0,0.0,-0.0297,-1.0066,0.0556,0.7530,-0.6548,-0.0264,0.0591
421,0.0,0.0,0.0,0.0,0.0,0.0,-0.0370,-1.0110,0.0522,0.7518,-0.6563,-0.0237,0.0587
422,0.0,0.0,0.0,0.0,0.0,0.0,-0.0370,-1.0076,0.0483,0.7509,-0.6575,-0.0212,0.0583
423,0.0,0.0,0.0,0.0,0.0,0.0,-0.0360,-1.0037,0.0468,0.7501,-0.6585,-0.0189,0.0578
424,0.0,0.0,0.0,0.0,0.0,0.0,-0.0375,-1.0086,0.0473,0.7492,-0.6597,-0.0170,0.0572
425,0.0,0.0,0.0,0.0,0.0,0.0,-0.0414,-1.0256,0.0478,0.7485,-0.6605,-0.0152,0.0566
426,0.0,0.0,0.0,0.0,0.0,0.0,-0.0400,-1.0105,0.0468,0.7479,-0.6613,-0.0136,0.0559
427,0.0,0.0,0.0,0.0,0.0,0.0,-0.0331,-1.0037,0.0454,0.7472,-0.6622,-0.0124,0.0555
428,0.0,0.0,0.0,0.0,0.0,0.0,-0.0321,-1.0071,0.0463,0.7468,-0.6627,-0.0112,0.0550
429,0.0,0.0,0.0,0.0,0.0,0.0,-0.0351,-1.0105,0.0483,0.7463,-0.6633,-0.0100,0.0545
430,0.0,0.0,0.0,0.0,0.0,0.0,-0.0331,-0.9959,0.0454,0.7456,-0.6641,-0.0089,0.0541
431,0.0,0.0,0.0,0.0,0.0,0.0,-0.0419,-1.0081,0.0483,0.7450,-0.6649,-0.0077,0.0536
432,0.0,0.0,0.0,0.0,0.0,0.0,-0.0492,-1.0203,0.0522,0.7446,-0.6654,-0.0062,0.0529
433,0.0,0.0,0.0,0.0,0.0,0.0,-0.0551,-1.0271,0.0546,0.7445,-0.6656,-0.0048,0.0523
434,0.0,0.0,0.0,0.0,0.0,0.0,-0.0644,-1.0325,0.0541,0.7445,-0.6656,-0.0035,0.0516
435,0.0,0.0,0.0,0.0,0.0,0.0,-0.0747,-1.0310,0.0546,0.7448,-0.6653,-0.0023,0.0510
436,0.0,0.0,0.0,0.0,0.0,0.0,-0.0752,-1.0290,0.0575,0.7458,-0.6643,-0.0014,0.0504
437,0.0,0.0,0.0,0.0,0.0,0.0,-0.0737,-1.0315,0.0604,0.7472,-0.6627,-0.0009,0.0499
438,0.0,0.0,0.0,0.0,0.0,0.0,-0.0708,-1.0222,0.0658,0.7492,-0.6605,-0.0010,0.0493
439,0.0,0.0,0.0,0.0,0.0,0.0,-0.0580,-1.0042,0.0697,0.7514,-0.6580,-0.0019,0.0487
440,0.0,0.0,0.0,0.0,0.0,0.0,-0.0507,-1.0096,0.0776,0.7537,-0.6555,-0.0038,0.0482
441,0.0,0.0,0.0,0.0,0.0,0.0,-0.0370,-1.0003,0.0854,0.7559,-0.6528,-0.0064,0.0480
442,0.0,0.0,0.0,0.0,0.0,0.0,-0.0257,-1.0101,0.0967,0.7582,-0.6502,-0.0094,0.0480
443,0.0,0.0,0.0,0.0,0.0,0.0,-0.0125,-1.0019,0.1035,0.7606,-0.6474,-0.0126,0.0483
444,0.0,0.0,0.0,0.0,0.0,0.0,0.0002,-0.9887,0.1050,0.7628,-0.6445,-0.0160,0.0493
445,0.0,0.0,0.0,0.0,0.0,0.0,0.0115,-0.9794,0.1050,0.7645,-0.6423,-0.0194,0.0507
446,0.0,0.0,0.0,0.0,0.0,0.0,0.0262,-0.9638,0.1031,0.7658,-0.6406,-0.0230,0.0523
447,0.0,0.0,0.0,0.0,0.0,0.0,0.0433,-0.9531,0.1007,0.7663,-0.6396,-0.0270,0.0543
448,0.0,0.0,0.0,0.0,0.0,0.0,0.0560,-0.9551,0.0978,0.7660,-0.6396,-0.0313,0.0562
449,0.0,0.0,0.0,0.0,0.0,0.0,0.0595,-0.9980,0.1032,0.7653,-0.6401,-0.0354,0.0580
450,0.0,0.0,0.0,0.0,0.0,0.0,0.0502,-1.0161,0.0993,0.7643,-0.6410,-0.0385,0.0595
451,0.0,0.0,0.0,0.0,0.0,0.0,0.0517,-1.0229,0.0890,0.7632,-0.6419,-0.0407,0.0614
452,0.0,0.0,0.0,0.0,0.0,0.0,0.0463,-1.0131,0.0826,0.7623,-0.6428,-0.0421,0.0629
453,0.0,0.0,0.0,0.0,0.0,0.0,0.0482,-0.9892,0.0675,0.7609,-0.6443,-0.0435,0.0639
454,0.0,0.0,0.0,0.0,0.0,0.0,0.0389,-1.0033,0.0655,0.7593,-0.6460,-0.0445,0.0648
455,0.0,0.0,0.0,0.0,0.0,0.0,0.0301,-1.0067,0.0626,0.7580,-0.6474,-0.0448,0.0653
456,0.0,0.0,0.0,0.0,0.0,0.0,0.0261,-1.0004,0.0557,0.7567,-0.6489,-0.0448,0.0652
457,0.0,0.0,0.0,0.0,0.0,0.0,0.0173,-1.0081,0.0498,0.7550,-0.6509,-0.0445,0.0648
458,0.0,0.0,0.0,0.0,0.0,0.0,0.0056,-1.0208,0.0488,0.7533,-0.6530,-0.0437,0.0642
459,0.0,0.0,0.0,0.0,0.0,0.0,-0.0022,-1.0257,0.0459,0.7517,-0.6551,-0.0424,0.0633
460,0.0,0.0,0.0,0.0,0.0,0.0,-0.0096,-1.0276,0.0425,0.7502,-0.6570,-0.0408,0.0623
461,0.0,0.0,0.0,0.0,0.0,0.0,-0.0209,-1.0256,0.0332,0.7493,-0.6583,-0.0386,0.0614
462,0.0,0.0,0.0,0.0,0.0,0.0,-0.0258,-1.0251,0.0204,0.7483,-0.6596,-0.0363,0.0603
463,0.0,0.0,0.0,0.0,0.0,0.0,-0.0331,-1.0334,0.0146,0.7473,-0.6610,-0.0339,0.0589
464,0.0,0.0,0.0,0.0,0.0,0.0,-0.0414,-1.0427,0.0097,0.7467,-0.6620,-0.0315,0.0574
465,0.0,0.0,0.0,0.0,0.0,0.0,-0.0458,-1.0509,0.0087,0.7463,-0.6626,-0.0293,0.0556
466,0.0,0.0,0.0,0.0,0.0,0.0,-0.0512,-1.0563,0.0101,0.7464,-0.6628,-0.0273,0.0536
467,0.0,0.0,0.0,0.0,0.0,0.0,-0.0473,-1.0466,0.0116,0.7472,-0.6621,-0.0256,0.0513
468,0.0,0.0,0.0,0.0,0.0,0.0,-0.0414,-1.0319,0.0185,0.7486,-0.6608,-0.0243,0.0488
469,0.0,0.0,0.0,0.0,0.0,0.0,-0.0331,-1.0203,0.0282,0.7504,-0.6590,-0.0235,0.0462
470,0.0,0.0,0.0,0.0,0.0,0.0,-0.0243,-1.0027,0.0375,0.7527,-0.6566,-0.0231,0.0435
471,0.0,0.0,0.0,0.0,0.0,0.0,-0.0194,-0.9910,0.0483,0.7551,-0.6539,-0.0230,0.0408
472,0.0,0.0,0.0,0.0,0.0,0.0,-0.0101,-0.9872,0.0615,0.7573,-0.6515,-0.0236,0.0383
473,0.0,0.0,0.0,0.0,0.0,0.0,-0.0022,-0.9926,0.0737,0.7594,-0.6492,-0.0246,0.0362
474,0.0,0.0,0.0,0.0,0.0,0.0,0.0159,-1.0043,0.0894,0.7615,-0.6467,-0.0261,0.0348
475,0.0,0.0,0.0,0.0,0.0,0.0,0.0301,-1.0034,0.1002,0.7635,-0.6443,-0.0275,0.0339
476,0.0,0.0,0.0,0.0,0.0,0.0,0.0477,-0.9922,0.1061,0.7651,-0.6424,-0.0291,0.0339
477,0.0,0.0,0.0,0.0,0.0,0.0,0.0595,-0.9922,0.1115,0.7661,-0.6411,-0.0307,0.0346
478,0.0,0.0,0.0,0.0,0.0,0.0,0.0639,-0.9810,0.1169,0.7667,-0.6402,-0.0321,0.0361
479,0.0,0.0,0.0,0.0,0.0,0.0,0.0590,-0.9805,0.1173,0.7671,-0.6396,-0.0330,0.0380
480,0.0,0.0,0.0,0.0,0.0,0.0,0.0517,-0.9927,0.1178,0.7670,-0.6396,-0.0338,0.0402
481,0.0,0.0,0.0,0.0,0.0,0.0,0.0434,-1.0044,0.1154,0.7663,-0.6401,-0.0344,0.0428
482,0.0,0.0,0.0,0.0,0.0,0.0,0.0365,-1.0058,0.1114,0.7658,-0.6406,-0.0348,0.0454
483,0.0,0.0,0.0,0.0,0.0,0.0,0.0291,-0.9897,0.1085,0.7651,-0.6411,-0.0350,0.0482
484,0.0,0.0,0.0,0.0,0.0,0.0,0.0287,-1.0058,0.1085,0.7642,-0.6419,-0.0355,0.0510
485,0.0,0.0,0.0,0.0,0.0,0.0,0.0140,-0.9907,0.1075,0.7634,-0.6427,-0.0358,0.0535
486,0.0,0.0,0.0,0.0,0.0,0.0,0.0066,-0.9775,0.1065,0.7633,-0.6426,-0.0360,0.0559
487,0.0,0.0,0.0,0.0,0.0,0.0,0.0062,-1.0053,0.1158,0.7636,-0.6421,-0.0367,0.0581
488,0.0,0.0,0.0,0.0,0.0,0.0,0.0106,-1.0199,0.1197,0.7636,-0.6418,-0.0380,0.0600
489,0.0,0.0,0.0,0.0,0.0,0.0,0.0071,-1.0073,0.1143,0.7638,-0.6413,-0.0392,0.0616
490,0.0,0.0,0.0,0.0,0.0,0.0,0.0155,-1.0053,0.1148,0.7645,-0.6403,-0.0404,0.0627
491,0.0,0.0,0.0,0.0,0.0,0.0,0.0194,-1.0190,0.1144,0.7653,-0.6392,-0.0417,0.0634
492,0.0,0.0,0.0,0.0,0.0,0.0,0.0208,-1.0141,0.1070,0.7663,-0.6378,-0.0430,0.0637
493,0.0,0.0,0.0,0.0,0.0,0.0,0.0262,-1.0287,0.1129,0.7681,-0.6356,-0.0442,0.0638
494,0.0,0.0,0.0,0.0,0.0,0.0,0.0370,-1.0156,0.1119,0.7701,-0.6330,-0.0457,0.0637
495,0.0,0.0,0.0,0.0,0.0,0.0,0.0287,-1.0029,0.1046,0.7717,-0.6310,-0.0471,0.0639
496,0.0,0.0,0.0,0.0,0.0,0.0,0.0203,-1.0155,0.1021,0.7731,-0.6291,-0.0483,0.0646
497,0.0,0.0,0.0,0.0,0.0,0.0,0.0379,-0.9887,0.1022,0.7744,-0.6273,-0.0500,0.0659
498,0.0,0.0,0.0,0.0,0.0,0.0,0.0565,-0.9785,0.1066,0.7749,-0.6262,-0.0521,0.0679
499,0.0,0.0,0.0,0.0,0.0,0.0,0.0570,-0.9697,0.1071,0.7748,-0.6260,-0.0541,0.0701
500,0.0,0.0,0.0,0.0,0.0,0.0,0.0624,-0.9370,0.0973,0.7740,-0.6265,-0.0564,0.0725
501,0.0,0.0,0.0,0.0,0.0,0.0,0.0644,-0.9746,0.1012,0.7724,-0.6280,-0.0586,0.0750
502,0.0,0.0,0.0,0.0,0.0,0.0,0.0604,-0.9634,0.0939,0.7702,-0.6302,-0.0606,0.0774
503,0.0,0.0,0.0,0.0,0.0,0.0,0.0589,-0.9585,0.0822,0.7677,-0.6327,-0.0624,0.0799
504,0.0,0.0,0.0,0.0,0.0,0.0,0.0487,-0.9653,0.0777,0.7649,-0.6358,-0.0638,0.0820
505,0.0,0.0,0.0,0.0,0.0,0.0,0.0349,-0.9687,0.0679,0.7616,-0.6393,-0.0649,0.0839
506,0.0,0.0,0.0,0.0,0.0,0.0,0.0217,-0.9716,0.0533,0.7580,-0.6433,-0.0656,0.0854
507,0.0,0.0,0.0,0.0,0.0,0.0,0.0050,-0.9784,0.0400,0.7540,-0.6478,-0.0662,0.0867
508,0.0,0.0,0.0,0.0,0.0,0.0,-0.0126,-0.9910,0.0288,0.7496,-0.6526,-0.0667,0.0878
509,0.0,0.0,0.0,0.0,0.0,0.0,-0.0321,-1.0154,0.0214,0.7450,-0.6577,-0.0670,0.0890
510,0.0,0.0,0.0,0.0,0.0,0.0,-0.0419,-1.0300,0.0141,0.7408,-0.6622,-0.0671,0.0903
511,0.0,0.0,0.0,0.0,0.0,0.0,-0.0429,-1.0227,0.0033,0.7370,-0.6663,-0.0674,0.0914
512,0.0,0.0,0.0,0.0,0.0,0.0,-0.0434,-1.0241,-0.0026,0.7335,-0.6699,-0.0678,0.0927
513,0.0,0.0,0.0,0.0,0.0,0.0,-0.0410,-1.0280,-0.0045,0.7301,-0.6734,-0.0686,0.0938
514,0.0,0.0,0.0,0.0,0.0,0.0,-0.0444,-1.0280,-0.0074,0.7269,-0.6767,-0.0692,0.0950
515,0.0,0.0,0.0,0.0,0.0,0.0,-0.0429,-1.0334,-0.0070,0.7237,-0.6798,-0.0694,0.0964
516,0.0,0.0,0.0,0.0,0.0,0.0,-0.0194,-1.0431,-0.0050,0.7210,-0.6824,-0.0704,0.0974
517,0.0,0.0,0.0,0.0,0.0,0.0,-0.0160,-1.0602,0.0004,0.7194,-0.6839,-0.0714,0.0980
518,0.0,0.0,0.0,0.0,0.0,0.0,-0.0292,-1.0578,-0.0045,0.7187,-0.6846,-0.0713,0.0983
519,0.0,0.0,0.0,0.0,0.0,0.0,-0.0248,-1.0602,-0.0050,0.7179,-0.6855,-0.0709,0.0984
520,0.0,0.0,0.0,0.0,0.0,0.0,-0.0292,-1.0607,-0.0059,0.7174,-0.6862,-0.0699,0.0983
521,0.0,0.0,0.0,0.0,0.0,0.0,-0.0375,-1.0475,-0.0109,0.7174,-0.6864,-0.0682,0.0979
522,0.0,0.0,0.0,0.0,0.0,0.0,-0.0429,-1.0373,-0.0109,0.7181,-0.6859,-0.0659,0.0975
523,0.0,0.0,0.0,0.0,0.0,0.0,-0.0503,-1.0275,-0.0089,0.7190,-0.6853,-0.0635,0.0969
524,0.0,0.0,0.0,0.0,0.0,0.0,-0.0542,-1.0207,-0.0040,0.7197,-0.6849,-0.0611,0.0963
525,0.0,0.0,0.0,0.0,0.0,0.0,-0.0606,-1.0124,-0.0036,0.7203,-0.6845,-0.0586,0.0956
526,0.0,0.0,0.0,0.0,0.0,0.0,-0.0792,-0.9938,-0.0104,0.7205,-0.6847,-0.0556,0.0951
527,0.0,0.0,0.0,0.0,0.0,0.0,-0.0557,-0.9914,-0.0089,0.7197,-0.6857,-0.0537,0.0946
528,0.0,0.0,0.0,0.0,0.0,0.0,-0.0336,-1.0349,0.0038,0.7202,-0.6854,-0.0523,0.0938
529,0.0,0.0,0.0,0.0,0.0,0.0,-0.0282,-1.0309,-0.0025,0.7218,-0.6840,-0.0515,0.0925
530,0.0,0.0,0.0,0.0,0.0,0.0,-0.0415,-1.0275,0.0009,0.7232,-0.6827,-0.0510,0.0910
531,0.0,0.0,0.0,0.0,0.0,0.0,-0.0425,-1.0192,-0.0006,0.7244,-0.6817,-0.0498,0.0895
532,0.0,0.0,0.0,0.0,0.0,0.0,-0.0332,-1.0168,-0.0025,0.7250,-0.6814,-0.0486,0.0880
533,0.0,0.0,0.0,0.0,0.0,0.0,-0.0312,-0.9924,-0.0074,0.7254,-0.6812,-0.0474,0.0866
534,0.0,0.0,0.0,0.0,0.0,0.0,-0.0263,-0.9929,-0.0079,0.7259,-0.6809,-0.0464,0.0854
535,0.0,0.0,0.0,0.0,0.0,0.0,-0.0248,-1.0051,-0.0064,0.7266,-0.6804,-0.0452,0.0841
536,0.0,0.0,0.0,0.0,0.0,0.0,-0.0263,-1.0046,-0.0060,0.7271,-0.6800,-0.0438,0.0830
537,0.0,0.0,0.0,0.0,0.0,0.0,-0.0288,-1.0129,-0.0045,0.7279,-0.6795,-0.0423,0.0819
538,0.0,0.0,0.0,0.0,0.0,0.0,-0.0312,-1.0207,-0.0055,0.7286,-0.6789,-0.0406,0.0810
539,0.0,0.0,0.0,0.0,0.0,0.0,-0.0234,-1.0231,-0.0050,0.7293,-0.6784,-0.0389,0.0800
540,0.0,0.0,0.0,0.0,0.0,0.0,-0.0214,-1.0168,-0.0020,0.7299,-0.6780,-0.0374,0.0791
541,0.0,0.0,0.0,0.0,0.0,0.0,-0.0282,-1.0275,0.0019,0.7302,-0.6778,-0.0358,0.0782
542,0.0,0.0,0.0,0.0,0.0,0.0,-0.0287,-1.0519,0.0112,0.7310,-0.6772,-0.0338,0.0776
543,0.0,0.0,0.0,0.0,0.0,0.0,-0.0316,-1.0397,0.0136,0.7320,-0.6762,-0.0314,0.0769
544,0.0,0.0,0.0,0.0,0.0,0.0,-0.0316,-1.0393,0.0175,0.7333,-0.6749,-0.0288,0.0766
545,0.0,0.0,0.0,0.0,0.0,0.0,-0.0297,-1.0510,0.0248,0.7348,-0.6734,-0.0255,0.0765
546,0.0,0.0,0.0,0.0,0.0,0.0,-0.0321,-1.0105,0.0292,0.7366,-0.6717,-0.0218,0.0765
547,0.0,0.0,0.0,0.0,0.0,0.0,-0.0439,-1.0008,0.0395,0.7384,-0.6698,-0.0180,0.0762
548,0.0,0.0,0.0,0.0,0.0,0.0,-0.0434,-0.9925,0.0463,0.7403,-0.6679,-0.0140,0.0760
549,0.0,0.0,0.0,0.0,0.0,0.0,-0.0453,-0.9983,0.0546,0.7420,-0.6660,-0.0096,0.0761
550,0.0,0.0,0.0,0.0,0.0,0.0,-0.0371,-0.9676,0.0517,0.7431,-0.6649,-0.0054,0.0760
551,0.0,0.0,0.0,0.0,0.0,0.0,-0.0371,-0.9554,0.0502,0.7439,-0.6640,-0.0013,0.0754
552,0.0,0.0,0.0,0.0,0.0,0.0,-0.0434,-0.9701,0.0551,0.7444,-0.6635,0.0025,0.0745
553,0.0,0.0,0.0,0.0,0.0,0.0,-0.0414,-1.0052,0.0580,0.7448,-0.6632,0.0062,0.0732
554,0.0,0.0,0.0,0.0,0.0,0.0,-0.0610,-1.0052,0.0590,0.7452,-0.6628,0.0113,0.0717
555,0.0,0.0,0.0,0.0,0.0,0.0,-0.0733,-0.9812,0.0526,0.7453,-0.6629,0.0160,0.0697
556,0.0,0.0,0.0,0.0,0.0,0.0,-0.0777,-1.0007,0.0477,0.7449,-0.6635,0.0201,0.0671
557,0.0,0.0,0.0,0.0,0.0,0.0,-0.0869,-1.0241,0.0453,0.7442,-0.6644,0.0243,0.0643
558,0.0,0.0,0.0,0.0,0.0,0.0,-0.0972,-1.0100,0.0394,0.7436,-0.6651,0.0291,0.0617
559,0.0,0.0,0.0,0.0,0.0,0.0,-0.0939,-0.9563,0.0335,0.7432,-0.6656,0.0338,0.0590
560,0.0,0.0,0.0,0.0,0.0,0.0,-0.0880,-0.9549,0.0355,0.7429,-0.6660,0.0375,0.0556
561,0.0,0.0,0.0,0.0,0.0,0.0,-0.1021,-1.0163,0.0413,0.7429,-0.6662,0.0405,0.0516
562,0.0,0.0,0.0,0.0,0.0,0.0,-0.1056,-1.0222,0.0428,0.7434,-0.6657,0.0437,0.0476
563,0.0,0.0,0.0,0.0,0.0,0.0,-0.0963,-1.0051,0.0433,0.7434,-0.6658,0.0464,0.0440
564,0.0,0.0,0.0,0.0,0.0,0.0,-0.1227,-1.0339,0.0540,0.7438,-0.6654,0.0493,0.0408
565,0.0,0.0,0.0,0.0,0.0,0.0,-0.0949,-0.9427,0.0413,0.7440,-0.6651,0.0510,0.0377
566,0.0,0.0,0.0,0.0,0.0,0.0,-0.0865,-0.9642,0.0555,0.7438,-0.6656,0.0510,0.0345
567,0.0,0.0,0.0,0.0,0.0,0.0,-0.0973,-0.9798,0.0604,0.7438,-0.6658,0.0504,0.0308
568,0.0,0.0,0.0,0.0,0.0,0.0,-0.0939,-0.9578,0.0516,0.7442,-0.6656,0.0496,0.0273
569,0.0,0.0,0.0,0.0,0.0,0.0,-0.0841,-0.9607,0.0472,0.7446,-0.6653,0.0483,0.0240
570,0.0,0.0,0.0,0.0,0.0,0.0,-0.0840,-1.0173,0.0609,0.7452,-0.6649,0.0465,0.0212
571,0.0,0.0,0.0,0.0,0.0,0.0,-0.0825,-1.0564,0.0678,0.7459,-0.6643,0.0447,0.0183
572,0.0,0.0,0.0,0.0,0.0,0.0,-0.0761,-1.0705,0.0678,0.7466,-0.6637,0.0434,0.0156
573,0.0,0.0,0.0,0.0,0.0,0.0,-0.0722,-1.0456,0.0668,0.7475,-0.6628,0.0426,0.0130
574,0.0,0.0,0.0,0.0,0.0,0.0,-0.0605,-1.0022,0.0600,0.7481,-0.6622,0.0415,0.0105
575,0.0,0.0,0.0,0.0,0.0,0.0,-0.0576,-1.0076,0.0654,0.7488,-0.6615,0.0401,0.0083
576,0.0,0.0,0.0,0.0,0.0,0.0,-0.0537,-0.9788,0.0605,0.7494,-0.6610,0.0384,0.0063
577,0.0,0.0,0.0,0.0,0.0,0.0,-0.0473,-0.9983,0.0590,0.7496,-0.6609,0.0362,0.0046
578,0.0,0.0,0.0,0.0,0.0,0.0,-0.0424,-0.9813,0.0590,0.7497,-0.6610,0.0335,0.0031
579,0.0,0.0,0.0,0.0,0.0,0.0,-0.0448,-1.0076,0.0703,0.7497,-0.6610,0.0307,0.0020
580,0.0,0.0,0.0,0.0,0.0,0.0,-0.0374,-1.0354,0.0786,0.7502,-0.6606,0.0277,0.0015
581,0.0,0.0,0.0,0.0,0.0,0.0,-0.0218,-1.0408,0.0850,0.7511,-0.6598,0.0245,0.0012
582,0.0,0.0,0.0,0.0,0.0,0.0,-0.0120,-1.0291,0.0816,0.7520,-0.6589,0.0213,0.0013
583,0.0,0.0,0.0,0.0,0.0,0.0,-0.0032,-1.0091,0.0767,0.7527,-0.6581,0.0180,0.0018
584,0.0,0.0,0.0,0.0,0.0,0.0,0.0129,-0.9960,0.0762,0.7533,-0.6575,0.0144,0.0028
585,0.0,0.0,0.0,0.0,0.0,0.0,0.0169,-1.0058,0.0831,0.7542,-0.6566,0.0109,0.0041
586,0.0,0.0,0.0,0.0,0.0,0.0,0.0154,-1.0082,0.0836,0.7548,-0.6558,0.0079,0.0058
587,0.0,0.0,0.0,0.0,0.0,0.0,0.0208,-1.0145,0.0860,0.7552,-0.6555,0.0046,0.0077
588,0.0,0.0,0.0,0.0,0.0,0.0,0.0277,-1.0097,0.0826,0.7555,-0.6550,0.0016,0.0098
589,0.0,0.0,0.0,0.0,0.0,0.0,0.0262,-1.0082,0.0782,0.7559,-0.6546,-0.0010,0.0120
590,0.0,0.0,0.0,0.0,0.0,0.0,0.0281,-1.0131,0.0777,0.7561,-0.6542,-0.0034,0.0145
591,0.0,0.0,0.0,0.0,0.0,0.0,0.0262,-1.0077,0.0782,0.7563,-0.6539,-0.0056,0.0170
592,0.0,0.0,0.0,0.0,0.0,0.0,0.0291,-0.9984,0.0723,0.7565,-0.6537,-0.0077,0.0196
593,0.0,0.0,0.0,0.0,0.0,0.0,0.0350,-0.9970,0.0660,0.7565,-0.6536,-0.0098,0.0220
594,0.0,0.0,0.0,0.0,0.0,0.0,0.0350,-1.0048,0.0631,0.7563,-0.6537,-0.0118,0.0243
595,0.0,0.0,0.0,0.0,0.0,0.0,0.0364,-1.0106,0.0596,0.7559,-0.6540,-0.0139,0.0263
596,0.0,0.0,0.0,0.0,0.0,0.0,0.0384,-1.0082,0.0538,0.7557,-0.6541,-0.0157,0.0280
597,0.0,0.0,0.0,0.0,0.0,0.0,0.0350,-1.0082,0.0494,0.7551,-0.6547,-0.0175,0.0296
598,0.0,0.0,0.0,0.0,0.0,0.0,0.0335,-1.0047,0.0435,0.7543,-0.6555,-0.0194,0.0308
599,0.0,0.0,0.0,0.0,0.0,0.0,0.0330,-1.0028,0.0391,0.7534,-0.6564,-0.0212,0.0317
600,0.0,0.0,0.0,0.0,0.0,0.0,0.0217,-1.0257,0.0440,0.7527,-0.6572,-0.0226,0.0325
601,0.0,0.0,0.0,0.0,0.0,0.0,0.0154,-1.0315,0.0454,0.7523,-0.6576,-0.0237,0.0333
602,0.0,0.0,0.0,0.0,0.0,0.0,0.0149,-1.0198,0.0430,0.7520,-0.6578,-0.0247,0.0341
603,0.0,0.0,0.0,0.0,0.0,0.0,0.0134,-1.0179,0.0425,0.7517,-0.6581,-0.0256,0.0348
604,0.0,0.0,0.0,0.0,0.0,0.0,0.0114,-0.9959,0.0352,0.7515,-0.6582,-0.0265,0.0356
605,0.0,0.0,0.0,0.0,0.0,0.0,0.0095,-1.0047,0.0386,0.7517,-0.6579,-0.0274,0.0368
606,0.0,0.0,0.0,0.0,0.0,0.0,0.0105,-1.0037,0.0386,0.7518,-0.6576,-0.0288,0.0381
607,0.0,0.0,0.0,0.0,0.0,0.0,0.0109,-0.9959,0.0352,0.7515,-0.6578,-0.0306,0.0394
608,0.0,0.0,0.0,0.0,0.0,0.0,0.0178,-0.9920,0.0313,0.7509,-0.6584,-0.0328,0.0408
609,0.0,0.0,0.0,0.0,0.0,0.0,0.0217,-1.0062,0.0342,0.7502,-0.6589,-0.0352,0.0423
610,0.0,0.0,0.0,0.0,0.0,0.0,0.0203,-1.0140,0.0327,0.7495,-0.6595,-0.0378,0.0439
611,0.0,0.0,0.0,0.0,0.0,0.0,0.0183,-1.0296,0.0332,0.7489,-0.6599,-0.0405,0.0455
612,0.0,0.0,0.0,0.0,0.0,0.0,0.0252,-1.0218,0.0293,0.7484,-0.6602,-0.0433,0.0470
613,0.0,0.0,0.0,0.0,0.0,0.0,0.0339,-1.0115,0.0225,0.7481,-0.6602,-0.0462,0.0486
614,0.0,0.0,0.0,0.0,0.0,0.0,0.0369,-1.0047,0.0171,0.7477,-0.6603,-0.0491,0.0503
615,0.0,0.0,0.0,0.0,0.0,0.0,0.0476,-1.0052,0.0137,0.7471,-0.6605,-0.0525,0.0520
616,0.0,0.0,0.0,0.0,0.0,0.0,0.0545,-1.0130,0.0128,0.7465,-0.6608,-0.0561,0.0537
617,0.0,0.0,0.0,0.0,0.0,0.0,0.0555,-1.0032,0.0069,0.7455,-0.6615,-0.0600,0.0552
618,0.0,0.0,0.0,0.0,0.0,0.0,0.0584,-0.9974,0.0045,0.7445,-0.6621,-0.0636,0.0568
619,0.0,0.0,0.0,0.0,0.0,0.0,0.0643,-1.0023,0.0025,0.7434,-0.6629,-0.0672,0.0583
620,0.0,0.0,0.0,0.0,0.0,0.0,0.0648,-1.0115,0.0015,0.7422,-0.6638,-0.0707,0.0596
621,0.0,0.0,0.0,0.0,0.0,0.0,0.0623,-1.0101,0.0010,0.7412,-0.6645,-0.0738,0.0608
622,0.0,0.0,0.0,0.0,0.0,0.0,0.0628,-1.0140,0.0015,0.7399,-0.6654,-0.0770,0.0621
623,0.0,0.0,0.0,0.0,0.0,0.0,0.0613,-1.0110,-0.0014,0.7390,-0.6659,-0.0798,0.0634
624,0.0,0.0,0.0,0.0,0.0,0.0,0.0677,-1.0130,-0.0004,0.7380,-0.6666,-0.0825,0.0644
625,0.0,0.0,0.0,0.0,0.0,0.0,0.0750,-1.0008,-0.0033,0.7369,-0.6675,-0.0850,0.0652
626,0.0,0.0,0.0,0.0,0.0,0.0,0.0770,-0.9891,-0.0063,0.7358,-0.6683,-0.0871,0.0656
627,0.0,0.0,0.0,0.0,0.0,0.0,0.0799,-1.0013,-0.0033,0.7350,-0.6689,-0.0888,0.0661
628,0.0,0.0,0.0,0.0,0.0,0.0,0.0804,-1.0067,-0.0028,0.7344,-0.6694,-0.0902,0.0665
629,0.0,0.0,0.0,0.0,0.0,0.0,0.0829,-1.0003,-0.0024,0.7337,-0.6700,-0.0912,0.0665
630,0.0,0.0,0.0,0.0,0.0,0.0,0.0878,-0.9935,-0.0048,0.7333,-0.6705,-0.0919,0.0661
631,0.0,0.0,0.0,0.0,0.0,0.0,0.0853,-1.0018,-0.0058,0.7325,-0.6713,-0.0923,0.0655
632,0.0,0.0,0.0,0.0,0.0,0.0,0.0809,-1.0140,-0.0082,0.7314,-0.6725,-0.0926,0.0645
633,0.0,0.0,0.0,0.0,0.0,0.0,0.0731,-1.0305,-0.0112,0.7305,-0.6736,-0.0923,0.0633
634,0.0,0.0,0.0,0.0,0.0,0.0,0.0653,-1.0461,-0.0112,0.7298,-0.6747,-0.0914,0.0621
635,0.0,0.0,0.0,0.0,0.0,0.0,0.0594,-1.0539,-0.0097,0.7293,-0.6756,-0.0896,0.0611
636,0.0,0.0,0.0,0.0,0.0,0.0,0.0545,-1.0535,-0.0107,0.7290,-0.6763,-0.0874,0.0601
637,0.0,0.0,0.0,0.0,0.0,0.0,0.0467,-1.0491,-0.0088,0.7290,-0.6767,-0.0848,0.0593
638,0.0,0.0,0.0,0.0,0.0,0.0,0.0325,-1.0466,-0.0049,0.7292,-0.6768,-0.0816,0.0588
639,0.0,0.0,0.0,0.0,0.0,0.0,0.0188,-1.0442,0.0010,0.7298,-0.6767,-0.0778,0.0587
640,0.0,0.0,0.0,0.0,0.0,0.0,0.0143,-1.0203,-0.0000,0.7305,-0.6763,-0.0742,0.0587
641,0.0,0.0,0.0,0.0,0.0,0.0,0.0124,-1.0037,0.0010,0.7313,-0.6758,-0.0710,0.0589
642,0.0,0.0,0.0,0.0,0.0,0.0,0.0075,-0.9905,0.0009,0.7321,-0.6752,-0.0680,0.0590
643,0.0,0.0,0.0,0.0,0.0,0.0,0.0075,-0.9856,0.0024,0.7325,-0.6750,-0.0659,0.0589
644,0.0,0.0,0.0,0.0,0.0,0.0,0.0001,-0.9954,0.0053,0.7330,-0.6746,-0.0644,0.0589
645,0.0,0.0,0.0,0.0,0.0,0.0,0.0006,-0.9949,0.0068,0.7337,-0.6740,-0.0635,0.0588
646,0.0,0.0,0.0,0.0,0.0,0.0,0.0035,-0.9808,0.0034,0.7344,-0.6732,-0.0633,0.0586
647,0.0,0.0,0.0,0.0,0.0,0.0,0.0079,-0.9832,0.0058,0.7352,-0.6722,-0.0639,0.0584
648,0.0,0.0,0.0,0.0,0.0,0.0,0.0089,-0.9949,0.0127,0.7359,-0.6714,-0.0653,0.0585
649,0.0,0.0,0.0,0.0,0.0,0.0,0.0080,-1.0198,0.0229,0.7367,-0.6703,-0.0671,0.0585
650,0.0,0.0,0.0,0.0,0.0,0.0,0.0208,-1.0257,0.0283,0.7381,-0.6685,-0.0691,0.0590
651,0.0,0.0,0.0,0.0,0.0,0.0,0.0408,-0.9935,0.0245,0.7395,-0.6667,-0.0719,0.0595
652,0.0,0.0,0.0,0.0,0.0,0.0,0.0579,-0.9896,0.0279,0.7406,-0.6650,-0.0753,0.0603
653,0.0,0.0,0.0,0.0,0.0,0.0,0.0697,-0.9921,0.0333,0.7418,-0.6632,-0.0788,0.0611
654,0.0,0.0,0.0,0.0,0.0,0.0,0.0927,-0.9799,0.0348,0.7426,-0.6617,-0.0828,0.0620
655,0.0,0.0,0.0,0.0,0.0,0.0,0.1083,-0.9716,0.0334,0.7429,-0.6607,-0.0872,0.0628
656,0.0,0.0,0.0,0.0,0.0,0.0,0.1225,-0.9726,0.0334,0.7426,-0.6604,-0.0918,0.0637
657,0.0,0.0,0.0,0.0,0.0,0.0,0.1299,-0.9780,0.0344,0.7418,-0.6606,-0.0961,0.0644
658,0.0,0.0,0.0,0.0,0.0,0.0,0.1363,-0.9892,0.0334,0.7408,-0.6611,-0.1001,0.0648
659,0.0,0.0,0.0,0.0,0.0,0.0,0.1407,-1.0058,0.0339,0.7397,-0.6618,-0.1034,0.0652
660,0.0,0.0,0.0,0.0,0.0,0.0,0.1451,-1.0356,0.0344,0.7385,-0.6627,-0.1057,0.0654
661,0.0,0.0,0.0,0.0,0.0,0.0,0.1491,-1.0482,0.0286,0.7375,-0.6637,-0.1069,0.0652
662,0.0,0.0,0.0,0.0,0.0,0.0,0.1451,-1.0463,0.0163,0.7365,-0.6648,-0.1068,0.0648
663,0.0,0.0,0.0,0.0,0.0,0.0,0.1265,-1.0374,0.0055,0.7360,-0.6657,-0.1054,0.0641
664,0.0,0.0,0.0,0.0,0.0,0.0,0.1132,-1.0242,-0.0062,0.7354,-0.6668,-0.1032,0.0629
665,0.0,0.0,0.0,0.0,0.0,0.0,0.1010,-1.0057,-0.0165,0.7347,-0.6681,-0.1004,0.0616
666,0.0,0.0,0.0,0.0,0.0,0.0,0.0740,-0.9900,-0.0239,0.7340,-0.6696,-0.0966,0.0603
667,0.0,0.0,0.0,0.0,0.0,0.0,0.0623,-0.9861,-0.0263,0.7324,-0.6719,-0.0930,0.0589
668,0.0,0.0,0.0,0.0,0.0,0.0,0.0696,-1.0022,-0.0219,0.7309,-0.6740,-0.0901,0.0575
669,0.0,0.0,0.0,0.0,0.0,0.0,0.0530,-1.0256,-0.0156,0.7308,-0.6747,-0.0871,0.0559
670,0.0,0.0,0.0,0.0,0.0,0.0,0.0349,-1.0329,-0.0156,0.7309,-0.6751,-0.0839,0.0544
671,0.0,0.0,0.0,0.0,0.0,0.0,0.0354,-1.0168,-0.0171,0.7302,-0.6764,-0.0809,0.0529
672,0.0,0.0,0.0,0.0,0.0,0.0,0.0300,-1.0124,-0.0186,0.7293,-0.6777,-0.0781,0.0519
673,0.0,0.0,0.0,0.0,0.0,0.0,0.0266,-1.0154,-0.0186,0.7287,-0.6788,-0.0753,0.0511
674,0.0,0.0,0.0,0.0,0.0,0.0,0.0290,-1.0173,-0.0186,0.7280,-0.6798,-0.0730,0.0505
675,0.0,0.0,0.0,0.0,0.0,0.0,0.0212,-1.0139,-0.0196,0.7271,-0.6810,-0.0706,0.0502
676,0.0,0.0,0.0,0.0,0.0,0.0,0.0183,-1.0402,-0.0186,0.7257,-0.6828,-0.0683,0.0503
677,0.0,0.0,0.0,0.0,0.0,0.0,0.0359,-1.0861,-0.0112,0.7221,-0.6867,-0.0672,0.0502
678,0.0,0.0,0.0,0.0,0.0,0.0,0.0767,-1.1681,0.0001,0.7177,-0.6913,-0.0678,0.0497
679,0.0,0.0,0.0,0.0,0.0,0.0,0.1296,-1.2423,0.0105,0.7170,-0.6919,-0.0684,0.0505
680,0.0,0.0,0.0,0.0,0.0,0.0,0.0080,-1.0978,-0.0259,0.7195,-0.6895,-0.0647,0.0523
681,0.0,0.0,0.0,0.0,0.0,0.0,-0.0411,-1.0045,-0.0461,0.7209,-0.6883,-0.0580,0.0568
682,0.0,0.0,0.0,0.0,0.0,0.0,0.0132,-0.9587,-0.0435,0.7214,-0.6877,-0.0519,0.0624
683,0.0,0.0,0.0,0.0,0.0,0.0,0.0131,-0.8661,-0.0484,0.7212,-0.6878,-0.0472,0.0671
684,0.0,0.0,0.0,0.0,0.0,0.0,0.0068,-0.8846,-0.0372,0.7212,-0.6877,-0.0435,0.0704
685,0.0,0.0,0.0,0.0,0.0,0.0,-0.0020,-0.8778,-0.0304,0.7223,-0.6866,-0.0400,0.0719
686,0.0,0.0,0.0,0.0,0.0,0.0,-0.0118,-0.8953,-0.0221,0.7240,-0.6850,-0.0361,0.0722
687,0.0,0.0,0.0,0.0,0.0,0.0,-0.0068,-0.9700,-0.0089,0.7257,-0.6835,-0.0331,0.0716
688,0.0,0.0,0.0,0.0,0.0,0.0,-0.0283,-0.9783,-0.0079,0.7280,-0.6814,-0.0292,0.0700
689,0.0,0.0,0.0,0.0,0.0,0.0,-0.0254,-0.9666,-0.0084,0.7314,-0.6781,-0.0243,0.0678
690,0.0,0.0,0.0,0.0,0.0,0.0,-0.0136,-1.0032,-0.0001,0.7350,-0.6746,-0.0198,0.0660
691,0.0,0.0,0.0,0.0,0.0,0.0,-0.0228,-1.0646,0.0229,0.7372,-0.6724,-0.0167,0.0648
692,0.0,0.0,0.0,0.0,0.0,0.0,-0.0449,-1.0271,0.0312,0.7382,-0.6714,-0.0142,0.0639
693,0.0,0.0,0.0,0.0,0.0,0.0,-0.0556,-1.0334,0.0399,0.7387,-0.6709,-0.0118,0.0632
694,0.0,0.0,0.0,0.0,0.0,0.0,-0.0688,-1.0193,0.0341,0.7386,-0.6712,-0.0090,0.0626
695,0.0,0.0,0.0,0.0,0.0,0.0,-0.0713,-1.0256,0.0370,0.7380,-0.6719,-0.0066,0.0622
696,0.0,0.0,0.0,0.0,0.0,0.0,-0.0752,-1.0095,0.0370,0.7383,-0.6717,-0.0042,0.0619
697,0.0,0.0,0.0,0.0,0.0,0.0,-0.0752,-0.9875,0.0306,0.7384,-0.6716,-0.0019,0.0618
698,0.0,0.0,0.0,0.0,0.0,0.0,-0.0694,-0.9754,0.0311,0.7381,-0.6718,-0.0002,0.0618
699,0.0,0.0,0.0,0.0,0.0,0.0,-0.0665,-0.9627,0.0267,0.7374,-0.6727,0.0008,0.0616
700,0.0,0.0,0.0,0.0,0.0,0.0,-0.0640,-1.0037,0.0311,0.7368,-0.6733,0.0015,0.0614
701,0.0,0.0,0.0,0.0,0.0,0.0,-0.0532,-1.0139,0.0287,0.7369,-0.6733,0.0001,0.0598
702,0.0,0.0,0.0,0.0,0.0,0.0,-0.0483,-1.0139,0.0302,0.7369,-0.6734,0.0003,0.0595
703,0.0,0.0,0.0,0.0,0.0,0.0,-0.0473,-1.0046,0.0312,0.7371,-0.6732,0.0005,0.0593
704,0.0,0.0,0.0,0.0,0.0,0.0,-0.0390,-0.9978,0.0263,0.7373,-0.6729,0.0004,0.0592
705,0.0,0.0,0.0,0.0,0.0,0.0,-0.0282,-0.9988,0.0268,0.7379,-0.6723,-0.0002,0.0590
706,0.0,0.0,0.0,0.0,0.0,0.0,-0.0297,-1.0081,0.0327,0.7381,-0.6721,-0.0008,0.0589
707,0.0,0.0,0.0,0.0,0.0,0.0,-0.0307,-1.0110,0.0380,0.7384,-0.6719,-0.0015,0.0585
708,0.0,0.0,0.0,0.0,0.0,0.0,-0.0346,-1.0071,0.0395,0.7386,-0.6717,-0.0022,0.0578
709,0.0,0.0,0.0,0.0,0.0,0.0,-0.0414,-1.0071,0.0409,0.7384,-0.6719,-0.0028,0.0569
710,0.0,0.0,0.0,0.0,0.0,0.0,-0.0434,-1.0120,0.0463,0.7380,-0.6724,-0.0035,0.0559
711,0.0,0.0,0.0,0.0,0.0,0.0,-0.0414,-1.0374,0.0497,0.7378,-0.6727,-0.0041,0.0547
712,0.0,0.0,0.0,0.0,0.0,0.0,-0.0414,-1.0432,0.0488,0.7382,-0.6724,-0.0047,0.0535
713,0.0,0.0,0.0,0.0,0.0,0.0,-0.0438,-1.0437,0.0497,0.7389,-0.6717,-0.0050,0.0522
714,0.0,0.0,0.0,0.0,0.0,0.0,-0.0409,-1.0335,0.0483,0.7400,-0.6706,-0.0051,0.0508
715,0.0,0.0,0.0,0.0,0.0,0.0,-0.0409,-1.0208,0.0483,0.7414,-0.6692,-0.0052,0.0495
716,0.0,0.0,0.0,0.0,0.0,0.0,-0.0409,-1.0135,0.0512,0.7426,-0.6680,-0.0057,0.0483
717,0.0,0.0,0.0,0.0,0.0,0.0,-0.0321,-1.0081,0.0522,0.7440,-0.6664,-0.0064,0.0472
718,0.0,0.0,0.0,0.0,0.0,0.0,-0.0296,-1.0203,0.0586,0.7456,-0.6647,-0.0074,0.0463
719,0.0,0.0,0.0,0.0,0.0,0.0,-0.0248,-1.0125,0.0595,0.7469,-0.6634,-0.0088,0.0456
720,0.0,0.0,0.0,0.0,0.0,0.0,-0.0198,-1.0315,0.0644,0.7482,-0.6618,-0.0103,0.0451
721,0.0,0.0,0.0,0.0,0.0,0.0,-0.0189,-1.0140,0.0630,0.7497,-0.6602,-0.0119,0.0448
722,0.0,0.0,0.0,0.0,0.0,0.0,-0.0096,-1.0106,0.0630,0.7511,-0.6586,-0.0136,0.0448
723,0.0,0.0,0.0,0.0,0.0,0.0,-0.0032,-1.0033,0.0669,0.7527,-0.6566,-0.0154,0.0449
724,0.0,0.0,0.0,0.0,0.0,0.0,0.0041,-0.9979,0.0694,0.7542,-0.6548,-0.0176,0.0453
725,0.0,0.0,0.0,0.0,0.0,0.0,0.0120,-0.9999,0.0684,0.7556,-0.6532,-0.0199,0.0457
726,0.0,0.0,0.0,0.0,0.0,0.0,0.0139,-1.0043,0.0694,0.7567,-0.6517,-0.0222,0.0462
727,0.0,0.0,0.0,0.0,0.0,0.0,0.0149,-1.0082,0.0723,0.7580,-0.6501,-0.0245,0.0469
728,0.0,0.0,0.0,0.0,0.0,0.0,0.0267,-1.0048,0.0758,0.7591,-0.6487,-0.0271,0.0476
729,0.0,0.0,0.0,0.0,0.0,0.0,0.0311,-0.9999,0.0772,0.7600,-0.6475,-0.0296,0.0484
730,0.0,0.0,0.0,0.0,0.0,0.0,0.0384,-0.9848,0.0738,0.7608,-0.6464,-0.0322,0.0492
731,0.0,0.0,0.0,0.0,0.0,0.0,0.0477,-0.9697,0.0728,0.7612,-0.6456,-0.0350,0.0500
732,0.0,0.0,0.0,0.0,0.0,0.0,0.0443,-0.9780,0.0714,0.7610,-0.6457,-0.0377,0.0507
733,0.0,0.0,0.0,0.0,0.0,0.0,0.0482,-0.9848,0.0709,0.7605,-0.6461,-0.0403,0.0511
734,0.0,0.0,0.0,0.0,0.0,0.0,0.0501,-0.9906,0.0694,0.7600,-0.6465,-0.0427,0.0515
735,0.0,0.0,0.0,0.0,0.0,0.0,0.0506,-0.9960,0.0680,0.7591,-0.6473,-0.0450,0.0519
736,0.0,0.0,0.0,0.0,0.0,0.0,0.0521,-1.0009,0.0616,0.7580,-0.6485,-0.0469,0.0522
737,0.0,0.0,0.0,0.0,0.0,0.0,0.0536,-1.0018,0.0562,0.7569,-0.6497,-0.0485,0.0524
738,0.0,0.0,0.0,0.0,0.0,0.0,0.0516,-1.0131,0.0543,0.7557,-0.6509,-0.0495,0.0527
739,0.0,0.0,0.0,0.0,0.0,0.0,0.0448,-1.0111,0.0479,0.7545,-0.6523,-0.0503,0.0529
740,0.0,0.0,0.0,0.0,0.0,0.0,0.0428,-1.0067,0.0425,0.7528,-0.6541,-0.0509,0.0530
741,0.0,0.0,0.0,0.0,0.0,0.0,0.0364,-1.0130,0.0401,0.7513,-0.6559,-0.0512,0.0532
742,0.0,0.0,0.0,0.0,0.0,0.0,0.0271,-1.0189,0.0386,0.7500,-0.6573,-0.0508,0.0534
743,0.0,0.0,0.0,0.0,0.0,0.0,0.0271,-1.0086,0.0332,0.7486,-0.6590,-0.0506,0.0534
744,0.0,0.0,0.0,0.0,0.0,0.0,0.0183,-1.0101,0.0308,0.7469,-0.6609,-0.0501,0.0535
745,0.0,0.0,0.0,0.0,0.0,0.0,0.0158,-1.0154,0.0308,0.7453,-0.6627,-0.0496,0.0535
746,0.0,0.0,0.0,0.0,0.0,0.0,0.0119,-1.0159,0.0288,0.7438,-0.6644,-0.0490,0.0533
747,0.0,0.0,0.0,0.0,0.0,0.0,0.0139,-1.0271,0.0264,0.7426,-0.6659,-0.0485,0.0530
748,0.0,0.0,0.0,0.0,0.0,0.0,0.0124,-1.0276,0.0239,0.7416,-0.6671,-0.0480,0.0526
749,0.0,0.0,0.0,0.0,0.0,0.0,0.0090,-1.0271,0.0215,0.7406,-0.6682,-0.0472,0.0523
750,0.0,0.0,0.0,0.0,0.0,0.0,0.0080,-1.0237,0.0185,0.7399,-0.6691,-0.0462,0.0518
751,0.0,0.0,0.0,0.0,0.0,0.0,0.0080,-1.0217,0.0185,0.7395,-0.6697,-0.0450,0.0515
752,0.0,0.0,0.0,0.0,0.0,0.0,0.0051,-1.0217,0.0195,0.7389,-0.6704,-0.0440,0.0512
753,0.0,0.0,0.0,0.0,0.0,0.0,0.0061,-1.0276,0.0225,0.7386,-0.6709,-0.0429,0.0510
754,0.0,0.0,0.0,0.0,0.0,0.0,0.0075,-1.0261,0.0220,0.7384,-0.6711,-0.0417,0.0508
755,0.0,0.0,0.0,0.0,0.0,0.0,0.0080,-1.0320,0.0220,0.7379,-0.6718,-0.0405,0.0506
756,0.0,0.0,0.0,0.0,0.0,0.0,0.0095,-1.0418,0.0244,0.7369,-0.6730,-0.0393,0.0504
757,0.0,0.0,0.0,0.0,0.0,0.0,0.0085,-1.0452,0.0220,0.7359,-0.6742,-0.0376,0.0503
758,0.0,0.0,0.0,0.0,0.0,0.0,0.0095,-1.0583,0.0249,0.7341,-0.6763,-0.0357,0.0502
759,0.0,0.0,0.0,0.0,0.0,0.0,0.0105,-1.0491,0.0166,0.7323,-0.6783,-0.0332,0.0506
760,0.0,0.0,0.0,0.0,0.0,0.0,0.0070,-1.0110,0.0088,0.7313,-0.6794,-0.0301,0.0513
761,0.0,0.0,0.0,0.0,0.0,0.0,0.0026,-1.0173,0.0073,0.7305,-0.6804,-0.0273,0.0517
762,0.0,0.0,0.0,0.0,0.0,0.0,0.0006,-0.9851,-0.0000,0.7301,-0.6809,-0.0241,0.0518
763,0.0,0.0,0.0,0.0,0.0,0.0,-0.0161,-0.9685,-0.0011,0.7302,-0.6809,-0.0208,0.0519
764,0.0,0.0,0.0,0.0,0.0,0.0,-0.0249,-0.9680,0.0019,0.7307,-0.6805,-0.0181,0.0519
765,0.0,0.0,0.0,0.0,0.0,0.0,-0.0253,-0.9919,0.0087,0.7317,-0.6795,-0.0157,0.0517
766,0.0,0.0,0.0,0.0,0.0,0.0,-0.0243,-1.0037,0.0126,0.7331,-0.6781,-0.0134,0.0514
767,0.0,0.0,0.0,0.0,0.0,0.0,-0.0263,-0.9959,0.0126,0.7348,-0.6762,-0.0111,0.0509
768,0.0,0.0,0.0,0.0,0.0,0.0,-0.0297,-0.9959,0.0160,0.7368,-0.6741,-0.0092,0.0503
769,0.0,0.0,0.0,0.0,0.0,0.0,-0.0302,-0.9998,0.0229,0.7388,-0.6721,-0.0075,0.0496
770,0.0,0.0,0.0,0.0,0.0,0.0,-0.0282,-1.0022,0.0278,0.7408,-0.6699,-0.0060,0.0490
771,0.0,0.0,0.0,0.0,0.0,0.0,-0.0307,-1.0100,0.0375,0.7426,-0.6680,-0.0048,0.0486
772,0.0,0.0,0.0,0.0,0.0,0.0,-0.0267,-1.0091,0.0434,0.7439,-0.6666,-0.0042,0.0481
773,0.0,0.0,0.0,0.0,0.0,0.0,-0.0209,-1.0062,0.0459,0.7451,-0.6652,-0.0041,0.0477
774,0.0,0.0,0.0,0.0,0.0,0.0,-0.0248,-1.0213,0.0488,0.7462,-0.6641,-0.0042,0.0471
775,0.0,0.0,0.0,0.0,0.0,0.0,-0.0297,-1.0169,0.0478,0.7469,-0.6633,-0.0042,0.0467
776,0.0,0.0,0.0,0.0,0.0,0.0,-0.0248,-1.0120,0.0547,0.7475,-0.6627,-0.0045,0.0463
777,0.0,0.0,0.0,0.0,0.0,0.0,-0.0253,-1.0071,0.0610,0.7481,-0.6620,-0.0051,0.0460
778,0.0,0.0,0.0,0.0,0.0,0.0,-0.0209,-0.9950,0.0600,0.7487,-0.6613,-0.0058,0.0460
779,0.0,0.0,0.0,0.0,0.0,0.0,-0.0111,-0.9823,0.0561,0.7490,-0.6609,-0.0071,0.0459
780,0.0,0.0,0.0,0.0,0.0,0.0,-0.0101,-0.9886,0.0601,0.7492,-0.6607,-0.0087,0.0458
781,0.0,0.0,0.0,0.0,0.0,0.0,-0.0125,-1.0067,0.0615,0.7495,-0.6603,-0.0101,0.0459
782,0.0,0.0,0.0,0.0,0.0,0.0,-0.0106,-1.0018,0.0596,0.7500,-0.6598,-0.0114,0.0459
783,0.0,0.0,0.0,0.0,0.0,0.0,-0.0062,-0.9984,0.0561,0.7497,-0.6600,-0.0131,0.0462
784,0.0,0.0,0.0,0.0,0.0,0.0,0.0017,-1.0086,0.0532,0.7488,-0.6609,-0.0150,0.0467
785,0.0,0.0,0.0,0.0,0.0,0.0,-0.0086,-1.0325,0.0576,0.7481,-0.6616,-0.0164,0.0474
786,0.0,0.0,0.0,0.0,0.0,0.0,-0.0081,-1.0472,0.0591,0.7471,-0.6627,-0.0174,0.0483
787,0.0,0.0,0.0,0.0,0.0,0.0,-0.0056,-1.0393,0.0527,0.7454,-0.6645,-0.0181,0.0495
788,0.0,0.0,0.0,0.0,0.0,0.0,-0.0149,-1.0481,0.0473,0.7434,-0.6667,-0.0184,0.0511
789,0.0,0.0,0.0,0.0,0.0,0.0,-0.0179,-1.0261,0.0395,0.7415,-0.6686,-0.0185,0.0529
790,0.0,0.0,0.0,0.0,0.0,0.0,-0.0219,-0.9998,0.0248,0.7400,-0.6701,-0.0184,0.0549
791,0.0,0.0,0.0,0.0,0.0,0.0,-0.0302,-1.0032,0.0234,0.7388,-0.6713,-0.0182,0.0570
792,0.0,0.0,0.0,0.0,0.0,0.0,-0.0444,-0.9880,0.0160,0.7378,-0.6722,-0.0177,0.0589
793,0.0,0.0,0.0,0.0,0.0,0.0,-0.0444,-0.9841,0.0141,0.7373,-0.6726,-0.0173,0.0607
794,0.0,0.0,0.0,0.0,0.0,0.0,-0.0434,-0.9949,0.0185,0.7374,-0.6723,-0.0167,0.0622
795,0.0,0.0,0.0,0.0,0.0,0.0,-0.0469,-1.0022,0.0199,0.7379,-0.6717,-0.0159,0.0637
796,0.0,0.0,0.0,0.0,0.0,0.0,-0.0498,-1.0032,0.0224,0.7384,-0.6711,-0.0151,0.0652
797,0.0,0.0,0.0,0.0,0.0,0.0,-0.0464,-0.9973,0.0219,0.7390,-0.6703,-0.0144,0.0664
798,0.0,0.0,0.0,0.0,0.0,0.0,-0.0508,-1.0012,0.0233,0.7398,-0.6693,-0.0134,0.0675
799,0.0,0.0,0.0,0.0,0.0,0.0,-0.0552,-1.0090,0.0277,0.7402,-0.6687,-0.0125,0.0687
800,0.0,0.0,0.0,0.0,0.0,0.0,-0.0527,-1.0198,0.0311,0.7401,-0.6688,-0.0120,0.0698
801,0.0,0.0,0.0,0.0,0.0,0.0,-0.0522,-1.0178,0.0316,0.7394,-0.6695,-0.0117,0.0710
802,0.0,0.0,0.0,0.0,0.0,0.0,-0.0542,-1.0080,0.0248,0.7382,-0.6706,-0.0112,0.0721
803,0.0,0.0,0.0,0.0,0.0,0.0,-0.0547,-0.9963,0.0199,0.7367,-0.6721,-0.0108,0.0732
804,0.0,0.0,0.0,0.0,0.0,0.0,-0.0566,-1.0075,0.0194,0.7350,-0.6740,-0.0102,0.0743
805,0.0,0.0,0.0,0.0,0.0,0.0,-0.0542,-1.0134,0.0155,0.7334,-0.6755,-0.0098,0.0751
806,0.0,0.0,0.0,0.0,0.0,0.0,-0.0625,-1.0036,0.0096,0.7324,-0.6766,-0.0091,0.0755
807,0.0,0.0,0.0,0.0,0.0,0.0,-0.0674,-1.0173,0.0096,0.7317,-0.6773,-0.0082,0.0758
808,0.0,0.0,0.0,0.0,0.0,0.0,-0.0664,-1.0129,0.0091,0.7314,-0.6777,-0.0079,0.0757
809,0.0,0.0,0.0,0.0,0.0,0.0,-0.0645,-1.0236,0.0091,0.7316,-0.6776,-0.0078,0.0751
810,0.0,0.0,0.0,0.0,0.0,0.0,-0.0615,-1.0485,0.0160,0.7322,-0.6770,-0.0074,0.0742
811,0.0,0.0,0.0,0.0,0.0,0.0,-0.0576,-1.0446,0.0165,0.7332,-0.6760,-0.0064,0.0732
812,0.0,0.0,0.0,0.0,0.0,0.0,-0.0640,-1.0226,0.0126,0.7343,-0.6749,-0.0046,0.0719
813,0.0,0.0,0.0,0.0,0.0,0.0,-0.0757,-1.0217,0.0179,0.7357,-0.6736,-0.0026,0.0705
814,0.0,0.0,0.0,0.0,0.0,0.0,-0.0747,-1.0256,0.0257,0.7371,-0.6722,-0.0008,0.0690
815,0.0,0.0,0.0,0.0,0.0,0.0,-0.0669,-1.0261,0.0331,0.7391,-0.6702,0.0007,0.0671
816,0.0,0.0,0.0,0.0,0.0,0.0,-0.0674,-1.0246,0.0389,0.7415,-0.6678,0.0020,0.0650
817,0.0,0.0,0.0,0.0,0.0,0.0,-0.0669,-0.9934,0.0409,0.7438,-0.6654,0.0029,0.0625
818,0.0,0.0,0.0,0.0,0.0,0.0,-0.0625,-0.9847,0.0453,0.7462,-0.6630,0.0034,0.0600
819,0.0,0.0,0.0,0.0,0.0,0.0,-0.0659,-0.9842,0.0541,0.7489,-0.6601,0.0033,0.0575
820,0.0,0.0,0.0,0.0,0.0,0.0,-0.0610,-0.9857,0.0614,0.7517,-0.6572,0.0024,0.0550
821,0.0,0.0,0.0,0.0,0.0,0.0,-0.0513,-0.9588,0.0575,0.7542,-0.6545,0.0008,0.0528
822,0.0,0.0,0.0,0.0,0.0,0.0,-0.0478,-1.0140,0.0732,0.7561,-0.6524,-0.0018,0.0511
823,0.0,0.0,0.0,0.0,0.0,0.0,-0.0424,-1.0062,0.0810,0.7581,-0.6503,-0.0046,0.0496
824,0.0,0.0,0.0,0.0,0.0,0.0,-0.0213,-0.9955,0.0815,0.7598,-0.6483,-0.0078,0.0488
825,0.0,0.0,0.0,0.0,0.0,0.0,-0.0120,-1.0135,0.0864,0.7613,-0.6464,-0.0111,0.0485
826,0.0,0.0,0.0,0.0,0.0,0.0,0.0027,-1.0150,0.0879,0.7624,-0.6451,-0.0145,0.0489
827,0.0,0.0,0.0,0.0,0.0,0.0,0.0169,-1.0062,0.0870,0.7634,-0.6438,-0.0180,0.0499
828,0.0,0.0,0.0,0.0,0.0,0.0,0.0374,-0.9985,0.0909,0.7640,-0.6428,-0.0219,0.0513
829,0.0,0.0,0.0,0.0,0.0,0.0,0.0482,-0.9970,0.0919,0.7643,-0.6421,-0.0256,0.0530
830,0.0,0.0,0.0,0.0,0.0,0.0,0.0541,-0.9941,0.0890,0.7646,-0.6415,-0.0290,0.0549
831,0.0,0.0,0.0,0.0,0.0,0.0,0.0600,-0.9882,0.0875,0.7646,-0.6412,-0.0321,0.0570
832,0.0,0.0,0.0,0.0,0.0,0.0,0.0629,-0.9936,0.0856,0.7639,-0.6416,-0.0352,0.0590
833,0.0,0.0,0.0,0.0,0.0,0.0,0.0580,-0.9995,0.0822,0.7630,-0.6424,-0.0376,0.0608
834,0.0,0.0,0.0,0.0,0.0,0.0,0.0531,-0.9985,0.0734,0.7619,-0.6435,-0.0395,0.0622
835,0.0,0.0,0.0,0.0,0.0,0.0,0.0502,-1.0204,0.0694,0.7606,-0.6448,-0.0409,0.0635
836,0.0,0.0,0.0,0.0,0.0,0.0,0.0433,-1.0331,0.0660,0.7595,-0.6459,-0.0416,0.0645
837,0.0,0.0,0.0,0.0,0.0,0.0,0.0384,-1.0355,0.0640,0.7586,-0.6470,-0.0418,0.0653
838,0.0,0.0,0.0,0.0,0.0,0.0,0.0365,-1.0262,0.0592,0.7578,-0.6478,-0.0413,0.0659
839,0.0,0.0,0.0,0.0,0.0,0.0,0.0340,-1.0238,0.0587,0.7573,-0.6484,-0.0403,0.0661
840,0.0,0.0,0.0,0.0,0.0,0.0,0.0316,-1.0223,0.0606,0.7569,-0.6490,-0.0390,0.0660
841,0.0,0.0,0.0,0.0,0.0,0.0,0.0252,-1.0194,0.0630,0.7564,-0.6498,-0.0371,0.0657
842,0.0,0.0,0.0,0.0,0.0,0.0,0.0169,-1.0043,0.0606,0.7559,-0.6505,-0.0345,0.0648
843,0.0,0.0,0.0,0.0,0.0,0.0,0.0061,-0.9877,0.0576,0.7556,-0.6512,-0.0315,0.0635
844,0.0,0.0,0.0,0.0,0.0,0.0,0.0002,-0.9769,0.0571,0.7548,-0.6524,-0.0285,0.0617
845,0.0,0.0,0.0,0.0,0.0,0.0,-0.0131,-0.9725,0.0542,0.7537,-0.6540,-0.0255,0.0595
846,0.0,0.0,0.0,0.0,0.0,0.0,-0.0277,-0.9793,0.0507,0.7524,-0.6559,-0.0222,0.0570
847,0.0,0.0,0.0,0.0,0.0,0.0,-0.0405,-0.9925,0.0463,0.7508,-0.6580,-0.0187,0.0541
848,0.0,0.0,0.0,0.0,0.0,0.0,-0.0512,-1.0012,0.0414,0.7490,-0.6604,-0.0151,0.0511
849,0.0,0.0,0.0,0.0,0.0,0.0,-0.0537,-1.0027,0.0346,0.7472,-0.6628,-0.0116,0.0481
850,0.0,0.0,0.0,0.0,0.0,0.0,-0.0571,-0.9993,0.0287,0.7453,-0.6651,-0.0084,0.0451
851,0.0,0.0,0.0,0.0,0.0,0.0,-0.0625,-0.9875,0.0228,0.7435,-0.6674,-0.0052,0.0421
852,0.0,0.0,0.0,0.0,0.0,0.0,-0.0616,-0.9788,0.0179,0.7415,-0.6698,-0.0026,0.0391
853,0.0,0.0,0.0,0.0,0.0,0.0,-0.0655,-0.9895,0.0184,0.7392,-0.6725,-0.0005,0.0362
854,0.0,0.0,0.0,0.0,0.0,0.0,-0.0689,-1.0061,0.0194,0.7371,-0.6749,0.0015,0.0334
855,0.0,0.0,0.0,0.0,0.0,0.0,-0.0738,-1.0183,0.0174,0.7354,-0.6770,0.0033,0.0310
856,0.0,0.0,0.0,0.0,0.0,0.0,-0.0757,-1.0265,0.0179,0.7336,-0.6789,0.0049,0.0291
857,0.0,0.0,0.0,0.0,0.0,0.0,-0.0703,-1.0412,0.0228,0.7321,-0.6807,0.0060,0.0279
858,0.0,0.0,0.0,0.0,0.0,0.0,-0.0669,-1.0461,0.0243,0.7310,-0.6818,0.0071,0.0270
859,0.0,0.0,0.0,0.0,0.0,0.0,-0.0625,-1.0539,0.0248,0.7305,-0.6823,0.0081,0.0266
860,0.0,0.0,0.0,0.0,0.0,0.0,-0.0566,-1.0466,0.0238,0.7304,-0.6824,0.0089,0.0266
861,0.0,0.0,0.0,0.0,0.0,0.0,-0.0414,-1.0280,0.0170,0.7305,-0.6823,0.0091,0.0269
862,0.0,0.0,0.0,0.0,0.0,0.0,-0.0385,-1.0422,0.0234,0.7310,-0.6818,0.0091,0.0274
863,0.0,0.0,0.0,0.0,0.0,0.0,-0.0385,-1.0510,0.0273,0.7321,-0.6806,0.0093,0.0278
864,0.0,0.0,0.0,0.0,0.0,0.0,-0.0404,-1.0583,0.0302,0.7334,-0.6791,0.0096,0.0283
865,0.0,0.0,0.0,0.0,0.0,0.0,-0.0463,-1.0544,0.0326,0.7352,-0.6771,0.0101,0.0290
866,0.0,0.0,0.0,0.0,0.0,0.0,-0.0463,-1.0471,0.0336,0.7374,-0.6747,0.0105,0.0298
867,0.0,0.0,0.0,0.0,0.0,0.0,-0.0405,-1.0110,0.0336,0.7400,-0.6719,0.0106,0.0306
868,0.0,0.0,0.0,0.0,0.0,0.0,-0.0336,-0.9871,0.0385,0.7426,-0.6690,0.0102,0.0317
869,0.0,0.0,0.0,0.0,0.0,0.0,-0.0253,-0.9803,0.0459,0.7450,-0.6661,0.0090,0.0328
870,0.0,0.0,0.0,0.0,0.0,0.0,-0.0140,-0.9715,0.0503,0.7470,-0.6639,0.0071,0.0339
871,0.0,0.0,0.0,0.0,0.0,0.0,-0.0033,-0.9691,0.0581,0.7490,-0.6617,0.0046,0.0350
872,0.0,0.0,0.0,0.0,0.0,0.0,0.0065,-0.9652,0.0620,0.7506,-0.6598,0.0015,0.0361
873,0.0,0.0,0.0,0.0,0.0,0.0,0.0110,-0.9755,0.0650,0.7515,-0.6587,-0.0020,0.0371
874,0.0,0.0,0.0,0.0,0.0,0.0,0.0256,-0.9784,0.0660,0.7523,-0.6577,-0.0058,0.0379
875,0.0,0.0,0.0,0.0,0.0,0.0,0.0310,-0.9804,0.0630,0.7528,-0.6570,-0.0095,0.0385
876,0.0,0.0,0.0,0.0,0.0,0.0,0.0325,-1.0170,0.0675,0.7532,-0.6565,-0.0129,0.0393
877,0.0,0.0,0.0,0.0,0.0,0.0,0.0365,-1.0209,0.0645,0.7534,-0.6561,-0.0160,0.0399
878,0.0,0.0,0.0,0.0,0.0,0.0,0.0472,-1.0087,0.0567,0.7535,-0.6559,-0.0189,0.0406
879,0.0,0.0,0.0,0.0,0.0,0.0,0.0526,-1.0028,0.0523,0.7534,-0.6559,-0.0215,0.0412
880,0.0,0.0,0.0,0.0,0.0,0.0,0.0506,-1.0067,0.0509,0.7529,-0.6564,-0.0239,0.0417
881,0.0,0.0,0.0,0.0,0.0,0.0,0.0482,-1.0087,0.0474,0.7522,-0.6571,-0.0259,0.0421
882,0.0,0.0,0.0,0.0,0.0,0.0,0.0423,-1.0116,0.0421,0.7514,-0.6579,-0.0274,0.0422
883,0.0,0.0,0.0,0.0,0.0,0.0,0.0374,-1.0160,0.0391,0.7507,-0.6587,-0.0283,0.0421
884,0.0,0.0,0.0,0.0,0.0,0.0,0.0330,-1.0184,0.0376,0.7499,-0.6596,-0.0289,0.0420
885,0.0,0.0,0.0,0.0,0.0,0.0,0.0276,-1.0237,0.0352,0.7490,-0.6606,-0.0291,0.0418
886,0.0,0.0,0.0,0.0,0.0,0.0,0.0203,-1.0213,0.0327,0.7486,-0.6612,-0.0289,0.0413
887,0.0,0.0,0.0,0.0,0.0,0.0,0.0144,-1.0174,0.0322,0.7481,-0.6617,-0.0284,0.0409
888,0.0,0.0,0.0,0.0,0.0,0.0,0.0090,-1.0149,0.0317,0.7475,-0.6624,-0.0276,0.0406
889,0.0,0.0,0.0,0.0,0.0,0.0,0.0075,-1.0110,0.0332,0.7472,-0.6629,-0.0267,0.0402
890,0.0,0.0,0.0,0.0,0.0,0.0,0.0065,-1.0091,0.0337,0.7468,-0.6633,-0.0259,0.0399
891,0.0,0.0,0.0,0.0,0.0,0.0,0.0041,-1.0076,0.0337,0.7463,-0.6639,-0.0249,0.0396
892,0.0,0.0,0.0,0.0,0.0,0.0,0.0012,-1.0076,0.0395,0.7459,-0.6644,-0.0237,0.0393
893,0.0,0.0,0.0,0.0,0.0,0.0,-0.0028,-1.0057,0.0415,0.7455,-0.6649,-0.0227,0.0388
894,0.0,0.0,0.0,0.0,0.0,0.0,-0.0081,-1.0052,0.0410,0.7454,-0.6652,-0.0214,0.0380
895,0.0,0.0,0.0,0.0,0.0,0.0,-0.0052,-1.0042,0.0439,0.7454,-0.6653,-0.0201,0.0372
896,0.0,0.0,0.0,0.0,0.0,0.0,-0.0033,-0.9979,0.0430,0.7450,-0.6658,-0.0188,0.0361
897,0.0,0.0,0.0,0.0,0.0,0.0,-0.0018,-1.0003,0.0430,0.7444,-0.6666,-0.0176,0.0349
898,0.0,0.0,0.0,0.0,0.0,0.0,-0.0003,-0.9998,0.0400,0.7437,-0.6675,-0.0161,0.0335
899,0.0,0.0,0.0,0.0,0.0,0.0,0.0041,-1.0062,0.0356,0.7428,-0.6686,-0.0146,0.0320
900,0.0,0.0,0.0,0.0,0.0,0.0,0.0002,-1.0105,0.0312,0.7417,-0.6699,-0.0129,0.0304
901,0.0,0.0,0.0,0.0,0.0,0.0,-0.0032,-1.0217,0.0273,0.7406,-0.6713,-0.0112,0.0289
902,0.0,0.0,0.0,0.0,0.0,0.0,-0.0106,-1.0320,0.0263,0.7399,-0.6721,-0.0090,0.0275
903,0.0,0.0,0.0,0.0,0.0,0.0,-0.0218,-1.0378,0.0268,0.7396,-0.6725,-0.0065,0.0262
904,0.0,0.0,0.0,0.0,0.0,0.0,-0.0233,-1.0378,0.0268,0.7393,-0.6730,-0.0040,0.0250
905,0.0,0.0,0.0,0.0,0.0,0.0,-0.0179,-1.0281,0.0229,0.7388,-0.6735,-0.0017,0.0241
906,0.0,0.0,0.0,0.0,0.0,0.0,-0.0111,-1.0149,0.0180,0.7385,-0.6738,0.0005,0.0235
907,0.0,0.0,0.0,0.0,0.0,0.0,-0.0106,-1.0095,0.0156,0.7382,-0.6742,0.0026,0.0231
908,0.0,0.0,0.0,0.0,0.0,0.0,-0.0136,-1.0105,0.0151,0.7378,-0.6746,0.0046,0.0228
909,0.0,0.0,0.0,0.0,0.0,0.0,-0.0101,-1.0081,0.0156,0.7376,-0.6748,0.0064,0.0227
910,0.0,0.0,0.0,0.0,0.0,0.0,-0.0057,-1.0032,0.0141,0.7373,-0.6751,0.0078,0.0228
911,0.0,0.0,0.0,0.0,0.0,0.0,-0.0048,-1.0003,0.0107,0.7366,-0.6758,0.0089,0.0230
912,0.0,0.0,0.0,0.0,0.0,0.0,-0.0111,-0.9890,0.0063,0.7357,-0.6768,0.0100,0.0232
913,0.0,0.0,0.0,0.0,0.0,0.0,-0.0156,-0.9685,0.0009,0.7347,-0.6779,0.0109,0.0234
914,0.0,0.0,0.0,0.0,0.0,0.0,-0.0112,-0.9441,-0.0054,0.7332,-0.6795,0.0110,0.0235
915,0.0,0.0,0.0,0.0,0.0,0.0,-0.0268,-0.9895,0.0053,0.7317,-0.6811,0.0109,0.0235
916,0.0,0.0,0.0,0.0,0.0,0.0,-0.0239,-0.9807,-0.0001,0.7303,-0.6826,0.0103,0.0232
917,0.0,0.0,0.0,0.0,0.0,0.0,-0.0175,-0.9812,-0.0055,0.7289,-0.6842,0.0091,0.0230
918,0.0,0.0,0.0,0.0,0.0,0.0,-0.0146,-0.9929,-0.0074,0.7274,-0.6858,0.0076,0.0227
919,0.0,0.0,0.0,0.0,0.0,0.0,-0.0033,-0.9807,-0.0157,0.7257,-0.6876,0.0054,0.0219
920,0.0,0.0,0.0,0.0,0.0,0.0,-0.0141,-1.0080,-0.0118,0.7241,-0.6894,0.0033,0.0210
921,0.0,0.0,0.0,0.0,0.0,0.0,-0.0135,-1.0466,-0.0025,0.7228,-0.6908,0.0014,0.0201
922,0.0,0.0,0.0,0.0,0.0,0.0,-0.0135,-1.0641,0.0004,0.7220,-0.6917,-0.0002,0.0192
923,0.0,0.0,0.0,0.0,0.0,0.0,-0.0116,-1.0646,-0.0010,0.7217,-0.6920,-0.0014,0.0183
924,0.0,0.0,0.0,0.0,0.0,0.0,-0.0047,-1.0695,-0.0054,0.7218,-0.6919,-0.0022,0.0175
925,0.0,0.0,0.0,0.0,0.0,0.0,-0.0027,-1.0797,-0.0079,0.7225,-0.6912,-0.0024,0.0170
926,0.0,0.0,0.0,0.0,0.0,0.0,-0.0013,-1.0705,-0.0103,0.7237,-0.6899,-0.0020,0.0166
927,0.0,0.0,0.0,0.0,0.0,0.0,0.0007,-1.0583,-0.0118,0.7252,-0.6883,-0.0011,0.0163
928,0.0,0.0,0.0,0.0,0.0,0.0,-0.0018,-1.0593,-0.0064,0.7272,-0.6862,0.0002,0.0161
929,0.0,0.0,0.0,0.0,0.0,0.0,-0.0013,-1.0529,-0.0035,0.7290,-0.6843,0.0015,0.0163
930,0.0,0.0,0.0,0.0,0.0,0.0,0.0060,-1.0271,-0.0044,0.7309,-0.6823,0.0029,0.0164
931,0.0,0.0,0.0,0.0,0.0,0.0,0.0075,-1.0232,-0.0000,0.7329,-0.6801,0.0045,0.0168
932,0.0,0.0,0.0,0.0,0.0,0.0,0.0006,-1.0227,0.0092,0.7347,-0.6782,0.0062,0.0174
933,0.0,0.0,0.0,0.0,0.0,0.0,-0.0047,-1.0208,0.0175,0.7364,-0.6763,0.0080,0.0179
934,0.0,0.0,0.0,0.0,0.0,0.0,-0.0072,-1.0086,0.0195,0.7381,-0.6743,0.0099,0.0184
935,0.0,0.0,0.0,0.0,0.0,0.0,-0.0082,-0.9915,0.0195,0.7398,-0.6724,0.0120,0.0190
936,0.0,0.0,0.0,0.0,0.0,0.0,-0.0102,-0.9803,0.0195,0.7410,-0.6710,0.0137,0.0196
937,0.0,0.0,0.0,0.0,0.0,0.0,-0.0072,-0.9598,0.0185,0.7416,-0.6704,0.0149,0.0201
938,0.0,0.0,0.0,0.0,0.0,0.0,0.0035,-0.9496,0.0156,0.7413,-0.6707,0.0156,0.0206
939,0.0,0.0,0.0,0.0,0.0,0.0,0.0123,-0.9481,0.0137,0.7404,-0.6716,0.0160,0.0208
940,0.0,0.0,0.0,0.0,0.0,0.0,0.0089,-0.9452,0.0088,0.7392,-0.6730,0.0163,0.0206
941,0.0,0.0,0.0,0.0,0.0,0.0,0.0089,-0.9437,0.0005,0.7374,-0.6750,0.0161,0.0201
942,0.0,0.0,0.0,0.0,0.0,0.0,0.0089,-0.9564,-0.0069,0.7350,-0.6776,0.0157,0.0192
943,0.0,0.0,0.0,0.0,0.0,0.0,0.0055,-0.9690,-0.0171,0.7325,-0.6803,0.0153,0.0179
944,0.0,0.0,0.0,0.0,0.0,0.0,0.0064,-0.9695,-0.0259,0.7298,-0.6833,0.0147,0.0162
945,0.0,0.0,0.0,0.0,0.0,0.0,0.0064,-0.9714,-0.0323,0.7269,-0.6865,0.0139,0.0144
946,0.0,0.0,0.0,0.0,0.0,0.0,0.0069,-0.9778,-0.0357,0.7240,-0.6896,0.0130,0.0122
947,0.0,0.0,0.0,0.0,0.0,0.0,0.0050,-0.9856,-0.0391,0.7210,-0.6927,0.0122,0.0100
948,0.0,0.0,0.0,0.0,0.0,0.0,0.0025,-0.9987,-0.0416,0.7179,-0.6960,0.0113,0.0075
949,0.0,0.0,0.0,0.0,0.0,0.0,0.0016,-1.0182,-0.0421,0.7149,-0.6991,0.0104,0.0047
950,0.0,0.0,0.0,0.0,0.0,0.0,-0.0009,-1.0255,-0.0460,0.7124,-0.7018,0.0097,0.0016
951,0.0,0.0,0.0,0.0,0.0,0.0,-0.0014,-1.0309,-0.0518,0.7097,-0.7044,0.0090,-0.0017
952,0.0,0.0,0.0,0.0,0.0,0.0,-0.0023,-1.0553,-0.0499,0.7075,-0.7067,0.0085,-0.0048
953,0.0,0.0,0.0,0.0,0.0,0.0,-0.0077,-1.0645,-0.0523,0.7060,-0.7081,0.0084,-0.0078
954,0.0,0.0,0.0,0.0,0.0,0.0,-0.0165,-1.0845,-0.0533,0.7052,-0.7089,0.0090,-0.0104
955,0.0,0.0,0.0,0.0,0.0,0.0,-0.0238,-1.0840,-0.0529,0.7053,-0.7088,0.0104,-0.0126
956,0.0,0.0,0.0,0.0,0.0,0.0,-0.0263,-1.0767,-0.0553,0.7057,-0.7083,0.0118,-0.0144
957,0.0,0.0,0.0,0.0,0.0,0.0,-0.0229,-1.0626,-0.0592,0.7066,-0.7073,0.0131,-0.0158
958,0.0,0.0,0.0,0.0,0.0,0.0,-0.0165,-1.0470,-0.0607,0.7078,-0.7061,0.0145,-0.0166
959,0.0,0.0,0.0,0.0,0.0,0.0,-0.0131,-1.0470,-0.0528,0.7093,-0.7045,0.0158,-0.0168
960,0.0,0.0,0.0,0.0,0.0,0.0,-0.0126,-1.0441,-0.0440,0.7111,-0.7027,0.0171,-0.0167
961,0.0,0.0,0.0,0.0,0.0,0.0,-0.0107,-1.0368,-0.0343,0.7128,-0.7009,0.0182,-0.0160
962,0.0,0.0,0.0,0.0,0.0,0.0,-0.0097,-1.0319,-0.0255,0.7151,-0.6986,0.0192,-0.0151
963,0.0,0.0,0.0,0.0,0.0,0.0,-0.0033,-1.0163,-0.0220,0.7174,-0.6962,0.0200,-0.0140
964,0.0,0.0,0.0,0.0,0.0,0.0,0.0016,-1.0066,-0.0162,0.7195,-0.6941,0.0204,-0.0129
965,0.0,0.0,0.0,0.0,0.0,0.0,0.0084,-1.0017,-0.0083,0.7216,-0.6919,0.0204,-0.0118
966,0.0,0.0,0.0,0.0,0.0,0.0,0.0143,-0.9964,-0.0034,0.7236,-0.6899,0.0200,-0.0107
967,0.0,0.0,0.0,0.0,0.0,0.0,0.0222,-0.9954,0.0005,0.7254,-0.6880,0.0194,-0.0098
968,0.0,0.0,0.0,0.0,0.0,0.0,0.0329,-0.9954,0.0020,0.7271,-0.6862,0.0185,-0.0091
969,0.0,0.0,0.0,0.0,0.0,0.0,0.0368,-0.9944,0.0039,0.7285,-0.6847,0.0177,-0.0086
970,0.0,0.0,0.0,0.0,0.0,0.0,0.0408,-0.9974,0.0049,0.7296,-0.6836,0.0168,-0.0082
971,0.0,0.0,0.0,0.0,0.0,0.0,0.0398,-0.9964,0.0025,0.7303,-0.6829,0.0160,-0.0081
972,0.0,0.0,0.0,0.0,0.0,0.0,0.0393,-0.9930,-0.0024,0.7309,-0.6823,0.0154,-0.0081
973,0.0,0.0,0.0,0.0,0.0,0.0,0.0393,-0.9944,-0.0063,0.7312,-0.6819,0.0149,-0.0083
974,0.0,0.0,0.0,0.0,0.0,0.0,0.0359,-1.0066,-0.0093,0.7314,-0.6817,0.0143,-0.0084
975,0.0,0.0,0.0,0.0,0.0,0.0,0.0378,-1.0178,-0.0132,0.7316,-0.6815,0.0137,-0.0086
976,0.0,0.0,0.0,0.0,0.0,0.0,0.0329,-1.0188,-0.0186,0.7316,-0.6815,0.0131,-0.0087
977,0.0,0.0,0.0,0.0,0.0,0.0,0.0310,-1.0159,-0.0225,0.7317,-0.6815,0.0126,-0.0088
978,0.0,0.0,0.0,0.0,0.0,0.0,0.0310,-1.0290,-0.0239,0.7317,-0.6815,0.0122,-0.0086
979,0.0,0.0,0.0,0.0,0.0,0.0,0.0334,-1.0441,-0.0215,0.7317,-0.6814,0.0117,-0.0081
980,0.0,0.0,0.0,0.0,0.0,0.0,0.0349,-1.0437,-0.0190,0.7321,-0.6811,0.0117,-0.0074
981,0.0,0.0,0.0,0.0,0.0,0.0,0.0373,-1.0276,-0.0171,0.7324,-0.6807,0.0119,-0.0065
982,0.0,0.0,0.0,0.0,0.0,0.0,0.0329,-1.0056,-0.0171,0.7327,-0.6804,0.0122,-0.0056
983,0.0,0.0,0.0,0.0,0.0,0.0,0.0226,-0.9842,-0.0181,0.7330,-0.6801,0.0128,-0.0048
984,0.0,0.0,0.0,0.0,0.0,0.0,0.0177,-0.9554,-0.0186,0.7328,-0.6803,0.0130,-0.0039
985,0.0,0.0,0.0,0.0,0.0,0.0,0.0099,-0.9832,-0.0025,0.7328,-0.6803,0.0131,-0.0030
986,0.0,0.0,0.0,0.0,0.0,0.0,0.0143,-0.9778,0.0010,0.7329,-0.6802,0.0128,-0.0024
987,0.0,0.0,0.0,0.0,0.0,0.0,0.0148,-0.9969,0.0068,0.7329,-0.6802,0.0124,-0.0020
988,0.0,0.0,0.0,0.0,0.0,0.0,0.0094,-1.0042,0.0097,0.7331,-0.6800,0.0121,-0.0022
989,0.0,0.0,0.0,0.0,0.0,0.0,0.0080,-1.0071,0.0093,0.7333,-0.6798,0.0118,-0.0026
990,0.0,0.0,0.0,0.0,0.0,0.0,0.0080,-1.0100,0.0039,0.7331,-0.6800,0.0113,-0.0032
991,0.0,0.0,0.0,0.0,0.0,0.0,0.0085,-1.0207,-0.0010,0.7328,-0.6803,0.0109,-0.0040
992,0.0,0.0,0.0,0.0,0.0,0.0,0.0099,-1.0320,-0.0054,0.7324,-0.6807,0.0105,-0.0045
993,0.0,0.0,0.0,0.0,0.0,0.0,0.0124,-1.0363,-0.0083,0.7322,-0.6810,0.0104,-0.0050
994,0.0,0.0,0.0,0.0,0.0,0.0,0.0158,-1.0349,-0.0078,0.7323,-0.6809,0.0104,-0.0053
995,0.0,0.0,0.0,0.0,0.0,0.0,0.0217,-1.0286,-0.0064,0.7325,-0.6807,0.0105,-0.0053
996,0.0,0.0,0.0,0.0,0.0,0.0,0.0197,-1.0393,-0.0044,0.7328,-0.6803,0.0110,-0.0052
997,0.0,0.0,0.0,0.0,0.0,0.0,0.0227,-1.0471,-0.0029,0.7333,-0.6798,0.0116,-0.0049
998,0.0,0.0,0.0,0.0,0.0,0.0,0.0251,-1.0427,-0.0024,0.7340,-0.6790,0.0124,-0.0044
999,0.0,0.0,0.0,0.0,0.0,0.0,0.0285,-1.0329,-0.0078,0.7347,-0.6782,0.0133,-0.0037
1000,0.0,0.0,0.0,0.0,0.0,0.0,0.0310,-1.0271,-0.0103,0.7355,-0.6774,0.0145,-0.0030
1001,0.0,0.0,0.0,0.0,0.0,0.0,0.0266,-1.0076,-0.0132,0.7361,-0.6767,0.0159,-0.0023
1002,0.0,0.0,0.0,0.0,0.0,0.0,0.0221,-0.9934,-0.0127,0.7366,-0.6761,0.0172,-0.0016
1003,0.0,0.0,0.0,0.0,0.0,0.0,0.0182,-0.9929,-0.0083,0.7369,-0.6757,0.0183,-0.0010
1004,0.0,0.0,0.0,0.0,0.0,0.0,0.0089,-0.9900,-0.0069,0.7370,-0.6756,0.0195,-0.0005
1005,0.0,0.0,0.0,0.0,0.0,0.0,0.0089,-0.9768,-0.0054,0.7370,-0.6756,0.0204,-0.0002
1006,0.0,0.0,0.0,0.0,0.0,0.0,0.0074,-0.9710,-0.0030,0.7367,-0.6759,0.0210,-0.0003
1007,0.0,0.0,0.0,0.0,0.0,0.0,0.0060,-0.9568,-0.0025,0.7361,-0.6766,0.0212,-0.0006
1008,0.0,0.0,0.0,0.0,0.0,0.0,0.0025,-0.9729,-0.0005,0.7354,-0.6773,0.0209,-0.0009
1009,0.0,0.0,0.0,0.0,0.0,0.0,-0.0053,-0.9881,0.0004,0.7347,-0.6781,0.0204,-0.0014
1010,0.0,0.0,0.0,0.0,0.0,0.0,-0.0082,-1.0120,0.0034,0.7343,-0.6785,0.0198,-0.0020
1011,0.0,0.0,0.0,0.0,0.0,0.0,-0.0018,-1.0066,0.0029,0.7341,-0.6788,0.0191,-0.0023
1012,0.0,0.0,0.0,0.0,0.0,0.0,0.0075,-0.9944,0.0009,0.7339,-0.6790,0.0180,-0.0028
1013,0.0,0.0,0.0,0.0,0.0,0.0,0.0055,-1.0012,0.0039,0.7338,-0.6791,0.0169,-0.0032
1014,0.0,0.0,0.0,0.0,0.0,0.0,0.0085,-1.0076,0.0073,0.7334,-0.6796,0.0155,-0.0036
1015,0.0,0.0,0.0,0.0,0.0,0.0,0.0090,-1.0242,0.0117,0.7329,-0.6801,0.0143,-0.0038
1016,0.0,0.0,0.0,0.0,0.0,0.0,0.0046,-1.0539,0.0181,0.7330,-0.6801,0.0135,-0.0039
1017,0.0,0.0,0.0,0.0,0.0,0.0,0.0022,-1.0617,0.0176,0.7334,-0.6797,0.0134,-0.0037
1018,0.0,0.0,0.0,0.0,0.0,0.0,0.0085,-1.0481,0.0195,0.7340,-0.6790,0.0134,-0.0033
1019,0.0,0.0,0.0,0.0,0.0,0.0,0.0090,-1.0296,0.0200,0.7349,-0.6780,0.0135,-0.0029
1020,0.0,0.0,0.0,0.0,0.0,0.0,0.0105,-1.0203,0.0205,0.7356,-0.6772,0.0137,-0.0022
1021,0.0,0.0,0.0,0.0,0.0,0.0,0.0124,-1.0320,0.0254,0.7360,-0.6768,0.0138,-0.0016
1022,0.0,0.0,0.0,0.0,0.0,0.0,0.0105,-1.0359,0.0264,0.7364,-0.6764,0.0142,-0.0008
1023,0.0,0.0,0.0,0.0,0.0,0.0,0.0095,-1.0403,0.0283,0.7370,-0.6757,0.0151,0.0001
1024,0.0,0.0,0.0,0.0,0.0,0.0,0.0056,-1.0340,0.0273,0.7377,-0.6750,0.0164,0.0010
1025,0.0,0.0,0.0,0.0,0.0,0.0,-0.0229,-1.0046,0.0151,0.7373,-0.6753,0.0188,0.0023
1026,0.0,0.0,0.0,0.0,0.0,0.0,0.0021,-1.0008,0.0107,0.7344,-0.6784,0.0204,0.0045
1027,0.0,0.0,0.0,0.0,0.0,0.0,0.0262,-1.1252,0.0376,0.7324,-0.6805,0.0222,0.0066
1028,0.0,0.0,0.0,0.0,0.0,0.0,0.0342,-1.1823,0.0538,0.7325,-0.6802,0.0256,0.0079
1029,0.0,0.0,0.0,0.0,0.0,0.0,-0.0300,-1.1349,0.0459,0.7347,-0.6775,0.0331,0.0098
1030,0.0,0.0,0.0,0.0,0.0,0.0,-0.0273,-1.0110,0.0121,0.7386,-0.6727,0.0418,0.0141
1031,0.0,0.0,0.0,0.0,0.0,0.0,-0.0719,-0.9700,0.0106,0.7418,-0.6684,0.0500,0.0194
1032,0.0,0.0,0.0,0.0,0.0,0.0,-0.0773,-0.8880,0.0067,0.7434,-0.6661,0.0552,0.0239
1033,0.0,0.0,0.0,0.0,0.0,0.0,-0.0788,-0.9295,0.0164,0.7441,-0.6649,0.0586,0.0273
1034,0.0,0.0,0.0,0.0,0.0,0.0,-0.1125,-0.9616,0.0198,0.7448,-0.6638,0.0609,0.0300
1035,0.0,0.0,0.0,0.0,0.0,0.0,-0.1164,-0.9504,0.0227,0.7459,-0.6623,0.0623,0.0324
1036,0.0,0.0,0.0,0.0,0.0,0.0,-0.1091,-0.9285,0.0188,0.7474,-0.6605,0.0632,0.0338
1037,0.0,0.0,0.0,0.0,0.0,0.0,-0.1022,-0.9402,0.0247,0.7488,-0.6589,0.0627,0.0343
1038,0.0,0.0,0.0,0.0,0.0,0.0,-0.1120,-0.9919,0.0335,0.7496,-0.6581,0.0612,0.0349
1039,0.0,0.0,0.0,0.0,0.0,0.0,-0.1012,-0.9895,0.0320,0.7504,-0.6574,0.0586,0.0362
1040,0.0,0.0,0.0,0.0,0.0,0.0,-0.1041,-1.0061,0.0335,0.7507,-0.6572,0.0555,0.0377
1041,0.0,0.0,0.0,0.0,0.0,0.0,-0.1031,-1.0129,0.0306,0.7508,-0.6572,0.0527,0.0398
1042,0.0,0.0,0.0,0.0,0.0,0.0,-0.0992,-0.9914,0.0267,0.7509,-0.6572,0.0497,0.0424
1043,0.0,0.0,0.0,0.0,0.0,0.0,-0.0841,-0.9963,0.0262,0.7507,-0.6575,0.0459,0.0452
1044,0.0,0.0,0.0,0.0,0.0,0.0,-0.0806,-1.0012,0.0252,0.7508,-0.6574,0.0423,0.0479
1045,0.0,0.0,0.0,0.0,0.0,0.0,-0.0704,-0.9871,0.0233,0.7512,-0.6570,0.0385,0.0506
1046,0.0,0.0,0.0,0.0,0.0,0.0,-0.0591,-0.9958,0.0287,0.7518,-0.6563,0.0345,0.0532
1047,0.0,0.0,0.0,0.0,0.0,0.0,-0.0503,-0.9934,0.0380,0.7525,-0.6555,0.0303,0.0554
1048,0.0,0.0,0.0,0.0,0.0,0.0,-0.0395,-0.9822,0.0395,0.7531,-0.6549,0.0257,0.0569
1049,0.0,0.0,0.0,0.0,0.0,0.0,-0.0317,-0.9642,0.0419,0.7537,-0.6544,0.0205,0.0575
1050,0.0,0.0,0.0,0.0,0.0,0.0,-0.0190,-0.9437,0.0405,0.7543,-0.6539,0.0145,0.0571
1051,0.0,0.0,0.0,0.0,0.0,0.0,-0.0184,-0.9886,0.0468,0.7545,-0.6539,0.0083,0.0565
1052,0.0,0.0,0.0,0.0,0.0,0.0,-0.0077,-0.9886,0.0488,0.7540,-0.6546,0.0018,0.0557
1053,0.0,0.0,0.0,0.0,0.0,0.0,-0.0003,-0.9993,0.0493,0.7527,-0.6561,-0.0043,0.0547
1054,0.0,0.0,0.0,0.0,0.0,0.0,0.0021,-1.0062,0.0391,0.7509,-0.6582,-0.0094,0.0536
1055,0.0,0.0,0.0,0.0,0.0,0.0,0.0051,-1.0140,0.0327,0.7483,-0.6611,-0.0137,0.0525
1056,0.0,0.0,0.0,0.0,0.0,0.0,0.0012,-1.0369,0.0283,0.7454,-0.6645,-0.0169,0.0515
1057,0.0,0.0,0.0,0.0,0.0,0.0,-0.0023,-1.0442,0.0180,0.7422,-0.6681,-0.0183,0.0505
1058,0.0,0.0,0.0,0.0,0.0,0.0,-0.0130,-1.0451,0.0112,0.7393,-0.6713,-0.0184,0.0496
1059,0.0,0.0,0.0,0.0,0.0,0.0,-0.0194,-1.0393,0.0038,0.7365,-0.6745,-0.0174,0.0488
1060,0.0,0.0,0.0,0.0,0.0,0.0,-0.0248,-1.0427,-0.0025,0.7339,-0.6774,-0.0157,0.0480
1061,0.0,0.0,0.0,0.0,0.0,0.0,-0.0341,-1.0300,-0.0104,0.7317,-0.6798,-0.0133,0.0470
1062,0.0,0.0,0.0,0.0,0.0,0.0,-0.0376,-1.0119,-0.0177,0.7300,-0.6819,-0.0105,0.0461
1063,0.0,0.0,0.0,0.0,0.0,0.0,-0.0454,-1.0348,-0.0172,0.7283,-0.6837,-0.0075,0.0454
1064,0.0,0.0,0.0,0.0,0.0,0.0,-0.0576,-1.0528,-0.0167,0.7271,-0.6851,-0.0041,0.0446
1065,0.0,0.0,0.0,0.0,0.0,0.0,-0.0606,-1.0397,-0.0202,0.7263,-0.6860,-0.0007,0.0438
1066,0.0,0.0,0.0,0.0,0.0,0.0,-0.0655,-1.0285,-0.0177,0.7256,-0.6868,0.0025,0.0430
1067,0.0,0.0,0.0,0.0,0.0,0.0,-0.0743,-1.0372,-0.0090,0.7252,-0.6872,0.0056,0.0422
1068,0.0,0.0,0.0,0.0,0.0,0.0,-0.0884,-1.0645,0.0003,0.7255,-0.6869,0.0090,0.0415
1069,0.0,0.0,0.0,0.0,0.0,0.0,-0.0953,-1.0416,0.0027,0.7263,-0.6860,0.0126,0.0409
1070,0.0,0.0,0.0,0.0,0.0,0.0,-0.0748,-0.9890,-0.0051,0.7266,-0.6856,0.0152,0.0406
1071,0.0,0.0,0.0,0.0,0.0,0.0,-0.0797,-1.0187,0.0081,0.7274,-0.6848,0.0176,0.0403
1072,0.0,0.0,0.0,0.0,0.0,0.0,-0.0880,-1.0178,0.0174,0.7287,-0.6834,0.0201,0.0400
1073,0.0,0.0,0.0,0.0,0.0,0.0,-0.0797,-1.0080,0.0164,0.7298,-0.6821,0.0221,0.0398
1074,0.0,0.0,0.0,0.0,0.0,0.0,-0.0757,-1.0075,0.0164,0.7309,-0.6809,0.0236,0.0395
1075,0.0,0.0,0.0,0.0,0.0,0.0,-0.0752,-1.0036,0.0199,0.7322,-0.6795,0.0249,0.0392
1076,0.0,0.0,0.0,0.0,0.0,0.0,-0.0728,-0.9992,0.0194,0.7332,-0.6784,0.0255,0.0388
1077,0.0,0.0,0.0,0.0,0.0,0.0,-0.0694,-0.9866,0.0150,0.7338,-0.6777,0.0257,0.0384
1078,0.0,0.0,0.0,0.0,0.0,0.0,-0.0669,-0.9875,0.0184,0.7345,-0.6771,0.0252,0.0381
1079,0.0,0.0,0.0,0.0,0.0,0.0,-0.0635,-1.0154,0.0262,0.7353,-0.6763,0.0244,0.0381
1080,0.0,0.0,0.0,0.0,0.0,0.0,-0.0615,-1.0149,0.0287,0.7366,-0.6749,0.0233,0.0380
1081,0.0,0.0,0.0,0.0,0.0,0.0,-0.0517,-0.9968,0.0277,0.7380,-0.6734,0.0220,0.0379
1082,0.0,0.0,0.0,0.0,0.0,0.0,-0.0419,-1.0027,0.0282,0.7391,-0.6722,0.0202,0.0380
1083,0.0,0.0,0.0,0.0,0.0,0.0,-0.0375,-1.0081,0.0287,0.7403,-0.6709,0.0185,0.0382
1084,0.0,0.0,0.0,0.0,0.0,0.0,-0.0370,-1.0198,0.0307,0.7414,-0.6697,0.0170,0.0385
1085,0.0,0.0,0.0,0.0,0.0,0.0,-0.0331,-1.0159,0.0356,0.7427,-0.6684,0.0153,0.0388
1086,0.0,0.0,0.0,0.0,0.0,0.0,-0.0267,-1.0183,0.0410,0.7439,-0.6670,0.0135,0.0392
1087,0.0,0.0,0.0,0.0,0.0,0.0,-0.0267,-1.0315,0.0459,0.7452,-0.6655,0.0118,0.0396
1088,0.0,0.0,0.0,0.0,0.0,0.0,-0.0189,-1.0027,0.0434,0.7466,-0.6640,0.0102,0.0402
1089,0.0,0.0,0.0,0.0,0.0,0.0,-0.0013,-0.9598,0.0371,0.7472,-0.6633,0.0078,0.0409
1090,0.0,0.0,0.0,0.0,0.0,0.0,0.0026,-0.9574,0.0361,0.7476,-0.6629,0.0051,0.0415
1091,0.0,0.0,0.0,0.0,0.0,0.0,-0.0013,-0.9979,0.0434,0.7475,-0.6629,0.0020,0.0420
1092,0.0,0.0,0.0,0.0,0.0,0.0,0.0017,-1.0359,0.0483,0.7477,-0.6627,-0.0007,0.0424
1093,0.0,0.0,0.0,0.0,0.0,0.0,0.0056,-1.0252,0.0435,0.7479,-0.6624,-0.0032,0.0428
1094,0.0,0.0,0.0,0.0,0.0,0.0,0.0154,-1.0003,0.0371,0.7479,-0.6624,-0.0059,0.0433
1095,0.0,0.0,0.0,0.0,0.0,0.0,0.0134,-0.9891,0.0337,0.7479,-0.6623,-0.0080,0.0438
1096,0.0,0.0,0.0,0.0,0.0,0.0,0.0133,-0.9701,0.0259,0.7475,-0.6627,-0.0103,0.0443
1097,0.0,0.0,0.0,0.0,0.0,0.0,0.0133,-0.9647,0.0181,0.7465,-0.6638,-0.0130,0.0445
1098,0.0,0.0,0.0,0.0,0.0,0.0,0.0089,-0.9578,0.0132,0.7449,-0.6654,-0.0158,0.0446
1099,0.0,0.0,0.0,0.0,0.0,0.0,0.0114,-0.9939,0.0166,0.7431,-0.6674,-0.0188,0.0446
1100,0.0,0.0,0.0,0.0,0.0,0.0,0.0065,-1.0164,0.0156,0.7417,-0.6690,-0.0215,0.0443
1101,0.0,0.0,0.0,0.0,0.0,0.0,0.0070,-1.0320,0.0117,0.7400,-0.6707,-0.0242,0.0440
1102,0.0,0.0,0.0,0.0,0.0,0.0,0.0085,-1.0417,0.0054,0.7384,-0.6724,-0.0265,0.0436
1103,0.0,0.0,0.0,0.0,0.0,0.0,0.0070,-1.0256,-0.0098,0.7369,-0.6740,-0.0283,0.0433
1104,0.0,0.0,0.0,0.0,0.0,0.0,0.0011,-1.0212,-0.0220,0.7353,-0.6758,-0.0297,0.0428
1105,0.0,0.0,0.0,0.0,0.0,0.0,-0.0028,-1.0314,-0.0255,0.7338,-0.6774,-0.0308,0.0426
1106,0.0,0.0,0.0,0.0,0.0,0.0,0.0045,-1.0114,-0.0323,0.7322,-0.6790,-0.0322,0.0425
1107,0.0,0.0,0.0,0.0,0.0,0.0,0.0089,-1.0139,-0.0333,0.7309,-0.6804,-0.0336,0.0423
1108,0.0,0.0,0.0,0.0,0.0,0.0,0.0055,-1.0158,-0.0352,0.7297,-0.6816,-0.0349,0.0421
1109,0.0,0.0,0.0,0.0,0.0,0.0,0.0030,-1.0256,-0.0318,0.7289,-0.6824,-0.0360,0.0417
1110,0.0,0.0,0.0,0.0,0.0,0.0,0.0075,-1.0295,-0.0284,0.7289,-0.6824,-0.0370,0.0414
1111,0.0,0.0,0.0,0.0,0.0,0.0,0.0080,-1.0295,-0.0254,0.7288,-0.6824,-0.0380,0.0410
1112,0.0,0.0,0.0,0.0,0.0,0.0,0.0109,-1.0173,-0.0245,0.7287,-0.6825,-0.0392,0.0408
1113,0.0,0.0,0.0,0.0,0.0,0.0,0.0192,-1.0115,-0.0235,0.7288,-0.6823,-0.0404,0.0407
1114,0.0,0.0,0.0,0.0,0.0,0.0,0.0221,-1.0149,-0.0200,0.7289,-0.6822,-0.0417,0.0407
1115,0.0,0.0,0.0,0.0,0.0,0.0,0.0241,-1.0203,-0.0147,0.7290,-0.6819,-0.0428,0.0410
1116,0.0,0.0,0.0,0.0,0.0,0.0,0.0261,-1.0266,-0.0078,0.7294,-0.6814,-0.0436,0.0416
1117,0.0,0.0,0.0,0.0,0.0,0.0,0.0305,-1.0232,-0.0044,0.7297,-0.6810,-0.0443,0.0424
1118,0.0,0.0,0.0,0.0,0.0,0.0,0.0344,-1.0193,-0.0015,0.7302,-0.6805,-0.0446,0.0433
1119,0.0,0.0,0.0,0.0,0.0,0.0,0.0374,-1.0208,0.0025,0.7304,-0.6802,-0.0448,0.0443
1120,0.0,0.0,0.0,0.0,0.0,0.0,0.0374,-1.0125,0.0030,0.7304,-0.6801,-0.0448,0.0453
1121,0.0,0.0,0.0,0.0,0.0,0.0,0.0320,-1.0086,0.0010,0.7303,-0.6802,-0.0443,0.0460
1122,0.0,0.0,0.0,0.0,0.0,0.0,0.0236,-1.0188,0.0010,0.7302,-0.6802,-0.0433,0.0467
1123,0.0,0.0,0.0,0.0,0.0,0.0,0.0173,-1.0173,-0.0010,0.7301,-0.6804,-0.0420,0.0474
1124,0.0,0.0,0.0,0.0,0.0,0.0,0.0134,-1.0212,-0.0005,0.7298,-0.6807,-0.0406,0.0480
1125,0.0,0.0,0.0,0.0,0.0,0.0,0.0060,-1.0163,-0.0054,0.7297,-0.6809,-0.0389,0.0483
1126,0.0,0.0,0.0,0.0,0.0,0.0,0.0021,-1.0144,-0.0088,0.7296,-0.6811,-0.0371,0.0485
1127,0.0,0.0,0.0,0.0,0.0,0.0,-0.0057,-1.0271,-0.0079,0.7293,-0.6816,-0.0352,0.0486
1128,0.0,0.0,0.0,0.0,0.0,0.0,-0.0072,-1.0139,-0.0118,0.7290,-0.6820,-0.0330,0.0487
1129,0.0,0.0,0.0,0.0,0.0,0.0,-0.0072,-1.0183,-0.0147,0.7288,-0.6823,-0.0309,0.0488
1130,0.0,0.0,0.0,0.0,0.0,0.0,-0.0077,-1.0178,-0.0128,0.7288,-0.6823,-0.0288,0.0489
1131,0.0,0.0,0.0,0.0,0.0,0.0,-0.0126,-1.0080,-0.0167,0.7289,-0.6824,-0.0266,0.0489
1132,0.0,0.0,0.0,0.0,0.0,0.0,-0.0165,-1.0251,-0.0142,0.7290,-0.6823,-0.0245,0.0489
1133,0.0,0.0,0.0,0.0,0.0,0.0,-0.0199,-1.0251,-0.0147,0.7289,-0.6825,-0.0225,0.0487
1134,0.0,0.0,0.0,0.0,0.0,0.0,-0.0224,-1.0187,-0.0177,0.7290,-0.6825,-0.0204,0.0487
1135,0.0,0.0,0.0,0.0,0.0,0.0,-0.0239,-1.0051,-0.0221,0.7291,-0.6825,-0.0183,0.0488
1136,0.0,0.0,0.0,0.0,0.0,0.0,-0.0229,-1.0080,-0.0201,0.7288,-0.6828,-0.0166,0.0490
1137,0.0,0.0,0.0,0.0,0.0,0.0,-0.0327,-1.0246,-0.0143,0.7287,-0.6829,-0.0146,0.0492
1138,0.0,0.0,0.0,0.0,0.0,0.0,-0.0273,-0.9943,-0.0187,0.7286,-0.6830,-0.0127,0.0495
1139,0.0,0.0,0.0,0.0,0.0,0.0,-0.0258,-1.0075,-0.0167,0.7284,-0.6832,-0.0109,0.0499
1140,0.0,0.0,0.0,0.0,0.0,0.0,-0.0239,-1.0246,-0.0113,0.7285,-0.6831,-0.0092,0.0502
1141,0.0,0.0,0.0,0.0,0.0,0.0,-0.0287,-1.0568,0.0004,0.7289,-0.6827,-0.0074,0.0505
1142,0.0,0.0,0.0,0.0,0.0,0.0,-0.0185,-1.0202,-0.0079,0.7294,-0.6822,-0.0058,0.0507
1143,0.0,0.0,0.0,0.0,0.0,0.0,-0.0102,-1.0036,-0.0093,0.7302,-0.6813,-0.0042,0.0508
1144,0.0,0.0,0.0,0.0,0.0,0.0,-0.0224,-1.0124,-0.0035,0.7309,-0.6806,-0.0023,0.0509
1145,0.0,0.0,0.0,0.0,0.0,0.0,-0.0283,-1.0100,-0.0016,0.7311,-0.6804,-0.0005,0.0509
1146,0.0,0.0,0.0,0.0,0.0,0.0,-0.0288,-0.9953,-0.0030,0.7315,-0.6800,0.0013,0.0506
1147,0.0,0.0,0.0,0.0,0.0,0.0,-0.0293,-0.9885,-0.0045,0.7319,-0.6796,0.0029,0.0503
1148,0.0,0.0,0.0,0.0,0.0,0.0,-0.0317,-0.9831,-0.0025,0.7322,-0.6793,0.0042,0.0498
1149,0.0,0.0,0.0,0.0,0.0,0.0,-0.0332,-0.9851,0.0014,0.7324,-0.6790,0.0053,0.0494
1150,0.0,0.0,0.0,0.0,0.0,0.0,-0.0395,-1.0036,0.0062,0.7326,-0.6788,0.0064,0.0490
1151,0.0,0.0,0.0,0.0,0.0,0.0,-0.0405,-1.0139,0.0111,0.7327,-0.6788,0.0073,0.0485
1152,0.0,0.0,0.0,0.0,0.0,0.0,-0.0449,-1.0197,0.0116,0.7329,-0.6786,0.0081,0.0480
1153,0.0,0.0,0.0,0.0,0.0,0.0,-0.0473,-1.0300,0.0097,0.7331,-0.6784,0.0091,0.0476
1154,0.0,0.0,0.0,0.0,0.0,0.0,-0.0512,-1.0275,0.0057,0.7330,-0.6785,0.0101,0.0472
1155,0.0,0.0,0.0,0.0,0.0,0.0,-0.0567,-1.0085,0.0038,0.7333,-0.6782,0.0113,0.0470
1156,0.0,0.0,0.0,0.0,0.0,0.0,-0.0596,-1.0139,0.0091,0.7340,-0.6774,0.0124,0.0471
1157,0.0,0.0,0.0,0.0,0.0,0.0,-0.0581,-1.0109,0.0096,0.7348,-0.6765,0.0133,0.0472
1158,0.0,0.0,0.0,0.0,0.0,0.0,-0.0537,-0.9875,0.0101,0.7357,-0.6756,0.0135,0.0472
1159,0.0,0.0,0.0,0.0,0.0,0.0,-0.0488,-0.9793,0.0126,0.7362,-0.6750,0.0131,0.0473
1160,0.0,0.0,0.0,0.0,0.0,0.0,-0.0493,-0.9949,0.0136,0.7363,-0.6748,0.0120,0.0475
1161,0.0,0.0,0.0,0.0,0.0,0.0,-0.0522,-1.0022,0.0140,0.7366,-0.6746,0.0110,0.0476
1162,0.0,0.0,0.0,0.0,0.0,0.0,-0.0415,-0.9846,0.0155,0.7368,-0.6744,0.0094,0.0476
1163,0.0,0.0,0.0,0.0,0.0,0.0,-0.0366,-1.0159,0.0180,0.7368,-0.6743,0.0074,0.0475
1164,0.0,0.0,0.0,0.0,0.0,0.0,-0.0371,-1.0090,0.0131,0.7369,-0.6743,0.0055,0.0473
1165,0.0,0.0,0.0,0.0,0.0,0.0,-0.0268,-0.9910,0.0102,0.7368,-0.6745,0.0032,0.0469
1166,0.0,0.0,0.0,0.0,0.0,0.0,-0.0175,-0.9807,0.0107,0.7364,-0.6750,0.0005,0.0465
1167,0.0,0.0,0.0,0.0,0.0,0.0,-0.0165,-0.9798,0.0136,0.7358,-0.6757,-0.0024,0.0459
1168,0.0,0.0,0.0,0.0,0.0,0.0,-0.0165,-0.9881,0.0190,0.7350,-0.6765,-0.0052,0.0453
1169,0.0,0.0,0.0,0.0,0.0,0.0,-0.0101,-0.9895,0.0185,0.7343,-0.6773,-0.0079,0.0446
1170,0.0,0.0,0.0,0.0,0.0,0.0,-0.0062,-1.0056,0.0190,0.7335,-0.6782,-0.0103,0.0441
1171,0.0,0.0,0.0,0.0,0.0,0.0,-0.0057,-1.0090,0.0151,0.7329,-0.6788,-0.0122,0.0437
1172,0.0,0.0,0.0,0.0,0.0,0.0,0.0050,-0.9988,0.0068,0.7319,-0.6799,-0.0141,0.0432
1173,0.0,0.0,0.0,0.0,0.0,0.0,0.0065,-1.0144,0.0014,0.7303,-0.6816,-0.0158,0.0428
1174,0.0,0.0,0.0,0.0,0.0,0.0,0.0084,-1.0061,-0.0078,0.7284,-0.6837,-0.0171,0.0422
1175,0.0,0.0,0.0,0.0,0.0,0.0,0.0050,-1.0144,-0.0123,0.7263,-0.6858,-0.0182,0.0417
1176,0.0,0.0,0.0,0.0,0.0,0.0,-0.0003,-1.0344,-0.0108,0.7247,-0.6876,-0.0186,0.0412
1177,0.0,0.0,0.0,0.0,0.0,0.0,-0.0087,-1.0368,-0.0137,0.7232,-0.6892,-0.0186,0.0408
1178,0.0,0.0,0.0,0.0,0.0,0.0,-0.0121,-1.0451,-0.0177,0.7220,-0.6904,-0.0179,0.0405
1179,0.0,0.0,0.0,0.0,0.0,0.0,-0.0194,-1.0504,-0.0230,0.7212,-0.6913,-0.0164,0.0403
1180,0.0,0.0,0.0,0.0,0.0,0.0,-0.0185,-1.0441,-0.0309,0.7205,-0.6921,-0.0147,0.0402
1181,0.0,0.0,0.0,0.0,0.0,0.0,-0.0170,-1.0309,-0.0323,0.7200,-0.6927,-0.0131,0.0401
1182,0.0,0.0,0.0,0.0,0.0,0.0,-0.0263,-1.0290,-0.0309,0.7197,-0.6930,-0.0112,0.0400
1183,0.0,0.0,0.0,0.0,0.0,0.0,-0.0288,-1.0197,-0.0319,0.7195,-0.6932,-0.0094,0.0400
1184,0.0,0.0,0.0,0.0,0.0,0.0,-0.0317,-1.0133,-0.0304,0.7194,-0.6934,-0.0077,0.0399
1185,0.0,0.0,0.0,0.0,0.0,0.0,-0.0342,-1.0026,-0.0304,0.7194,-0.6935,-0.0061,0.0397
1186,0.0,0.0,0.0,0.0,0.0,0.0,-0.0342,-0.9870,-0.0333,0.7193,-0.6936,-0.0047,0.0395
1187,0.0,0.0,0.0,0.0,0.0,0.0,-0.0366,-0.9899,-0.0304,0.7194,-0.6935,-0.0037,0.0392
1188,0.0,0.0,0.0,0.0,0.0,0.0,-0.0410,-0.9968,-0.0265,0.7197,-0.6932,-0.0026,0.0387
1189,0.0,0.0,0.0,0.0,0.0,0.0,-0.0464,-0.9972,-0.0226,0.7199,-0.6930,-0.0016,0.0382
1190,0.0,0.0,0.0,0.0,0.0,0.0,-0.0527,-1.0358,-0.0114,0.7202,-0.6928,-0.0007,0.0377
1191,0.0,0.0,0.0,0.0,0.0,0.0,-0.0537,-1.0446,-0.0065,0.7208,-0.6922,0.0003,0.0372
1192,0.0,0.0,0.0,0.0,0.0,0.0,-0.0503,-1.0495,-0.0055,0.7216,-0.6913,0.0012,0.0367
1193,0.0,0.0,0.0,0.0,0.0,0.0,-0.0508,-1.0494,-0.0104,0.7227,-0.6902,0.0023,0.0364
1194,0.0,0.0,0.0,0.0,0.0,0.0,-0.0464,-1.0251,-0.0167,0.7238,-0.6890,0.0033,0.0364
1195,0.0,0.0,0.0,0.0,0.0,0.0,-0.0390,-1.0158,-0.0157,0.7250,-0.6877,0.0038,0.0364
1196,0.0,0.0,0.0,0.0,0.0,0.0,-0.0386,-0.9973,-0.0167,0.7260,-0.6867,0.0041,0.0364
1197,0.0,0.0,0.0,0.0,0.0,0.0,-0.0278,-0.9953,-0.0133,0.7269,-0.6858,0.0036,0.0365
1198,0.0,0.0,0.0,0.0,0.0,0.0,-0.0200,-0.9890,-0.0128,0.7280,-0.6847,0.0024,0.0362
1199,0.0,0.0,0.0,0.0,0.0,0.0,-0.0175,-0.9875,-0.0113,0.7285,-0.6840,0.0010,0.0361
1200,0.0,0.0,0.0,0.0,0.0,0.0,-0.0097,-1.0027,-0.0035,0.7291,-0.6835,-0.0007,0.0361
1201,0.0,0.0,0.0,0.0,0.0,0.0,-0.0033,-1.0100,-0.0005,0.7298,-0.6827,-0.0022,0.0361
1202,0.0,0.0,0.0,0.0,0.0,0.0,0.0050,-1.0081,-0.0025,0.7301,-0.6823,-0.0041,0.0359
1203,0.0,0.0,0.0,0.0,0.0,0.0,0.0080,-1.0139,-0.0020,0.7303,-0.6822,-0.0059,0.0359
1204,0.0,0.0,0.0,0.0,0.0,0.0,0.0099,-1.0144,-0.0020,0.7304,-0.6820,-0.0076,0.0356
1205,0.0,0.0,0.0,0.0,0.0,0.0,0.0114,-1.0144,-0.0030,0.7304,-0.6820,-0.0092,0.0355
1206,0.0,0.0,0.0,0.0,0.0,0.0,0.0114,-1.0154,-0.0054,0.7303,-0.6821,-0.0105,0.0353
1207,0.0,0.0,0.0,0.0,0.0,0.0,0.0109,-1.0144,-0.0069,0.7304,-0.6821,-0.0115,0.0353
1208,0.0,0.0,0.0,0.0,0.0,0.0,0.0104,-1.0105,-0.0093,0.7303,-0.6821,-0.0124,0.0351
1209,0.0,0.0,0.0,0.0,0.0,0.0,0.0084,-1.0076,-0.0127,0.7301,-0.6823,-0.0131,0.0350
1210,0.0,0.0,0.0,0.0,0.0,0.0,0.0094,-1.0061,-0.0127,0.7301,-0.6823,-0.0135,0.0351
1211,0.0,0.0,0.0,0.0,0.0,0.0,0.0089,-1.0090,-0.0118,0.7302,-0.6822,-0.0139,0.0350
1212,0.0,0.0,0.0,0.0,0.0,0.0,0.0084,-1.0110,-0.0132,0.7301,-0.6823,-0.0144,0.0348
1213,0.0,0.0,0.0,0.0,0.0,0.0,0.0099,-1.0158,-0.0171,0.7299,-0.6826,-0.0150,0.0349
1214,0.0,0.0,0.0,0.0,0.0,0.0,0.0070,-1.0232,-0.0201,0.7296,-0.6828,-0.0152,0.0350
1215,0.0,0.0,0.0,0.0,0.0,0.0,0.0055,-1.0275,-0.0220,0.7293,-0.6831,-0.0153,0.0350
1216,0.0,0.0,0.0,0.0,0.0,0.0,-0.0033,-1.0392,-0.0186,0.7292,-0.6833,-0.0152,0.0351
1217,0.0,0.0,0.0,0.0,0.0,0.0,-0.0047,-1.0383,-0.0142,0.7295,-0.6829,-0.0150,0.0351
1218,0.0,0.0,0.0,0.0,0.0,0.0,-0.0077,-1.0329,-0.0118,0.7301,-0.6822,-0.0146,0.0352
1219,0.0,0.0,0.0,0.0,0.0,0.0,-0.0087,-1.0305,-0.0098,0.7311,-0.6812,-0.0140,0.0355
1220,0.0,0.0,0.0,0.0,0.0,0.0,-0.0067,-1.0358,-0.0049,0.7321,-0.6801,-0.0133,0.0360
1221,0.0,0.0,0.0,0.0,0.0,0.0,-0.0042,-1.0354,-0.0035,0.7331,-0.6790,-0.0126,0.0366
1222,0.0,0.0,0.0,0.0,0.0,0.0,-0.0087,-1.0344,-0.0025,0.7339,-0.6781,-0.0116,0.0374
1223,0.0,0.0,0.0,0.0,0.0,0.0,-0.0096,-1.0398,0.0034,0.7349,-0.6771,-0.0104,0.0384
1224,0.0,0.0,0.0,0.0,0.0,0.0,-0.0121,-1.0344,0.0029,0.7361,-0.6756,-0.0092,0.0396
1225,0.0,0.0,0.0,0.0,0.0,0.0,-0.0140,-1.0398,0.0107,0.7374,-0.6741,-0.0078,0.0411
1226,0.0,0.0,0.0,0.0,0.0,0.0,-0.0140,-1.0320,0.0161,0.7389,-0.6725,-0.0062,0.0426
1227,0.0,0.0,0.0,0.0,0.0,0.0,-0.0243,-1.0188,0.0165,0.7405,-0.6706,-0.0042,0.0441
1228,0.0,0.0,0.0,0.0,0.0,0.0,-0.0228,-1.0207,0.0204,0.7419,-0.6689,-0.0024,0.0457
1229,0.0,0.0,0.0,0.0,0.0,0.0,-0.0262,-1.0373,0.0317,0.7437,-0.6668,-0.0006,0.0474
1230,0.0,0.0,0.0,0.0,0.0,0.0,-0.0311,-1.0325,0.0395,0.7460,-0.6642,0.0012,0.0490
1231,0.0,0.0,0.0,0.0,0.0,0.0,-0.0273,-0.9710,0.0366,0.7482,-0.6615,0.0027,0.0507
1232,0.0,0.0,0.0,0.0,0.0,0.0,-0.0234,-0.9491,0.0405,0.7501,-0.6592,0.0033,0.0523
1233,0.0,0.0,0.0,0.0,0.0,0.0,-0.0351,-0.9681,0.0576,0.7520,-0.6570,0.0038,0.0537
1234,0.0,0.0,0.0,0.0,0.0,0.0,-0.0366,-0.9174,0.0527,0.7532,-0.6555,0.0038,0.0549
1235,0.0,0.0,0.0,0.0,0.0,0.0,-0.0253,-0.9428,0.0561,0.7539,-0.6546,0.0025,0.0560
1236,0.0,0.0,0.0,0.0,0.0,0.0,-0.0292,-0.9345,0.0605,0.7545,-0.6539,0.0009,0.0568
1237,0.0,0.0,0.0,0.0,0.0,0.0,-0.0185,-0.9232,0.0522,0.7539,-0.6545,-0.0020,0.0571
1238,0.0,0.0,0.0,0.0,0.0,0.0,-0.0101,-0.9520,0.0444,0.7526,-0.6560,-0.0055,0.0572
1239,0.0,0.0,0.0,0.0,0.0,0.0,-0.0136,-0.9744,0.0341,0.7511,-0.6577,-0.0092,0.0572
1240,0.0,0.0,0.0,0.0,0.0,0.0,-0.0091,-1.0027,0.0214,0.7491,-0.6598,-0.0133,0.0573
1241,0.0,0.0,0.0,0.0,0.0,0.0,-0.0086,-1.0295,0.0136,0.7468,-0.6623,-0.0176,0.0575
1242,0.0,0.0,0.0,0.0,0.0,0.0,-0.0047,-1.0583,0.0107,0.7451,-0.6641,-0.0214,0.0580
1243,0.0,0.0,0.0,0.0,0.0,0.0,0.0158,-1.0081,0.0019,0.7439,-0.6653,-0.0254,0.0583
1244,0.0,0.0,0.0,0.0,0.0,0.0,0.0246,-1.0017,-0.0059,0.7426,-0.6666,-0.0296,0.0586
1245,0.0,0.0,0.0,0.0,0.0,0.0,0.0178,-1.0203,0.0015,0.7411,-0.6680,-0.0334,0.0588
1246,0.0,0.0,0.0,0.0,0.0,0.0,0.0124,-1.0247,0.0049,0.7395,-0.6696,-0.0367,0.0589
1247,0.0,0.0,0.0,0.0,0.0,0.0,0.0090,-1.0622,0.0166,0.7383,-0.6707,-0.0392,0.0593
1248,0.0,0.0,0.0,0.0,0.0,0.0,0.0104,-1.0232,0.0058,0.7376,-0.6713,-0.0411,0.0597
1249,0.0,0.0,0.0,0.0,0.0,0.0,0.0124,-1.0203,0.0029,0.7367,-0.6722,-0.0427,0.0603
1250,0.0,0.0,0.0,0.0,0.0,0.0,0.0134,-1.0369,0.0088,0.7362,-0.6726,-0.0437,0.0608
1251,0.0,0.0,0.0,0.0,0.0,0.0,0.0139,-1.0276,0.0088,0.7358,-0.6729,-0.0444,0.0611
1252,0.0,0.0,0.0,0.0,0.0,0.0,0.0153,-1.0154,0.0088,0.7354,-0.6733,-0.0449,0.0612
1253,0.0,0.0,0.0,0.0,0.0,0.0,0.0129,-1.0178,0.0117,0.7349,-0.6739,-0.0451,0.0611
1254,0.0,0.0,0.0,0.0,0.0,0.0,0.0095,-1.0208,0.0146,0.7344,-0.6745,-0.0449,0.0606
1255,0.0,0.0,0.0,0.0,0.0,0.0,0.0036,-1.0193,0.0136,0.7341,-0.6749,-0.0441,0.0600
1256,0.0,0.0,0.0,0.0,0.0,0.0,-0.0047,-1.0193,0.0141,0.7338,-0.6754,-0.0430,0.0594
1257,0.0,0.0,0.0,0.0,0.0,0.0,-0.0111,-1.0237,0.0161,0.7336,-0.6757,-0.0416,0.0588
1258,0.0,0.0,0.0,0.0,0.0,0.0,-0.0135,-1.0261,0.0185,0.7336,-0.6759,-0.0399,0.0583
1259,0.0,0.0,0.0,0.0,0.0,0.0,-0.0135,-1.0334,0.0200,0.7336,-0.6761,-0.0380,0.0577
1260,0.0,0.0,0.0,0.0,0.0,0.0,-0.0091,-1.0344,0.0185,0.7338,-0.6760,-0.0362,0.0573
1261,0.0,0.0,0.0,0.0,0.0,0.0,-0.0165,-1.0446,0.0170,0.7338,-0.6761,-0.0338,0.0570
1262,0.0,0.0,0.0,0.0,0.0,0.0,-0.0174,-1.0559,0.0239,0.7343,-0.6758,-0.0308,0.0569
1263,0.0,0.0,0.0,0.0,0.0,0.0,-0.0164,-1.0661,0.0341,0.7353,-0.6748,-0.0272,0.0569
1264,0.0,0.0,0.0,0.0,0.0,0.0,-0.0179,-1.0500,0.0322,0.7368,-0.6733,-0.0229,0.0570
1265,0.0,0.0,0.0,0.0,0.0,0.0,-0.0038,-0.9988,0.0317,0.7384,-0.6716,-0.0188,0.0570
1266,0.0,0.0,0.0,0.0,0.0,0.0,-0.0018,-0.9847,0.0366,0.7399,-0.6701,-0.0147,0.0569
1267,0.0,0.0,0.0,0.0,0.0,0.0,-0.0136,-0.9710,0.0307,0.7408,-0.6693,-0.0106,0.0562
1268,0.0,0.0,0.0,0.0,0.0,0.0,-0.0204,-0.9891,0.0317,0.7412,-0.6689,-0.0067,0.0553
1269,0.0,0.0,0.0,0.0,0.0,0.0,-0.0317,-0.9715,0.0268,0.7415,-0.6688,-0.0026,0.0541
1270,0.0,0.0,0.0,0.0,0.0,0.0,-0.0361,-0.9559,0.0180,0.7408,-0.6696,0.0010,0.0524
1271,0.0,0.0,0.0,0.0,0.0,0.0,-0.0469,-0.9773,0.0204,0.7400,-0.6707,0.0044,0.0504
1272,0.0,0.0,0.0,0.0,0.0,0.0,-0.0449,-0.9680,0.0145,0.7390,-0.6719,0.0073,0.0480
1273,0.0,0.0,0.0,0.0,0.0,0.0,-0.0474,-0.9617,0.0033,0.7374,-0.6739,0.0097,0.0452
1274,0.0,0.0,0.0,0.0,0.0,0.0,-0.0498,-0.9753,-0.0031,0.7355,-0.6761,0.0117,0.0422
1275,0.0,0.0,0.0,0.0,0.0,0.0,-0.0493,-0.9900,-0.0075,0.7333,-0.6786,0.0132,0.0388
1276,0.0,0.0,0.0,0.0,0.0,0.0,-0.0503,-0.9943,-0.0089,0.7312,-0.6811,0.0143,0.0353
1277,0.0,0.0,0.0,0.0,0.0,0.0,-0.0449,-0.9865,-0.0123,0.7291,-0.6835,0.0148,0.0318
1278,0.0,0.0,0.0,0.0,0.0,0.0,-0.0420,-0.9695,-0.0187,0.7273,-0.6855,0.0152,0.0281
1279,0.0,0.0,0.0,0.0,0.0,0.0,-0.0372,-0.9641,-0.0231,0.7254,-0.6877,0.0147,0.0244
1280,0.0,0.0,0.0,0.0,0.0,0.0,-0.0337,-0.9724,-0.0231,0.7231,-0.6903,0.0136,0.0209
1281,0.0,0.0,0.0,0.0,0.0,0.0,-0.0317,-0.9851,-0.0226,0.7209,-0.6928,0.0123,0.0174
1282,0.0,0.0,0.0,0.0,0.0,0.0,-0.0249,-0.9875,-0.0270,0.7188,-0.6950,0.0104,0.0141
1283,0.0,0.0,0.0,0.0,0.0,0.0,-0.0166,-0.9914,-0.0284,0.7168,-0.6971,0.0080,0.0109
1284,0.0,0.0,0.0,0.0,0.0,0.0,-0.0058,-0.9992,-0.0279,0.7150,-0.6991,0.0052,0.0079
1285,0.0,0.0,0.0,0.0,0.0,0.0,-0.0009,-1.0183,-0.0274,0.7134,-0.7008,0.0021,0.0052
1286,0.0,0.0,0.0,0.0,0.0,0.0,0.0085,-1.0412,-0.0269,0.7120,-0.7022,-0.0009,0.0031
1287,0.0,0.0,0.0,0.0,0.0,0.0,0.0080,-1.0451,-0.0323,0.7106,-0.7036,-0.0036,0.0015
1288,0.0,0.0,0.0,0.0,0.0,0.0,0.0090,-1.0656,-0.0362,0.7098,-0.7044,-0.0057,0.0006
1289,0.0,0.0,0.0,0.0,0.0,0.0,0.0124,-1.0880,-0.0357,0.7094,-0.7048,-0.0073,0.0002
1290,0.0,0.0,0.0,0.0,0.0,0.0,0.0173,-1.1061,-0.0342,0.7095,-0.7047,-0.0086,0.0002
1291,0.0,0.0,0.0,0.0,0.0,0.0,0.0252,-1.0968,-0.0347,0.7102,-0.7039,-0.0093,0.0006
1292,0.0,0.0,0.0,0.0,0.0,0.0,0.0286,-1.0739,-0.0342,0.7115,-0.7026,-0.0094,0.0012
1293,0.0,0.0,0.0,0.0,0.0,0.0,0.0325,-1.0578,-0.0298,0.7131,-0.7009,-0.0094,0.0019
1294,0.0,0.0,0.0,0.0,0.0,0.0,0.0266,-1.0476,-0.0230,0.7152,-0.6989,-0.0089,0.0027
1295,0.0,0.0,0.0,0.0,0.0,0.0,0.0222,-1.0349,-0.0181,0.7172,-0.6969,-0.0082,0.0036
1296,0.0,0.0,0.0,0.0,0.0,0.0,0.0222,-1.0198,-0.0142,0.7189,-0.6950,-0.0076,0.0046
1297,0.0,0.0,0.0,0.0,0.0,0.0,0.0182,-1.0154,-0.0108,0.7207,-0.6932,-0.0069,0.0056
1298,0.0,0.0,0.0,0.0,0.0,0.0,0.0217,-1.0081,-0.0078,0.7223,-0.6915,-0.0064,0.0067
1299,0.0,0.0,0.0,0.0,0.0,0.0,0.0212,-0.9978,-0.0103,0.7239,-0.6898,-0.0058,0.0075
1300,0.0,0.0,0.0,0.0,0.0,0.0,0.0202,-0.9822,-0.0181,0.7252,-0.6884,-0.0053,0.0084
1301,0.0,0.0,0.0,0.0,0.0,0.0,0.0270,-0.9729,-0.0230,0.7259,-0.6877,-0.0053,0.0091
1302,0.0,0.0,0.0,0.0,0.0,0.0,0.0299,-0.9846,-0.0225,0.7266,-0.6870,-0.0056,0.0095
1303,0.0,0.0,0.0,0.0,0.0,0.0,0.0304,-0.9885,-0.0230,0.7270,-0.6865,-0.0062,0.0100
1304,0.0,0.0,0.0,0.0,0.0,0.0,0.0368,-1.0007,-0.0200,0.7271,-0.6864,-0.0072,0.0103
1305,0.0,0.0,0.0,0.0,0.0,0.0,0.0349,-1.0095,-0.0210,0.7272,-0.6863,-0.0080,0.0107
1306,0.0,0.0,0.0,0.0,0.0,0.0,0.0329,-1.0163,-0.0215,0.7272,-0.6863,-0.0085,0.0112
1307,0.0,0.0,0.0,0.0,0.0,0.0,0.0314,-1.0149,-0.0269,0.7271,-0.6864,-0.0089,0.0116
1308,0.0,0.0,0.0,0.0,0.0,0.0,0.0295,-1.0139,-0.0288,0.7271,-0.6864,-0.0089,0.0122
1309,0.0,0.0,0.0,0.0,0.0,0.0,0.0275,-1.0178,-0.0298,0.7273,-0.6861,-0.0088,0.0128
1310,0.0,0.0,0.0,0.0,0.0,0.0,0.0265,-1.0168,-0.0318,0.7274,-0.6860,-0.0089,0.0136
1311,0.0,0.0,0.0,0.0,0.0,0.0,0.0143,-1.0236,-0.0318,0.7272,-0.6862,-0.0086,0.0146
1312,0.0,0.0,0.0,0.0,0.0,0.0,0.0075,-1.0256,-0.0313,0.7273,-0.6861,-0.0081,0.0158
1313,0.0,0.0,0.0,0.0,0.0,0.0,0.0006,-1.0212,-0.0328,0.7277,-0.6856,-0.0075,0.0171
1314,0.0,0.0,0.0,0.0,0.0,0.0,-0.0077,-1.0231,-0.0304,0.7283,-0.6850,-0.0069,0.0188
1315,0.0,0.0,0.0,0.0,0.0,0.0,-0.0165,-1.0251,-0.0299,0.7288,-0.6844,-0.0066,0.0208
1316,0.0,0.0,0.0,0.0,0.0,0.0,-0.0298,-1.0172,-0.0333,0.7290,-0.6840,-0.0061,0.0233
1317,0.0,0.0,0.0,0.0,0.0,0.0,-0.0141,-1.0236,-0.0269,0.7296,-0.6833,-0.0066,0.0260
1318,0.0,0.0,0.0,0.0,0.0,0.0,-0.0239,-1.0163,-0.0226,0.7309,-0.6819,-0.0075,0.0286
1319,0.0,0.0,0.0,0.0,0.0,0.0,-0.0263,-1.0085,-0.0196,0.7324,-0.6801,-0.0090,0.0314
1320,0.0,0.0,0.0,0.0,0.0,0.0,-0.0405,-1.0212,-0.0192,0.7342,-0.6779,-0.0107,0.0347
1321,0.0,0.0,0.0,0.0,0.0,0.0,-0.0449,-1.0294,-0.0192,0.7361,-0.6756,-0.0128,0.0384
1322,0.0,0.0,0.0,0.0,0.0,0.0,-0.0297,-1.0158,-0.0172,0.7378,-0.6734,-0.0161,0.0425
1323,0.0,0.0,0.0,0.0,0.0,0.0,-0.0136,-1.0100,-0.0084,0.7398,-0.6709,-0.0202,0.0470
1324,0.0,0.0,0.0,0.0,0.0,0.0,0.0060,-1.0012,-0.0005,0.7418,-0.6681,-0.0249,0.0517
1325,0.0,0.0,0.0,0.0,0.0,0.0,0.0217,-0.9969,0.0073,0.7437,-0.6655,-0.0303,0.0563
1326,0.0,0.0,0.0,0.0,0.0,0.0,0.0383,-0.9930,0.0117,0.7452,-0.6630,-0.0363,0.0608
1327,0.0,0.0,0.0,0.0,0.0,0.0,0.0486,-0.9872,0.0157,0.7463,-0.6611,-0.0427,0.0650
1328,0.0,0.0,0.0,0.0,0.0,0.0,0.0618,-0.9833,0.0191,0.7470,-0.6594,-0.0494,0.0691
1329,0.0,0.0,0.0,0.0,0.0,0.0,0.0677,-0.9828,0.0196,0.7472,-0.6582,-0.0559,0.0729
1330,0.0,0.0,0.0,0.0,0.0,0.0,0.0604,-0.9838,0.0196,0.7468,-0.6577,-0.0617,0.0766
1331,0.0,0.0,0.0,0.0,0.0,0.0,0.0246,-0.9579,0.0059,0.7447,-0.6593,-0.0659,0.0803
1332,0.0,0.0,0.0,0.0,0.0,0.0,0.0589,-0.9813,0.0044,0.7406,-0.6628,-0.0709,0.0844
1333,0.0,0.0,0.0,0.0,0.0,0.0,0.0952,-1.0613,0.0192,0.7390,-0.6636,-0.0760,0.0872
1334,0.0,0.0,0.0,0.0,0.0,0.0,0.0971,-1.0418,0.0035,0.7383,-0.6635,-0.0818,0.0892
1335,0.0,0.0,0.0,0.0,0.0,0.0,0.0648,-1.0408,0.0035,0.7382,-0.6628,-0.0872,0.0906
1336,0.0,0.0,0.0,0.0,0.0,0.0,0.0329,-1.0086,-0.0054,0.7382,-0.6622,-0.0901,0.0919
1337,0.0,0.0,0.0,0.0,0.0,0.0,0.0373,-0.9866,-0.0176,0.7376,-0.6623,-0.0924,0.0934
1338,0.0,0.0,0.0,0.0,0.0,0.0,0.0402,-0.9749,-0.0259,0.7367,-0.6628,-0.0946,0.0951
1339,0.0,0.0,0.0,0.0,0.0,0.0,0.0392,-0.9749,-0.0303,0.7353,-0.6637,-0.0968,0.0969
1340,0.0,0.0,0.0,0.0,0.0,0.0,0.0422,-0.9827,-0.0352,0.7335,-0.6652,-0.0992,0.0985
1341,0.0,0.0,0.0,0.0,0.0,0.0,0.0422,-0.9915,-0.0410,0.7311,-0.6672,-0.1018,0.1000
1342,0.0,0.0,0.0,0.0,0.0,0.0,0.0456,-0.9993,-0.0474,0.7284,-0.6695,-0.1044,0.1013
1343,0.0,0.0,0.0,0.0,0.0,0.0,0.0466,-1.0031,-0.0532,0.7256,-0.6721,-0.1068,0.1022
1344,0.0,0.0,0.0,0.0,0.0,0.0,0.0461,-1.0012,-0.0650,0.7225,-0.6749,-0.1090,0.1030
1345,0.0,0.0,0.0,0.0,0.0,0.0,0.0441,-0.9997,-0.0757,0.7194,-0.6778,-0.1111,0.1035
1346,0.0,0.0,0.0,0.0,0.0,0.0,0.0436,-0.9987,-0.0816,0.7162,-0.6807,-0.1131,0.1038
1347,0.0,0.0,0.0,0.0,0.0,0.0,0.0382,-1.0021,-0.0831,0.7131,-0.6838,-0.1150,0.1039
1348,0.0,0.0,0.0,0.0,0.0,0.0,0.0382,-1.0119,-0.0831,0.7101,-0.6866,-0.1162,0.1041
1349,0.0,0.0,0.0,0.0,0.0,0.0,0.0363,-1.0216,-0.0850,0.7074,-0.6893,-0.1168,0.1040
1350,0.0,0.0,0.0,0.0,0.0,0.0,0.0274,-1.0158,-0.0909,0.7043,-0.6925,-0.1168,0.1040
1351,0.0,0.0,0.0,0.0,0.0,0.0,0.0152,-0.9913,-0.1041,0.7001,-0.6968,-0.1161,0.1041
1352,0.0,0.0,0.0,0.0,0.0,0.0,0.0309,-1.0382,-0.0963,0.6967,-0.7003,-0.1151,0.1045
1353,0.0,0.0,0.0,0.0,0.0,0.0,0.0608,-1.0587,-0.1011,0.6946,-0.7023,-0.1157,0.1041
1354,0.0,0.0,0.0,0.0,0.0,0.0,0.0280,-1.0504,-0.1007,0.6936,-0.7034,-0.1161,0.1033
1355,0.0,0.0,0.0,0.0,0.0,0.0,-0.0014,-1.0372,-0.1027,0.6934,-0.7039,-0.1143,0.1027
1356,0.0,0.0,0.0,0.0,0.0,0.0,0.0069,-1.0338,-0.1031,0.6927,-0.7050,-0.1121,0.1025
1357,0.0,0.0,0.0,0.0,0.0,0.0,0.0005,-1.0294,-0.1002,0.6924,-0.7057,-0.1096,0.1028
1358,0.0,0.0,0.0,0.0,0.0,0.0,-0.0024,-1.0269,-0.0988,0.6921,-0.7063,-0.1071,0.1030
1359,0.0,0.0,0.0,0.0,0.0,0.0,-0.0063,-1.0289,-0.0939,0.6921,-0.7067,-0.1046,0.1032
1360,0.0,0.0,0.0,0.0,0.0,0.0,-0.0112,-1.0206,-0.0910,0.6922,-0.7069,-0.1020,0.1034
1361,0.0,0.0,0.0,0.0,0.0,0.0,-0.0171,-1.0147,-0.0890,0.6922,-0.7073,-0.0995,0.1037
1362,0.0,0.0,0.0,0.0,0.0,0.0,-0.0166,-1.0167,-0.0832,0.6923,-0.7075,-0.0971,0.1040
1363,0.0,0.0,0.0,0.0,0.0,0.0,-0.0137,-1.0172,-0.0778,0.6925,-0.7075,-0.0949,0.1041
1364,0.0,0.0,0.0,0.0,0.0,0.0,-0.0137,-1.0206,-0.0719,0.6928,-0.7074,-0.0927,0.1044
1365,0.0,0.0,0.0,0.0,0.0,0.0,-0.0215,-1.0221,-0.0675,0.6933,-0.7073,-0.0901,0.1046
1366,0.0,0.0,0.0,0.0,0.0,0.0,-0.0264,-1.0216,-0.0631,0.6940,-0.7069,-0.0874,0.1049
1367,0.0,0.0,0.0,0.0,0.0,0.0,-0.0342,-1.0172,-0.0607,0.6948,-0.7065,-0.0845,0.1052
1368,0.0,0.0,0.0,0.0,0.0,0.0,-0.0430,-1.0089,-0.0622,0.6952,-0.7063,-0.0815,0.1055
1369,0.0,0.0,0.0,0.0,0.0,0.0,-0.0475,-0.9962,-0.0651,0.6956,-0.7062,-0.0784,0.1058
1370,0.0,0.0,0.0,0.0,0.0,0.0,-0.0524,-0.9845,-0.0695,0.6958,-0.7063,-0.0756,0.1060
1371,0.0,0.0,0.0,0.0,0.0,0.0,-0.0548,-0.9772,-0.0749,0.6956,-0.7067,-0.0734,0.1060
1372,0.0,0.0,0.0,0.0,0.0,0.0,-0.0568,-0.9776,-0.0774,0.6953,-0.7073,-0.0716,0.1059
1373,0.0,0.0,0.0,0.0,0.0,0.0,-0.0563,-0.9854,-0.0803,0.6950,-0.7077,-0.0703,0.1057
1374,0.0,0.0,0.0,0.0,0.0,0.0,-0.0533,-0.9991,-0.0822,0.6947,-0.7082,-0.0694,0.1055
1375,0.0,0.0,0.0,0.0,0.0,0.0,-0.0484,-1.0093,-0.0852,0.6942,-0.7087,-0.0689,0.1053
1376,0.0,0.0,0.0,0.0,0.0,0.0,-0.0435,-1.0142,-0.0895,0.6939,-0.7091,-0.0684,0.1051
1377,0.0,0.0,0.0,0.0,0.0,0.0,-0.0391,-1.0172,-0.0915,0.6936,-0.7094,-0.0680,0.1049
1378,0.0,0.0,0.0,0.0,0.0,0.0,-0.0333,-1.0186,-0.0939,0.6934,-0.7097,-0.0678,0.1047
