,Position_X,Position_Y,Position_Z,Velocity_X,Velocity_Y,Velocity_Z,Acceleration_X,Acceleration_Y,Acceleration_Z,Quaterion_0,Quaterion_1,Quaterion_2,Quaterion_3
166,0.0,0.0,0.0,0.0,0.0,0.0,0.0559,-0.9872,0.1019,0.7701,-0.6302,0.0408,-0.0900
167,0.0,0.0,0.0,0.0,0.0,0.0,0.0686,-0.9668,0.0876,0.7701,-0.6303,0.0413,-0.0897
168,0.0,0.0,0.0,0.0,0.0,0.0,0.0946,-0.9474,0.0868,0.7696,-0.6309,0.0399,-0.0898
169,0.0,0.0,0.0,0.0,0.0,0.0,0.0930,-0.9727,0.0972,0.7694,-0.6312,0.0385,-0.0908
170,0.0,0.0,0.0,0.0,0.0,0.0,0.0645,-1.0108,0.1065,0.7691,-0.6314,0.0379,-0.0917
171,0.0,0.0,0.0,0.0,0.0,0.0,0.0664,-1.0175,0.1029,0.7687,-0.6318,0.0377,-0.0920
172,0.0,0.0,0.0,0.0,0.0,0.0,0.0631,-0.9928,0.0950,0.7687,-0.6317,0.0383,-0.0926
173,0.0,0.0,0.0,0.0,0.0,0.0,0.0709,-0.9987,0.0943,0.7687,-0.6316,0.0384,-0.0927
174,0.0,0.0,0.0,0.0,0.0,0.0,0.0826,-1.0058,0.0995,0.7688,-0.6315,0.0383,-0.0928
175,0.0,0.0,0.0,0.0,0.0,0.0,0.0855,-1.0030,0.1025,0.7690,-0.6312,0.0381,-0.0932
176,0.0,0.0,0.0,0.0,0.0,0.0,0.0880,-0.9947,0.1013,0.7691,-0.6311,0.0378,-0.0938
177,0.0,0.0,0.0,0.0,0.0,0.0,0.0885,-0.9909,0.1029,0.7693,-0.6307,0.0378,-0.0946
178,0.0,0.0,0.0,0.0,0.0,0.0,0.0871,-0.9850,0.1016,0.7694,-0.6305,0.0375,-0.0953
179,0.0,0.0,0.0,0.0,0.0,0.0,0.0837,-0.9740,0.0947,0.7690,-0.6309,0.0369,-0.0959
180,0.0,0.0,0.0,0.0,0.0,0.0,0.0823,-0.9690,0.0938,0.7687,-0.6311,0.0364,-0.0970
181,0.0,0.0,0.0,0.0,0.0,0.0,0.0905,-0.9898,0.0995,0.7683,-0.6315,0.0353,-0.0982
182,0.0,0.0,0.0,0.0,0.0,0.0,0.0899,-1.0035,0.1015,0.7678,-0.6320,0.0341,-0.0994
183,0.0,0.0,0.0,0.0,0.0,0.0,0.0928,-1.0167,0.1016,0.7673,-0.6325,0.0333,-0.1004
184,0.0,0.0,0.0,0.0,0.0,0.0,0.0947,-1.0148,0.1007,0.7671,-0.6326,0.0332,-0.1013
185,0.0,0.0,0.0,0.0,0.0,0.0,0.0952,-1.0152,0.1002,0.7668,-0.6328,0.0331,-0.1020
186,0.0,0.0,0.0,0.0,0.0,0.0,0.0904,-1.0102,0.0979,0.7666,-0.6330,0.0334,-0.1025
187,0.0,0.0,0.0,0.0,0.0,0.0,0.0845,-1.0038,0.0966,0.7665,-0.6330,0.0338,-0.1029
188,0.0,0.0,0.0,0.0,0.0,0.0,0.0841,-1.0044,0.0986,0.7662,-0.6333,0.0339,-0.1033
189,0.0,0.0,0.0,0.0,0.0,0.0,0.0831,-1.0023,0.0972,0.7659,-0.6336,0.0341,-0.1036
190,0.0,0.0,0.0,0.0,0.0,0.0,0.0875,-0.9960,0.0959,0.7658,-0.6337,0.0341,-0.1039
191,0.0,0.0,0.0,0.0,0.0,0.0,0.0910,-0.9877,0.0962,0.7658,-0.6336,0.0341,-0.1042
192,0.0,0.0,0.0,0.0,0.0,0.0,0.0944,-0.9907,0.0976,0.7659,-0.6335,0.0340,-0.1046
193,0.0,0.0,0.0,0.0,0.0,0.0,0.0978,-0.9942,0.0980,0.7660,-0.6334,0.0340,-0.1049
194,0.0,0.0,0.0,0.0,0.0,0.0,0.1007,-0.9933,0.0985,0.7661,-0.6331,0.0341,-0.1051
195,0.0,0.0,0.0,0.0,0.0,0.0,0.1027,-0.9923,0.0971,0.7664,-0.6327,0.0344,-0.1055
196,0.0,0.0,0.0,0.0,0.0,0.0,0.1036,-0.9902,0.0947,0.7663,-0.6328,0.0342,-0.1056
197,0.0,0.0,0.0,0.0,0.0,0.0,0.1051,-0.9888,0.0943,0.7661,-0.6330,0.0340,-0.1059
198,0.0,0.0,0.0,0.0,0.0,0.0,0.1022,-0.9931,0.0937,0.7663,-0.6327,0.0344,-0.1064
199,0.0,0.0,0.0,0.0,0.0,0.0,0.0963,-0.9954,0.0902,0.7661,-0.6329,0.0343,-0.1066
200,0.0,0.0,0.0,0.0,0.0,0.0,0.0943,-0.9978,0.0915,0.7658,-0.6332,0.0341,-0.1067
201,0.0,0.0,0.0,0.0,0.0,0.0,0.0938,-1.0042,0.0928,0.7659,-0.6331,0.0342,-0.1068
202,0.0,0.0,0.0,0.0,0.0,0.0,0.0977,-1.0012,0.0885,0.7661,-0.6328,0.0342,-0.1068
203,0.0,0.0,0.0,0.0,0.0,0.0,0.1232,-0.9547,0.0644,0.7656,-0.6335,0.0327,-0.1069
204,0.0,0.0,0.0,0.0,0.0,0.0,0.1260,-0.9940,0.0724,0.7650,-0.6344,0.0305,-0.1070
205,0.0,0.0,0.0,0.0,0.0,0.0,0.1182,-0.9930,0.0743,0.7648,-0.6346,0.0294,-0.1074
206,0.0,0.0,0.0,0.0,0.0,0.0,0.1029,-1.0141,0.0813,0.7648,-0.6346,0.0287,-0.1073
207,0.0,0.0,0.0,0.0,0.0,0.0,0.1088,-1.0182,0.0851,0.7645,-0.6352,0.0277,-0.1063
208,0.0,0.0,0.0,0.0,0.0,0.0,0.1089,-1.0091,0.0898,0.7646,-0.6353,0.0272,-0.1052
209,0.0,0.0,0.0,0.0,0.0,0.0,0.1182,-1.0110,0.0990,0.7648,-0.6352,0.0269,-0.1039
210,0.0,0.0,0.0,0.0,0.0,0.0,0.1236,-1.0025,0.1056,0.7652,-0.6350,0.0265,-0.1026
211,0.0,0.0,0.0,0.0,0.0,0.0,0.1261,-0.9912,0.1045,0.7658,-0.6344,0.0263,-0.1019
212,0.0,0.0,0.0,0.0,0.0,0.0,0.1223,-0.9704,0.0954,0.7661,-0.6342,0.0261,-0.1014
213,0.0,0.0,0.0,0.0,0.0,0.0,0.1233,-0.9684,0.0935,0.7661,-0.6342,0.0257,-0.1012
214,0.0,0.0,0.0,0.0,0.0,0.0,0.1261,-0.9792,0.0961,0.7661,-0.6341,0.0253,-0.1015
215,0.0,0.0,0.0,0.0,0.0,0.0,0.1178,-0.9870,0.0963,0.7659,-0.6343,0.0251,-0.1022
216,0.0,0.0,0.0,0.0,0.0,0.0,0.1158,-0.9942,0.0951,0.7656,-0.6344,0.0252,-0.1033
217,0.0,0.0,0.0,0.0,0.0,0.0,0.1099,-0.9950,0.0917,0.7651,-0.6349,0.0254,-0.1043
218,0.0,0.0,0.0,0.0,0.0,0.0,0.1060,-0.9935,0.0898,0.7647,-0.6353,0.0258,-0.1050
219,0.0,0.0,0.0,0.0,0.0,0.0,0.1046,-0.9886,0.0894,0.7641,-0.6358,0.0261,-0.1056
220,0.0,0.0,0.0,0.0,0.0,0.0,0.1041,-0.9877,0.0909,0.7636,-0.6363,0.0265,-0.1061
221,0.0,0.0,0.0,0.0,0.0,0.0,0.1031,-0.9941,0.0951,0.7636,-0.6362,0.0276,-0.1067
222,0.0,0.0,0.0,0.0,0.0,0.0,0.1045,-1.0063,0.0952,0.7635,-0.6362,0.0282,-0.1073
223,0.0,0.0,0.0,0.0,0.0,0.0,0.1079,-1.0048,0.0909,0.7633,-0.6364,0.0290,-0.1079
224,0.0,0.0,0.0,0.0,0.0,0.0,0.1118,-0.9978,0.0858,0.7632,-0.6363,0.0299,-0.1086
225,0.0,0.0,0.0,0.0,0.0,0.0,0.1113,-0.9976,0.0819,0.7628,-0.6367,0.0301,-0.1092
226,0.0,0.0,0.0,0.0,0.0,0.0,0.1065,-0.9936,0.0786,0.7625,-0.6369,0.0307,-0.1099
227,0.0,0.0,0.0,0.0,0.0,0.0,0.1050,-1.0009,0.0784,0.7622,-0.6370,0.0313,-0.1104
228,0.0,0.0,0.0,0.0,0.0,0.0,0.1035,-1.0062,0.0777,0.7616,-0.6377,0.0314,-0.1107
229,0.0,0.0,0.0,0.0,0.0,0.0,0.1069,-1.0032,0.0759,0.7611,-0.6383,0.0315,-0.1108
230,0.0,0.0,0.0,0.0,0.0,0.0,0.1103,-0.9983,0.0727,0.7609,-0.6385,0.0318,-0.1110
231,0.0,0.0,0.0,0.0,0.0,0.0,0.1098,-1.0026,0.0715,0.7611,-0.6382,0.0327,-0.1113
232,0.0,0.0,0.0,0.0,0.0,0.0,0.1088,-1.0179,0.0759,0.7609,-0.6385,0.0330,-0.1112
233,0.0,0.0,0.0,0.0,0.0,0.0,0.1058,-1.0293,0.0809,0.7609,-0.6384,0.0338,-0.1109
234,0.0,0.0,0.0,0.0,0.0,0.0,0.1048,-1.0287,0.0790,0.7617,-0.6375,0.0357,-0.1106
235,0.0,0.0,0.0,0.0,0.0,0.0,0.1093,-1.0058,0.0642,0.7616,-0.6376,0.0367,-0.1100
236,0.0,0.0,0.0,0.0,0.0,0.0,0.1335,-0.9449,0.0478,0.7611,-0.6383,0.0363,-0.1099
237,0.0,0.0,0.0,0.0,0.0,0.0,0.1284,-0.9799,0.0602,0.7609,-0.6384,0.0359,-0.1105
238,0.0,0.0,0.0,0.0,0.0,0.0,0.0972,-0.9952,0.0722,0.7609,-0.6382,0.0365,-0.1113
239,0.0,0.0,0.0,0.0,0.0,0.0,0.0981,-1.0036,0.0734,0.7609,-0.6380,0.0374,-0.1120
240,0.0,0.0,0.0,0.0,0.0,0.0,0.0924,-0.9840,0.0745,0.7610,-0.6377,0.0384,-0.1126
241,0.0,0.0,0.0,0.0,0.0,0.0,0.0928,-0.9969,0.0799,0.7610,-0.6376,0.0390,-0.1130
242,0.0,0.0,0.0,0.0,0.0,0.0,0.0996,-0.9991,0.0852,0.7612,-0.6373,0.0394,-0.1135
243,0.0,0.0,0.0,0.0,0.0,0.0,0.0973,-0.9914,0.0879,0.7614,-0.6369,0.0399,-0.1139
244,0.0,0.0,0.0,0.0,0.0,0.0,0.1027,-0.9858,0.0929,0.7619,-0.6362,0.0404,-0.1144
245,0.0,0.0,0.0,0.0,0.0,0.0,0.0968,-0.9879,0.0865,0.7623,-0.6355,0.0413,-0.1155
246,0.0,0.0,0.0,0.0,0.0,0.0,0.0934,-0.9868,0.0827,0.7621,-0.6358,0.0410,-0.1153
247,0.0,0.0,0.0,0.0,0.0,0.0,0.1032,-0.9806,0.0858,0.7618,-0.6362,0.0404,-0.1150
248,0.0,0.0,0.0,0.0,0.0,0.0,0.1002,-0.9829,0.0818,0.7618,-0.6363,0.0403,-0.1153
249,0.0,0.0,0.0,0.0,0.0,0.0,0.1016,-0.9883,0.0817,0.7616,-0.6365,0.0401,-0.1153
250,0.0,0.0,0.0,0.0,0.0,0.0,0.1095,-0.9865,0.0832,0.7612,-0.6370,0.0393,-0.1153
251,0.0,0.0,0.0,0.0,0.0,0.0,0.1163,-0.9894,0.0836,0.7609,-0.6373,0.0385,-0.1154
252,0.0,0.0,0.0,0.0,0.0,0.0,0.1182,-0.9918,0.0816,0.7608,-0.6375,0.0378,-0.1158
253,0.0,0.0,0.0,0.0,0.0,0.0,0.1206,-0.9943,0.0806,0.7606,-0.6377,0.0371,-0.1163
254,0.0,0.0,0.0,0.0,0.0,0.0,0.1235,-1.0016,0.0818,0.7600,-0.6383,0.0358,-0.1167
255,0.0,0.0,0.0,0.0,0.0,0.0,0.1269,-1.0011,0.0794,0.7597,-0.6387,0.0349,-0.1173
256,0.0,0.0,0.0,0.0,0.0,0.0,0.1265,-0.9917,0.0768,0.7594,-0.6389,0.0342,-0.1182
257,0.0,0.0,0.0,0.0,0.0,0.0,0.1255,-0.9879,0.0779,0.7590,-0.6392,0.0335,-0.1193
258,0.0,0.0,0.0,0.0,0.0,0.0,0.1231,-0.9958,0.0815,0.7585,-0.6396,0.0329,-0.1205
259,0.0,0.0,0.0,0.0,0.0,0.0,0.1186,-1.0095,0.0854,0.7583,-0.6397,0.0325,-0.1215
260,0.0,0.0,0.0,0.0,0.0,0.0,0.1171,-1.0164,0.0867,0.7582,-0.6396,0.0326,-0.1223
261,0.0,0.0,0.0,0.0,0.0,0.0,0.1196,-1.0080,0.0826,0.7584,-0.6392,0.0330,-0.1229
262,0.0,0.0,0.0,0.0,0.0,0.0,0.1221,-0.9957,0.0801,0.7590,-0.6384,0.0337,-0.1235
263,0.0,0.0,0.0,0.0,0.0,0.0,0.1241,-0.9864,0.0784,0.7588,-0.6385,0.0334,-0.1240
264,0.0,0.0,0.0,0.0,0.0,0.0,0.1285,-0.9834,0.0756,0.7583,-0.6392,0.0324,-0.1242
265,0.0,0.0,0.0,0.0,0.0,0.0,0.1344,-0.9786,0.0753,0.7582,-0.6391,0.0321,-0.1251
266,0.0,0.0,0.0,0.0,0.0,0.0,0.1280,-0.9773,0.0690,0.7581,-0.6390,0.0320,-0.1259
267,0.0,0.0,0.0,0.0,0.0,0.0,0.1324,-0.9805,0.0752,0.7577,-0.6396,0.0309,-0.1261
268,0.0,0.0,0.0,0.0,0.0,0.0,0.1353,-0.9860,0.0770,0.7571,-0.6402,0.0297,-0.1265
269,0.0,0.0,0.0,0.0,0.0,0.0,0.1338,-0.9888,0.0764,0.7569,-0.6404,0.0290,-0.1271
270,0.0,0.0,0.0,0.0,0.0,0.0,0.1342,-1.0027,0.0818,0.7568,-0.6405,0.0284,-0.1276
271,0.0,0.0,0.0,0.0,0.0,0.0,0.1386,-1.0135,0.0830,0.7566,-0.6407,0.0276,-0.1276
272,0.0,0.0,0.0,0.0,0.0,0.0,0.1444,-1.0050,0.0769,0.7565,-0.6409,0.0269,-0.1275
273,0.0,0.0,0.0,0.0,0.0,0.0,0.1435,-0.9910,0.0662,0.7561,-0.6415,0.0260,-0.1270
274,0.0,0.0,0.0,0.0,0.0,0.0,0.0676,-1.0047,0.0160,0.7542,-0.6446,0.0241,-0.1229
275,0.0,0.0,0.0,0.0,0.0,0.0,0.0844,-1.0106,0.1925,0.7546,-0.6460,0.0201,-0.1137
276,0.0,0.0,0.0,0.0,0.0,0.0,0.2662,-0.9749,0.1065,0.7554,-0.6455,0.0168,-0.1117
277,0.0,0.0,0.0,0.0,0.0,0.0,0.2166,-1.0055,0.0719,0.7563,-0.6440,0.0166,-0.1146
278,0.0,0.0,0.0,0.0,0.0,0.0,0.1323,-0.9891,0.0565,0.7566,-0.6426,0.0199,-0.1188
279,0.0,0.0,0.0,0.0,0.0,0.0,0.0956,-0.9966,0.0440,0.7565,-0.6421,0.0235,-0.1219
280,0.0,0.0,0.0,0.0,0.0,0.0,0.1249,-1.0067,0.0593,0.7567,-0.6416,0.0251,-0.1233
281,0.0,0.0,0.0,0.0,0.0,0.0,0.1278,-1.0041,0.0667,0.7570,-0.6410,0.0261,-0.1239
282,0.0,0.0,0.0,0.0,0.0,0.0,0.1264,-0.9998,0.0712,0.7573,-0.6407,0.0264,-0.1238
283,0.0,0.0,0.0,0.0,0.0,0.0,0.1284,-0.9985,0.0742,0.7578,-0.6402,0.0265,-0.1233
284,0.0,0.0,0.0,0.0,0.0,0.0,0.1308,-0.9941,0.0743,0.7584,-0.6396,0.0264,-0.1228
285,0.0,0.0,0.0,0.0,0.0,0.0,0.1348,-0.9892,0.0735,0.7585,-0.6397,0.0253,-0.1220
286,0.0,0.0,0.0,0.0,0.0,0.0,0.1417,-0.9830,0.0762,0.7587,-0.6396,0.0242,-0.1213
287,0.0,0.0,0.0,0.0,0.0,0.0,0.1436,-0.9836,0.0771,0.7588,-0.6397,0.0230,-0.1206
288,0.0,0.0,0.0,0.0,0.0,0.0,0.1480,-0.9905,0.0779,0.7591,-0.6394,0.0221,-0.1200
289,0.0,0.0,0.0,0.0,0.0,0.0,0.1509,-0.9905,0.0774,0.7593,-0.6394,0.0212,-0.1193
290,0.0,0.0,0.0,0.0,0.0,0.0,0.1529,-0.9801,0.0744,0.7591,-0.6398,0.0198,-0.1185
291,0.0,0.0,0.0,0.0,0.0,0.0,0.1534,-0.9791,0.0725,0.7593,-0.6397,0.0192,-0.1179
292,0.0,0.0,0.0,0.0,0.0,0.0,0.1504,-0.9834,0.0704,0.7593,-0.6398,0.0187,-0.1173
293,0.0,0.0,0.0,0.0,0.0,0.0,0.1543,-0.9893,0.0717,0.7592,-0.6400,0.0180,-0.1168
294,0.0,0.0,0.0,0.0,0.0,0.0,0.1464,-0.9890,0.0653,0.7590,-0.6403,0.0179,-0.1165
295,0.0,0.0,0.0,0.0,0.0,0.0,0.1460,-0.9915,0.0667,0.7588,-0.6406,0.0179,-0.1160
296,0.0,0.0,0.0,0.0,0.0,0.0,0.1434,-1.0033,0.0678,0.7585,-0.6412,0.0179,-0.1154
297,0.0,0.0,0.0,0.0,0.0,0.0,0.1420,-1.0031,0.0639,0.7583,-0.6415,0.0183,-0.1146
298,0.0,0.0,0.0,0.0,0.0,0.0,0.1464,-0.9942,0.0589,0.7582,-0.6419,0.0186,-0.1135
299,0.0,0.0,0.0,0.0,0.0,0.0,0.1508,-0.9872,0.0528,0.7581,-0.6421,0.0189,-0.1125
300,0.0,0.0,0.0,0.0,0.0,0.0,0.1542,-0.9812,0.0477,0.7577,-0.6426,0.0190,-0.1119
301,0.0,0.0,0.0,0.0,0.0,0.0,0.1596,-0.9762,0.0430,0.7569,-0.6437,0.0184,-0.1114
302,0.0,0.0,0.0,0.0,0.0,0.0,0.1576,-0.9764,0.0376,0.7563,-0.6444,0.0181,-0.1115
303,0.0,0.0,0.0,0.0,0.0,0.0,0.1552,-0.9797,0.0341,0.7553,-0.6455,0.0178,-0.1119
304,0.0,0.0,0.0,0.0,0.0,0.0,0.1478,-0.9884,0.0348,0.7543,-0.6466,0.0180,-0.1126
305,0.0,0.0,0.0,0.0,0.0,0.0,0.1404,-1.0036,0.0386,0.7539,-0.6469,0.0193,-0.1134
306,0.0,0.0,0.0,0.0,0.0,0.0,0.1345,-1.0115,0.0403,0.7532,-0.6475,0.0206,-0.1141
307,0.0,0.0,0.0,0.0,0.0,0.0,0.1296,-1.0129,0.0393,0.7522,-0.6486,0.0215,-0.1144
308,0.0,0.0,0.0,0.0,0.0,0.0,0.1218,-1.0103,0.0388,0.7510,-0.6499,0.0223,-0.1144
309,0.0,0.0,0.0,0.0,0.0,0.0,0.1155,-1.0084,0.0398,0.7502,-0.6509,0.0235,-0.1142
310,0.0,0.0,0.0,0.0,0.0,0.0,0.1136,-1.0001,0.0411,0.7497,-0.6514,0.0246,-0.1142
311,0.0,0.0,0.0,0.0,0.0,0.0,0.1107,-0.9932,0.0389,0.7494,-0.6517,0.0259,-0.1142
312,0.0,0.0,0.0,0.0,0.0,0.0,0.1049,-0.9880,0.0443,0.7495,-0.6515,0.0276,-0.1143
313,0.0,0.0,0.0,0.0,0.0,0.0,0.1102,-0.9889,0.0419,0.7502,-0.6506,0.0295,-0.1141
314,0.0,0.0,0.0,0.0,0.0,0.0,0.1205,-0.9889,0.0390,0.7509,-0.6497,0.0309,-0.1140
315,0.0,0.0,0.0,0.0,0.0,0.0,0.1186,-0.9842,0.0450,0.7506,-0.6502,0.0310,-0.1137
316,0.0,0.0,0.0,0.0,0.0,0.0,0.1195,-0.9891,0.0458,0.7497,-0.6513,0.0305,-0.1137
317,0.0,0.0,0.0,0.0,0.0,0.0,0.1191,-0.9857,0.0449,0.7489,-0.6521,0.0305,-0.1143
318,0.0,0.0,0.0,0.0,0.0,0.0,0.1191,-0.9837,0.0455,0.7483,-0.6525,0.0307,-0.1151
319,0.0,0.0,0.0,0.0,0.0,0.0,0.1205,-0.9861,0.0449,0.7481,-0.6526,0.0313,-0.1163
320,0.0,0.0,0.0,0.0,0.0,0.0,0.1279,-0.9843,0.0465,0.7476,-0.6529,0.0315,-0.1177
321,0.0,0.0,0.0,0.0,0.0,0.0,0.1219,-0.9924,0.0409,0.7468,-0.6536,0.0317,-0.1185
322,0.0,0.0,0.0,0.0,0.0,0.0,0.1273,-0.9940,0.0447,0.7461,-0.6543,0.0319,-0.1192
323,0.0,0.0,0.0,0.0,0.0,0.0,0.1273,-0.9968,0.0417,0.7455,-0.6548,0.0324,-0.1200
324,0.0,0.0,0.0,0.0,0.0,0.0,0.1253,-0.9992,0.0402,0.7451,-0.6550,0.0334,-0.1207
325,0.0,0.0,0.0,0.0,0.0,0.0,0.1263,-0.9991,0.0373,0.7445,-0.6556,0.0339,-0.1212
326,0.0,0.0,0.0,0.0,0.0,0.0,0.1253,-0.9975,0.0344,0.7435,-0.6568,0.0339,-0.1215
327,0.0,0.0,0.0,0.0,0.0,0.0,0.1238,-0.9994,0.0324,0.7423,-0.6581,0.0338,-0.1216
328,0.0,0.0,0.0,0.0,0.0,0.0,0.1223,-1.0013,0.0314,0.7417,-0.6587,0.0344,-0.1220
329,0.0,0.0,0.0,0.0,0.0,0.0,0.1228,-1.0042,0.0313,0.7417,-0.6585,0.0356,-0.1225
330,0.0,0.0,0.0,0.0,0.0,0.0,0.1204,-1.0017,0.0289,0.7412,-0.6589,0.0364,-0.1228
331,0.0,0.0,0.0,0.0,0.0,0.0,0.1116,-1.0022,0.0313,0.7413,-0.6587,0.0379,-0.1232
332,0.0,0.0,0.0,0.0,0.0,0.0,0.1038,-1.0031,0.0322,0.7421,-0.6576,0.0405,-0.1237
333,0.0,0.0,0.0,0.0,0.0,0.0,0.1082,-1.0037,0.0341,0.7422,-0.6573,0.0417,-0.1240
334,0.0,0.0,0.0,0.0,0.0,0.0,0.0984,-0.9946,0.0276,0.7417,-0.6579,0.0425,-0.1238
335,0.0,0.0,0.0,0.0,0.0,0.0,0.1082,-1.0003,0.0343,0.7419,-0.6575,0.0434,-0.1239
336,0.0,0.0,0.0,0.0,0.0,0.0,0.1101,-1.0111,0.0368,0.7422,-0.6572,0.0442,-0.1241
337,0.0,0.0,0.0,0.0,0.0,0.0,0.1067,-1.0038,0.0361,0.7426,-0.6566,0.0449,-0.1242
338,0.0,0.0,0.0,0.0,0.0,0.0,0.1038,-1.0137,0.0411,0.7431,-0.6559,0.0454,-0.1242
339,0.0,0.0,0.0,0.0,0.0,0.0,0.1086,-1.0187,0.0439,0.7441,-0.6549,0.0458,-0.1240
340,0.0,0.0,0.0,0.0,0.0,0.0,0.1159,-1.0272,0.0470,0.7455,-0.6532,0.0465,-0.1241
341,0.0,0.0,0.0,0.0,0.0,0.0,0.1178,-1.0318,0.0537,0.7470,-0.6515,0.0469,-0.1241
342,0.0,0.0,0.0,0.0,0.0,0.0,0.1174,-1.0230,0.0525,0.7486,-0.6496,0.0476,-0.1239
343,0.0,0.0,0.0,0.0,0.0,0.0,0.1180,-1.0133,0.0557,0.7502,-0.6477,0.0480,-0.1237
344,0.0,0.0,0.0,0.0,0.0,0.0,0.1219,-1.0053,0.0608,0.7517,-0.6460,0.0480,-0.1238
345,0.0,0.0,0.0,0.0,0.0,0.0,0.1156,-1.0017,0.0580,0.7528,-0.6447,0.0480,-0.1239
346,0.0,0.0,0.0,0.0,0.0,0.0,0.1172,-0.9927,0.0656,0.7538,-0.6437,0.0470,-0.1236
347,0.0,0.0,0.0,0.0,0.0,0.0,0.1241,-0.9800,0.0631,0.7549,-0.6425,0.0460,-0.1235
348,0.0,0.0,0.0,0.0,0.0,0.0,0.1246,-0.9727,0.0638,0.7555,-0.6420,0.0442,-0.1232
349,0.0,0.0,0.0,0.0,0.0,0.0,0.1363,-0.9764,0.0686,0.7561,-0.6414,0.0422,-0.1231
350,0.0,0.0,0.0,0.0,0.0,0.0,0.1451,-0.9786,0.0744,0.7572,-0.6402,0.0404,-0.1233
351,0.0,0.0,0.0,0.0,0.0,0.0,0.1470,-0.9806,0.0739,0.7579,-0.6395,0.0384,-0.1233
352,0.0,0.0,0.0,0.0,0.0,0.0,0.1505,-0.9629,0.0696,0.7576,-0.6401,0.0354,-0.1228
353,0.0,0.0,0.0,0.0,0.0,0.0,0.1549,-0.9712,0.0698,0.7572,-0.6408,0.0324,-0.1223
354,0.0,0.0,0.0,0.0,0.0,0.0,0.1519,-0.9784,0.0671,0.7572,-0.6410,0.0305,-0.1220
355,0.0,0.0,0.0,0.0,0.0,0.0,0.1573,-0.9654,0.0579,0.7569,-0.6414,0.0286,-0.1218
356,0.0,0.0,0.0,0.0,0.0,0.0,0.1774,-0.9459,0.0508,0.7562,-0.6424,0.0257,-0.1218
357,0.0,0.0,0.0,0.0,0.0,0.0,0.1738,-0.9648,0.0483,0.7555,-0.6431,0.0235,-0.1225
358,0.0,0.0,0.0,0.0,0.0,0.0,0.1625,-0.9789,0.0507,0.7551,-0.6436,0.0219,-0.1233
359,0.0,0.0,0.0,0.0,0.0,0.0,0.1725,-0.9470,0.0430,0.7538,-0.6450,0.0193,-0.1240
360,0.0,0.0,0.0,0.0,0.0,0.0,0.1863,-0.9915,0.0436,0.7530,-0.6458,0.0174,-0.1254
361,0.0,0.0,0.0,0.0,0.0,0.0,0.1698,-0.9801,0.0405,0.7520,-0.6467,0.0160,-0.1267
362,0.0,0.0,0.0,0.0,0.0,0.0,0.1713,-0.9668,0.0370,0.7508,-0.6478,0.0146,-0.1281
363,0.0,0.0,0.0,0.0,0.0,0.0,0.1727,-0.9820,0.0399,0.7495,-0.6490,0.0133,-0.1297
364,0.0,0.0,0.0,0.0,0.0,0.0,0.1717,-0.9883,0.0393,0.7479,-0.6507,0.0121,-0.1308
365,0.0,0.0,0.0,0.0,0.0,0.0,0.1732,-0.9857,0.0345,0.7464,-0.6522,0.0115,-0.1319
366,0.0,0.0,0.0,0.0,0.0,0.0,0.1687,-0.9975,0.0380,0.7448,-0.6539,0.0111,-0.1328
367,0.0,0.0,0.0,0.0,0.0,0.0,0.1643,-1.0031,0.0441,0.7429,-0.6559,0.0107,-0.1333
368,0.0,0.0,0.0,0.0,0.0,0.0,0.1627,-1.0225,0.0430,0.7412,-0.6578,0.0108,-0.1334
369,0.0,0.0,0.0,0.0,0.0,0.0,0.1613,-1.0143,0.0321,0.7399,-0.6592,0.0120,-0.1332
370,0.0,0.0,0.0,0.0,0.0,0.0,0.1589,-1.0073,0.0270,0.7390,-0.6603,0.0138,-0.1329
371,0.0,0.0,0.0,0.0,0.0,0.0,0.1563,-1.0224,0.0265,0.7383,-0.6610,0.0162,-0.1328
372,0.0,0.0,0.0,0.0,0.0,0.0,0.1378,-1.0200,0.0202,0.7378,-0.6616,0.0193,-0.1326
373,0.0,0.0,0.0,0.0,0.0,0.0,0.1369,-1.0055,0.0230,0.7373,-0.6623,0.0220,-0.1317
374,0.0,0.0,0.0,0.0,0.0,0.0,0.1414,-0.9843,0.0145,0.7368,-0.6628,0.0248,-0.1314
375,0.0,0.0,0.0,0.0,0.0,0.0,0.1389,-0.9841,0.0106,0.7361,-0.6634,0.0272,-0.1316
376,0.0,0.0,0.0,0.0,0.0,0.0,0.1271,-1.0016,0.0115,0.7352,-0.6642,0.0295,-0.1318
377,0.0,0.0,0.0,0.0,0.0,0.0,0.1134,-1.0187,0.0157,0.7344,-0.6650,0.0320,-0.1319
378,0.0,0.0,0.0,0.0,0.0,0.0,0.1139,-1.0147,0.0139,0.7342,-0.6651,0.0348,-0.1317
379,0.0,0.0,0.0,0.0,0.0,0.0,0.1125,-1.0030,0.0138,0.7348,-0.6642,0.0382,-0.1318
380,0.0,0.0,0.0,0.0,0.0,0.0,0.1129,-1.0089,0.0131,0.7357,-0.6632,0.0409,-0.1314
381,0.0,0.0,0.0,0.0,0.0,0.0,0.1100,-1.0012,0.0056,0.7359,-0.6629,0.0430,-0.1308
382,0.0,0.0,0.0,0.0,0.0,0.0,0.1062,-0.9836,0.0042,0.7363,-0.6624,0.0452,-0.1304
383,0.0,0.0,0.0,0.0,0.0,0.0,0.1169,-0.9955,0.0082,0.7368,-0.6617,0.0467,-0.1307
384,0.0,0.0,0.0,0.0,0.0,0.0,0.1085,-1.0067,0.0078,0.7368,-0.6616,0.0477,-0.1309
385,0.0,0.0,0.0,0.0,0.0,0.0,0.1140,-0.9866,0.0051,0.7367,-0.6619,0.0475,-0.1304
386,0.0,0.0,0.0,0.0,0.0,0.0,0.1327,-0.9688,0.0082,0.7366,-0.6620,0.0465,-0.1305
387,0.0,0.0,0.0,0.0,0.0,0.0,0.1326,-0.9916,0.0162,0.7367,-0.6618,0.0451,-0.1312
388,0.0,0.0,0.0,0.0,0.0,0.0,0.1296,-1.0018,0.0163,0.7369,-0.6615,0.0438,-0.1320
389,0.0,0.0,0.0,0.0,0.0,0.0,0.1232,-1.0068,0.0210,0.7374,-0.6609,0.0430,-0.1325
390,0.0,0.0,0.0,0.0,0.0,0.0,0.1305,-1.0159,0.0275,0.7384,-0.6599,0.0418,-0.1328
391,0.0,0.0,0.0,0.0,0.0,0.0,0.1309,-1.0322,0.0333,0.7393,-0.6590,0.0404,-0.1328
392,0.0,0.0,0.0,0.0,0.0,0.0,0.1276,-1.0111,0.0316,0.7397,-0.6587,0.0385,-0.1323
393,0.0,0.0,0.0,0.0,0.0,0.0,0.1307,-0.9908,0.0371,0.7403,-0.6583,0.0366,-0.1318
394,0.0,0.0,0.0,0.0,0.0,0.0,0.1425,-0.9695,0.0373,0.7415,-0.6570,0.0349,-0.1317
395,0.0,0.0,0.0,0.0,0.0,0.0,0.1470,-0.9588,0.0381,0.7427,-0.6557,0.0329,-0.1320
396,0.0,0.0,0.0,0.0,0.0,0.0,0.1613,-0.9379,0.0364,0.7437,-0.6546,0.0302,-0.1323
397,0.0,0.0,0.0,0.0,0.0,0.0,0.1661,-0.9422,0.0324,0.7441,-0.6542,0.0268,-0.1328
398,0.0,0.0,0.0,0.0,0.0,0.0,0.1787,-0.9612,0.0421,0.7440,-0.6545,0.0223,-0.1331
399,0.0,0.0,0.0,0.0,0.0,0.0,0.1805,-0.9870,0.0427,0.7442,-0.6543,0.0185,-0.1333
400,0.0,0.0,0.0,0.0,0.0,0.0,0.1912,-0.9985,0.0477,0.7448,-0.6536,0.0154,-0.1338
401,0.0,0.0,0.0,0.0,0.0,0.0,0.1893,-0.9955,0.0459,0.7450,-0.6533,0.0123,-0.1342
402,0.0,0.0,0.0,0.0,0.0,0.0,0.1921,-1.0017,0.0409,0.7455,-0.6527,0.0097,-0.1345
403,0.0,0.0,0.0,0.0,0.0,0.0,0.1965,-0.9978,0.0400,0.7457,-0.6525,0.0068,-0.1346
404,0.0,0.0,0.0,0.0,0.0,0.0,0.1999,-1.0059,0.0466,0.7456,-0.6527,0.0035,-0.1346
405,0.0,0.0,0.0,0.0,0.0,0.0,0.1999,-1.0162,0.0496,0.7457,-0.6526,0.0008,-0.1345
406,0.0,0.0,0.0,0.0,0.0,0.0,0.1974,-1.0167,0.0506,0.7461,-0.6522,-0.0011,-0.1340
407,0.0,0.0,0.0,0.0,0.0,0.0,0.1975,-1.0108,0.0484,0.7467,-0.6517,-0.0027,-0.1332
408,0.0,0.0,0.0,0.0,0.0,0.0,0.1966,-0.9966,0.0459,0.7471,-0.6515,-0.0037,-0.1320
409,0.0,0.0,0.0,0.0,0.0,0.0,0.1990,-0.9951,0.0450,0.7477,-0.6510,-0.0040,-0.1306
410,0.0,0.0,0.0,0.0,0.0,0.0,0.2040,-0.9794,0.0426,0.7483,-0.6506,-0.0037,-0.1293
411,0.0,0.0,0.0,0.0,0.0,0.0,0.1972,-0.9577,0.0355,0.7481,-0.6511,-0.0038,-0.1277
412,0.0,0.0,0.0,0.0,0.0,0.0,0.2094,-0.9756,0.0432,0.7481,-0.6515,-0.0040,-0.1260
413,0.0,0.0,0.0,0.0,0.0,0.0,0.2001,-0.9839,0.0458,0.7482,-0.6516,-0.0030,-0.1250
414,0.0,0.0,0.0,0.0,0.0,0.0,0.1757,-0.9738,0.0281,0.7472,-0.6530,-0.0013,-0.1241
415,0.0,0.0,0.0,0.0,0.0,0.0,0.1709,-0.9587,0.0285,0.7461,-0.6543,0.0008,-0.1234
416,0.0,0.0,0.0,0.0,0.0,0.0,0.1733,-0.9616,0.0270,0.7451,-0.6555,0.0030,-0.1231
417,0.0,0.0,0.0,0.0,0.0,0.0,0.1722,-0.9646,0.0182,0.7436,-0.6572,0.0048,-0.1229
418,0.0,0.0,0.0,0.0,0.0,0.0,0.1678,-0.9654,0.0142,0.7420,-0.6590,0.0066,-0.1230
419,0.0,0.0,0.0,0.0,0.0,0.0,0.1658,-0.9789,0.0090,0.7408,-0.6602,0.0090,-0.1237
420,0.0,0.0,0.0,0.0,0.0,0.0,0.1584,-0.9963,0.0069,0.7394,-0.6616,0.0114,-0.1243
421,0.0,0.0,0.0,0.0,0.0,0.0,0.1505,-1.0000,0.0019,0.7382,-0.6628,0.0139,-0.1249
422,0.0,0.0,0.0,0.0,0.0,0.0,0.1495,-0.9945,-0.0018,0.7367,-0.6643,0.0159,-0.1253
423,0.0,0.0,0.0,0.0,0.0,0.0,0.1583,-0.9980,-0.0014,0.7354,-0.6656,0.0174,-0.1256
424,0.0,0.0,0.0,0.0,0.0,0.0,0.1544,-0.9929,-0.0046,0.7344,-0.6667,0.0190,-0.1259
425,0.0,0.0,0.0,0.0,0.0,0.0,0.1480,-1.0091,-0.0013,0.7335,-0.6675,0.0208,-0.1266
426,0.0,0.0,0.0,0.0,0.0,0.0,0.1480,-0.9998,-0.0039,0.7329,-0.6679,0.0227,-0.1272
427,0.0,0.0,0.0,0.0,0.0,0.0,0.1525,-0.9821,-0.0067,0.7321,-0.6686,0.0241,-0.1279
428,0.0,0.0,0.0,0.0,0.0,0.0,0.1583,-0.9890,-0.0060,0.7312,-0.6695,0.0250,-0.1287
429,0.0,0.0,0.0,0.0,0.0,0.0,0.1475,-0.9966,-0.0106,0.7304,-0.6701,0.0264,-0.1293
430,0.0,0.0,0.0,0.0,0.0,0.0,0.1520,-0.9821,-0.0087,0.7297,-0.6709,0.0271,-0.1296
431,0.0,0.0,0.0,0.0,0.0,0.0,0.1481,-0.9898,-0.0089,0.7289,-0.6715,0.0281,-0.1303
432,0.0,0.0,0.0,0.0,0.0,0.0,0.1363,-1.0070,-0.0037,0.7289,-0.6713,0.0301,-0.1311
433,0.0,0.0,0.0,0.0,0.0,0.0,0.1358,-1.0164,0.0004,0.7287,-0.6714,0.0313,-0.1313
434,0.0,0.0,0.0,0.0,0.0,0.0,0.1279,-1.0242,0.0015,0.7285,-0.6715,0.0323,-0.1313
435,0.0,0.0,0.0,0.0,0.0,0.0,0.1211,-1.0291,0.0048,0.7289,-0.6711,0.0333,-0.1312
436,0.0,0.0,0.0,0.0,0.0,0.0,0.1211,-1.0301,0.0057,0.7297,-0.6702,0.0340,-0.1310
437,0.0,0.0,0.0,0.0,0.0,0.0,0.1240,-1.0293,0.0087,0.7310,-0.6688,0.0344,-0.1310
438,0.0,0.0,0.0,0.0,0.0,0.0,0.1211,-1.0270,0.0131,0.7325,-0.6672,0.0342,-0.1308
439,0.0,0.0,0.0,0.0,0.0,0.0,0.1301,-1.0025,0.0221,0.7340,-0.6656,0.0331,-0.1307
440,0.0,0.0,0.0,0.0,0.0,0.0,0.1271,-1.0070,0.0254,0.7363,-0.6631,0.0323,-0.1311
441,0.0,0.0,0.0,0.0,0.0,0.0,0.1321,-0.9932,0.0336,0.7383,-0.6609,0.0301,-0.1309
442,0.0,0.0,0.0,0.0,0.0,0.0,0.1341,-0.9961,0.0466,0.7404,-0.6587,0.0276,-0.1308
443,0.0,0.0,0.0,0.0,0.0,0.0,0.1362,-0.9880,0.0522,0.7426,-0.6565,0.0253,-0.1303
444,0.0,0.0,0.0,0.0,0.0,0.0,0.1431,-0.9662,0.0554,0.7444,-0.6546,0.0228,-0.1296
445,0.0,0.0,0.0,0.0,0.0,0.0,0.1530,-0.9556,0.0572,0.7465,-0.6525,0.0206,-0.1288
446,0.0,0.0,0.0,0.0,0.0,0.0,0.1667,-0.9391,0.0549,0.7475,-0.6516,0.0172,-0.1277
447,0.0,0.0,0.0,0.0,0.0,0.0,0.1843,-0.9354,0.0560,0.7479,-0.6515,0.0130,-0.1265
448,0.0,0.0,0.0,0.0,0.0,0.0,0.2121,-0.9425,0.0583,0.7481,-0.6516,0.0083,-0.1252
449,0.0,0.0,0.0,0.0,0.0,0.0,0.2095,-0.9679,0.0595,0.7477,-0.6523,0.0042,-0.1240
450,0.0,0.0,0.0,0.0,0.0,0.0,0.1885,-0.9725,0.0583,0.7471,-0.6534,0.0010,-0.1222
451,0.0,0.0,0.0,0.0,0.0,0.0,0.2070,-0.9768,0.0514,0.7461,-0.6549,-0.0025,-0.1203
452,0.0,0.0,0.0,0.0,0.0,0.0,0.2068,-0.9922,0.0432,0.7448,-0.6566,-0.0050,-0.1187
453,0.0,0.0,0.0,0.0,0.0,0.0,0.2104,-0.9641,0.0339,0.7438,-0.6580,-0.0068,-0.1175
454,0.0,0.0,0.0,0.0,0.0,0.0,0.2142,-0.9740,0.0253,0.7427,-0.6593,-0.0084,-0.1170
455,0.0,0.0,0.0,0.0,0.0,0.0,0.2038,-0.9879,0.0210,0.7417,-0.6604,-0.0090,-0.1171
456,0.0,0.0,0.0,0.0,0.0,0.0,0.2019,-0.9755,0.0136,0.7405,-0.6615,-0.0092,-0.1178
457,0.0,0.0,0.0,0.0,0.0,0.0,0.1979,-0.9839,0.0055,0.7394,-0.6627,-0.0090,-0.1189
458,0.0,0.0,0.0,0.0,0.0,0.0,0.1827,-0.9969,0.0046,0.7384,-0.6635,-0.0077,-0.1205
459,0.0,0.0,0.0,0.0,0.0,0.0,0.1729,-1.0041,0.0019,0.7372,-0.6646,-0.0061,-0.1219
460,0.0,0.0,0.0,0.0,0.0,0.0,0.1748,-1.0069,-0.0011,0.7360,-0.6657,-0.0043,-0.1233
461,0.0,0.0,0.0,0.0,0.0,0.0,0.1645,-1.0038,-0.0171,0.7347,-0.6668,-0.0022,-0.1246
462,0.0,0.0,0.0,0.0,0.0,0.0,0.1650,-0.9995,-0.0271,0.7335,-0.6679,0.0002,-0.1260
463,0.0,0.0,0.0,0.0,0.0,0.0,0.1698,-1.0140,-0.0329,0.7322,-0.6690,0.0024,-0.1275
464,0.0,0.0,0.0,0.0,0.0,0.0,0.1707,-1.0296,-0.0348,0.7315,-0.6694,0.0049,-0.1293
465,0.0,0.0,0.0,0.0,0.0,0.0,0.1706,-1.0392,-0.0371,0.7310,-0.6696,0.0068,-0.1310
466,0.0,0.0,0.0,0.0,0.0,0.0,0.1637,-1.0462,-0.0320,0.7311,-0.6692,0.0088,-0.1327
467,0.0,0.0,0.0,0.0,0.0,0.0,0.1633,-1.0380,-0.0283,0.7324,-0.6674,0.0115,-0.1345
468,0.0,0.0,0.0,0.0,0.0,0.0,0.1659,-1.0250,-0.0236,0.7341,-0.6652,0.0140,-0.1361
469,0.0,0.0,0.0,0.0,0.0,0.0,0.1704,-1.0132,-0.0154,0.7356,-0.6631,0.0154,-0.1377
470,0.0,0.0,0.0,0.0,0.0,0.0,0.1671,-0.9920,-0.0065,0.7370,-0.6612,0.0163,-0.1394
471,0.0,0.0,0.0,0.0,0.0,0.0,0.1599,-0.9747,0.0018,0.7388,-0.6588,0.0173,-0.1412
472,0.0,0.0,0.0,0.0,0.0,0.0,0.1634,-0.9743,0.0183,0.7408,-0.6561,0.0181,-0.1430
473,0.0,0.0,0.0,0.0,0.0,0.0,0.1566,-0.9742,0.0299,0.7426,-0.6537,0.0187,-0.1444
474,0.0,0.0,0.0,0.0,0.0,0.0,0.1601,-0.9684,0.0442,0.7442,-0.6518,0.0185,-0.1451
475,0.0,0.0,0.0,0.0,0.0,0.0,0.1719,-0.9731,0.0640,0.7457,-0.6500,0.0178,-0.1451
476,0.0,0.0,0.0,0.0,0.0,0.0,0.1731,-0.9490,0.0711,0.7472,-0.6486,0.0168,-0.1443
477,0.0,0.0,0.0,0.0,0.0,0.0,0.1824,-0.9434,0.0761,0.7479,-0.6481,0.0151,-0.1427
478,0.0,0.0,0.0,0.0,0.0,0.0,0.1946,-0.9481,0.0838,0.7486,-0.6477,0.0136,-0.1411
479,0.0,0.0,0.0,0.0,0.0,0.0,0.1926,-0.9516,0.0851,0.7490,-0.6476,0.0124,-0.1395
480,0.0,0.0,0.0,0.0,0.0,0.0,0.1857,-0.9623,0.0857,0.7492,-0.6478,0.0114,-0.1376
481,0.0,0.0,0.0,0.0,0.0,0.0,0.1832,-0.9730,0.0849,0.7494,-0.6481,0.0107,-0.1355
482,0.0,0.0,0.0,0.0,0.0,0.0,0.1783,-0.9817,0.0846,0.7495,-0.6484,0.0100,-0.1332
483,0.0,0.0,0.0,0.0,0.0,0.0,0.1744,-0.9713,0.0806,0.7498,-0.6486,0.0097,-0.1309
484,0.0,0.0,0.0,0.0,0.0,0.0,0.1788,-0.9785,0.0779,0.7500,-0.6488,0.0091,-0.1287
485,0.0,0.0,0.0,0.0,0.0,0.0,0.1709,-0.9838,0.0763,0.7499,-0.6494,0.0082,-0.1265
486,0.0,0.0,0.0,0.0,0.0,0.0,0.1641,-0.9824,0.0811,0.7499,-0.6497,0.0071,-0.1245
487,0.0,0.0,0.0,0.0,0.0,0.0,0.1650,-0.9988,0.0879,0.7501,-0.6498,0.0054,-0.1227
488,0.0,0.0,0.0,0.0,0.0,0.0,0.1669,-1.0135,0.0904,0.7503,-0.6499,0.0036,-0.1210
489,0.0,0.0,0.0,0.0,0.0,0.0,0.1664,-1.0081,0.0881,0.7509,-0.6495,0.0022,-0.1194
490,0.0,0.0,0.0,0.0,0.0,0.0,0.1787,-1.0019,0.0893,0.7516,-0.6490,0.0002,-0.1178
491,0.0,0.0,0.0,0.0,0.0,0.0,0.1825,-1.0123,0.0939,0.7526,-0.6480,-0.0014,-0.1168
492,0.0,0.0,0.0,0.0,0.0,0.0,0.1845,-1.0137,0.0914,0.7545,-0.6459,-0.0022,-0.1162
493,0.0,0.0,0.0,0.0,0.0,0.0,0.1781,-1.0142,0.0938,0.7561,-0.6441,-0.0033,-0.1157
494,0.0,0.0,0.0,0.0,0.0,0.0,0.1835,-1.0120,0.0982,0.7578,-0.6424,-0.0044,-0.1144
495,0.0,0.0,0.0,0.0,0.0,0.0,0.1773,-0.9871,0.0864,0.7596,-0.6405,-0.0050,-0.1130
496,0.0,0.0,0.0,0.0,0.0,0.0,0.1616,-0.9862,0.0766,0.7606,-0.6395,-0.0056,-0.1114
497,0.0,0.0,0.0,0.0,0.0,0.0,0.1657,-0.9589,0.0766,0.7616,-0.6386,-0.0064,-0.1098
498,0.0,0.0,0.0,0.0,0.0,0.0,0.1795,-0.9407,0.0840,0.7621,-0.6383,-0.0081,-0.1080
499,0.0,0.0,0.0,0.0,0.0,0.0,0.1853,-0.9410,0.0777,0.7618,-0.6389,-0.0102,-0.1062
500,0.0,0.0,0.0,0.0,0.0,0.0,0.1826,-0.9045,0.0657,0.7611,-0.6401,-0.0124,-0.1045
501,0.0,0.0,0.0,0.0,0.0,0.0,0.2024,-0.9418,0.0675,0.7602,-0.6413,-0.0149,-0.1034
502,0.0,0.0,0.0,0.0,0.0,0.0,0.1985,-0.9378,0.0672,0.7583,-0.6435,-0.0177,-0.1026
503,0.0,0.0,0.0,0.0,0.0,0.0,0.2033,-0.9340,0.0552,0.7558,-0.6464,-0.0207,-0.1021
504,0.0,0.0,0.0,0.0,0.0,0.0,0.2051,-0.9483,0.0436,0.7532,-0.6494,-0.0232,-0.1021
505,0.0,0.0,0.0,0.0,0.0,0.0,0.1987,-0.9547,0.0341,0.7504,-0.6525,-0.0256,-0.1019
506,0.0,0.0,0.0,0.0,0.0,0.0,0.1918,-0.9476,0.0134,0.7470,-0.6564,-0.0277,-0.1021
507,0.0,0.0,0.0,0.0,0.0,0.0,0.1854,-0.9573,0.0010,0.7429,-0.6608,-0.0299,-0.1029
508,0.0,0.0,0.0,0.0,0.0,0.0,0.1764,-0.9779,-0.0089,0.7391,-0.6648,-0.0313,-0.1036
509,0.0,0.0,0.0,0.0,0.0,0.0,0.1578,-0.9929,-0.0201,0.7359,-0.6682,-0.0319,-0.1041
510,0.0,0.0,0.0,0.0,0.0,0.0,0.1508,-1.0100,-0.0304,0.7326,-0.6718,-0.0323,-0.1047
511,0.0,0.0,0.0,0.0,0.0,0.0,0.1571,-1.0073,-0.0400,0.7291,-0.6755,-0.0336,-0.1049
512,0.0,0.0,0.0,0.0,0.0,0.0,0.1595,-1.0055,-0.0492,0.7259,-0.6789,-0.0352,-0.1049
513,0.0,0.0,0.0,0.0,0.0,0.0,0.1624,-1.0064,-0.0536,0.7234,-0.6814,-0.0361,-0.1052
514,0.0,0.0,0.0,0.0,0.0,0.0,0.1467,-1.0134,-0.0708,0.7205,-0.6845,-0.0378,-0.1042
515,0.0,0.0,0.0,0.0,0.0,0.0,0.1163,-1.0292,-0.0870,0.7170,-0.6888,-0.0414,-0.0990
516,0.0,0.0,0.0,0.0,0.0,0.0,0.2094,-0.9985,-0.0255,0.7153,-0.6909,-0.0454,-0.0946
517,0.0,0.0,0.0,0.0,0.0,0.0,0.2308,-1.0133,-0.0273,0.7154,-0.6904,-0.0454,-0.0971
518,0.0,0.0,0.0,0.0,0.0,0.0,0.1573,-1.0344,-0.0729,0.7143,-0.6913,-0.0429,-0.0999
519,0.0,0.0,0.0,0.0,0.0,0.0,0.1608,-1.0284,-0.0649,0.7134,-0.6923,-0.0412,-0.1006
520,0.0,0.0,0.0,0.0,0.0,0.0,0.1725,-1.0371,-0.0569,0.7133,-0.6925,-0.0392,-0.1009
521,0.0,0.0,0.0,0.0,0.0,0.0,0.1662,-1.0295,-0.0630,0.7130,-0.6930,-0.0370,-0.1006
522,0.0,0.0,0.0,0.0,0.0,0.0,0.1667,-1.0162,-0.0674,0.7129,-0.6932,-0.0347,-0.1004
523,0.0,0.0,0.0,0.0,0.0,0.0,0.1575,-1.0088,-0.0658,0.7129,-0.6933,-0.0323,-0.1003
524,0.0,0.0,0.0,0.0,0.0,0.0,0.1477,-1.0044,-0.0662,0.7131,-0.6933,-0.0296,-0.1001
525,0.0,0.0,0.0,0.0,0.0,0.0,0.1218,-1.0041,-0.0803,0.7131,-0.6935,-0.0269,-0.0989
526,0.0,0.0,0.0,0.0,0.0,0.0,0.0376,-1.0280,-0.1169,0.7111,-0.6967,-0.0255,-0.0915
527,0.0,0.0,0.0,0.0,0.0,0.0,0.1756,-0.9475,-0.0250,0.7111,-0.6976,-0.0278,-0.0838
528,0.0,0.0,0.0,0.0,0.0,0.0,0.2436,-0.9835,-0.0307,0.7134,-0.6950,-0.0290,-0.0847
529,0.0,0.0,0.0,0.0,0.0,0.0,0.1981,-1.0079,-0.0457,0.7156,-0.6923,-0.0269,-0.0886
530,0.0,0.0,0.0,0.0,0.0,0.0,0.1429,-0.9957,-0.0606,0.7172,-0.6902,-0.0221,-0.0940
531,0.0,0.0,0.0,0.0,0.0,0.0,0.1156,-0.9956,-0.0723,0.7175,-0.6895,-0.0170,-0.0978
532,0.0,0.0,0.0,0.0,0.0,0.0,0.1430,-0.9888,-0.0647,0.7176,-0.6892,-0.0138,-0.0993
533,0.0,0.0,0.0,0.0,0.0,0.0,0.1596,-0.9799,-0.0566,0.7181,-0.6886,-0.0115,-0.1000
534,0.0,0.0,0.0,0.0,0.0,0.0,0.1611,-0.9777,-0.0517,0.7186,-0.6880,-0.0100,-0.1006
535,0.0,0.0,0.0,0.0,0.0,0.0,0.1616,-0.9787,-0.0498,0.7193,-0.6872,-0.0083,-0.1014
536,0.0,0.0,0.0,0.0,0.0,0.0,0.1621,-0.9831,-0.0499,0.7199,-0.6865,-0.0067,-0.1022
537,0.0,0.0,0.0,0.0,0.0,0.0,0.1620,-0.9930,-0.0468,0.7199,-0.6864,-0.0057,-0.1026
538,0.0,0.0,0.0,0.0,0.0,0.0,0.1596,-0.9964,-0.0445,0.7203,-0.6860,-0.0043,-0.1030
539,0.0,0.0,0.0,0.0,0.0,0.0,0.1659,-0.9970,-0.0431,0.7212,-0.6850,-0.0026,-0.1035
540,0.0,0.0,0.0,0.0,0.0,0.0,0.1689,-0.9869,-0.0417,0.7217,-0.6843,-0.0014,-0.1039
541,0.0,0.0,0.0,0.0,0.0,0.0,0.1606,-0.9908,-0.0390,0.7222,-0.6838,-0.0003,-0.1043
542,0.0,0.0,0.0,0.0,0.0,0.0,0.1537,-1.0087,-0.0275,0.7231,-0.6827,0.0017,-0.1047
543,0.0,0.0,0.0,0.0,0.0,0.0,0.1537,-1.0207,-0.0186,0.7244,-0.6814,0.0041,-0.1049
544,0.0,0.0,0.0,0.0,0.0,0.0,0.1552,-1.0148,-0.0199,0.7258,-0.6799,0.0065,-0.1046
545,0.0,0.0,0.0,0.0,0.0,0.0,0.1523,-1.0076,-0.0182,0.7273,-0.6783,0.0097,-0.1043
546,0.0,0.0,0.0,0.0,0.0,0.0,0.1563,-1.0042,-0.0050,0.7291,-0.6763,0.0131,-0.1042
547,0.0,0.0,0.0,0.0,0.0,0.0,0.1368,-0.9937,-0.0076,0.7306,-0.6747,0.0163,-0.1038
548,0.0,0.0,0.0,0.0,0.0,0.0,0.1311,-0.9795,0.0059,0.7322,-0.6729,0.0200,-0.1034
549,0.0,0.0,0.0,0.0,0.0,0.0,0.1341,-0.9712,0.0066,0.7335,-0.6714,0.0237,-0.1031
550,0.0,0.0,0.0,0.0,0.0,0.0,0.1439,-0.9545,0.0014,0.7345,-0.6702,0.0267,-0.1031
551,0.0,0.0,0.0,0.0,0.0,0.0,0.1483,-0.9530,-0.0005,0.7350,-0.6694,0.0297,-0.1037
552,0.0,0.0,0.0,0.0,0.0,0.0,0.1522,-0.9735,0.0115,0.7354,-0.6687,0.0326,-0.1049
553,0.0,0.0,0.0,0.0,0.0,0.0,0.1521,-0.9836,0.0078,0.7352,-0.6684,0.0354,-0.1068
554,0.0,0.0,0.0,0.0,0.0,0.0,0.1491,-0.9882,-0.0001,0.7351,-0.6680,0.0389,-0.1091
555,0.0,0.0,0.0,0.0,0.0,0.0,0.1447,-0.9835,-0.0078,0.7347,-0.6678,0.0422,-0.1117
556,0.0,0.0,0.0,0.0,0.0,0.0,0.1339,-0.9957,-0.0043,0.7339,-0.6680,0.0456,-0.1146
557,0.0,0.0,0.0,0.0,0.0,0.0,0.1207,-1.0007,-0.0108,0.7331,-0.6678,0.0504,-0.1181
558,0.0,0.0,0.0,0.0,0.0,0.0,0.1324,-0.9926,-0.0241,0.7320,-0.6681,0.0548,-0.1214
559,0.0,0.0,0.0,0.0,0.0,0.0,0.1408,-0.9696,-0.0258,0.7307,-0.6687,0.0578,-0.1248
560,0.0,0.0,0.0,0.0,0.0,0.0,0.1426,-1.0039,-0.0089,0.7298,-0.6687,0.0607,-0.1286
561,0.0,0.0,0.0,0.0,0.0,0.0,0.1254,-1.0326,-0.0079,0.7293,-0.6682,0.0643,-0.1323
562,0.0,0.0,0.0,0.0,0.0,0.0,0.1050,-1.0109,-0.0107,0.7289,-0.6675,0.0685,-0.1357
563,0.0,0.0,0.0,0.0,0.0,0.0,0.1194,-0.9703,-0.0162,0.7281,-0.6676,0.0712,-0.1386
564,0.0,0.0,0.0,0.0,0.0,0.0,0.0995,-1.0292,-0.0138,0.7279,-0.6666,0.0748,-0.1419
565,0.0,0.0,0.0,0.0,0.0,0.0,0.1077,-0.9645,-0.0117,0.7275,-0.6662,0.0776,-0.1446
566,0.0,0.0,0.0,0.0,0.0,0.0,0.1326,-0.9589,-0.0104,0.7270,-0.6659,0.0789,-0.1476
567,0.0,0.0,0.0,0.0,0.0,0.0,0.1121,-0.9789,-0.0058,0.7265,-0.6656,0.0801,-0.1509
568,0.0,0.0,0.0,0.0,0.0,0.0,0.1101,-0.9745,-0.0067,0.7259,-0.6654,0.0809,-0.1543
569,0.0,0.0,0.0,0.0,0.0,0.0,0.1301,-0.9750,-0.0095,0.7255,-0.6649,0.0811,-0.1579
570,0.0,0.0,0.0,0.0,0.0,0.0,0.1227,-1.0057,0.0041,0.7253,-0.6644,0.0809,-0.1611
571,0.0,0.0,0.0,0.0,0.0,0.0,0.1249,-1.0345,0.0051,0.7252,-0.6639,0.0804,-0.1638
572,0.0,0.0,0.0,0.0,0.0,0.0,0.1186,-1.0277,0.0058,0.7251,-0.6635,0.0796,-0.1663
573,0.0,0.0,0.0,0.0,0.0,0.0,0.1162,-1.0311,0.0071,0.7254,-0.6626,0.0795,-0.1688
574,0.0,0.0,0.0,0.0,0.0,0.0,0.1267,-0.9876,0.0027,0.7261,-0.6611,0.0798,-0.1712
575,0.0,0.0,0.0,0.0,0.0,0.0,0.1354,-0.9962,0.0093,0.7269,-0.6595,0.0800,-0.1739
576,0.0,0.0,0.0,0.0,0.0,0.0,0.1292,-0.9664,-0.0049,0.7268,-0.6591,0.0791,-0.1762
577,0.0,0.0,0.0,0.0,0.0,0.0,0.1433,-0.9825,0.0068,0.7268,-0.6587,0.0773,-0.1788
578,0.0,0.0,0.0,0.0,0.0,0.0,0.1443,-0.9787,0.0089,0.7272,-0.6577,0.0758,-0.1814
579,0.0,0.0,0.0,0.0,0.0,0.0,0.1345,-0.9831,0.0121,0.7272,-0.6574,0.0738,-0.1832
580,0.0,0.0,0.0,0.0,0.0,0.0,0.1422,-1.0141,0.0301,0.7272,-0.6575,0.0709,-0.1841
581,0.0,0.0,0.0,0.0,0.0,0.0,0.1520,-1.0168,0.0349,0.7274,-0.6574,0.0679,-0.1845
582,0.0,0.0,0.0,0.0,0.0,0.0,0.1555,-1.0027,0.0373,0.7279,-0.6572,0.0653,-0.1843
583,0.0,0.0,0.0,0.0,0.0,0.0,0.1619,-0.9885,0.0339,0.7287,-0.6566,0.0632,-0.1839
584,0.0,0.0,0.0,0.0,0.0,0.0,0.1723,-0.9678,0.0380,0.7298,-0.6559,0.0607,-0.1833
585,0.0,0.0,0.0,0.0,0.0,0.0,0.1776,-0.9793,0.0439,0.7310,-0.6550,0.0579,-0.1824
586,0.0,0.0,0.0,0.0,0.0,0.0,0.1762,-0.9817,0.0448,0.7319,-0.6546,0.0550,-0.1809
587,0.0,0.0,0.0,0.0,0.0,0.0,0.1800,-0.9852,0.0457,0.7328,-0.6544,0.0520,-0.1790
588,0.0,0.0,0.0,0.0,0.0,0.0,0.1845,-0.9823,0.0458,0.7335,-0.6545,0.0487,-0.1768
589,0.0,0.0,0.0,0.0,0.0,0.0,0.1879,-0.9807,0.0405,0.7335,-0.6553,0.0454,-0.1745
590,0.0,0.0,0.0,0.0,0.0,0.0,0.1874,-0.9852,0.0438,0.7338,-0.6558,0.0423,-0.1721
591,0.0,0.0,0.0,0.0,0.0,0.0,0.1898,-0.9850,0.0389,0.7344,-0.6559,0.0398,-0.1699
592,0.0,0.0,0.0,0.0,0.0,0.0,0.1947,-0.9762,0.0349,0.7351,-0.6558,0.0377,-0.1677
593,0.0,0.0,0.0,0.0,0.0,0.0,0.2040,-0.9682,0.0284,0.7352,-0.6563,0.0352,-0.1657
594,0.0,0.0,0.0,0.0,0.0,0.0,0.2102,-0.9789,0.0251,0.7350,-0.6571,0.0326,-0.1640
595,0.0,0.0,0.0,0.0,0.0,0.0,0.2136,-0.9892,0.0273,0.7348,-0.6579,0.0302,-0.1624
596,0.0,0.0,0.0,0.0,0.0,0.0,0.2185,-0.9851,0.0201,0.7349,-0.6582,0.0281,-0.1610
597,0.0,0.0,0.0,0.0,0.0,0.0,0.2180,-0.9825,0.0149,0.7341,-0.6595,0.0253,-0.1593
598,0.0,0.0,0.0,0.0,0.0,0.0,0.2170,-0.9819,0.0120,0.7336,-0.6604,0.0232,-0.1583
599,0.0,0.0,0.0,0.0,0.0,0.0,0.2209,-0.9814,0.0115,0.7336,-0.6606,0.0218,-0.1579
600,0.0,0.0,0.0,0.0,0.0,0.0,0.2086,-0.9989,0.0124,0.7332,-0.6613,0.0200,-0.1571
601,0.0,0.0,0.0,0.0,0.0,0.0,0.1959,-1.0055,0.0107,0.7331,-0.6617,0.0192,-0.1560
602,0.0,0.0,0.0,0.0,0.0,0.0,0.1950,-0.9890,0.0117,0.7333,-0.6618,0.0184,-0.1548
603,0.0,0.0,0.0,0.0,0.0,0.0,0.1945,-0.9953,0.0110,0.7333,-0.6621,0.0173,-0.1535
604,0.0,0.0,0.0,0.0,0.0,0.0,0.1907,-0.9755,0.0043,0.7334,-0.6624,0.0161,-0.1523
605,0.0,0.0,0.0,0.0,0.0,0.0,0.1916,-0.9807,0.0114,0.7334,-0.6626,0.0146,-0.1511
606,0.0,0.0,0.0,0.0,0.0,0.0,0.1916,-0.9811,0.0109,0.7338,-0.6625,0.0131,-0.1497
607,0.0,0.0,0.0,0.0,0.0,0.0,0.1916,-0.9749,0.0014,0.7336,-0.6632,0.0106,-0.1480
608,0.0,0.0,0.0,0.0,0.0,0.0,0.1937,-0.9618,0.0014,0.7335,-0.6635,0.0084,-0.1468
609,0.0,0.0,0.0,0.0,0.0,0.0,0.1999,-0.9825,0.0056,0.7340,-0.6632,0.0067,-0.1462
610,0.0,0.0,0.0,0.0,0.0,0.0,0.1999,-0.9822,0.0114,0.7339,-0.6635,0.0039,-0.1451
611,0.0,0.0,0.0,0.0,0.0,0.0,0.1974,-1.0047,0.0151,0.7338,-0.6640,0.0009,-0.1435
612,0.0,0.0,0.0,0.0,0.0,0.0,0.2037,-1.0002,0.0109,0.7342,-0.6639,-0.0015,-0.1420
613,0.0,0.0,0.0,0.0,0.0,0.0,0.2136,-0.9743,0.0064,0.7349,-0.6634,-0.0038,-0.1408
614,0.0,0.0,0.0,0.0,0.0,0.0,0.2126,-0.9770,-0.0015,0.7353,-0.6633,-0.0063,-0.1393
615,0.0,0.0,0.0,0.0,0.0,0.0,0.2301,-0.9797,0.0019,0.7347,-0.6642,-0.0103,-0.1375
616,0.0,0.0,0.0,0.0,0.0,0.0,0.2282,-0.9713,0.0007,0.7346,-0.6645,-0.0140,-0.1362
617,0.0,0.0,0.0,0.0,0.0,0.0,0.2350,-0.9737,-0.0027,0.7349,-0.6644,-0.0170,-0.1352
618,0.0,0.0,0.0,0.0,0.0,0.0,0.2380,-0.9677,-0.0059,0.7349,-0.6645,-0.0201,-0.1341
619,0.0,0.0,0.0,0.0,0.0,0.0,0.2429,-0.9658,-0.0078,0.7344,-0.6651,-0.0238,-0.1329
620,0.0,0.0,0.0,0.0,0.0,0.0,0.2428,-0.9757,-0.0018,0.7339,-0.6659,-0.0273,-0.1315
621,0.0,0.0,0.0,0.0,0.0,0.0,0.2360,-0.9750,-0.0076,0.7333,-0.6666,-0.0304,-0.1303
622,0.0,0.0,0.0,0.0,0.0,0.0,0.2418,-0.9745,-0.0090,0.7323,-0.6678,-0.0340,-0.1290
623,0.0,0.0,0.0,0.0,0.0,0.0,0.2418,-0.9760,-0.0086,0.7317,-0.6685,-0.0369,-0.1281
624,0.0,0.0,0.0,0.0,0.0,0.0,0.2423,-0.9769,-0.0091,0.7310,-0.6692,-0.0395,-0.1276
625,0.0,0.0,0.0,0.0,0.0,0.0,0.2487,-0.9682,-0.0078,0.7301,-0.6702,-0.0424,-0.1268
626,0.0,0.0,0.0,0.0,0.0,0.0,0.2478,-0.9563,-0.0143,0.7291,-0.6712,-0.0448,-0.1264
627,0.0,0.0,0.0,0.0,0.0,0.0,0.2531,-0.9642,-0.0130,0.7290,-0.6712,-0.0461,-0.1264
628,0.0,0.0,0.0,0.0,0.0,0.0,0.2516,-0.9710,-0.0142,0.7286,-0.6716,-0.0476,-0.1261
629,0.0,0.0,0.0,0.0,0.0,0.0,0.2570,-0.9617,-0.0144,0.7272,-0.6730,-0.0497,-0.1255
630,0.0,0.0,0.0,0.0,0.0,0.0,0.2639,-0.9530,-0.0151,0.7264,-0.6738,-0.0510,-0.1257
631,0.0,0.0,0.0,0.0,0.0,0.0,0.2653,-0.9647,-0.0145,0.7257,-0.6743,-0.0518,-0.1264
632,0.0,0.0,0.0,0.0,0.0,0.0,0.2603,-0.9733,-0.0191,0.7252,-0.6746,-0.0503,-0.1286
633,0.0,0.0,0.0,0.0,0.0,0.0,0.2525,-0.9823,-0.0257,0.7247,-0.6749,-0.0498,-0.1296
634,0.0,0.0,0.0,0.0,0.0,0.0,0.2475,-0.9974,-0.0248,0.7245,-0.6751,-0.0483,-0.1308
635,0.0,0.0,0.0,0.0,0.0,0.0,0.2406,-1.0085,-0.0247,0.7243,-0.6752,-0.0464,-0.1316
636,0.0,0.0,0.0,0.0,0.0,0.0,0.2362,-1.0114,-0.0248,0.7242,-0.6755,-0.0439,-0.1320
637,0.0,0.0,0.0,0.0,0.0,0.0,0.2299,-1.0051,-0.0232,0.7242,-0.6756,-0.0409,-0.1322
638,0.0,0.0,0.0,0.0,0.0,0.0,0.2138,-1.0021,-0.0222,0.7240,-0.6760,-0.0379,-0.1320
639,0.0,0.0,0.0,0.0,0.0,0.0,0.1996,-1.0064,-0.0209,0.7246,-0.6756,-0.0338,-0.1316
640,0.0,0.0,0.0,0.0,0.0,0.0,0.2016,-0.9981,-0.0206,0.7257,-0.6747,-0.0295,-0.1312
641,0.0,0.0,0.0,0.0,0.0,0.0,0.2037,-0.9853,-0.0241,0.7265,-0.6742,-0.0262,-0.1306
642,0.0,0.0,0.0,0.0,0.0,0.0,0.1998,-0.9760,-0.0248,0.7272,-0.6736,-0.0232,-0.1299
643,0.0,0.0,0.0,0.0,0.0,0.0,0.1974,-0.9657,-0.0259,0.7272,-0.6737,-0.0215,-0.1295
644,0.0,0.0,0.0,0.0,0.0,0.0,0.1925,-0.9834,-0.0202,0.7273,-0.6738,-0.0205,-0.1291
645,0.0,0.0,0.0,0.0,0.0,0.0,0.1890,-0.9869,-0.0193,0.7276,-0.6735,-0.0198,-0.1288
646,0.0,0.0,0.0,0.0,0.0,0.0,0.1930,-0.9703,-0.0198,0.7282,-0.6729,-0.0193,-0.1288
647,0.0,0.0,0.0,0.0,0.0,0.0,0.1950,-0.9659,-0.0191,0.7289,-0.6721,-0.0199,-0.1286
648,0.0,0.0,0.0,0.0,0.0,0.0,0.1955,-0.9746,-0.0092,0.7298,-0.6712,-0.0211,-0.1286
649,0.0,0.0,0.0,0.0,0.0,0.0,0.1890,-0.9983,-0.0003,0.7307,-0.6701,-0.0226,-0.1283
650,0.0,0.0,0.0,0.0,0.0,0.0,0.1881,-0.9975,0.0065,0.7321,-0.6687,-0.0241,-0.1277
651,0.0,0.0,0.0,0.0,0.0,0.0,0.2058,-0.9693,0.0036,0.7334,-0.6673,-0.0263,-0.1269
652,0.0,0.0,0.0,0.0,0.0,0.0,0.2210,-0.9589,0.0098,0.7346,-0.6660,-0.0294,-0.1262
653,0.0,0.0,0.0,0.0,0.0,0.0,0.2254,-0.9625,0.0131,0.7357,-0.6648,-0.0326,-0.1253
654,0.0,0.0,0.0,0.0,0.0,0.0,0.2446,-0.9472,0.0190,0.7366,-0.6638,-0.0368,-0.1242
655,0.0,0.0,0.0,0.0,0.0,0.0,0.2598,-0.9328,0.0210,0.7375,-0.6627,-0.0409,-0.1235
656,0.0,0.0,0.0,0.0,0.0,0.0,0.2720,-0.9255,0.0198,0.7380,-0.6619,-0.0451,-0.1231
657,0.0,0.0,0.0,0.0,0.0,0.0,0.2793,-0.9291,0.0217,0.7378,-0.6619,-0.0497,-0.1228
658,0.0,0.0,0.0,0.0,0.0,0.0,0.2870,-0.9414,0.0228,0.7369,-0.6625,-0.0541,-0.1228
659,0.0,0.0,0.0,0.0,0.0,0.0,0.2919,-0.9537,0.0263,0.7364,-0.6628,-0.0572,-0.1230
660,0.0,0.0,0.0,0.0,0.0,0.0,0.2966,-0.9754,0.0300,0.7354,-0.6637,-0.0598,-0.1230
661,0.0,0.0,0.0,0.0,0.0,0.0,0.2999,-0.9893,0.0242,0.7346,-0.6644,-0.0610,-0.1230
662,0.0,0.0,0.0,0.0,0.0,0.0,0.3038,-0.9929,0.0134,0.7347,-0.6643,-0.0602,-0.1234
663,0.0,0.0,0.0,0.0,0.0,0.0,0.2984,-0.9895,0.0024,0.7344,-0.6647,-0.0588,-0.1240
664,0.0,0.0,0.0,0.0,0.0,0.0,0.2915,-0.9811,-0.0115,0.7332,-0.6660,-0.0576,-0.1245
665,0.0,0.0,0.0,0.0,0.0,0.0,0.2808,-0.9684,-0.0247,0.7317,-0.6677,-0.0563,-0.1251
666,0.0,0.0,0.0,0.0,0.0,0.0,0.2363,-0.9698,-0.0579,0.7295,-0.6704,-0.0550,-0.1243
667,0.0,0.0,0.0,0.0,0.0,0.0,0.2344,-0.9647,-0.0490,0.7271,-0.6736,-0.0550,-0.1208
668,0.0,0.0,0.0,0.0,0.0,0.0,0.3020,-0.9439,-0.0044,0.7266,-0.6740,-0.0547,-0.1212
669,0.0,0.0,0.0,0.0,0.0,0.0,0.2666,-0.9737,-0.0361,0.7268,-0.6733,-0.0505,-0.1261
670,0.0,0.0,0.0,0.0,0.0,0.0,0.2054,-0.9865,-0.0610,0.7261,-0.6737,-0.0452,-0.1301
671,0.0,0.0,0.0,0.0,0.0,0.0,0.2172,-0.9835,-0.0507,0.7246,-0.6751,-0.0419,-0.1323
672,0.0,0.0,0.0,0.0,0.0,0.0,0.2216,-0.9842,-0.0453,0.7239,-0.6757,-0.0389,-0.1341
673,0.0,0.0,0.0,0.0,0.0,0.0,0.2168,-0.9828,-0.0439,0.7238,-0.6757,-0.0356,-0.1353
674,0.0,0.0,0.0,0.0,0.0,0.0,0.2211,-0.9823,-0.0458,0.7233,-0.6762,-0.0330,-0.1358
675,0.0,0.0,0.0,0.0,0.0,0.0,0.2045,-0.9837,-0.0570,0.7224,-0.6774,-0.0312,-0.1352
676,0.0,0.0,0.0,0.0,0.0,0.0,0.1614,-1.0020,-0.0806,0.7201,-0.6807,-0.0309,-0.1308
677,0.0,0.0,0.0,0.0,0.0,0.0,0.2021,-0.9952,-0.0346,0.7184,-0.6839,-0.0319,-0.1233
678,0.0,0.0,0.0,0.0,0.0,0.0,0.2944,-0.9951,-0.0051,0.7193,-0.6832,-0.0306,-0.1217
679,0.0,0.0,0.0,0.0,0.0,0.0,0.2354,-1.0626,-0.0269,0.7207,-0.6817,-0.0239,-0.1237
680,0.0,0.0,0.0,0.0,0.0,0.0,0.1392,-1.0496,-0.0531,0.7203,-0.6824,-0.0138,-0.1238
681,0.0,0.0,0.0,0.0,0.0,0.0,0.1409,-1.0264,-0.0480,0.7194,-0.6841,-0.0061,-0.1205
682,0.0,0.0,0.0,0.0,0.0,0.0,0.1830,-0.9941,-0.0463,0.7191,-0.6852,-0.0003,-0.1160
683,0.0,0.0,0.0,0.0,0.0,0.0,0.2092,-0.9310,-0.0592,0.7190,-0.6860,0.0036,-0.1117
684,0.0,0.0,0.0,0.0,0.0,0.0,0.2092,-0.9389,-0.0541,0.7192,-0.6863,0.0060,-0.1084
685,0.0,0.0,0.0,0.0,0.0,0.0,0.1955,-0.9328,-0.0598,0.7193,-0.6865,0.0074,-0.1060
686,0.0,0.0,0.0,0.0,0.0,0.0,0.1990,-0.9265,-0.0596,0.7191,-0.6869,0.0067,-0.1047
687,0.0,0.0,0.0,0.0,0.0,0.0,0.1811,-0.9867,-0.0480,0.7196,-0.6865,0.0067,-0.1044
688,0.0,0.0,0.0,0.0,0.0,0.0,0.1615,-1.0082,-0.0434,0.7203,-0.6857,0.0070,-0.1045
689,0.0,0.0,0.0,0.0,0.0,0.0,0.1558,-0.9719,-0.0486,0.7211,-0.6848,0.0074,-0.1050
690,0.0,0.0,0.0,0.0,0.0,0.0,0.1647,-0.9612,-0.0487,0.7228,-0.6828,0.0083,-0.1066
691,0.0,0.0,0.0,0.0,0.0,0.0,0.1541,-1.0068,-0.0551,0.7242,-0.6810,0.0100,-0.1078
692,0.0,0.0,0.0,0.0,0.0,0.0,0.1382,-0.9923,-0.0459,0.7250,-0.6801,0.0120,-0.1084
693,0.0,0.0,0.0,0.0,0.0,0.0,0.1245,-0.9936,-0.0344,0.7260,-0.6788,0.0143,-0.1089
694,0.0,0.0,0.0,0.0,0.0,0.0,0.1216,-0.9744,-0.0522,0.7259,-0.6789,0.0161,-0.1093
695,0.0,0.0,0.0,0.0,0.0,0.0,0.1275,-0.9883,-0.0332,0.7257,-0.6789,0.0177,-0.1103
696,0.0,0.0,0.0,0.0,0.0,0.0,0.1079,-1.0040,-0.0256,0.7255,-0.6788,0.0213,-0.1114
697,0.0,0.0,0.0,0.0,0.0,0.0,0.1119,-0.9807,-0.0364,0.7250,-0.6791,0.0244,-0.1120
698,0.0,0.0,0.0,0.0,0.0,0.0,0.1290,-0.9795,-0.0349,0.7242,-0.6799,0.0261,-0.1123
699,0.0,0.0,0.0,0.0,0.0,0.0,0.1252,-0.9626,-0.0407,0.7231,-0.6809,0.0270,-0.1125
700,0.0,0.0,0.0,0.0,0.0,0.0,0.1323,-0.9991,-0.0335,0.7223,-0.6818,0.0270,-0.1127
701,0.0,0.0,0.0,0.0,0.0,0.0,0.1440,-1.0025,-0.0356,0.7214,-0.6827,0.0263,-0.1130
702,0.0,0.0,0.0,0.0,0.0,0.0,0.1401,-0.9978,-0.0301,0.7206,-0.6835,0.0256,-0.1137
703,0.0,0.0,0.0,0.0,0.0,0.0,0.1367,-0.9969,-0.0252,0.7203,-0.6837,0.0256,-0.1143
704,0.0,0.0,0.0,0.0,0.0,0.0,0.1524,-0.9860,-0.0360,0.7198,-0.6841,0.0254,-0.1151
705,0.0,0.0,0.0,0.0,0.0,0.0,0.1637,-0.9742,-0.0399,0.7196,-0.6841,0.0250,-0.1164
706,0.0,0.0,0.0,0.0,0.0,0.0,0.1578,-0.9856,-0.0345,0.7198,-0.6836,0.0254,-0.1182
707,0.0,0.0,0.0,0.0,0.0,0.0,0.1601,-0.9968,-0.0358,0.7197,-0.6834,0.0256,-0.1201
708,0.0,0.0,0.0,0.0,0.0,0.0,0.1539,-0.9825,-0.0368,0.7194,-0.6833,0.0260,-0.1220
709,0.0,0.0,0.0,0.0,0.0,0.0,0.1500,-0.9850,-0.0340,0.7190,-0.6834,0.0259,-0.1240
710,0.0,0.0,0.0,0.0,0.0,0.0,0.1469,-1.0037,-0.0283,0.7184,-0.6838,0.0256,-0.1256
711,0.0,0.0,0.0,0.0,0.0,0.0,0.1469,-1.0177,-0.0215,0.7182,-0.6836,0.0255,-0.1273
712,0.0,0.0,0.0,0.0,0.0,0.0,0.1449,-1.0266,-0.0164,0.7187,-0.6828,0.0257,-0.1287
713,0.0,0.0,0.0,0.0,0.0,0.0,0.1478,-1.0279,-0.0218,0.7189,-0.6824,0.0256,-0.1296
714,0.0,0.0,0.0,0.0,0.0,0.0,0.1498,-1.0192,-0.0205,0.7195,-0.6816,0.0256,-0.1306
715,0.0,0.0,0.0,0.0,0.0,0.0,0.1479,-1.0090,-0.0192,0.7207,-0.6802,0.0261,-0.1316
716,0.0,0.0,0.0,0.0,0.0,0.0,0.1455,-0.9997,-0.0180,0.7221,-0.6784,0.0267,-0.1326
717,0.0,0.0,0.0,0.0,0.0,0.0,0.1520,-0.9917,-0.0129,0.7238,-0.6763,0.0272,-0.1341
718,0.0,0.0,0.0,0.0,0.0,0.0,0.1461,-1.0045,-0.0060,0.7251,-0.6746,0.0272,-0.1353
719,0.0,0.0,0.0,0.0,0.0,0.0,0.1452,-0.9931,0.0016,0.7261,-0.6736,0.0263,-0.1356
720,0.0,0.0,0.0,0.0,0.0,0.0,0.1529,-1.0015,0.0033,0.7277,-0.6718,0.0258,-0.1362
721,0.0,0.0,0.0,0.0,0.0,0.0,0.1544,-0.9941,0.0007,0.7296,-0.6695,0.0260,-0.1371
722,0.0,0.0,0.0,0.0,0.0,0.0,0.1638,-0.9916,0.0100,0.7308,-0.6681,0.0247,-0.1374
723,0.0,0.0,0.0,0.0,0.0,0.0,0.1667,-0.9901,0.0096,0.7322,-0.6667,0.0234,-0.1374
724,0.0,0.0,0.0,0.0,0.0,0.0,0.1677,-0.9815,0.0128,0.7337,-0.6650,0.0227,-0.1373
725,0.0,0.0,0.0,0.0,0.0,0.0,0.1834,-0.9794,0.0187,0.7352,-0.6636,0.0211,-0.1365
726,0.0,0.0,0.0,0.0,0.0,0.0,0.1863,-0.9869,0.0238,0.7367,-0.6621,0.0194,-0.1359
727,0.0,0.0,0.0,0.0,0.0,0.0,0.1843,-0.9990,0.0225,0.7387,-0.6601,0.0187,-0.1354
728,0.0,0.0,0.0,0.0,0.0,0.0,0.1873,-0.9792,0.0265,0.7398,-0.6591,0.0168,-0.1340
729,0.0,0.0,0.0,0.0,0.0,0.0,0.1893,-0.9685,0.0273,0.7404,-0.6589,0.0140,-0.1325
730,0.0,0.0,0.0,0.0,0.0,0.0,0.1952,-0.9656,0.0260,0.7411,-0.6582,0.0121,-0.1317
731,0.0,0.0,0.0,0.0,0.0,0.0,0.2070,-0.9468,0.0300,0.7417,-0.6576,0.0102,-0.1315
732,0.0,0.0,0.0,0.0,0.0,0.0,0.2060,-0.9568,0.0219,0.7418,-0.6576,0.0078,-0.1311
733,0.0,0.0,0.0,0.0,0.0,0.0,0.2026,-0.9534,0.0245,0.7420,-0.6575,0.0058,-0.1310
734,0.0,0.0,0.0,0.0,0.0,0.0,0.2108,-0.9647,0.0246,0.7418,-0.6577,0.0036,-0.1311
735,0.0,0.0,0.0,0.0,0.0,0.0,0.2103,-0.9679,0.0197,0.7407,-0.6590,0.0006,-0.1311
736,0.0,0.0,0.0,0.0,0.0,0.0,0.2112,-0.9704,0.0201,0.7400,-0.6596,-0.0013,-0.1317
737,0.0,0.0,0.0,0.0,0.0,0.0,0.2142,-0.9682,0.0119,0.7395,-0.6600,-0.0023,-0.1326
738,0.0,0.0,0.0,0.0,0.0,0.0,0.2151,-0.9779,0.0116,0.7384,-0.6611,-0.0039,-0.1330
739,0.0,0.0,0.0,0.0,0.0,0.0,0.2092,-0.9790,0.0014,0.7371,-0.6624,-0.0051,-0.1334
740,0.0,0.0,0.0,0.0,0.0,0.0,0.2136,-0.9745,-0.0014,0.7357,-0.6639,-0.0059,-0.1341
741,0.0,0.0,0.0,0.0,0.0,0.0,0.2096,-0.9803,-0.0016,0.7349,-0.6646,-0.0062,-0.1347
742,0.0,0.0,0.0,0.0,0.0,0.0,0.2027,-0.9907,-0.0092,0.7344,-0.6651,-0.0056,-0.1352
743,0.0,0.0,0.0,0.0,0.0,0.0,0.2067,-0.9798,-0.0157,0.7333,-0.6661,-0.0053,-0.1359
744,0.0,0.0,0.0,0.0,0.0,0.0,0.1959,-0.9817,-0.0158,0.7319,-0.6676,-0.0053,-0.1362
745,0.0,0.0,0.0,0.0,0.0,0.0,0.2041,-0.9934,-0.0171,0.7305,-0.6691,-0.0056,-0.1364
746,0.0,0.0,0.0,0.0,0.0,0.0,0.1958,-0.9897,-0.0223,0.7292,-0.6704,-0.0054,-0.1369
747,0.0,0.0,0.0,0.0,0.0,0.0,0.1973,-1.0007,-0.0159,0.7284,-0.6712,-0.0047,-0.1375
748,0.0,0.0,0.0,0.0,0.0,0.0,0.1992,-1.0015,-0.0222,0.7277,-0.6720,-0.0040,-0.1377
749,0.0,0.0,0.0,0.0,0.0,0.0,0.1948,-0.9973,-0.0294,0.7271,-0.6726,-0.0030,-0.1379
750,0.0,0.0,0.0,0.0,0.0,0.0,0.1948,-0.9969,-0.0269,0.7266,-0.6730,-0.0019,-0.1380
751,0.0,0.0,0.0,0.0,0.0,0.0,0.1928,-0.9978,-0.0289,0.7258,-0.6740,-0.0012,-0.1377
752,0.0,0.0,0.0,0.0,0.0,0.0,0.1885,-0.9927,-0.0317,0.7251,-0.6747,-0.0003,-0.1376
753,0.0,0.0,0.0,0.0,0.0,0.0,0.1880,-1.0019,-0.0223,0.7250,-0.6748,0.0009,-0.1375
754,0.0,0.0,0.0,0.0,0.0,0.0,0.1870,-0.9953,-0.0293,0.7247,-0.6753,0.0017,-0.1369
755,0.0,0.0,0.0,0.0,0.0,0.0,0.1909,-0.9876,-0.0266,0.7246,-0.6754,0.0030,-0.1368
756,0.0,0.0,0.0,0.0,0.0,0.0,0.1850,-0.9993,-0.0236,0.7250,-0.6750,0.0051,-0.1370
757,0.0,0.0,0.0,0.0,0.0,0.0,0.1835,-1.0031,-0.0267,0.7246,-0.6755,0.0063,-0.1363
758,0.0,0.0,0.0,0.0,0.0,0.0,0.1894,-0.9984,-0.0246,0.7247,-0.6756,0.0081,-0.1356
759,0.0,0.0,0.0,0.0,0.0,0.0,0.1894,-0.9974,-0.0245,0.7247,-0.6755,0.0105,-0.1352
760,0.0,0.0,0.0,0.0,0.0,0.0,0.1905,-0.9876,-0.0252,0.7246,-0.6758,0.0126,-0.1346
761,0.0,0.0,0.0,0.0,0.0,0.0,0.1851,-0.9836,-0.0265,0.7246,-0.6759,0.0154,-0.1340
762,0.0,0.0,0.0,0.0,0.0,0.0,0.1881,-0.9676,-0.0260,0.7247,-0.6757,0.0181,-0.1336
763,0.0,0.0,0.0,0.0,0.0,0.0,0.1827,-0.9758,-0.0268,0.7245,-0.6759,0.0205,-0.1336
764,0.0,0.0,0.0,0.0,0.0,0.0,0.1812,-0.9847,-0.0232,0.7245,-0.6759,0.0229,-0.1335
765,0.0,0.0,0.0,0.0,0.0,0.0,0.1680,-0.9876,-0.0199,0.7243,-0.6760,0.0250,-0.1334
766,0.0,0.0,0.0,0.0,0.0,0.0,0.1636,-0.9890,-0.0210,0.7243,-0.6759,0.0272,-0.1333
767,0.0,0.0,0.0,0.0,0.0,0.0,0.1641,-0.9935,-0.0182,0.7248,-0.6753,0.0295,-0.1333
768,0.0,0.0,0.0,0.0,0.0,0.0,0.1690,-0.9821,-0.0246,0.7252,-0.6748,0.0312,-0.1333
769,0.0,0.0,0.0,0.0,0.0,0.0,0.1662,-0.9775,-0.0167,0.7260,-0.6737,0.0329,-0.1341
770,0.0,0.0,0.0,0.0,0.0,0.0,0.1597,-0.9929,-0.0211,0.7265,-0.6729,0.0344,-0.1349
771,0.0,0.0,0.0,0.0,0.0,0.0,0.1607,-0.9931,-0.0163,0.7267,-0.6726,0.0350,-0.1353
772,0.0,0.0,0.0,0.0,0.0,0.0,0.1651,-0.9942,-0.0119,0.7269,-0.6723,0.0351,-0.1357
773,0.0,0.0,0.0,0.0,0.0,0.0,0.1700,-0.9924,-0.0094,0.7273,-0.6718,0.0350,-0.1360
774,0.0,0.0,0.0,0.0,0.0,0.0,0.1612,-0.9973,-0.0072,0.7277,-0.6712,0.0352,-0.1367
775,0.0,0.0,0.0,0.0,0.0,0.0,0.1587,-1.0006,-0.0087,0.7281,-0.6706,0.0354,-0.1371
776,0.0,0.0,0.0,0.0,0.0,0.0,0.1520,-0.9916,-0.0007,0.7289,-0.6698,0.0356,-0.1372
777,0.0,0.0,0.0,0.0,0.0,0.0,0.1516,-0.9879,0.0038,0.7293,-0.6694,0.0350,-0.1370
778,0.0,0.0,0.0,0.0,0.0,0.0,0.1521,-0.9797,0.0065,0.7300,-0.6688,0.0342,-0.1368
779,0.0,0.0,0.0,0.0,0.0,0.0,0.1639,-0.9705,0.0063,0.7311,-0.6675,0.0338,-0.1371
780,0.0,0.0,0.0,0.0,0.0,0.0,0.1643,-0.9697,-0.0010,0.7313,-0.6674,0.0323,-0.1372
781,0.0,0.0,0.0,0.0,0.0,0.0,0.1584,-0.9840,0.0039,0.7315,-0.6671,0.0309,-0.1374
782,0.0,0.0,0.0,0.0,0.0,0.0,0.1555,-0.9837,0.0102,0.7321,-0.6665,0.0298,-0.1374
783,0.0,0.0,0.0,0.0,0.0,0.0,0.1638,-0.9760,-0.0036,0.7321,-0.6666,0.0284,-0.1371
784,0.0,0.0,0.0,0.0,0.0,0.0,0.1687,-0.9742,0.0009,0.7319,-0.6670,0.0267,-0.1368
785,0.0,0.0,0.0,0.0,0.0,0.0,0.1637,-1.0032,0.0062,0.7320,-0.6671,0.0254,-0.1365
786,0.0,0.0,0.0,0.0,0.0,0.0,0.1539,-1.0014,-0.0001,0.7320,-0.6672,0.0250,-0.1361
787,0.0,0.0,0.0,0.0,0.0,0.0,0.1603,-0.9937,0.0002,0.7318,-0.6675,0.0249,-0.1356
788,0.0,0.0,0.0,0.0,0.0,0.0,0.1612,-0.9985,-0.0024,0.7314,-0.6680,0.0249,-0.1349
789,0.0,0.0,0.0,0.0,0.0,0.0,0.1534,-0.9967,-0.0086,0.7308,-0.6689,0.0251,-0.1336
790,0.0,0.0,0.0,0.0,0.0,0.0,0.1607,-0.9919,-0.0094,0.7305,-0.6695,0.0253,-0.1320
791,0.0,0.0,0.0,0.0,0.0,0.0,0.1539,-0.9946,-0.0134,0.7306,-0.6697,0.0259,-0.1304
792,0.0,0.0,0.0,0.0,0.0,0.0,0.1470,-0.9908,-0.0211,0.7304,-0.6703,0.0263,-0.1285
793,0.0,0.0,0.0,0.0,0.0,0.0,0.1481,-0.9820,-0.0232,0.7296,-0.6715,0.0257,-0.1267
794,0.0,0.0,0.0,0.0,0.0,0.0,0.1461,-0.9874,-0.0215,0.7292,-0.6723,0.0253,-0.1253
795,0.0,0.0,0.0,0.0,0.0,0.0,0.1417,-0.9952,-0.0217,0.7288,-0.6730,0.0252,-0.1239
796,0.0,0.0,0.0,0.0,0.0,0.0,0.1387,-0.9969,-0.0262,0.7277,-0.6745,0.0243,-0.1221
797,0.0,0.0,0.0,0.0,0.0,0.0,0.1432,-0.9822,-0.0301,0.7270,-0.6755,0.0238,-0.1207
798,0.0,0.0,0.0,0.0,0.0,0.0,0.1382,-0.9874,-0.0332,0.7264,-0.6763,0.0237,-0.1197
799,0.0,0.0,0.0,0.0,0.0,0.0,0.1348,-0.9913,-0.0323,0.7256,-0.6774,0.0235,-0.1188
800,0.0,0.0,0.0,0.0,0.0,0.0,0.1328,-0.9932,-0.0343,0.7246,-0.6787,0.0232,-0.1179
801,0.0,0.0,0.0,0.0,0.0,0.0,0.1363,-0.9897,-0.0376,0.7234,-0.6801,0.0228,-0.1167
802,0.0,0.0,0.0,0.0,0.0,0.0,0.1353,-0.9891,-0.0400,0.7221,-0.6817,0.0225,-0.1154
803,0.0,0.0,0.0,0.0,0.0,0.0,0.1333,-0.9850,-0.0452,0.7210,-0.6831,0.0223,-0.1142
804,0.0,0.0,0.0,0.0,0.0,0.0,0.1367,-0.9919,-0.0425,0.7202,-0.6842,0.0218,-0.1128
805,0.0,0.0,0.0,0.0,0.0,0.0,0.1464,-0.9945,-0.0421,0.7193,-0.6852,0.0217,-0.1120
806,0.0,0.0,0.0,0.0,0.0,0.0,0.1352,-0.9907,-0.0498,0.7183,-0.6864,0.0222,-0.1116
807,0.0,0.0,0.0,0.0,0.0,0.0,0.1317,-1.0053,-0.0483,0.7179,-0.6868,0.0231,-0.1114
808,0.0,0.0,0.0,0.0,0.0,0.0,0.1302,-1.0132,-0.0471,0.7175,-0.6871,0.0242,-0.1115
809,0.0,0.0,0.0,0.0,0.0,0.0,0.1356,-1.0147,-0.0481,0.7175,-0.6870,0.0254,-0.1117
810,0.0,0.0,0.0,0.0,0.0,0.0,0.1404,-1.0221,-0.0449,0.7181,-0.6864,0.0267,-0.1121
811,0.0,0.0,0.0,0.0,0.0,0.0,0.1409,-1.0246,-0.0435,0.7189,-0.6853,0.0283,-0.1128
812,0.0,0.0,0.0,0.0,0.0,0.0,0.1327,-1.0058,-0.0498,0.7196,-0.6844,0.0302,-0.1136
813,0.0,0.0,0.0,0.0,0.0,0.0,0.1263,-1.0137,-0.0452,0.7204,-0.6832,0.0324,-0.1145
814,0.0,0.0,0.0,0.0,0.0,0.0,0.1277,-1.0283,-0.0326,0.7213,-0.6821,0.0341,-0.1154
815,0.0,0.0,0.0,0.0,0.0,0.0,0.1278,-1.0227,-0.0265,0.7226,-0.6805,0.0358,-0.1165
816,0.0,0.0,0.0,0.0,0.0,0.0,0.1302,-1.0242,-0.0242,0.7238,-0.6789,0.0370,-0.1175
817,0.0,0.0,0.0,0.0,0.0,0.0,0.1226,-0.9993,-0.0253,0.7250,-0.6773,0.0381,-0.1187
818,0.0,0.0,0.0,0.0,0.0,0.0,0.1267,-0.9758,-0.0154,0.7268,-0.6751,0.0391,-0.1207
819,0.0,0.0,0.0,0.0,0.0,0.0,0.1198,-0.9867,-0.0085,0.7286,-0.6727,0.0394,-0.1230
820,0.0,0.0,0.0,0.0,0.0,0.0,0.1228,-0.9852,0.0042,0.7305,-0.6701,0.0390,-0.1252
821,0.0,0.0,0.0,0.0,0.0,0.0,0.1307,-0.9638,0.0044,0.7324,-0.6678,0.0377,-0.1275
822,0.0,0.0,0.0,0.0,0.0,0.0,0.1286,-0.9950,0.0175,0.7341,-0.6655,0.0355,-0.1299
823,0.0,0.0,0.0,0.0,0.0,0.0,0.1198,-1.0116,0.0189,0.7356,-0.6638,0.0336,-0.1314
824,0.0,0.0,0.0,0.0,0.0,0.0,0.1327,-0.9670,0.0252,0.7375,-0.6615,0.0317,-0.1325
825,0.0,0.0,0.0,0.0,0.0,0.0,0.1405,-0.9882,0.0309,0.7398,-0.6588,0.0304,-0.1330
826,0.0,0.0,0.0,0.0,0.0,0.0,0.1464,-0.9832,0.0379,0.7416,-0.6570,0.0287,-0.1328
827,0.0,0.0,0.0,0.0,0.0,0.0,0.1596,-0.9757,0.0425,0.7429,-0.6557,0.0265,-0.1319
828,0.0,0.0,0.0,0.0,0.0,0.0,0.1816,-0.9678,0.0511,0.7439,-0.6550,0.0231,-0.1303
829,0.0,0.0,0.0,0.0,0.0,0.0,0.1904,-0.9654,0.0498,0.7449,-0.6544,0.0199,-0.1285
830,0.0,0.0,0.0,0.0,0.0,0.0,0.1939,-0.9600,0.0475,0.7452,-0.6545,0.0162,-0.1264
831,0.0,0.0,0.0,0.0,0.0,0.0,0.2051,-0.9571,0.0467,0.7450,-0.6553,0.0122,-0.1242
832,0.0,0.0,0.0,0.0,0.0,0.0,0.2119,-0.9605,0.0427,0.7447,-0.6560,0.0086,-0.1226
833,0.0,0.0,0.0,0.0,0.0,0.0,0.2089,-0.9691,0.0376,0.7437,-0.6575,0.0050,-0.1210
834,0.0,0.0,0.0,0.0,0.0,0.0,0.2108,-0.9660,0.0338,0.7430,-0.6584,0.0025,-0.1200
835,0.0,0.0,0.0,0.0,0.0,0.0,0.2132,-0.9864,0.0307,0.7428,-0.6588,0.0012,-0.1195
836,0.0,0.0,0.0,0.0,0.0,0.0,0.2121,-1.0049,0.0287,0.7425,-0.6592,0.0004,-0.1190
837,0.0,0.0,0.0,0.0,0.0,0.0,0.2057,-1.0076,0.0242,0.7424,-0.6595,0.0004,-0.1184
838,0.0,0.0,0.0,0.0,0.0,0.0,0.2072,-0.9978,0.0221,0.7425,-0.6593,0.0011,-0.1179
839,0.0,0.0,0.0,0.0,0.0,0.0,0.1999,-0.9925,0.0130,0.7424,-0.6595,0.0021,-0.1179
840,0.0,0.0,0.0,0.0,0.0,0.0,0.1989,-0.9930,0.0135,0.7419,-0.6601,0.0029,-0.1178
841,0.0,0.0,0.0,0.0,0.0,0.0,0.1945,-0.9910,0.0145,0.7414,-0.6606,0.0045,-0.1180
842,0.0,0.0,0.0,0.0,0.0,0.0,0.1901,-0.9854,0.0079,0.7406,-0.6613,0.0066,-0.1190
843,0.0,0.0,0.0,0.0,0.0,0.0,0.1843,-0.9740,0.0029,0.7395,-0.6622,0.0089,-0.1203
844,0.0,0.0,0.0,0.0,0.0,0.0,0.1795,-0.9601,-0.0016,0.7382,-0.6633,0.0111,-0.1223
845,0.0,0.0,0.0,0.0,0.0,0.0,0.1697,-0.9612,-0.0099,0.7365,-0.6645,0.0138,-0.1252
846,0.0,0.0,0.0,0.0,0.0,0.0,0.1574,-0.9751,-0.0128,0.7351,-0.6654,0.0175,-0.1290
847,0.0,0.0,0.0,0.0,0.0,0.0,0.1452,-0.9836,-0.0175,0.7334,-0.6663,0.0213,-0.1327
848,0.0,0.0,0.0,0.0,0.0,0.0,0.1397,-0.9918,-0.0207,0.7318,-0.6673,0.0251,-0.1362
849,0.0,0.0,0.0,0.0,0.0,0.0,0.1436,-0.9951,-0.0242,0.7303,-0.6679,0.0292,-0.1402
850,0.0,0.0,0.0,0.0,0.0,0.0,0.1372,-0.9927,-0.0353,0.7286,-0.6688,0.0333,-0.1444
851,0.0,0.0,0.0,0.0,0.0,0.0,0.1368,-0.9837,-0.0413,0.7262,-0.6705,0.0362,-0.1475
852,0.0,0.0,0.0,0.0,0.0,0.0,0.1417,-0.9699,-0.0457,0.7235,-0.6727,0.0382,-0.1505
853,0.0,0.0,0.0,0.0,0.0,0.0,0.1397,-0.9810,-0.0480,0.7210,-0.6745,0.0403,-0.1537
854,0.0,0.0,0.0,0.0,0.0,0.0,0.1333,-0.9918,-0.0450,0.7188,-0.6760,0.0424,-0.1567
855,0.0,0.0,0.0,0.0,0.0,0.0,0.1235,-1.0010,-0.0458,0.7163,-0.6780,0.0440,-0.1593
856,0.0,0.0,0.0,0.0,0.0,0.0,0.1205,-1.0049,-0.0459,0.7142,-0.6796,0.0455,-0.1614
857,0.0,0.0,0.0,0.0,0.0,0.0,0.1210,-1.0154,-0.0390,0.7129,-0.6804,0.0472,-0.1630
858,0.0,0.0,0.0,0.0,0.0,0.0,0.1258,-1.0261,-0.0383,0.7119,-0.6811,0.0488,-0.1640
859,0.0,0.0,0.0,0.0,0.0,0.0,0.1302,-1.0228,-0.0382,0.7111,-0.6819,0.0495,-0.1640
860,0.0,0.0,0.0,0.0,0.0,0.0,0.1336,-1.0253,-0.0363,0.7106,-0.6824,0.0500,-0.1636
861,0.0,0.0,0.0,0.0,0.0,0.0,0.1527,-1.0083,-0.0396,0.7106,-0.6825,0.0503,-0.1632
862,0.0,0.0,0.0,0.0,0.0,0.0,0.1561,-1.0138,-0.0354,0.7111,-0.6822,0.0504,-0.1625
863,0.0,0.0,0.0,0.0,0.0,0.0,0.1531,-1.0271,-0.0310,0.7117,-0.6819,0.0505,-0.1613
864,0.0,0.0,0.0,0.0,0.0,0.0,0.1551,-1.0326,-0.0277,0.7126,-0.6812,0.0504,-0.1597
865,0.0,0.0,0.0,0.0,0.0,0.0,0.1482,-1.0395,-0.0260,0.7144,-0.6798,0.0510,-0.1579
866,0.0,0.0,0.0,0.0,0.0,0.0,0.1463,-1.0254,-0.0236,0.7164,-0.6780,0.0517,-0.1561
867,0.0,0.0,0.0,0.0,0.0,0.0,0.1513,-1.0171,-0.0229,0.7184,-0.6763,0.0519,-0.1543
868,0.0,0.0,0.0,0.0,0.0,0.0,0.1569,-0.9743,-0.0230,0.7205,-0.6745,0.0513,-0.1526
869,0.0,0.0,0.0,0.0,0.0,0.0,0.1584,-0.9716,-0.0166,0.7224,-0.6729,0.0501,-0.1511
870,0.0,0.0,0.0,0.0,0.0,0.0,0.1643,-0.9652,-0.0066,0.7242,-0.6714,0.0482,-0.1496
871,0.0,0.0,0.0,0.0,0.0,0.0,0.1712,-0.9546,-0.0019,0.7256,-0.6704,0.0454,-0.1482
872,0.0,0.0,0.0,0.0,0.0,0.0,0.1772,-0.9466,0.0032,0.7267,-0.6698,0.0415,-0.1469
873,0.0,0.0,0.0,0.0,0.0,0.0,0.1820,-0.9580,0.0087,0.7276,-0.6693,0.0375,-0.1460
874,0.0,0.0,0.0,0.0,0.0,0.0,0.1976,-0.9613,0.0150,0.7283,-0.6688,0.0335,-0.1454
875,0.0,0.0,0.0,0.0,0.0,0.0,0.1977,-0.9524,0.0109,0.7289,-0.6684,0.0297,-0.1450
876,0.0,0.0,0.0,0.0,0.0,0.0,0.2038,-0.9848,0.0167,0.7295,-0.6680,0.0263,-0.1447
877,0.0,0.0,0.0,0.0,0.0,0.0,0.2014,-0.9882,0.0156,0.7296,-0.6681,0.0231,-0.1442
878,0.0,0.0,0.0,0.0,0.0,0.0,0.2122,-0.9759,0.0107,0.7299,-0.6679,0.0207,-0.1439
879,0.0,0.0,0.0,0.0,0.0,0.0,0.2273,-0.9686,0.0066,0.7302,-0.6677,0.0183,-0.1437
880,0.0,0.0,0.0,0.0,0.0,0.0,0.2258,-0.9719,0.0046,0.7304,-0.6676,0.0162,-0.1437
881,0.0,0.0,0.0,0.0,0.0,0.0,0.2258,-0.9772,0.0025,0.7304,-0.6676,0.0144,-0.1437
882,0.0,0.0,0.0,0.0,0.0,0.0,0.2209,-0.9765,-0.0034,0.7300,-0.6680,0.0130,-0.1439
883,0.0,0.0,0.0,0.0,0.0,0.0,0.2179,-0.9808,-0.0050,0.7295,-0.6685,0.0118,-0.1441
884,0.0,0.0,0.0,0.0,0.0,0.0,0.2154,-0.9859,-0.0119,0.7288,-0.6692,0.0110,-0.1444
885,0.0,0.0,0.0,0.0,0.0,0.0,0.2129,-0.9932,-0.0102,0.7281,-0.6699,0.0104,-0.1448
886,0.0,0.0,0.0,0.0,0.0,0.0,0.2076,-0.9916,-0.0136,0.7278,-0.6702,0.0107,-0.1454
887,0.0,0.0,0.0,0.0,0.0,0.0,0.2037,-0.9886,-0.0150,0.7279,-0.6702,0.0132,-0.1442
888,0.0,0.0,0.0,0.0,0.0,0.0,0.1959,-0.9849,-0.0202,0.7277,-0.6703,0.0141,-0.1448
889,0.0,0.0,0.0,0.0,0.0,0.0,0.1944,-0.9874,-0.0179,0.7270,-0.6709,0.0146,-0.1452
890,0.0,0.0,0.0,0.0,0.0,0.0,0.1886,-0.9805,-0.0196,0.7260,-0.6721,0.0146,-0.1451
891,0.0,0.0,0.0,0.0,0.0,0.0,0.1852,-0.9819,-0.0197,0.7254,-0.6726,0.0153,-0.1454
892,0.0,0.0,0.0,0.0,0.0,0.0,0.1856,-0.9845,-0.0159,0.7249,-0.6730,0.0162,-0.1459
893,0.0,0.0,0.0,0.0,0.0,0.0,0.1832,-0.9861,-0.0130,0.7245,-0.6733,0.0171,-0.1463
894,0.0,0.0,0.0,0.0,0.0,0.0,0.1798,-0.9864,-0.0150,0.7244,-0.6732,0.0186,-0.1472
895,0.0,0.0,0.0,0.0,0.0,0.0,0.1778,-0.9853,-0.0184,0.7237,-0.6738,0.0195,-0.1479
896,0.0,0.0,0.0,0.0,0.0,0.0,0.1794,-0.9751,-0.0180,0.7228,-0.6746,0.0203,-0.1489
897,0.0,0.0,0.0,0.0,0.0,0.0,0.1749,-0.9763,-0.0244,0.7221,-0.6748,0.0221,-0.1505
898,0.0,0.0,0.0,0.0,0.0,0.0,0.1735,-0.9743,-0.0263,0.7217,-0.6749,0.0241,-0.1519
899,0.0,0.0,0.0,0.0,0.0,0.0,0.1905,-0.9785,-0.0220,0.7209,-0.6753,0.0255,-0.1534
900,0.0,0.0,0.0,0.0,0.0,0.0,0.1885,-0.9856,-0.0266,0.7196,-0.6763,0.0267,-0.1548
901,0.0,0.0,0.0,0.0,0.0,0.0,0.1865,-0.9968,-0.0270,0.7184,-0.6773,0.0280,-0.1561
902,0.0,0.0,0.0,0.0,0.0,0.0,0.1806,-1.0036,-0.0262,0.7178,-0.6775,0.0302,-0.1577
903,0.0,0.0,0.0,0.0,0.0,0.0,0.1698,-1.0093,-0.0279,0.7170,-0.6779,0.0324,-0.1592
904,0.0,0.0,0.0,0.0,0.0,0.0,0.1684,-1.0098,-0.0279,0.7160,-0.6786,0.0345,-0.1599
905,0.0,0.0,0.0,0.0,0.0,0.0,0.1738,-1.0028,-0.0330,0.7157,-0.6787,0.0370,-0.1606
906,0.0,0.0,0.0,0.0,0.0,0.0,0.1777,-0.9895,-0.0389,0.7154,-0.6788,0.0393,-0.1611
907,0.0,0.0,0.0,0.0,0.0,0.0,0.1783,-0.9797,-0.0386,0.7151,-0.6789,0.0415,-0.1613
908,0.0,0.0,0.0,0.0,0.0,0.0,0.1797,-0.9822,-0.0396,0.7145,-0.6794,0.0431,-0.1614
909,0.0,0.0,0.0,0.0,0.0,0.0,0.1851,-0.9837,-0.0396,0.7136,-0.6803,0.0442,-0.1615
910,0.0,0.0,0.0,0.0,0.0,0.0,0.1866,-0.9783,-0.0409,0.7126,-0.6812,0.0449,-0.1615
911,0.0,0.0,0.0,0.0,0.0,0.0,0.1885,-0.9719,-0.0427,0.7117,-0.6821,0.0454,-0.1615
912,0.0,0.0,0.0,0.0,0.0,0.0,0.1856,-0.9667,-0.0488,0.7107,-0.6832,0.0459,-0.1612
913,0.0,0.0,0.0,0.0,0.0,0.0,0.1867,-0.9459,-0.0579,0.7090,-0.6851,0.0453,-0.1610
914,0.0,0.0,0.0,0.0,0.0,0.0,0.1971,-0.9206,-0.0599,0.7075,-0.6866,0.0442,-0.1617
915,0.0,0.0,0.0,0.0,0.0,0.0,0.1899,-0.9835,-0.0585,0.7063,-0.6876,0.0434,-0.1627
916,0.0,0.0,0.0,0.0,0.0,0.0,0.1826,-0.9713,-0.0567,0.7052,-0.6886,0.0426,-0.1637
917,0.0,0.0,0.0,0.0,0.0,0.0,0.1930,-0.9528,-0.0600,0.7039,-0.6897,0.0409,-0.1649
918,0.0,0.0,0.0,0.0,0.0,0.0,0.1986,-0.9784,-0.0656,0.7025,-0.6910,0.0387,-0.1659
919,0.0,0.0,0.0,0.0,0.0,0.0,0.2168,-0.9650,-0.0651,0.7011,-0.6922,0.0361,-0.1676
920,0.0,0.0,0.0,0.0,0.0,0.0,0.1923,-0.9698,-0.0736,0.6994,-0.6936,0.0337,-0.1692
921,0.0,0.0,0.0,0.0,0.0,0.0,0.1941,-1.0124,-0.0556,0.6982,-0.6947,0.0317,-0.1702
922,0.0,0.0,0.0,0.0,0.0,0.0,0.1926,-1.0262,-0.0511,0.6975,-0.6952,0.0301,-0.1709
923,0.0,0.0,0.0,0.0,0.0,0.0,0.1872,-1.0247,-0.0526,0.6976,-0.6950,0.0295,-0.1718
924,0.0,0.0,0.0,0.0,0.0,0.0,0.1964,-1.0306,-0.0532,0.6983,-0.6942,0.0295,-0.1722
925,0.0,0.0,0.0,0.0,0.0,0.0,0.1969,-1.0323,-0.0596,0.6990,-0.6935,0.0296,-0.1718
926,0.0,0.0,0.0,0.0,0.0,0.0,0.1974,-1.0289,-0.0595,0.7000,-0.6927,0.0303,-0.1710
927,0.0,0.0,0.0,0.0,0.0,0.0,0.2082,-1.0186,-0.0625,0.7011,-0.6918,0.0312,-0.1700
928,0.0,0.0,0.0,0.0,0.0,0.0,0.1989,-1.0172,-0.0605,0.7022,-0.6909,0.0323,-0.1689
929,0.0,0.0,0.0,0.0,0.0,0.0,0.1956,-1.0125,-0.0541,0.7038,-0.6896,0.0340,-0.1675
930,0.0,0.0,0.0,0.0,0.0,0.0,0.2020,-0.9918,-0.0602,0.7052,-0.6884,0.0356,-0.1658
931,0.0,0.0,0.0,0.0,0.0,0.0,0.2064,-0.9842,-0.0570,0.7060,-0.6880,0.0364,-0.1639
932,0.0,0.0,0.0,0.0,0.0,0.0,0.1977,-0.9958,-0.0443,0.7073,-0.6870,0.0377,-0.1625
933,0.0,0.0,0.0,0.0,0.0,0.0,0.1904,-0.9964,-0.0400,0.7090,-0.6854,0.0395,-0.1612
934,0.0,0.0,0.0,0.0,0.0,0.0,0.1792,-0.9817,-0.0391,0.7110,-0.6835,0.0421,-0.1600
935,0.0,0.0,0.0,0.0,0.0,0.0,0.1769,-0.9646,-0.0386,0.7123,-0.6823,0.0437,-0.1583
936,0.0,0.0,0.0,0.0,0.0,0.0,0.1803,-0.9626,-0.0400,0.7127,-0.6823,0.0446,-0.1566
937,0.0,0.0,0.0,0.0,0.0,0.0,0.1814,-0.9464,-0.0428,0.7131,-0.6821,0.0457,-0.1553
938,0.0,0.0,0.0,0.0,0.0,0.0,0.1937,-0.9220,-0.0478,0.7131,-0.6821,0.0462,-0.1549
939,0.0,0.0,0.0,0.0,0.0,0.0,0.2025,-0.9216,-0.0473,0.7126,-0.6826,0.0464,-0.1554
940,0.0,0.0,0.0,0.0,0.0,0.0,0.2068,-0.9255,-0.0489,0.7114,-0.6836,0.0458,-0.1566
941,0.0,0.0,0.0,0.0,0.0,0.0,0.2058,-0.9228,-0.0556,0.7099,-0.6849,0.0452,-0.1581
942,0.0,0.0,0.0,0.0,0.0,0.0,0.2131,-0.9378,-0.0609,0.7079,-0.6865,0.0442,-0.1601
943,0.0,0.0,0.0,0.0,0.0,0.0,0.2134,-0.9497,-0.0690,0.7054,-0.6886,0.0428,-0.1623
944,0.0,0.0,0.0,0.0,0.0,0.0,0.2134,-0.9459,-0.0781,0.7027,-0.6909,0.0416,-0.1651
945,0.0,0.0,0.0,0.0,0.0,0.0,0.2163,-0.9457,-0.0839,0.7001,-0.6927,0.0408,-0.1686
946,0.0,0.0,0.0,0.0,0.0,0.0,0.2192,-0.9475,-0.0893,0.6974,-0.6944,0.0403,-0.1725
947,0.0,0.0,0.0,0.0,0.0,0.0,0.2177,-0.9529,-0.0900,0.6947,-0.6961,0.0398,-0.1767
948,0.0,0.0,0.0,0.0,0.0,0.0,0.2196,-0.9670,-0.0919,0.6920,-0.6977,0.0393,-0.1807
949,0.0,0.0,0.0,0.0,0.0,0.0,0.2224,-0.9856,-0.0900,0.6894,-0.6993,0.0387,-0.1849
950,0.0,0.0,0.0,0.0,0.0,0.0,0.2228,-0.9971,-0.0943,0.6868,-0.7008,0.0382,-0.1891
951,0.0,0.0,0.0,0.0,0.0,0.0,0.2228,-0.9892,-0.0989,0.6845,-0.7019,0.0379,-0.1933
952,0.0,0.0,0.0,0.0,0.0,0.0,0.2208,-1.0107,-0.0952,0.6829,-0.7023,0.0382,-0.1973
953,0.0,0.0,0.0,0.0,0.0,0.0,0.2109,-1.0173,-0.1013,0.6813,-0.7029,0.0392,-0.2008
954,0.0,0.0,0.0,0.0,0.0,0.0,0.1997,-1.0260,-0.1011,0.6798,-0.7034,0.0405,-0.2038
955,0.0,0.0,0.0,0.0,0.0,0.0,0.1976,-1.0402,-0.0986,0.6787,-0.7037,0.0420,-0.2059
956,0.0,0.0,0.0,0.0,0.0,0.0,0.1982,-1.0369,-0.0966,0.6783,-0.7036,0.0441,-0.2071
957,0.0,0.0,0.0,0.0,0.0,0.0,0.1992,-1.0193,-0.1096,0.6783,-0.7033,0.0459,-0.2077
958,0.0,0.0,0.0,0.0,0.0,0.0,0.2066,-1.0037,-0.1125,0.6789,-0.7025,0.0477,-0.2079
959,0.0,0.0,0.0,0.0,0.0,0.0,0.2037,-0.9999,-0.1095,0.6799,-0.7014,0.0499,-0.2079
960,0.0,0.0,0.0,0.0,0.0,0.0,0.2033,-0.9997,-0.0988,0.6808,-0.7007,0.0514,-0.2071
961,0.0,0.0,0.0,0.0,0.0,0.0,0.2023,-0.9985,-0.0915,0.6822,-0.6997,0.0528,-0.2057
962,0.0,0.0,0.0,0.0,0.0,0.0,0.1990,-0.9948,-0.0846,0.6831,-0.6994,0.0535,-0.2036
963,0.0,0.0,0.0,0.0,0.0,0.0,0.2064,-0.9818,-0.0817,0.6844,-0.6987,0.0540,-0.2012
964,0.0,0.0,0.0,0.0,0.0,0.0,0.2084,-0.9747,-0.0786,0.6862,-0.6975,0.0547,-0.1993
965,0.0,0.0,0.0,0.0,0.0,0.0,0.2162,-0.9716,-0.0697,0.6876,-0.6966,0.0546,-0.1973
966,0.0,0.0,0.0,0.0,0.0,0.0,0.2216,-0.9684,-0.0657,0.6891,-0.6958,0.0538,-0.1952
967,0.0,0.0,0.0,0.0,0.0,0.0,0.2251,-0.9642,-0.0607,0.6909,-0.6945,0.0534,-0.1937
968,0.0,0.0,0.0,0.0,0.0,0.0,0.2300,-0.9584,-0.0605,0.6904,-0.6954,0.0524,-0.1926
969,0.0,0.0,0.0,0.0,0.0,0.0,0.2349,-0.9585,-0.0581,0.6906,-0.6956,0.0508,-0.1915
970,0.0,0.0,0.0,0.0,0.0,0.0,0.2456,-0.9653,-0.0476,0.6918,-0.6947,0.0495,-0.1906
971,0.0,0.0,0.0,0.0,0.0,0.0,0.2388,-0.9624,-0.0596,0.6932,-0.6935,0.0492,-0.1900
972,0.0,0.0,0.0,0.0,0.0,0.0,0.2408,-0.9556,-0.0609,0.6939,-0.6930,0.0484,-0.1896
973,0.0,0.0,0.0,0.0,0.0,0.0,0.2412,-0.9574,-0.0628,0.6939,-0.6931,0.0472,-0.1894
974,0.0,0.0,0.0,0.0,0.0,0.0,0.2407,-0.9683,-0.0588,0.6939,-0.6932,0.0460,-0.1892
975,0.0,0.0,0.0,0.0,0.0,0.0,0.2431,-0.9796,-0.0567,0.6947,-0.6924,0.0456,-0.1893
976,0.0,0.0,0.0,0.0,0.0,0.0,0.2391,-0.9808,-0.0651,0.6949,-0.6924,0.0449,-0.1892
977,0.0,0.0,0.0,0.0,0.0,0.0,0.2401,-0.9781,-0.0718,0.6946,-0.6928,0.0436,-0.1888
978,0.0,0.0,0.0,0.0,0.0,0.0,0.2386,-0.9834,-0.0729,0.6949,-0.6925,0.0431,-0.1887
979,0.0,0.0,0.0,0.0,0.0,0.0,0.2371,-0.9922,-0.0708,0.6951,-0.6926,0.0424,-0.1881
980,0.0,0.0,0.0,0.0,0.0,0.0,0.2308,-0.9879,-0.0668,0.6956,-0.6923,0.0423,-0.1872
981,0.0,0.0,0.0,0.0,0.0,0.0,0.2376,-0.9796,-0.0689,0.6961,-0.6921,0.0422,-0.1861
982,0.0,0.0,0.0,0.0,0.0,0.0,0.2392,-0.9663,-0.0733,0.6963,-0.6921,0.0423,-0.1856
983,0.0,0.0,0.0,0.0,0.0,0.0,0.2246,-0.9500,-0.0758,0.6961,-0.6924,0.0424,-0.1850
984,0.0,0.0,0.0,0.0,0.0,0.0,0.2287,-0.9247,-0.0740,0.6960,-0.6927,0.0419,-0.1844
985,0.0,0.0,0.0,0.0,0.0,0.0,0.2261,-0.9598,-0.0625,0.6969,-0.6918,0.0417,-0.1844
986,0.0,0.0,0.0,0.0,0.0,0.0,0.2149,-0.9523,-0.0647,0.6976,-0.6911,0.0417,-0.1844
987,0.0,0.0,0.0,0.0,0.0,0.0,0.2212,-0.9654,-0.0544,0.6984,-0.6902,0.0416,-0.1845
988,0.0,0.0,0.0,0.0,0.0,0.0,0.2187,-0.9796,-0.0525,0.6987,-0.6898,0.0414,-0.1849
989,0.0,0.0,0.0,0.0,0.0,0.0,0.2118,-0.9803,-0.0579,0.6987,-0.6898,0.0412,-0.1854
990,0.0,0.0,0.0,0.0,0.0,0.0,0.2138,-0.9788,-0.0593,0.6986,-0.6897,0.0409,-0.1860
991,0.0,0.0,0.0,0.0,0.0,0.0,0.2157,-0.9832,-0.0609,0.6982,-0.6900,0.0403,-0.1864
992,0.0,0.0,0.0,0.0,0.0,0.0,0.2137,-0.9893,-0.0669,0.6984,-0.6897,0.0403,-0.1871
993,0.0,0.0,0.0,0.0,0.0,0.0,0.2161,-0.9938,-0.0631,0.6989,-0.6889,0.0409,-0.1878
994,0.0,0.0,0.0,0.0,0.0,0.0,0.2205,-0.9943,-0.0626,0.6991,-0.6887,0.0410,-0.1878
995,0.0,0.0,0.0,0.0,0.0,0.0,0.2210,-0.9870,-0.0643,0.6992,-0.6886,0.0412,-0.1876
996,0.0,0.0,0.0,0.0,0.0,0.0,0.2186,-0.9920,-0.0592,0.6999,-0.6880,0.0420,-0.1874
997,0.0,0.0,0.0,0.0,0.0,0.0,0.2205,-0.9964,-0.0583,0.7003,-0.6878,0.0426,-0.1864
998,0.0,0.0,0.0,0.0,0.0,0.0,0.2259,-1.0029,-0.0571,0.7009,-0.6873,0.0438,-0.1853
999,0.0,0.0,0.0,0.0,0.0,0.0,0.2313,-0.9915,-0.0615,0.7014,-0.6871,0.0445,-0.1841
1000,0.0,0.0,0.0,0.0,0.0,0.0,0.2293,-0.9821,-0.0671,0.7018,-0.6871,0.0452,-0.1826
1001,0.0,0.0,0.0,0.0,0.0,0.0,0.2284,-0.9703,-0.0686,0.7023,-0.6868,0.0463,-0.1814
1002,0.0,0.0,0.0,0.0,0.0,0.0,0.2314,-0.9631,-0.0650,0.7029,-0.6864,0.0474,-0.1803
1003,0.0,0.0,0.0,0.0,0.0,0.0,0.2207,-0.9586,-0.0678,0.7034,-0.6859,0.0489,-0.1798
1004,0.0,0.0,0.0,0.0,0.0,0.0,0.2090,-0.9584,-0.0693,0.7038,-0.6856,0.0503,-0.1793
1005,0.0,0.0,0.0,0.0,0.0,0.0,0.2173,-0.9513,-0.0647,0.7037,-0.6858,0.0508,-0.1787
1006,0.0,0.0,0.0,0.0,0.0,0.0,0.2140,-0.9484,-0.0641,0.7030,-0.6866,0.0504,-0.1785
1007,0.0,0.0,0.0,0.0,0.0,0.0,0.2130,-0.9425,-0.0635,0.7024,-0.6871,0.0500,-0.1789
1008,0.0,0.0,0.0,0.0,0.0,0.0,0.2105,-0.9514,-0.0618,0.7021,-0.6871,0.0499,-0.1800
1009,0.0,0.0,0.0,0.0,0.0,0.0,0.2022,-0.9670,-0.0580,0.7021,-0.6869,0.0498,-0.1811
1010,0.0,0.0,0.0,0.0,0.0,0.0,0.1953,-0.9802,-0.0574,0.7017,-0.6870,0.0492,-0.1821
1011,0.0,0.0,0.0,0.0,0.0,0.0,0.1953,-0.9773,-0.0569,0.7010,-0.6877,0.0480,-0.1827
1012,0.0,0.0,0.0,0.0,0.0,0.0,0.2041,-0.9681,-0.0561,0.7005,-0.6881,0.0467,-0.1835
1013,0.0,0.0,0.0,0.0,0.0,0.0,0.2051,-0.9725,-0.0572,0.7000,-0.6884,0.0456,-0.1844
1014,0.0,0.0,0.0,0.0,0.0,0.0,0.2099,-0.9726,-0.0542,0.6996,-0.6885,0.0446,-0.1856
1015,0.0,0.0,0.0,0.0,0.0,0.0,0.2065,-0.9802,-0.0462,0.6993,-0.6887,0.0435,-0.1866
1016,0.0,0.0,0.0,0.0,0.0,0.0,0.1990,-1.0080,-0.0428,0.6993,-0.6884,0.0431,-0.1877
1017,0.0,0.0,0.0,0.0,0.0,0.0,0.1951,-1.0198,-0.0417,0.6994,-0.6882,0.0430,-0.1881
1018,0.0,0.0,0.0,0.0,0.0,0.0,0.2049,-1.0117,-0.0385,0.6996,-0.6880,0.0428,-0.1881
1019,0.0,0.0,0.0,0.0,0.0,0.0,0.2045,-0.9954,-0.0428,0.7002,-0.6873,0.0432,-0.1881
1020,0.0,0.0,0.0,0.0,0.0,0.0,0.2065,-0.9922,-0.0384,0.7009,-0.6867,0.0436,-0.1879
1021,0.0,0.0,0.0,0.0,0.0,0.0,0.2079,-0.9956,-0.0380,0.7016,-0.6861,0.0443,-0.1873
1022,0.0,0.0,0.0,0.0,0.0,0.0,0.2084,-0.9997,-0.0337,0.7025,-0.6855,0.0449,-0.1862
1023,0.0,0.0,0.0,0.0,0.0,0.0,0.2040,-1.0040,-0.0334,0.7033,-0.6849,0.0455,-0.1850
1024,0.0,0.0,0.0,0.0,0.0,0.0,0.1771,-1.0091,-0.0507,0.7038,-0.6850,0.0460,-0.1823
1025,0.0,0.0,0.0,0.0,0.0,0.0,0.0774,-1.0209,-0.0781,0.7032,-0.6886,0.0438,-0.1717
1026,0.0,0.0,0.0,0.0,0.0,0.0,0.2587,-0.9421,0.0090,0.7048,-0.6894,0.0377,-0.1628
1027,0.0,0.0,0.0,0.0,0.0,0.0,0.2920,-0.9924,-0.0094,0.7072,-0.6871,0.0357,-0.1625
1028,0.0,0.0,0.0,0.0,0.0,0.0,0.2850,-1.0349,0.0052,0.7090,-0.6849,0.0374,-0.1637
1029,0.0,0.0,0.0,0.0,0.0,0.0,0.1717,-1.0297,-0.0179,0.7101,-0.6826,0.0448,-0.1667
1030,0.0,0.0,0.0,0.0,0.0,0.0,0.1239,-1.0007,-0.0545,0.7106,-0.6816,0.0524,-0.1663
1031,0.0,0.0,0.0,0.0,0.0,0.0,0.1626,-0.9888,-0.0414,0.7117,-0.6807,0.0571,-0.1637
1032,0.0,0.0,0.0,0.0,0.0,0.0,0.1734,-0.9694,-0.0392,0.7126,-0.6803,0.0601,-0.1608
1033,0.0,0.0,0.0,0.0,0.0,0.0,0.1754,-0.9616,-0.0404,0.7132,-0.6801,0.0611,-0.1582
1034,0.0,0.0,0.0,0.0,0.0,0.0,0.1518,-0.9975,-0.0412,0.7142,-0.6795,0.0620,-0.1562
1035,0.0,0.0,0.0,0.0,0.0,0.0,0.1368,-0.9793,-0.0426,0.7154,-0.6785,0.0627,-0.1545
1036,0.0,0.0,0.0,0.0,0.0,0.0,0.1467,-0.9543,-0.0476,0.7165,-0.6779,0.0616,-0.1526
1037,0.0,0.0,0.0,0.0,0.0,0.0,0.1579,-0.9509,-0.0489,0.7169,-0.6782,0.0588,-0.1509
1038,0.0,0.0,0.0,0.0,0.0,0.0,0.1388,-0.9728,-0.0458,0.7169,-0.6786,0.0561,-0.1497
1039,0.0,0.0,0.0,0.0,0.0,0.0,0.1446,-0.9738,-0.0463,0.7168,-0.6793,0.0530,-0.1485
1040,0.0,0.0,0.0,0.0,0.0,0.0,0.1509,-0.9815,-0.0373,0.7168,-0.6797,0.0497,-0.1472
1041,0.0,0.0,0.0,0.0,0.0,0.0,0.1480,-0.9858,-0.0403,0.7175,-0.6795,0.0471,-0.1456
1042,0.0,0.0,0.0,0.0,0.0,0.0,0.1494,-0.9831,-0.0470,0.7186,-0.6789,0.0441,-0.1439
1043,0.0,0.0,0.0,0.0,0.0,0.0,0.1617,-0.9703,-0.0393,0.7196,-0.6785,0.0407,-0.1422
1044,0.0,0.0,0.0,0.0,0.0,0.0,0.1758,-0.9909,-0.0394,0.7203,-0.6784,0.0368,-0.1402
1045,0.0,0.0,0.0,0.0,0.0,0.0,0.1739,-0.9711,-0.0461,0.7206,-0.6787,0.0322,-0.1380
1046,0.0,0.0,0.0,0.0,0.0,0.0,0.1866,-0.9775,-0.0336,0.7218,-0.6779,0.0283,-0.1364
1047,0.0,0.0,0.0,0.0,0.0,0.0,0.1958,-0.9825,-0.0342,0.7224,-0.6778,0.0236,-0.1348
1048,0.0,0.0,0.0,0.0,0.0,0.0,0.2037,-0.9750,-0.0267,0.7223,-0.6785,0.0179,-0.1329
1049,0.0,0.0,0.0,0.0,0.0,0.0,0.2130,-0.9658,-0.0278,0.7224,-0.6787,0.0124,-0.1318
1050,0.0,0.0,0.0,0.0,0.0,0.0,0.2195,-0.9454,-0.0252,0.7224,-0.6787,0.0072,-0.1319
1051,0.0,0.0,0.0,0.0,0.0,0.0,0.2165,-0.9532,-0.0250,0.7224,-0.6787,0.0023,-0.1326
1052,0.0,0.0,0.0,0.0,0.0,0.0,0.2180,-0.9527,-0.0269,0.7220,-0.6788,-0.0017,-0.1340
1053,0.0,0.0,0.0,0.0,0.0,0.0,0.2244,-0.9473,-0.0286,0.7215,-0.6790,-0.0052,-0.1359
1054,0.0,0.0,0.0,0.0,0.0,0.0,0.2219,-0.9514,-0.0365,0.7202,-0.6799,-0.0082,-0.1380
1055,0.0,0.0,0.0,0.0,0.0,0.0,0.2267,-0.9580,-0.0430,0.7184,-0.6812,-0.0108,-0.1404
1056,0.0,0.0,0.0,0.0,0.0,0.0,0.2221,-0.9823,-0.0453,0.7167,-0.6824,-0.0120,-0.1429
1057,0.0,0.0,0.0,0.0,0.0,0.0,0.2143,-0.9874,-0.0518,0.7146,-0.6842,-0.0123,-0.1450
1058,0.0,0.0,0.0,0.0,0.0,0.0,0.2123,-0.9930,-0.0563,0.7121,-0.6865,-0.0119,-0.1464
1059,0.0,0.0,0.0,0.0,0.0,0.0,0.2122,-0.9963,-0.0593,0.7104,-0.6880,-0.0099,-0.1477
1060,0.0,0.0,0.0,0.0,0.0,0.0,0.2107,-1.0016,-0.0615,0.7094,-0.6889,-0.0070,-0.1488
1061,0.0,0.0,0.0,0.0,0.0,0.0,0.2034,-0.9980,-0.0667,0.7080,-0.6902,-0.0040,-0.1495
1062,0.0,0.0,0.0,0.0,0.0,0.0,0.1952,-0.9756,-0.0753,0.7065,-0.6918,-0.0009,-0.1496
1063,0.0,0.0,0.0,0.0,0.0,0.0,0.1888,-0.9922,-0.0758,0.7056,-0.6926,0.0029,-0.1495
1064,0.0,0.0,0.0,0.0,0.0,0.0,0.1862,-1.0194,-0.0776,0.7047,-0.6936,0.0067,-0.1493
1065,0.0,0.0,0.0,0.0,0.0,0.0,0.1837,-1.0153,-0.0824,0.7035,-0.6949,0.0100,-0.1486
1066,0.0,0.0,0.0,0.0,0.0,0.0,0.1857,-1.0045,-0.0840,0.7027,-0.6957,0.0130,-0.1481
1067,0.0,0.0,0.0,0.0,0.0,0.0,0.1715,-1.0159,-0.0752,0.7020,-0.6964,0.0161,-0.1480
1068,0.0,0.0,0.0,0.0,0.0,0.0,0.1520,-1.0347,-0.0657,0.7024,-0.6959,0.0201,-0.1481
1069,0.0,0.0,0.0,0.0,0.0,0.0,0.1398,-1.0263,-0.0654,0.7029,-0.6954,0.0243,-0.1476
1070,0.0,0.0,0.0,0.0,0.0,0.0,0.1602,-0.9620,-0.0667,0.7033,-0.6949,0.0271,-0.1475
1071,0.0,0.0,0.0,0.0,0.0,0.0,0.1580,-1.0082,-0.0575,0.7046,-0.6933,0.0302,-0.1481
1072,0.0,0.0,0.0,0.0,0.0,0.0,0.1414,-1.0118,-0.0475,0.7058,-0.6920,0.0329,-0.1478
1073,0.0,0.0,0.0,0.0,0.0,0.0,0.1498,-0.9928,-0.0478,0.7071,-0.6908,0.0354,-0.1470
1074,0.0,0.0,0.0,0.0,0.0,0.0,0.1581,-0.9918,-0.0502,0.7084,-0.6894,0.0374,-0.1466
1075,0.0,0.0,0.0,0.0,0.0,0.0,0.1591,-1.0003,-0.0446,0.7093,-0.6885,0.0386,-0.1459
1076,0.0,0.0,0.0,0.0,0.0,0.0,0.1543,-0.9910,-0.0449,0.7104,-0.6875,0.0400,-0.1455
1077,0.0,0.0,0.0,0.0,0.0,0.0,0.1582,-0.9754,-0.0473,0.7113,-0.6865,0.0407,-0.1454
1078,0.0,0.0,0.0,0.0,0.0,0.0,0.1549,-0.9726,-0.0418,0.7119,-0.6859,0.0407,-0.1452
1079,0.0,0.0,0.0,0.0,0.0,0.0,0.1572,-0.9920,-0.0308,0.7127,-0.6852,0.0403,-0.1451
1080,0.0,0.0,0.0,0.0,0.0,0.0,0.1499,-1.0043,-0.0264,0.7134,-0.6845,0.0396,-0.1445
1081,0.0,0.0,0.0,0.0,0.0,0.0,0.1544,-0.9770,-0.0274,0.7144,-0.6837,0.0388,-0.1438
1082,0.0,0.0,0.0,0.0,0.0,0.0,0.1681,-0.9791,-0.0260,0.7158,-0.6824,0.0379,-0.1433
1083,0.0,0.0,0.0,0.0,0.0,0.0,0.1705,-0.9822,-0.0232,0.7172,-0.6811,0.0369,-0.1429
1084,0.0,0.0,0.0,0.0,0.0,0.0,0.1724,-0.9920,-0.0225,0.7189,-0.6793,0.0363,-0.1427
1085,0.0,0.0,0.0,0.0,0.0,0.0,0.1753,-0.9956,-0.0173,0.7206,-0.6776,0.0355,-0.1426
1086,0.0,0.0,0.0,0.0,0.0,0.0,0.1798,-0.9875,-0.0116,0.7221,-0.6760,0.0342,-0.1427
1087,0.0,0.0,0.0,0.0,0.0,0.0,0.1744,-0.9940,-0.0085,0.7238,-0.6742,0.0331,-0.1431
1088,0.0,0.0,0.0,0.0,0.0,0.0,0.1760,-0.9758,-0.0103,0.7249,-0.6731,0.0314,-0.1433
1089,0.0,0.0,0.0,0.0,0.0,0.0,0.1913,-0.9402,-0.0140,0.7253,-0.6727,0.0290,-0.1431
1090,0.0,0.0,0.0,0.0,0.0,0.0,0.2108,-0.9419,-0.0125,0.7256,-0.6724,0.0260,-0.1435
1091,0.0,0.0,0.0,0.0,0.0,0.0,0.2082,-0.9778,-0.0035,0.7255,-0.6726,0.0228,-0.1439
1092,0.0,0.0,0.0,0.0,0.0,0.0,0.2032,-1.0079,0.0077,0.7257,-0.6725,0.0202,-0.1438
1093,0.0,0.0,0.0,0.0,0.0,0.0,0.2027,-0.9970,0.0013,0.7256,-0.6728,0.0178,-0.1434
1094,0.0,0.0,0.0,0.0,0.0,0.0,0.2180,-0.9661,-0.0060,0.7249,-0.6737,0.0146,-0.1428
1095,0.0,0.0,0.0,0.0,0.0,0.0,0.2176,-0.9537,-0.0124,0.7241,-0.6747,0.0117,-0.1427
1096,0.0,0.0,0.0,0.0,0.0,0.0,0.2249,-0.9461,-0.0208,0.7230,-0.6759,0.0085,-0.1428
1097,0.0,0.0,0.0,0.0,0.0,0.0,0.2298,-0.9410,-0.0279,0.7216,-0.6773,0.0049,-0.1433
1098,0.0,0.0,0.0,0.0,0.0,0.0,0.2185,-0.9388,-0.0342,0.7199,-0.6790,0.0016,-0.1440
1099,0.0,0.0,0.0,0.0,0.0,0.0,0.2340,-0.9581,-0.0280,0.7186,-0.6801,-0.0019,-0.1451
1100,0.0,0.0,0.0,0.0,0.0,0.0,0.2245,-0.9935,-0.0330,0.7172,-0.6814,-0.0049,-0.1461
1101,0.0,0.0,0.0,0.0,0.0,0.0,0.2231,-0.9930,-0.0340,0.7159,-0.6825,-0.0074,-0.1470
1102,0.0,0.0,0.0,0.0,0.0,0.0,0.2259,-1.0040,-0.0387,0.7151,-0.6832,-0.0092,-0.1476
1103,0.0,0.0,0.0,0.0,0.0,0.0,0.2196,-0.9884,-0.0513,0.7142,-0.6841,-0.0108,-0.1480
1104,0.0,0.0,0.0,0.0,0.0,0.0,0.2226,-0.9773,-0.0626,0.7130,-0.6852,-0.0122,-0.1484
1105,0.0,0.0,0.0,0.0,0.0,0.0,0.2205,-0.9883,-0.0688,0.7120,-0.6860,-0.0132,-0.1491
1106,0.0,0.0,0.0,0.0,0.0,0.0,0.2235,-0.9794,-0.0733,0.7105,-0.6876,-0.0148,-0.1491
1107,0.0,0.0,0.0,0.0,0.0,0.0,0.2323,-0.9688,-0.0710,0.7089,-0.6891,-0.0168,-0.1493
1108,0.0,0.0,0.0,0.0,0.0,0.0,0.2343,-0.9777,-0.0674,0.7084,-0.6894,-0.0176,-0.1501
1109,0.0,0.0,0.0,0.0,0.0,0.0,0.2230,-0.9878,-0.0702,0.7078,-0.6899,-0.0183,-0.1506
1110,0.0,0.0,0.0,0.0,0.0,0.0,0.2293,-0.9895,-0.0649,0.7073,-0.6904,-0.0194,-0.1508
1111,0.0,0.0,0.0,0.0,0.0,0.0,0.2322,-0.9910,-0.0620,0.7072,-0.6904,-0.0202,-0.1510
1112,0.0,0.0,0.0,0.0,0.0,0.0,0.2289,-0.9763,-0.0645,0.7074,-0.6901,-0.0207,-0.1512
1113,0.0,0.0,0.0,0.0,0.0,0.0,0.2378,-0.9694,-0.0560,0.7081,-0.6893,-0.0210,-0.1517
1114,0.0,0.0,0.0,0.0,0.0,0.0,0.2363,-0.9678,-0.0574,0.7080,-0.6894,-0.0223,-0.1516
1115,0.0,0.0,0.0,0.0,0.0,0.0,0.2363,-0.9764,-0.0509,0.7077,-0.6897,-0.0236,-0.1513
1116,0.0,0.0,0.0,0.0,0.0,0.0,0.2334,-0.9759,-0.0484,0.7080,-0.6895,-0.0241,-0.1510
1117,0.0,0.0,0.0,0.0,0.0,0.0,0.2363,-0.9805,-0.0442,0.7083,-0.6893,-0.0246,-0.1501
1118,0.0,0.0,0.0,0.0,0.0,0.0,0.2368,-0.9746,-0.0455,0.7087,-0.6892,-0.0248,-0.1489
1119,0.0,0.0,0.0,0.0,0.0,0.0,0.2417,-0.9773,-0.0392,0.7090,-0.6892,-0.0250,-0.1474
1120,0.0,0.0,0.0,0.0,0.0,0.0,0.2422,-0.9703,-0.0434,0.7088,-0.6897,-0.0252,-0.1458
1121,0.0,0.0,0.0,0.0,0.0,0.0,0.2427,-0.9674,-0.0423,0.7089,-0.6899,-0.0249,-0.1443
1122,0.0,0.0,0.0,0.0,0.0,0.0,0.2299,-0.9784,-0.0475,0.7091,-0.6900,-0.0237,-0.1431
1123,0.0,0.0,0.0,0.0,0.0,0.0,0.2260,-0.9811,-0.0520,0.7088,-0.6906,-0.0226,-0.1417
1124,0.0,0.0,0.0,0.0,0.0,0.0,0.2270,-0.9852,-0.0458,0.7085,-0.6913,-0.0217,-0.1403
1125,0.0,0.0,0.0,0.0,0.0,0.0,0.2182,-0.9833,-0.0565,0.7079,-0.6922,-0.0205,-0.1391
1126,0.0,0.0,0.0,0.0,0.0,0.0,0.2118,-0.9793,-0.0598,0.7077,-0.6925,-0.0185,-0.1385
1127,0.0,0.0,0.0,0.0,0.0,0.0,0.2098,-0.9944,-0.0574,0.7079,-0.6925,-0.0163,-0.1379
1128,0.0,0.0,0.0,0.0,0.0,0.0,0.2001,-0.9815,-0.0638,0.7081,-0.6925,-0.0138,-0.1373
1129,0.0,0.0,0.0,0.0,0.0,0.0,0.2031,-0.9756,-0.0641,0.7082,-0.6925,-0.0115,-0.1370
1130,0.0,0.0,0.0,0.0,0.0,0.0,0.2088,-0.9884,-0.0625,0.7083,-0.6924,-0.0092,-0.1369
1131,0.0,0.0,0.0,0.0,0.0,0.0,0.2021,-0.9760,-0.0675,0.7083,-0.6925,-0.0071,-0.1369
1132,0.0,0.0,0.0,0.0,0.0,0.0,0.2005,-0.9906,-0.0665,0.7082,-0.6926,-0.0051,-0.1368
1133,0.0,0.0,0.0,0.0,0.0,0.0,0.1985,-0.9965,-0.0643,0.7086,-0.6922,-0.0028,-0.1366
1134,0.0,0.0,0.0,0.0,0.0,0.0,0.1922,-0.9890,-0.0689,0.7092,-0.6916,0.0002,-0.1369
1135,0.0,0.0,0.0,0.0,0.0,0.0,0.1859,-0.9808,-0.0784,0.7090,-0.6918,0.0023,-0.1367
1136,0.0,0.0,0.0,0.0,0.0,0.0,0.1933,-0.9753,-0.0719,0.7082,-0.6928,0.0031,-0.1359
1137,0.0,0.0,0.0,0.0,0.0,0.0,0.1834,-0.9923,-0.0710,0.7078,-0.6933,0.0047,-0.1352
1138,0.0,0.0,0.0,0.0,0.0,0.0,0.1855,-0.9707,-0.0756,0.7079,-0.6934,0.0066,-0.1345
1139,0.0,0.0,0.0,0.0,0.0,0.0,0.1914,-0.9684,-0.0731,0.7082,-0.6931,0.0083,-0.1339
1140,0.0,0.0,0.0,0.0,0.0,0.0,0.1937,-0.9921,-0.0646,0.7086,-0.6928,0.0099,-0.1336
1141,0.0,0.0,0.0,0.0,0.0,0.0,0.1872,-1.0193,-0.0529,0.7091,-0.6923,0.0119,-0.1332
1142,0.0,0.0,0.0,0.0,0.0,0.0,0.1917,-1.0001,-0.0591,0.7098,-0.6916,0.0140,-0.1327
1143,0.0,0.0,0.0,0.0,0.0,0.0,0.2046,-0.9668,-0.0643,0.7103,-0.6912,0.0156,-0.1323
1144,0.0,0.0,0.0,0.0,0.0,0.0,0.1928,-0.9796,-0.0589,0.7109,-0.6905,0.0177,-0.1323
1145,0.0,0.0,0.0,0.0,0.0,0.0,0.1898,-0.9924,-0.0559,0.7116,-0.6897,0.0201,-0.1325
1146,0.0,0.0,0.0,0.0,0.0,0.0,0.1884,-0.9792,-0.0560,0.7117,-0.6896,0.0217,-0.1322
1147,0.0,0.0,0.0,0.0,0.0,0.0,0.1900,-0.9621,-0.0574,0.7120,-0.6892,0.0230,-0.1325
1148,0.0,0.0,0.0,0.0,0.0,0.0,0.1856,-0.9645,-0.0565,0.7120,-0.6890,0.0241,-0.1331
1149,0.0,0.0,0.0,0.0,0.0,0.0,0.1822,-0.9645,-0.0560,0.7120,-0.6888,0.0250,-0.1338
1150,0.0,0.0,0.0,0.0,0.0,0.0,0.1753,-0.9779,-0.0492,0.7125,-0.6881,0.0263,-0.1348
1151,0.0,0.0,0.0,0.0,0.0,0.0,0.1733,-0.9937,-0.0429,0.7130,-0.6874,0.0275,-0.1356
1152,0.0,0.0,0.0,0.0,0.0,0.0,0.1694,-0.9976,-0.0426,0.7133,-0.6870,0.0285,-0.1361
1153,0.0,0.0,0.0,0.0,0.0,0.0,0.1683,-1.0023,-0.0456,0.7136,-0.6866,0.0295,-0.1361
1154,0.0,0.0,0.0,0.0,0.0,0.0,0.1649,-1.0032,-0.0481,0.7141,-0.6861,0.0309,-0.1358
1155,0.0,0.0,0.0,0.0,0.0,0.0,0.1596,-0.9958,-0.0489,0.7144,-0.6858,0.0319,-0.1350
1156,0.0,0.0,0.0,0.0,0.0,0.0,0.1552,-1.0008,-0.0437,0.7149,-0.6855,0.0328,-0.1342
1157,0.0,0.0,0.0,0.0,0.0,0.0,0.1586,-1.0005,-0.0408,0.7161,-0.6842,0.0339,-0.1336
1158,0.0,0.0,0.0,0.0,0.0,0.0,0.1597,-0.9723,-0.0501,0.7172,-0.6831,0.0341,-0.1332
1159,0.0,0.0,0.0,0.0,0.0,0.0,0.1642,-0.9603,-0.0468,0.7178,-0.6825,0.0336,-0.1334
1160,0.0,0.0,0.0,0.0,0.0,0.0,0.1622,-0.9644,-0.0416,0.7176,-0.6827,0.0323,-0.1340
1161,0.0,0.0,0.0,0.0,0.0,0.0,0.1630,-0.9957,-0.0387,0.7178,-0.6824,0.0312,-0.1348
1162,0.0,0.0,0.0,0.0,0.0,0.0,0.1666,-0.9604,-0.0443,0.7175,-0.6826,0.0294,-0.1355
1163,0.0,0.0,0.0,0.0,0.0,0.0,0.1772,-0.9994,-0.0329,0.7174,-0.6827,0.0273,-0.1361
1164,0.0,0.0,0.0,0.0,0.0,0.0,0.1742,-0.9967,-0.0401,0.7174,-0.6827,0.0257,-0.1366
1165,0.0,0.0,0.0,0.0,0.0,0.0,0.1832,-0.9699,-0.0431,0.7169,-0.6832,0.0233,-0.1372
1166,0.0,0.0,0.0,0.0,0.0,0.0,0.1930,-0.9641,-0.0429,0.7162,-0.6838,0.0205,-0.1379
1167,0.0,0.0,0.0,0.0,0.0,0.0,0.1906,-0.9573,-0.0412,0.7155,-0.6844,0.0180,-0.1389
1168,0.0,0.0,0.0,0.0,0.0,0.0,0.1852,-0.9599,-0.0360,0.7152,-0.6845,0.0159,-0.1403
1169,0.0,0.0,0.0,0.0,0.0,0.0,0.1847,-0.9623,-0.0356,0.7147,-0.6848,0.0139,-0.1418
1170,0.0,0.0,0.0,0.0,0.0,0.0,0.1905,-0.9692,-0.0348,0.7137,-0.6856,0.0115,-0.1431
1171,0.0,0.0,0.0,0.0,0.0,0.0,0.1875,-0.9789,-0.0366,0.7126,-0.6865,0.0097,-0.1443
1172,0.0,0.0,0.0,0.0,0.0,0.0,0.1964,-0.9612,-0.0437,0.7116,-0.6873,0.0085,-0.1456
1173,0.0,0.0,0.0,0.0,0.0,0.0,0.2114,-0.9731,-0.0538,0.7106,-0.6880,0.0076,-0.1471
1174,0.0,0.0,0.0,0.0,0.0,0.0,0.2129,-0.9680,-0.0604,0.7092,-0.6892,0.0066,-0.1486
1175,0.0,0.0,0.0,0.0,0.0,0.0,0.2143,-0.9703,-0.0653,0.7079,-0.6901,0.0061,-0.1503
1176,0.0,0.0,0.0,0.0,0.0,0.0,0.2103,-0.9933,-0.0612,0.7064,-0.6913,0.0058,-0.1518
1177,0.0,0.0,0.0,0.0,0.0,0.0,0.2010,-1.0016,-0.0596,0.7053,-0.6922,0.0064,-0.1529
1178,0.0,0.0,0.0,0.0,0.0,0.0,0.2009,-1.0058,-0.0645,0.7043,-0.6931,0.0075,-0.1534
1179,0.0,0.0,0.0,0.0,0.0,0.0,0.2023,-1.0142,-0.0755,0.7033,-0.6941,0.0089,-0.1536
1180,0.0,0.0,0.0,0.0,0.0,0.0,0.1994,-1.0081,-0.0811,0.7025,-0.6949,0.0106,-0.1534
1181,0.0,0.0,0.0,0.0,0.0,0.0,0.2043,-0.9939,-0.0840,0.7013,-0.6962,0.0120,-0.1527
1182,0.0,0.0,0.0,0.0,0.0,0.0,0.1999,-0.9983,-0.0847,0.7008,-0.6968,0.0139,-0.1523
1183,0.0,0.0,0.0,0.0,0.0,0.0,0.1960,-0.9908,-0.0874,0.7000,-0.6977,0.0153,-0.1517
1184,0.0,0.0,0.0,0.0,0.0,0.0,0.1922,-0.9854,-0.0892,0.6991,-0.6987,0.0166,-0.1512
1185,0.0,0.0,0.0,0.0,0.0,0.0,0.1893,-0.9784,-0.0909,0.6983,-0.6996,0.0179,-0.1507
1186,0.0,0.0,0.0,0.0,0.0,0.0,0.1942,-0.9681,-0.0959,0.6975,-0.7003,0.0189,-0.1505
1187,0.0,0.0,0.0,0.0,0.0,0.0,0.1908,-0.9651,-0.0973,0.6968,-0.7009,0.0201,-0.1509
1188,0.0,0.0,0.0,0.0,0.0,0.0,0.1839,-0.9743,-0.0952,0.6960,-0.7016,0.0211,-0.1514
1189,0.0,0.0,0.0,0.0,0.0,0.0,0.1771,-0.9681,-0.0916,0.6950,-0.7023,0.0221,-0.1523
1190,0.0,0.0,0.0,0.0,0.0,0.0,0.1692,-1.0060,-0.0783,0.6948,-0.7024,0.0230,-0.1528
1191,0.0,0.0,0.0,0.0,0.0,0.0,0.1613,-1.0141,-0.0819,0.6944,-0.7028,0.0238,-0.1526
1192,0.0,0.0,0.0,0.0,0.0,0.0,0.1667,-1.0194,-0.0734,0.6944,-0.7029,0.0245,-0.1522
1193,0.0,0.0,0.0,0.0,0.0,0.0,0.1652,-1.0192,-0.0782,0.6957,-0.7017,0.0262,-0.1516
1194,0.0,0.0,0.0,0.0,0.0,0.0,0.1711,-1.0033,-0.0869,0.6970,-0.7005,0.0278,-0.1506
1195,0.0,0.0,0.0,0.0,0.0,0.0,0.1814,-0.9874,-0.0854,0.6983,-0.6994,0.0287,-0.1498
1196,0.0,0.0,0.0,0.0,0.0,0.0,0.1819,-0.9819,-0.0872,0.6991,-0.6987,0.0287,-0.1488
1197,0.0,0.0,0.0,0.0,0.0,0.0,0.1918,-0.9705,-0.0814,0.6996,-0.6985,0.0276,-0.1477
1198,0.0,0.0,0.0,0.0,0.0,0.0,0.1933,-0.9607,-0.0835,0.7006,-0.6976,0.0270,-0.1477
1199,0.0,0.0,0.0,0.0,0.0,0.0,0.1894,-0.9588,-0.0811,0.7014,-0.6967,0.0263,-0.1481
1200,0.0,0.0,0.0,0.0,0.0,0.0,0.1958,-0.9685,-0.0711,0.7020,-0.6960,0.0253,-0.1486
1201,0.0,0.0,0.0,0.0,0.0,0.0,0.1986,-0.9784,-0.0671,0.7027,-0.6953,0.0242,-0.1489
1202,0.0,0.0,0.0,0.0,0.0,0.0,0.2079,-0.9746,-0.0655,0.7031,-0.6949,0.0227,-0.1492
1203,0.0,0.0,0.0,0.0,0.0,0.0,0.2152,-0.9796,-0.0637,0.7037,-0.6942,0.0214,-0.1497
1204,0.0,0.0,0.0,0.0,0.0,0.0,0.2167,-0.9787,-0.0641,0.7043,-0.6936,0.0204,-0.1501
1205,0.0,0.0,0.0,0.0,0.0,0.0,0.2196,-0.9767,-0.0635,0.7043,-0.6936,0.0188,-0.1503
1206,0.0,0.0,0.0,0.0,0.0,0.0,0.2177,-0.9762,-0.0660,0.7042,-0.6937,0.0174,-0.1504
1207,0.0,0.0,0.0,0.0,0.0,0.0,0.2186,-0.9785,-0.0675,0.7045,-0.6933,0.0167,-0.1508
1208,0.0,0.0,0.0,0.0,0.0,0.0,0.2211,-0.9757,-0.0664,0.7051,-0.6927,0.0165,-0.1511
1209,0.0,0.0,0.0,0.0,0.0,0.0,0.2177,-0.9716,-0.0697,0.7049,-0.6929,0.0158,-0.1511
1210,0.0,0.0,0.0,0.0,0.0,0.0,0.2187,-0.9696,-0.0716,0.7043,-0.6935,0.0146,-0.1508
1211,0.0,0.0,0.0,0.0,0.0,0.0,0.2191,-0.9726,-0.0712,0.7047,-0.6931,0.0144,-0.1511
1212,0.0,0.0,0.0,0.0,0.0,0.0,0.2201,-0.9741,-0.0703,0.7049,-0.6928,0.0141,-0.1515
1213,0.0,0.0,0.0,0.0,0.0,0.0,0.2206,-0.9739,-0.0746,0.7049,-0.6927,0.0139,-0.1519
1214,0.0,0.0,0.0,0.0,0.0,0.0,0.2137,-0.9814,-0.0812,0.7044,-0.6933,0.0135,-0.1518
1215,0.0,0.0,0.0,0.0,0.0,0.0,0.2195,-0.9859,-0.0794,0.7039,-0.6938,0.0129,-0.1517
1216,0.0,0.0,0.0,0.0,0.0,0.0,0.2146,-1.0003,-0.0730,0.7044,-0.6932,0.0136,-0.1520
1217,0.0,0.0,0.0,0.0,0.0,0.0,0.2116,-1.0062,-0.0689,0.7053,-0.6922,0.0145,-0.1523
1218,0.0,0.0,0.0,0.0,0.0,0.0,0.2044,-0.9960,-0.0666,0.7064,-0.6911,0.0154,-0.1522
1219,0.0,0.0,0.0,0.0,0.0,0.0,0.1976,-0.9886,-0.0674,0.7073,-0.6903,0.0163,-0.1517
1220,0.0,0.0,0.0,0.0,0.0,0.0,0.2010,-0.9962,-0.0608,0.7085,-0.6892,0.0172,-0.1509
1221,0.0,0.0,0.0,0.0,0.0,0.0,0.2039,-0.9977,-0.0604,0.7093,-0.6886,0.0176,-0.1496
1222,0.0,0.0,0.0,0.0,0.0,0.0,0.1971,-0.9952,-0.0618,0.7098,-0.6884,0.0180,-0.1478
1223,0.0,0.0,0.0,0.0,0.0,0.0,0.1966,-1.0049,-0.0495,0.7111,-0.6875,0.0189,-0.1459
1224,0.0,0.0,0.0,0.0,0.0,0.0,0.1946,-1.0053,-0.0495,0.7126,-0.6864,0.0202,-0.1440
1225,0.0,0.0,0.0,0.0,0.0,0.0,0.1888,-1.0034,-0.0466,0.7145,-0.6847,0.0217,-0.1420
1226,0.0,0.0,0.0,0.0,0.0,0.0,0.1903,-1.0080,-0.0423,0.7162,-0.6834,0.0228,-0.1395
1227,0.0,0.0,0.0,0.0,0.0,0.0,0.1806,-0.9983,-0.0392,0.7173,-0.6828,0.0237,-0.1368
1228,0.0,0.0,0.0,0.0,0.0,0.0,0.1850,-1.0015,-0.0315,0.7186,-0.6820,0.0245,-0.1342
1229,0.0,0.0,0.0,0.0,0.0,0.0,0.1762,-1.0158,-0.0242,0.7203,-0.6805,0.0259,-0.1317
1230,0.0,0.0,0.0,0.0,0.0,0.0,0.1670,-1.0118,-0.0134,0.7223,-0.6789,0.0274,-0.1289
1231,0.0,0.0,0.0,0.0,0.0,0.0,0.1701,-0.9683,-0.0159,0.7238,-0.6779,0.0279,-0.1261
1232,0.0,0.0,0.0,0.0,0.0,0.0,0.1747,-0.9341,-0.0177,0.7250,-0.6770,0.0275,-0.1235
1233,0.0,0.0,0.0,0.0,0.0,0.0,0.1595,-0.9545,-0.0034,0.7266,-0.6756,0.0271,-0.1218
1234,0.0,0.0,0.0,0.0,0.0,0.0,0.1514,-0.9206,-0.0092,0.7279,-0.6745,0.0264,-0.1205
1235,0.0,0.0,0.0,0.0,0.0,0.0,0.1675,-0.9243,-0.0029,0.7289,-0.6736,0.0241,-0.1200
1236,0.0,0.0,0.0,0.0,0.0,0.0,0.1713,-0.9440,-0.0006,0.7297,-0.6728,0.0216,-0.1202
1237,0.0,0.0,0.0,0.0,0.0,0.0,0.1782,-0.9277,-0.0073,0.7302,-0.6721,0.0195,-0.1213
1238,0.0,0.0,0.0,0.0,0.0,0.0,0.1903,-0.9344,-0.0133,0.7299,-0.6722,0.0163,-0.1229
1239,0.0,0.0,0.0,0.0,0.0,0.0,0.1921,-0.9695,-0.0144,0.7291,-0.6730,0.0127,-0.1242
1240,0.0,0.0,0.0,0.0,0.0,0.0,0.1896,-0.9707,-0.0217,0.7282,-0.6737,0.0095,-0.1254
1241,0.0,0.0,0.0,0.0,0.0,0.0,0.1948,-0.9915,-0.0258,0.7267,-0.6752,0.0057,-0.1262
1242,0.0,0.0,0.0,0.0,0.0,0.0,0.1971,-1.0208,-0.0257,0.7254,-0.6766,0.0019,-0.1266
1243,0.0,0.0,0.0,0.0,0.0,0.0,0.2172,-0.9939,-0.0345,0.7245,-0.6775,-0.0017,-0.1269
1244,0.0,0.0,0.0,0.0,0.0,0.0,0.2326,-0.9513,-0.0423,0.7235,-0.6784,-0.0056,-0.1277
1245,0.0,0.0,0.0,0.0,0.0,0.0,0.2305,-0.9748,-0.0377,0.7225,-0.6791,-0.0089,-0.1291
1246,0.0,0.0,0.0,0.0,0.0,0.0,0.2075,-0.9847,-0.0435,0.7212,-0.6804,-0.0117,-0.1300
1247,0.0,0.0,0.0,0.0,0.0,0.0,0.2011,-1.0048,-0.0247,0.7204,-0.6810,-0.0136,-0.1306
1248,0.0,0.0,0.0,0.0,0.0,0.0,0.2065,-0.9958,-0.0312,0.7200,-0.6814,-0.0146,-0.1307
1249,0.0,0.0,0.0,0.0,0.0,0.0,0.2212,-0.9748,-0.0373,0.7196,-0.6818,-0.0160,-0.1307
1250,0.0,0.0,0.0,0.0,0.0,0.0,0.2235,-1.0061,-0.0349,0.7192,-0.6822,-0.0173,-0.1307
1251,0.0,0.0,0.0,0.0,0.0,0.0,0.2172,-0.9963,-0.0351,0.7184,-0.6830,-0.0185,-0.1305
1252,0.0,0.0,0.0,0.0,0.0,0.0,0.2217,-0.9811,-0.0365,0.7176,-0.6839,-0.0196,-0.1304
1253,0.0,0.0,0.0,0.0,0.0,0.0,0.2217,-0.9831,-0.0370,0.7171,-0.6843,-0.0200,-0.1308
1254,0.0,0.0,0.0,0.0,0.0,0.0,0.2134,-0.9880,-0.0343,0.7175,-0.6837,-0.0190,-0.1316
1255,0.0,0.0,0.0,0.0,0.0,0.0,0.2036,-0.9830,-0.0357,0.7178,-0.6833,-0.0175,-0.1324
1256,0.0,0.0,0.0,0.0,0.0,0.0,0.1967,-0.9913,-0.0340,0.7176,-0.6834,-0.0162,-0.1329
1257,0.0,0.0,0.0,0.0,0.0,0.0,0.1923,-0.9941,-0.0351,0.7177,-0.6833,-0.0145,-0.1332
1258,0.0,0.0,0.0,0.0,0.0,0.0,0.1879,-1.0018,-0.0363,0.7175,-0.6835,-0.0127,-0.1334
1259,0.0,0.0,0.0,0.0,0.0,0.0,0.1869,-1.0010,-0.0339,0.7172,-0.6839,-0.0110,-0.1332
1260,0.0,0.0,0.0,0.0,0.0,0.0,0.1889,-1.0004,-0.0372,0.7177,-0.6835,-0.0085,-0.1329
1261,0.0,0.0,0.0,0.0,0.0,0.0,0.1806,-1.0043,-0.0355,0.7179,-0.6833,-0.0056,-0.1327
1262,0.0,0.0,0.0,0.0,0.0,0.0,0.1756,-1.0182,-0.0262,0.7181,-0.6834,-0.0025,-0.1316
1263,0.0,0.0,0.0,0.0,0.0,0.0,0.1746,-1.0262,-0.0216,0.7187,-0.6830,0.0013,-0.1303
1264,0.0,0.0,0.0,0.0,0.0,0.0,0.1693,-1.0178,-0.0238,0.7196,-0.6823,0.0056,-0.1288
1265,0.0,0.0,0.0,0.0,0.0,0.0,0.1808,-0.9758,-0.0278,0.7206,-0.6816,0.0098,-0.1271
1266,0.0,0.0,0.0,0.0,0.0,0.0,0.1901,-0.9657,-0.0250,0.7215,-0.6807,0.0140,-0.1260
1267,0.0,0.0,0.0,0.0,0.0,0.0,0.1862,-0.9590,-0.0340,0.7219,-0.6803,0.0178,-0.1254
1268,0.0,0.0,0.0,0.0,0.0,0.0,0.1832,-0.9667,-0.0357,0.7220,-0.6800,0.0216,-0.1260
1269,0.0,0.0,0.0,0.0,0.0,0.0,0.1680,-0.9743,-0.0384,0.7217,-0.6800,0.0257,-0.1269
1270,0.0,0.0,0.0,0.0,0.0,0.0,0.1706,-0.9436,-0.0515,0.7208,-0.6805,0.0291,-0.1282
1271,0.0,0.0,0.0,0.0,0.0,0.0,0.1642,-0.9646,-0.0493,0.7200,-0.6809,0.0326,-0.1302
1272,0.0,0.0,0.0,0.0,0.0,0.0,0.1676,-0.9636,-0.0522,0.7186,-0.6817,0.0353,-0.1328
1273,0.0,0.0,0.0,0.0,0.0,0.0,0.1700,-0.9530,-0.0625,0.7169,-0.6828,0.0375,-0.1358
1274,0.0,0.0,0.0,0.0,0.0,0.0,0.1700,-0.9592,-0.0646,0.7150,-0.6839,0.0394,-0.1397
1275,0.0,0.0,0.0,0.0,0.0,0.0,0.1699,-0.9697,-0.0718,0.7127,-0.6854,0.0406,-0.1439
1276,0.0,0.0,0.0,0.0,0.0,0.0,0.1708,-0.9809,-0.0716,0.7106,-0.6866,0.0415,-0.1481
1277,0.0,0.0,0.0,0.0,0.0,0.0,0.1767,-0.9709,-0.0679,0.7087,-0.6875,0.0422,-0.1525
1278,0.0,0.0,0.0,0.0,0.0,0.0,0.1763,-0.9574,-0.0762,0.7062,-0.6891,0.0418,-0.1569
1279,0.0,0.0,0.0,0.0,0.0,0.0,0.1846,-0.9496,-0.0779,0.7041,-0.6902,0.0415,-0.1618
1280,0.0,0.0,0.0,0.0,0.0,0.0,0.1846,-0.9526,-0.0755,0.7021,-0.6914,0.0392,-0.1657
1281,0.0,0.0,0.0,0.0,0.0,0.0,0.1870,-0.9600,-0.0748,0.6996,-0.6929,0.0376,-0.1704
1282,0.0,0.0,0.0,0.0,0.0,0.0,0.1953,-0.9669,-0.0750,0.6971,-0.6944,0.0357,-0.1751
1283,0.0,0.0,0.0,0.0,0.0,0.0,0.2036,-0.9650,-0.0739,0.6944,-0.6960,0.0332,-0.1796
1284,0.0,0.0,0.0,0.0,0.0,0.0,0.2080,-0.9646,-0.0744,0.6924,-0.6970,0.0309,-0.1839
1285,0.0,0.0,0.0,0.0,0.0,0.0,0.2118,-0.9769,-0.0713,0.6905,-0.6979,0.0286,-0.1878
1286,0.0,0.0,0.0,0.0,0.0,0.0,0.2181,-0.9901,-0.0703,0.6885,-0.6991,0.0262,-0.1912
1287,0.0,0.0,0.0,0.0,0.0,0.0,0.2190,-0.9884,-0.0794,0.6868,-0.7000,0.0243,-0.1943
1288,0.0,0.0,0.0,0.0,0.0,0.0,0.2247,-1.0058,-0.0834,0.6852,-0.7010,0.0226,-0.1964
1289,0.0,0.0,0.0,0.0,0.0,0.0,0.2353,-1.0349,-0.0789,0.6845,-0.7014,0.0217,-0.1977
1290,0.0,0.0,0.0,0.0,0.0,0.0,0.2416,-1.0452,-0.0763,0.6842,-0.7017,0.0207,-0.1977
1291,0.0,0.0,0.0,0.0,0.0,0.0,0.2451,-1.0369,-0.0775,0.6837,-0.7025,0.0194,-0.1966
1292,0.0,0.0,0.0,0.0,0.0,0.0,0.2510,-1.0228,-0.0799,0.6841,-0.7026,0.0191,-0.1952
1293,0.0,0.0,0.0,0.0,0.0,0.0,0.2535,-1.0072,-0.0784,0.6849,-0.7022,0.0194,-0.1936
1294,0.0,0.0,0.0,0.0,0.0,0.0,0.2468,-1.0000,-0.0744,0.6857,-0.7019,0.0195,-0.1915
1295,0.0,0.0,0.0,0.0,0.0,0.0,0.2376,-0.9912,-0.0722,0.6872,-0.7011,0.0203,-0.1893
1296,0.0,0.0,0.0,0.0,0.0,0.0,0.2372,-0.9776,-0.0703,0.6886,-0.7003,0.0209,-0.1872
1297,0.0,0.0,0.0,0.0,0.0,0.0,0.2294,-0.9791,-0.0675,0.6896,-0.6998,0.0212,-0.1849
1298,0.0,0.0,0.0,0.0,0.0,0.0,0.2304,-0.9723,-0.0668,0.6910,-0.6990,0.0218,-0.1828
1299,0.0,0.0,0.0,0.0,0.0,0.0,0.2348,-0.9610,-0.0698,0.6919,-0.6987,0.0219,-0.1808
1300,0.0,0.0,0.0,0.0,0.0,0.0,0.2324,-0.9466,-0.0771,0.6922,-0.6989,0.0214,-0.1787
1301,0.0,0.0,0.0,0.0,0.0,0.0,0.2403,-0.9398,-0.0788,0.6928,-0.6987,0.0211,-0.1774
1302,0.0,0.0,0.0,0.0,0.0,0.0,0.2466,-0.9462,-0.0790,0.6932,-0.6984,0.0205,-0.1766
1303,0.0,0.0,0.0,0.0,0.0,0.0,0.2436,-0.9536,-0.0748,0.6936,-0.6984,0.0194,-0.1758
1304,0.0,0.0,0.0,0.0,0.0,0.0,0.2495,-0.9577,-0.0711,0.6940,-0.6981,0.0184,-0.1752
1305,0.0,0.0,0.0,0.0,0.0,0.0,0.2421,-0.9594,-0.0775,0.6944,-0.6977,0.0179,-0.1750
1306,0.0,0.0,0.0,0.0,0.0,0.0,0.2435,-0.9667,-0.0782,0.6947,-0.6975,0.0174,-0.1747
1307,0.0,0.0,0.0,0.0,0.0,0.0,0.2464,-0.9731,-0.0764,0.6948,-0.6976,0.0169,-0.1741
1308,0.0,0.0,0.0,0.0,0.0,0.0,0.2450,-0.9725,-0.0779,0.6952,-0.6974,0.0169,-0.1736
1309,0.0,0.0,0.0,0.0,0.0,0.0,0.2459,-0.9734,-0.0818,0.6949,-0.6978,0.0162,-0.1727
1310,0.0,0.0,0.0,0.0,0.0,0.0,0.2430,-0.9703,-0.0846,0.6944,-0.6987,0.0152,-0.1715
1311,0.0,0.0,0.0,0.0,0.0,0.0,0.2337,-0.9772,-0.0824,0.6940,-0.6995,0.0146,-0.1702
1312,0.0,0.0,0.0,0.0,0.0,0.0,0.2283,-0.9899,-0.0790,0.6944,-0.6993,0.0150,-0.1689
1313,0.0,0.0,0.0,0.0,0.0,0.0,0.2195,-0.9819,-0.0841,0.6951,-0.6990,0.0155,-0.1675
1314,0.0,0.0,0.0,0.0,0.0,0.0,0.2102,-0.9852,-0.0833,0.6952,-0.6994,0.0150,-0.1655
1315,0.0,0.0,0.0,0.0,0.0,0.0,0.1989,-0.9938,-0.0875,0.6957,-0.6995,0.0147,-0.1630
1316,0.0,0.0,0.0,0.0,0.0,0.0,0.2774,-1.0006,-0.1053,0.6956,-0.7010,0.0094,-0.1568
1317,0.0,0.0,0.0,0.0,0.0,0.0,0.2293,-0.9914,-0.0659,0.6969,-0.7012,0.0055,-0.1507
1318,0.0,0.0,0.0,0.0,0.0,0.0,0.2220,-0.9815,-0.0681,0.6985,-0.7003,0.0034,-0.1475
1319,0.0,0.0,0.0,0.0,0.0,0.0,0.2030,-0.9777,-0.0729,0.6998,-0.6994,0.0018,-0.1456
1320,0.0,0.0,0.0,0.0,0.0,0.0,0.1736,-0.9964,-0.0765,0.7016,-0.6979,0.0010,-0.1439
1321,0.0,0.0,0.0,0.0,0.0,0.0,0.1638,-1.0108,-0.0794,0.7030,-0.6971,-0.0009,-0.1411
1322,0.0,0.0,0.0,0.0,0.0,0.0,0.1805,-0.9937,-0.0720,0.7044,-0.6964,-0.0045,-0.1371
1323,0.0,0.0,0.0,0.0,0.0,0.0,0.1903,-0.9813,-0.0657,0.7065,-0.6951,-0.0085,-0.1329
1324,0.0,0.0,0.0,0.0,0.0,0.0,0.2007,-0.9714,-0.0596,0.7082,-0.6941,-0.0136,-0.1284
1325,0.0,0.0,0.0,0.0,0.0,0.0,0.2202,-0.9675,-0.0501,0.7103,-0.6927,-0.0189,-0.1239
1326,0.0,0.0,0.0,0.0,0.0,0.0,0.2310,-0.9629,-0.0427,0.7127,-0.6908,-0.0242,-0.1198
1327,0.0,0.0,0.0,0.0,0.0,0.0,0.2409,-0.9549,-0.0371,0.7141,-0.6897,-0.0309,-0.1157
1328,0.0,0.0,0.0,0.0,0.0,0.0,0.2468,-0.9477,-0.0349,0.7149,-0.6892,-0.0379,-0.1119
1329,0.0,0.0,0.0,0.0,0.0,0.0,0.2492,-0.9404,-0.0361,0.7155,-0.6887,-0.0448,-0.1083
1330,0.0,0.0,0.0,0.0,0.0,0.0,0.2119,-0.9597,-0.0621,0.7148,-0.6898,-0.0524,-0.1024
1331,0.0,0.0,0.0,0.0,0.0,0.0,0.1110,-0.9564,-0.0614,0.7122,-0.6936,-0.0590,-0.0906
1332,0.0,0.0,0.0,0.0,0.0,0.0,0.3291,-0.9232,0.0089,0.7128,-0.6930,-0.0674,-0.0849
1333,0.0,0.0,0.0,0.0,0.0,0.0,0.3381,-1.0121,-0.0307,0.7137,-0.6915,-0.0731,-0.0840
1334,0.0,0.0,0.0,0.0,0.0,0.0,0.3149,-0.9694,-0.0314,0.7147,-0.6900,-0.0780,-0.0837
1335,0.0,0.0,0.0,0.0,0.0,0.0,0.2574,-0.9666,-0.0417,0.7160,-0.6882,-0.0794,-0.0860
1336,0.0,0.0,0.0,0.0,0.0,0.0,0.1709,-0.9570,-0.0733,0.7166,-0.6874,-0.0781,-0.0885
1337,0.0,0.0,0.0,0.0,0.0,0.0,0.2027,-0.9514,-0.0715,0.7159,-0.6880,-0.0797,-0.0887
1338,0.0,0.0,0.0,0.0,0.0,0.0,0.2310,-0.9483,-0.0699,0.7152,-0.6884,-0.0820,-0.0883
1339,0.0,0.0,0.0,0.0,0.0,0.0,0.2359,-0.9433,-0.0736,0.7143,-0.6891,-0.0844,-0.0878
1340,0.0,0.0,0.0,0.0,0.0,0.0,0.2471,-0.9467,-0.0780,0.7133,-0.6899,-0.0872,-0.0873
1341,0.0,0.0,0.0,0.0,0.0,0.0,0.2499,-0.9538,-0.0836,0.7120,-0.6909,-0.0899,-0.0871
1342,0.0,0.0,0.0,0.0,0.0,0.0,0.2533,-0.9561,-0.0890,0.7102,-0.6924,-0.0929,-0.0869
1343,0.0,0.0,0.0,0.0,0.0,0.0,0.2562,-0.9582,-0.0982,0.7086,-0.6938,-0.0952,-0.0872
1344,0.0,0.0,0.0,0.0,0.0,0.0,0.2640,-0.9566,-0.1045,0.7066,-0.6954,-0.0975,-0.0873
1345,0.0,0.0,0.0,0.0,0.0,0.0,0.2683,-0.9548,-0.1155,0.7050,-0.6967,-0.0993,-0.0878
1346,0.0,0.0,0.0,0.0,0.0,0.0,0.2683,-0.9542,-0.1184,0.7033,-0.6981,-0.1009,-0.0886
1347,0.0,0.0,0.0,0.0,0.0,0.0,0.2625,-0.9505,-0.1261,0.7010,-0.7000,-0.1029,-0.0895
1348,0.0,0.0,0.0,0.0,0.0,0.0,0.2556,-0.9542,-0.1282,0.6984,-0.7023,-0.1050,-0.0901
1349,0.0,0.0,0.0,0.0,0.0,0.0,0.2457,-0.9688,-0.1408,0.6953,-0.7050,-0.1070,-0.0898
1350,0.0,0.0,0.0,0.0,0.0,0.0,0.1898,-0.9917,-0.1694,0.6909,-0.7094,-0.1091,-0.0863
1351,0.0,0.0,0.0,0.0,0.0,0.0,0.1952,-0.9454,-0.1296,0.6873,-0.7135,-0.1107,-0.0790
1352,0.0,0.0,0.0,0.0,0.0,0.0,0.3435,-0.9505,-0.1166,0.6869,-0.7136,-0.1139,-0.0777
1353,0.0,0.0,0.0,0.0,0.0,0.0,0.3913,-1.0265,-0.1168,0.6871,-0.7129,-0.1144,-0.0805
1354,0.0,0.0,0.0,0.0,0.0,0.0,0.2540,-0.9627,-0.1513,0.6870,-0.7131,-0.1101,-0.0859
1355,0.0,0.0,0.0,0.0,0.0,0.0,0.1685,-0.9708,-0.1766,0.6862,-0.7142,-0.1045,-0.0903
1356,0.0,0.0,0.0,0.0,0.0,0.0,0.2197,-0.9865,-0.1599,0.6853,-0.7153,-0.1012,-0.0916
1357,0.0,0.0,0.0,0.0,0.0,0.0,0.2319,-0.9854,-0.1531,0.6844,-0.7166,-0.0987,-0.0916
1358,0.0,0.0,0.0,0.0,0.0,0.0,0.2295,-0.9840,-0.1496,0.6834,-0.7179,-0.0967,-0.0911
1359,0.0,0.0,0.0,0.0,0.0,0.0,0.2329,-0.9891,-0.1444,0.6829,-0.7187,-0.0944,-0.0905
1360,0.0,0.0,0.0,0.0,0.0,0.0,0.2241,-0.9815,-0.1491,0.6831,-0.7190,-0.0914,-0.0900
1361,0.0,0.0,0.0,0.0,0.0,0.0,0.2173,-0.9727,-0.1498,0.6823,-0.7201,-0.0908,-0.0877
1362,0.0,0.0,0.0,0.0,0.0,0.0,0.2183,-0.9768,-0.1431,0.6818,-0.7209,-0.0889,-0.0868
1363,0.0,0.0,0.0,0.0,0.0,0.0,0.2193,-0.9789,-0.1398,0.6821,-0.7210,-0.0866,-0.0863
1364,0.0,0.0,0.0,0.0,0.0,0.0,0.2115,-0.9759,-0.1393,0.6824,-0.7211,-0.0841,-0.0859
1365,0.0,0.0,0.0,0.0,0.0,0.0,0.2061,-0.9789,-0.1374,0.6831,-0.7207,-0.0809,-0.0855
1366,0.0,0.0,0.0,0.0,0.0,0.0,0.2027,-0.9835,-0.1308,0.6840,-0.7203,-0.0775,-0.0849
1367,0.0,0.0,0.0,0.0,0.0,0.0,0.1944,-0.9813,-0.1342,0.6847,-0.7201,-0.0742,-0.0844
1368,0.0,0.0,0.0,0.0,0.0,0.0,0.1857,-0.9768,-0.1365,0.6849,-0.7203,-0.0710,-0.0836
1369,0.0,0.0,0.0,0.0,0.0,0.0,0.1857,-0.9670,-0.1386,0.6849,-0.7207,-0.0681,-0.0828
1370,0.0,0.0,0.0,0.0,0.0,0.0,0.1814,-0.9559,-0.1455,0.6848,-0.7211,-0.0656,-0.0823
1371,0.0,0.0,0.0,0.0,0.0,0.0,0.1819,-0.9524,-0.1478,0.6846,-0.7215,-0.0635,-0.0820
1372,0.0,0.0,0.0,0.0,0.0,0.0,0.1833,-0.9494,-0.1511,0.6843,-0.7220,-0.0619,-0.0821
1373,0.0,0.0,0.0,0.0,0.0,0.0,0.1813,-0.9561,-0.1543,0.6834,-0.7228,-0.0612,-0.0823
1374,0.0,0.0,0.0,0.0,0.0,0.0,0.1861,-0.9684,-0.1522,0.6827,-0.7235,-0.0606,-0.0826
1375,0.0,0.0,0.0,0.0,0.0,0.0,0.1900,-0.9727,-0.1577,0.6827,-0.7235,-0.0596,-0.0834
1376,0.0,0.0,0.0,0.0,0.0,0.0,0.1948,-0.9735,-0.1625,0.6820,-0.7241,-0.0594,-0.0838
1377,0.0,0.0,0.0,0.0,0.0,0.0,0.2007,-0.9746,-0.1601,0.6811,-0.7249,-0.0597,-0.0840
1378,0.0,0.0,0.0,0.0,0.0,0.0,0.2065,-0.9756,-0.1616,0.6811,-0.7249,-0.0592,-0.0845
