,Position_X,Position_Y,Position_Z,Velocity_X,Velocity_Y,Velocity_Z,Acceleration_X,Acceleration_Y,Acceleration_Z,Quaterion_0,Quaterion_1,Quaterion_2,Quaterion_3
166,0.0,0.0,0.0,0.0,0.0,0.0,-0.4667,-0.8691,-0.0426,0.7163,-0.6463,0.2007,0.1703
167,0.0,0.0,0.0,0.0,0.0,0.0,-0.4476,-0.8467,-0.0598,0.7156,-0.6467,0.2015,0.1707
168,0.0,0.0,0.0,0.0,0.0,0.0,-0.3670,-0.8467,-0.0880,0.7142,-0.6488,0.1995,0.1704
169,0.0,0.0,0.0,0.0,0.0,0.0,-0.4085,-0.8710,-0.0712,0.7126,-0.6511,0.1985,0.1697
170,0.0,0.0,0.0,0.0,0.0,0.0,-0.5125,-0.9037,-0.0113,0.7126,-0.6510,0.1996,0.1690
171,0.0,0.0,0.0,0.0,0.0,0.0,-0.4998,-0.9069,-0.0421,0.7124,-0.6512,0.1997,0.1692
172,0.0,0.0,0.0,0.0,0.0,0.0,-0.4754,-0.8691,-0.0479,0.7123,-0.6509,0.2002,0.1698
173,0.0,0.0,0.0,0.0,0.0,0.0,-0.4563,-0.8914,-0.0562,0.7121,-0.6511,0.2002,0.1700
174,0.0,0.0,0.0,0.0,0.0,0.0,-0.4549,-0.9036,-0.0447,0.7122,-0.6512,0.1997,0.1700
175,0.0,0.0,0.0,0.0,0.0,0.0,-0.4481,-0.8993,-0.0393,0.7123,-0.6514,0.1986,0.1701
176,0.0,0.0,0.0,0.0,0.0,0.0,-0.4354,-0.8920,-0.0461,0.7124,-0.6517,0.1971,0.1701
177,0.0,0.0,0.0,0.0,0.0,0.0,-0.4422,-0.8871,-0.0397,0.7131,-0.6513,0.1964,0.1696
178,0.0,0.0,0.0,0.0,0.0,0.0,-0.4461,-0.8789,-0.0448,0.7136,-0.6509,0.1962,0.1692
179,0.0,0.0,0.0,0.0,0.0,0.0,-0.4403,-0.8569,-0.0605,0.7133,-0.6513,0.1960,0.1691
180,0.0,0.0,0.0,0.0,0.0,0.0,-0.4207,-0.8686,-0.0633,0.7126,-0.6526,0.1948,0.1685
181,0.0,0.0,0.0,0.0,0.0,0.0,-0.4265,-0.8909,-0.0597,0.7116,-0.6544,0.1933,0.1675
182,0.0,0.0,0.0,0.0,0.0,0.0,-0.4710,-0.9032,-0.0335,0.7112,-0.6551,0.1930,0.1666
183,0.0,0.0,0.0,0.0,0.0,0.0,-0.4622,-0.9196,-0.0435,0.7110,-0.6557,0.1924,0.1660
184,0.0,0.0,0.0,0.0,0.0,0.0,-0.4573,-0.9162,-0.0406,0.7111,-0.6558,0.1922,0.1653
185,0.0,0.0,0.0,0.0,0.0,0.0,-0.4578,-0.9167,-0.0415,0.7115,-0.6555,0.1922,0.1647
186,0.0,0.0,0.0,0.0,0.0,0.0,-0.4573,-0.9089,-0.0497,0.7115,-0.6558,0.1918,0.1643
187,0.0,0.0,0.0,0.0,0.0,0.0,-0.4598,-0.8982,-0.0466,0.7117,-0.6556,0.1920,0.1638
188,0.0,0.0,0.0,0.0,0.0,0.0,-0.4578,-0.8992,-0.0480,0.7122,-0.6550,0.1924,0.1634
189,0.0,0.0,0.0,0.0,0.0,0.0,-0.4524,-0.8953,-0.0480,0.7125,-0.6547,0.1927,0.1630
190,0.0,0.0,0.0,0.0,0.0,0.0,-0.4456,-0.8914,-0.0538,0.7126,-0.6547,0.1927,0.1626
191,0.0,0.0,0.0,0.0,0.0,0.0,-0.4417,-0.8866,-0.0542,0.7129,-0.6545,0.1927,0.1622
192,0.0,0.0,0.0,0.0,0.0,0.0,-0.4412,-0.8929,-0.0543,0.7129,-0.6546,0.1925,0.1619
193,0.0,0.0,0.0,0.0,0.0,0.0,-0.4412,-0.8973,-0.0525,0.7127,-0.6550,0.1921,0.1617
194,0.0,0.0,0.0,0.0,0.0,0.0,-0.4378,-0.8992,-0.0506,0.7126,-0.6553,0.1917,0.1615
195,0.0,0.0,0.0,0.0,0.0,0.0,-0.4358,-0.8987,-0.0535,0.7126,-0.6554,0.1916,0.1611
196,0.0,0.0,0.0,0.0,0.0,0.0,-0.4339,-0.8958,-0.0549,0.7127,-0.6553,0.1917,0.1608
197,0.0,0.0,0.0,0.0,0.0,0.0,-0.4290,-0.8948,-0.0569,0.7127,-0.6554,0.1916,0.1605
198,0.0,0.0,0.0,0.0,0.0,0.0,-0.4339,-0.8958,-0.0603,0.7126,-0.6557,0.1915,0.1602
199,0.0,0.0,0.0,0.0,0.0,0.0,-0.4431,-0.8938,-0.0602,0.7122,-0.6562,0.1913,0.1599
200,0.0,0.0,0.0,0.0,0.0,0.0,-0.4426,-0.8948,-0.0607,0.7119,-0.6566,0.1910,0.1598
201,0.0,0.0,0.0,0.0,0.0,0.0,-0.4475,-0.9026,-0.0584,0.7121,-0.6565,0.1909,0.1595
202,0.0,0.0,0.0,0.0,0.0,0.0,-0.4485,-0.8981,-0.0641,0.7121,-0.6566,0.1909,0.1593
203,0.0,0.0,0.0,0.0,0.0,0.0,-0.4060,-0.8651,-0.0847,0.7113,-0.6575,0.1903,0.1597
204,0.0,0.0,0.0,0.0,0.0,0.0,-0.3868,-0.9149,-0.1139,0.7105,-0.6588,0.1890,0.1592
205,0.0,0.0,0.0,0.0,0.0,0.0,-0.4465,-0.8860,-0.0741,0.7090,-0.6608,0.1879,0.1593
206,0.0,0.0,0.0,0.0,0.0,0.0,-0.4709,-0.9297,-0.0646,0.7089,-0.6609,0.1877,0.1595
207,0.0,0.0,0.0,0.0,0.0,0.0,-0.4611,-0.9214,-0.0679,0.7084,-0.6614,0.1869,0.1604
208,0.0,0.0,0.0,0.0,0.0,0.0,-0.4563,-0.9152,-0.0508,0.7083,-0.6613,0.1865,0.1617
209,0.0,0.0,0.0,0.0,0.0,0.0,-0.4255,-0.9298,-0.0556,0.7087,-0.6610,0.1854,0.1627
210,0.0,0.0,0.0,0.0,0.0,0.0,-0.4217,-0.9183,-0.0359,0.7095,-0.6602,0.1845,0.1633
211,0.0,0.0,0.0,0.0,0.0,0.0,-0.4104,-0.9090,-0.0499,0.7103,-0.6594,0.1837,0.1640
212,0.0,0.0,0.0,0.0,0.0,0.0,-0.4056,-0.8764,-0.0640,0.7107,-0.6590,0.1834,0.1646
213,0.0,0.0,0.0,0.0,0.0,0.0,-0.3933,-0.8875,-0.0686,0.7104,-0.6593,0.1827,0.1648
214,0.0,0.0,0.0,0.0,0.0,0.0,-0.3972,-0.8929,-0.0653,0.7100,-0.6601,0.1820,0.1644
215,0.0,0.0,0.0,0.0,0.0,0.0,-0.4197,-0.9012,-0.0556,0.7097,-0.6607,0.1818,0.1636
216,0.0,0.0,0.0,0.0,0.0,0.0,-0.4250,-0.9099,-0.0596,0.7093,-0.6614,0.1816,0.1626
217,0.0,0.0,0.0,0.0,0.0,0.0,-0.4397,-0.9021,-0.0560,0.7090,-0.6618,0.1819,0.1619
218,0.0,0.0,0.0,0.0,0.0,0.0,-0.4397,-0.8987,-0.0618,0.7085,-0.6624,0.1821,0.1613
219,0.0,0.0,0.0,0.0,0.0,0.0,-0.4363,-0.8928,-0.0641,0.7079,-0.6630,0.1825,0.1609
220,0.0,0.0,0.0,0.0,0.0,0.0,-0.4358,-0.8909,-0.0631,0.7072,-0.6638,0.1829,0.1607
221,0.0,0.0,0.0,0.0,0.0,0.0,-0.4378,-0.8997,-0.0594,0.7069,-0.6640,0.1835,0.1602
222,0.0,0.0,0.0,0.0,0.0,0.0,-0.4460,-0.9128,-0.0552,0.7070,-0.6638,0.1846,0.1595
223,0.0,0.0,0.0,0.0,0.0,0.0,-0.4426,-0.9098,-0.0595,0.7071,-0.6636,0.1853,0.1591
224,0.0,0.0,0.0,0.0,0.0,0.0,-0.4265,-0.9006,-0.0677,0.7068,-0.6640,0.1854,0.1588
225,0.0,0.0,0.0,0.0,0.0,0.0,-0.4280,-0.9010,-0.0750,0.7066,-0.6642,0.1858,0.1580
226,0.0,0.0,0.0,0.0,0.0,0.0,-0.4377,-0.8923,-0.0728,0.7065,-0.6643,0.1865,0.1573
227,0.0,0.0,0.0,0.0,0.0,0.0,-0.4436,-0.9020,-0.0744,0.7062,-0.6647,0.1871,0.1567
228,0.0,0.0,0.0,0.0,0.0,0.0,-0.4489,-0.9083,-0.0745,0.7061,-0.6647,0.1877,0.1563
229,0.0,0.0,0.0,0.0,0.0,0.0,-0.4431,-0.9044,-0.0784,0.7062,-0.6644,0.1884,0.1558
230,0.0,0.0,0.0,0.0,0.0,0.0,-0.4377,-0.9005,-0.0822,0.7061,-0.6645,0.1889,0.1554
231,0.0,0.0,0.0,0.0,0.0,0.0,-0.4416,-0.9058,-0.0813,0.7059,-0.6647,0.1894,0.1551
232,0.0,0.0,0.0,0.0,0.0,0.0,-0.4518,-0.9214,-0.0738,0.7059,-0.6645,0.1904,0.1546
233,0.0,0.0,0.0,0.0,0.0,0.0,-0.4675,-0.9316,-0.0627,0.7061,-0.6640,0.1918,0.1541
234,0.0,0.0,0.0,0.0,0.0,0.0,-0.4689,-0.9277,-0.0645,0.7067,-0.6629,0.1933,0.1539
235,0.0,0.0,0.0,0.0,0.0,0.0,-0.4436,-0.8931,-0.0962,0.7065,-0.6628,0.1949,0.1539
236,0.0,0.0,0.0,0.0,0.0,0.0,-0.3611,-0.8499,-0.1168,0.7056,-0.6637,0.1950,0.1535
237,0.0,0.0,0.0,0.0,0.0,0.0,-0.3575,-0.8910,-0.1404,0.7039,-0.6662,0.1942,0.1519
238,0.0,0.0,0.0,0.0,0.0,0.0,-0.4920,-0.8919,-0.0458,0.7043,-0.6654,0.1961,0.1507
239,0.0,0.0,0.0,0.0,0.0,0.0,-0.4548,-0.9077,-0.0920,0.7043,-0.6654,0.1965,0.1501
240,0.0,0.0,0.0,0.0,0.0,0.0,-0.4421,-0.8708,-0.0909,0.7037,-0.6659,0.1972,0.1497
241,0.0,0.0,0.0,0.0,0.0,0.0,-0.4470,-0.8981,-0.0782,0.7037,-0.6659,0.1977,0.1492
242,0.0,0.0,0.0,0.0,0.0,0.0,-0.4431,-0.9010,-0.0744,0.7035,-0.6662,0.1976,0.1488
243,0.0,0.0,0.0,0.0,0.0,0.0,-0.4441,-0.8860,-0.0707,0.7039,-0.6658,0.1978,0.1486
244,0.0,0.0,0.0,0.0,0.0,0.0,-0.4392,-0.8879,-0.0752,0.7044,-0.6653,0.1979,0.1485
245,0.0,0.0,0.0,0.0,0.0,0.0,-0.4412,-0.8864,-0.0742,0.7045,-0.6643,0.1999,0.1499
246,0.0,0.0,0.0,0.0,0.0,0.0,-0.4382,-0.8811,-0.0785,0.7046,-0.6641,0.1999,0.1502
247,0.0,0.0,0.0,0.0,0.0,0.0,-0.4329,-0.8801,-0.0863,0.7046,-0.6641,0.1996,0.1506
248,0.0,0.0,0.0,0.0,0.0,0.0,-0.4407,-0.8830,-0.0848,0.7044,-0.6642,0.1995,0.1510
249,0.0,0.0,0.0,0.0,0.0,0.0,-0.4368,-0.8922,-0.0816,0.7043,-0.6645,0.1990,0.1513
250,0.0,0.0,0.0,0.0,0.0,0.0,-0.4260,-0.8923,-0.0797,0.7040,-0.6649,0.1981,0.1517
251,0.0,0.0,0.0,0.0,0.0,0.0,-0.4236,-0.9005,-0.0779,0.7037,-0.6654,0.1972,0.1520
252,0.0,0.0,0.0,0.0,0.0,0.0,-0.4226,-0.8971,-0.0769,0.7035,-0.6659,0.1961,0.1523
253,0.0,0.0,0.0,0.0,0.0,0.0,-0.4162,-0.9049,-0.0858,0.7034,-0.6664,0.1948,0.1525
254,0.0,0.0,0.0,0.0,0.0,0.0,-0.4260,-0.9107,-0.0781,0.7033,-0.6668,0.1938,0.1523
255,0.0,0.0,0.0,0.0,0.0,0.0,-0.4240,-0.9166,-0.0787,0.7032,-0.6673,0.1928,0.1520
256,0.0,0.0,0.0,0.0,0.0,0.0,-0.4133,-0.9010,-0.0848,0.7030,-0.6680,0.1914,0.1515
257,0.0,0.0,0.0,0.0,0.0,0.0,-0.4099,-0.8971,-0.0872,0.7027,-0.6688,0.1900,0.1508
258,0.0,0.0,0.0,0.0,0.0,0.0,-0.4250,-0.9073,-0.0780,0.7022,-0.6699,0.1886,0.1500
259,0.0,0.0,0.0,0.0,0.0,0.0,-0.4411,-0.9214,-0.0685,0.7020,-0.6706,0.1877,0.1491
260,0.0,0.0,0.0,0.0,0.0,0.0,-0.4475,-0.9248,-0.0695,0.7025,-0.6704,0.1872,0.1485
261,0.0,0.0,0.0,0.0,0.0,0.0,-0.4392,-0.9190,-0.0757,0.7033,-0.6697,0.1870,0.1481
262,0.0,0.0,0.0,0.0,0.0,0.0,-0.4235,-0.9063,-0.0834,0.7037,-0.6695,0.1863,0.1479
263,0.0,0.0,0.0,0.0,0.0,0.0,-0.4152,-0.8971,-0.0896,0.7037,-0.6697,0.1856,0.1478
264,0.0,0.0,0.0,0.0,0.0,0.0,-0.4113,-0.8956,-0.0906,0.7034,-0.6702,0.1848,0.1477
265,0.0,0.0,0.0,0.0,0.0,0.0,-0.4040,-0.8956,-0.0940,0.7032,-0.6708,0.1838,0.1477
266,0.0,0.0,0.0,0.0,0.0,0.0,-0.3987,-0.8917,-0.0930,0.7030,-0.6713,0.1828,0.1474
267,0.0,0.0,0.0,0.0,0.0,0.0,-0.4025,-0.8961,-0.0940,0.7024,-0.6723,0.1815,0.1471
268,0.0,0.0,0.0,0.0,0.0,0.0,-0.4074,-0.9049,-0.0902,0.7017,-0.6735,0.1802,0.1469
269,0.0,0.0,0.0,0.0,0.0,0.0,-0.4123,-0.9088,-0.0835,0.7011,-0.6745,0.1789,0.1468
270,0.0,0.0,0.0,0.0,0.0,0.0,-0.4138,-0.9229,-0.0793,0.7006,-0.6753,0.1777,0.1469
271,0.0,0.0,0.0,0.0,0.0,0.0,-0.4240,-0.9345,-0.0756,0.7005,-0.6756,0.1769,0.1466
272,0.0,0.0,0.0,0.0,0.0,0.0,-0.4157,-0.9277,-0.0809,0.7006,-0.6756,0.1764,0.1468
273,0.0,0.0,0.0,0.0,0.0,0.0,-0.4030,-0.9160,-0.0953,0.7005,-0.6759,0.1761,0.1469
274,0.0,0.0,0.0,0.0,0.0,0.0,-0.4069,-0.9058,-0.0903,0.7002,-0.6762,0.1761,0.1466
275,0.0,0.0,0.0,0.0,0.0,0.0,-0.4223,-1.0389,-0.0843,0.7008,-0.6759,0.1755,0.1458
276,0.0,0.0,0.0,0.0,0.0,0.0,-0.3927,-0.9475,-0.1062,0.7012,-0.6755,0.1754,0.1457
277,0.0,0.0,0.0,0.0,0.0,0.0,-0.3786,-0.9155,-0.1115,0.7006,-0.6761,0.1748,0.1466
278,0.0,0.0,0.0,0.0,0.0,0.0,-0.3927,-0.9092,-0.1040,0.6999,-0.6768,0.1745,0.1470
279,0.0,0.0,0.0,0.0,0.0,0.0,-0.4094,-0.9073,-0.0893,0.7000,-0.6766,0.1750,0.1468
280,0.0,0.0,0.0,0.0,0.0,0.0,-0.4128,-0.9209,-0.0910,0.7003,-0.6764,0.1750,0.1468
281,0.0,0.0,0.0,0.0,0.0,0.0,-0.4137,-0.9189,-0.0919,0.7003,-0.6764,0.1746,0.1470
282,0.0,0.0,0.0,0.0,0.0,0.0,-0.4157,-0.9146,-0.0894,0.7005,-0.6762,0.1746,0.1469
283,0.0,0.0,0.0,0.0,0.0,0.0,-0.4162,-0.9155,-0.0909,0.7009,-0.6758,0.1746,0.1469
284,0.0,0.0,0.0,0.0,0.0,0.0,-0.4133,-0.9092,-0.0918,0.7012,-0.6754,0.1745,0.1472
285,0.0,0.0,0.0,0.0,0.0,0.0,-0.4059,-0.9087,-0.0937,0.7014,-0.6752,0.1742,0.1475
286,0.0,0.0,0.0,0.0,0.0,0.0,-0.3972,-0.9058,-0.0937,0.7016,-0.6751,0.1737,0.1478
287,0.0,0.0,0.0,0.0,0.0,0.0,-0.3981,-0.9097,-0.0904,0.7021,-0.6746,0.1735,0.1480
288,0.0,0.0,0.0,0.0,0.0,0.0,-0.3986,-0.9185,-0.0901,0.7026,-0.6741,0.1733,0.1483
289,0.0,0.0,0.0,0.0,0.0,0.0,-0.4006,-0.9189,-0.0901,0.7024,-0.6743,0.1729,0.1489
290,0.0,0.0,0.0,0.0,0.0,0.0,-0.3898,-0.9102,-0.0943,0.7021,-0.6745,0.1725,0.1493
291,0.0,0.0,0.0,0.0,0.0,0.0,-0.3820,-0.9053,-0.1016,0.7016,-0.6751,0.1720,0.1497
292,0.0,0.0,0.0,0.0,0.0,0.0,-0.3942,-0.9121,-0.0977,0.7011,-0.6756,0.1718,0.1500
293,0.0,0.0,0.0,0.0,0.0,0.0,-0.3991,-0.9155,-0.1012,0.7008,-0.6759,0.1719,0.1502
294,0.0,0.0,0.0,0.0,0.0,0.0,-0.4035,-0.9116,-0.1025,0.7000,-0.6765,0.1722,0.1503
295,0.0,0.0,0.0,0.0,0.0,0.0,-0.4084,-0.9155,-0.0992,0.6996,-0.6767,0.1729,0.1506
296,0.0,0.0,0.0,0.0,0.0,0.0,-0.4166,-0.9237,-0.0973,0.6993,-0.6767,0.1742,0.1507
297,0.0,0.0,0.0,0.0,0.0,0.0,-0.4230,-0.9237,-0.0954,0.6989,-0.6768,0.1752,0.1511
298,0.0,0.0,0.0,0.0,0.0,0.0,-0.4049,-0.9130,-0.1065,0.6987,-0.6766,0.1761,0.1516
299,0.0,0.0,0.0,0.0,0.0,0.0,-0.3966,-0.9096,-0.1147,0.6987,-0.6763,0.1770,0.1519
300,0.0,0.0,0.0,0.0,0.0,0.0,-0.3854,-0.9018,-0.1219,0.6987,-0.6761,0.1777,0.1521
301,0.0,0.0,0.0,0.0,0.0,0.0,-0.3781,-0.8964,-0.1345,0.6978,-0.6769,0.1779,0.1523
302,0.0,0.0,0.0,0.0,0.0,0.0,-0.3824,-0.8959,-0.1364,0.6966,-0.6782,0.1779,0.1521
303,0.0,0.0,0.0,0.0,0.0,0.0,-0.3927,-0.8944,-0.1383,0.6954,-0.6794,0.1784,0.1516
304,0.0,0.0,0.0,0.0,0.0,0.0,-0.4088,-0.9021,-0.1359,0.6940,-0.6807,0.1792,0.1511
305,0.0,0.0,0.0,0.0,0.0,0.0,-0.4332,-0.9153,-0.1253,0.6925,-0.6821,0.1805,0.1507
306,0.0,0.0,0.0,0.0,0.0,0.0,-0.4395,-0.9197,-0.1224,0.6927,-0.6814,0.1827,0.1499
307,0.0,0.0,0.0,0.0,0.0,0.0,-0.4434,-0.9177,-0.1243,0.6917,-0.6819,0.1847,0.1498
308,0.0,0.0,0.0,0.0,0.0,0.0,-0.4415,-0.9056,-0.1236,0.6909,-0.6822,0.1863,0.1499
309,0.0,0.0,0.0,0.0,0.0,0.0,-0.4415,-0.9031,-0.1255,0.6901,-0.6826,0.1877,0.1501
310,0.0,0.0,0.0,0.0,0.0,0.0,-0.4435,-0.8924,-0.1292,0.6890,-0.6833,0.1891,0.1503
311,0.0,0.0,0.0,0.0,0.0,0.0,-0.4391,-0.8856,-0.1311,0.6881,-0.6838,0.1907,0.1501
312,0.0,0.0,0.0,0.0,0.0,0.0,-0.4440,-0.9012,-0.1177,0.6874,-0.6841,0.1923,0.1497
313,0.0,0.0,0.0,0.0,0.0,0.0,-0.4489,-0.9066,-0.1139,0.6859,-0.6857,0.1924,0.1496
314,0.0,0.0,0.0,0.0,0.0,0.0,-0.4220,-0.8603,-0.1526,0.6836,-0.6880,0.1919,0.1497
315,0.0,0.0,0.0,0.0,0.0,0.0,-0.4137,-0.8647,-0.1517,0.6830,-0.6886,0.1928,0.1489
316,0.0,0.0,0.0,0.0,0.0,0.0,-0.4244,-0.8870,-0.1453,0.6821,-0.6896,0.1928,0.1486
317,0.0,0.0,0.0,0.0,0.0,0.0,-0.4220,-0.8782,-0.1500,0.6813,-0.6904,0.1930,0.1482
318,0.0,0.0,0.0,0.0,0.0,0.0,-0.4181,-0.8802,-0.1515,0.6807,-0.6911,0.1931,0.1475
319,0.0,0.0,0.0,0.0,0.0,0.0,-0.4195,-0.8846,-0.1501,0.6800,-0.6920,0.1929,0.1468
320,0.0,0.0,0.0,0.0,0.0,0.0,-0.4225,-0.8904,-0.1483,0.6790,-0.6931,0.1926,0.1464
321,0.0,0.0,0.0,0.0,0.0,0.0,-0.4200,-0.8904,-0.1488,0.6783,-0.6940,0.1925,0.1460
322,0.0,0.0,0.0,0.0,0.0,0.0,-0.4254,-0.8991,-0.1508,0.6773,-0.6950,0.1924,0.1455
323,0.0,0.0,0.0,0.0,0.0,0.0,-0.4298,-0.9050,-0.1475,0.6764,-0.6960,0.1922,0.1452
324,0.0,0.0,0.0,0.0,0.0,0.0,-0.4278,-0.9054,-0.1490,0.6755,-0.6971,0.1916,0.1451
325,0.0,0.0,0.0,0.0,0.0,0.0,-0.4205,-0.9025,-0.1543,0.6743,-0.6984,0.1912,0.1450
326,0.0,0.0,0.0,0.0,0.0,0.0,-0.4200,-0.8967,-0.1576,0.6737,-0.6991,0.1912,0.1446
327,0.0,0.0,0.0,0.0,0.0,0.0,-0.4234,-0.8996,-0.1591,0.6729,-0.6999,0.1911,0.1443
328,0.0,0.0,0.0,0.0,0.0,0.0,-0.4239,-0.9000,-0.1616,0.6720,-0.7008,0.1912,0.1440
329,0.0,0.0,0.0,0.0,0.0,0.0,-0.4165,-0.8947,-0.1678,0.6708,-0.7020,0.1910,0.1438
330,0.0,0.0,0.0,0.0,0.0,0.0,-0.4229,-0.8907,-0.1711,0.6690,-0.7029,0.1932,0.1446
331,0.0,0.0,0.0,0.0,0.0,0.0,-0.4302,-0.8814,-0.1811,0.6665,-0.7051,0.1952,0.1433
332,0.0,0.0,0.0,0.0,0.0,0.0,-0.4092,-0.8702,-0.1966,0.6624,-0.7093,0.1947,0.1422
333,0.0,0.0,0.0,0.0,0.0,0.0,-0.4306,-0.8925,-0.2013,0.6589,-0.7128,0.1941,0.1413
334,0.0,0.0,0.0,0.0,0.0,0.0,-0.4263,-0.8942,-0.1605,0.6564,-0.7155,0.1933,0.1409
335,0.0,0.0,0.0,0.0,0.0,0.0,-0.4506,-0.9217,-0.1827,0.6547,-0.7170,0.1948,0.1392
336,0.0,0.0,0.0,0.0,0.0,0.0,-0.4209,-0.8964,-0.2009,0.6539,-0.7178,0.1948,0.1384
337,0.0,0.0,0.0,0.0,0.0,0.0,-0.4321,-0.8964,-0.1945,0.6543,-0.7175,0.1955,0.1374
338,0.0,0.0,0.0,0.0,0.0,0.0,-0.4325,-0.9153,-0.2070,0.6547,-0.7172,0.1964,0.1360
339,0.0,0.0,0.0,0.0,0.0,0.0,-0.4379,-0.9202,-0.1920,0.6556,-0.7164,0.1966,0.1349
340,0.0,0.0,0.0,0.0,0.0,0.0,-0.4296,-0.9212,-0.1954,0.6570,-0.7153,0.1975,0.1333
341,0.0,0.0,0.0,0.0,0.0,0.0,-0.4335,-0.9270,-0.1950,0.6593,-0.7130,0.1990,0.1318
342,0.0,0.0,0.0,0.0,0.0,0.0,-0.4286,-0.9192,-0.1964,0.6620,-0.7102,0.2009,0.1301
343,0.0,0.0,0.0,0.0,0.0,0.0,-0.4150,-0.9003,-0.1966,0.6648,-0.7074,0.2026,0.1288
344,0.0,0.0,0.0,0.0,0.0,0.0,-0.4194,-0.9091,-0.1933,0.6675,-0.7045,0.2042,0.1279
345,0.0,0.0,0.0,0.0,0.0,0.0,-0.4092,-0.8960,-0.1937,0.6702,-0.7019,0.2053,0.1269
346,0.0,0.0,0.0,0.0,0.0,0.0,-0.4058,-0.8940,-0.1907,0.6729,-0.6992,0.2061,0.1258
347,0.0,0.0,0.0,0.0,0.0,0.0,-0.4004,-0.8956,-0.1835,0.6760,-0.6962,0.2068,0.1246
348,0.0,0.0,0.0,0.0,0.0,0.0,-0.4024,-0.8976,-0.1694,0.6795,-0.6929,0.2071,0.1237
349,0.0,0.0,0.0,0.0,0.0,0.0,-0.3999,-0.9103,-0.1560,0.6835,-0.6891,0.2069,0.1228
350,0.0,0.0,0.0,0.0,0.0,0.0,-0.4048,-0.9171,-0.1508,0.6889,-0.6838,0.2070,0.1227
351,0.0,0.0,0.0,0.0,0.0,0.0,-0.4049,-0.9021,-0.1476,0.6935,-0.6792,0.2054,0.1242
352,0.0,0.0,0.0,0.0,0.0,0.0,-0.3985,-0.9104,-0.1410,0.6979,-0.6748,0.2038,0.1266
353,0.0,0.0,0.0,0.0,0.0,0.0,-0.3873,-0.8987,-0.1437,0.7009,-0.6716,0.2023,0.1296
354,0.0,0.0,0.0,0.0,0.0,0.0,-0.3585,-0.8754,-0.1503,0.7030,-0.6693,0.2007,0.1326
355,0.0,0.0,0.0,0.0,0.0,0.0,-0.3512,-0.8531,-0.1514,0.7032,-0.6690,0.1999,0.1343
356,0.0,0.0,0.0,0.0,0.0,0.0,-0.3258,-0.8707,-0.1485,0.7026,-0.6700,0.1990,0.1341
357,0.0,0.0,0.0,0.0,0.0,0.0,-0.3341,-0.8842,-0.1608,0.7015,-0.6715,0.1980,0.1332
358,0.0,0.0,0.0,0.0,0.0,0.0,-0.3693,-0.8657,-0.1588,0.6989,-0.6745,0.1980,0.1317
359,0.0,0.0,0.0,0.0,0.0,0.0,-0.3532,-0.8722,-0.1299,0.6956,-0.6787,0.1972,0.1289
360,0.0,0.0,0.0,0.0,0.0,0.0,-0.3383,-0.9399,-0.1773,0.6931,-0.6826,0.1939,0.1270
361,0.0,0.0,0.0,0.0,0.0,0.0,-0.4200,-0.9016,-0.1446,0.6904,-0.6862,0.1912,0.1264
362,0.0,0.0,0.0,0.0,0.0,0.0,-0.3648,-0.8913,-0.1705,0.6867,-0.6908,0.1885,0.1256
363,0.0,0.0,0.0,0.0,0.0,0.0,-0.3623,-0.9341,-0.1708,0.6833,-0.6951,0.1847,0.1255
364,0.0,0.0,0.0,0.0,0.0,0.0,-0.4302,-0.9484,-0.1113,0.6819,-0.6971,0.1827,0.1255
365,0.0,0.0,0.0,0.0,0.0,0.0,-0.4043,-0.9399,-0.1594,0.6813,-0.6977,0.1822,0.1258
366,0.0,0.0,0.0,0.0,0.0,0.0,-0.3809,-0.9234,-0.1646,0.6807,-0.6983,0.1812,0.1270
367,0.0,0.0,0.0,0.0,0.0,0.0,-0.4009,-0.9317,-0.1423,0.6808,-0.6981,0.1811,0.1282
368,0.0,0.0,0.0,0.0,0.0,0.0,-0.4146,-0.9497,-0.1387,0.6812,-0.6971,0.1822,0.1295
369,0.0,0.0,0.0,0.0,0.0,0.0,-0.4268,-0.9341,-0.1514,0.6810,-0.6964,0.1853,0.1301
370,0.0,0.0,0.0,0.0,0.0,0.0,-0.4019,-0.9063,-0.1759,0.6795,-0.6969,0.1885,0.1305
371,0.0,0.0,0.0,0.0,0.0,0.0,-0.3955,-0.9345,-0.1740,0.6780,-0.6977,0.1914,0.1300
372,0.0,0.0,0.0,0.0,0.0,0.0,-0.4077,-0.9151,-0.1673,0.6755,-0.6995,0.1941,0.1293
373,0.0,0.0,0.0,0.0,0.0,0.0,-0.3980,-0.8873,-0.1790,0.6720,-0.7024,0.1974,0.1273
374,0.0,0.0,0.0,0.0,0.0,0.0,-0.3858,-0.8922,-0.1830,0.6681,-0.7055,0.2007,0.1246
375,0.0,0.0,0.0,0.0,0.0,0.0,-0.4082,-0.9218,-0.1718,0.6657,-0.7075,0.2029,0.1229
376,0.0,0.0,0.0,0.0,0.0,0.0,-0.4550,-0.9451,-0.1719,0.6648,-0.7077,0.2052,0.1226
377,0.0,0.0,0.0,0.0,0.0,0.0,-0.4707,-0.9232,-0.1661,0.6651,-0.7065,0.2081,0.1231
378,0.0,0.0,0.0,0.0,0.0,0.0,-0.4351,-0.8872,-0.1963,0.6654,-0.7056,0.2103,0.1236
379,0.0,0.0,0.0,0.0,0.0,0.0,-0.4458,-0.8936,-0.1808,0.6674,-0.7029,0.2118,0.1250
380,0.0,0.0,0.0,0.0,0.0,0.0,-0.4575,-0.9403,-0.1499,0.6707,-0.6996,0.2103,0.1281
381,0.0,0.0,0.0,0.0,0.0,0.0,-0.4399,-0.8876,-0.1958,0.6733,-0.6970,0.2100,0.1293
382,0.0,0.0,0.0,0.0,0.0,0.0,-0.4156,-0.8537,-0.2007,0.6762,-0.6937,0.2118,0.1293
383,0.0,0.0,0.0,0.0,0.0,0.0,-0.4209,-0.8682,-0.2014,0.6788,-0.6910,0.2118,0.1297
384,0.0,0.0,0.0,0.0,0.0,0.0,-0.4438,-0.8847,-0.1957,0.6812,-0.6883,0.2126,0.1305
385,0.0,0.0,0.0,0.0,0.0,0.0,-0.4132,-0.8616,-0.1809,0.6824,-0.6869,0.2125,0.1313
386,0.0,0.0,0.0,0.0,0.0,0.0,-0.3795,-0.8412,-0.1924,0.6831,-0.6865,0.2110,0.1324
387,0.0,0.0,0.0,0.0,0.0,0.0,-0.3819,-0.8577,-0.1854,0.6834,-0.6869,0.2084,0.1332
388,0.0,0.0,0.0,0.0,0.0,0.0,-0.4175,-0.9151,-0.1546,0.6837,-0.6873,0.2058,0.1338
389,0.0,0.0,0.0,0.0,0.0,0.0,-0.4205,-0.8976,-0.1547,0.6838,-0.6879,0.2030,0.1340
390,0.0,0.0,0.0,0.0,0.0,0.0,-0.4180,-0.9060,-0.1437,0.6837,-0.6890,0.1991,0.1352
391,0.0,0.0,0.0,0.0,0.0,0.0,-0.4263,-0.9477,-0.1434,0.6831,-0.6904,0.1954,0.1359
392,0.0,0.0,0.0,0.0,0.0,0.0,-0.4219,-0.9025,-0.1480,0.6818,-0.6925,0.1922,0.1364
393,0.0,0.0,0.0,0.0,0.0,0.0,-0.3888,-0.8671,-0.1544,0.6804,-0.6947,0.1890,0.1368
394,0.0,0.0,0.0,0.0,0.0,0.0,-0.3473,-0.8695,-0.1658,0.6779,-0.6985,0.1840,0.1367
395,0.0,0.0,0.0,0.0,0.0,0.0,-0.3809,-0.8977,-0.1515,0.6756,-0.7017,0.1814,0.1347
396,0.0,0.0,0.0,0.0,0.0,0.0,-0.3736,-0.8899,-0.1612,0.6735,-0.7045,0.1796,0.1334
397,0.0,0.0,0.0,0.0,0.0,0.0,-0.3424,-0.8934,-0.1541,0.6725,-0.7063,0.1768,0.1328
398,0.0,0.0,0.0,0.0,0.0,0.0,-0.3599,-0.9176,-0.1593,0.6731,-0.7067,0.1729,0.1327
399,0.0,0.0,0.0,0.0,0.0,0.0,-0.3891,-0.9468,-0.1509,0.6752,-0.7055,0.1693,0.1330
400,0.0,0.0,0.0,0.0,0.0,0.0,-0.3721,-0.9453,-0.1500,0.6779,-0.7035,0.1660,0.1339
401,0.0,0.0,0.0,0.0,0.0,0.0,-0.3657,-0.9375,-0.1562,0.6803,-0.7016,0.1632,0.1350
402,0.0,0.0,0.0,0.0,0.0,0.0,-0.3594,-0.9268,-0.1697,0.6820,-0.7005,0.1603,0.1358
403,0.0,0.0,0.0,0.0,0.0,0.0,-0.3477,-0.9288,-0.1562,0.6837,-0.6994,0.1574,0.1363
404,0.0,0.0,0.0,0.0,0.0,0.0,-0.3530,-0.9546,-0.1449,0.6852,-0.6985,0.1549,0.1363
405,0.0,0.0,0.0,0.0,0.0,0.0,-0.3804,-0.9649,-0.1318,0.6867,-0.6974,0.1533,0.1362
406,0.0,0.0,0.0,0.0,0.0,0.0,-0.3853,-0.9697,-0.1236,0.6885,-0.6958,0.1522,0.1366
407,0.0,0.0,0.0,0.0,0.0,0.0,-0.3735,-0.9512,-0.1370,0.6895,-0.6949,0.1512,0.1372
408,0.0,0.0,0.0,0.0,0.0,0.0,-0.3736,-0.9338,-0.1376,0.6907,-0.6938,0.1503,0.1376
409,0.0,0.0,0.0,0.0,0.0,0.0,-0.3750,-0.9298,-0.1439,0.6921,-0.6924,0.1503,0.1381
410,0.0,0.0,0.0,0.0,0.0,0.0,-0.3638,-0.9202,-0.1365,0.6924,-0.6917,0.1513,0.1387
411,0.0,0.0,0.0,0.0,0.0,0.0,-0.3199,-0.9105,-0.1458,0.6919,-0.6921,0.1513,0.1394
412,0.0,0.0,0.0,0.0,0.0,0.0,-0.3287,-0.9333,-0.1452,0.6916,-0.6923,0.1511,0.1397
413,0.0,0.0,0.0,0.0,0.0,0.0,-0.3717,-0.9090,-0.1421,0.6912,-0.6923,0.1524,0.1405
414,0.0,0.0,0.0,0.0,0.0,0.0,-0.3482,-0.8748,-0.1747,0.6884,-0.6945,0.1547,0.1408
415,0.0,0.0,0.0,0.0,0.0,0.0,-0.3390,-0.8597,-0.1886,0.6835,-0.6989,0.1570,0.1401
416,0.0,0.0,0.0,0.0,0.0,0.0,-0.3633,-0.8997,-0.1590,0.6790,-0.7028,0.1598,0.1395
417,0.0,0.0,0.0,0.0,0.0,0.0,-0.3863,-0.9220,-0.1485,0.6755,-0.7056,0.1625,0.1395
418,0.0,0.0,0.0,0.0,0.0,0.0,-0.3677,-0.9069,-0.1693,0.6731,-0.7073,0.1649,0.1395
419,0.0,0.0,0.0,0.0,0.0,0.0,-0.3745,-0.9253,-0.1769,0.6719,-0.7081,0.1661,0.1400
420,0.0,0.0,0.0,0.0,0.0,0.0,-0.4048,-0.9198,-0.1800,0.6707,-0.7088,0.1673,0.1407
421,0.0,0.0,0.0,0.0,0.0,0.0,-0.3970,-0.8974,-0.1947,0.6698,-0.7091,0.1685,0.1419
422,0.0,0.0,0.0,0.0,0.0,0.0,-0.4013,-0.9072,-0.1905,0.6698,-0.7086,0.1700,0.1426
423,0.0,0.0,0.0,0.0,0.0,0.0,-0.4067,-0.9271,-0.1830,0.6699,-0.7082,0.1711,0.1431
424,0.0,0.0,0.0,0.0,0.0,0.0,-0.3940,-0.9101,-0.1838,0.6706,-0.7071,0.1717,0.1440
425,0.0,0.0,0.0,0.0,0.0,0.0,-0.4023,-0.9110,-0.1988,0.6711,-0.7062,0.1728,0.1448
426,0.0,0.0,0.0,0.0,0.0,0.0,-0.4082,-0.8877,-0.1916,0.6709,-0.7059,0.1750,0.1447
427,0.0,0.0,0.0,0.0,0.0,0.0,-0.3819,-0.8804,-0.1989,0.6702,-0.7063,0.1764,0.1446
428,0.0,0.0,0.0,0.0,0.0,0.0,-0.3935,-0.9096,-0.1935,0.6696,-0.7067,0.1772,0.1444
429,0.0,0.0,0.0,0.0,0.0,0.0,-0.4072,-0.8985,-0.1830,0.6686,-0.7074,0.1778,0.1444
430,0.0,0.0,0.0,0.0,0.0,0.0,-0.3965,-0.8960,-0.1855,0.6681,-0.7078,0.1787,0.1441
431,0.0,0.0,0.0,0.0,0.0,0.0,-0.4077,-0.9067,-0.1880,0.6679,-0.7077,0.1796,0.1441
432,0.0,0.0,0.0,0.0,0.0,0.0,-0.4263,-0.9136,-0.1662,0.6681,-0.7073,0.1803,0.1444
433,0.0,0.0,0.0,0.0,0.0,0.0,-0.4267,-0.9243,-0.1659,0.6690,-0.7063,0.1808,0.1447
434,0.0,0.0,0.0,0.0,0.0,0.0,-0.4360,-0.9209,-0.1619,0.6704,-0.7047,0.1814,0.1453
435,0.0,0.0,0.0,0.0,0.0,0.0,-0.4370,-0.9204,-0.1648,0.6723,-0.7026,0.1821,0.1454
436,0.0,0.0,0.0,0.0,0.0,0.0,-0.4297,-0.9097,-0.1670,0.6742,-0.7008,0.1825,0.1449
437,0.0,0.0,0.0,0.0,0.0,0.0,-0.4268,-0.9132,-0.1550,0.6760,-0.6992,0.1827,0.1440
438,0.0,0.0,0.0,0.0,0.0,0.0,-0.4297,-0.9229,-0.1464,0.6784,-0.6971,0.1831,0.1427
439,0.0,0.0,0.0,0.0,0.0,0.0,-0.4181,-0.9021,-0.1402,0.6808,-0.6950,0.1827,0.1417
440,0.0,0.0,0.0,0.0,0.0,0.0,-0.3970,-0.9011,-0.1520,0.6834,-0.6931,0.1810,0.1411
441,0.0,0.0,0.0,0.0,0.0,0.0,-0.4108,-0.8954,-0.1324,0.6857,-0.6906,0.1818,0.1408
442,0.0,0.0,0.0,0.0,0.0,0.0,-0.4152,-0.9017,-0.1276,0.6882,-0.6885,0.1809,0.1399
443,0.0,0.0,0.0,0.0,0.0,0.0,-0.4147,-0.9007,-0.1247,0.6900,-0.6872,0.1796,0.1396
444,0.0,0.0,0.0,0.0,0.0,0.0,-0.3928,-0.8658,-0.1324,0.6902,-0.6874,0.1784,0.1392
445,0.0,0.0,0.0,0.0,0.0,0.0,-0.3649,-0.8604,-0.1554,0.6888,-0.6893,0.1763,0.1389
446,0.0,0.0,0.0,0.0,0.0,0.0,-0.3547,-0.8605,-0.1423,0.6866,-0.6921,0.1745,0.1382
447,0.0,0.0,0.0,0.0,0.0,0.0,-0.3781,-0.9149,-0.1169,0.6850,-0.6939,0.1746,0.1372
448,0.0,0.0,0.0,0.0,0.0,0.0,-0.3965,-0.9689,-0.1060,0.6843,-0.6944,0.1752,0.1371
449,0.0,0.0,0.0,0.0,0.0,0.0,-0.3867,-0.9136,-0.1732,0.6826,-0.6956,0.1750,0.1397
450,0.0,0.0,0.0,0.0,0.0,0.0,-0.3692,-0.8602,-0.1743,0.6800,-0.6977,0.1746,0.1429
451,0.0,0.0,0.0,0.0,0.0,0.0,-0.3657,-0.9536,-0.1458,0.6780,-0.6990,0.1744,0.1460
452,0.0,0.0,0.0,0.0,0.0,0.0,-0.3740,-0.9386,-0.1440,0.6760,-0.7001,0.1747,0.1494
453,0.0,0.0,0.0,0.0,0.0,0.0,-0.3341,-0.9003,-0.1499,0.6741,-0.7015,0.1745,0.1517
454,0.0,0.0,0.0,0.0,0.0,0.0,-0.2846,-0.9204,-0.2021,0.6728,-0.7029,0.1731,0.1527
455,0.0,0.0,0.0,0.0,0.0,0.0,-0.3569,-0.9029,-0.1873,0.6708,-0.7050,0.1725,0.1525
456,0.0,0.0,0.0,0.0,0.0,0.0,-0.3745,-0.8995,-0.1842,0.6696,-0.7063,0.1731,0.1512
457,0.0,0.0,0.0,0.0,0.0,0.0,-0.3661,-0.9159,-0.2064,0.6681,-0.7077,0.1738,0.1500
458,0.0,0.0,0.0,0.0,0.0,0.0,-0.4111,-0.9130,-0.1871,0.6669,-0.7090,0.1746,0.1490
459,0.0,0.0,0.0,0.0,0.0,0.0,-0.4330,-0.9202,-0.1910,0.6663,-0.7093,0.1756,0.1487
460,0.0,0.0,0.0,0.0,0.0,0.0,-0.4194,-0.9158,-0.2003,0.6659,-0.7096,0.1768,0.1478
461,0.0,0.0,0.0,0.0,0.0,0.0,-0.4013,-0.8929,-0.2184,0.6652,-0.7103,0.1774,0.1467
462,0.0,0.0,0.0,0.0,0.0,0.0,-0.4111,-0.8860,-0.2338,0.6640,-0.7114,0.1781,0.1459
463,0.0,0.0,0.0,0.0,0.0,0.0,-0.3974,-0.9020,-0.2366,0.6623,-0.7133,0.1775,0.1450
464,0.0,0.0,0.0,0.0,0.0,0.0,-0.4149,-0.9263,-0.2263,0.6613,-0.7148,0.1768,0.1432
465,0.0,0.0,0.0,0.0,0.0,0.0,-0.4364,-0.9409,-0.2186,0.6616,-0.7150,0.1763,0.1414
466,0.0,0.0,0.0,0.0,0.0,0.0,-0.4432,-0.9496,-0.2182,0.6621,-0.7148,0.1759,0.1405
467,0.0,0.0,0.0,0.0,0.0,0.0,-0.4471,-0.9278,-0.2144,0.6629,-0.7142,0.1771,0.1381
468,0.0,0.0,0.0,0.0,0.0,0.0,-0.4296,-0.9464,-0.1993,0.6664,-0.7112,0.1783,0.1355
469,0.0,0.0,0.0,0.0,0.0,0.0,-0.4022,-0.9195,-0.2301,0.6694,-0.7089,0.1775,0.1339
470,0.0,0.0,0.0,0.0,0.0,0.0,-0.4072,-0.8847,-0.2105,0.6723,-0.7064,0.1774,0.1320
471,0.0,0.0,0.0,0.0,0.0,0.0,-0.4033,-0.8833,-0.2061,0.6757,-0.7035,0.1776,0.1304
472,0.0,0.0,0.0,0.0,0.0,0.0,-0.4107,-0.9034,-0.1719,0.6797,-0.6999,0.1775,0.1290
473,0.0,0.0,0.0,0.0,0.0,0.0,-0.4083,-0.8937,-0.1674,0.6834,-0.6965,0.1779,0.1273
474,0.0,0.0,0.0,0.0,0.0,0.0,-0.4044,-0.8782,-0.1618,0.6868,-0.6930,0.1794,0.1257
475,0.0,0.0,0.0,0.0,0.0,0.0,-0.4039,-0.8845,-0.1594,0.6893,-0.6903,0.1818,0.1241
476,0.0,0.0,0.0,0.0,0.0,0.0,-0.3981,-0.8457,-0.1632,0.6906,-0.6884,0.1841,0.1234
477,0.0,0.0,0.0,0.0,0.0,0.0,-0.3654,-0.8653,-0.1345,0.6927,-0.6861,0.1849,0.1239
478,0.0,0.0,0.0,0.0,0.0,0.0,-0.3471,-1.0413,-0.1124,0.6941,-0.6849,0.1833,0.1243
479,0.0,0.0,0.0,0.0,0.0,0.0,-0.3766,-0.9155,-0.1115,0.6936,-0.6850,0.1834,0.1264
480,0.0,0.0,0.0,0.0,0.0,0.0,-0.3591,-0.9073,-0.0993,0.6922,-0.6861,0.1835,0.1284
481,0.0,0.0,0.0,0.0,0.0,0.0,-0.3561,-0.9067,-0.1163,0.6905,-0.6876,0.1834,0.1297
482,0.0,0.0,0.0,0.0,0.0,0.0,-0.3805,-0.9096,-0.1163,0.6890,-0.6887,0.1833,0.1317
483,0.0,0.0,0.0,0.0,0.0,0.0,-0.3644,-0.9004,-0.1210,0.6873,-0.6905,0.1816,0.1335
484,0.0,0.0,0.0,0.0,0.0,0.0,-0.3390,-0.8867,-0.1467,0.6849,-0.6934,0.1786,0.1351
485,0.0,0.0,0.0,0.0,0.0,0.0,-0.3575,-0.9047,-0.1323,0.6825,-0.6966,0.1744,0.1360
486,0.0,0.0,0.0,0.0,0.0,0.0,-0.3678,-0.9184,-0.1102,0.6811,-0.6989,0.1695,0.1372
487,0.0,0.0,0.0,0.0,0.0,0.0,-0.3746,-0.9616,-0.1051,0.6803,-0.7006,0.1655,0.1378
488,0.0,0.0,0.0,0.0,0.0,0.0,-0.4117,-0.9806,-0.0848,0.6795,-0.7019,0.1629,0.1382
489,0.0,0.0,0.0,0.0,0.0,0.0,-0.3848,-0.9860,-0.0899,0.6803,-0.7015,0.1611,0.1383
490,0.0,0.0,0.0,0.0,0.0,0.0,-0.3745,-0.9483,-0.1369,0.6811,-0.7010,0.1599,0.1385
491,0.0,0.0,0.0,0.0,0.0,0.0,-0.3863,-0.9406,-0.1202,0.6833,-0.6987,0.1600,0.1391
492,0.0,0.0,0.0,0.0,0.0,0.0,-0.3843,-0.9673,-0.1202,0.6872,-0.6946,0.1597,0.1406
493,0.0,0.0,0.0,0.0,0.0,0.0,-0.4220,-0.9480,-0.1016,0.6906,-0.6907,0.1598,0.1431
494,0.0,0.0,0.0,0.0,0.0,0.0,-0.4331,-0.9414,-0.1326,0.6916,-0.6888,0.1604,0.1464
495,0.0,0.0,0.0,0.0,0.0,0.0,-0.4322,-0.9025,-0.1586,0.6903,-0.6892,0.1594,0.1520
496,0.0,0.0,0.0,0.0,0.0,0.0,-0.3755,-0.8892,-0.1918,0.6872,-0.6915,0.1561,0.1586
497,0.0,0.0,0.0,0.0,0.0,0.0,-0.3512,-0.8452,-0.1712,0.6838,-0.6945,0.1532,0.1633
498,0.0,0.0,0.0,0.0,0.0,0.0,-0.3239,-0.8887,-0.1425,0.6819,-0.6961,0.1512,0.1660
499,0.0,0.0,0.0,0.0,0.0,0.0,-0.3428,-0.8469,-0.2112,0.6772,-0.7002,0.1503,0.1688
500,0.0,0.0,0.0,0.0,0.0,0.0,-0.3254,-0.8239,-0.1666,0.6729,-0.7041,0.1494,0.1702
501,0.0,0.0,0.0,0.0,0.0,0.0,-0.2905,-0.8916,-0.2200,0.6678,-0.7093,0.1478,0.1707
502,0.0,0.0,0.0,0.0,0.0,0.0,-0.2945,-0.8987,-0.1730,0.6649,-0.7123,0.1465,0.1702
503,0.0,0.0,0.0,0.0,0.0,0.0,-0.2944,-0.9306,-0.1988,0.6624,-0.7151,0.1454,0.1695
504,0.0,0.0,0.0,0.0,0.0,0.0,-0.3828,-0.9144,-0.1966,0.6596,-0.7176,0.1468,0.1686
505,0.0,0.0,0.0,0.0,0.0,0.0,-0.3677,-0.8945,-0.1992,0.6574,-0.7196,0.1473,0.1682
506,0.0,0.0,0.0,0.0,0.0,0.0,-0.3432,-0.8774,-0.2384,0.6546,-0.7222,0.1471,0.1681
507,0.0,0.0,0.0,0.0,0.0,0.0,-0.3871,-0.8836,-0.2300,0.6525,-0.7240,0.1481,0.1679
508,0.0,0.0,0.0,0.0,0.0,0.0,-0.4110,-0.8738,-0.2482,0.6504,-0.7256,0.1485,0.1687
509,0.0,0.0,0.0,0.0,0.0,0.0,-0.4242,-0.8728,-0.2505,0.6480,-0.7276,0.1483,0.1693
510,0.0,0.0,0.0,0.0,0.0,0.0,-0.4354,-0.8751,-0.2573,0.6453,-0.7298,0.1480,0.1704
511,0.0,0.0,0.0,0.0,0.0,0.0,-0.4252,-0.8742,-0.2603,0.6419,-0.7328,0.1466,0.1716
512,0.0,0.0,0.0,0.0,0.0,0.0,-0.4178,-0.8819,-0.2702,0.6389,-0.7357,0.1450,0.1720
513,0.0,0.0,0.0,0.0,0.0,0.0,-0.4212,-0.8907,-0.2645,0.6362,-0.7383,0.1437,0.1718
514,0.0,0.0,0.0,0.0,0.0,0.0,-0.4193,-0.8931,-0.2607,0.6333,-0.7412,0.1415,0.1717
515,0.0,0.0,0.0,0.0,0.0,0.0,-0.4203,-0.8892,-0.2606,0.6308,-0.7440,0.1395,0.1706
516,0.0,0.0,0.0,0.0,0.0,0.0,-0.4139,-0.9136,-0.2538,0.6296,-0.7457,0.1374,0.1695
517,0.0,0.0,0.0,0.0,0.0,0.0,-0.4241,-0.9606,-0.2536,0.6291,-0.7463,0.1358,0.1697
518,0.0,0.0,0.0,0.0,0.0,0.0,-0.4237,-0.9043,-0.2545,0.6278,-0.7475,0.1346,0.1703
519,0.0,0.0,0.0,0.0,0.0,0.0,-0.4193,-0.9145,-0.2484,0.6274,-0.7479,0.1335,0.1707
520,0.0,0.0,0.0,0.0,0.0,0.0,-0.4290,-0.9437,-0.2469,0.6283,-0.7472,0.1326,0.1712
521,0.0,0.0,0.0,0.0,0.0,0.0,-0.4295,-0.9340,-0.2477,0.6291,-0.7466,0.1321,0.1714
522,0.0,0.0,0.0,0.0,0.0,0.0,-0.4114,-0.9135,-0.2606,0.6291,-0.7467,0.1316,0.1717
523,0.0,0.0,0.0,0.0,0.0,0.0,-0.4168,-0.9062,-0.2580,0.6293,-0.7464,0.1317,0.1718
524,0.0,0.0,0.0,0.0,0.0,0.0,-0.4193,-0.8858,-0.2654,0.6297,-0.7459,0.1326,0.1718
525,0.0,0.0,0.0,0.0,0.0,0.0,-0.4178,-0.8795,-0.2624,0.6307,-0.7449,0.1341,0.1714
526,0.0,0.0,0.0,0.0,0.0,0.0,-0.4130,-0.8665,-0.2515,0.6313,-0.7444,0.1353,0.1705
527,0.0,0.0,0.0,0.0,0.0,0.0,-0.4066,-0.8728,-0.2589,0.6318,-0.7441,0.1364,0.1689
528,0.0,0.0,0.0,0.0,0.0,0.0,-0.3846,-0.9115,-0.2792,0.6323,-0.7437,0.1371,0.1681
529,0.0,0.0,0.0,0.0,0.0,0.0,-0.4002,-0.9140,-0.2568,0.6332,-0.7428,0.1378,0.1681
530,0.0,0.0,0.0,0.0,0.0,0.0,-0.4095,-0.8946,-0.2500,0.6347,-0.7413,0.1392,0.1682
531,0.0,0.0,0.0,0.0,0.0,0.0,-0.4057,-0.8694,-0.2457,0.6365,-0.7396,0.1410,0.1674
532,0.0,0.0,0.0,0.0,0.0,0.0,-0.3832,-0.8884,-0.2540,0.6380,-0.7383,0.1423,0.1661
533,0.0,0.0,0.0,0.0,0.0,0.0,-0.3803,-0.8840,-0.2573,0.6390,-0.7375,0.1432,0.1649
534,0.0,0.0,0.0,0.0,0.0,0.0,-0.3807,-0.8845,-0.2554,0.6397,-0.7371,0.1441,0.1634
535,0.0,0.0,0.0,0.0,0.0,0.0,-0.3851,-0.8854,-0.2583,0.6400,-0.7370,0.1451,0.1618
536,0.0,0.0,0.0,0.0,0.0,0.0,-0.3959,-0.8903,-0.2530,0.6406,-0.7365,0.1469,0.1602
537,0.0,0.0,0.0,0.0,0.0,0.0,-0.3949,-0.8966,-0.2584,0.6409,-0.7362,0.1488,0.1585
538,0.0,0.0,0.0,0.0,0.0,0.0,-0.3954,-0.9039,-0.2493,0.6415,-0.7357,0.1506,0.1567
539,0.0,0.0,0.0,0.0,0.0,0.0,-0.3861,-0.9014,-0.2629,0.6418,-0.7354,0.1524,0.1550
540,0.0,0.0,0.0,0.0,0.0,0.0,-0.3690,-0.8771,-0.2714,0.6413,-0.7358,0.1545,0.1532
541,0.0,0.0,0.0,0.0,0.0,0.0,-0.3866,-0.8849,-0.2617,0.6405,-0.7363,0.1571,0.1513
542,0.0,0.0,0.0,0.0,0.0,0.0,-0.4051,-0.9044,-0.2517,0.6402,-0.7364,0.1599,0.1494
543,0.0,0.0,0.0,0.0,0.0,0.0,-0.4232,-0.9277,-0.2462,0.6409,-0.7355,0.1631,0.1474
544,0.0,0.0,0.0,0.0,0.0,0.0,-0.4124,-0.9199,-0.2476,0.6415,-0.7346,0.1662,0.1457
545,0.0,0.0,0.0,0.0,0.0,0.0,-0.4095,-0.9219,-0.2471,0.6419,-0.7338,0.1694,0.1445
546,0.0,0.0,0.0,0.0,0.0,0.0,-0.3973,-0.9053,-0.2547,0.6426,-0.7326,0.1726,0.1432
547,0.0,0.0,0.0,0.0,0.0,0.0,-0.3993,-0.8878,-0.2568,0.6426,-0.7321,0.1758,0.1420
548,0.0,0.0,0.0,0.0,0.0,0.0,-0.4018,-0.8914,-0.2359,0.6429,-0.7315,0.1784,0.1406
549,0.0,0.0,0.0,0.0,0.0,0.0,-0.3793,-0.8461,-0.2664,0.6423,-0.7316,0.1813,0.1390
550,0.0,0.0,0.0,0.0,0.0,0.0,-0.3603,-0.8451,-0.2611,0.6418,-0.7317,0.1841,0.1371
551,0.0,0.0,0.0,0.0,0.0,0.0,-0.3588,-0.8787,-0.2578,0.6410,-0.7323,0.1857,0.1358
552,0.0,0.0,0.0,0.0,0.0,0.0,-0.3661,-0.9113,-0.2379,0.6411,-0.7322,0.1867,0.1344
553,0.0,0.0,0.0,0.0,0.0,0.0,-0.3695,-0.8859,-0.2666,0.6408,-0.7323,0.1882,0.1330
554,0.0,0.0,0.0,0.0,0.0,0.0,-0.3768,-0.8820,-0.2695,0.6406,-0.7321,0.1905,0.1315
555,0.0,0.0,0.0,0.0,0.0,0.0,-0.3905,-0.8737,-0.2692,0.6403,-0.7318,0.1937,0.1303
556,0.0,0.0,0.0,0.0,0.0,0.0,-0.3978,-0.8740,-0.2979,0.6397,-0.7317,0.1961,0.1303
557,0.0,0.0,0.0,0.0,0.0,0.0,-0.3929,-0.8697,-0.2828,0.6400,-0.7310,0.1979,0.1304
558,0.0,0.0,0.0,0.0,0.0,0.0,-0.3397,-0.8737,-0.2826,0.6399,-0.7313,0.1982,0.1281
559,0.0,0.0,0.0,0.0,0.0,0.0,-0.4139,-0.9320,-0.2468,0.6414,-0.7299,0.1998,0.1261
560,0.0,0.0,0.0,0.0,0.0,0.0,-0.4754,-0.9782,-0.2156,0.6462,-0.7251,0.2011,0.1270
561,0.0,0.0,0.0,0.0,0.0,0.0,-0.4046,-0.9330,-0.2493,0.6524,-0.7193,0.2007,0.1290
562,0.0,0.0,0.0,0.0,0.0,0.0,-0.3656,-0.8474,-0.2947,0.6545,-0.7169,0.2024,0.1290
563,0.0,0.0,0.0,0.0,0.0,0.0,-0.3925,-0.8451,-0.2604,0.6547,-0.7158,0.2061,0.1283
564,0.0,0.0,0.0,0.0,0.0,0.0,-0.3504,-0.8887,-0.2906,0.6540,-0.7157,0.2087,0.1282
565,0.0,0.0,0.0,0.0,0.0,0.0,-0.3779,-0.8521,-0.2227,0.6534,-0.7156,0.2130,0.1253
566,0.0,0.0,0.0,0.0,0.0,0.0,-0.2704,-0.8651,-0.2736,0.6532,-0.7160,0.2146,0.1206
567,0.0,0.0,0.0,0.0,0.0,0.0,-0.3232,-0.8555,-0.2459,0.6547,-0.7152,0.2163,0.1148
568,0.0,0.0,0.0,0.0,0.0,0.0,-0.4419,-0.8592,-0.2380,0.6558,-0.7148,0.2170,0.1095
569,0.0,0.0,0.0,0.0,0.0,0.0,-0.4496,-0.9304,-0.1829,0.6586,-0.7132,0.2147,0.1070
570,0.0,0.0,0.0,0.0,0.0,0.0,-0.4032,-0.9529,-0.1821,0.6628,-0.7107,0.2107,0.1059
571,0.0,0.0,0.0,0.0,0.0,0.0,-0.4301,-0.9098,-0.2259,0.6650,-0.7096,0.2080,0.1047
572,0.0,0.0,0.0,0.0,0.0,0.0,-0.4018,-0.9110,-0.2008,0.6673,-0.7080,0.2068,0.1032
573,0.0,0.0,0.0,0.0,0.0,0.0,-0.4198,-0.9489,-0.1940,0.6693,-0.7065,0.2068,0.1009
574,0.0,0.0,0.0,0.0,0.0,0.0,-0.4116,-0.8857,-0.2081,0.6698,-0.7057,0.2087,0.0989
575,0.0,0.0,0.0,0.0,0.0,0.0,-0.3545,-0.8628,-0.2391,0.6698,-0.7061,0.2079,0.0976
576,0.0,0.0,0.0,0.0,0.0,0.0,-0.3663,-0.8533,-0.2029,0.6702,-0.7066,0.2058,0.0961
577,0.0,0.0,0.0,0.0,0.0,0.0,-0.3520,-0.8910,-0.2333,0.6694,-0.7083,0.2027,0.0954
578,0.0,0.0,0.0,0.0,0.0,0.0,-0.3789,-0.8925,-0.2074,0.6692,-0.7094,0.2006,0.0936
579,0.0,0.0,0.0,0.0,0.0,0.0,-0.3936,-0.8800,-0.1867,0.6708,-0.7085,0.1987,0.0925
580,0.0,0.0,0.0,0.0,0.0,0.0,-0.3866,-0.9480,-0.1811,0.6721,-0.7082,0.1950,0.0932
581,0.0,0.0,0.0,0.0,0.0,0.0,-0.3930,-0.9379,-0.1677,0.6733,-0.7078,0.1919,0.0944
582,0.0,0.0,0.0,0.0,0.0,0.0,-0.3887,-0.9297,-0.1584,0.6752,-0.7061,0.1911,0.0950
583,0.0,0.0,0.0,0.0,0.0,0.0,-0.3559,-0.9243,-0.1828,0.6764,-0.7053,0.1894,0.0960
584,0.0,0.0,0.0,0.0,0.0,0.0,-0.3365,-0.9069,-0.1738,0.6774,-0.7047,0.1866,0.0983
585,0.0,0.0,0.0,0.0,0.0,0.0,-0.3399,-0.9215,-0.1668,0.6782,-0.7043,0.1842,0.1004
586,0.0,0.0,0.0,0.0,0.0,0.0,-0.3555,-0.9322,-0.1596,0.6786,-0.7041,0.1827,0.1020
587,0.0,0.0,0.0,0.0,0.0,0.0,-0.3403,-0.9171,-0.1701,0.6790,-0.7039,0.1807,0.1042
588,0.0,0.0,0.0,0.0,0.0,0.0,-0.3355,-0.9220,-0.1668,0.6791,-0.7040,0.1785,0.1066
589,0.0,0.0,0.0,0.0,0.0,0.0,-0.3335,-0.9302,-0.1689,0.6780,-0.7053,0.1765,0.1084
590,0.0,0.0,0.0,0.0,0.0,0.0,-0.3315,-0.9225,-0.1717,0.6770,-0.7064,0.1749,0.1099
591,0.0,0.0,0.0,0.0,0.0,0.0,-0.3437,-0.9394,-0.1773,0.6753,-0.7080,0.1744,0.1107
592,0.0,0.0,0.0,0.0,0.0,0.0,-0.3296,-0.9151,-0.1803,0.6731,-0.7101,0.1738,0.1116
593,0.0,0.0,0.0,0.0,0.0,0.0,-0.3169,-0.9258,-0.1889,0.6719,-0.7114,0.1726,0.1130
594,0.0,0.0,0.0,0.0,0.0,0.0,-0.3256,-0.9500,-0.1922,0.6708,-0.7125,0.1714,0.1141
595,0.0,0.0,0.0,0.0,0.0,0.0,-0.3310,-0.9432,-0.1949,0.6698,-0.7136,0.1698,0.1154
596,0.0,0.0,0.0,0.0,0.0,0.0,-0.3188,-0.9339,-0.2026,0.6693,-0.7142,0.1684,0.1165
597,0.0,0.0,0.0,0.0,0.0,0.0,-0.3183,-0.9397,-0.2066,0.6692,-0.7144,0.1672,0.1177
598,0.0,0.0,0.0,0.0,0.0,0.0,-0.3280,-0.9373,-0.2065,0.6693,-0.7143,0.1658,0.1193
599,0.0,0.0,0.0,0.0,0.0,0.0,-0.3359,-0.9500,-0.1872,0.6705,-0.7133,0.1651,0.1203
600,0.0,0.0,0.0,0.0,0.0,0.0,-0.3563,-0.9616,-0.1961,0.6724,-0.7112,0.1653,0.1214
601,0.0,0.0,0.0,0.0,0.0,0.0,-0.3573,-0.9251,-0.2066,0.6735,-0.7098,0.1664,0.1222
602,0.0,0.0,0.0,0.0,0.0,0.0,-0.3495,-0.9222,-0.2003,0.6743,-0.7085,0.1678,0.1231
603,0.0,0.0,0.0,0.0,0.0,0.0,-0.4794,-0.9045,-0.1992,0.6748,-0.7070,0.1716,0.1240
604,0.0,0.0,0.0,0.0,0.0,0.0,-0.3691,-0.9159,-0.1962,0.6753,-0.7060,0.1735,0.1241
605,0.0,0.0,0.0,0.0,0.0,0.0,-0.3398,-0.9023,-0.2087,0.6748,-0.7062,0.1744,0.1248
606,0.0,0.0,0.0,0.0,0.0,0.0,-0.3491,-0.8868,-0.2065,0.6746,-0.7062,0.1744,0.1258
607,0.0,0.0,0.0,0.0,0.0,0.0,-0.3550,-0.8823,-0.2190,0.6736,-0.7072,0.1739,0.1264
608,0.0,0.0,0.0,0.0,0.0,0.0,-0.3726,-0.8863,-0.2044,0.6726,-0.7078,0.1744,0.1271
609,0.0,0.0,0.0,0.0,0.0,0.0,-0.3290,-0.8978,-0.2364,0.6707,-0.7098,0.1729,0.1282
610,0.0,0.0,0.0,0.0,0.0,0.0,-0.3623,-0.9037,-0.2067,0.6684,-0.7122,0.1721,0.1284
611,0.0,0.0,0.0,0.0,0.0,0.0,-0.4296,-0.9368,-0.1782,0.6664,-0.7136,0.1730,0.1295
612,0.0,0.0,0.0,0.0,0.0,0.0,-0.3500,-0.9309,-0.2204,0.6641,-0.7156,0.1720,0.1311
613,0.0,0.0,0.0,0.0,0.0,0.0,-0.3295,-0.8968,-0.2393,0.6615,-0.7182,0.1704,0.1323
614,0.0,0.0,0.0,0.0,0.0,0.0,-0.3457,-0.9345,-0.1801,0.6619,-0.7182,0.1691,0.1324
615,0.0,0.0,0.0,0.0,0.0,0.0,-0.3187,-0.9468,-0.2437,0.6610,-0.7198,0.1649,0.1331
616,0.0,0.0,0.0,0.0,0.0,0.0,-0.3212,-0.9095,-0.2275,0.6610,-0.7206,0.1614,0.1336
617,0.0,0.0,0.0,0.0,0.0,0.0,-0.3383,-0.9236,-0.2223,0.6616,-0.7206,0.1578,0.1344
618,0.0,0.0,0.0,0.0,0.0,0.0,-0.3422,-0.9270,-0.2247,0.6618,-0.7210,0.1547,0.1351
619,0.0,0.0,0.0,0.0,0.0,0.0,-0.3334,-0.9246,-0.2228,0.6625,-0.7208,0.1514,0.1362
620,0.0,0.0,0.0,0.0,0.0,0.0,-0.3305,-0.9202,-0.2222,0.6638,-0.7201,0.1480,0.1377
621,0.0,0.0,0.0,0.0,0.0,0.0,-0.3344,-0.9344,-0.2035,0.6654,-0.7191,0.1448,0.1387
622,0.0,0.0,0.0,0.0,0.0,0.0,-0.3251,-0.9222,-0.2170,0.6665,-0.7184,0.1411,0.1404
623,0.0,0.0,0.0,0.0,0.0,0.0,-0.3344,-0.9179,-0.2018,0.6686,-0.7168,0.1383,0.1416
624,0.0,0.0,0.0,0.0,0.0,0.0,-0.3402,-0.9251,-0.2126,0.6695,-0.7162,0.1356,0.1430
625,0.0,0.0,0.0,0.0,0.0,0.0,-0.3447,-0.8979,-0.2111,0.6684,-0.7174,0.1350,0.1427
626,0.0,0.0,0.0,0.0,0.0,0.0,-0.3237,-0.9003,-0.2161,0.6674,-0.7185,0.1329,0.1438
627,0.0,0.0,0.0,0.0,0.0,0.0,-0.3251,-0.9330,-0.1982,0.6670,-0.7191,0.1317,0.1440
628,0.0,0.0,0.0,0.0,0.0,0.0,-0.3290,-0.9398,-0.1944,0.6662,-0.7200,0.1309,0.1438
629,0.0,0.0,0.0,0.0,0.0,0.0,-0.3120,-0.9199,-0.1990,0.6654,-0.7210,0.1299,0.1433
630,0.0,0.0,0.0,0.0,0.0,0.0,-0.3012,-0.9263,-0.1938,0.6644,-0.7222,0.1290,0.1424
631,0.0,0.0,0.0,0.0,0.0,0.0,-0.2997,-0.9393,-0.2057,0.6634,-0.7235,0.1281,0.1414
632,0.0,0.0,0.0,0.0,0.0,0.0,-0.3149,-0.9276,-0.2093,0.6623,-0.7249,0.1273,0.1402
633,0.0,0.0,0.0,0.0,0.0,0.0,-0.3280,-0.9295,-0.2117,0.6610,-0.7263,0.1269,0.1391
634,0.0,0.0,0.0,0.0,0.0,0.0,-0.3456,-0.9445,-0.2065,0.6604,-0.7271,0.1268,0.1381
635,0.0,0.0,0.0,0.0,0.0,0.0,-0.3714,-0.9679,-0.1966,0.6608,-0.7268,0.1279,0.1371
636,0.0,0.0,0.0,0.0,0.0,0.0,-0.3817,-0.9561,-0.2056,0.6610,-0.7264,0.1302,0.1359
637,0.0,0.0,0.0,0.0,0.0,0.0,-0.3627,-0.9309,-0.2125,0.6605,-0.7267,0.1320,0.1353
638,0.0,0.0,0.0,0.0,0.0,0.0,-0.3617,-0.9197,-0.2240,0.6592,-0.7276,0.1331,0.1354
639,0.0,0.0,0.0,0.0,0.0,0.0,-0.3622,-0.9148,-0.2186,0.6576,-0.7290,0.1332,0.1353
640,0.0,0.0,0.0,0.0,0.0,0.0,-0.3852,-0.9329,-0.1935,0.6573,-0.7293,0.1344,0.1344
641,0.0,0.0,0.0,0.0,0.0,0.0,-0.4110,-0.9333,-0.2006,0.6570,-0.7290,0.1381,0.1337
642,0.0,0.0,0.0,0.0,0.0,0.0,-0.3564,-0.8949,-0.2255,0.6565,-0.7289,0.1411,0.1336
643,0.0,0.0,0.0,0.0,0.0,0.0,-0.3368,-0.9017,-0.2238,0.6570,-0.7281,0.1428,0.1336
644,0.0,0.0,0.0,0.0,0.0,0.0,-0.3764,-0.9402,-0.1932,0.6583,-0.7265,0.1454,0.1330
645,0.0,0.0,0.0,0.0,0.0,0.0,-0.3627,-0.9120,-0.2039,0.6593,-0.7253,0.1473,0.1324
646,0.0,0.0,0.0,0.0,0.0,0.0,-0.3286,-0.9106,-0.2026,0.6613,-0.7235,0.1474,0.1318
647,0.0,0.0,0.0,0.0,0.0,0.0,-0.3379,-0.9004,-0.2063,0.6635,-0.7218,0.1460,0.1324
648,0.0,0.0,0.0,0.0,0.0,0.0,-0.3992,-1.0389,-0.1671,0.6679,-0.7176,0.1454,0.1334
649,0.0,0.0,0.0,0.0,0.0,0.0,-0.3793,-0.9266,-0.1895,0.6707,-0.7147,0.1460,0.1340
650,0.0,0.0,0.0,0.0,0.0,0.0,-0.3614,-0.8835,-0.1830,0.6725,-0.7131,0.1457,0.1342
651,0.0,0.0,0.0,0.0,0.0,0.0,-0.3535,-0.9034,-0.1776,0.6740,-0.7118,0.1454,0.1336
652,0.0,0.0,0.0,0.0,0.0,0.0,-0.3447,-0.9049,-0.1810,0.6748,-0.7113,0.1438,0.1343
653,0.0,0.0,0.0,0.0,0.0,0.0,-0.3238,-0.9313,-0.1559,0.6760,-0.7104,0.1418,0.1347
654,0.0,0.0,0.0,0.0,0.0,0.0,-0.3057,-0.9114,-0.1639,0.6767,-0.7102,0.1395,0.1349
655,0.0,0.0,0.0,0.0,0.0,0.0,-0.3008,-0.8861,-0.1776,0.6772,-0.7103,0.1363,0.1352
656,0.0,0.0,0.0,0.0,0.0,0.0,-0.2823,-0.8948,-0.1807,0.6768,-0.7114,0.1323,0.1353
657,0.0,0.0,0.0,0.0,0.0,0.0,-0.2896,-0.9026,-0.1755,0.6762,-0.7128,0.1280,0.1354
658,0.0,0.0,0.0,0.0,0.0,0.0,-0.2866,-0.9377,-0.1542,0.6760,-0.7137,0.1238,0.1355
659,0.0,0.0,0.0,0.0,0.0,0.0,-0.2998,-0.9576,-0.1526,0.6754,-0.7148,0.1207,0.1353
660,0.0,0.0,0.0,0.0,0.0,0.0,-0.3057,-0.9532,-0.1461,0.6747,-0.7159,0.1185,0.1349
661,0.0,0.0,0.0,0.0,0.0,0.0,-0.2997,-0.9941,-0.1430,0.6750,-0.7159,0.1170,0.1344
662,0.0,0.0,0.0,0.0,0.0,0.0,-0.2973,-1.0042,-0.1442,0.6758,-0.7155,0.1162,0.1337
663,0.0,0.0,0.0,0.0,0.0,0.0,-0.2973,-0.9950,-0.1464,0.6768,-0.7147,0.1157,0.1331
664,0.0,0.0,0.0,0.0,0.0,0.0,-0.2855,-0.9818,-0.1696,0.6778,-0.7139,0.1145,0.1332
665,0.0,0.0,0.0,0.0,0.0,0.0,-0.3051,-0.9555,-0.1700,0.6789,-0.7128,0.1158,0.1326
666,0.0,0.0,0.0,0.0,0.0,0.0,-0.3154,-0.9180,-0.1946,0.6790,-0.7124,0.1175,0.1326
667,0.0,0.0,0.0,0.0,0.0,0.0,-0.2832,-0.9077,-0.2087,0.6780,-0.7134,0.1180,0.1319
668,0.0,0.0,0.0,0.0,0.0,0.0,-0.2802,-0.9344,-0.2111,0.6760,-0.7154,0.1189,0.1304
669,0.0,0.0,0.0,0.0,0.0,0.0,-0.3173,-0.9295,-0.2098,0.6739,-0.7173,0.1208,0.1294
670,0.0,0.0,0.0,0.0,0.0,0.0,-0.3432,-0.8970,-0.2086,0.6713,-0.7196,0.1229,0.1284
671,0.0,0.0,0.0,0.0,0.0,0.0,-0.3471,-0.9237,-0.2071,0.6691,-0.7215,0.1252,0.1268
672,0.0,0.0,0.0,0.0,0.0,0.0,-0.3471,-0.9280,-0.2058,0.6673,-0.7230,0.1272,0.1254
673,0.0,0.0,0.0,0.0,0.0,0.0,-0.3588,-0.9246,-0.2071,0.6656,-0.7245,0.1291,0.1241
674,0.0,0.0,0.0,0.0,0.0,0.0,-0.3520,-0.9280,-0.2116,0.6645,-0.7254,0.1304,0.1233
675,0.0,0.0,0.0,0.0,0.0,0.0,-0.3490,-0.9168,-0.2206,0.6633,-0.7265,0.1312,0.1229
676,0.0,0.0,0.0,0.0,0.0,0.0,-0.3525,-0.9066,-0.2219,0.6620,-0.7275,0.1324,0.1225
677,0.0,0.0,0.0,0.0,0.0,0.0,-0.3549,-0.9124,-0.2225,0.6606,-0.7287,0.1334,0.1218
678,0.0,0.0,0.0,0.0,0.0,0.0,-0.3421,-0.9571,-0.2248,0.6598,-0.7292,0.1349,0.1214
679,0.0,0.0,0.0,0.0,0.0,0.0,-0.3431,-0.9614,-0.2355,0.6584,-0.7299,0.1372,0.1218
680,0.0,0.0,0.0,0.0,0.0,0.0,-0.3852,-0.9260,-0.2084,0.6564,-0.7310,0.1427,0.1202
681,0.0,0.0,0.0,0.0,0.0,0.0,-0.4154,-0.9347,-0.2031,0.6529,-0.7331,0.1512,0.1163
682,0.0,0.0,0.0,0.0,0.0,0.0,-0.3788,-0.9488,-0.2084,0.6497,-0.7347,0.1589,0.1134
683,0.0,0.0,0.0,0.0,0.0,0.0,-0.3104,-0.9274,-0.2478,0.6486,-0.7347,0.1630,0.1136
684,0.0,0.0,0.0,0.0,0.0,0.0,-0.2918,-0.8908,-0.2837,0.6475,-0.7351,0.1635,0.1165
685,0.0,0.0,0.0,0.0,0.0,0.0,-0.2967,-0.8811,-0.2738,0.6455,-0.7368,0.1610,0.1207
686,0.0,0.0,0.0,0.0,0.0,0.0,-0.3138,-0.9551,-0.2303,0.6461,-0.7361,0.1586,0.1246
687,0.0,0.0,0.0,0.0,0.0,0.0,-0.3660,-0.9916,-0.2058,0.6497,-0.7323,0.1574,0.1299
688,0.0,0.0,0.0,0.0,0.0,0.0,-0.3670,-0.9205,-0.2464,0.6529,-0.7284,0.1578,0.1350
689,0.0,0.0,0.0,0.0,0.0,0.0,-0.2787,-0.8554,-0.2817,0.6518,-0.7290,0.1572,0.1377
690,0.0,0.0,0.0,0.0,0.0,0.0,-0.2728,-0.9192,-0.2464,0.6491,-0.7317,0.1560,0.1378
691,0.0,0.0,0.0,0.0,0.0,0.0,-0.3563,-0.9575,-0.2257,0.6478,-0.7331,0.1563,0.1362
692,0.0,0.0,0.0,0.0,0.0,0.0,-0.3841,-0.9010,-0.2474,0.6467,-0.7339,0.1579,0.1352
693,0.0,0.0,0.0,0.0,0.0,0.0,-0.3979,-0.8332,-0.2918,0.6447,-0.7351,0.1606,0.1350
694,0.0,0.0,0.0,0.0,0.0,0.0,-0.3412,-0.8280,-0.2867,0.6439,-0.7357,0.1620,0.1341
695,0.0,0.0,0.0,0.0,0.0,0.0,-0.4213,-0.8737,-0.2622,0.6436,-0.7353,0.1649,0.1338
696,0.0,0.0,0.0,0.0,0.0,0.0,-0.4340,-0.8917,-0.2523,0.6442,-0.7341,0.1679,0.1341
697,0.0,0.0,0.0,0.0,0.0,0.0,-0.3998,-0.9054,-0.2347,0.6454,-0.7323,0.1708,0.1341
698,0.0,0.0,0.0,0.0,0.0,0.0,-0.3915,-0.9064,-0.2450,0.6457,-0.7315,0.1736,0.1341
699,0.0,0.0,0.0,0.0,0.0,0.0,-0.3715,-0.8548,-0.2627,0.6471,-0.7296,0.1749,0.1352
700,0.0,0.0,0.0,0.0,0.0,0.0,-0.3754,-0.8927,-0.2555,0.6490,-0.7277,0.1747,0.1365
701,0.0,0.0,0.0,0.0,0.0,0.0,-0.3734,-0.8811,-0.2539,0.6497,-0.7271,0.1748,0.1368
702,0.0,0.0,0.0,0.0,0.0,0.0,-0.3861,-0.9025,-0.2454,0.6509,-0.7257,0.1760,0.1367
703,0.0,0.0,0.0,0.0,0.0,0.0,-0.4056,-0.9039,-0.2395,0.6512,-0.7251,0.1768,0.1377
704,0.0,0.0,0.0,0.0,0.0,0.0,-0.3466,-0.8666,-0.2518,0.6510,-0.7251,0.1760,0.1395
705,0.0,0.0,0.0,0.0,0.0,0.0,-0.3227,-0.8501,-0.2629,0.6511,-0.7251,0.1755,0.1393
706,0.0,0.0,0.0,0.0,0.0,0.0,-0.3827,-0.9128,-0.2281,0.6518,-0.7247,0.1752,0.1390
707,0.0,0.0,0.0,0.0,0.0,0.0,-0.3690,-0.9132,-0.2384,0.6512,-0.7253,0.1737,0.1402
708,0.0,0.0,0.0,0.0,0.0,0.0,-0.3569,-0.8710,-0.2378,0.6505,-0.7263,0.1722,0.1406
709,0.0,0.0,0.0,0.0,0.0,0.0,-0.3842,-0.9080,-0.2174,0.6499,-0.7270,0.1711,0.1409
710,0.0,0.0,0.0,0.0,0.0,0.0,-0.4013,-0.9357,-0.2066,0.6505,-0.7266,0.1697,0.1416
711,0.0,0.0,0.0,0.0,0.0,0.0,-0.4042,-0.9246,-0.1971,0.6523,-0.7251,0.1689,0.1421
712,0.0,0.0,0.0,0.0,0.0,0.0,-0.4008,-0.9401,-0.1955,0.6545,-0.7233,0.1685,0.1414
713,0.0,0.0,0.0,0.0,0.0,0.0,-0.3993,-0.9479,-0.2024,0.6567,-0.7216,0.1679,0.1408
714,0.0,0.0,0.0,0.0,0.0,0.0,-0.4033,-0.9232,-0.1956,0.6592,-0.7196,0.1675,0.1401
715,0.0,0.0,0.0,0.0,0.0,0.0,-0.3945,-0.9105,-0.2071,0.6615,-0.7176,0.1675,0.1394
716,0.0,0.0,0.0,0.0,0.0,0.0,-0.3833,-0.8926,-0.2010,0.6634,-0.7160,0.1677,0.1383
717,0.0,0.0,0.0,0.0,0.0,0.0,-0.3780,-0.8927,-0.1821,0.6658,-0.7140,0.1678,0.1371
718,0.0,0.0,0.0,0.0,0.0,0.0,-0.3867,-0.9291,-0.1842,0.6679,-0.7123,0.1676,0.1357
719,0.0,0.0,0.0,0.0,0.0,0.0,-0.3960,-0.9048,-0.1774,0.6697,-0.7109,0.1677,0.1342
720,0.0,0.0,0.0,0.0,0.0,0.0,-0.3613,-0.8853,-0.2069,0.6703,-0.7106,0.1675,0.1328
721,0.0,0.0,0.0,0.0,0.0,0.0,-0.3730,-0.8902,-0.1977,0.6691,-0.7121,0.1678,0.1307
722,0.0,0.0,0.0,0.0,0.0,0.0,-0.3809,-0.8936,-0.1943,0.6675,-0.7138,0.1681,0.1290
723,0.0,0.0,0.0,0.0,0.0,0.0,-0.3989,-0.9427,-0.1814,0.6665,-0.7149,0.1690,0.1271
724,0.0,0.0,0.0,0.0,0.0,0.0,-0.4214,-0.9150,-0.1706,0.6658,-0.7151,0.1717,0.1263
725,0.0,0.0,0.0,0.0,0.0,0.0,-0.3510,-0.8994,-0.2120,0.6655,-0.7150,0.1729,0.1267
726,0.0,0.0,0.0,0.0,0.0,0.0,-0.3842,-0.9525,-0.1666,0.6662,-0.7139,0.1745,0.1268
727,0.0,0.0,0.0,0.0,0.0,0.0,-0.4174,-0.9621,-0.1714,0.6677,-0.7118,0.1765,0.1276
728,0.0,0.0,0.0,0.0,0.0,0.0,-0.3647,-0.8686,-0.2318,0.6684,-0.7103,0.1780,0.1304
729,0.0,0.0,0.0,0.0,0.0,0.0,-0.3623,-0.8804,-0.2141,0.6675,-0.7102,0.1797,0.1334
730,0.0,0.0,0.0,0.0,0.0,0.0,-0.3428,-0.8840,-0.1904,0.6672,-0.7099,0.1803,0.1355
731,0.0,0.0,0.0,0.0,0.0,0.0,-0.3233,-0.9196,-0.1722,0.6682,-0.7088,0.1791,0.1377
732,0.0,0.0,0.0,0.0,0.0,0.0,-0.3291,-0.9043,-0.2084,0.6682,-0.7087,0.1778,0.1397
733,0.0,0.0,0.0,0.0,0.0,0.0,-0.3355,-0.8790,-0.2035,0.6682,-0.7089,0.1768,0.1403
734,0.0,0.0,0.0,0.0,0.0,0.0,-0.3510,-0.9203,-0.1939,0.6684,-0.7090,0.1758,0.1404
735,0.0,0.0,0.0,0.0,0.0,0.0,-0.3559,-0.9004,-0.2033,0.6679,-0.7096,0.1752,0.1406
736,0.0,0.0,0.0,0.0,0.0,0.0,-0.3491,-0.8950,-0.2047,0.6680,-0.7097,0.1742,0.1407
737,0.0,0.0,0.0,0.0,0.0,0.0,-0.3452,-0.9105,-0.2103,0.6681,-0.7099,0.1734,0.1400
738,0.0,0.0,0.0,0.0,0.0,0.0,-0.3530,-0.9057,-0.2034,0.6683,-0.7102,0.1721,0.1393
739,0.0,0.0,0.0,0.0,0.0,0.0,-0.3671,-0.9057,-0.2033,0.6688,-0.7103,0.1708,0.1379
740,0.0,0.0,0.0,0.0,0.0,0.0,-0.3559,-0.8910,-0.2211,0.6689,-0.7109,0.1690,0.1364
741,0.0,0.0,0.0,0.0,0.0,0.0,-0.3935,-0.8842,-0.2174,0.6679,-0.7124,0.1676,0.1356
742,0.0,0.0,0.0,0.0,0.0,0.0,-0.3939,-0.9196,-0.2199,0.6659,-0.7147,0.1656,0.1355
743,0.0,0.0,0.0,0.0,0.0,0.0,-0.3774,-0.9036,-0.2202,0.6637,-0.7171,0.1635,0.1362
744,0.0,0.0,0.0,0.0,0.0,0.0,-0.3754,-0.9051,-0.2130,0.6617,-0.7192,0.1623,0.1364
745,0.0,0.0,0.0,0.0,0.0,0.0,-0.3798,-0.9284,-0.2211,0.6600,-0.7210,0.1612,0.1364
746,0.0,0.0,0.0,0.0,0.0,0.0,-0.3964,-0.9265,-0.2079,0.6591,-0.7218,0.1614,0.1363
747,0.0,0.0,0.0,0.0,0.0,0.0,-0.3847,-0.9187,-0.2209,0.6584,-0.7224,0.1615,0.1363
748,0.0,0.0,0.0,0.0,0.0,0.0,-0.3778,-0.9279,-0.2275,0.6581,-0.7227,0.1614,0.1361
749,0.0,0.0,0.0,0.0,0.0,0.0,-0.3876,-0.9167,-0.2258,0.6579,-0.7229,0.1618,0.1360
750,0.0,0.0,0.0,0.0,0.0,0.0,-0.3861,-0.9215,-0.2263,0.6578,-0.7228,0.1621,0.1363
751,0.0,0.0,0.0,0.0,0.0,0.0,-0.3851,-0.9206,-0.2249,0.6584,-0.7222,0.1627,0.1362
752,0.0,0.0,0.0,0.0,0.0,0.0,-0.3842,-0.9191,-0.2253,0.6588,-0.7217,0.1631,0.1363
753,0.0,0.0,0.0,0.0,0.0,0.0,-0.3837,-0.9162,-0.2224,0.6592,-0.7212,0.1637,0.1361
754,0.0,0.0,0.0,0.0,0.0,0.0,-0.3866,-0.9040,-0.2289,0.6593,-0.7210,0.1650,0.1354
755,0.0,0.0,0.0,0.0,0.0,0.0,-0.3730,-0.8919,-0.2312,0.6592,-0.7209,0.1661,0.1352
756,0.0,0.0,0.0,0.0,0.0,0.0,-0.3754,-0.9085,-0.2252,0.6593,-0.7206,0.1670,0.1347
757,0.0,0.0,0.0,0.0,0.0,0.0,-0.3949,-0.9182,-0.2204,0.6588,-0.7209,0.1683,0.1341
758,0.0,0.0,0.0,0.0,0.0,0.0,-0.3886,-0.9060,-0.2319,0.6577,-0.7216,0.1701,0.1335
759,0.0,0.0,0.0,0.0,0.0,0.0,-0.4130,-0.9142,-0.2329,0.6556,-0.7226,0.1743,0.1328
760,0.0,0.0,0.0,0.0,0.0,0.0,-0.4144,-0.8834,-0.2571,0.6518,-0.7249,0.1787,0.1332
761,0.0,0.0,0.0,0.0,0.0,0.0,-0.3876,-0.8073,-0.3362,0.6458,-0.7289,0.1827,0.1350
762,0.0,0.0,0.0,0.0,0.0,0.0,-0.4292,-0.8354,-0.2479,0.6426,-0.7299,0.1890,0.1365
763,0.0,0.0,0.0,0.0,0.0,0.0,-0.4203,-0.9518,-0.1960,0.6419,-0.7290,0.1939,0.1376
764,0.0,0.0,0.0,0.0,0.0,0.0,-0.4056,-0.9380,-0.2309,0.6408,-0.7286,0.1964,0.1408
765,0.0,0.0,0.0,0.0,0.0,0.0,-0.3460,-0.9186,-0.2494,0.6401,-0.7286,0.1984,0.1415
766,0.0,0.0,0.0,0.0,0.0,0.0,-0.3573,-0.8986,-0.2533,0.6402,-0.7278,0.2007,0.1417
767,0.0,0.0,0.0,0.0,0.0,0.0,-0.3861,-0.8874,-0.2593,0.6409,-0.7266,0.2038,0.1408
768,0.0,0.0,0.0,0.0,0.0,0.0,-0.3251,-0.8645,-0.2801,0.6410,-0.7266,0.2051,0.1384
769,0.0,0.0,0.0,0.0,0.0,0.0,-0.3397,-0.8819,-0.2838,0.6411,-0.7268,0.2058,0.1359
770,0.0,0.0,0.0,0.0,0.0,0.0,-0.4056,-0.9087,-0.2620,0.6412,-0.7271,0.2057,0.1336
771,0.0,0.0,0.0,0.0,0.0,0.0,-0.4086,-0.9069,-0.2250,0.6430,-0.7261,0.2059,0.1300
772,0.0,0.0,0.0,0.0,0.0,0.0,-0.4022,-0.9318,-0.2177,0.6462,-0.7240,0.2057,0.1262
773,0.0,0.0,0.0,0.0,0.0,0.0,-0.4295,-0.9278,-0.2277,0.6506,-0.7204,0.2058,0.1241
774,0.0,0.0,0.0,0.0,0.0,0.0,-0.4242,-0.8982,-0.2238,0.6558,-0.7157,0.2055,0.1239
775,0.0,0.0,0.0,0.0,0.0,0.0,-0.4286,-0.8996,-0.2267,0.6601,-0.7119,0.2053,0.1242
776,0.0,0.0,0.0,0.0,0.0,0.0,-0.4038,-0.8671,-0.2355,0.6630,-0.7092,0.2048,0.1245
777,0.0,0.0,0.0,0.0,0.0,0.0,-0.3984,-0.8589,-0.2300,0.6649,-0.7077,0.2031,0.1259
778,0.0,0.0,0.0,0.0,0.0,0.0,-0.4009,-0.8633,-0.2136,0.6659,-0.7072,0.2006,0.1271
779,0.0,0.0,0.0,0.0,0.0,0.0,-0.3960,-0.8833,-0.2003,0.6673,-0.7065,0.1977,0.1281
780,0.0,0.0,0.0,0.0,0.0,0.0,-0.3764,-0.8935,-0.2050,0.6680,-0.7063,0.1956,0.1289
781,0.0,0.0,0.0,0.0,0.0,0.0,-0.3936,-0.8605,-0.2072,0.6683,-0.7063,0.1942,0.1295
782,0.0,0.0,0.0,0.0,0.0,0.0,-0.4033,-0.8887,-0.1916,0.6687,-0.7064,0.1926,0.1296
783,0.0,0.0,0.0,0.0,0.0,0.0,-0.3906,-0.9042,-0.1973,0.6684,-0.7073,0.1904,0.1298
784,0.0,0.0,0.0,0.0,0.0,0.0,-0.3638,-0.8775,-0.2121,0.6679,-0.7080,0.1888,0.1300
785,0.0,0.0,0.0,0.0,0.0,0.0,-0.3925,-0.9008,-0.2099,0.6676,-0.7088,0.1872,0.1297
786,0.0,0.0,0.0,0.0,0.0,0.0,-0.4165,-0.8746,-0.1962,0.6673,-0.7093,0.1868,0.1295
787,0.0,0.0,0.0,0.0,0.0,0.0,-0.3866,-0.9168,-0.2151,0.6653,-0.7114,0.1858,0.1296
788,0.0,0.0,0.0,0.0,0.0,0.0,-0.3793,-0.9007,-0.2226,0.6621,-0.7145,0.1851,0.1298
789,0.0,0.0,0.0,0.0,0.0,0.0,-0.4214,-0.9028,-0.1918,0.6601,-0.7161,0.1856,0.1302
790,0.0,0.0,0.0,0.0,0.0,0.0,-0.4071,-0.9285,-0.2011,0.6588,-0.7172,0.1853,0.1315
791,0.0,0.0,0.0,0.0,0.0,0.0,-0.3915,-0.9026,-0.2313,0.6578,-0.7179,0.1850,0.1330
792,0.0,0.0,0.0,0.0,0.0,0.0,-0.4042,-0.8904,-0.2305,0.6568,-0.7185,0.1854,0.1343
793,0.0,0.0,0.0,0.0,0.0,0.0,-0.3920,-0.8894,-0.2359,0.6557,-0.7191,0.1859,0.1359
794,0.0,0.0,0.0,0.0,0.0,0.0,-0.4047,-0.8982,-0.2239,0.6547,-0.7196,0.1860,0.1375
795,0.0,0.0,0.0,0.0,0.0,0.0,-0.4115,-0.9181,-0.2203,0.6542,-0.7197,0.1860,0.1396
796,0.0,0.0,0.0,0.0,0.0,0.0,-0.4018,-0.8899,-0.2349,0.6531,-0.7204,0.1856,0.1418
797,0.0,0.0,0.0,0.0,0.0,0.0,-0.3994,-0.8729,-0.2385,0.6523,-0.7207,0.1859,0.1434
798,0.0,0.0,0.0,0.0,0.0,0.0,-0.3983,-0.8889,-0.2422,0.6517,-0.7208,0.1862,0.1451
799,0.0,0.0,0.0,0.0,0.0,0.0,-0.4101,-0.8821,-0.2391,0.6508,-0.7213,0.1863,0.1467
800,0.0,0.0,0.0,0.0,0.0,0.0,-0.4150,-0.8791,-0.2434,0.6495,-0.7221,0.1866,0.1479
801,0.0,0.0,0.0,0.0,0.0,0.0,-0.4115,-0.8816,-0.2410,0.6483,-0.7228,0.1869,0.1495
802,0.0,0.0,0.0,0.0,0.0,0.0,-0.4115,-0.8889,-0.2349,0.6474,-0.7233,0.1868,0.1511
803,0.0,0.0,0.0,0.0,0.0,0.0,-0.4106,-0.8889,-0.2324,0.6472,-0.7232,0.1863,0.1528
804,0.0,0.0,0.0,0.0,0.0,0.0,-0.4130,-0.8894,-0.2349,0.6479,-0.7224,0.1861,0.1541
805,0.0,0.0,0.0,0.0,0.0,0.0,-0.4076,-0.8835,-0.2503,0.6481,-0.7219,0.1863,0.1552
806,0.0,0.0,0.0,0.0,0.0,0.0,-0.3974,-0.8606,-0.2573,0.6472,-0.7224,0.1870,0.1558
807,0.0,0.0,0.0,0.0,0.0,0.0,-0.4174,-0.8864,-0.2455,0.6465,-0.7229,0.1880,0.1555
808,0.0,0.0,0.0,0.0,0.0,0.0,-0.4437,-0.8990,-0.2353,0.6455,-0.7234,0.1895,0.1552
809,0.0,0.0,0.0,0.0,0.0,0.0,-0.4227,-0.8971,-0.2403,0.6445,-0.7239,0.1913,0.1548
810,0.0,0.0,0.0,0.0,0.0,0.0,-0.4008,-0.8865,-0.2422,0.6438,-0.7244,0.1927,0.1536
811,0.0,0.0,0.0,0.0,0.0,0.0,-0.4213,-0.8835,-0.2469,0.6431,-0.7249,0.1944,0.1520
812,0.0,0.0,0.0,0.0,0.0,0.0,-0.4486,-0.8702,-0.2620,0.6437,-0.7241,0.1969,0.1504
813,0.0,0.0,0.0,0.0,0.0,0.0,-0.4759,-0.9375,-0.2076,0.6459,-0.7217,0.1993,0.1490
814,0.0,0.0,0.0,0.0,0.0,0.0,-0.4125,-0.9469,-0.1994,0.6490,-0.7192,0.1999,0.1470
815,0.0,0.0,0.0,0.0,0.0,0.0,-0.4041,-0.9761,-0.1932,0.6530,-0.7160,0.1994,0.1452
816,0.0,0.0,0.0,0.0,0.0,0.0,-0.4301,-0.9152,-0.2192,0.6572,-0.7120,0.2009,0.1441
817,0.0,0.0,0.0,0.0,0.0,0.0,-0.3941,-0.8282,-0.2446,0.6595,-0.7101,0.2009,0.1430
818,0.0,0.0,0.0,0.0,0.0,0.0,-0.3428,-0.8609,-0.2386,0.6611,-0.7096,0.1998,0.1398
819,0.0,0.0,0.0,0.0,0.0,0.0,-0.3760,-0.8731,-0.2119,0.6631,-0.7088,0.1984,0.1360
820,0.0,0.0,0.0,0.0,0.0,0.0,-0.3716,-0.8781,-0.1926,0.6661,-0.7075,0.1964,0.1314
821,0.0,0.0,0.0,0.0,0.0,0.0,-0.3868,-0.8620,-0.2010,0.6675,-0.7074,0.1945,0.1271
822,0.0,0.0,0.0,0.0,0.0,0.0,-0.4472,-0.9251,-0.1823,0.6697,-0.7063,0.1931,0.1239
823,0.0,0.0,0.0,0.0,0.0,0.0,-0.4628,-0.9445,-0.1874,0.6709,-0.7058,0.1916,0.1226
824,0.0,0.0,0.0,0.0,0.0,0.0,-0.4493,-0.8587,-0.1578,0.6734,-0.7035,0.1917,0.1219
825,0.0,0.0,0.0,0.0,0.0,0.0,-0.4111,-0.9056,-0.2084,0.6766,-0.7006,0.1908,0.1222
826,0.0,0.0,0.0,0.0,0.0,0.0,-0.4190,-0.8951,-0.1737,0.6796,-0.6981,0.1885,0.1240
827,0.0,0.0,0.0,0.0,0.0,0.0,-0.3892,-0.9015,-0.1642,0.6825,-0.6955,0.1854,0.1266
828,0.0,0.0,0.0,0.0,0.0,0.0,-0.3628,-0.9171,-0.1622,0.6847,-0.6936,0.1827,0.1296
829,0.0,0.0,0.0,0.0,0.0,0.0,-0.3443,-0.9027,-0.1509,0.6865,-0.6920,0.1796,0.1327
830,0.0,0.0,0.0,0.0,0.0,0.0,-0.3355,-0.8958,-0.1586,0.6872,-0.6916,0.1763,0.1356
831,0.0,0.0,0.0,0.0,0.0,0.0,-0.3238,-0.9041,-0.1568,0.6869,-0.6922,0.1730,0.1381
832,0.0,0.0,0.0,0.0,0.0,0.0,-0.3213,-0.9080,-0.1594,0.6863,-0.6930,0.1702,0.1403
833,0.0,0.0,0.0,0.0,0.0,0.0,-0.3374,-0.9172,-0.1599,0.6855,-0.6940,0.1680,0.1425
834,0.0,0.0,0.0,0.0,0.0,0.0,-0.3326,-0.9109,-0.1564,0.6839,-0.6956,0.1664,0.1441
835,0.0,0.0,0.0,0.0,0.0,0.0,-0.3223,-0.9293,-0.1660,0.6821,-0.6976,0.1650,0.1447
836,0.0,0.0,0.0,0.0,0.0,0.0,-0.3623,-0.9701,-0.1520,0.6801,-0.6997,0.1638,0.1451
837,0.0,0.0,0.0,0.0,0.0,0.0,-0.3794,-0.9555,-0.1550,0.6784,-0.7013,0.1635,0.1457
838,0.0,0.0,0.0,0.0,0.0,0.0,-0.3427,-0.9292,-0.1825,0.6767,-0.7029,0.1634,0.1458
839,0.0,0.0,0.0,0.0,0.0,0.0,-0.3457,-0.9209,-0.1876,0.6750,-0.7046,0.1641,0.1451
840,0.0,0.0,0.0,0.0,0.0,0.0,-0.3545,-0.9189,-0.1895,0.6730,-0.7064,0.1658,0.1437
841,0.0,0.0,0.0,0.0,0.0,0.0,-0.3535,-0.9023,-0.2043,0.6703,-0.7088,0.1680,0.1418
842,0.0,0.0,0.0,0.0,0.0,0.0,-0.3505,-0.9164,-0.1997,0.6666,-0.7121,0.1715,0.1383
843,0.0,0.0,0.0,0.0,0.0,0.0,-0.3330,-0.8842,-0.2342,0.6616,-0.7168,0.1741,0.1347
844,0.0,0.0,0.0,0.0,0.0,0.0,-0.3247,-0.8497,-0.2429,0.6570,-0.7211,0.1768,0.1306
845,0.0,0.0,0.0,0.0,0.0,0.0,-0.3696,-0.8919,-0.2288,0.6537,-0.7240,0.1815,0.1250
846,0.0,0.0,0.0,0.0,0.0,0.0,-0.4120,-0.9049,-0.2366,0.6508,-0.7261,0.1862,0.1202
847,0.0,0.0,0.0,0.0,0.0,0.0,-0.4017,-0.8947,-0.2486,0.6492,-0.7272,0.1902,0.1162
848,0.0,0.0,0.0,0.0,0.0,0.0,-0.4193,-0.8969,-0.2685,0.6476,-0.7281,0.1937,0.1141
849,0.0,0.0,0.0,0.0,0.0,0.0,-0.4261,-0.8951,-0.2534,0.6465,-0.7283,0.1971,0.1130
850,0.0,0.0,0.0,0.0,0.0,0.0,-0.4115,-0.9015,-0.2385,0.6472,-0.7271,0.1996,0.1126
851,0.0,0.0,0.0,0.0,0.0,0.0,-0.4183,-0.8819,-0.2755,0.6470,-0.7265,0.2030,0.1116
852,0.0,0.0,0.0,0.0,0.0,0.0,-0.4086,-0.8820,-0.2532,0.6476,-0.7251,0.2065,0.1104
853,0.0,0.0,0.0,0.0,0.0,0.0,-0.3787,-0.9092,-0.2583,0.6494,-0.7233,0.2069,0.1111
854,0.0,0.0,0.0,0.0,0.0,0.0,-0.4022,-0.8916,-0.2700,0.6513,-0.7214,0.2060,0.1135
855,0.0,0.0,0.0,0.0,0.0,0.0,-0.4277,-0.8801,-0.2395,0.6535,-0.7190,0.2064,0.1154
856,0.0,0.0,0.0,0.0,0.0,0.0,-0.4301,-0.8917,-0.2436,0.6550,-0.7174,0.2066,0.1165
857,0.0,0.0,0.0,0.0,0.0,0.0,-0.4540,-0.8942,-0.2279,0.6561,-0.7161,0.2068,0.1185
858,0.0,0.0,0.0,0.0,0.0,0.0,-0.4379,-0.8929,-0.2134,0.6573,-0.7148,0.2067,0.1199
859,0.0,0.0,0.0,0.0,0.0,0.0,-0.4316,-0.8739,-0.2267,0.6582,-0.7139,0.2062,0.1208
860,0.0,0.0,0.0,0.0,0.0,0.0,-0.4614,-0.8826,-0.2233,0.6590,-0.7127,0.2074,0.1215
861,0.0,0.0,0.0,0.0,0.0,0.0,-0.4409,-0.9110,-0.1942,0.6598,-0.7115,0.2086,0.1219
862,0.0,0.0,0.0,0.0,0.0,0.0,-0.4242,-0.9084,-0.2123,0.6603,-0.7107,0.2090,0.1231
863,0.0,0.0,0.0,0.0,0.0,0.0,-0.4448,-0.9251,-0.1886,0.6617,-0.7092,0.2089,0.1249
864,0.0,0.0,0.0,0.0,0.0,0.0,-0.4399,-0.9329,-0.1766,0.6640,-0.7066,0.2094,0.1264
865,0.0,0.0,0.0,0.0,0.0,0.0,-0.4203,-0.9480,-0.1790,0.6670,-0.7036,0.2099,0.1261
866,0.0,0.0,0.0,0.0,0.0,0.0,-0.4379,-0.9368,-0.1728,0.6698,-0.7007,0.2108,0.1260
867,0.0,0.0,0.0,0.0,0.0,0.0,-0.3818,-0.8799,-0.2159,0.6711,-0.6999,0.2098,0.1253
868,0.0,0.0,0.0,0.0,0.0,0.0,-0.3691,-0.8687,-0.2197,0.6720,-0.6999,0.2078,0.1240
869,0.0,0.0,0.0,0.0,0.0,0.0,-0.3862,-0.8663,-0.2113,0.6733,-0.6991,0.2061,0.1240
870,0.0,0.0,0.0,0.0,0.0,0.0,-0.3814,-0.8586,-0.1956,0.6738,-0.6993,0.2044,0.1231
871,0.0,0.0,0.0,0.0,0.0,0.0,-0.3428,-0.8586,-0.2065,0.6732,-0.7010,0.2013,0.1218
872,0.0,0.0,0.0,0.0,0.0,0.0,-0.3492,-0.8811,-0.1772,0.6735,-0.7019,0.1973,0.1217
873,0.0,0.0,0.0,0.0,0.0,0.0,-0.3697,-0.9161,-0.1621,0.6742,-0.7022,0.1939,0.1213
874,0.0,0.0,0.0,0.0,0.0,0.0,-0.3833,-0.9107,-0.1712,0.6742,-0.7027,0.1919,0.1217
875,0.0,0.0,0.0,0.0,0.0,0.0,-0.3487,-0.8962,-0.1702,0.6738,-0.7036,0.1896,0.1224
876,0.0,0.0,0.0,0.0,0.0,0.0,-0.3339,-0.9471,-0.1896,0.6745,-0.7037,0.1859,0.1234
877,0.0,0.0,0.0,0.0,0.0,0.0,-0.3677,-0.9239,-0.1691,0.6751,-0.7037,0.1834,0.1244
878,0.0,0.0,0.0,0.0,0.0,0.0,-0.3496,-0.9200,-0.1764,0.6752,-0.7040,0.1822,0.1240
879,0.0,0.0,0.0,0.0,0.0,0.0,-0.3017,-0.9247,-0.2074,0.6745,-0.7053,0.1794,0.1241
880,0.0,0.0,0.0,0.0,0.0,0.0,-0.3261,-0.9131,-0.1998,0.6734,-0.7069,0.1769,0.1246
881,0.0,0.0,0.0,0.0,0.0,0.0,-0.3383,-0.9267,-0.1927,0.6720,-0.7087,0.1752,0.1243
882,0.0,0.0,0.0,0.0,0.0,0.0,-0.3359,-0.9281,-0.1985,0.6712,-0.7098,0.1737,0.1244
883,0.0,0.0,0.0,0.0,0.0,0.0,-0.3412,-0.9261,-0.2004,0.6707,-0.7105,0.1727,0.1243
884,0.0,0.0,0.0,0.0,0.0,0.0,-0.3446,-0.9324,-0.2083,0.6701,-0.7113,0.1718,0.1244
885,0.0,0.0,0.0,0.0,0.0,0.0,-0.3529,-0.9261,-0.2120,0.6692,-0.7123,0.1711,0.1246
886,0.0,0.0,0.0,0.0,0.0,0.0,-0.3539,-0.9285,-0.2077,0.6685,-0.7131,0.1707,0.1243
887,0.0,0.0,0.0,0.0,0.0,0.0,-0.3554,-0.9212,-0.2158,0.6680,-0.7136,0.1708,0.1241
888,0.0,0.0,0.0,0.0,0.0,0.0,-0.3686,-0.9202,-0.2138,0.6669,-0.7145,0.1711,0.1239
889,0.0,0.0,0.0,0.0,0.0,0.0,-0.3607,-0.9138,-0.2220,0.6659,-0.7155,0.1715,0.1235
890,0.0,0.0,0.0,0.0,0.0,0.0,-0.3666,-0.8988,-0.2197,0.6651,-0.7162,0.1720,0.1231
891,0.0,0.0,0.0,0.0,0.0,0.0,-0.3725,-0.9105,-0.2121,0.6645,-0.7165,0.1727,0.1232
892,0.0,0.0,0.0,0.0,0.0,0.0,-0.3656,-0.9183,-0.2079,0.6646,-0.7163,0.1734,0.1230
893,0.0,0.0,0.0,0.0,0.0,0.0,-0.3525,-0.9179,-0.2031,0.6651,-0.7160,0.1735,0.1222
894,0.0,0.0,0.0,0.0,0.0,0.0,-0.3632,-0.9403,-0.1787,0.6668,-0.7146,0.1734,0.1211
895,0.0,0.0,0.0,0.0,0.0,0.0,-0.3803,-0.9252,-0.1880,0.6690,-0.7125,0.1740,0.1199
896,0.0,0.0,0.0,0.0,0.0,0.0,-0.3813,-0.9091,-0.2023,0.6709,-0.7106,0.1756,0.1189
897,0.0,0.0,0.0,0.0,0.0,0.0,-0.3564,-0.8769,-0.2340,0.6711,-0.7103,0.1761,0.1188
898,0.0,0.0,0.0,0.0,0.0,0.0,-0.3564,-0.8804,-0.2107,0.6710,-0.7105,0.1762,0.1180
899,0.0,0.0,0.0,0.0,0.0,0.0,-0.3661,-0.9032,-0.2183,0.6707,-0.7107,0.1768,0.1176
900,0.0,0.0,0.0,0.0,0.0,0.0,-0.3784,-0.9134,-0.2039,0.6708,-0.7105,0.1774,0.1175
901,0.0,0.0,0.0,0.0,0.0,0.0,-0.3710,-0.9187,-0.2191,0.6702,-0.7109,0.1777,0.1178
902,0.0,0.0,0.0,0.0,0.0,0.0,-0.3720,-0.9192,-0.2118,0.6695,-0.7114,0.1783,0.1177
903,0.0,0.0,0.0,0.0,0.0,0.0,-0.3808,-0.9260,-0.2094,0.6687,-0.7122,0.1786,0.1173
904,0.0,0.0,0.0,0.0,0.0,0.0,-0.3964,-0.9250,-0.2054,0.6681,-0.7126,0.1793,0.1170
905,0.0,0.0,0.0,0.0,0.0,0.0,-0.3901,-0.9270,-0.1977,0.6682,-0.7124,0.1801,0.1167
906,0.0,0.0,0.0,0.0,0.0,0.0,-0.3852,-0.9216,-0.2156,0.6682,-0.7121,0.1811,0.1169
907,0.0,0.0,0.0,0.0,0.0,0.0,-0.3725,-0.9002,-0.2236,0.6684,-0.7115,0.1824,0.1174
908,0.0,0.0,0.0,0.0,0.0,0.0,-0.3530,-0.9032,-0.2238,0.6686,-0.7111,0.1825,0.1182
909,0.0,0.0,0.0,0.0,0.0,0.0,-0.3480,-0.9202,-0.2241,0.6687,-0.7111,0.1815,0.1193
910,0.0,0.0,0.0,0.0,0.0,0.0,-0.3544,-0.9056,-0.2194,0.6682,-0.7117,0.1804,0.1207
911,0.0,0.0,0.0,0.0,0.0,0.0,-0.3412,-0.8992,-0.2340,0.6664,-0.7136,0.1785,0.1222
912,0.0,0.0,0.0,0.0,0.0,0.0,-0.3173,-0.8904,-0.2519,0.6632,-0.7169,0.1761,0.1233
913,0.0,0.0,0.0,0.0,0.0,0.0,-0.2905,-0.8638,-0.2497,0.6587,-0.7218,0.1735,0.1224
914,0.0,0.0,0.0,0.0,0.0,0.0,-0.3334,-0.8618,-0.2504,0.6541,-0.7263,0.1725,0.1220
915,0.0,0.0,0.0,0.0,0.0,0.0,-0.3406,-0.9224,-0.2543,0.6520,-0.7288,0.1692,0.1231
916,0.0,0.0,0.0,0.0,0.0,0.0,-0.3387,-0.9084,-0.2526,0.6487,-0.7327,0.1653,0.1228
917,0.0,0.0,0.0,0.0,0.0,0.0,-0.3549,-0.8764,-0.2388,0.6482,-0.7334,0.1640,0.1230
918,0.0,0.0,0.0,0.0,0.0,0.0,-0.3162,-0.9214,-0.2627,0.6486,-0.7337,0.1604,0.1235
919,0.0,0.0,0.0,0.0,0.0,0.0,-0.3314,-0.9176,-0.2543,0.6489,-0.7341,0.1570,0.1240
920,0.0,0.0,0.0,0.0,0.0,0.0,-0.3431,-0.9161,-0.2469,0.6509,-0.7326,0.1546,0.1250
921,0.0,0.0,0.0,0.0,0.0,0.0,-0.3646,-0.9341,-0.2383,0.6538,-0.7304,0.1522,0.1260
922,0.0,0.0,0.0,0.0,0.0,0.0,-0.3651,-0.9391,-0.2195,0.6565,-0.7283,0.1502,0.1265
923,0.0,0.0,0.0,0.0,0.0,0.0,-0.3724,-0.9712,-0.2020,0.6591,-0.7262,0.1490,0.1267
924,0.0,0.0,0.0,0.0,0.0,0.0,-0.3773,-0.9834,-0.1959,0.6617,-0.7239,0.1482,0.1275
925,0.0,0.0,0.0,0.0,0.0,0.0,-0.3866,-0.9493,-0.2181,0.6634,-0.7221,0.1491,0.1276
926,0.0,0.0,0.0,0.0,0.0,0.0,-0.3783,-0.9513,-0.2079,0.6653,-0.7199,0.1515,0.1269
927,0.0,0.0,0.0,0.0,0.0,0.0,-0.3650,-0.9760,-0.2133,0.6667,-0.7182,0.1534,0.1267
928,0.0,0.0,0.0,0.0,0.0,0.0,-0.3632,-0.9313,-0.2232,0.6679,-0.7167,0.1555,0.1265
929,0.0,0.0,0.0,0.0,0.0,0.0,-0.3700,-0.9265,-0.2148,0.6692,-0.7150,0.1586,0.1257
930,0.0,0.0,0.0,0.0,0.0,0.0,-0.3607,-0.9211,-0.2231,0.6699,-0.7139,0.1612,0.1250
931,0.0,0.0,0.0,0.0,0.0,0.0,-0.3309,-0.9231,-0.2252,0.6709,-0.7127,0.1616,0.1257
932,0.0,0.0,0.0,0.0,0.0,0.0,-0.3700,-0.9592,-0.1887,0.6730,-0.7104,0.1628,0.1265
933,0.0,0.0,0.0,0.0,0.0,0.0,-0.3930,-0.9344,-0.1828,0.6748,-0.7078,0.1663,0.1267
934,0.0,0.0,0.0,0.0,0.0,0.0,-0.3559,-0.8784,-0.2189,0.6761,-0.7056,0.1698,0.1270
935,0.0,0.0,0.0,0.0,0.0,0.0,-0.3545,-0.8927,-0.1939,0.6772,-0.7038,0.1731,0.1268
936,0.0,0.0,0.0,0.0,0.0,0.0,-0.3623,-0.9228,-0.1818,0.6792,-0.7010,0.1770,0.1261
937,0.0,0.0,0.0,0.0,0.0,0.0,-0.3291,-0.8927,-0.1989,0.6810,-0.6987,0.1799,0.1252
938,0.0,0.0,0.0,0.0,0.0,0.0,-0.2847,-0.8416,-0.2304,0.6821,-0.6976,0.1806,0.1244
939,0.0,0.0,0.0,0.0,0.0,0.0,-0.2764,-0.8401,-0.2416,0.6811,-0.6991,0.1801,0.1225
940,0.0,0.0,0.0,0.0,0.0,0.0,-0.2954,-0.8450,-0.2284,0.6792,-0.7015,0.1786,0.1212
941,0.0,0.0,0.0,0.0,0.0,0.0,-0.3247,-0.8567,-0.2158,0.6770,-0.7043,0.1767,0.1204
942,0.0,0.0,0.0,0.0,0.0,0.0,-0.3042,-0.9043,-0.2129,0.6751,-0.7068,0.1742,0.1197
943,0.0,0.0,0.0,0.0,0.0,0.0,-0.2939,-0.8925,-0.2366,0.6732,-0.7096,0.1705,0.1193
944,0.0,0.0,0.0,0.0,0.0,0.0,-0.3168,-0.8871,-0.2329,0.6709,-0.7126,0.1678,0.1182
945,0.0,0.0,0.0,0.0,0.0,0.0,-0.3041,-0.8895,-0.2462,0.6688,-0.7153,0.1653,0.1168
946,0.0,0.0,0.0,0.0,0.0,0.0,-0.2977,-0.8968,-0.2507,0.6657,-0.7191,0.1631,0.1148
947,0.0,0.0,0.0,0.0,0.0,0.0,-0.2958,-0.8935,-0.2400,0.6627,-0.7228,0.1603,0.1125
948,0.0,0.0,0.0,0.0,0.0,0.0,-0.2948,-0.9299,-0.2367,0.6601,-0.7264,0.1571,0.1097
949,0.0,0.0,0.0,0.0,0.0,0.0,-0.3128,-0.9440,-0.2296,0.6581,-0.7291,0.1548,0.1065
950,0.0,0.0,0.0,0.0,0.0,0.0,-0.3099,-0.9308,-0.2464,0.6558,-0.7322,0.1521,0.1033
951,0.0,0.0,0.0,0.0,0.0,0.0,-0.3206,-0.9405,-0.2441,0.6538,-0.7348,0.1501,0.0997
952,0.0,0.0,0.0,0.0,0.0,0.0,-0.3338,-0.9604,-0.2356,0.6523,-0.7371,0.1482,0.0965
953,0.0,0.0,0.0,0.0,0.0,0.0,-0.3494,-0.9584,-0.2364,0.6502,-0.7395,0.1465,0.0942
954,0.0,0.0,0.0,0.0,0.0,0.0,-0.3562,-0.9799,-0.2168,0.6505,-0.7396,0.1463,0.0916
955,0.0,0.0,0.0,0.0,0.0,0.0,-0.3948,-1.0066,-0.2137,0.6519,-0.7382,0.1484,0.0896
956,0.0,0.0,0.0,0.0,0.0,0.0,-0.3841,-0.9633,-0.2256,0.6534,-0.7365,0.1503,0.0897
957,0.0,0.0,0.0,0.0,0.0,0.0,-0.3303,-0.9496,-0.2519,0.6550,-0.7350,0.1510,0.0894
958,0.0,0.0,0.0,0.0,0.0,0.0,-0.3421,-0.9584,-0.2491,0.6557,-0.7343,0.1512,0.0893
959,0.0,0.0,0.0,0.0,0.0,0.0,-0.3411,-0.9385,-0.2522,0.6553,-0.7346,0.1512,0.0899
960,0.0,0.0,0.0,0.0,0.0,0.0,-0.3387,-0.9415,-0.2386,0.6553,-0.7345,0.1517,0.0904
961,0.0,0.0,0.0,0.0,0.0,0.0,-0.3460,-0.9444,-0.2284,0.6555,-0.7340,0.1521,0.0915
962,0.0,0.0,0.0,0.0,0.0,0.0,-0.3246,-0.9269,-0.2350,0.6553,-0.7341,0.1519,0.0926
963,0.0,0.0,0.0,0.0,0.0,0.0,-0.3114,-0.9309,-0.2255,0.6554,-0.7340,0.1514,0.0934
964,0.0,0.0,0.0,0.0,0.0,0.0,-0.3046,-0.9309,-0.2328,0.6553,-0.7342,0.1504,0.0942
965,0.0,0.0,0.0,0.0,0.0,0.0,-0.2968,-0.9251,-0.2245,0.6552,-0.7344,0.1496,0.0945
966,0.0,0.0,0.0,0.0,0.0,0.0,-0.2860,-0.9324,-0.2315,0.6551,-0.7346,0.1485,0.0955
967,0.0,0.0,0.0,0.0,0.0,0.0,-0.2782,-0.9246,-0.2348,0.6555,-0.7344,0.1472,0.0965
968,0.0,0.0,0.0,0.0,0.0,0.0,-0.2748,-0.9290,-0.2295,0.6563,-0.7337,0.1463,0.0972
969,0.0,0.0,0.0,0.0,0.0,0.0,-0.2694,-0.9358,-0.2277,0.6570,-0.7332,0.1456,0.0978
970,0.0,0.0,0.0,0.0,0.0,0.0,-0.2655,-0.9300,-0.2242,0.6580,-0.7324,0.1449,0.0979
971,0.0,0.0,0.0,0.0,0.0,0.0,-0.2684,-0.9304,-0.2388,0.6587,-0.7320,0.1441,0.0979
972,0.0,0.0,0.0,0.0,0.0,0.0,-0.2640,-0.9212,-0.2450,0.6592,-0.7317,0.1432,0.0979
973,0.0,0.0,0.0,0.0,0.0,0.0,-0.2601,-0.9221,-0.2455,0.6598,-0.7313,0.1425,0.0977
974,0.0,0.0,0.0,0.0,0.0,0.0,-0.2669,-0.9416,-0.2371,0.6600,-0.7313,0.1415,0.0975
975,0.0,0.0,0.0,0.0,0.0,0.0,-0.2796,-0.9416,-0.2375,0.6606,-0.7310,0.1406,0.0978
976,0.0,0.0,0.0,0.0,0.0,0.0,-0.2899,-0.9567,-0.2226,0.6620,-0.7297,0.1403,0.0981
977,0.0,0.0,0.0,0.0,0.0,0.0,-0.2948,-0.9640,-0.2179,0.6644,-0.7273,0.1403,0.0992
978,0.0,0.0,0.0,0.0,0.0,0.0,-0.2908,-1.0006,-0.1928,0.6693,-0.7227,0.1409,0.0997
979,0.0,0.0,0.0,0.0,0.0,0.0,-0.2957,-0.9511,-0.2541,0.6718,-0.7200,0.1422,0.1003
980,0.0,0.0,0.0,0.0,0.0,0.0,-0.3095,-0.8963,-0.2531,0.6718,-0.7193,0.1445,0.1018
981,0.0,0.0,0.0,0.0,0.0,0.0,-0.2493,-0.9191,-0.2689,0.6708,-0.7203,0.1436,0.1030
982,0.0,0.0,0.0,0.0,0.0,0.0,-0.2621,-0.9035,-0.2685,0.6691,-0.7220,0.1420,0.1039
983,0.0,0.0,0.0,0.0,0.0,0.0,-0.2719,-0.8828,-0.2448,0.6666,-0.7247,0.1400,0.1042
984,0.0,0.0,0.0,0.0,0.0,0.0,-0.2597,-0.9224,-0.2081,0.6651,-0.7264,0.1386,0.1035
985,0.0,0.0,0.0,0.0,0.0,0.0,-0.2782,-0.9319,-0.2344,0.6638,-0.7280,0.1372,0.1031
986,0.0,0.0,0.0,0.0,0.0,0.0,-0.3119,-0.9320,-0.1997,0.6627,-0.7291,0.1368,0.1025
987,0.0,0.0,0.0,0.0,0.0,0.0,-0.2992,-0.9359,-0.2057,0.6640,-0.7279,0.1362,0.1032
988,0.0,0.0,0.0,0.0,0.0,0.0,-0.2943,-0.9558,-0.2022,0.6665,-0.7257,0.1356,0.1038
989,0.0,0.0,0.0,0.0,0.0,0.0,-0.2899,-0.9417,-0.2078,0.6687,-0.7237,0.1354,0.1040
990,0.0,0.0,0.0,0.0,0.0,0.0,-0.2924,-0.9168,-0.2292,0.6696,-0.7228,0.1358,0.1036
991,0.0,0.0,0.0,0.0,0.0,0.0,-0.2934,-0.9305,-0.2183,0.6706,-0.7219,0.1363,0.1031
992,0.0,0.0,0.0,0.0,0.0,0.0,-0.3163,-0.9523,-0.2122,0.6717,-0.7208,0.1376,0.1021
993,0.0,0.0,0.0,0.0,0.0,0.0,-0.3173,-0.9582,-0.2026,0.6727,-0.7196,0.1391,0.1013
994,0.0,0.0,0.0,0.0,0.0,0.0,-0.3085,-0.9616,-0.2027,0.6739,-0.7183,0.1406,0.1006
995,0.0,0.0,0.0,0.0,0.0,0.0,-0.3187,-0.9578,-0.1982,0.6755,-0.7165,0.1427,0.1002
996,0.0,0.0,0.0,0.0,0.0,0.0,-0.3153,-0.9641,-0.1925,0.6773,-0.7143,0.1453,0.0997
997,0.0,0.0,0.0,0.0,0.0,0.0,-0.3241,-0.9637,-0.1841,0.6797,-0.7113,0.1490,0.0992
998,0.0,0.0,0.0,0.0,0.0,0.0,-0.3065,-0.9768,-0.1859,0.6821,-0.7083,0.1529,0.0985
999,0.0,0.0,0.0,0.0,0.0,0.0,-0.2973,-0.9398,-0.2106,0.6836,-0.7062,0.1557,0.0987
1000,0.0,0.0,0.0,0.0,0.0,0.0,-0.2904,-0.9022,-0.2333,0.6834,-0.7058,0.1584,0.0986
1001,0.0,0.0,0.0,0.0,0.0,0.0,-0.3007,-0.9286,-0.2114,0.6837,-0.7049,0.1610,0.0986
1002,0.0,0.0,0.0,0.0,0.0,0.0,-0.3056,-0.9213,-0.2146,0.6833,-0.7048,0.1624,0.0997
1003,0.0,0.0,0.0,0.0,0.0,0.0,-0.2968,-0.9106,-0.2096,0.6829,-0.7049,0.1631,0.1011
1004,0.0,0.0,0.0,0.0,0.0,0.0,-0.2876,-0.9053,-0.2067,0.6825,-0.7051,0.1629,0.1024
1005,0.0,0.0,0.0,0.0,0.0,0.0,-0.2871,-0.9107,-0.2058,0.6824,-0.7052,0.1622,0.1034
1006,0.0,0.0,0.0,0.0,0.0,0.0,-0.2871,-0.9131,-0.1995,0.6820,-0.7057,0.1613,0.1041
1007,0.0,0.0,0.0,0.0,0.0,0.0,-0.2895,-0.9000,-0.2007,0.6815,-0.7063,0.1601,0.1046
1008,0.0,0.0,0.0,0.0,0.0,0.0,-0.2861,-0.9039,-0.2091,0.6812,-0.7070,0.1586,0.1052
1009,0.0,0.0,0.0,0.0,0.0,0.0,-0.3110,-0.9101,-0.2052,0.6804,-0.7079,0.1578,0.1052
1010,0.0,0.0,0.0,0.0,0.0,0.0,-0.3198,-0.9058,-0.2045,0.6791,-0.7093,0.1567,0.1053
1011,0.0,0.0,0.0,0.0,0.0,0.0,-0.3334,-0.9160,-0.2017,0.6776,-0.7108,0.1565,0.1054
1012,0.0,0.0,0.0,0.0,0.0,0.0,-0.3364,-0.9303,-0.1567,0.6783,-0.7099,0.1568,0.1066
1013,0.0,0.0,0.0,0.0,0.0,0.0,-0.2958,-0.9457,-0.1850,0.6794,-0.7090,0.1555,0.1077
1014,0.0,0.0,0.0,0.0,0.0,0.0,-0.2880,-0.9164,-0.2195,0.6771,-0.7116,0.1537,0.1074
1015,0.0,0.0,0.0,0.0,0.0,0.0,-0.3115,-0.9224,-0.1830,0.6752,-0.7138,0.1522,0.1072
1016,0.0,0.0,0.0,0.0,0.0,0.0,-0.3143,-0.9548,-0.1996,0.6725,-0.7170,0.1495,0.1064
1017,0.0,0.0,0.0,0.0,0.0,0.0,-0.3446,-0.9339,-0.2049,0.6683,-0.7216,0.1474,0.1048
1018,0.0,0.0,0.0,0.0,0.0,0.0,-0.3334,-0.9568,-0.1932,0.6636,-0.7265,0.1454,0.1031
1019,0.0,0.0,0.0,0.0,0.0,0.0,-0.3358,-0.9719,-0.1842,0.6604,-0.7298,0.1443,0.1020
1020,0.0,0.0,0.0,0.0,0.0,0.0,-0.3295,-0.9719,-0.1867,0.6588,-0.7314,0.1438,0.1015
1021,0.0,0.0,0.0,0.0,0.0,0.0,-0.3172,-0.9703,-0.2101,0.6581,-0.7322,0.1433,0.1016
1022,0.0,0.0,0.0,0.0,0.0,0.0,-0.3280,-0.9635,-0.2109,0.6584,-0.7318,0.1434,0.1022
1023,0.0,0.0,0.0,0.0,0.0,0.0,-0.3162,-0.9635,-0.2202,0.6594,-0.7306,0.1449,0.1020
1024,0.0,0.0,0.0,0.0,0.0,0.0,-0.3250,-0.9640,-0.2143,0.6609,-0.7288,0.1469,0.1021
1025,0.0,0.0,0.0,0.0,0.0,0.0,-0.3271,-0.9276,-0.2112,0.6622,-0.7273,0.1484,0.1029
1026,0.0,0.0,0.0,0.0,0.0,0.0,-0.3016,-0.9363,-0.2227,0.6637,-0.7255,0.1507,0.1025
1027,0.0,0.0,0.0,0.0,0.0,0.0,-0.2845,-0.9737,-0.2225,0.6662,-0.7226,0.1532,0.1024
1028,0.0,0.0,0.0,0.0,0.0,0.0,-0.3128,-0.9733,-0.2014,0.6690,-0.7194,0.1553,0.1035
1029,0.0,0.0,0.0,0.0,0.0,0.0,-0.3114,-0.9520,-0.1967,0.6720,-0.7158,0.1579,0.1052
1030,0.0,0.0,0.0,0.0,0.0,0.0,-0.3330,-0.9151,-0.1862,0.6747,-0.7123,0.1624,0.1052
1031,0.0,0.0,0.0,0.0,0.0,0.0,-0.3164,-0.9418,-0.1819,0.6784,-0.7078,0.1663,0.1050
1032,0.0,0.0,0.0,0.0,0.0,0.0,-0.3070,-0.9440,-0.2204,0.6810,-0.7048,0.1686,0.1051
1033,0.0,0.0,0.0,0.0,0.0,0.0,-0.3515,-0.9282,-0.1853,0.6836,-0.7014,0.1721,0.1060
1034,0.0,0.0,0.0,0.0,0.0,0.0,-0.3768,-0.9289,-0.2114,0.6852,-0.6984,0.1767,0.1073
1035,0.0,0.0,0.0,0.0,0.0,0.0,-0.2334,-0.8928,-0.2140,0.6852,-0.6978,0.1790,0.1069
1036,0.0,0.0,0.0,0.0,0.0,0.0,-0.3442,-0.8731,-0.2262,0.6852,-0.6965,0.1849,0.1058
1037,0.0,0.0,0.0,0.0,0.0,0.0,-0.3222,-0.8687,-0.2335,0.6848,-0.6959,0.1885,0.1058
1038,0.0,0.0,0.0,0.0,0.0,0.0,-0.3203,-0.8599,-0.2422,0.6836,-0.6967,0.1904,0.1055
1039,0.0,0.0,0.0,0.0,0.0,0.0,-0.3452,-0.8784,-0.2239,0.6811,-0.6991,0.1904,0.1055
1040,0.0,0.0,0.0,0.0,0.0,0.0,-0.3403,-0.8910,-0.2280,0.6769,-0.7035,0.1882,0.1071
1041,0.0,0.0,0.0,0.0,0.0,0.0,-0.3300,-0.8975,-0.2102,0.6732,-0.7078,0.1839,0.1094
1042,0.0,0.0,0.0,0.0,0.0,0.0,-0.3773,-0.9284,-0.2212,0.6714,-0.7100,0.1813,0.1112
1043,0.0,0.0,0.0,0.0,0.0,0.0,-0.3799,-0.8862,-0.2150,0.6686,-0.7127,0.1788,0.1140
1044,0.0,0.0,0.0,0.0,0.0,0.0,-0.3436,-0.9347,-0.2326,0.6669,-0.7146,0.1768,0.1152
1045,0.0,0.0,0.0,0.0,0.0,0.0,-0.3344,-0.8939,-0.2383,0.6661,-0.7160,0.1733,0.1170
1046,0.0,0.0,0.0,0.0,0.0,0.0,-0.3123,-0.9308,-0.2459,0.6662,-0.7165,0.1689,0.1195
1047,0.0,0.0,0.0,0.0,0.0,0.0,-0.3382,-0.9357,-0.2215,0.6659,-0.7172,0.1668,0.1199
1048,0.0,0.0,0.0,0.0,0.0,0.0,-0.3187,-0.9280,-0.2263,0.6656,-0.7179,0.1638,0.1214
1049,0.0,0.0,0.0,0.0,0.0,0.0,-0.2875,-0.9100,-0.2403,0.6646,-0.7195,0.1596,0.1228
1050,0.0,0.0,0.0,0.0,0.0,0.0,-0.2807,-0.8993,-0.2363,0.6631,-0.7218,0.1559,0.1230
1051,0.0,0.0,0.0,0.0,0.0,0.0,-0.2777,-0.9012,-0.2407,0.6614,-0.7241,0.1517,0.1236
1052,0.0,0.0,0.0,0.0,0.0,0.0,-0.2782,-0.8959,-0.2455,0.6594,-0.7267,0.1470,0.1239
1053,0.0,0.0,0.0,0.0,0.0,0.0,-0.2870,-0.8954,-0.2430,0.6578,-0.7290,0.1433,0.1237
1054,0.0,0.0,0.0,0.0,0.0,0.0,-0.2933,-0.8977,-0.2556,0.6563,-0.7311,0.1394,0.1238
1055,0.0,0.0,0.0,0.0,0.0,0.0,-0.3041,-0.9089,-0.2538,0.6546,-0.7332,0.1357,0.1241
1056,0.0,0.0,0.0,0.0,0.0,0.0,-0.3343,-0.9428,-0.2499,0.6527,-0.7355,0.1325,0.1248
1057,0.0,0.0,0.0,0.0,0.0,0.0,-0.3509,-0.9550,-0.2471,0.6508,-0.7374,0.1301,0.1258
1058,0.0,0.0,0.0,0.0,0.0,0.0,-0.3543,-0.9322,-0.2427,0.6499,-0.7383,0.1289,0.1267
1059,0.0,0.0,0.0,0.0,0.0,0.0,-0.3548,-0.9497,-0.2387,0.6499,-0.7381,0.1285,0.1279
1060,0.0,0.0,0.0,0.0,0.0,0.0,-0.3489,-0.9584,-0.2384,0.6510,-0.7369,0.1289,0.1287
1061,0.0,0.0,0.0,0.0,0.0,0.0,-0.3543,-0.9414,-0.2366,0.6531,-0.7346,0.1306,0.1296
1062,0.0,0.0,0.0,0.0,0.0,0.0,-0.3514,-0.9157,-0.2357,0.6550,-0.7322,0.1328,0.1308
1063,0.0,0.0,0.0,0.0,0.0,0.0,-0.3451,-0.9210,-0.2450,0.6570,-0.7298,0.1356,0.1319
1064,0.0,0.0,0.0,0.0,0.0,0.0,-0.3631,-0.9321,-0.2485,0.6581,-0.7279,0.1391,0.1328
1065,0.0,0.0,0.0,0.0,0.0,0.0,-0.3655,-0.9268,-0.2504,0.6585,-0.7268,0.1426,0.1333
1066,0.0,0.0,0.0,0.0,0.0,0.0,-0.3348,-0.9176,-0.2557,0.6579,-0.7268,0.1456,0.1330
1067,0.0,0.0,0.0,0.0,0.0,0.0,-0.3568,-0.9181,-0.2459,0.6573,-0.7269,0.1481,0.1325
1068,0.0,0.0,0.0,0.0,0.0,0.0,-0.3993,-0.9171,-0.2325,0.6566,-0.7272,0.1511,0.1315
1069,0.0,0.0,0.0,0.0,0.0,0.0,-0.3959,-0.8947,-0.2491,0.6540,-0.7290,0.1553,0.1295
1070,0.0,0.0,0.0,0.0,0.0,0.0,-0.3452,-0.8774,-0.2282,0.6508,-0.7318,0.1570,0.1277
1071,0.0,0.0,0.0,0.0,0.0,0.0,-0.3387,-0.9609,-0.2341,0.6495,-0.7331,0.1575,0.1263
1072,0.0,0.0,0.0,0.0,0.0,0.0,-0.4530,-0.9362,-0.1849,0.6493,-0.7327,0.1612,0.1247
1073,0.0,0.0,0.0,0.0,0.0,0.0,-0.3901,-0.8938,-0.2317,0.6502,-0.7313,0.1648,0.1238
1074,0.0,0.0,0.0,0.0,0.0,0.0,-0.3592,-0.9365,-0.2433,0.6528,-0.7285,0.1672,0.1231
1075,0.0,0.0,0.0,0.0,0.0,0.0,-0.4013,-0.9318,-0.2060,0.6564,-0.7246,0.1701,0.1231
1076,0.0,0.0,0.0,0.0,0.0,0.0,-0.3695,-0.9026,-0.2324,0.6600,-0.7206,0.1729,0.1232
1077,0.0,0.0,0.0,0.0,0.0,0.0,-0.3529,-0.8856,-0.2434,0.6630,-0.7174,0.1748,0.1232
1078,0.0,0.0,0.0,0.0,0.0,0.0,-0.3583,-0.8812,-0.2331,0.6654,-0.7150,0.1755,0.1235
1079,0.0,0.0,0.0,0.0,0.0,0.0,-0.3652,-0.8978,-0.2212,0.6674,-0.7130,0.1753,0.1244
1080,0.0,0.0,0.0,0.0,0.0,0.0,-0.3847,-0.9155,-0.1873,0.6689,-0.7114,0.1763,0.1240
1081,0.0,0.0,0.0,0.0,0.0,0.0,-0.3770,-0.8990,-0.1905,0.6706,-0.7096,0.1778,0.1234
1082,0.0,0.0,0.0,0.0,0.0,0.0,-0.3413,-0.9004,-0.2034,0.6721,-0.7081,0.1779,0.1234
1083,0.0,0.0,0.0,0.0,0.0,0.0,-0.3457,-0.9130,-0.2002,0.6733,-0.7071,0.1775,0.1232
1084,0.0,0.0,0.0,0.0,0.0,0.0,-0.3642,-0.9092,-0.1903,0.6743,-0.7062,0.1778,0.1225
1085,0.0,0.0,0.0,0.0,0.0,0.0,-0.3530,-0.9096,-0.1991,0.6748,-0.7058,0.1778,0.1218
1086,0.0,0.0,0.0,0.0,0.0,0.0,-0.3320,-0.8896,-0.2173,0.6741,-0.7067,0.1777,0.1204
1087,0.0,0.0,0.0,0.0,0.0,0.0,-0.3359,-0.8473,-0.2394,0.6707,-0.7102,0.1782,0.1184
1088,0.0,0.0,0.0,0.0,0.0,0.0,-0.3389,-0.8507,-0.2404,0.6658,-0.7151,0.1791,0.1149
1089,0.0,0.0,0.0,0.0,0.0,0.0,-0.3325,-0.8893,-0.1940,0.6621,-0.7195,0.1772,0.1117
1090,0.0,0.0,0.0,0.0,0.0,0.0,-0.3236,-0.9710,-0.1741,0.6617,-0.7212,0.1724,0.1112
1091,0.0,0.0,0.0,0.0,0.0,0.0,-0.3284,-1.0064,-0.1829,0.6636,-0.7206,0.1673,0.1114
1092,0.0,0.0,0.0,0.0,0.0,0.0,-0.3685,-0.9684,-0.1903,0.6647,-0.7199,0.1650,0.1126
1093,0.0,0.0,0.0,0.0,0.0,0.0,-0.3183,-0.9359,-0.2041,0.6658,-0.7194,0.1625,0.1132
1094,0.0,0.0,0.0,0.0,0.0,0.0,-0.2572,-0.9226,-0.2509,0.6649,-0.7210,0.1591,0.1130
1095,0.0,0.0,0.0,0.0,0.0,0.0,-0.2783,-0.9038,-0.2266,0.6635,-0.7230,0.1568,0.1119
1096,0.0,0.0,0.0,0.0,0.0,0.0,-0.3051,-0.9241,-0.2239,0.6615,-0.7252,0.1549,0.1118
1097,0.0,0.0,0.0,0.0,0.0,0.0,-0.3187,-0.9128,-0.2484,0.6581,-0.7282,0.1563,0.1103
1098,0.0,0.0,0.0,0.0,0.0,0.0,-0.2973,-0.8545,-0.2631,0.6537,-0.7323,0.1548,0.1113
1099,0.0,0.0,0.0,0.0,0.0,0.0,-0.2796,-0.9499,-0.2211,0.6549,-0.7320,0.1506,0.1125
1100,0.0,0.0,0.0,0.0,0.0,0.0,-0.3480,-0.9654,-0.2132,0.6577,-0.7298,0.1475,0.1138
1101,0.0,0.0,0.0,0.0,0.0,0.0,-0.3539,-0.9371,-0.2248,0.6615,-0.7266,0.1442,0.1165
1102,0.0,0.0,0.0,0.0,0.0,0.0,-0.3397,-0.9365,-0.2497,0.6638,-0.7247,0.1414,0.1194
1103,0.0,0.0,0.0,0.0,0.0,0.0,-0.3285,-0.9098,-0.2537,0.6643,-0.7242,0.1391,0.1217
1104,0.0,0.0,0.0,0.0,0.0,0.0,-0.3124,-0.8918,-0.2734,0.6642,-0.7244,0.1372,0.1236
1105,0.0,0.0,0.0,0.0,0.0,0.0,-0.3167,-0.9327,-0.2425,0.6650,-0.7239,0.1359,0.1239
1106,0.0,0.0,0.0,0.0,0.0,0.0,-0.3129,-0.9206,-0.2399,0.6649,-0.7243,0.1343,0.1237
1107,0.0,0.0,0.0,0.0,0.0,0.0,-0.2973,-0.9109,-0.2393,0.6648,-0.7247,0.1315,0.1244
1108,0.0,0.0,0.0,0.0,0.0,0.0,-0.3260,-0.9396,-0.2260,0.6654,-0.7244,0.1294,0.1252
1109,0.0,0.0,0.0,0.0,0.0,0.0,-0.3392,-0.9299,-0.2258,0.6657,-0.7243,0.1287,0.1252
1110,0.0,0.0,0.0,0.0,0.0,0.0,-0.3182,-0.9387,-0.2202,0.6661,-0.7241,0.1280,0.1250
1111,0.0,0.0,0.0,0.0,0.0,0.0,-0.3143,-0.9309,-0.2293,0.6659,-0.7245,0.1272,0.1245
1112,0.0,0.0,0.0,0.0,0.0,0.0,-0.3031,-0.9203,-0.2224,0.6656,-0.7252,0.1257,0.1237
1113,0.0,0.0,0.0,0.0,0.0,0.0,-0.3036,-0.9266,-0.2215,0.6655,-0.7256,0.1247,0.1226
1114,0.0,0.0,0.0,0.0,0.0,0.0,-0.3134,-0.9320,-0.2080,0.6656,-0.7259,0.1244,0.1212
1115,0.0,0.0,0.0,0.0,0.0,0.0,-0.3202,-0.9368,-0.2124,0.6647,-0.7268,0.1241,0.1206
1116,0.0,0.0,0.0,0.0,0.0,0.0,-0.3339,-0.9451,-0.1988,0.6636,-0.7278,0.1248,0.1199
1117,0.0,0.0,0.0,0.0,0.0,0.0,-0.3329,-0.9412,-0.2022,0.6634,-0.7277,0.1260,0.1198
1118,0.0,0.0,0.0,0.0,0.0,0.0,-0.3344,-0.9494,-0.2047,0.6639,-0.7270,0.1276,0.1202
1119,0.0,0.0,0.0,0.0,0.0,0.0,-0.3324,-0.9485,-0.1960,0.6640,-0.7264,0.1291,0.1210
1120,0.0,0.0,0.0,0.0,0.0,0.0,-0.3217,-0.9451,-0.2009,0.6643,-0.7256,0.1309,0.1223
1121,0.0,0.0,0.0,0.0,0.0,0.0,-0.3144,-0.9222,-0.2146,0.6647,-0.7248,0.1324,0.1240
1122,0.0,0.0,0.0,0.0,0.0,0.0,-0.3334,-0.9349,-0.1991,0.6660,-0.7229,0.1342,0.1258
1123,0.0,0.0,0.0,0.0,0.0,0.0,-0.3324,-0.9320,-0.2035,0.6669,-0.7215,0.1356,0.1273
1124,0.0,0.0,0.0,0.0,0.0,0.0,-0.3300,-0.9393,-0.1992,0.6677,-0.7203,0.1375,0.1281
1125,0.0,0.0,0.0,0.0,0.0,0.0,-0.3334,-0.9193,-0.2154,0.6677,-0.7198,0.1398,0.1287
1126,0.0,0.0,0.0,0.0,0.0,0.0,-0.3457,-0.9145,-0.2021,0.6681,-0.7189,0.1418,0.1292
1127,0.0,0.0,0.0,0.0,0.0,0.0,-0.3451,-0.9280,-0.2067,0.6687,-0.7181,0.1431,0.1292
1128,0.0,0.0,0.0,0.0,0.0,0.0,-0.3622,-0.9105,-0.2083,0.6680,-0.7183,0.1455,0.1288
1129,0.0,0.0,0.0,0.0,0.0,0.0,-0.3383,-0.8984,-0.2136,0.6670,-0.7189,0.1471,0.1287
1130,0.0,0.0,0.0,0.0,0.0,0.0,-0.3275,-0.9222,-0.2218,0.6657,-0.7201,0.1480,0.1281
1131,0.0,0.0,0.0,0.0,0.0,0.0,-0.3588,-0.9154,-0.2035,0.6641,-0.7214,0.1496,0.1273
1132,0.0,0.0,0.0,0.0,0.0,0.0,-0.3588,-0.9265,-0.2110,0.6631,-0.7221,0.1508,0.1274
1133,0.0,0.0,0.0,0.0,0.0,0.0,-0.3827,-0.9445,-0.2039,0.6626,-0.7221,0.1531,0.1271
1134,0.0,0.0,0.0,0.0,0.0,0.0,-0.3852,-0.9182,-0.2122,0.6625,-0.7214,0.1563,0.1272
1135,0.0,0.0,0.0,0.0,0.0,0.0,-0.3647,-0.8977,-0.2353,0.6620,-0.7210,0.1604,0.1271
1136,0.0,0.0,0.0,0.0,0.0,0.0,-0.3686,-0.9007,-0.2314,0.6612,-0.7209,0.1647,0.1264
1137,0.0,0.0,0.0,0.0,0.0,0.0,-0.3681,-0.9026,-0.2383,0.6604,-0.7208,0.1690,0.1254
1138,0.0,0.0,0.0,0.0,0.0,0.0,-0.3784,-0.8954,-0.2235,0.6594,-0.7209,0.1740,0.1236
1139,0.0,0.0,0.0,0.0,0.0,0.0,-0.3403,-0.8807,-0.2482,0.6578,-0.7218,0.1757,0.1239
1140,0.0,0.0,0.0,0.0,0.0,0.0,-0.3392,-0.9065,-0.2414,0.6564,-0.7230,0.1762,0.1239
1141,0.0,0.0,0.0,0.0,0.0,0.0,-0.4002,-0.9322,-0.2245,0.6556,-0.7234,0.1783,0.1228
1142,0.0,0.0,0.0,0.0,0.0,0.0,-0.4081,-0.9138,-0.2178,0.6547,-0.7239,0.1807,0.1216
1143,0.0,0.0,0.0,0.0,0.0,0.0,-0.3246,-0.8924,-0.2398,0.6535,-0.7248,0.1813,0.1213
1144,0.0,0.0,0.0,0.0,0.0,0.0,-0.3392,-0.9327,-0.2351,0.6537,-0.7245,0.1819,0.1215
1145,0.0,0.0,0.0,0.0,0.0,0.0,-0.3881,-0.9308,-0.2148,0.6543,-0.7235,0.1831,0.1222
1146,0.0,0.0,0.0,0.0,0.0,0.0,-0.3534,-0.8928,-0.2440,0.6542,-0.7233,0.1843,0.1221
1147,0.0,0.0,0.0,0.0,0.0,0.0,-0.3124,-0.8802,-0.2567,0.6529,-0.7245,0.1843,0.1216
1148,0.0,0.0,0.0,0.0,0.0,0.0,-0.3461,-0.8909,-0.2479,0.6515,-0.7259,0.1843,0.1208
1149,0.0,0.0,0.0,0.0,0.0,0.0,-0.3666,-0.9046,-0.2242,0.6511,-0.7264,0.1845,0.1203
1150,0.0,0.0,0.0,0.0,0.0,0.0,-0.3842,-0.9231,-0.2123,0.6519,-0.7254,0.1853,0.1203
1151,0.0,0.0,0.0,0.0,0.0,0.0,-0.3773,-0.9157,-0.2277,0.6526,-0.7245,0.1861,0.1203
1152,0.0,0.0,0.0,0.0,0.0,0.0,-0.3891,-0.9284,-0.2123,0.6542,-0.7229,0.1867,0.1210
1153,0.0,0.0,0.0,0.0,0.0,0.0,-0.3959,-0.9293,-0.2206,0.6561,-0.7208,0.1875,0.1220
1154,0.0,0.0,0.0,0.0,0.0,0.0,-0.3920,-0.9274,-0.2162,0.6580,-0.7186,0.1885,0.1229
1155,0.0,0.0,0.0,0.0,0.0,0.0,-0.3939,-0.9309,-0.2089,0.6590,-0.7175,0.1881,0.1249
1156,0.0,0.0,0.0,0.0,0.0,0.0,-0.3856,-0.9016,-0.2372,0.6596,-0.7167,0.1881,0.1261
1157,0.0,0.0,0.0,0.0,0.0,0.0,-0.3642,-0.8753,-0.2461,0.6595,-0.7168,0.1878,0.1267
1158,0.0,0.0,0.0,0.0,0.0,0.0,-0.3691,-0.8402,-0.2663,0.6571,-0.7193,0.1859,0.1276
1159,0.0,0.0,0.0,0.0,0.0,0.0,-0.3511,-0.8404,-0.2499,0.6557,-0.7210,0.1839,0.1280
1160,0.0,0.0,0.0,0.0,0.0,0.0,-0.3476,-0.8729,-0.2558,0.6531,-0.7241,0.1802,0.1287
1161,0.0,0.0,0.0,0.0,0.0,0.0,-0.3700,-0.8918,-0.2458,0.6502,-0.7278,0.1761,0.1287
1162,0.0,0.0,0.0,0.0,0.0,0.0,-0.3945,-0.9173,-0.2063,0.6501,-0.7284,0.1743,0.1280
1163,0.0,0.0,0.0,0.0,0.0,0.0,-0.3705,-0.9259,-0.2357,0.6518,-0.7273,0.1722,0.1285
1164,0.0,0.0,0.0,0.0,0.0,0.0,-0.3798,-0.9147,-0.2331,0.6531,-0.7265,0.1706,0.1286
1165,0.0,0.0,0.0,0.0,0.0,0.0,-0.3588,-0.9105,-0.2195,0.6548,-0.7252,0.1705,0.1277
1166,0.0,0.0,0.0,0.0,0.0,0.0,-0.3402,-0.9075,-0.2356,0.6559,-0.7245,0.1694,0.1272
1167,0.0,0.0,0.0,0.0,0.0,0.0,-0.3281,-0.8701,-0.2462,0.6567,-0.7242,0.1672,0.1279
1168,0.0,0.0,0.0,0.0,0.0,0.0,-0.3257,-0.8652,-0.2393,0.6574,-0.7241,0.1649,0.1279
1169,0.0,0.0,0.0,0.0,0.0,0.0,-0.3466,-0.8877,-0.2182,0.6579,-0.7242,0.1629,0.1271
1170,0.0,0.0,0.0,0.0,0.0,0.0,-0.3520,-0.9042,-0.2165,0.6585,-0.7242,0.1608,0.1267
1171,0.0,0.0,0.0,0.0,0.0,0.0,-0.3696,-0.9105,-0.2112,0.6583,-0.7247,0.1603,0.1256
1172,0.0,0.0,0.0,0.0,0.0,0.0,-0.3681,-0.9042,-0.2018,0.6583,-0.7249,0.1600,0.1250
1173,0.0,0.0,0.0,0.0,0.0,0.0,-0.3080,-0.9070,-0.2440,0.6573,-0.7262,0.1573,0.1256
1174,0.0,0.0,0.0,0.0,0.0,0.0,-0.3285,-0.8968,-0.2462,0.6554,-0.7285,0.1560,0.1242
1175,0.0,0.0,0.0,0.0,0.0,0.0,-0.3388,-0.8904,-0.2445,0.6537,-0.7305,0.1540,0.1234
1176,0.0,0.0,0.0,0.0,0.0,0.0,-0.3470,-0.9273,-0.2422,0.6526,-0.7322,0.1514,0.1228
1177,0.0,0.0,0.0,0.0,0.0,0.0,-0.3886,-0.9406,-0.1994,0.6529,-0.7322,0.1506,0.1220
1178,0.0,0.0,0.0,0.0,0.0,0.0,-0.3993,-0.9810,-0.1865,0.6545,-0.7308,0.1506,0.1221
1179,0.0,0.0,0.0,0.0,0.0,0.0,-0.3670,-0.9780,-0.2133,0.6561,-0.7291,0.1504,0.1235
1180,0.0,0.0,0.0,0.0,0.0,0.0,-0.3597,-0.9196,-0.2347,0.6570,-0.7281,0.1508,0.1245
1181,0.0,0.0,0.0,0.0,0.0,0.0,-0.3499,-0.9439,-0.2245,0.6581,-0.7267,0.1528,0.1245
1182,0.0,0.0,0.0,0.0,0.0,0.0,-0.3529,-0.9386,-0.2200,0.6587,-0.7258,0.1540,0.1251
1183,0.0,0.0,0.0,0.0,0.0,0.0,-0.3549,-0.9279,-0.2232,0.6596,-0.7246,0.1547,0.1263
1184,0.0,0.0,0.0,0.0,0.0,0.0,-0.3505,-0.9153,-0.2225,0.6608,-0.7232,0.1552,0.1276
1185,0.0,0.0,0.0,0.0,0.0,0.0,-0.3364,-0.9061,-0.2200,0.6621,-0.7219,0.1546,0.1287
1186,0.0,0.0,0.0,0.0,0.0,0.0,-0.3495,-0.9022,-0.2277,0.6617,-0.7223,0.1536,0.1299
1187,0.0,0.0,0.0,0.0,0.0,0.0,-0.3422,-0.9027,-0.2165,0.6615,-0.7225,0.1528,0.1307
1188,0.0,0.0,0.0,0.0,0.0,0.0,-0.3407,-0.8929,-0.2358,0.6604,-0.7236,0.1523,0.1311
1189,0.0,0.0,0.0,0.0,0.0,0.0,-0.3569,-0.9057,-0.2082,0.6596,-0.7243,0.1520,0.1316
1190,0.0,0.0,0.0,0.0,0.0,0.0,-0.3695,-0.9158,-0.2181,0.6581,-0.7256,0.1512,0.1323
1191,0.0,0.0,0.0,0.0,0.0,0.0,-0.3979,-0.9207,-0.1961,0.6574,-0.7263,0.1513,0.1322
1192,0.0,0.0,0.0,0.0,0.0,0.0,-0.3920,-0.9314,-0.2007,0.6581,-0.7256,0.1508,0.1329
1193,0.0,0.0,0.0,0.0,0.0,0.0,-0.4022,-0.9562,-0.1948,0.6597,-0.7240,0.1512,0.1333
1194,0.0,0.0,0.0,0.0,0.0,0.0,-0.3842,-0.9304,-0.2080,0.6600,-0.7234,0.1521,0.1337
1195,0.0,0.0,0.0,0.0,0.0,0.0,-0.3407,-0.9133,-0.2362,0.6606,-0.7229,0.1523,0.1339
1196,0.0,0.0,0.0,0.0,0.0,0.0,-0.3431,-0.9109,-0.2381,0.6607,-0.7228,0.1519,0.1342
1197,0.0,0.0,0.0,0.0,0.0,0.0,-0.3378,-0.8856,-0.2347,0.6605,-0.7230,0.1510,0.1349
1198,0.0,0.0,0.0,0.0,0.0,0.0,-0.3251,-0.8909,-0.2480,0.6597,-0.7239,0.1497,0.1351
1199,0.0,0.0,0.0,0.0,0.0,0.0,-0.3325,-0.8871,-0.2353,0.6592,-0.7247,0.1479,0.1355
1200,0.0,0.0,0.0,0.0,0.0,0.0,-0.3334,-0.9070,-0.2346,0.6584,-0.7259,0.1460,0.1353
1201,0.0,0.0,0.0,0.0,0.0,0.0,-0.3354,-0.9085,-0.2298,0.6576,-0.7270,0.1446,0.1347
1202,0.0,0.0,0.0,0.0,0.0,0.0,-0.3266,-0.9212,-0.2247,0.6570,-0.7280,0.1420,0.1349
1203,0.0,0.0,0.0,0.0,0.0,0.0,-0.3260,-0.9323,-0.2264,0.6562,-0.7292,0.1396,0.1346
1204,0.0,0.0,0.0,0.0,0.0,0.0,-0.3319,-0.9318,-0.2234,0.6558,-0.7300,0.1386,0.1335
1205,0.0,0.0,0.0,0.0,0.0,0.0,-0.3197,-0.9211,-0.2393,0.6554,-0.7307,0.1370,0.1334
1206,0.0,0.0,0.0,0.0,0.0,0.0,-0.3216,-0.9240,-0.2370,0.6555,-0.7309,0.1357,0.1334
1207,0.0,0.0,0.0,0.0,0.0,0.0,-0.3270,-0.9347,-0.2269,0.6558,-0.7308,0.1351,0.1330
1208,0.0,0.0,0.0,0.0,0.0,0.0,-0.3250,-0.9294,-0.2365,0.6556,-0.7311,0.1342,0.1332
1209,0.0,0.0,0.0,0.0,0.0,0.0,-0.3212,-0.9143,-0.2455,0.6550,-0.7317,0.1333,0.1335
1210,0.0,0.0,0.0,0.0,0.0,0.0,-0.3138,-0.9152,-0.2451,0.6553,-0.7315,0.1329,0.1334
1211,0.0,0.0,0.0,0.0,0.0,0.0,-0.3197,-0.9211,-0.2452,0.6556,-0.7314,0.1327,0.1331
1212,0.0,0.0,0.0,0.0,0.0,0.0,-0.3241,-0.9186,-0.2490,0.6554,-0.7316,0.1327,0.1329
1213,0.0,0.0,0.0,0.0,0.0,0.0,-0.3260,-0.9181,-0.2529,0.6551,-0.7319,0.1327,0.1329
1214,0.0,0.0,0.0,0.0,0.0,0.0,-0.3284,-0.9200,-0.2573,0.6546,-0.7323,0.1324,0.1334
1215,0.0,0.0,0.0,0.0,0.0,0.0,-0.3314,-0.9224,-0.2588,0.6539,-0.7328,0.1325,0.1332
1216,0.0,0.0,0.0,0.0,0.0,0.0,-0.3382,-0.9331,-0.2501,0.6533,-0.7334,0.1325,0.1331
1217,0.0,0.0,0.0,0.0,0.0,0.0,-0.3426,-0.9419,-0.2425,0.6530,-0.7337,0.1321,0.1333
1218,0.0,0.0,0.0,0.0,0.0,0.0,-0.3485,-0.9264,-0.2373,0.6528,-0.7338,0.1322,0.1340
1219,0.0,0.0,0.0,0.0,0.0,0.0,-0.3514,-0.9210,-0.2450,0.6524,-0.7339,0.1328,0.1344
1220,0.0,0.0,0.0,0.0,0.0,0.0,-0.3494,-0.9293,-0.2418,0.6528,-0.7334,0.1340,0.1343
1221,0.0,0.0,0.0,0.0,0.0,0.0,-0.3558,-0.9385,-0.2433,0.6536,-0.7324,0.1352,0.1347
1222,0.0,0.0,0.0,0.0,0.0,0.0,-0.3578,-0.9220,-0.2460,0.6541,-0.7315,0.1376,0.1346
1223,0.0,0.0,0.0,0.0,0.0,0.0,-0.3577,-0.9365,-0.2462,0.6551,-0.7302,0.1403,0.1341
1224,0.0,0.0,0.0,0.0,0.0,0.0,-0.3665,-0.9375,-0.2428,0.6563,-0.7287,0.1426,0.1340
1225,0.0,0.0,0.0,0.0,0.0,0.0,-0.3729,-0.9390,-0.2277,0.6581,-0.7264,0.1454,0.1344
1226,0.0,0.0,0.0,0.0,0.0,0.0,-0.3743,-0.9618,-0.2276,0.6604,-0.7237,0.1485,0.1347
1227,0.0,0.0,0.0,0.0,0.0,0.0,-0.3832,-0.9396,-0.2174,0.6636,-0.7198,0.1528,0.1349
1228,0.0,0.0,0.0,0.0,0.0,0.0,-0.3724,-0.9562,-0.2012,0.6688,-0.7140,0.1583,0.1340
1229,0.0,0.0,0.0,0.0,0.0,0.0,-0.3719,-0.9527,-0.2099,0.6727,-0.7092,0.1631,0.1338
1230,0.0,0.0,0.0,0.0,0.0,0.0,-0.3749,-0.9144,-0.2010,0.6761,-0.7047,0.1682,0.1340
1231,0.0,0.0,0.0,0.0,0.0,0.0,-0.3467,-0.8824,-0.2098,0.6781,-0.7019,0.1720,0.1342
1232,0.0,0.0,0.0,0.0,0.0,0.0,-0.2999,-0.8353,-0.2185,0.6790,-0.7005,0.1724,0.1359
1233,0.0,0.0,0.0,0.0,0.0,0.0,-0.3028,-0.8303,-0.2378,0.6778,-0.7015,0.1725,0.1368
1234,0.0,0.0,0.0,0.0,0.0,0.0,-0.3146,-0.7842,-0.2428,0.6725,-0.7070,0.1720,0.1355
1235,0.0,0.0,0.0,0.0,0.0,0.0,-0.2603,-0.8169,-0.2305,0.6684,-0.7119,0.1670,0.1361
1236,0.0,0.0,0.0,0.0,0.0,0.0,-0.3544,-0.9374,-0.1879,0.6653,-0.7158,0.1649,0.1339
1237,0.0,0.0,0.0,0.0,0.0,0.0,-0.3990,-0.9074,-0.1463,0.6637,-0.7176,0.1650,0.1320
1238,0.0,0.0,0.0,0.0,0.0,0.0,-0.3187,-0.9256,-0.2205,0.6655,-0.7159,0.1636,0.1338
1239,0.0,0.0,0.0,0.0,0.0,0.0,-0.3842,-0.9153,-0.2087,0.6668,-0.7145,0.1631,0.1351
1240,0.0,0.0,0.0,0.0,0.0,0.0,-0.3915,-0.8860,-0.2408,0.6677,-0.7130,0.1652,0.1361
1241,0.0,0.0,0.0,0.0,0.0,0.0,-0.3470,-0.8760,-0.2958,0.6664,-0.7135,0.1668,0.1378
1242,0.0,0.0,0.0,0.0,0.0,0.0,-0.3754,-0.9000,-0.2532,0.6647,-0.7146,0.1690,0.1375
1243,0.0,0.0,0.0,0.0,0.0,0.0,-0.3656,-0.9088,-0.2462,0.6621,-0.7169,0.1713,0.1355
1244,0.0,0.0,0.0,0.0,0.0,0.0,-0.3115,-0.8622,-0.2597,0.6603,-0.7186,0.1702,0.1364
1245,0.0,0.0,0.0,0.0,0.0,0.0,-0.2952,-0.9005,-0.2727,0.6577,-0.7216,0.1669,0.1373
1246,0.0,0.0,0.0,0.0,0.0,0.0,-0.3637,-0.9026,-0.2290,0.6546,-0.7247,0.1664,0.1361
1247,0.0,0.0,0.0,0.0,0.0,0.0,-0.3637,-0.9144,-0.2166,0.6534,-0.7261,0.1667,0.1340
1248,0.0,0.0,0.0,0.0,0.0,0.0,-0.3431,-0.9249,-0.2403,0.6523,-0.7280,0.1655,0.1306
1249,0.0,0.0,0.0,0.0,0.0,0.0,-0.3079,-0.9741,-0.2331,0.6524,-0.7293,0.1610,0.1287
1250,0.0,0.0,0.0,0.0,0.0,0.0,-0.3450,-0.9608,-0.2448,0.6516,-0.7313,0.1551,0.1290
1251,0.0,0.0,0.0,0.0,0.0,0.0,-0.3900,-0.9255,-0.2074,0.6515,-0.7321,0.1512,0.1290
1252,0.0,0.0,0.0,0.0,0.0,0.0,-0.3490,-0.9313,-0.2325,0.6518,-0.7325,0.1486,0.1287
1253,0.0,0.0,0.0,0.0,0.0,0.0,-0.3553,-0.9508,-0.2217,0.6521,-0.7326,0.1475,0.1276
1254,0.0,0.0,0.0,0.0,0.0,0.0,-0.3617,-0.9274,-0.2280,0.6520,-0.7329,0.1470,0.1272
1255,0.0,0.0,0.0,0.0,0.0,0.0,-0.3671,-0.9206,-0.2245,0.6521,-0.7326,0.1473,0.1276
1256,0.0,0.0,0.0,0.0,0.0,0.0,-0.3705,-0.9313,-0.2261,0.6524,-0.7322,0.1483,0.1277
1257,0.0,0.0,0.0,0.0,0.0,0.0,-0.3778,-0.9396,-0.2204,0.6533,-0.7309,0.1502,0.1278
1258,0.0,0.0,0.0,0.0,0.0,0.0,-0.3763,-0.9342,-0.2227,0.6549,-0.7290,0.1524,0.1280
1259,0.0,0.0,0.0,0.0,0.0,0.0,-0.3861,-0.9352,-0.2130,0.6574,-0.7262,0.1549,0.1284
1260,0.0,0.0,0.0,0.0,0.0,0.0,-0.3832,-0.9387,-0.2028,0.6600,-0.7231,0.1580,0.1287
1261,0.0,0.0,0.0,0.0,0.0,0.0,-0.4003,-0.9255,-0.2176,0.6619,-0.7204,0.1619,0.1294
1262,0.0,0.0,0.0,0.0,0.0,0.0,-0.4086,-0.9226,-0.1995,0.6639,-0.7174,0.1668,0.1293
1263,0.0,0.0,0.0,0.0,0.0,0.0,-0.3993,-0.9260,-0.2093,0.6654,-0.7149,0.1713,0.1295
1264,0.0,0.0,0.0,0.0,0.0,0.0,-0.4042,-0.9075,-0.2099,0.6661,-0.7131,0.1766,0.1289
1265,0.0,0.0,0.0,0.0,0.0,0.0,-0.3955,-0.9003,-0.1992,0.6665,-0.7114,0.1827,0.1276
1266,0.0,0.0,0.0,0.0,0.0,0.0,-0.3574,-0.8823,-0.2132,0.6678,-0.7090,0.1871,0.1279
1267,0.0,0.0,0.0,0.0,0.0,0.0,-0.3393,-0.8696,-0.2330,0.6682,-0.7077,0.1891,0.1298
1268,0.0,0.0,0.0,0.0,0.0,0.0,-0.3388,-0.8934,-0.2310,0.6678,-0.7075,0.1911,0.1304
1269,0.0,0.0,0.0,0.0,0.0,0.0,-0.4023,-0.8813,-0.2173,0.6667,-0.7077,0.1946,0.1296
1270,0.0,0.0,0.0,0.0,0.0,0.0,-0.3667,-0.8697,-0.2100,0.6666,-0.7072,0.1964,0.1298
1271,0.0,0.0,0.0,0.0,0.0,0.0,-0.3227,-0.8812,-0.2498,0.6671,-0.7068,0.1959,0.1307
1272,0.0,0.0,0.0,0.0,0.0,0.0,-0.3638,-0.8789,-0.2155,0.6675,-0.7066,0.1954,0.1302
1273,0.0,0.0,0.0,0.0,0.0,0.0,-0.3584,-0.8740,-0.2242,0.6675,-0.7068,0.1950,0.1296
1274,0.0,0.0,0.0,0.0,0.0,0.0,-0.3505,-0.8720,-0.2437,0.6672,-0.7076,0.1944,0.1281
1275,0.0,0.0,0.0,0.0,0.0,0.0,-0.3642,-0.8934,-0.2294,0.6672,-0.7082,0.1934,0.1262
1276,0.0,0.0,0.0,0.0,0.0,0.0,-0.3613,-0.8832,-0.2365,0.6666,-0.7097,0.1913,0.1242
1277,0.0,0.0,0.0,0.0,0.0,0.0,-0.3579,-0.8764,-0.2335,0.6659,-0.7113,0.1893,0.1214
1278,0.0,0.0,0.0,0.0,0.0,0.0,-0.3457,-0.8784,-0.2224,0.6657,-0.7127,0.1865,0.1188
1279,0.0,0.0,0.0,0.0,0.0,0.0,-0.3432,-0.8803,-0.2361,0.6653,-0.7144,0.1824,0.1167
1280,0.0,0.0,0.0,0.0,0.0,0.0,-0.3466,-0.8759,-0.2335,0.6643,-0.7168,0.1782,0.1146
1281,0.0,0.0,0.0,0.0,0.0,0.0,-0.3481,-0.8984,-0.2086,0.6647,-0.7178,0.1737,0.1127
1282,0.0,0.0,0.0,0.0,0.0,0.0,-0.3456,-0.9208,-0.2071,0.6659,-0.7182,0.1685,0.1112
1283,0.0,0.0,0.0,0.0,0.0,0.0,-0.3305,-0.9121,-0.2046,0.6664,-0.7193,0.1627,0.1094
1284,0.0,0.0,0.0,0.0,0.0,0.0,-0.3261,-0.9091,-0.2162,0.6664,-0.7209,0.1557,0.1094
1285,0.0,0.0,0.0,0.0,0.0,0.0,-0.3075,-0.9159,-0.2184,0.6651,-0.7237,0.1479,0.1094
1286,0.0,0.0,0.0,0.0,0.0,0.0,-0.3373,-0.8821,-0.2541,0.6610,-0.7289,0.1422,0.1074
1287,0.0,0.0,0.0,0.0,0.0,0.0,-0.3607,-0.9469,-0.2119,0.6575,-0.7330,0.1386,0.1058
1288,0.0,0.0,0.0,0.0,0.0,0.0,-0.3685,-0.9897,-0.2019,0.6551,-0.7355,0.1372,0.1046
1289,0.0,0.0,0.0,0.0,0.0,0.0,-0.3723,-1.0131,-0.1862,0.6550,-0.7358,0.1368,0.1039
1290,0.0,0.0,0.0,0.0,0.0,0.0,-0.3562,-1.0105,-0.2106,0.6554,-0.7356,0.1358,0.1041
1291,0.0,0.0,0.0,0.0,0.0,0.0,-0.3572,-0.9911,-0.2088,0.6565,-0.7346,0.1352,0.1055
1292,0.0,0.0,0.0,0.0,0.0,0.0,-0.3308,-0.9985,-0.2017,0.6590,-0.7322,0.1341,0.1079
1293,0.0,0.0,0.0,0.0,0.0,0.0,-0.3196,-0.9917,-0.1993,0.6614,-0.7297,0.1339,0.1098
1294,0.0,0.0,0.0,0.0,0.0,0.0,-0.3309,-0.9675,-0.1924,0.6648,-0.7261,0.1361,0.1106
1295,0.0,0.0,0.0,0.0,0.0,0.0,-0.3085,-0.9315,-0.2114,0.6673,-0.7234,0.1374,0.1119
1296,0.0,0.0,0.0,0.0,0.0,0.0,-0.3066,-0.9447,-0.1907,0.6704,-0.7201,0.1389,0.1130
1297,0.0,0.0,0.0,0.0,0.0,0.0,-0.3217,-0.9398,-0.1896,0.6729,-0.7172,0.1409,0.1141
1298,0.0,0.0,0.0,0.0,0.0,0.0,-0.3188,-0.9224,-0.1898,0.6739,-0.7157,0.1430,0.1147
1299,0.0,0.0,0.0,0.0,0.0,0.0,-0.2978,-0.9150,-0.2082,0.6739,-0.7153,0.1441,0.1158
1300,0.0,0.0,0.0,0.0,0.0,0.0,-0.3002,-0.9057,-0.2129,0.6732,-0.7157,0.1449,0.1167
1301,0.0,0.0,0.0,0.0,0.0,0.0,-0.2851,-0.8999,-0.2139,0.6723,-0.7163,0.1453,0.1173
1302,0.0,0.0,0.0,0.0,0.0,0.0,-0.2768,-0.9121,-0.2171,0.6718,-0.7169,0.1442,0.1182
1303,0.0,0.0,0.0,0.0,0.0,0.0,-0.2914,-0.9242,-0.2099,0.6709,-0.7178,0.1430,0.1191
1304,0.0,0.0,0.0,0.0,0.0,0.0,-0.2988,-0.9135,-0.2136,0.6698,-0.7190,0.1429,0.1187
1305,0.0,0.0,0.0,0.0,0.0,0.0,-0.3026,-0.9198,-0.2195,0.6685,-0.7203,0.1423,0.1181
1306,0.0,0.0,0.0,0.0,0.0,0.0,-0.3173,-0.9353,-0.2172,0.6674,-0.7215,0.1407,0.1189
1307,0.0,0.0,0.0,0.0,0.0,0.0,-0.3221,-0.9358,-0.2201,0.6662,-0.7228,0.1393,0.1198
1308,0.0,0.0,0.0,0.0,0.0,0.0,-0.3099,-0.9436,-0.2135,0.6660,-0.7231,0.1392,0.1193
1309,0.0,0.0,0.0,0.0,0.0,0.0,-0.3040,-0.9401,-0.2344,0.6659,-0.7233,0.1390,0.1186
1310,0.0,0.0,0.0,0.0,0.0,0.0,-0.3173,-0.9280,-0.2283,0.6654,-0.7238,0.1390,0.1185
1311,0.0,0.0,0.0,0.0,0.0,0.0,-0.3378,-0.9485,-0.2047,0.6668,-0.7223,0.1402,0.1186
1312,0.0,0.0,0.0,0.0,0.0,0.0,-0.3309,-0.9454,-0.2280,0.6673,-0.7216,0.1411,0.1189
1313,0.0,0.0,0.0,0.0,0.0,0.0,-0.3446,-0.9280,-0.2165,0.6682,-0.7203,0.1433,0.1189
1314,0.0,0.0,0.0,0.0,0.0,0.0,-0.3446,-0.9284,-0.2301,0.6690,-0.7190,0.1456,0.1195
1315,0.0,0.0,0.0,0.0,0.0,0.0,-0.3568,-0.9440,-0.2055,0.6704,-0.7171,0.1477,0.1203
1316,0.0,0.0,0.0,0.0,0.0,0.0,-0.3617,-0.9281,-0.1998,0.6719,-0.7151,0.1499,0.1214
1317,0.0,0.0,0.0,0.0,0.0,0.0,-0.3641,-0.9318,-0.2203,0.6732,-0.7132,0.1521,0.1226
1318,0.0,0.0,0.0,0.0,0.0,0.0,-0.3495,-0.9109,-0.2327,0.6732,-0.7125,0.1539,0.1243
1319,0.0,0.0,0.0,0.0,0.0,0.0,-0.3564,-0.9022,-0.2150,0.6749,-0.7101,0.1558,0.1262
1320,0.0,0.0,0.0,0.0,0.0,0.0,-0.3808,-0.9139,-0.2034,0.6758,-0.7085,0.1570,0.1290
1321,0.0,0.0,0.0,0.0,0.0,0.0,-0.3920,-0.9256,-0.1953,0.6768,-0.7071,0.1573,0.1314
1322,0.0,0.0,0.0,0.0,0.0,0.0,-0.3823,-0.9139,-0.2097,0.6773,-0.7062,0.1568,0.1341
1323,0.0,0.0,0.0,0.0,0.0,0.0,-0.3637,-0.8945,-0.2090,0.6778,-0.7054,0.1555,0.1373
1324,0.0,0.0,0.0,0.0,0.0,0.0,-0.3467,-0.8960,-0.2042,0.6785,-0.7046,0.1531,0.1409
1325,0.0,0.0,0.0,0.0,0.0,0.0,-0.3315,-0.9102,-0.1978,0.6786,-0.7045,0.1492,0.1447
1326,0.0,0.0,0.0,0.0,0.0,0.0,-0.3257,-0.9190,-0.1809,0.6789,-0.7043,0.1438,0.1494
1327,0.0,0.0,0.0,0.0,0.0,0.0,-0.3101,-0.9224,-0.1786,0.6791,-0.7044,0.1373,0.1543
1328,0.0,0.0,0.0,0.0,0.0,0.0,-0.2954,-0.9084,-0.1790,0.6791,-0.7047,0.1303,0.1585
1329,0.0,0.0,0.0,0.0,0.0,0.0,-0.2910,-0.9147,-0.1742,0.6792,-0.7050,0.1240,0.1622
1330,0.0,0.0,0.0,0.0,0.0,0.0,-0.2940,-0.9084,-0.1731,0.6785,-0.7060,0.1183,0.1649
1331,0.0,0.0,0.0,0.0,0.0,0.0,-0.3141,-0.9022,-0.1496,0.6778,-0.7072,0.1133,0.1664
1332,0.0,0.0,0.0,0.0,0.0,0.0,-0.3159,-0.9575,-0.1641,0.6770,-0.7085,0.1079,0.1678
1333,0.0,0.0,0.0,0.0,0.0,0.0,-0.2958,-0.9700,-0.1878,0.6764,-0.7093,0.1028,0.1699
1334,0.0,0.0,0.0,0.0,0.0,0.0,-0.3086,-0.9288,-0.1773,0.6753,-0.7104,0.0986,0.1721
1335,0.0,0.0,0.0,0.0,0.0,0.0,-0.3076,-0.9399,-0.1892,0.6741,-0.7114,0.0951,0.1748
1336,0.0,0.0,0.0,0.0,0.0,0.0,-0.3335,-0.9030,-0.1767,0.6729,-0.7122,0.0927,0.1768
1337,0.0,0.0,0.0,0.0,0.0,0.0,-0.3325,-0.8961,-0.1887,0.6712,-0.7138,0.0905,0.1783
1338,0.0,0.0,0.0,0.0,0.0,0.0,-0.3129,-0.9116,-0.2115,0.6686,-0.7162,0.0877,0.1797
1339,0.0,0.0,0.0,0.0,0.0,0.0,-0.3066,-0.8984,-0.2166,0.6656,-0.7191,0.0849,0.1807
1340,0.0,0.0,0.0,0.0,0.0,0.0,-0.3051,-0.9061,-0.2255,0.6621,-0.7225,0.0819,0.1812
1341,0.0,0.0,0.0,0.0,0.0,0.0,-0.3148,-0.9212,-0.2272,0.6586,-0.7259,0.0793,0.1817
1342,0.0,0.0,0.0,0.0,0.0,0.0,-0.3173,-0.9182,-0.2340,0.6556,-0.7288,0.0772,0.1819
1343,0.0,0.0,0.0,0.0,0.0,0.0,-0.3158,-0.9216,-0.2413,0.6527,-0.7316,0.0754,0.1818
1344,0.0,0.0,0.0,0.0,0.0,0.0,-0.3138,-0.9225,-0.2506,0.6493,-0.7348,0.0733,0.1818
1345,0.0,0.0,0.0,0.0,0.0,0.0,-0.3060,-0.9151,-0.2656,0.6457,-0.7383,0.0710,0.1818
1346,0.0,0.0,0.0,0.0,0.0,0.0,-0.2957,-0.9093,-0.2743,0.6422,-0.7416,0.0684,0.1815
1347,0.0,0.0,0.0,0.0,0.0,0.0,-0.3050,-0.9097,-0.2776,0.6383,-0.7453,0.0658,0.1809
1348,0.0,0.0,0.0,0.0,0.0,0.0,-0.3299,-0.9112,-0.2697,0.6348,-0.7486,0.0642,0.1803
1349,0.0,0.0,0.0,0.0,0.0,0.0,-0.3343,-0.9258,-0.2641,0.6325,-0.7508,0.0634,0.1797
1350,0.0,0.0,0.0,0.0,0.0,0.0,-0.3265,-0.9262,-0.2691,0.6300,-0.7532,0.0623,0.1789
1351,0.0,0.0,0.0,0.0,0.0,0.0,-0.3255,-0.9034,-0.2730,0.6267,-0.7563,0.0609,0.1776
1352,0.0,0.0,0.0,0.0,0.0,0.0,-0.3137,-0.9314,-0.2994,0.6243,-0.7586,0.0601,0.1768
1353,0.0,0.0,0.0,0.0,0.0,0.0,-0.3165,-0.9566,-0.3154,0.6221,-0.7604,0.0595,0.1767
1354,0.0,0.0,0.0,0.0,0.0,0.0,-0.3401,-0.9275,-0.2928,0.6204,-0.7616,0.0600,0.1775
1355,0.0,0.0,0.0,0.0,0.0,0.0,-0.3602,-0.8975,-0.2771,0.6192,-0.7622,0.0613,0.1785
1356,0.0,0.0,0.0,0.0,0.0,0.0,-0.3484,-0.9266,-0.2884,0.6184,-0.7627,0.0623,0.1790
1357,0.0,0.0,0.0,0.0,0.0,0.0,-0.3508,-0.9314,-0.2904,0.6179,-0.7629,0.0638,0.1790
1358,0.0,0.0,0.0,0.0,0.0,0.0,-0.3621,-0.9197,-0.2872,0.6171,-0.7634,0.0655,0.1792
1359,0.0,0.0,0.0,0.0,0.0,0.0,-0.3586,-0.9227,-0.2849,0.6165,-0.7636,0.0668,0.1798
1360,0.0,0.0,0.0,0.0,0.0,0.0,-0.3567,-0.9198,-0.2873,0.6166,-0.7633,0.0684,0.1803
1361,0.0,0.0,0.0,0.0,0.0,0.0,-0.3597,-0.9003,-0.2874,0.6165,-0.7631,0.0702,0.1808
1362,0.0,0.0,0.0,0.0,0.0,0.0,-0.3597,-0.9067,-0.2826,0.6169,-0.7625,0.0720,0.1814
1363,0.0,0.0,0.0,0.0,0.0,0.0,-0.3562,-0.9072,-0.2846,0.6173,-0.7618,0.0738,0.1818
1364,0.0,0.0,0.0,0.0,0.0,0.0,-0.3646,-0.9028,-0.2748,0.6176,-0.7614,0.0758,0.1821
1365,0.0,0.0,0.0,0.0,0.0,0.0,-0.3709,-0.9077,-0.2753,0.6179,-0.7608,0.0778,0.1826
1366,0.0,0.0,0.0,0.0,0.0,0.0,-0.3807,-0.9038,-0.2674,0.6186,-0.7598,0.0805,0.1831
1367,0.0,0.0,0.0,0.0,0.0,0.0,-0.3841,-0.9024,-0.2678,0.6191,-0.7590,0.0834,0.1835
1368,0.0,0.0,0.0,0.0,0.0,0.0,-0.3827,-0.8941,-0.2682,0.6194,-0.7584,0.0859,0.1842
1369,0.0,0.0,0.0,0.0,0.0,0.0,-0.3763,-0.8805,-0.2762,0.6195,-0.7578,0.0882,0.1849
1370,0.0,0.0,0.0,0.0,0.0,0.0,-0.3714,-0.8639,-0.2852,0.6193,-0.7575,0.0903,0.1856
1371,0.0,0.0,0.0,0.0,0.0,0.0,-0.3627,-0.8566,-0.2871,0.6187,-0.7577,0.0917,0.1860
1372,0.0,0.0,0.0,0.0,0.0,0.0,-0.3612,-0.8610,-0.2915,0.6176,-0.7586,0.0924,0.1861
1373,0.0,0.0,0.0,0.0,0.0,0.0,-0.3695,-0.8653,-0.2921,0.6172,-0.7589,0.0933,0.1858
1374,0.0,0.0,0.0,0.0,0.0,0.0,-0.3817,-0.8731,-0.2887,0.6170,-0.7590,0.0941,0.1855
1375,0.0,0.0,0.0,0.0,0.0,0.0,-0.3831,-0.8901,-0.2900,0.6164,-0.7594,0.0942,0.1858
1376,0.0,0.0,0.0,0.0,0.0,0.0,-0.3811,-0.8940,-0.2925,0.6155,-0.7596,0.0965,0.1868
1377,0.0,0.0,0.0,0.0,0.0,0.0,-0.3816,-0.8920,-0.2959,0.6152,-0.7598,0.0972,0.1864
1378,0.0,0.0,0.0,0.0,0.0,0.0,-0.3767,-0.8944,-0.3013,0.6151,-0.7600,0.0978,0.1858
