,Position_X,Position_Y,Position_Z,Velocity_X,Velocity_Y,Velocity_Z,Acceleration_X,Acceleration_Y,Acceleration_Z,Quaterion_0,Quaterion_1,Quaterion_2,Quaterion_3
207,0.0,0.0,0.0,0.0,0.0,0.0,-0.1422,0.9700,0.1791,0.4571,0.4853,-0.4714,-0.5773
208,0.0,0.0,0.0,0.0,0.0,0.0,-0.1394,0.9501,0.1709,0.4568,0.4854,-0.4716,-0.5773
209,0.0,0.0,0.0,0.0,0.0,0.0,-0.1271,0.9554,0.1612,0.4566,0.4854,-0.4722,-0.5770
210,0.0,0.0,0.0,0.0,0.0,0.0,-0.1329,0.9646,0.1602,0.4563,0.4855,-0.4726,-0.5768
211,0.0,0.0,0.0,0.0,0.0,0.0,-0.1373,0.9753,0.1631,0.4560,0.4859,-0.4731,-0.5763
212,0.0,0.0,0.0,0.0,0.0,0.0,-0.1480,0.9837,0.1650,0.4558,0.4862,-0.4732,-0.5761
213,0.0,0.0,0.0,0.0,0.0,0.0,-0.1572,0.9857,0.1684,0.4555,0.4864,-0.4731,-0.5762
214,0.0,0.0,0.0,0.0,0.0,0.0,-0.1626,0.9905,0.1723,0.4554,0.4866,-0.4729,-0.5763
215,0.0,0.0,0.0,0.0,0.0,0.0,-0.1655,0.9867,0.1708,0.4552,0.4869,-0.4725,-0.5765
216,0.0,0.0,0.0,0.0,0.0,0.0,-0.1695,0.9742,0.1650,0.4550,0.4875,-0.4719,-0.5767
217,0.0,0.0,0.0,0.0,0.0,0.0,-0.1705,0.9630,0.1606,0.4547,0.4881,-0.4712,-0.5771
218,0.0,0.0,0.0,0.0,0.0,0.0,-0.1682,0.9485,0.1577,0.4547,0.4887,-0.4706,-0.5770
219,0.0,0.0,0.0,0.0,0.0,0.0,-0.1697,0.9480,0.1538,0.4547,0.4892,-0.4705,-0.5767
220,0.0,0.0,0.0,0.0,0.0,0.0,-0.1774,0.9607,0.1553,0.4548,0.4895,-0.4704,-0.5764
221,0.0,0.0,0.0,0.0,0.0,0.0,-0.1832,0.9743,0.1582,0.4546,0.4898,-0.4706,-0.5761
222,0.0,0.0,0.0,0.0,0.0,0.0,-0.1812,0.9835,0.1587,0.4545,0.4900,-0.4709,-0.5758
223,0.0,0.0,0.0,0.0,0.0,0.0,-0.1753,0.9858,0.1635,0.4547,0.4895,-0.4709,-0.5761
224,0.0,0.0,0.0,0.0,0.0,0.0,-0.1675,0.9882,0.1684,0.4548,0.4888,-0.4709,-0.5767
225,0.0,0.0,0.0,0.0,0.0,0.0,-0.1601,0.9891,0.1747,0.4547,0.4882,-0.4711,-0.5771
226,0.0,0.0,0.0,0.0,0.0,0.0,-0.1572,0.9842,0.1786,0.4549,0.4878,-0.4711,-0.5772
227,0.0,0.0,0.0,0.0,0.0,0.0,-0.1568,0.9759,0.1791,0.4552,0.4873,-0.4706,-0.5778
228,0.0,0.0,0.0,0.0,0.0,0.0,-0.1583,0.9672,0.1777,0.4552,0.4868,-0.4701,-0.5786
229,0.0,0.0,0.0,0.0,0.0,0.0,-0.1613,0.9610,0.1786,0.4553,0.4868,-0.4698,-0.5788
230,0.0,0.0,0.0,0.0,0.0,0.0,-0.1681,0.9576,0.1791,0.4553,0.4868,-0.4695,-0.5791
231,0.0,0.0,0.0,0.0,0.0,0.0,-0.1794,0.9539,0.1752,0.4549,0.4872,-0.4693,-0.5792
232,0.0,0.0,0.0,0.0,0.0,0.0,-0.1862,0.9505,0.1723,0.4543,0.4877,-0.4692,-0.5794
233,0.0,0.0,0.0,0.0,0.0,0.0,-0.1853,0.9452,0.1684,0.4535,0.4879,-0.4692,-0.5798
234,0.0,0.0,0.0,0.0,0.0,0.0,-0.1843,0.9471,0.1650,0.4523,0.4882,-0.4699,-0.5799
235,0.0,0.0,0.0,0.0,0.0,0.0,-0.1818,0.9525,0.1621,0.4510,0.4886,-0.4710,-0.5797
236,0.0,0.0,0.0,0.0,0.0,0.0,-0.1774,0.9578,0.1587,0.4497,0.4887,-0.4722,-0.5796
237,0.0,0.0,0.0,0.0,0.0,0.0,-0.1715,0.9655,0.1572,0.4486,0.4883,-0.4734,-0.5798
238,0.0,0.0,0.0,0.0,0.0,0.0,-0.1661,0.9775,0.1567,0.4476,0.4878,-0.4748,-0.5798
239,0.0,0.0,0.0,0.0,0.0,0.0,-0.1626,0.9891,0.1572,0.4466,0.4873,-0.4762,-0.5799
240,0.0,0.0,0.0,0.0,0.0,0.0,-0.1547,0.9944,0.1602,0.4456,0.4865,-0.4772,-0.5805
241,0.0,0.0,0.0,0.0,0.0,0.0,-0.1494,0.9929,0.1572,0.4449,0.4858,-0.4781,-0.5809
242,0.0,0.0,0.0,0.0,0.0,0.0,-0.1440,0.9899,0.1572,0.4445,0.4853,-0.4789,-0.5810
243,0.0,0.0,0.0,0.0,0.0,0.0,-0.1411,0.9894,0.1597,0.4444,0.4847,-0.4796,-0.5810
244,0.0,0.0,0.0,0.0,0.0,0.0,-0.1416,0.9899,0.1597,0.4443,0.4843,-0.4800,-0.5810
245,0.0,0.0,0.0,0.0,0.0,0.0,-0.1431,0.9856,0.1597,0.4445,0.4841,-0.4802,-0.5809
246,0.0,0.0,0.0,0.0,0.0,0.0,-0.1456,0.9745,0.1538,0.4448,0.4840,-0.4802,-0.5807
247,0.0,0.0,0.0,0.0,0.0,0.0,-0.1287,0.9448,0.1402,0.4455,0.4838,-0.4805,-0.5802
248,0.0,0.0,0.0,0.0,0.0,0.0,-0.1418,0.9580,0.1373,0.4459,0.4841,-0.4809,-0.5792
249,0.0,0.0,0.0,0.0,0.0,0.0,-0.1554,0.9683,0.1422,0.4463,0.4846,-0.4813,-0.5782
250,0.0,0.0,0.0,0.0,0.0,0.0,-0.1709,0.9868,0.1504,0.4469,0.4849,-0.4813,-0.5774
251,0.0,0.0,0.0,0.0,0.0,0.0,-0.1801,0.9927,0.1582,0.4473,0.4853,-0.4811,-0.5771
252,0.0,0.0,0.0,0.0,0.0,0.0,-0.1758,0.9868,0.1626,0.4477,0.4853,-0.4807,-0.5770
253,0.0,0.0,0.0,0.0,0.0,0.0,-0.1724,0.9761,0.1635,0.4482,0.4852,-0.4802,-0.5772
254,0.0,0.0,0.0,0.0,0.0,0.0,-0.1735,0.9660,0.1626,0.4486,0.4853,-0.4797,-0.5772
255,0.0,0.0,0.0,0.0,0.0,0.0,-0.1779,0.9607,0.1616,0.4487,0.4854,-0.4793,-0.5773
256,0.0,0.0,0.0,0.0,0.0,0.0,-0.1774,0.9607,0.1606,0.4486,0.4856,-0.4790,-0.5775
257,0.0,0.0,0.0,0.0,0.0,0.0,-0.1730,0.9630,0.1621,0.4486,0.4856,-0.4788,-0.5776
258,0.0,0.0,0.0,0.0,0.0,0.0,-0.1666,0.9630,0.1616,0.4486,0.4852,-0.4789,-0.5779
259,0.0,0.0,0.0,0.0,0.0,0.0,-0.1598,0.9678,0.1626,0.4485,0.4850,-0.4793,-0.5778
260,0.0,0.0,0.0,0.0,0.0,0.0,-0.1642,0.9688,0.1597,0.4484,0.4850,-0.4797,-0.5775
261,0.0,0.0,0.0,0.0,0.0,0.0,-0.1680,0.9809,0.1597,0.4484,0.4849,-0.4801,-0.5774
262,0.0,0.0,0.0,0.0,0.0,0.0,-0.1611,0.9973,0.1660,0.4484,0.4845,-0.4801,-0.5777
263,0.0,0.0,0.0,0.0,0.0,0.0,-0.1611,0.9964,0.1670,0.4482,0.4842,-0.4800,-0.5782
264,0.0,0.0,0.0,0.0,0.0,0.0,-0.1582,0.9881,0.1670,0.4483,0.4839,-0.4797,-0.5786
265,0.0,0.0,0.0,0.0,0.0,0.0,-0.1563,0.9808,0.1694,0.4484,0.4836,-0.4792,-0.5791
266,0.0,0.0,0.0,0.0,0.0,0.0,-0.1578,0.9731,0.1723,0.4485,0.4833,-0.4786,-0.5798
267,0.0,0.0,0.0,0.0,0.0,0.0,-0.1578,0.9706,0.1733,0.4487,0.4831,-0.4780,-0.5804
268,0.0,0.0,0.0,0.0,0.0,0.0,-0.1593,0.9668,0.1738,0.4488,0.4829,-0.4771,-0.5813
269,0.0,0.0,0.0,0.0,0.0,0.0,-0.1613,0.9610,0.1718,0.4489,0.4830,-0.4764,-0.5816
270,0.0,0.0,0.0,0.0,0.0,0.0,-0.1632,0.9586,0.1704,0.4489,0.4833,-0.4759,-0.5818
271,0.0,0.0,0.0,0.0,0.0,0.0,-0.1627,0.9605,0.1694,0.4489,0.4834,-0.4753,-0.5821
272,0.0,0.0,0.0,0.0,0.0,0.0,-0.1666,0.9635,0.1684,0.4488,0.4836,-0.4749,-0.5824
273,0.0,0.0,0.0,0.0,0.0,0.0,-0.1661,0.9673,0.1684,0.4487,0.4836,-0.4746,-0.5827
274,0.0,0.0,0.0,0.0,0.0,0.0,-0.1666,0.9698,0.1684,0.4489,0.4841,-0.4744,-0.5823
275,0.0,0.0,0.0,0.0,0.0,0.0,-0.1676,0.9693,0.1665,0.4489,0.4845,-0.4742,-0.5821
276,0.0,0.0,0.0,0.0,0.0,0.0,-0.1671,0.9654,0.1645,0.4493,0.4844,-0.4736,-0.5825
277,0.0,0.0,0.0,0.0,0.0,0.0,-0.1657,0.9649,0.1660,0.4495,0.4843,-0.4732,-0.5826
278,0.0,0.0,0.0,0.0,0.0,0.0,-0.1671,0.9688,0.1674,0.4498,0.4843,-0.4730,-0.5826
279,0.0,0.0,0.0,0.0,0.0,0.0,-0.1714,0.9751,0.1679,0.4498,0.4844,-0.4728,-0.5826
280,0.0,0.0,0.0,0.0,0.0,0.0,-0.1719,0.9785,0.1723,0.4498,0.4846,-0.4727,-0.5826
281,0.0,0.0,0.0,0.0,0.0,0.0,-0.1719,0.9800,0.1728,0.4499,0.4846,-0.4723,-0.5829
282,0.0,0.0,0.0,0.0,0.0,0.0,-0.1605,0.9310,0.1563,0.4500,0.4845,-0.4723,-0.5828
283,0.0,0.0,0.0,0.0,0.0,0.0,-0.1638,0.9446,0.1494,0.4498,0.4849,-0.4728,-0.5823
284,0.0,0.0,0.0,0.0,0.0,0.0,-0.1759,0.9588,0.1489,0.4492,0.4855,-0.4733,-0.5818
285,0.0,0.0,0.0,0.0,0.0,0.0,-0.1865,0.9845,0.1567,0.4485,0.4860,-0.4739,-0.5814
286,0.0,0.0,0.0,0.0,0.0,0.0,-0.1870,0.9908,0.1630,0.4479,0.4864,-0.4744,-0.5811
287,0.0,0.0,0.0,0.0,0.0,0.0,-0.1777,0.9868,0.1674,0.4474,0.4865,-0.4747,-0.5812
288,0.0,0.0,0.0,0.0,0.0,0.0,-0.1690,0.9761,0.1708,0.4474,0.4861,-0.4748,-0.5815
289,0.0,0.0,0.0,0.0,0.0,0.0,-0.1661,0.9673,0.1704,0.4474,0.4859,-0.4749,-0.5816
290,0.0,0.0,0.0,0.0,0.0,0.0,-0.1705,0.9640,0.1699,0.4475,0.4860,-0.4750,-0.5813
291,0.0,0.0,0.0,0.0,0.0,0.0,-0.1730,0.9683,0.1708,0.4477,0.4859,-0.4747,-0.5815
292,0.0,0.0,0.0,0.0,0.0,0.0,-0.1720,0.9712,0.1742,0.4481,0.4856,-0.4744,-0.5817
293,0.0,0.0,0.0,0.0,0.0,0.0,-0.1727,0.8457,0.1752,0.4483,0.4858,-0.4743,-0.5814
294,0.0,0.0,0.0,0.0,0.0,0.0,-0.1691,0.9625,0.1733,0.4487,0.4860,-0.4743,-0.5809
295,0.0,0.0,0.0,0.0,0.0,0.0,-0.1672,0.9489,0.1665,0.4492,0.4859,-0.4744,-0.5806
296,0.0,0.0,0.0,0.0,0.0,0.0,-0.1653,0.9358,0.1601,0.4496,0.4857,-0.4747,-0.5802
297,0.0,0.0,0.0,0.0,0.0,0.0,-0.1575,0.9411,0.1572,0.4501,0.4854,-0.4754,-0.5795
298,0.0,0.0,0.0,0.0,0.0,0.0,-0.1526,0.9464,0.1563,0.4506,0.4853,-0.4765,-0.5783
299,0.0,0.0,0.0,0.0,0.0,0.0,-0.1579,0.9566,0.1548,0.4511,0.4855,-0.4777,-0.5767
300,0.0,0.0,0.0,0.0,0.0,0.0,-0.1617,0.9698,0.1543,0.4515,0.4860,-0.4791,-0.5748
301,0.0,0.0,0.0,0.0,0.0,0.0,-0.1641,0.9766,0.1514,0.4520,0.4865,-0.4805,-0.5729
302,0.0,0.0,0.0,0.0,0.0,0.0,-0.1631,0.9795,0.1499,0.4526,0.4867,-0.4818,-0.5711
303,0.0,0.0,0.0,0.0,0.0,0.0,-0.1616,0.9829,0.1490,0.4533,0.4865,-0.4831,-0.5695
304,0.0,0.0,0.0,0.0,0.0,0.0,-0.1582,0.9867,0.1475,0.4541,0.4863,-0.4844,-0.5680
305,0.0,0.0,0.0,0.0,0.0,0.0,-0.1533,0.9901,0.1465,0.4551,0.4861,-0.4856,-0.5665
306,0.0,0.0,0.0,0.0,0.0,0.0,-0.1484,0.9900,0.1446,0.4563,0.4856,-0.4863,-0.5653
307,0.0,0.0,0.0,0.0,0.0,0.0,-0.1426,0.9861,0.1407,0.4574,0.4851,-0.4870,-0.5642
308,0.0,0.0,0.0,0.0,0.0,0.0,-0.1377,0.9798,0.1344,0.4583,0.4850,-0.4878,-0.5629
309,0.0,0.0,0.0,0.0,0.0,0.0,-0.1358,0.9773,0.1320,0.4591,0.4851,-0.4886,-0.5614
310,0.0,0.0,0.0,0.0,0.0,0.0,-0.1343,0.9744,0.1295,0.4600,0.4854,-0.4892,-0.5600
311,0.0,0.0,0.0,0.0,0.0,0.0,-0.1353,0.9783,0.1281,0.4607,0.4858,-0.4897,-0.5586
312,0.0,0.0,0.0,0.0,0.0,0.0,-0.1406,0.9876,0.1266,0.4613,0.4864,-0.4902,-0.5570
313,0.0,0.0,0.0,0.0,0.0,0.0,-0.1430,0.9934,0.1227,0.4619,0.4869,-0.4904,-0.5559
314,0.0,0.0,0.0,0.0,0.0,0.0,-0.1445,0.9973,0.1212,0.4627,0.4875,-0.4904,-0.5549
315,0.0,0.0,0.0,0.0,0.0,0.0,-0.1459,1.0022,0.1212,0.4632,0.4883,-0.4907,-0.5534
316,0.0,0.0,0.0,0.0,0.0,0.0,-0.1464,1.0041,0.1217,0.4638,0.4888,-0.4907,-0.5524
317,0.0,0.0,0.0,0.0,0.0,0.0,-0.1435,1.0012,0.1208,0.4646,0.4888,-0.4903,-0.5521
318,0.0,0.0,0.0,0.0,0.0,0.0,-0.1410,0.9973,0.1198,0.4653,0.4890,-0.4899,-0.5517
319,0.0,0.0,0.0,0.0,0.0,0.0,-0.1377,0.9929,0.1213,0.4661,0.4890,-0.4893,-0.5515
320,0.0,0.0,0.0,0.0,0.0,0.0,-0.1357,0.9914,0.1237,0.4668,0.4889,-0.4887,-0.5516
321,0.0,0.0,0.0,0.0,0.0,0.0,-0.1343,0.9880,0.1251,0.4673,0.4890,-0.4883,-0.5514
322,0.0,0.0,0.0,0.0,0.0,0.0,-0.1314,0.9851,0.1271,0.4679,0.4890,-0.4877,-0.5514
323,0.0,0.0,0.0,0.0,0.0,0.0,-0.1299,0.9792,0.1281,0.4685,0.4887,-0.4870,-0.5518
324,0.0,0.0,0.0,0.0,0.0,0.0,-0.1275,0.9705,0.1271,0.4687,0.4887,-0.4865,-0.5521
325,0.0,0.0,0.0,0.0,0.0,0.0,-0.1237,0.9661,0.1261,0.4690,0.4889,-0.4863,-0.5519
326,0.0,0.0,0.0,0.0,0.0,0.0,-0.1237,0.9627,0.1261,0.4693,0.4891,-0.4863,-0.5515
327,0.0,0.0,0.0,0.0,0.0,0.0,-0.1227,0.9589,0.1218,0.4694,0.4895,-0.4867,-0.5507
328,0.0,0.0,0.0,0.0,0.0,0.0,-0.1188,0.9588,0.1184,0.4695,0.4896,-0.4872,-0.5500
329,0.0,0.0,0.0,0.0,0.0,0.0,-0.1179,0.9564,0.1174,0.4697,0.4894,-0.4881,-0.5492
330,0.0,0.0,0.0,0.0,0.0,0.0,-0.1149,0.9627,0.1169,0.4697,0.4896,-0.4894,-0.5478
331,0.0,0.0,0.0,0.0,0.0,0.0,-0.1114,0.9752,0.1179,0.4699,0.4894,-0.4908,-0.5466
332,0.0,0.0,0.0,0.0,0.0,0.0,-0.1074,0.9849,0.1169,0.4701,0.4891,-0.4922,-0.5455
333,0.0,0.0,0.0,0.0,0.0,0.0,-0.1045,0.9936,0.1159,0.4701,0.4889,-0.4937,-0.5443
334,0.0,0.0,0.0,0.0,0.0,0.0,-0.1015,0.9994,0.1169,0.4703,0.4888,-0.4951,-0.5429
335,0.0,0.0,0.0,0.0,0.0,0.0,-0.0985,1.0047,0.1174,0.4703,0.4888,-0.4965,-0.5417
336,0.0,0.0,0.0,0.0,0.0,0.0,-0.0951,1.0100,0.1174,0.4706,0.4884,-0.4975,-0.5408
337,0.0,0.0,0.0,0.0,0.0,0.0,-0.0951,1.0090,0.1155,0.4712,0.4879,-0.4980,-0.5403
338,0.0,0.0,0.0,0.0,0.0,0.0,-0.0927,0.9998,0.1130,0.4716,0.4875,-0.4986,-0.5397
339,0.0,0.0,0.0,0.0,0.0,0.0,-0.0898,0.9954,0.1130,0.4720,0.4871,-0.4989,-0.5395
340,0.0,0.0,0.0,0.0,0.0,0.0,-0.0922,0.9998,0.1140,0.4725,0.4866,-0.4988,-0.5396
341,0.0,0.0,0.0,0.0,0.0,0.0,-0.0917,0.9974,0.1125,0.4728,0.4862,-0.4984,-0.5401
342,0.0,0.0,0.0,0.0,0.0,0.0,-0.0893,0.9891,0.1106,0.4730,0.4859,-0.4982,-0.5404
343,0.0,0.0,0.0,0.0,0.0,0.0,-0.0845,0.9833,0.1087,0.4730,0.4855,-0.4982,-0.5407
344,0.0,0.0,0.0,0.0,0.0,0.0,-0.0830,0.9823,0.1082,0.4731,0.4852,-0.4984,-0.5407
345,0.0,0.0,0.0,0.0,0.0,0.0,-0.0864,0.9881,0.1106,0.4729,0.4848,-0.4986,-0.5411
346,0.0,0.0,0.0,0.0,0.0,0.0,-0.0922,1.0042,0.1145,0.4725,0.4845,-0.4987,-0.5415
347,0.0,0.0,0.0,0.0,0.0,0.0,-0.0970,1.0187,0.1198,0.4721,0.4842,-0.4987,-0.5421
348,0.0,0.0,0.0,0.0,0.0,0.0,-0.0989,1.0202,0.1198,0.4717,0.4840,-0.4983,-0.5431
349,0.0,0.0,0.0,0.0,0.0,0.0,-0.0966,1.0056,0.1174,0.4714,0.4837,-0.4976,-0.5442
350,0.0,0.0,0.0,0.0,0.0,0.0,-0.0967,0.9916,0.1159,0.4713,0.4834,-0.4969,-0.5452
351,0.0,0.0,0.0,0.0,0.0,0.0,-0.0972,0.9814,0.1169,0.4713,0.4830,-0.4965,-0.5460
352,0.0,0.0,0.0,0.0,0.0,0.0,-0.0967,0.9780,0.1208,0.4713,0.4825,-0.4961,-0.5468
353,0.0,0.0,0.0,0.0,0.0,0.0,-0.0967,0.9780,0.1232,0.4717,0.4816,-0.4958,-0.5475
354,0.0,0.0,0.0,0.0,0.0,0.0,-0.0948,0.9707,0.1247,0.4722,0.4808,-0.4957,-0.5479
355,0.0,0.0,0.0,0.0,0.0,0.0,-0.0914,0.9702,0.1271,0.4727,0.4799,-0.4957,-0.5483
356,0.0,0.0,0.0,0.0,0.0,0.0,-0.0879,0.9808,0.1315,0.4732,0.4788,-0.4960,-0.5484
357,0.0,0.0,0.0,0.0,0.0,0.0,-0.0855,0.9856,0.1344,0.4738,0.4780,-0.4964,-0.5483
358,0.0,0.0,0.0,0.0,0.0,0.0,-0.0796,0.9846,0.1344,0.4745,0.4770,-0.4966,-0.5484
359,0.0,0.0,0.0,0.0,0.0,0.0,-0.0781,0.9856,0.1325,0.4751,0.4761,-0.4969,-0.5483
360,0.0,0.0,0.0,0.0,0.0,0.0,-0.0786,0.9827,0.1296,0.4756,0.4754,-0.4969,-0.5484
361,0.0,0.0,0.0,0.0,0.0,0.0,-0.0771,0.9899,0.1306,0.4760,0.4748,-0.4969,-0.5487
362,0.0,0.0,0.0,0.0,0.0,0.0,-0.0781,1.0006,0.1330,0.4763,0.4744,-0.4970,-0.5487
363,0.0,0.0,0.0,0.0,0.0,0.0,-0.0800,1.0011,0.1310,0.4762,0.4742,-0.4970,-0.5489
364,0.0,0.0,0.0,0.0,0.0,0.0,-0.0795,1.0001,0.1306,0.4762,0.4740,-0.4968,-0.5493
365,0.0,0.0,0.0,0.0,0.0,0.0,-0.0796,0.9822,0.1296,0.4760,0.4739,-0.4964,-0.5500
366,0.0,0.0,0.0,0.0,0.0,0.0,-0.0826,0.9754,0.1301,0.4759,0.4738,-0.4960,-0.5505
367,0.0,0.0,0.0,0.0,0.0,0.0,-0.0836,0.9711,0.1325,0.4757,0.4738,-0.4959,-0.5507
368,0.0,0.0,0.0,0.0,0.0,0.0,-0.0856,0.9648,0.1359,0.4756,0.4735,-0.4958,-0.5512
369,0.0,0.0,0.0,0.0,0.0,0.0,-0.0851,0.9648,0.1388,0.4754,0.4732,-0.4959,-0.5516
370,0.0,0.0,0.0,0.0,0.0,0.0,-0.0870,0.9667,0.1408,0.4751,0.4732,-0.4960,-0.5517
371,0.0,0.0,0.0,0.0,0.0,0.0,-0.0866,0.9638,0.1422,0.4748,0.4733,-0.4964,-0.5516
372,0.0,0.0,0.0,0.0,0.0,0.0,-0.0802,0.9618,0.1422,0.4747,0.4730,-0.4968,-0.5515
373,0.0,0.0,0.0,0.0,0.0,0.0,-0.0715,0.9487,0.1359,0.4747,0.4726,-0.4975,-0.5513
374,0.0,0.0,0.0,0.0,0.0,0.0,-0.0657,0.9477,0.1262,0.4747,0.4723,-0.4985,-0.5505
375,0.0,0.0,0.0,0.0,0.0,0.0,-0.0602,0.9607,0.1213,0.4748,0.4722,-0.4999,-0.5493
376,0.0,0.0,0.0,0.0,0.0,0.0,-0.0601,0.9864,0.1199,0.4749,0.4721,-0.5014,-0.5480
377,0.0,0.0,0.0,0.0,0.0,0.0,-0.0642,1.0252,0.1213,0.4750,0.4717,-0.5028,-0.5469
378,0.0,0.0,0.0,0.0,0.0,0.0,-0.0631,1.0441,0.1238,0.4752,0.4710,-0.5038,-0.5463
379,0.0,0.0,0.0,0.0,0.0,0.0,-0.0612,1.0455,0.1223,0.4754,0.4703,-0.5046,-0.5460
380,0.0,0.0,0.0,0.0,0.0,0.0,-0.0588,1.0421,0.1228,0.4756,0.4698,-0.5050,-0.5460
381,0.0,0.0,0.0,0.0,0.0,0.0,-0.0574,1.0280,0.1252,0.4757,0.4693,-0.5049,-0.5463
382,0.0,0.0,0.0,0.0,0.0,0.0,-0.0551,1.0067,0.1286,0.4760,0.4690,-0.5046,-0.5467
383,0.0,0.0,0.0,0.0,0.0,0.0,-0.0547,0.9888,0.1316,0.4762,0.4686,-0.5041,-0.5473
384,0.0,0.0,0.0,0.0,0.0,0.0,-0.0581,0.9839,0.1369,0.4766,0.4681,-0.5034,-0.5480
385,0.0,0.0,0.0,0.0,0.0,0.0,-0.0640,0.9864,0.1418,0.4771,0.4679,-0.5025,-0.5486
386,0.0,0.0,0.0,0.0,0.0,0.0,-0.0684,0.9806,0.1418,0.4774,0.4677,-0.5016,-0.5494
387,0.0,0.0,0.0,0.0,0.0,0.0,-0.0684,0.9767,0.1413,0.4776,0.4679,-0.5010,-0.5496
388,0.0,0.0,0.0,0.0,0.0,0.0,-0.0670,0.9791,0.1388,0.4777,0.4683,-0.5005,-0.5496
389,0.0,0.0,0.0,0.0,0.0,0.0,-0.0650,0.9791,0.1325,0.4776,0.4689,-0.4998,-0.5497
390,0.0,0.0,0.0,0.0,0.0,0.0,-0.0621,0.9801,0.1277,0.4777,0.4698,-0.4993,-0.5493
391,0.0,0.0,0.0,0.0,0.0,0.0,-0.0621,0.9806,0.1228,0.4777,0.4709,-0.4986,-0.5490
392,0.0,0.0,0.0,0.0,0.0,0.0,-0.0625,0.9908,0.1218,0.4776,0.4724,-0.4981,-0.5483
393,0.0,0.0,0.0,0.0,0.0,0.0,-0.0624,1.0073,0.1233,0.4777,0.4740,-0.4974,-0.5474
394,0.0,0.0,0.0,0.0,0.0,0.0,-0.0643,1.0160,0.1223,0.4780,0.4754,-0.4965,-0.5468
395,0.0,0.0,0.0,0.0,0.0,0.0,-0.0656,1.0397,0.1281,0.4788,0.4766,-0.4954,-0.5460
396,0.0,0.0,0.0,0.0,0.0,0.0,-0.0617,1.0460,0.1325,0.4803,0.4771,-0.4939,-0.5457
397,0.0,0.0,0.0,0.0,0.0,0.0,-0.0564,1.0343,0.1281,0.4825,0.4770,-0.4919,-0.5456
398,0.0,0.0,0.0,0.0,0.0,0.0,-0.0541,1.0091,0.1277,0.4858,0.4762,-0.4892,-0.5459
399,0.0,0.0,0.0,0.0,0.0,0.0,-0.0616,0.9801,0.1311,0.4896,0.4753,-0.4859,-0.5462
400,0.0,0.0,0.0,0.0,0.0,0.0,-0.0700,0.9583,0.1354,0.4936,0.4752,-0.4826,-0.5455
401,0.0,0.0,0.0,0.0,0.0,0.0,-0.0813,0.9507,0.1427,0.4977,0.4758,-0.4795,-0.5441
402,0.0,0.0,0.0,0.0,0.0,0.0,-0.0964,0.9503,0.1505,0.5018,0.4765,-0.4763,-0.5425
403,0.0,0.0,0.0,0.0,0.0,0.0,-0.1092,0.9431,0.1524,0.5055,0.4774,-0.4731,-0.5409
404,0.0,0.0,0.0,0.0,0.0,0.0,-0.1107,0.9291,0.1544,0.5086,0.4784,-0.4704,-0.5396
405,0.0,0.0,0.0,0.0,0.0,0.0,-0.1043,0.9305,0.1588,0.5112,0.4794,-0.4686,-0.5378
406,0.0,0.0,0.0,0.0,0.0,0.0,-0.0950,0.9391,0.1656,0.5134,0.4801,-0.4675,-0.5361
407,0.0,0.0,0.0,0.0,0.0,0.0,-0.0852,0.9419,0.1661,0.5148,0.4803,-0.4672,-0.5348
408,0.0,0.0,0.0,0.0,0.0,0.0,-0.0768,0.9612,0.1705,0.5156,0.4803,-0.4675,-0.5338
409,0.0,0.0,0.0,0.0,0.0,0.0,-0.0763,0.9752,0.1748,0.5157,0.4806,-0.4680,-0.5329
410,0.0,0.0,0.0,0.0,0.0,0.0,-0.0789,1.0174,0.1855,0.5153,0.4809,-0.4688,-0.5323
411,0.0,0.0,0.0,0.0,0.0,0.0,-0.0792,1.0499,0.1875,0.5145,0.4808,-0.4697,-0.5325
412,0.0,0.0,0.0,0.0,0.0,0.0,-0.0758,1.0513,0.1889,0.5136,0.4803,-0.4699,-0.5335
413,0.0,0.0,0.0,0.0,0.0,0.0,-0.0729,1.0508,0.1880,0.5131,0.4795,-0.4694,-0.5353
414,0.0,0.0,0.0,0.0,0.0,0.0,-0.0680,1.0483,0.1841,0.5130,0.4780,-0.4685,-0.5374
415,0.0,0.0,0.0,0.0,0.0,0.0,-0.0536,1.0056,0.1753,0.5132,0.4758,-0.4678,-0.5398
416,0.0,0.0,0.0,0.0,0.0,0.0,-0.0475,0.9667,0.1739,0.5139,0.4732,-0.4670,-0.5421
417,0.0,0.0,0.0,0.0,0.0,0.0,-0.0588,0.9552,0.1826,0.5145,0.4708,-0.4662,-0.5444
418,0.0,0.0,0.0,0.0,0.0,0.0,-0.0564,0.9450,0.1929,0.5156,0.4679,-0.4656,-0.5463
419,0.0,0.0,0.0,0.0,0.0,0.0,-0.0555,0.9376,0.2045,0.5173,0.4643,-0.4652,-0.5482
420,0.0,0.0,0.0,0.0,0.0,0.0,-0.0536,0.9211,0.2123,0.5192,0.4602,-0.4657,-0.5493
421,0.0,0.0,0.0,0.0,0.0,0.0,-0.0462,0.9389,0.2332,0.5213,0.4555,-0.4671,-0.5501
422,0.0,0.0,0.0,0.0,0.0,0.0,-0.0301,0.9315,0.2406,0.5236,0.4497,-0.4689,-0.5512
423,0.0,0.0,0.0,0.0,0.0,0.0,0.0048,0.8987,0.2474,0.5260,0.4433,-0.4712,-0.5520
424,0.0,0.0,0.0,0.0,0.0,0.0,0.0362,0.9318,0.2630,0.5282,0.4373,-0.4738,-0.5526
425,0.0,0.0,0.0,0.0,0.0,0.0,0.0530,0.9534,0.2713,0.5299,0.4320,-0.4761,-0.5532
426,0.0,0.0,0.0,0.0,0.0,0.0,0.0697,0.9702,0.2776,0.5311,0.4276,-0.4783,-0.5534
427,0.0,0.0,0.0,0.0,0.0,0.0,0.0794,0.9692,0.2767,0.5332,0.4253,-0.4792,-0.5525
428,0.0,0.0,0.0,0.0,0.0,0.0,0.0785,0.9702,0.2718,0.5336,0.4225,-0.4808,-0.5528
429,0.0,0.0,0.0,0.0,0.0,0.0,0.0784,0.9639,0.2698,0.5339,0.4205,-0.4821,-0.5529
430,0.0,0.0,0.0,0.0,0.0,0.0,0.0663,0.9732,0.2635,0.5339,0.4191,-0.4833,-0.5529
431,0.0,0.0,0.0,0.0,0.0,0.0,0.0502,0.9729,0.2572,0.5337,0.4186,-0.4839,-0.5530
432,0.0,0.0,0.0,0.0,0.0,0.0,0.0360,0.9682,0.2508,0.5333,0.4189,-0.4842,-0.5528
433,0.0,0.0,0.0,0.0,0.0,0.0,0.0243,0.9678,0.2489,0.5327,0.4201,-0.4844,-0.5524
434,0.0,0.0,0.0,0.0,0.0,0.0,0.0071,0.9597,0.2474,0.5319,0.4218,-0.4843,-0.5520
435,0.0,0.0,0.0,0.0,0.0,0.0,-0.0046,0.9516,0.2430,0.5308,0.4241,-0.4844,-0.5512
436,0.0,0.0,0.0,0.0,0.0,0.0,-0.0105,0.9526,0.2406,0.5295,0.4269,-0.4844,-0.5503
437,0.0,0.0,0.0,0.0,0.0,0.0,-0.0139,0.9624,0.2391,0.5279,0.4291,-0.4843,-0.5501
438,0.0,0.0,0.0,0.0,0.0,0.0,-0.0188,0.9522,0.2352,0.5262,0.4315,-0.4844,-0.5498
439,0.0,0.0,0.0,0.0,0.0,0.0,-0.0227,0.9475,0.2289,0.5243,0.4345,-0.4846,-0.5491
440,0.0,0.0,0.0,0.0,0.0,0.0,-0.0261,0.9509,0.2226,0.5221,0.4378,-0.4851,-0.5481
441,0.0,0.0,0.0,0.0,0.0,0.0,-0.0300,0.9539,0.2138,0.5198,0.4409,-0.4855,-0.5473
442,0.0,0.0,0.0,0.0,0.0,0.0,-0.0300,0.9636,0.2094,0.5169,0.4447,-0.4874,-0.5454
443,0.0,0.0,0.0,0.0,0.0,0.0,-0.0352,0.9787,0.2021,0.5145,0.4480,-0.4882,-0.5443
444,0.0,0.0,0.0,0.0,0.0,0.0,-0.0385,0.9996,0.1933,0.5120,0.4511,-0.4890,-0.5434
445,0.0,0.0,0.0,0.0,0.0,0.0,-0.0452,1.0219,0.1851,0.5097,0.4540,-0.4896,-0.5426
446,0.0,0.0,0.0,0.0,0.0,0.0,-0.0544,1.0424,0.1700,0.5075,0.4570,-0.4899,-0.5418
447,0.0,0.0,0.0,0.0,0.0,0.0,-0.0617,1.0445,0.1583,0.5056,0.4597,-0.4896,-0.5415
448,0.0,0.0,0.0,0.0,0.0,0.0,-0.0662,1.0218,0.1447,0.5040,0.4621,-0.4892,-0.5415
449,0.0,0.0,0.0,0.0,0.0,0.0,-0.0697,1.0068,0.1408,0.5028,0.4634,-0.4884,-0.5422
450,0.0,0.0,0.0,0.0,0.0,0.0,-0.0727,1.0000,0.1432,0.5018,0.4643,-0.4876,-0.5430
451,0.0,0.0,0.0,0.0,0.0,0.0,-0.0723,0.9908,0.1466,0.5010,0.4649,-0.4872,-0.5435
452,0.0,0.0,0.0,0.0,0.0,0.0,-0.0640,0.9844,0.1578,0.5006,0.4649,-0.4866,-0.5446
453,0.0,0.0,0.0,0.0,0.0,0.0,-0.0591,0.9833,0.1710,0.5002,0.4644,-0.4860,-0.5458
454,0.0,0.0,0.0,0.0,0.0,0.0,-0.0410,0.9933,0.1836,0.4996,0.4637,-0.4858,-0.5471
455,0.0,0.0,0.0,0.0,0.0,0.0,-0.0274,0.9820,0.1880,0.4989,0.4632,-0.4855,-0.5485
456,0.0,0.0,0.0,0.0,0.0,0.0,-0.0094,0.9756,0.1948,0.4982,0.4628,-0.4852,-0.5497
457,0.0,0.0,0.0,0.0,0.0,0.0,-0.0084,0.9814,0.1968,0.4972,0.4623,-0.4848,-0.5514
458,0.0,0.0,0.0,0.0,0.0,0.0,-0.0172,0.9766,0.2016,0.4963,0.4619,-0.4839,-0.5533
459,0.0,0.0,0.0,0.0,0.0,0.0,-0.0190,1.0793,0.2143,0.4953,0.4626,-0.4821,-0.5552
460,0.0,0.0,0.0,0.0,0.0,0.0,-0.0332,1.0649,0.2109,0.4941,0.4634,-0.4788,-0.5584
461,0.0,0.0,0.0,0.0,0.0,0.0,-0.0265,0.9616,0.2002,0.4929,0.4633,-0.4769,-0.5613
462,0.0,0.0,0.0,0.0,0.0,0.0,-0.0407,0.9623,0.1948,0.4913,0.4639,-0.4763,-0.5627
463,0.0,0.0,0.0,0.0,0.0,0.0,-0.0366,0.9109,0.1904,0.4906,0.4653,-0.4754,-0.5628
464,0.0,0.0,0.0,0.0,0.0,0.0,-0.0338,0.8924,0.1846,0.4911,0.4670,-0.4750,-0.5613
465,0.0,0.0,0.0,0.0,0.0,0.0,-0.0556,0.9193,0.1787,0.4912,0.4697,-0.4750,-0.5590
466,0.0,0.0,0.0,0.0,0.0,0.0,-0.0475,0.8907,0.1685,0.4924,0.4720,-0.4746,-0.5564
467,0.0,0.0,0.0,0.0,0.0,0.0,-0.0564,0.8671,0.1539,0.4946,0.4749,-0.4732,-0.5531
468,0.0,0.0,0.0,0.0,0.0,0.0,-0.0734,0.8793,0.1486,0.4974,0.4789,-0.4717,-0.5485
469,0.0,0.0,0.0,0.0,0.0,0.0,-0.0814,0.9327,0.1534,0.5003,0.4823,-0.4710,-0.5434
470,0.0,0.0,0.0,0.0,0.0,0.0,-0.0839,0.9221,0.1452,0.5040,0.4844,-0.4705,-0.5385
471,0.0,0.0,0.0,0.0,0.0,0.0,-0.0840,0.9018,0.1398,0.5088,0.4862,-0.4698,-0.5330
472,0.0,0.0,0.0,0.0,0.0,0.0,-0.0981,0.9896,0.1451,0.5136,0.4887,-0.4696,-0.5262
473,0.0,0.0,0.0,0.0,0.0,0.0,-0.1045,1.0618,0.1471,0.5169,0.4922,-0.4699,-0.5194
474,0.0,0.0,0.0,0.0,0.0,0.0,-0.0874,1.0753,0.1393,0.5185,0.4952,-0.4712,-0.5137
475,0.0,0.0,0.0,0.0,0.0,0.0,-0.0815,1.0767,0.1344,0.5177,0.4964,-0.4742,-0.5107
476,0.0,0.0,0.0,0.0,0.0,0.0,-0.0704,1.0519,0.1233,0.5174,0.4976,-0.4763,-0.5078
477,0.0,0.0,0.0,0.0,0.0,0.0,-0.0618,1.0267,0.1150,0.5170,0.4980,-0.4787,-0.5055
478,0.0,0.0,0.0,0.0,0.0,0.0,-0.0564,1.0223,0.1140,0.5165,0.4981,-0.4811,-0.5037
479,0.0,0.0,0.0,0.0,0.0,0.0,-0.0545,1.0285,0.1179,0.5163,0.4976,-0.4827,-0.5028
480,0.0,0.0,0.0,0.0,0.0,0.0,-0.0516,1.0193,0.1208,0.5159,0.4970,-0.4841,-0.5024
481,0.0,0.0,0.0,0.0,0.0,0.0,-0.0380,1.0085,0.1223,0.5157,0.4960,-0.4851,-0.5027
482,0.0,0.0,0.0,0.0,0.0,0.0,-0.0337,0.9910,0.1218,0.5155,0.4951,-0.4861,-0.5029
483,0.0,0.0,0.0,0.0,0.0,0.0,-0.0279,0.9793,0.1219,0.5151,0.4940,-0.4872,-0.5033
484,0.0,0.0,0.0,0.0,0.0,0.0,-0.0240,0.9798,0.1223,0.5147,0.4929,-0.4884,-0.5036
485,0.0,0.0,0.0,0.0,0.0,0.0,-0.0220,0.9783,0.1209,0.5144,0.4919,-0.4897,-0.5036
486,0.0,0.0,0.0,0.0,0.0,0.0,-0.0259,0.9895,0.1238,0.5138,0.4911,-0.4908,-0.5040
487,0.0,0.0,0.0,0.0,0.0,0.0,-0.0282,1.0060,0.1262,0.5131,0.4905,-0.4918,-0.5043
488,0.0,0.0,0.0,0.0,0.0,0.0,-0.0331,1.0138,0.1248,0.5122,0.4902,-0.4925,-0.5047
489,0.0,0.0,0.0,0.0,0.0,0.0,-0.0351,1.0060,0.1238,0.5114,0.4897,-0.4928,-0.5058
490,0.0,0.0,0.0,0.0,0.0,0.0,-0.0351,0.9930,0.1199,0.5105,0.4893,-0.4930,-0.5068
491,0.0,0.0,0.0,0.0,0.0,0.0,-0.0347,0.9789,0.1204,0.5098,0.4889,-0.4932,-0.5078
492,0.0,0.0,0.0,0.0,0.0,0.0,-0.0366,0.9891,0.1272,0.5090,0.4885,-0.4937,-0.5085
493,0.0,0.0,0.0,0.0,0.0,0.0,-0.0449,0.9969,0.1306,0.5082,0.4883,-0.4942,-0.5089
494,0.0,0.0,0.0,0.0,0.0,0.0,-0.0430,0.9921,0.1282,0.5076,0.4878,-0.4942,-0.5101
495,0.0,0.0,0.0,0.0,0.0,0.0,-0.0395,0.9925,0.1277,0.5071,0.4874,-0.4942,-0.5109
496,0.0,0.0,0.0,0.0,0.0,0.0,-0.0440,0.9882,0.1248,0.5066,0.4871,-0.4941,-0.5118
497,0.0,0.0,0.0,0.0,0.0,0.0,-0.0421,0.9780,0.1223,0.5061,0.4869,-0.4940,-0.5126
498,0.0,0.0,0.0,0.0,0.0,0.0,-0.0440,0.9737,0.1209,0.5055,0.4870,-0.4941,-0.5130
499,0.0,0.0,0.0,0.0,0.0,0.0,-0.0474,0.9810,0.1209,0.5048,0.4872,-0.4942,-0.5134
500,0.0,0.0,0.0,0.0,0.0,0.0,-0.0464,0.9882,0.1213,0.5042,0.4876,-0.4945,-0.5134
501,0.0,0.0,0.0,0.0,0.0,0.0,-0.0483,0.9946,0.1184,0.5036,0.4881,-0.4947,-0.5132
502,0.0,0.0,0.0,0.0,0.0,0.0,-0.0454,0.9907,0.1126,0.5028,0.4887,-0.4950,-0.5131
503,0.0,0.0,0.0,0.0,0.0,0.0,-0.0444,0.9873,0.1072,0.5021,0.4893,-0.4954,-0.5129
504,0.0,0.0,0.0,0.0,0.0,0.0,-0.0449,0.9888,0.1019,0.5013,0.4900,-0.4956,-0.5128
505,0.0,0.0,0.0,0.0,0.0,0.0,-0.0439,0.9912,0.0999,0.5007,0.4906,-0.4958,-0.5126
506,0.0,0.0,0.0,0.0,0.0,0.0,-0.0419,1.0013,0.1009,0.5000,0.4910,-0.4961,-0.5126
507,0.0,0.0,0.0,0.0,0.0,0.0,-0.0468,1.0062,0.1029,0.4995,0.4916,-0.4963,-0.5124
508,0.0,0.0,0.0,0.0,0.0,0.0,-0.0482,1.0057,0.1019,0.4988,0.4922,-0.4964,-0.5124
509,0.0,0.0,0.0,0.0,0.0,0.0,-0.0471,1.0261,0.1038,0.4982,0.4928,-0.4963,-0.5125
510,0.0,0.0,0.0,0.0,0.0,0.0,-0.0553,1.0436,0.1092,0.4974,0.4936,-0.4960,-0.5128
511,0.0,0.0,0.0,0.0,0.0,0.0,-0.0539,1.0436,0.1126,0.4965,0.4941,-0.4952,-0.5138
512,0.0,0.0,0.0,0.0,0.0,0.0,-0.0612,1.0466,0.1067,0.4955,0.4946,-0.4935,-0.5160
513,0.0,0.0,0.0,0.0,0.0,0.0,-0.0599,1.0116,0.1092,0.4946,0.4952,-0.4913,-0.5185
514,0.0,0.0,0.0,0.0,0.0,0.0,-0.0635,0.9807,0.1038,0.4934,0.4958,-0.4886,-0.5216
515,0.0,0.0,0.0,0.0,0.0,0.0,-0.0701,0.9371,0.0999,0.4922,0.4962,-0.4859,-0.5248
516,0.0,0.0,0.0,0.0,0.0,0.0,-0.0550,0.9394,0.1029,0.4915,0.4962,-0.4845,-0.5267
517,0.0,0.0,0.0,0.0,0.0,0.0,-0.0535,0.9462,0.1004,0.4908,0.4960,-0.4841,-0.5280
518,0.0,0.0,0.0,0.0,0.0,0.0,-0.0520,0.9544,0.1043,0.4903,0.4955,-0.4843,-0.5286
519,0.0,0.0,0.0,0.0,0.0,0.0,-0.0572,0.9845,0.1097,0.4900,0.4952,-0.4848,-0.5288
520,0.0,0.0,0.0,0.0,0.0,0.0,-0.0547,0.9932,0.1097,0.4902,0.4947,-0.4851,-0.5289
521,0.0,0.0,0.0,0.0,0.0,0.0,-0.0557,0.9806,0.1072,0.4905,0.4941,-0.4855,-0.5288
522,0.0,0.0,0.0,0.0,0.0,0.0,-0.0548,0.9743,0.1082,0.4909,0.4938,-0.4859,-0.5282
523,0.0,0.0,0.0,0.0,0.0,0.0,-0.0538,0.9704,0.1116,0.4916,0.4934,-0.4864,-0.5275
524,0.0,0.0,0.0,0.0,0.0,0.0,-0.0600,0.9908,0.1233,0.4921,0.4931,-0.4870,-0.5268
525,0.0,0.0,0.0,0.0,0.0,0.0,-0.0565,1.0193,0.1330,0.4925,0.4924,-0.4874,-0.5267
526,0.0,0.0,0.0,0.0,0.0,0.0,-0.0578,1.0416,0.1315,0.4928,0.4916,-0.4873,-0.5272
527,0.0,0.0,0.0,0.0,0.0,0.0,-0.0547,0.9907,0.1252,0.4931,0.4909,-0.4869,-0.5280
528,0.0,0.0,0.0,0.0,0.0,0.0,-0.0547,0.9931,0.1218,0.4931,0.4904,-0.4867,-0.5286
529,0.0,0.0,0.0,0.0,0.0,0.0,-0.0557,0.9888,0.1238,0.4930,0.4903,-0.4866,-0.5289
530,0.0,0.0,0.0,0.0,0.0,0.0,-0.0567,0.9762,0.1238,0.4929,0.4900,-0.4866,-0.5294
531,0.0,0.0,0.0,0.0,0.0,0.0,-0.0553,0.9728,0.1267,0.4927,0.4897,-0.4866,-0.5298
532,0.0,0.0,0.0,0.0,0.0,0.0,-0.0607,0.9699,0.1306,0.4923,0.4896,-0.4867,-0.5301
533,0.0,0.0,0.0,0.0,0.0,0.0,-0.0694,0.9835,0.1349,0.4919,0.4896,-0.4866,-0.5306
534,0.0,0.0,0.0,0.0,0.0,0.0,-0.0699,0.9797,0.1364,0.4915,0.4898,-0.4863,-0.5311
535,0.0,0.0,0.0,0.0,0.0,0.0,-0.0700,0.9666,0.1364,0.4910,0.4902,-0.4863,-0.5312
536,0.0,0.0,0.0,0.0,0.0,0.0,-0.0675,0.9666,0.1354,0.4903,0.4908,-0.4863,-0.5311
537,0.0,0.0,0.0,0.0,0.0,0.0,-0.0645,0.9806,0.1374,0.4898,0.4914,-0.4863,-0.5312
538,0.0,0.0,0.0,0.0,0.0,0.0,-0.0679,0.9903,0.1369,0.4893,0.4921,-0.4861,-0.5311
539,0.0,0.0,0.0,0.0,0.0,0.0,-0.0776,0.9981,0.1393,0.4887,0.4931,-0.4858,-0.5311
540,0.0,0.0,0.0,0.0,0.0,0.0,-0.0796,0.9919,0.1354,0.4879,0.4943,-0.4855,-0.5309
541,0.0,0.0,0.0,0.0,0.0,0.0,-0.0806,0.9754,0.1296,0.4872,0.4958,-0.4853,-0.5304
542,0.0,0.0,0.0,0.0,0.0,0.0,-0.0918,0.9886,0.1359,0.4864,0.4973,-0.4850,-0.5299
543,0.0,0.0,0.0,0.0,0.0,0.0,-0.1072,1.0309,0.1437,0.4861,0.4984,-0.4844,-0.5297
544,0.0,0.0,0.0,0.0,0.0,0.0,-0.1023,1.0211,0.1359,0.4862,0.4989,-0.4835,-0.5300
545,0.0,0.0,0.0,0.0,0.0,0.0,-0.1024,1.0139,0.1291,0.4866,0.4991,-0.4823,-0.5306
546,0.0,0.0,0.0,0.0,0.0,0.0,-0.1037,1.0333,0.1344,0.4870,0.4991,-0.4808,-0.5316
547,0.0,0.0,0.0,0.0,0.0,0.0,-0.1105,1.0391,0.1388,0.4874,0.4987,-0.4790,-0.5332
548,0.0,0.0,0.0,0.0,0.0,0.0,-0.1116,1.0309,0.1407,0.4881,0.4985,-0.4764,-0.5351
549,0.0,0.0,0.0,0.0,0.0,0.0,-0.1101,1.0236,0.1471,0.4890,0.4980,-0.4735,-0.5373
550,0.0,0.0,0.0,0.0,0.0,0.0,-0.1003,0.9547,0.1417,0.4900,0.4968,-0.4711,-0.5396
551,0.0,0.0,0.0,0.0,0.0,0.0,-0.0986,0.9188,0.1427,0.4913,0.4959,-0.4689,-0.5412
552,0.0,0.0,0.0,0.0,0.0,0.0,-0.1128,0.9107,0.1485,0.4928,0.4958,-0.4668,-0.5418
553,0.0,0.0,0.0,0.0,0.0,0.0,-0.1056,0.8908,0.1451,0.4944,0.4960,-0.4654,-0.5412
554,0.0,0.0,0.0,0.0,0.0,0.0,-0.1015,0.9159,0.1490,0.4959,0.4962,-0.4649,-0.5402
555,0.0,0.0,0.0,0.0,0.0,0.0,-0.0933,0.9076,0.1515,0.4974,0.4960,-0.4652,-0.5386
556,0.0,0.0,0.0,0.0,0.0,0.0,-0.0797,0.8901,0.1481,0.4991,0.4956,-0.4662,-0.5366
557,0.0,0.0,0.0,0.0,0.0,0.0,-0.0795,0.9206,0.1471,0.5008,0.4953,-0.4674,-0.5342
558,0.0,0.0,0.0,0.0,0.0,0.0,-0.0727,0.9239,0.1408,0.5019,0.4961,-0.4693,-0.5308
559,0.0,0.0,0.0,0.0,0.0,0.0,-0.0744,0.9647,0.1359,0.5024,0.4974,-0.4720,-0.5268
560,0.0,0.0,0.0,0.0,0.0,0.0,-0.0702,1.0155,0.1301,0.5026,0.4979,-0.4747,-0.5236
561,0.0,0.0,0.0,0.0,0.0,0.0,-0.0691,1.0291,0.1281,0.5027,0.4979,-0.4780,-0.5205
562,0.0,0.0,0.0,0.0,0.0,0.0,-0.0695,1.0403,0.1223,0.5030,0.4974,-0.4813,-0.5177
563,0.0,0.0,0.0,0.0,0.0,0.0,-0.0720,1.0389,0.1135,0.5032,0.4969,-0.4842,-0.5153
564,0.0,0.0,0.0,0.0,0.0,0.0,-0.0651,1.0369,0.1072,0.5035,0.4963,-0.4864,-0.5134
565,0.0,0.0,0.0,0.0,0.0,0.0,-0.0619,1.0131,0.0985,0.5039,0.4956,-0.4882,-0.5119
566,0.0,0.0,0.0,0.0,0.0,0.0,-0.0595,1.0083,0.0931,0.5037,0.4954,-0.4902,-0.5105
567,0.0,0.0,0.0,0.0,0.0,0.0,-0.0541,1.0087,0.0946,0.5031,0.4951,-0.4923,-0.5092
568,0.0,0.0,0.0,0.0,0.0,0.0,-0.0478,1.0048,0.0956,0.5028,0.4941,-0.4940,-0.5089
569,0.0,0.0,0.0,0.0,0.0,0.0,-0.0478,0.9975,0.0980,0.5026,0.4928,-0.4956,-0.5088
570,0.0,0.0,0.0,0.0,0.0,0.0,-0.0393,0.9563,0.0927,0.5020,0.4918,-0.4977,-0.5083
571,0.0,0.0,0.0,0.0,0.0,0.0,-0.0318,0.9824,0.0936,0.5011,0.4908,-0.5001,-0.5078
572,0.0,0.0,0.0,0.0,0.0,0.0,-0.0346,1.0047,0.0995,0.5002,0.4900,-0.5023,-0.5073
573,0.0,0.0,0.0,0.0,0.0,0.0,-0.0325,1.0187,0.1019,0.4992,0.4891,-0.5042,-0.5073
574,0.0,0.0,0.0,0.0,0.0,0.0,-0.0262,1.0206,0.1000,0.4983,0.4880,-0.5059,-0.5076
575,0.0,0.0,0.0,0.0,0.0,0.0,-0.0213,1.0157,0.0990,0.4971,0.4873,-0.5074,-0.5079
576,0.0,0.0,0.0,0.0,0.0,0.0,-0.0228,1.0196,0.0975,0.4957,0.4871,-0.5087,-0.5082
577,0.0,0.0,0.0,0.0,0.0,0.0,-0.0267,1.0235,0.0936,0.4945,0.4867,-0.5096,-0.5088
578,0.0,0.0,0.0,0.0,0.0,0.0,-0.0320,1.0250,0.0936,0.4933,0.4865,-0.5098,-0.5100
579,0.0,0.0,0.0,0.0,0.0,0.0,-0.0311,1.0071,0.0883,0.4921,0.4865,-0.5100,-0.5110
580,0.0,0.0,0.0,0.0,0.0,0.0,-0.0288,0.9954,0.0878,0.4908,0.4867,-0.5101,-0.5119
581,0.0,0.0,0.0,0.0,0.0,0.0,-0.0366,0.9989,0.0883,0.4898,0.4869,-0.5098,-0.5131
582,0.0,0.0,0.0,0.0,0.0,0.0,-0.0357,0.9810,0.0873,0.4888,0.4872,-0.5095,-0.5138
583,0.0,0.0,0.0,0.0,0.0,0.0,-0.0367,0.9771,0.0868,0.4879,0.4874,-0.5095,-0.5145
584,0.0,0.0,0.0,0.0,0.0,0.0,-0.0338,0.9795,0.0849,0.4873,0.4871,-0.5094,-0.5155
585,0.0,0.0,0.0,0.0,0.0,0.0,-0.0303,0.9901,0.0854,0.4869,0.4871,-0.5095,-0.5158
586,0.0,0.0,0.0,0.0,0.0,0.0,-0.0337,0.9897,0.0829,0.4863,0.4878,-0.5096,-0.5156
587,0.0,0.0,0.0,0.0,0.0,0.0,-0.0351,1.0008,0.0839,0.4858,0.4882,-0.5095,-0.5158
588,0.0,0.0,0.0,0.0,0.0,0.0,-0.0365,1.0067,0.0824,0.4855,0.4884,-0.5092,-0.5163
589,0.0,0.0,0.0,0.0,0.0,0.0,-0.0404,1.0033,0.0795,0.4851,0.4888,-0.5089,-0.5165
590,0.0,0.0,0.0,0.0,0.0,0.0,-0.0472,1.0208,0.0829,0.4845,0.4895,-0.5086,-0.5166
591,0.0,0.0,0.0,0.0,0.0,0.0,-0.0534,1.0412,0.0897,0.4838,0.4903,-0.5078,-0.5173
592,0.0,0.0,0.0,0.0,0.0,0.0,-0.0447,1.0285,0.0902,0.4834,0.4905,-0.5065,-0.5188
593,0.0,0.0,0.0,0.0,0.0,0.0,-0.0477,1.0106,0.0926,0.4828,0.4907,-0.5049,-0.5207
594,0.0,0.0,0.0,0.0,0.0,0.0,-0.0536,1.0034,0.0941,0.4822,0.4910,-0.5030,-0.5229
595,0.0,0.0,0.0,0.0,0.0,0.0,-0.0547,0.9855,0.0926,0.4817,0.4913,-0.5009,-0.5251
596,0.0,0.0,0.0,0.0,0.0,0.0,-0.0547,0.9913,0.0970,0.4812,0.4919,-0.4991,-0.5266
597,0.0,0.0,0.0,0.0,0.0,0.0,-0.0609,1.0126,0.1043,0.4805,0.4924,-0.4972,-0.5286
598,0.0,0.0,0.0,0.0,0.0,0.0,-0.0644,0.9952,0.1019,0.4800,0.4934,-0.4948,-0.5304
599,0.0,0.0,0.0,0.0,0.0,0.0,-0.0710,0.9585,0.0994,0.4797,0.4947,-0.4926,-0.5315
600,0.0,0.0,0.0,0.0,0.0,0.0,-0.0895,0.9567,0.1072,0.4795,0.4963,-0.4900,-0.5326
601,0.0,0.0,0.0,0.0,0.0,0.0,-0.0852,0.9488,0.1160,0.4796,0.4977,-0.4877,-0.5333
602,0.0,0.0,0.0,0.0,0.0,0.0,-0.0911,0.9421,0.1179,0.4801,0.4987,-0.4861,-0.5334
603,0.0,0.0,0.0,0.0,0.0,0.0,-0.1002,0.9693,0.1193,0.4809,0.4991,-0.4850,-0.5332
604,0.0,0.0,0.0,0.0,0.0,0.0,-0.0927,1.0075,0.1247,0.4823,0.4989,-0.4841,-0.5330
605,0.0,0.0,0.0,0.0,0.0,0.0,-0.0765,0.9318,0.1130,0.4840,0.4986,-0.4832,-0.5326
606,0.0,0.0,0.0,0.0,0.0,0.0,-0.0745,0.9367,0.1111,0.4855,0.4986,-0.4830,-0.5314
607,0.0,0.0,0.0,0.0,0.0,0.0,-0.0752,0.9846,0.1213,0.4866,0.4988,-0.4834,-0.5298
608,0.0,0.0,0.0,0.0,0.0,0.0,-0.0718,0.9875,0.1208,0.4874,0.4989,-0.4841,-0.5284
609,0.0,0.0,0.0,0.0,0.0,0.0,-0.0670,0.9758,0.1101,0.4878,0.4990,-0.4853,-0.5267
610,0.0,0.0,0.0,0.0,0.0,0.0,-0.0630,0.9812,0.1033,0.4881,0.4992,-0.4869,-0.5250
611,0.0,0.0,0.0,0.0,0.0,0.0,-0.0668,1.0083,0.1043,0.4882,0.4991,-0.4883,-0.5236
612,0.0,0.0,0.0,0.0,0.0,0.0,-0.0638,1.0199,0.1038,0.4884,0.4988,-0.4895,-0.5225
613,0.0,0.0,0.0,0.0,0.0,0.0,-0.0633,1.0136,0.1028,0.4887,0.4987,-0.4904,-0.5216
614,0.0,0.0,0.0,0.0,0.0,0.0,-0.0595,1.0015,0.0985,0.4888,0.4988,-0.4912,-0.5206
615,0.0,0.0,0.0,0.0,0.0,0.0,-0.0600,1.0064,0.0965,0.4890,0.4986,-0.4917,-0.5202
616,0.0,0.0,0.0,0.0,0.0,0.0,-0.0594,1.0112,0.0990,0.4891,0.4984,-0.4920,-0.5199
617,0.0,0.0,0.0,0.0,0.0,0.0,-0.0600,1.0054,0.1019,0.4892,0.4985,-0.4923,-0.5195
618,0.0,0.0,0.0,0.0,0.0,0.0,-0.0577,0.9811,0.0999,0.4892,0.4982,-0.4922,-0.5198
619,0.0,0.0,0.0,0.0,0.0,0.0,-0.0501,0.9345,0.0995,0.4898,0.4970,-0.4925,-0.5201
620,0.0,0.0,0.0,0.0,0.0,0.0,-0.0522,0.9951,0.1131,0.4904,0.4956,-0.4932,-0.5202
621,0.0,0.0,0.0,0.0,0.0,0.0,-0.0488,0.9878,0.1184,0.4916,0.4939,-0.4936,-0.5204
622,0.0,0.0,0.0,0.0,0.0,0.0,-0.0420,0.9867,0.1194,0.4932,0.4919,-0.4943,-0.5201
623,0.0,0.0,0.0,0.0,0.0,0.0,-0.0462,1.0134,0.1228,0.4951,0.4895,-0.4951,-0.5197
624,0.0,0.0,0.0,0.0,0.0,0.0,-0.0471,1.0313,0.1296,0.4973,0.4870,-0.4956,-0.5196
625,0.0,0.0,0.0,0.0,0.0,0.0,-0.0526,1.0149,0.1301,0.4997,0.4847,-0.4955,-0.5195
626,0.0,0.0,0.0,0.0,0.0,0.0,-0.0492,1.0081,0.1296,0.5019,0.4830,-0.4953,-0.5191
627,0.0,0.0,0.0,0.0,0.0,0.0,-0.0454,0.9843,0.1306,0.5041,0.4819,-0.4946,-0.5188
628,0.0,0.0,0.0,0.0,0.0,0.0,-0.0451,0.9581,0.1311,0.5060,0.4815,-0.4935,-0.5183
629,0.0,0.0,0.0,0.0,0.0,0.0,-0.0393,0.9571,0.1374,0.5077,0.4812,-0.4927,-0.5176
630,0.0,0.0,0.0,0.0,0.0,0.0,-0.0411,0.9707,0.1447,0.5092,0.4809,-0.4919,-0.5172
631,0.0,0.0,0.0,0.0,0.0,0.0,-0.0310,0.9512,0.1467,0.5106,0.4808,-0.4917,-0.5162
632,0.0,0.0,0.0,0.0,0.0,0.0,-0.0270,0.9594,0.1457,0.5115,0.4812,-0.4918,-0.5148
633,0.0,0.0,0.0,0.0,0.0,0.0,-0.0338,0.9721,0.1442,0.5122,0.4817,-0.4920,-0.5134
634,0.0,0.0,0.0,0.0,0.0,0.0,-0.0308,0.9793,0.1394,0.5129,0.4818,-0.4923,-0.5123
635,0.0,0.0,0.0,0.0,0.0,0.0,-0.0331,1.0002,0.1335,0.5132,0.4827,-0.4927,-0.5107
636,0.0,0.0,0.0,0.0,0.0,0.0,-0.0307,0.9978,0.1262,0.5133,0.4838,-0.4936,-0.5088
637,0.0,0.0,0.0,0.0,0.0,0.0,-0.0278,0.9876,0.1165,0.5136,0.4844,-0.4942,-0.5073
638,0.0,0.0,0.0,0.0,0.0,0.0,-0.0274,0.9779,0.1111,0.5141,0.4852,-0.4946,-0.5056
639,0.0,0.0,0.0,0.0,0.0,0.0,-0.0275,0.9711,0.1063,0.5146,0.4863,-0.4952,-0.5034
640,0.0,0.0,0.0,0.0,0.0,0.0,-0.0231,0.9696,0.1073,0.5152,0.4871,-0.4958,-0.5015
641,0.0,0.0,0.0,0.0,0.0,0.0,-0.0212,0.9638,0.1073,0.5165,0.4879,-0.4962,-0.4991
642,0.0,0.0,0.0,0.0,0.0,0.0,-0.0178,0.9585,0.1058,0.5181,0.4889,-0.4965,-0.4960
643,0.0,0.0,0.0,0.0,0.0,0.0,-0.0172,0.9677,0.1063,0.5197,0.4901,-0.4969,-0.4928
644,0.0,0.0,0.0,0.0,0.0,0.0,-0.0230,0.9808,0.1029,0.5212,0.4915,-0.4972,-0.4895
645,0.0,0.0,0.0,0.0,0.0,0.0,-0.0210,0.9939,0.1000,0.5228,0.4929,-0.4974,-0.4862
646,0.0,0.0,0.0,0.0,0.0,0.0,-0.0175,1.0069,0.0961,0.5245,0.4942,-0.4974,-0.4829
647,0.0,0.0,0.0,0.0,0.0,0.0,-0.0165,1.0079,0.0859,0.5261,0.4958,-0.4974,-0.4797
648,0.0,0.0,0.0,0.0,0.0,0.0,-0.0247,1.0264,0.0790,0.5270,0.4978,-0.4972,-0.4767
649,0.0,0.0,0.0,0.0,0.0,0.0,-0.0236,1.0449,0.0713,0.5274,0.5002,-0.4971,-0.4738
650,0.0,0.0,0.0,0.0,0.0,0.0,-0.0202,1.0405,0.0606,0.5276,0.5022,-0.4969,-0.4717
651,0.0,0.0,0.0,0.0,0.0,0.0,-0.0271,1.0246,0.0533,0.5275,0.5038,-0.4966,-0.4705
652,0.0,0.0,0.0,0.0,0.0,0.0,-0.0203,1.0173,0.0513,0.5269,0.5050,-0.4965,-0.4700
653,0.0,0.0,0.0,0.0,0.0,0.0,-0.0102,1.0075,0.0513,0.5262,0.5056,-0.4966,-0.4700
654,0.0,0.0,0.0,0.0,0.0,0.0,0.0001,1.0045,0.0567,0.5255,0.5060,-0.4970,-0.4699
655,0.0,0.0,0.0,0.0,0.0,0.0,0.0098,1.0025,0.0567,0.5248,0.5062,-0.4976,-0.4699
656,0.0,0.0,0.0,0.0,0.0,0.0,0.0118,1.0068,0.0567,0.5239,0.5064,-0.4984,-0.4699
657,0.0,0.0,0.0,0.0,0.0,0.0,0.0142,1.0039,0.0577,0.5229,0.5067,-0.4991,-0.4697
658,0.0,0.0,0.0,0.0,0.0,0.0,0.0147,0.9927,0.0538,0.5219,0.5068,-0.4998,-0.4700
659,0.0,0.0,0.0,0.0,0.0,0.0,0.0171,0.9869,0.0528,0.5211,0.5066,-0.5005,-0.4704
660,0.0,0.0,0.0,0.0,0.0,0.0,0.0210,0.9883,0.0523,0.5202,0.5066,-0.5012,-0.4706
661,0.0,0.0,0.0,0.0,0.0,0.0,0.0249,0.9951,0.0548,0.5194,0.5065,-0.5020,-0.4709
662,0.0,0.0,0.0,0.0,0.0,0.0,0.0317,0.9940,0.0557,0.5187,0.5062,-0.5028,-0.4711
663,0.0,0.0,0.0,0.0,0.0,0.0,0.0303,0.9965,0.0572,0.5179,0.5060,-0.5036,-0.4714
664,0.0,0.0,0.0,0.0,0.0,0.0,0.0206,1.0048,0.0611,0.5169,0.5062,-0.5041,-0.4717
665,0.0,0.0,0.0,0.0,0.0,0.0,0.0183,1.0315,0.0630,0.5161,0.5061,-0.5043,-0.4724
666,0.0,0.0,0.0,0.0,0.0,0.0,0.0174,1.0494,0.0601,0.5150,0.5068,-0.5039,-0.4734
667,0.0,0.0,0.0,0.0,0.0,0.0,0.0100,1.0374,0.0582,0.5132,0.5081,-0.5028,-0.4750
668,0.0,0.0,0.0,0.0,0.0,0.0,-0.0140,1.1005,0.0693,0.5109,0.5100,-0.5006,-0.4777
669,0.0,0.0,0.0,0.0,0.0,0.0,-0.0394,1.0954,0.0727,0.5082,0.5122,-0.4964,-0.4827
670,0.0,0.0,0.0,0.0,0.0,0.0,-0.0499,1.0543,0.0737,0.5054,0.5135,-0.4910,-0.4897
671,0.0,0.0,0.0,0.0,0.0,0.0,-0.0572,1.0534,0.0858,0.5018,0.5141,-0.4850,-0.4988
672,0.0,0.0,0.0,0.0,0.0,0.0,-0.0527,0.9869,0.0863,0.4987,0.5141,-0.4797,-0.5069
673,0.0,0.0,0.0,0.0,0.0,0.0,-0.0729,0.9585,0.0941,0.4956,0.5142,-0.4760,-0.5132
674,0.0,0.0,0.0,0.0,0.0,0.0,-0.0962,0.9902,0.1067,0.4921,0.5147,-0.4732,-0.5186
675,0.0,0.0,0.0,0.0,0.0,0.0,-0.0881,0.9571,0.1135,0.4888,0.5150,-0.4706,-0.5238
676,0.0,0.0,0.0,0.0,0.0,0.0,-0.0854,0.9154,0.1082,0.4864,0.5155,-0.4684,-0.5276
677,0.0,0.0,0.0,0.0,0.0,0.0,-0.0942,0.9179,0.1203,0.4850,0.5150,-0.4669,-0.5306
678,0.0,0.0,0.0,0.0,0.0,0.0,-0.1042,0.9528,0.1398,0.4845,0.5130,-0.4662,-0.5336
679,0.0,0.0,0.0,0.0,0.0,0.0,-0.1148,0.9795,0.1466,0.4836,0.5111,-0.4660,-0.5365
680,0.0,0.0,0.0,0.0,0.0,0.0,-0.1076,0.9635,0.1456,0.4826,0.5087,-0.4662,-0.5394
681,0.0,0.0,0.0,0.0,0.0,0.0,-0.1095,0.9591,0.1471,0.4818,0.5064,-0.4667,-0.5419
682,0.0,0.0,0.0,0.0,0.0,0.0,-0.1095,0.9708,0.1490,0.4806,0.5046,-0.4673,-0.5441
683,0.0,0.0,0.0,0.0,0.0,0.0,-0.1086,0.9577,0.1446,0.4792,0.5032,-0.4679,-0.5461
684,0.0,0.0,0.0,0.0,0.0,0.0,-0.1115,0.9509,0.1412,0.4776,0.5021,-0.4687,-0.5478
685,0.0,0.0,0.0,0.0,0.0,0.0,-0.1091,0.9504,0.1388,0.4758,0.5013,-0.4696,-0.5494
686,0.0,0.0,0.0,0.0,0.0,0.0,-0.1091,0.9582,0.1364,0.4740,0.5009,-0.4710,-0.5501
687,0.0,0.0,0.0,0.0,0.0,0.0,-0.1065,0.9732,0.1330,0.4721,0.5004,-0.4726,-0.5508
688,0.0,0.0,0.0,0.0,0.0,0.0,-0.1046,0.9742,0.1247,0.4703,0.4999,-0.4736,-0.5520
689,0.0,0.0,0.0,0.0,0.0,0.0,-0.0998,0.9504,0.1203,0.4683,0.4998,-0.4746,-0.5528
690,0.0,0.0,0.0,0.0,0.0,0.0,-0.1013,0.9577,0.1193,0.4668,0.4991,-0.4759,-0.5536
691,0.0,0.0,0.0,0.0,0.0,0.0,-0.0998,0.9621,0.1169,0.4652,0.4986,-0.4776,-0.5539
692,0.0,0.0,0.0,0.0,0.0,0.0,-0.1094,0.9825,0.1150,0.4635,0.4988,-0.4790,-0.5540
693,0.0,0.0,0.0,0.0,0.0,0.0,-0.1049,1.0086,0.1271,0.4620,0.4984,-0.4803,-0.5545
694,0.0,0.0,0.0,0.0,0.0,0.0,-0.0958,1.0565,0.1373,0.4609,0.4978,-0.4810,-0.5554
695,0.0,0.0,0.0,0.0,0.0,0.0,-0.0944,0.9625,0.1218,0.4601,0.4975,-0.4813,-0.5560
696,0.0,0.0,0.0,0.0,0.0,0.0,-0.0988,0.9528,0.1179,0.4589,0.4976,-0.4822,-0.5561
697,0.0,0.0,0.0,0.0,0.0,0.0,-0.1113,0.9912,0.1315,0.4576,0.4976,-0.4832,-0.5563
698,0.0,0.0,0.0,0.0,0.0,0.0,-0.1188,0.9617,0.1315,0.4571,0.4973,-0.4842,-0.5562
699,0.0,0.0,0.0,0.0,0.0,0.0,-0.1247,0.9627,0.1261,0.4565,0.4974,-0.4858,-0.5552
700,0.0,0.0,0.0,0.0,0.0,0.0,-0.1208,0.9579,0.1193,0.4558,0.4976,-0.4874,-0.5542
701,0.0,0.0,0.0,0.0,0.0,0.0,-0.1252,0.9545,0.1154,0.4546,0.4981,-0.4888,-0.5535
702,0.0,0.0,0.0,0.0,0.0,0.0,-0.1275,0.9807,0.1208,0.4532,0.4986,-0.4902,-0.5530
703,0.0,0.0,0.0,0.0,0.0,0.0,-0.1288,0.9972,0.1222,0.4514,0.4992,-0.4917,-0.5524
704,0.0,0.0,0.0,0.0,0.0,0.0,-0.1288,1.0035,0.1164,0.4493,0.5002,-0.4933,-0.5519
705,0.0,0.0,0.0,0.0,0.0,0.0,-0.1289,0.9841,0.1096,0.4471,0.5008,-0.4946,-0.5520
706,0.0,0.0,0.0,0.0,0.0,0.0,-0.1372,0.9823,0.1076,0.4446,0.5013,-0.4960,-0.5523
707,0.0,0.0,0.0,0.0,0.0,0.0,-0.1465,0.9853,0.1062,0.4418,0.5022,-0.4971,-0.5527
708,0.0,0.0,0.0,0.0,0.0,0.0,-0.1500,0.9674,0.1028,0.4389,0.5033,-0.4981,-0.5531
709,0.0,0.0,0.0,0.0,0.0,0.0,-0.1472,0.9402,0.1003,0.4360,0.5043,-0.4994,-0.5534
710,0.0,0.0,0.0,0.0,0.0,0.0,-0.1626,0.9907,0.1086,0.4331,0.5048,-0.5010,-0.5537
711,0.0,0.0,0.0,0.0,0.0,0.0,-0.1713,0.9937,0.1047,0.4302,0.5052,-0.5026,-0.5541
712,0.0,0.0,0.0,0.0,0.0,0.0,-0.1651,0.9806,0.0988,0.4275,0.5056,-0.5041,-0.5545
713,0.0,0.0,0.0,0.0,0.0,0.0,-0.1688,1.0102,0.1052,0.4257,0.5053,-0.5054,-0.5550
714,0.0,0.0,0.0,0.0,0.0,0.0,-0.1784,1.0331,0.1047,0.4240,0.5045,-0.5068,-0.5558
715,0.0,0.0,0.0,0.0,0.0,0.0,-0.1606,0.9869,0.0906,0.4229,0.5030,-0.5078,-0.5570
716,0.0,0.0,0.0,0.0,0.0,0.0,-0.1494,0.9810,0.0862,0.4225,0.5016,-0.5087,-0.5577
717,0.0,0.0,0.0,0.0,0.0,0.0,-0.1544,0.9752,0.0867,0.4228,0.5012,-0.5095,-0.5572
718,0.0,0.0,0.0,0.0,0.0,0.0,-0.1514,0.9781,0.0867,0.4234,0.5004,-0.5103,-0.5567
719,0.0,0.0,0.0,0.0,0.0,0.0,-0.1474,0.9878,0.0891,0.4243,0.4996,-0.5113,-0.5558
720,0.0,0.0,0.0,0.0,0.0,0.0,-0.1456,0.9640,0.0857,0.4254,0.4987,-0.5123,-0.5549
721,0.0,0.0,0.0,0.0,0.0,0.0,-0.1370,0.9388,0.0809,0.4268,0.4975,-0.5134,-0.5538
722,0.0,0.0,0.0,0.0,0.0,0.0,-0.1306,0.9416,0.0750,0.4283,0.4961,-0.5156,-0.5519
723,0.0,0.0,0.0,0.0,0.0,0.0,-0.1277,0.9373,0.0702,0.4299,0.4947,-0.5182,-0.5494
724,0.0,0.0,0.0,0.0,0.0,0.0,-0.1266,0.9716,0.0750,0.4320,0.4931,-0.5209,-0.5468
725,0.0,0.0,0.0,0.0,0.0,0.0,-0.1230,0.9861,0.0716,0.4344,0.4910,-0.5233,-0.5443
726,0.0,0.0,0.0,0.0,0.0,0.0,-0.1128,0.9788,0.0634,0.4373,0.4890,-0.5260,-0.5413
727,0.0,0.0,0.0,0.0,0.0,0.0,-0.1058,1.0078,0.0590,0.4407,0.4868,-0.5284,-0.5381
728,0.0,0.0,0.0,0.0,0.0,0.0,-0.0986,0.9942,0.0483,0.4441,0.4854,-0.5302,-0.5348
729,0.0,0.0,0.0,0.0,0.0,0.0,-0.0846,0.9733,0.0391,0.4481,0.4852,-0.5308,-0.5311
730,0.0,0.0,0.0,0.0,0.0,0.0,-0.0840,0.9806,0.0352,0.4522,0.4861,-0.5304,-0.5271
731,0.0,0.0,0.0,0.0,0.0,0.0,-0.0780,1.0048,0.0357,0.4561,0.4875,-0.5299,-0.5230
732,0.0,0.0,0.0,0.0,0.0,0.0,-0.0689,0.9776,0.0299,0.4596,0.4884,-0.5298,-0.5192
733,0.0,0.0,0.0,0.0,0.0,0.0,-0.0720,1.0246,0.0357,0.4622,0.4891,-0.5300,-0.5160
734,0.0,0.0,0.0,0.0,0.0,0.0,-0.0657,1.0284,0.0362,0.4643,0.4897,-0.5305,-0.5130
735,0.0,0.0,0.0,0.0,0.0,0.0,-0.0618,1.0240,0.0323,0.4660,0.4901,-0.5310,-0.5106
736,0.0,0.0,0.0,0.0,0.0,0.0,-0.0662,1.0289,0.0303,0.4671,0.4907,-0.5315,-0.5085
737,0.0,0.0,0.0,0.0,0.0,0.0,-0.0608,1.0279,0.0250,0.4676,0.4914,-0.5321,-0.5067
738,0.0,0.0,0.0,0.0,0.0,0.0,-0.0569,1.0226,0.0211,0.4679,0.4920,-0.5326,-0.5052
739,0.0,0.0,0.0,0.0,0.0,0.0,-0.0559,1.0255,0.0167,0.4679,0.4927,-0.5331,-0.5040
740,0.0,0.0,0.0,0.0,0.0,0.0,-0.0569,1.0255,0.0128,0.4680,0.4931,-0.5334,-0.5033
741,0.0,0.0,0.0,0.0,0.0,0.0,-0.0536,1.0109,0.0109,0.4678,0.4937,-0.5333,-0.5030
742,0.0,0.0,0.0,0.0,0.0,0.0,-0.0542,0.9940,0.0090,0.4674,0.4944,-0.5334,-0.5026
743,0.0,0.0,0.0,0.0,0.0,0.0,-0.0537,0.9969,0.0104,0.4669,0.4950,-0.5336,-0.5023
744,0.0,0.0,0.0,0.0,0.0,0.0,-0.0542,0.9949,0.0090,0.4662,0.4953,-0.5339,-0.5023
745,0.0,0.0,0.0,0.0,0.0,0.0,-0.0483,0.9930,0.0080,0.4655,0.4955,-0.5344,-0.5022
746,0.0,0.0,0.0,0.0,0.0,0.0,-0.0439,0.9890,0.0070,0.4649,0.4956,-0.5349,-0.5021
747,0.0,0.0,0.0,0.0,0.0,0.0,-0.0424,0.9968,0.0099,0.4643,0.4956,-0.5356,-0.5020
748,0.0,0.0,0.0,0.0,0.0,0.0,-0.0385,1.0006,0.0109,0.4635,0.4957,-0.5363,-0.5018
749,0.0,0.0,0.0,0.0,0.0,0.0,-0.0361,0.9967,0.0104,0.4630,0.4954,-0.5369,-0.5019
750,0.0,0.0,0.0,0.0,0.0,0.0,-0.0327,0.9943,0.0124,0.4628,0.4950,-0.5375,-0.5019
751,0.0,0.0,0.0,0.0,0.0,0.0,-0.0351,0.9919,0.0109,0.4629,0.4942,-0.5380,-0.5021
752,0.0,0.0,0.0,0.0,0.0,0.0,-0.0484,0.9813,0.0099,0.4634,0.4926,-0.5382,-0.5029
753,0.0,0.0,0.0,0.0,0.0,0.0,-0.0848,0.9313,-0.0081,0.4639,0.4909,-0.5378,-0.5046
754,0.0,0.0,0.0,0.0,0.0,0.0,-0.1441,0.8945,-0.0174,0.4620,0.4876,-0.5391,-0.5080
755,0.0,0.0,0.0,0.0,0.0,0.0,-0.0256,1.0333,0.0542,0.4602,0.4808,-0.5420,-0.5130
756,0.0,0.0,0.0,0.0,0.0,0.0,-0.0040,1.0607,0.0810,0.4588,0.4756,-0.5440,-0.5171
757,0.0,0.0,0.0,0.0,0.0,0.0,0.0194,1.0464,0.0679,0.4575,0.4723,-0.5455,-0.5196
758,0.0,0.0,0.0,0.0,0.0,0.0,0.0611,1.0015,0.0524,0.4572,0.4695,-0.5470,-0.5209
759,0.0,0.0,0.0,0.0,0.0,0.0,0.0177,1.0102,0.0528,0.4569,0.4676,-0.5474,-0.5224
760,0.0,0.0,0.0,0.0,0.0,0.0,0.0120,1.0427,0.0572,0.4570,0.4659,-0.5474,-0.5239
761,0.0,0.0,0.0,0.0,0.0,0.0,0.0277,1.0503,0.0679,0.4577,0.4640,-0.5467,-0.5256
762,0.0,0.0,0.0,0.0,0.0,0.0,0.0232,1.0382,0.0732,0.4584,0.4630,-0.5458,-0.5269
763,0.0,0.0,0.0,0.0,0.0,0.0,-0.0380,1.0014,0.0562,0.4589,0.4633,-0.5442,-0.5279
764,0.0,0.0,0.0,0.0,0.0,0.0,0.0025,1.0083,0.0669,0.4597,0.4623,-0.5429,-0.5294
765,0.0,0.0,0.0,0.0,0.0,0.0,-0.0028,1.0045,0.0718,0.4597,0.4614,-0.5424,-0.5306
766,0.0,0.0,0.0,0.0,0.0,0.0,-0.0132,0.9881,0.0718,0.4599,0.4608,-0.5417,-0.5317
767,0.0,0.0,0.0,0.0,0.0,0.0,-0.0058,0.9987,0.0795,0.4602,0.4598,-0.5411,-0.5329
768,0.0,0.0,0.0,0.0,0.0,0.0,0.0108,1.0000,0.0844,0.4609,0.4590,-0.5401,-0.5340
769,0.0,0.0,0.0,0.0,0.0,0.0,0.0175,0.9810,0.0869,0.4616,0.4582,-0.5395,-0.5347
770,0.0,0.0,0.0,0.0,0.0,0.0,-0.0123,0.9682,0.0761,0.4620,0.4580,-0.5386,-0.5354
771,0.0,0.0,0.0,0.0,0.0,0.0,-0.0026,0.9599,0.0800,0.4629,0.4575,-0.5376,-0.5361
772,0.0,0.0,0.0,0.0,0.0,0.0,0.0028,0.9734,0.0815,0.4634,0.4569,-0.5376,-0.5362
773,0.0,0.0,0.0,0.0,0.0,0.0,-0.0030,0.9836,0.0786,0.4640,0.4566,-0.5372,-0.5363
774,0.0,0.0,0.0,0.0,0.0,0.0,-0.0040,0.9749,0.0786,0.4644,0.4562,-0.5373,-0.5362
775,0.0,0.0,0.0,0.0,0.0,0.0,0.0133,1.0082,0.0883,0.4656,0.4556,-0.5374,-0.5356
776,0.0,0.0,0.0,0.0,0.0,0.0,-0.0195,0.9882,0.0688,0.4665,0.4552,-0.5366,-0.5359
777,0.0,0.0,0.0,0.0,0.0,0.0,-0.0021,0.9729,0.0791,0.4674,0.4542,-0.5367,-0.5360
778,0.0,0.0,0.0,0.0,0.0,0.0,0.0083,0.9956,0.0825,0.4681,0.4534,-0.5375,-0.5352
779,0.0,0.0,0.0,0.0,0.0,0.0,-0.0181,0.9915,0.0766,0.4682,0.4530,-0.5383,-0.5346
780,0.0,0.0,0.0,0.0,0.0,0.0,0.0079,1.0101,0.0888,0.4691,0.4523,-0.5385,-0.5342
781,0.0,0.0,0.0,0.0,0.0,0.0,0.0113,1.0101,0.0898,0.4702,0.4522,-0.5384,-0.5335
782,0.0,0.0,0.0,0.0,0.0,0.0,-0.0108,0.9880,0.0781,0.4703,0.4521,-0.5389,-0.5329
783,0.0,0.0,0.0,0.0,0.0,0.0,-0.0215,0.9842,0.0829,0.4709,0.4519,-0.5386,-0.5329
784,0.0,0.0,0.0,0.0,0.0,0.0,-0.0044,0.9957,0.0864,0.4716,0.4514,-0.5387,-0.5326
785,0.0,0.0,0.0,0.0,0.0,0.0,-0.0053,0.9981,0.0903,0.4721,0.4510,-0.5391,-0.5321
786,0.0,0.0,0.0,0.0,0.0,0.0,-0.0097,0.9987,0.0907,0.4723,0.4504,-0.5393,-0.5322
787,0.0,0.0,0.0,0.0,0.0,0.0,0.0143,1.0168,0.1053,0.4733,0.4493,-0.5390,-0.5325
788,0.0,0.0,0.0,0.0,0.0,0.0,0.0065,1.0101,0.1029,0.4743,0.4491,-0.5387,-0.5322
789,0.0,0.0,0.0,0.0,0.0,0.0,-0.0073,1.0015,0.0990,0.4745,0.4490,-0.5386,-0.5321
790,0.0,0.0,0.0,0.0,0.0,0.0,-0.0214,1.0031,0.1024,0.4744,0.4487,-0.5382,-0.5329
791,0.0,0.0,0.0,0.0,0.0,0.0,-0.0019,1.0068,0.1107,0.4748,0.4487,-0.5373,-0.5334
792,0.0,0.0,0.0,0.0,0.0,0.0,0.0054,0.9970,0.1092,0.4751,0.4483,-0.5366,-0.5342
793,0.0,0.0,0.0,0.0,0.0,0.0,-0.0132,0.9822,0.1078,0.4748,0.4482,-0.5361,-0.5350
794,0.0,0.0,0.0,0.0,0.0,0.0,-0.0166,0.9875,0.1112,0.4746,0.4486,-0.5355,-0.5355
795,0.0,0.0,0.0,0.0,0.0,0.0,-0.0171,0.9826,0.1180,0.4743,0.4489,-0.5349,-0.5361
796,0.0,0.0,0.0,0.0,0.0,0.0,-0.0137,0.9831,0.1209,0.4740,0.4492,-0.5342,-0.5368
797,0.0,0.0,0.0,0.0,0.0,0.0,-0.0201,0.9730,0.1189,0.4735,0.4499,-0.5337,-0.5372
798,0.0,0.0,0.0,0.0,0.0,0.0,-0.0275,0.9711,0.1223,0.4728,0.4503,-0.5334,-0.5377
799,0.0,0.0,0.0,0.0,0.0,0.0,-0.0195,0.9938,0.1296,0.4722,0.4503,-0.5333,-0.5384
800,0.0,0.0,0.0,0.0,0.0,0.0,-0.0111,1.0063,0.1331,0.4720,0.4505,-0.5328,-0.5389
801,0.0,0.0,0.0,0.0,0.0,0.0,-0.0190,1.0035,0.1277,0.4721,0.4515,-0.5316,-0.5391
802,0.0,0.0,0.0,0.0,0.0,0.0,-0.0377,0.9732,0.1126,0.4715,0.4530,-0.5311,-0.5389
803,0.0,0.0,0.0,0.0,0.0,0.0,-0.0294,0.9731,0.1082,0.4707,0.4536,-0.5313,-0.5389
804,0.0,0.0,0.0,0.0,0.0,0.0,-0.0284,0.9775,0.1063,0.4699,0.4541,-0.5313,-0.5391
805,0.0,0.0,0.0,0.0,0.0,0.0,-0.0255,0.9765,0.1014,0.4690,0.4548,-0.5313,-0.5393
806,0.0,0.0,0.0,0.0,0.0,0.0,-0.0215,0.9890,0.0990,0.4683,0.4557,-0.5314,-0.5391
807,0.0,0.0,0.0,0.0,0.0,0.0,-0.0206,0.9692,0.0873,0.4673,0.4567,-0.5318,-0.5387
808,0.0,0.0,0.0,0.0,0.0,0.0,-0.0064,0.9798,0.0844,0.4663,0.4575,-0.5330,-0.5378
809,0.0,0.0,0.0,0.0,0.0,0.0,-0.0205,0.9925,0.0849,0.4651,0.4583,-0.5342,-0.5369
810,0.0,0.0,0.0,0.0,0.0,0.0,-0.0195,0.9964,0.0805,0.4641,0.4594,-0.5348,-0.5362
811,0.0,0.0,0.0,0.0,0.0,0.0,-0.0082,1.0142,0.0839,0.4632,0.4606,-0.5354,-0.5354
812,0.0,0.0,0.0,0.0,0.0,0.0,-0.0257,1.0168,0.0790,0.4620,0.4616,-0.5359,-0.5351
813,0.0,0.0,0.0,0.0,0.0,0.0,-0.0360,1.0048,0.0717,0.4608,0.4626,-0.5360,-0.5351
814,0.0,0.0,0.0,0.0,0.0,0.0,-0.0268,0.9989,0.0693,0.4599,0.4635,-0.5361,-0.5350
815,0.0,0.0,0.0,0.0,0.0,0.0,-0.0259,0.9906,0.0664,0.4591,0.4644,-0.5361,-0.5350
816,0.0,0.0,0.0,0.0,0.0,0.0,-0.0181,0.9920,0.0659,0.4585,0.4654,-0.5363,-0.5343
817,0.0,0.0,0.0,0.0,0.0,0.0,-0.0235,0.9848,0.0635,0.4584,0.4663,-0.5366,-0.5334
818,0.0,0.0,0.0,0.0,0.0,0.0,-0.0308,0.9859,0.0620,0.4584,0.4669,-0.5366,-0.5328
819,0.0,0.0,0.0,0.0,0.0,0.0,-0.0293,0.9907,0.0644,0.4587,0.4675,-0.5364,-0.5322
820,0.0,0.0,0.0,0.0,0.0,0.0,-0.0278,0.9926,0.0659,0.4591,0.4678,-0.5363,-0.5318
821,0.0,0.0,0.0,0.0,0.0,0.0,-0.0273,0.9940,0.0649,0.4594,0.4683,-0.5362,-0.5312
822,0.0,0.0,0.0,0.0,0.0,0.0,-0.0298,0.9897,0.0630,0.4599,0.4695,-0.5361,-0.5298
823,0.0,0.0,0.0,0.0,0.0,0.0,-0.0327,0.9883,0.0610,0.4603,0.4706,-0.5361,-0.5284
824,0.0,0.0,0.0,0.0,0.0,0.0,-0.0351,0.9965,0.0669,0.4607,0.4715,-0.5359,-0.5275
825,0.0,0.0,0.0,0.0,0.0,0.0,-0.0356,1.0019,0.0703,0.4612,0.4725,-0.5356,-0.5265
826,0.0,0.0,0.0,0.0,0.0,0.0,-0.0380,0.9985,0.0737,0.4618,0.4735,-0.5352,-0.5255
827,0.0,0.0,0.0,0.0,0.0,0.0,-0.0390,1.0043,0.0790,0.4624,0.4750,-0.5345,-0.5243
828,0.0,0.0,0.0,0.0,0.0,0.0,-0.0464,0.9888,0.0805,0.4631,0.4764,-0.5336,-0.5234
829,0.0,0.0,0.0,0.0,0.0,0.0,-0.0484,0.9811,0.0810,0.4633,0.4778,-0.5329,-0.5226
830,0.0,0.0,0.0,0.0,0.0,0.0,-0.0465,0.9758,0.0780,0.4636,0.4790,-0.5323,-0.5217
831,0.0,0.0,0.0,0.0,0.0,0.0,-0.0503,0.9831,0.0746,0.4638,0.4801,-0.5321,-0.5209
832,0.0,0.0,0.0,0.0,0.0,0.0,-0.0576,0.9914,0.0683,0.4638,0.4813,-0.5318,-0.5200
833,0.0,0.0,0.0,0.0,0.0,0.0,-0.0572,0.9827,0.0586,0.4637,0.4827,-0.5317,-0.5189
834,0.0,0.0,0.0,0.0,0.0,0.0,-0.0615,0.9929,0.0503,0.4635,0.4838,-0.5320,-0.5177
835,0.0,0.0,0.0,0.0,0.0,0.0,-0.0544,1.0331,0.0464,0.4635,0.4844,-0.5323,-0.5169
836,0.0,0.0,0.0,0.0,0.0,0.0,-0.0592,1.0472,0.0449,0.4635,0.4847,-0.5325,-0.5164
837,0.0,0.0,0.0,0.0,0.0,0.0,-0.0505,1.0433,0.0435,0.4639,0.4843,-0.5326,-0.5163
838,0.0,0.0,0.0,0.0,0.0,0.0,-0.0490,1.0428,0.0406,0.4644,0.4834,-0.5325,-0.5168
839,0.0,0.0,0.0,0.0,0.0,0.0,-0.0501,1.0200,0.0367,0.4650,0.4825,-0.5322,-0.5175
840,0.0,0.0,0.0,0.0,0.0,0.0,-0.0488,0.9934,0.0343,0.4653,0.4814,-0.5320,-0.5184
841,0.0,0.0,0.0,0.0,0.0,0.0,-0.0322,0.9864,0.0416,0.4659,0.4797,-0.5323,-0.5191
842,0.0,0.0,0.0,0.0,0.0,0.0,-0.0185,0.9921,0.0499,0.4666,0.4777,-0.5326,-0.5201
843,0.0,0.0,0.0,0.0,0.0,0.0,-0.0078,0.9978,0.0591,0.4671,0.4756,-0.5329,-0.5212
844,0.0,0.0,0.0,0.0,0.0,0.0,-0.0020,0.9914,0.0620,0.4676,0.4737,-0.5333,-0.5221
845,0.0,0.0,0.0,0.0,0.0,0.0,0.0073,0.9923,0.0664,0.4680,0.4719,-0.5337,-0.5230
846,0.0,0.0,0.0,0.0,0.0,0.0,0.0093,0.9932,0.0689,0.4682,0.4706,-0.5338,-0.5239
847,0.0,0.0,0.0,0.0,0.0,0.0,0.0068,0.9898,0.0732,0.4682,0.4692,-0.5337,-0.5252
848,0.0,0.0,0.0,0.0,0.0,0.0,0.0029,0.9860,0.0757,0.4683,0.4681,-0.5338,-0.5259
849,0.0,0.0,0.0,0.0,0.0,0.0,0.0024,0.9845,0.0747,0.4685,0.4674,-0.5340,-0.5261
850,0.0,0.0,0.0,0.0,0.0,0.0,-0.0098,0.9813,0.0747,0.4688,0.4669,-0.5341,-0.5263
851,0.0,0.0,0.0,0.0,0.0,0.0,-0.0177,0.9755,0.0708,0.4687,0.4667,-0.5345,-0.5262
852,0.0,0.0,0.0,0.0,0.0,0.0,-0.0133,0.9774,0.0679,0.4686,0.4663,-0.5351,-0.5260
853,0.0,0.0,0.0,0.0,0.0,0.0,-0.0137,0.9896,0.0698,0.4686,0.4653,-0.5356,-0.5263
854,0.0,0.0,0.0,0.0,0.0,0.0,-0.0229,1.0032,0.0717,0.4685,0.4647,-0.5359,-0.5267
855,0.0,0.0,0.0,0.0,0.0,0.0,-0.0238,1.0037,0.0693,0.4682,0.4646,-0.5361,-0.5268
856,0.0,0.0,0.0,0.0,0.0,0.0,-0.0199,1.0032,0.0698,0.4678,0.4646,-0.5364,-0.5269
857,0.0,0.0,0.0,0.0,0.0,0.0,-0.0223,1.0148,0.0722,0.4672,0.4644,-0.5367,-0.5273
858,0.0,0.0,0.0,0.0,0.0,0.0,-0.0140,1.0201,0.0771,0.4667,0.4642,-0.5367,-0.5278
859,0.0,0.0,0.0,0.0,0.0,0.0,-0.0028,1.0069,0.0820,0.4663,0.4643,-0.5366,-0.5283
860,0.0,0.0,0.0,0.0,0.0,0.0,0.0088,1.0009,0.0854,0.4665,0.4642,-0.5360,-0.5288
861,0.0,0.0,0.0,0.0,0.0,0.0,0.0093,0.9980,0.0888,0.4667,0.4645,-0.5352,-0.5292
862,0.0,0.0,0.0,0.0,0.0,0.0,0.0054,0.9985,0.0883,0.4669,0.4653,-0.5341,-0.5295
863,0.0,0.0,0.0,0.0,0.0,0.0,-0.0020,0.9894,0.0883,0.4672,0.4664,-0.5326,-0.5297
864,0.0,0.0,0.0,0.0,0.0,0.0,-0.0039,0.9855,0.0898,0.4681,0.4677,-0.5309,-0.5295
865,0.0,0.0,0.0,0.0,0.0,0.0,-0.0098,0.9783,0.0834,0.4691,0.4693,-0.5291,-0.5289
866,0.0,0.0,0.0,0.0,0.0,0.0,-0.0206,0.9668,0.0737,0.4703,0.4717,-0.5275,-0.5273
867,0.0,0.0,0.0,0.0,0.0,0.0,-0.0352,0.9781,0.0732,0.4715,0.4744,-0.5255,-0.5258
868,0.0,0.0,0.0,0.0,0.0,0.0,-0.0499,0.9681,0.0678,0.4732,0.4771,-0.5236,-0.5238
869,0.0,0.0,0.0,0.0,0.0,0.0,-0.0636,0.9668,0.0586,0.4747,0.4799,-0.5224,-0.5210
870,0.0,0.0,0.0,0.0,0.0,0.0,-0.0747,0.9916,0.0508,0.4760,0.4828,-0.5213,-0.5183
871,0.0,0.0,0.0,0.0,0.0,0.0,-0.0689,0.9853,0.0498,0.4771,0.4856,-0.5200,-0.5159
872,0.0,0.0,0.0,0.0,0.0,0.0,-0.0756,1.0090,0.0537,0.4780,0.4882,-0.5187,-0.5139
873,0.0,0.0,0.0,0.0,0.0,0.0,-0.0870,1.0479,0.0639,0.4783,0.4911,-0.5170,-0.5126
874,0.0,0.0,0.0,0.0,0.0,0.0,-0.0852,1.0227,0.0629,0.4785,0.4937,-0.5143,-0.5127
875,0.0,0.0,0.0,0.0,0.0,0.0,-0.0845,0.9907,0.0586,0.4790,0.4959,-0.5111,-0.5133
876,0.0,0.0,0.0,0.0,0.0,0.0,-0.0966,0.9980,0.0683,0.4792,0.4981,-0.5080,-0.5140
877,0.0,0.0,0.0,0.0,0.0,0.0,-0.0972,0.9777,0.0702,0.4793,0.5004,-0.5050,-0.5146
878,0.0,0.0,0.0,0.0,0.0,0.0,-0.0845,0.9897,0.0741,0.4795,0.5024,-0.5027,-0.5147
879,0.0,0.0,0.0,0.0,0.0,0.0,-0.0839,1.0100,0.0804,0.4801,0.5039,-0.5014,-0.5140
880,0.0,0.0,0.0,0.0,0.0,0.0,-0.0990,1.0024,0.0717,0.4804,0.5051,-0.5005,-0.5134
881,0.0,0.0,0.0,0.0,0.0,0.0,-0.0961,0.9975,0.0712,0.4809,0.5057,-0.4998,-0.5131
882,0.0,0.0,0.0,0.0,0.0,0.0,-0.0820,0.9945,0.0683,0.4814,0.5058,-0.4998,-0.5124
883,0.0,0.0,0.0,0.0,0.0,0.0,-0.0695,0.9542,0.0610,0.4821,0.5050,-0.5007,-0.5117
884,0.0,0.0,0.0,0.0,0.0,0.0,-0.0666,0.9639,0.0639,0.4830,0.5040,-0.5019,-0.5107
885,0.0,0.0,0.0,0.0,0.0,0.0,-0.0835,0.9897,0.0668,0.4833,0.5036,-0.5028,-0.5099
886,0.0,0.0,0.0,0.0,0.0,0.0,-0.0912,1.0004,0.0692,0.4831,0.5031,-0.5036,-0.5098
887,0.0,0.0,0.0,0.0,0.0,0.0,-0.0868,1.0038,0.0712,0.4824,0.5022,-0.5047,-0.5103
888,0.0,0.0,0.0,0.0,0.0,0.0,-0.0777,0.9843,0.0688,0.4814,0.5008,-0.5057,-0.5116
889,0.0,0.0,0.0,0.0,0.0,0.0,-0.0634,0.9943,0.0737,0.4804,0.4992,-0.5070,-0.5128
890,0.0,0.0,0.0,0.0,0.0,0.0,-0.0541,1.0044,0.0776,0.4793,0.4974,-0.5084,-0.5141
891,0.0,0.0,0.0,0.0,0.0,0.0,-0.0419,0.9985,0.0815,0.4783,0.4956,-0.5098,-0.5155
892,0.0,0.0,0.0,0.0,0.0,0.0,-0.0380,0.9980,0.0790,0.4773,0.4941,-0.5113,-0.5164
893,0.0,0.0,0.0,0.0,0.0,0.0,-0.0284,0.9819,0.0795,0.4765,0.4924,-0.5128,-0.5173
894,0.0,0.0,0.0,0.0,0.0,0.0,-0.0181,0.9915,0.0863,0.4759,0.4903,-0.5140,-0.5186
895,0.0,0.0,0.0,0.0,0.0,0.0,-0.0200,0.9886,0.0868,0.4755,0.4884,-0.5149,-0.5199
896,0.0,0.0,0.0,0.0,0.0,0.0,-0.0221,0.9702,0.0805,0.4748,0.4867,-0.5163,-0.5208
897,0.0,0.0,0.0,0.0,0.0,0.0,-0.0187,0.9707,0.0810,0.4750,0.4862,-0.5167,-0.5205
898,0.0,0.0,0.0,0.0,0.0,0.0,-0.0221,0.9688,0.0810,0.4739,0.4853,-0.5182,-0.5209
899,0.0,0.0,0.0,0.0,0.0,0.0,-0.0311,1.0081,0.0849,0.4725,0.4847,-0.5198,-0.5212
900,0.0,0.0,0.0,0.0,0.0,0.0,-0.0320,1.0260,0.0883,0.4713,0.4838,-0.5211,-0.5218
901,0.0,0.0,0.0,0.0,0.0,0.0,-0.0334,1.0343,0.0873,0.4702,0.4836,-0.5217,-0.5224
902,0.0,0.0,0.0,0.0,0.0,0.0,-0.0349,1.0309,0.0849,0.4691,0.4835,-0.5216,-0.5235
903,0.0,0.0,0.0,0.0,0.0,0.0,-0.0350,1.0164,0.0810,0.4686,0.4829,-0.5211,-0.5250
904,0.0,0.0,0.0,0.0,0.0,0.0,-0.0298,0.9940,0.0766,0.4683,0.4823,-0.5208,-0.5261
905,0.0,0.0,0.0,0.0,0.0,0.0,-0.0292,1.0008,0.0786,0.4679,0.4820,-0.5205,-0.5270
906,0.0,0.0,0.0,0.0,0.0,0.0,-0.0355,1.0163,0.0917,0.4677,0.4819,-0.5202,-0.5276
907,0.0,0.0,0.0,0.0,0.0,0.0,-0.0481,1.0256,0.0965,0.4677,0.4817,-0.5195,-0.5285
908,0.0,0.0,0.0,0.0,0.0,0.0,-0.0574,1.0199,0.0965,0.4682,0.4814,-0.5178,-0.5300
909,0.0,0.0,0.0,0.0,0.0,0.0,-0.0556,0.9932,0.0941,0.4685,0.4815,-0.5158,-0.5316
910,0.0,0.0,0.0,0.0,0.0,0.0,-0.0580,0.9986,0.1033,0.4684,0.4824,-0.5138,-0.5328
911,0.0,0.0,0.0,0.0,0.0,0.0,-0.0703,0.9880,0.1048,0.4684,0.4832,-0.5114,-0.5345
912,0.0,0.0,0.0,0.0,0.0,0.0,-0.0753,0.9653,0.0975,0.4685,0.4841,-0.5090,-0.5358
913,0.0,0.0,0.0,0.0,0.0,0.0,-0.0783,0.9624,0.0975,0.4683,0.4856,-0.5072,-0.5363
914,0.0,0.0,0.0,0.0,0.0,0.0,-0.0909,0.9722,0.0994,0.4680,0.4872,-0.5056,-0.5366
915,0.0,0.0,0.0,0.0,0.0,0.0,-0.0933,0.9732,0.1009,0.4675,0.4888,-0.5046,-0.5366
916,0.0,0.0,0.0,0.0,0.0,0.0,-0.1088,1.0077,0.1067,0.4667,0.4910,-0.5033,-0.5365
917,0.0,0.0,0.0,0.0,0.0,0.0,-0.1118,0.9908,0.1086,0.4659,0.4931,-0.5013,-0.5371
918,0.0,0.0,0.0,0.0,0.0,0.0,-0.1002,0.9728,0.1067,0.4654,0.4951,-0.4997,-0.5372
919,0.0,0.0,0.0,0.0,0.0,0.0,-0.1085,0.9656,0.1004,0.4648,0.4975,-0.4984,-0.5367
920,0.0,0.0,0.0,0.0,0.0,0.0,-0.1242,0.9570,0.0916,0.4642,0.5000,-0.4972,-0.5360
921,0.0,0.0,0.0,0.0,0.0,0.0,-0.1291,0.9600,0.0858,0.4636,0.5022,-0.4962,-0.5354
922,0.0,0.0,0.0,0.0,0.0,0.0,-0.1398,0.9679,0.0784,0.4631,0.5043,-0.4953,-0.5347
923,0.0,0.0,0.0,0.0,0.0,0.0,-0.1431,0.9776,0.0741,0.4629,0.5062,-0.4946,-0.5338
924,0.0,0.0,0.0,0.0,0.0,0.0,-0.1416,0.9878,0.0682,0.4629,0.5078,-0.4940,-0.5327
925,0.0,0.0,0.0,0.0,0.0,0.0,-0.1294,0.9887,0.0634,0.4630,0.5093,-0.4936,-0.5316
926,0.0,0.0,0.0,0.0,0.0,0.0,-0.1255,0.9765,0.0522,0.4634,0.5108,-0.4931,-0.5303
927,0.0,0.0,0.0,0.0,0.0,0.0,-0.1120,0.9580,0.0469,0.4639,0.5120,-0.4932,-0.5285
928,0.0,0.0,0.0,0.0,0.0,0.0,-0.1056,0.9701,0.0469,0.4648,0.5132,-0.4935,-0.5263
929,0.0,0.0,0.0,0.0,0.0,0.0,-0.1167,0.9886,0.0478,0.4658,0.5148,-0.4932,-0.5242
930,0.0,0.0,0.0,0.0,0.0,0.0,-0.1127,0.9953,0.0464,0.4667,0.5159,-0.4931,-0.5224
931,0.0,0.0,0.0,0.0,0.0,0.0,-0.1019,1.0103,0.0493,0.4680,0.5167,-0.4929,-0.5206
932,0.0,0.0,0.0,0.0,0.0,0.0,-0.0937,0.9932,0.0469,0.4696,0.5172,-0.4927,-0.5189
933,0.0,0.0,0.0,0.0,0.0,0.0,-0.0869,0.9879,0.0415,0.4712,0.5178,-0.4928,-0.5167
934,0.0,0.0,0.0,0.0,0.0,0.0,-0.0937,1.0034,0.0444,0.4730,0.5184,-0.4927,-0.5146
935,0.0,0.0,0.0,0.0,0.0,0.0,-0.1101,1.0292,0.0546,0.4747,0.5192,-0.4919,-0.5129
936,0.0,0.0,0.0,0.0,0.0,0.0,-0.1082,1.0200,0.0517,0.4769,0.5198,-0.4906,-0.5116
937,0.0,0.0,0.0,0.0,0.0,0.0,-0.1069,0.9992,0.0469,0.4787,0.5205,-0.4895,-0.5102
938,0.0,0.0,0.0,0.0,0.0,0.0,-0.1193,1.0419,0.0658,0.4808,0.5209,-0.4881,-0.5092
939,0.0,0.0,0.0,0.0,0.0,0.0,-0.1185,1.0191,0.0619,0.4830,0.5212,-0.4863,-0.5086
940,0.0,0.0,0.0,0.0,0.0,0.0,-0.1035,0.9865,0.0590,0.4851,0.5211,-0.4849,-0.5079
941,0.0,0.0,0.0,0.0,0.0,0.0,-0.1089,0.9807,0.0585,0.4872,0.5213,-0.4836,-0.5070
942,0.0,0.0,0.0,0.0,0.0,0.0,-0.1113,0.9890,0.0648,0.4891,0.5214,-0.4828,-0.5059
943,0.0,0.0,0.0,0.0,0.0,0.0,-0.1070,0.9841,0.0731,0.4908,0.5208,-0.4828,-0.5049
944,0.0,0.0,0.0,0.0,0.0,0.0,-0.0942,0.9863,0.0819,0.4926,0.5197,-0.4835,-0.5035
945,0.0,0.0,0.0,0.0,0.0,0.0,-0.0966,1.0086,0.0872,0.4941,0.5183,-0.4843,-0.5026
946,0.0,0.0,0.0,0.0,0.0,0.0,-0.0868,1.0008,0.0882,0.4956,0.5167,-0.4852,-0.5020
947,0.0,0.0,0.0,0.0,0.0,0.0,-0.0742,0.9881,0.0912,0.4968,0.5147,-0.4864,-0.5017
948,0.0,0.0,0.0,0.0,0.0,0.0,-0.0660,0.9817,0.0951,0.4979,0.5125,-0.4880,-0.5013
949,0.0,0.0,0.0,0.0,0.0,0.0,-0.0625,0.9860,0.1004,0.4986,0.5107,-0.4898,-0.5007
950,0.0,0.0,0.0,0.0,0.0,0.0,-0.0625,0.9904,0.1028,0.4990,0.5092,-0.4918,-0.4999
951,0.0,0.0,0.0,0.0,0.0,0.0,-0.0738,0.9847,0.0985,0.4988,0.5078,-0.4934,-0.4998
952,0.0,0.0,0.0,0.0,0.0,0.0,-0.0742,0.9861,0.1004,0.4983,0.5065,-0.4948,-0.5004
953,0.0,0.0,0.0,0.0,0.0,0.0,-0.0698,0.9904,0.1048,0.4976,0.5054,-0.4962,-0.5008
954,0.0,0.0,0.0,0.0,0.0,0.0,-0.0732,0.9963,0.1043,0.4968,0.5045,-0.4974,-0.5013
955,0.0,0.0,0.0,0.0,0.0,0.0,-0.0624,1.0063,0.1067,0.4960,0.5034,-0.4986,-0.5020
956,0.0,0.0,0.0,0.0,0.0,0.0,-0.0540,1.0164,0.1077,0.4953,0.5019,-0.4996,-0.5032
957,0.0,0.0,0.0,0.0,0.0,0.0,-0.0565,1.0107,0.1009,0.4944,0.5007,-0.5003,-0.5045
958,0.0,0.0,0.0,0.0,0.0,0.0,-0.0551,1.0010,0.0985,0.4933,0.4999,-0.5008,-0.5060
959,0.0,0.0,0.0,0.0,0.0,0.0,-0.0473,0.9956,0.1014,0.4921,0.4991,-0.5010,-0.5077
960,0.0,0.0,0.0,0.0,0.0,0.0,-0.0488,0.9922,0.1024,0.4908,0.4983,-0.5012,-0.5095
961,0.0,0.0,0.0,0.0,0.0,0.0,-0.0537,0.9864,0.1024,0.4895,0.4975,-0.5012,-0.5115
962,0.0,0.0,0.0,0.0,0.0,0.0,-0.0542,0.9884,0.1009,0.4883,0.4967,-0.5012,-0.5135
963,0.0,0.0,0.0,0.0,0.0,0.0,-0.0542,0.9850,0.0985,0.4871,0.4961,-0.5012,-0.5152
964,0.0,0.0,0.0,0.0,0.0,0.0,-0.0508,0.9811,0.0960,0.4858,0.4954,-0.5012,-0.5171
965,0.0,0.0,0.0,0.0,0.0,0.0,-0.0504,0.9777,0.0917,0.4845,0.4949,-0.5015,-0.5185
966,0.0,0.0,0.0,0.0,0.0,0.0,-0.0523,0.9753,0.0868,0.4830,0.4947,-0.5019,-0.5197
967,0.0,0.0,0.0,0.0,0.0,0.0,-0.0513,0.9816,0.0839,0.4816,0.4944,-0.5023,-0.5209
968,0.0,0.0,0.0,0.0,0.0,0.0,-0.0512,0.9991,0.0819,0.4802,0.4939,-0.5027,-0.5222
969,0.0,0.0,0.0,0.0,0.0,0.0,-0.0517,1.0005,0.0790,0.4789,0.4933,-0.5032,-0.5235
970,0.0,0.0,0.0,0.0,0.0,0.0,-0.0517,1.0020,0.0790,0.4775,0.4931,-0.5038,-0.5244
971,0.0,0.0,0.0,0.0,0.0,0.0,-0.0507,1.0005,0.0814,0.4764,0.4925,-0.5041,-0.5257
972,0.0,0.0,0.0,0.0,0.0,0.0,-0.0561,1.0044,0.0848,0.4754,0.4920,-0.5043,-0.5269
973,0.0,0.0,0.0,0.0,0.0,0.0,-0.0575,1.0034,0.0887,0.4744,0.4918,-0.5042,-0.5280
974,0.0,0.0,0.0,0.0,0.0,0.0,-0.0581,0.9957,0.0897,0.4736,0.4914,-0.5039,-0.5294
975,0.0,0.0,0.0,0.0,0.0,0.0,-0.0591,0.9817,0.0878,0.4729,0.4911,-0.5035,-0.5308
976,0.0,0.0,0.0,0.0,0.0,0.0,-0.0631,0.9701,0.0878,0.4722,0.4909,-0.5032,-0.5319
977,0.0,0.0,0.0,0.0,0.0,0.0,-0.0694,0.9788,0.0951,0.4716,0.4906,-0.5029,-0.5329
978,0.0,0.0,0.0,0.0,0.0,0.0,-0.0694,0.9812,0.0951,0.4712,0.4906,-0.5028,-0.5334
979,0.0,0.0,0.0,0.0,0.0,0.0,-0.0718,0.9842,0.0960,0.4709,0.4905,-0.5027,-0.5338
980,0.0,0.0,0.0,0.0,0.0,0.0,-0.0752,0.9905,0.0980,0.4707,0.4905,-0.5028,-0.5339
981,0.0,0.0,0.0,0.0,0.0,0.0,-0.0785,1.0075,0.0984,0.4703,0.4908,-0.5029,-0.5339
982,0.0,0.0,0.0,0.0,0.0,0.0,-0.0800,1.0051,0.0975,0.4700,0.4910,-0.5024,-0.5344
983,0.0,0.0,0.0,0.0,0.0,0.0,-0.0863,1.0100,0.0975,0.4697,0.4912,-0.5017,-0.5351
984,0.0,0.0,0.0,0.0,0.0,0.0,-0.0911,1.0270,0.1028,0.4692,0.4916,-0.5007,-0.5361
985,0.0,0.0,0.0,0.0,0.0,0.0,-0.0946,1.0154,0.1013,0.4687,0.4924,-0.4996,-0.5368
986,0.0,0.0,0.0,0.0,0.0,0.0,-0.1010,0.9980,0.0979,0.4681,0.4930,-0.4978,-0.5385
987,0.0,0.0,0.0,0.0,0.0,0.0,-0.0997,0.9771,0.0970,0.4674,0.4937,-0.4960,-0.5401
988,0.0,0.0,0.0,0.0,0.0,0.0,-0.0920,0.9475,0.0984,0.4668,0.4946,-0.4949,-0.5409
989,0.0,0.0,0.0,0.0,0.0,0.0,-0.0994,0.9393,0.1018,0.4665,0.4950,-0.4942,-0.5414
990,0.0,0.0,0.0,0.0,0.0,0.0,-0.1018,0.9403,0.1043,0.4662,0.4952,-0.4944,-0.5414
991,0.0,0.0,0.0,0.0,0.0,0.0,-0.1003,0.9534,0.1018,0.4661,0.4951,-0.4951,-0.5409
992,0.0,0.0,0.0,0.0,0.0,0.0,-0.1022,0.9679,0.1004,0.4661,0.4949,-0.4960,-0.5402
993,0.0,0.0,0.0,0.0,0.0,0.0,-0.0986,0.9854,0.1009,0.4661,0.4947,-0.4971,-0.5394
994,0.0,0.0,0.0,0.0,0.0,0.0,-0.0908,0.9935,0.0975,0.4662,0.4945,-0.4981,-0.5385
995,0.0,0.0,0.0,0.0,0.0,0.0,-0.0883,1.0013,0.0950,0.4661,0.4945,-0.4993,-0.5376
996,0.0,0.0,0.0,0.0,0.0,0.0,-0.0877,1.0173,0.0960,0.4662,0.4943,-0.5002,-0.5368
997,0.0,0.0,0.0,0.0,0.0,0.0,-0.0810,1.0022,0.0926,0.4663,0.4943,-0.5010,-0.5359
998,0.0,0.0,0.0,0.0,0.0,0.0,-0.0747,0.9915,0.0873,0.4662,0.4944,-0.5019,-0.5352
999,0.0,0.0,0.0,0.0,0.0,0.0,-0.0680,0.9750,0.0839,0.4665,0.4941,-0.5024,-0.5346
1000,0.0,0.0,0.0,0.0,0.0,0.0,-0.0690,0.9677,0.0809,0.4668,0.4941,-0.5032,-0.5336
1001,0.0,0.0,0.0,0.0,0.0,0.0,-0.0675,0.9701,0.0795,0.4669,0.4943,-0.5043,-0.5323
1002,0.0,0.0,0.0,0.0,0.0,0.0,-0.0616,0.9754,0.0746,0.4672,0.4942,-0.5052,-0.5313
1003,0.0,0.0,0.0,0.0,0.0,0.0,-0.0511,0.9332,0.0654,0.4677,0.4937,-0.5067,-0.5298
1004,0.0,0.0,0.0,0.0,0.0,0.0,-0.0513,0.9880,0.0669,0.4684,0.4934,-0.5090,-0.5274
1005,0.0,0.0,0.0,0.0,0.0,0.0,-0.0469,0.9870,0.0615,0.4690,0.4926,-0.5109,-0.5256
1006,0.0,0.0,0.0,0.0,0.0,0.0,-0.0286,1.0275,0.0674,0.4697,0.4918,-0.5126,-0.5241
1007,0.0,0.0,0.0,0.0,0.0,0.0,-0.0123,1.0511,0.0713,0.4708,0.4906,-0.5139,-0.5230
1008,0.0,0.0,0.0,0.0,0.0,0.0,-0.0133,1.0482,0.0776,0.4724,0.4891,-0.5151,-0.5218
1009,0.0,0.0,0.0,0.0,0.0,0.0,-0.0072,1.0893,0.0883,0.4742,0.4878,-0.5155,-0.5211
1010,0.0,0.0,0.0,0.0,0.0,0.0,-0.0169,1.0303,0.0800,0.4764,0.4862,-0.5141,-0.5219
1011,0.0,0.0,0.0,0.0,0.0,0.0,-0.0220,0.9848,0.0786,0.4783,0.4843,-0.5132,-0.5228
1012,0.0,0.0,0.0,0.0,0.0,0.0,-0.0379,1.0212,0.1024,0.4802,0.4825,-0.5121,-0.5238
1013,0.0,0.0,0.0,0.0,0.0,0.0,-0.0432,0.9456,0.0946,0.4826,0.4807,-0.5112,-0.5242
1014,0.0,0.0,0.0,0.0,0.0,0.0,-0.0513,0.9772,0.0990,0.4850,0.4799,-0.5107,-0.5232
1015,0.0,0.0,0.0,0.0,0.0,0.0,-0.0456,0.9554,0.0941,0.4873,0.4795,-0.5101,-0.5220
1016,0.0,0.0,0.0,0.0,0.0,0.0,-0.0450,0.9709,0.0902,0.4893,0.4799,-0.5098,-0.5200
1017,0.0,0.0,0.0,0.0,0.0,0.0,-0.0462,1.0169,0.0960,0.4913,0.4807,-0.5092,-0.5180
1018,0.0,0.0,0.0,0.0,0.0,0.0,-0.0453,1.0135,0.0965,0.4935,0.4812,-0.5084,-0.5162
1019,0.0,0.0,0.0,0.0,0.0,0.0,-0.0429,1.0018,0.0985,0.4957,0.4817,-0.5073,-0.5146
1020,0.0,0.0,0.0,0.0,0.0,0.0,-0.0448,1.0159,0.1063,0.4977,0.4823,-0.5062,-0.5132
1021,0.0,0.0,0.0,0.0,0.0,0.0,-0.0404,1.0168,0.1111,0.4995,0.4828,-0.5050,-0.5123
1022,0.0,0.0,0.0,0.0,0.0,0.0,-0.0438,1.0173,0.1087,0.5009,0.4831,-0.5036,-0.5119
1023,0.0,0.0,0.0,0.0,0.0,0.0,-0.0498,0.9912,0.1063,0.5017,0.4838,-0.5024,-0.5117
1024,0.0,0.0,0.0,0.0,0.0,0.0,-0.0410,0.9993,0.1131,0.5025,0.4840,-0.5013,-0.5119
1025,0.0,0.0,0.0,0.0,0.0,0.0,-0.0459,0.9863,0.1150,0.5032,0.4838,-0.4999,-0.5126
1026,0.0,0.0,0.0,0.0,0.0,0.0,-0.0548,0.9772,0.1116,0.5036,0.4840,-0.4986,-0.5133
1027,0.0,0.0,0.0,0.0,0.0,0.0,-0.0560,0.9259,0.1029,0.5037,0.4842,-0.4977,-0.5139
1028,0.0,0.0,0.0,0.0,0.0,0.0,-0.0549,0.9481,0.1111,0.5032,0.4845,-0.4977,-0.5141
1029,0.0,0.0,0.0,0.0,0.0,0.0,-0.0605,0.9951,0.1184,0.5026,0.4847,-0.4978,-0.5145
1030,0.0,0.0,0.0,0.0,0.0,0.0,-0.0565,1.0193,0.1189,0.5012,0.4852,-0.4981,-0.5150
1031,0.0,0.0,0.0,0.0,0.0,0.0,-0.0467,1.0115,0.1150,0.4997,0.4861,-0.4981,-0.5156
1032,0.0,0.0,0.0,0.0,0.0,0.0,-0.0381,0.9959,0.1145,0.4981,0.4871,-0.4980,-0.5163
1033,0.0,0.0,0.0,0.0,0.0,0.0,-0.0424,1.0003,0.1145,0.4964,0.4880,-0.4977,-0.5175
1034,0.0,0.0,0.0,0.0,0.0,0.0,-0.0537,0.9883,0.1150,0.4946,0.4889,-0.4972,-0.5188
1035,0.0,0.0,0.0,0.0,0.0,0.0,-0.0587,0.9748,0.1131,0.4928,0.4901,-0.4968,-0.5198
1036,0.0,0.0,0.0,0.0,0.0,0.0,-0.0680,0.9720,0.1145,0.4911,0.4910,-0.4965,-0.5208
1037,0.0,0.0,0.0,0.0,0.0,0.0,-0.0737,0.9856,0.1160,0.4895,0.4917,-0.4964,-0.5218
1038,0.0,0.0,0.0,0.0,0.0,0.0,-0.0748,0.9812,0.1165,0.4880,0.4925,-0.4964,-0.5223
1039,0.0,0.0,0.0,0.0,0.0,0.0,-0.0738,0.9720,0.1145,0.4867,0.4934,-0.4966,-0.5225
1040,0.0,0.0,0.0,0.0,0.0,0.0,-0.0796,0.9818,0.1145,0.4855,0.4940,-0.4968,-0.5229
1041,0.0,0.0,0.0,0.0,0.0,0.0,-0.0831,0.9745,0.1111,0.4844,0.4945,-0.4972,-0.5230
1042,0.0,0.0,0.0,0.0,0.0,0.0,-0.0743,0.9716,0.1082,0.4834,0.4952,-0.4979,-0.5227
1043,0.0,0.0,0.0,0.0,0.0,0.0,-0.0728,0.9817,0.1058,0.4825,0.4954,-0.4982,-0.5229
1044,0.0,0.0,0.0,0.0,0.0,0.0,-0.0777,0.9827,0.1023,0.4816,0.4959,-0.4985,-0.5231
1045,0.0,0.0,0.0,0.0,0.0,0.0,-0.0763,0.9735,0.0975,0.4806,0.4968,-0.4992,-0.5226
1046,0.0,0.0,0.0,0.0,0.0,0.0,-0.0782,0.9779,0.0980,0.4798,0.4973,-0.4997,-0.5222
1047,0.0,0.0,0.0,0.0,0.0,0.0,-0.0849,1.0008,0.0984,0.4788,0.4979,-0.5003,-0.5220
1048,0.0,0.0,0.0,0.0,0.0,0.0,-0.0829,1.0032,0.0945,0.4778,0.4985,-0.5008,-0.5219
1049,0.0,0.0,0.0,0.0,0.0,0.0,-0.0824,1.0095,0.0921,0.4768,0.4990,-0.5012,-0.5219
1050,0.0,0.0,0.0,0.0,0.0,0.0,-0.0848,1.0124,0.0887,0.4759,0.4994,-0.5013,-0.5222
1051,0.0,0.0,0.0,0.0,0.0,0.0,-0.0800,1.0012,0.0858,0.4754,0.4997,-0.5014,-0.5224
1052,0.0,0.0,0.0,0.0,0.0,0.0,-0.0771,1.0031,0.0868,0.4747,0.5003,-0.5018,-0.5221
1053,0.0,0.0,0.0,0.0,0.0,0.0,-0.0761,1.0070,0.0882,0.4738,0.5011,-0.5019,-0.5220
1054,0.0,0.0,0.0,0.0,0.0,0.0,-0.0751,0.9997,0.0892,0.4737,0.5011,-0.5016,-0.5225
1055,0.0,0.0,0.0,0.0,0.0,0.0,-0.0732,0.9987,0.0955,0.4739,0.5009,-0.5010,-0.5230
1056,0.0,0.0,0.0,0.0,0.0,0.0,-0.0688,0.9933,0.0999,0.4742,0.5012,-0.5003,-0.5231
1057,0.0,0.0,0.0,0.0,0.0,0.0,-0.0574,0.9492,0.0926,0.4748,0.5016,-0.4996,-0.5228
1058,0.0,0.0,0.0,0.0,0.0,0.0,-0.0604,0.9400,0.0892,0.4756,0.5018,-0.4992,-0.5222
1059,0.0,0.0,0.0,0.0,0.0,0.0,-0.0704,0.9774,0.0931,0.4764,0.5023,-0.4993,-0.5211
1060,0.0,0.0,0.0,0.0,0.0,0.0,-0.0728,0.9779,0.0853,0.4775,0.5026,-0.4996,-0.5195
1061,0.0,0.0,0.0,0.0,0.0,0.0,-0.0681,0.9517,0.0732,0.4790,0.5025,-0.5002,-0.5175
1062,0.0,0.0,0.0,0.0,0.0,0.0,-0.0779,1.0303,0.0795,0.4802,0.5025,-0.5010,-0.5157
1063,0.0,0.0,0.0,0.0,0.0,0.0,-0.0773,1.0400,0.0751,0.4817,0.5023,-0.5014,-0.5141
1064,0.0,0.0,0.0,0.0,0.0,0.0,-0.0682,1.0099,0.0644,0.4832,0.5023,-0.5020,-0.5121
1065,0.0,0.0,0.0,0.0,0.0,0.0,-0.0579,1.0152,0.0639,0.4848,0.5020,-0.5020,-0.5108
1066,0.0,0.0,0.0,0.0,0.0,0.0,-0.0531,1.0045,0.0639,0.4863,0.5021,-0.5017,-0.5096
1067,0.0,0.0,0.0,0.0,0.0,0.0,-0.0493,0.9991,0.0693,0.4879,0.5019,-0.5017,-0.5083
1068,0.0,0.0,0.0,0.0,0.0,0.0,-0.0487,1.0073,0.0737,0.4899,0.5013,-0.5016,-0.5070
1069,0.0,0.0,0.0,0.0,0.0,0.0,-0.0481,1.0213,0.0795,0.4921,0.5005,-0.5011,-0.5063
1070,0.0,0.0,0.0,0.0,0.0,0.0,-0.0409,1.0033,0.0824,0.4946,0.4990,-0.5004,-0.5059
1071,0.0,0.0,0.0,0.0,0.0,0.0,-0.0332,0.9974,0.0888,0.4974,0.4972,-0.4999,-0.5054
1072,0.0,0.0,0.0,0.0,0.0,0.0,-0.0231,0.9692,0.0888,0.5002,0.4957,-0.4995,-0.5045
1073,0.0,0.0,0.0,0.0,0.0,0.0,-0.0133,0.9667,0.0859,0.5030,0.4946,-0.4992,-0.5031
1074,0.0,0.0,0.0,0.0,0.0,0.0,-0.0109,0.9715,0.0917,0.5060,0.4938,-0.4988,-0.5013
1075,0.0,0.0,0.0,0.0,0.0,0.0,-0.0210,0.9886,0.0966,0.5089,0.4932,-0.4986,-0.4993
1076,0.0,0.0,0.0,0.0,0.0,0.0,-0.0201,0.9784,0.0951,0.5112,0.4925,-0.4986,-0.4975
1077,0.0,0.0,0.0,0.0,0.0,0.0,-0.0219,0.9963,0.0970,0.5132,0.4917,-0.4988,-0.4961
1078,0.0,0.0,0.0,0.0,0.0,0.0,-0.0335,1.0197,0.1014,0.5147,0.4910,-0.4989,-0.4951
1079,0.0,0.0,0.0,0.0,0.0,0.0,-0.0349,1.0386,0.1053,0.5156,0.4905,-0.4987,-0.4948
1080,0.0,0.0,0.0,0.0,0.0,0.0,-0.0262,1.0220,0.1019,0.5163,0.4899,-0.4986,-0.4949
1081,0.0,0.0,0.0,0.0,0.0,0.0,-0.0184,1.0123,0.1000,0.5168,0.4889,-0.4984,-0.4956
1082,0.0,0.0,0.0,0.0,0.0,0.0,-0.0141,1.0079,0.0995,0.5168,0.4881,-0.4985,-0.4963
1083,0.0,0.0,0.0,0.0,0.0,0.0,-0.0122,0.9919,0.0995,0.5164,0.4876,-0.4984,-0.4972
1084,0.0,0.0,0.0,0.0,0.0,0.0,-0.0157,0.9851,0.1048,0.5159,0.4872,-0.4982,-0.4983
1085,0.0,0.0,0.0,0.0,0.0,0.0,-0.0146,1.0044,0.1165,0.5154,0.4859,-0.4981,-0.5001
1086,0.0,0.0,0.0,0.0,0.0,0.0,-0.0001,0.9670,0.1136,0.5150,0.4837,-0.4986,-0.5022
1087,0.0,0.0,0.0,0.0,0.0,0.0,-0.0047,0.9336,0.1107,0.5147,0.4826,-0.4991,-0.5031
1088,0.0,0.0,0.0,0.0,0.0,0.0,-0.0157,0.9710,0.1267,0.5146,0.4823,-0.4990,-0.5035
1089,0.0,0.0,0.0,0.0,0.0,0.0,-0.0061,0.9573,0.1233,0.5146,0.4811,-0.4997,-0.5040
1090,0.0,0.0,0.0,0.0,0.0,0.0,0.0038,0.9761,0.1253,0.5146,0.4795,-0.5008,-0.5045
1091,0.0,0.0,0.0,0.0,0.0,0.0,-0.0071,1.0310,0.1326,0.5145,0.4787,-0.5014,-0.5047
1092,0.0,0.0,0.0,0.0,0.0,0.0,-0.0144,1.0325,0.1301,0.5144,0.4788,-0.5011,-0.5050
1093,0.0,0.0,0.0,0.0,0.0,0.0,-0.0136,1.0097,0.1267,0.5141,0.4796,-0.5004,-0.5053
1094,0.0,0.0,0.0,0.0,0.0,0.0,-0.0157,0.9797,0.1194,0.5134,0.4808,-0.4996,-0.5056
1095,0.0,0.0,0.0,0.0,0.0,0.0,-0.0289,0.9784,0.1180,0.5124,0.4822,-0.4985,-0.5064
1096,0.0,0.0,0.0,0.0,0.0,0.0,-0.0328,0.9702,0.1165,0.5111,0.4842,-0.4974,-0.5070
1097,0.0,0.0,0.0,0.0,0.0,0.0,-0.0363,0.9596,0.1136,0.5097,0.4866,-0.4962,-0.5072
1098,0.0,0.0,0.0,0.0,0.0,0.0,-0.0338,0.9644,0.1189,0.5080,0.4889,-0.4956,-0.5073
1099,0.0,0.0,0.0,0.0,0.0,0.0,-0.0364,1.0206,0.1243,0.5057,0.4906,-0.4956,-0.5078
1100,0.0,0.0,0.0,0.0,0.0,0.0,-0.0423,1.0221,0.1136,0.5030,0.4918,-0.4958,-0.5092
1101,0.0,0.0,0.0,0.0,0.0,0.0,-0.0444,0.9994,0.1029,0.5000,0.4935,-0.4961,-0.5102
1102,0.0,0.0,0.0,0.0,0.0,0.0,-0.0532,0.9913,0.0917,0.4965,0.4951,-0.4966,-0.5116
1103,0.0,0.0,0.0,0.0,0.0,0.0,-0.0605,0.9986,0.0892,0.4927,0.4958,-0.4976,-0.5136
1104,0.0,0.0,0.0,0.0,0.0,0.0,-0.0522,1.0000,0.0780,0.4884,0.4957,-0.5002,-0.5154
1105,0.0,0.0,0.0,0.0,0.0,0.0,-0.0574,1.0180,0.0707,0.4844,0.4953,-0.5023,-0.5174
1106,0.0,0.0,0.0,0.0,0.0,0.0,-0.0679,0.9886,0.0659,0.4811,0.4949,-0.5039,-0.5193
1107,0.0,0.0,0.0,0.0,0.0,0.0,-0.0713,0.9891,0.0654,0.4774,0.4941,-0.5060,-0.5214
1108,0.0,0.0,0.0,0.0,0.0,0.0,-0.0722,1.0013,0.0532,0.4741,0.4932,-0.5076,-0.5238
1109,0.0,0.0,0.0,0.0,0.0,0.0,-0.0598,0.9532,0.0386,0.4712,0.4931,-0.5086,-0.5255
1110,0.0,0.0,0.0,0.0,0.0,0.0,-0.0558,0.9662,0.0474,0.4692,0.4934,-0.5091,-0.5265
1111,0.0,0.0,0.0,0.0,0.0,0.0,-0.0551,0.9963,0.0581,0.4679,0.4940,-0.5097,-0.5266
1112,0.0,0.0,0.0,0.0,0.0,0.0,-0.0527,1.0025,0.0605,0.4669,0.4945,-0.5104,-0.5262
1113,0.0,0.0,0.0,0.0,0.0,0.0,-0.0507,1.0059,0.0654,0.4663,0.4949,-0.5112,-0.5257
1114,0.0,0.0,0.0,0.0,0.0,0.0,-0.0527,0.9952,0.0669,0.4656,0.4954,-0.5118,-0.5251
1115,0.0,0.0,0.0,0.0,0.0,0.0,-0.0562,0.9851,0.0668,0.4648,0.4963,-0.5119,-0.5251
1116,0.0,0.0,0.0,0.0,0.0,0.0,-0.0597,0.9706,0.0673,0.4640,0.4974,-0.5118,-0.5248
1117,0.0,0.0,0.0,0.0,0.0,0.0,-0.0699,0.9755,0.0702,0.4633,0.4985,-0.5115,-0.5247
1118,0.0,0.0,0.0,0.0,0.0,0.0,-0.0756,0.9954,0.0766,0.4624,0.4991,-0.5116,-0.5248
1119,0.0,0.0,0.0,0.0,0.0,0.0,-0.0823,1.0192,0.0819,0.4613,0.4994,-0.5123,-0.5248
1120,0.0,0.0,0.0,0.0,0.0,0.0,-0.0853,1.0134,0.0829,0.4603,0.4995,-0.5129,-0.5250
1121,0.0,0.0,0.0,0.0,0.0,0.0,-0.0911,1.0202,0.0858,0.4594,0.4993,-0.5130,-0.5258
1122,0.0,0.0,0.0,0.0,0.0,0.0,-0.0969,1.0329,0.0887,0.4586,0.4992,-0.5127,-0.5269
1123,0.0,0.0,0.0,0.0,0.0,0.0,-0.0898,0.9950,0.0843,0.4583,0.4991,-0.5122,-0.5277
1124,0.0,0.0,0.0,0.0,0.0,0.0,-0.0947,0.9844,0.0853,0.4583,0.4989,-0.5117,-0.5285
1125,0.0,0.0,0.0,0.0,0.0,0.0,-0.0947,0.9883,0.0892,0.4584,0.4987,-0.5113,-0.5289
1126,0.0,0.0,0.0,0.0,0.0,0.0,-0.0968,0.9679,0.0863,0.4589,0.4984,-0.5108,-0.5292
1127,0.0,0.0,0.0,0.0,0.0,0.0,-0.0998,0.9529,0.0858,0.4594,0.4981,-0.5102,-0.5296
1128,0.0,0.0,0.0,0.0,0.0,0.0,-0.0891,0.9519,0.0877,0.4604,0.4975,-0.5099,-0.5296
1129,0.0,0.0,0.0,0.0,0.0,0.0,-0.0841,0.9678,0.0911,0.4619,0.4967,-0.5098,-0.5293
1130,0.0,0.0,0.0,0.0,0.0,0.0,-0.0753,0.9726,0.0941,0.4633,0.4955,-0.5103,-0.5286
1131,0.0,0.0,0.0,0.0,0.0,0.0,-0.0660,0.9783,0.0960,0.4650,0.4940,-0.5109,-0.5280
1132,0.0,0.0,0.0,0.0,0.0,0.0,-0.0640,0.9870,0.0951,0.4664,0.4926,-0.5119,-0.5271
1133,0.0,0.0,0.0,0.0,0.0,0.0,-0.0586,0.9952,0.0951,0.4678,0.4914,-0.5130,-0.5258
1134,0.0,0.0,0.0,0.0,0.0,0.0,-0.0478,0.9980,0.0917,0.4693,0.4900,-0.5141,-0.5248
1135,0.0,0.0,0.0,0.0,0.0,0.0,-0.0415,0.9926,0.0883,0.4706,0.4888,-0.5151,-0.5237
1136,0.0,0.0,0.0,0.0,0.0,0.0,-0.0400,0.9902,0.0863,0.4716,0.4877,-0.5162,-0.5227
1137,0.0,0.0,0.0,0.0,0.0,0.0,-0.0357,0.9839,0.0839,0.4725,0.4868,-0.5174,-0.5215
1138,0.0,0.0,0.0,0.0,0.0,0.0,-0.0318,0.9805,0.0829,0.4732,0.4860,-0.5186,-0.5205
1139,0.0,0.0,0.0,0.0,0.0,0.0,-0.0302,0.9945,0.0834,0.4740,0.4849,-0.5198,-0.5196
1140,0.0,0.0,0.0,0.0,0.0,0.0,-0.0210,0.9930,0.0805,0.4749,0.4839,-0.5211,-0.5185
1141,0.0,0.0,0.0,0.0,0.0,0.0,-0.0151,0.9992,0.0766,0.4756,0.4830,-0.5224,-0.5172
1142,0.0,0.0,0.0,0.0,0.0,0.0,-0.0122,0.9983,0.0698,0.4761,0.4825,-0.5239,-0.5158
1143,0.0,0.0,0.0,0.0,0.0,0.0,-0.0126,1.0012,0.0620,0.4765,0.4822,-0.5253,-0.5143
1144,0.0,0.0,0.0,0.0,0.0,0.0,-0.0122,0.9935,0.0552,0.4765,0.4820,-0.5267,-0.5131
1145,0.0,0.0,0.0,0.0,0.0,0.0,-0.0141,0.9930,0.0533,0.4761,0.4821,-0.5282,-0.5117
1146,0.0,0.0,0.0,0.0,0.0,0.0,-0.0195,0.9960,0.0489,0.4753,0.4826,-0.5305,-0.5097
1147,0.0,0.0,0.0,0.0,0.0,0.0,-0.0249,0.9946,0.0406,0.4738,0.4835,-0.5329,-0.5077
1148,0.0,0.0,0.0,0.0,0.0,0.0,-0.0160,1.0115,0.0328,0.4722,0.4845,-0.5356,-0.5055
1149,0.0,0.0,0.0,0.0,0.0,0.0,0.0218,1.0373,0.0300,0.4713,0.4852,-0.5379,-0.5032
1150,0.0,0.0,0.0,0.0,0.0,0.0,0.0208,1.0349,0.0265,0.4713,0.4854,-0.5390,-0.5017
1151,0.0,0.0,0.0,0.0,0.0,0.0,0.0154,1.0394,0.0226,0.4713,0.4857,-0.5395,-0.5009
1152,0.0,0.0,0.0,0.0,0.0,0.0,0.0051,1.0346,0.0231,0.4717,0.4859,-0.5392,-0.5006
1153,0.0,0.0,0.0,0.0,0.0,0.0,0.0123,1.0084,0.0202,0.4721,0.4859,-0.5389,-0.5006
1154,0.0,0.0,0.0,0.0,0.0,0.0,0.0167,1.0059,0.0227,0.4728,0.4853,-0.5390,-0.5004
1155,0.0,0.0,0.0,0.0,0.0,0.0,0.0079,0.9997,0.0251,0.4735,0.4846,-0.5388,-0.5006
1156,0.0,0.0,0.0,0.0,0.0,0.0,0.0187,1.0146,0.0261,0.4748,0.4837,-0.5384,-0.5007
1157,0.0,0.0,0.0,0.0,0.0,0.0,0.0035,1.0050,0.0299,0.4762,0.4831,-0.5377,-0.5007
1158,0.0,0.0,0.0,0.0,0.0,0.0,0.0011,1.0036,0.0309,0.4772,0.4832,-0.5367,-0.5007
1159,0.0,0.0,0.0,0.0,0.0,0.0,0.0020,1.0070,0.0329,0.4784,0.4834,-0.5353,-0.5008
1160,0.0,0.0,0.0,0.0,0.0,0.0,-0.0068,0.9983,0.0309,0.4794,0.4840,-0.5336,-0.5011
1161,0.0,0.0,0.0,0.0,0.0,0.0,-0.0107,0.9940,0.0328,0.4803,0.4848,-0.5322,-0.5011
1162,0.0,0.0,0.0,0.0,0.0,0.0,-0.0136,0.9955,0.0358,0.4811,0.4853,-0.5308,-0.5011
1163,0.0,0.0,0.0,0.0,0.0,0.0,-0.0176,0.9926,0.0392,0.4819,0.4860,-0.5295,-0.5012
1164,0.0,0.0,0.0,0.0,0.0,0.0,-0.0195,0.9911,0.0426,0.4825,0.4867,-0.5283,-0.5013
1165,0.0,0.0,0.0,0.0,0.0,0.0,-0.0190,0.9921,0.0460,0.4829,0.4875,-0.5275,-0.5009
1166,0.0,0.0,0.0,0.0,0.0,0.0,-0.0190,0.9921,0.0484,0.4834,0.4883,-0.5267,-0.5005
1167,0.0,0.0,0.0,0.0,0.0,0.0,-0.0259,0.9849,0.0503,0.4838,0.4891,-0.5259,-0.5002
1168,0.0,0.0,0.0,0.0,0.0,0.0,-0.0288,0.9849,0.0503,0.4835,0.4904,-0.5255,-0.4996
1169,0.0,0.0,0.0,0.0,0.0,0.0,-0.0263,0.9955,0.0484,0.4833,0.4914,-0.5251,-0.4993
1170,0.0,0.0,0.0,0.0,0.0,0.0,-0.0248,1.0018,0.0464,0.4833,0.4922,-0.5245,-0.4990
1171,0.0,0.0,0.0,0.0,0.0,0.0,-0.0180,1.0037,0.0479,0.4840,0.4924,-0.5240,-0.4987
1172,0.0,0.0,0.0,0.0,0.0,0.0,-0.0258,0.9984,0.0537,0.4849,0.4925,-0.5235,-0.4982
1173,0.0,0.0,0.0,0.0,0.0,0.0,-0.0219,0.9998,0.0572,0.4859,0.4928,-0.5227,-0.4979
1174,0.0,0.0,0.0,0.0,0.0,0.0,-0.0194,1.0081,0.0581,0.4870,0.4928,-0.5215,-0.4979
1175,0.0,0.0,0.0,0.0,0.0,0.0,-0.0209,1.0066,0.0586,0.4879,0.4933,-0.5205,-0.4977
1176,0.0,0.0,0.0,0.0,0.0,0.0,-0.0224,1.0023,0.0586,0.4888,0.4940,-0.5195,-0.4972
1177,0.0,0.0,0.0,0.0,0.0,0.0,-0.0219,1.0003,0.0606,0.4898,0.4947,-0.5183,-0.4967
1178,0.0,0.0,0.0,0.0,0.0,0.0,-0.0205,0.9959,0.0620,0.4909,0.4952,-0.5170,-0.4964
1179,0.0,0.0,0.0,0.0,0.0,0.0,-0.0214,0.9979,0.0645,0.4920,0.4960,-0.5156,-0.4961
1180,0.0,0.0,0.0,0.0,0.0,0.0,-0.0244,0.9926,0.0693,0.4932,0.4966,-0.5141,-0.4958
1181,0.0,0.0,0.0,0.0,0.0,0.0,-0.0220,0.9853,0.0698,0.4944,0.4973,-0.5127,-0.4954
1182,0.0,0.0,0.0,0.0,0.0,0.0,-0.0245,0.9833,0.0703,0.4956,0.4984,-0.5113,-0.4946
1183,0.0,0.0,0.0,0.0,0.0,0.0,-0.0303,0.9824,0.0713,0.4968,0.4994,-0.5098,-0.4939
1184,0.0,0.0,0.0,0.0,0.0,0.0,-0.0362,0.9839,0.0698,0.4980,0.5004,-0.5082,-0.4933
1185,0.0,0.0,0.0,0.0,0.0,0.0,-0.0352,0.9864,0.0683,0.4992,0.5017,-0.5068,-0.4922
1186,0.0,0.0,0.0,0.0,0.0,0.0,-0.0371,0.9849,0.0669,0.5002,0.5034,-0.5058,-0.4905
1187,0.0,0.0,0.0,0.0,0.0,0.0,-0.0430,0.9792,0.0649,0.5013,0.5052,-0.5046,-0.4887
1188,0.0,0.0,0.0,0.0,0.0,0.0,-0.0459,0.9899,0.0620,0.5025,0.5066,-0.5034,-0.4873
1189,0.0,0.0,0.0,0.0,0.0,0.0,-0.0522,0.9928,0.0625,0.5039,0.5080,-0.5023,-0.4855
1190,0.0,0.0,0.0,0.0,0.0,0.0,-0.0547,0.9948,0.0615,0.5051,0.5096,-0.5013,-0.4836
1191,0.0,0.0,0.0,0.0,0.0,0.0,-0.0619,1.0074,0.0625,0.5064,0.5112,-0.5001,-0.4819
1192,0.0,0.0,0.0,0.0,0.0,0.0,-0.0629,1.0113,0.0620,0.5075,0.5127,-0.4987,-0.4805
1193,0.0,0.0,0.0,0.0,0.0,0.0,-0.0619,1.0075,0.0600,0.5086,0.5142,-0.4973,-0.4792
1194,0.0,0.0,0.0,0.0,0.0,0.0,-0.0595,0.9968,0.0586,0.5098,0.5154,-0.4959,-0.4782
1195,0.0,0.0,0.0,0.0,0.0,0.0,-0.0552,0.9895,0.0557,0.5109,0.5164,-0.4946,-0.4772
1196,0.0,0.0,0.0,0.0,0.0,0.0,-0.0503,0.9846,0.0562,0.5121,0.5170,-0.4937,-0.4761
1197,0.0,0.0,0.0,0.0,0.0,0.0,-0.0430,0.9860,0.0571,0.5135,0.5174,-0.4929,-0.4750
1198,0.0,0.0,0.0,0.0,0.0,0.0,-0.0376,0.9874,0.0581,0.5149,0.5176,-0.4924,-0.4739
1199,0.0,0.0,0.0,0.0,0.0,0.0,-0.0313,0.9854,0.0576,0.5163,0.5175,-0.4920,-0.4728
1200,0.0,0.0,0.0,0.0,0.0,0.0,-0.0240,0.9844,0.0562,0.5176,0.5176,-0.4920,-0.4712
1201,0.0,0.0,0.0,0.0,0.0,0.0,-0.0186,0.9887,0.0547,0.5188,0.5178,-0.4923,-0.4694
1202,0.0,0.0,0.0,0.0,0.0,0.0,-0.0190,0.9935,0.0538,0.5200,0.5179,-0.4924,-0.4679
1203,0.0,0.0,0.0,0.0,0.0,0.0,-0.0219,1.0023,0.0533,0.5209,0.5183,-0.4925,-0.4663
1204,0.0,0.0,0.0,0.0,0.0,0.0,-0.0209,1.0032,0.0513,0.5217,0.5189,-0.4926,-0.4646
1205,0.0,0.0,0.0,0.0,0.0,0.0,-0.0185,1.0066,0.0499,0.5225,0.5194,-0.4925,-0.4633
1206,0.0,0.0,0.0,0.0,0.0,0.0,-0.0131,1.0085,0.0484,0.5233,0.5200,-0.4923,-0.4620
1207,0.0,0.0,0.0,0.0,0.0,0.0,-0.0092,1.0065,0.0489,0.5240,0.5208,-0.4919,-0.4607
1208,0.0,0.0,0.0,0.0,0.0,0.0,-0.0097,0.9998,0.0489,0.5246,0.5215,-0.4914,-0.4597
1209,0.0,0.0,0.0,0.0,0.0,0.0,-0.0107,0.9906,0.0474,0.5252,0.5222,-0.4909,-0.4588
1210,0.0,0.0,0.0,0.0,0.0,0.0,-0.0122,0.9853,0.0460,0.5259,0.5229,-0.4904,-0.4578
1211,0.0,0.0,0.0,0.0,0.0,0.0,-0.0156,0.9887,0.0450,0.5265,0.5233,-0.4901,-0.4569
1212,0.0,0.0,0.0,0.0,0.0,0.0,-0.0156,0.9959,0.0445,0.5267,0.5240,-0.4898,-0.4561
1213,0.0,0.0,0.0,0.0,0.0,0.0,-0.0150,1.0076,0.0440,0.5270,0.5248,-0.4896,-0.4552
1214,0.0,0.0,0.0,0.0,0.0,0.0,-0.0140,1.0095,0.0445,0.5274,0.5252,-0.4895,-0.4543
1215,0.0,0.0,0.0,0.0,0.0,0.0,-0.0136,1.0051,0.0426,0.5276,0.5258,-0.4895,-0.4535
1216,0.0,0.0,0.0,0.0,0.0,0.0,-0.0136,1.0061,0.0421,0.5278,0.5262,-0.4893,-0.4531
1217,0.0,0.0,0.0,0.0,0.0,0.0,-0.0155,1.0110,0.0421,0.5276,0.5267,-0.4891,-0.4528
1218,0.0,0.0,0.0,0.0,0.0,0.0,-0.0145,1.0139,0.0421,0.5272,0.5277,-0.4888,-0.4524
1219,0.0,0.0,0.0,0.0,0.0,0.0,-0.0160,1.0144,0.0430,0.5270,0.5283,-0.4882,-0.4526
1220,0.0,0.0,0.0,0.0,0.0,0.0,-0.0175,1.0105,0.0416,0.5268,0.5288,-0.4874,-0.4530
1221,0.0,0.0,0.0,0.0,0.0,0.0,-0.0190,1.0004,0.0401,0.5265,0.5296,-0.4867,-0.4533
1222,0.0,0.0,0.0,0.0,0.0,0.0,-0.0214,0.9970,0.0435,0.5261,0.5304,-0.4860,-0.4535
1223,0.0,0.0,0.0,0.0,0.0,0.0,-0.0214,0.9960,0.0455,0.5258,0.5311,-0.4853,-0.4539
1224,0.0,0.0,0.0,0.0,0.0,0.0,-0.0220,0.9921,0.0479,0.5257,0.5312,-0.4845,-0.4546
1225,0.0,0.0,0.0,0.0,0.0,0.0,-0.0200,0.9863,0.0503,0.5258,0.5311,-0.4839,-0.4553
1226,0.0,0.0,0.0,0.0,0.0,0.0,-0.0171,0.9804,0.0499,0.5257,0.5312,-0.4837,-0.4555
1227,0.0,0.0,0.0,0.0,0.0,0.0,-0.0142,0.9799,0.0523,0.5259,0.5311,-0.4835,-0.4557
1228,0.0,0.0,0.0,0.0,0.0,0.0,-0.0123,0.9833,0.0533,0.5262,0.5306,-0.4834,-0.4559
1229,0.0,0.0,0.0,0.0,0.0,0.0,-0.0093,0.9852,0.0533,0.5264,0.5304,-0.4836,-0.4557
1230,0.0,0.0,0.0,0.0,0.0,0.0,-0.0054,0.9905,0.0528,0.5265,0.5304,-0.4839,-0.4553
1231,0.0,0.0,0.0,0.0,0.0,0.0,-0.0073,0.9978,0.0513,0.5267,0.5304,-0.4840,-0.4550
1232,0.0,0.0,0.0,0.0,0.0,0.0,-0.0087,1.0046,0.0513,0.5268,0.5304,-0.4840,-0.4548
