,Position_X,Position_Y,Position_Z,Velocity_X,Velocity_Y,Velocity_Z,Acceleration_X,Acceleration_Y,Acceleration_Z,Quaterion_0,Quaterion_1,Quaterion_2,Quaterion_3
207,0.0,0.0,0.0,0.0,0.0,0.0,0.1100,0.9752,0.1329,0.5940,0.5218,-0.4609,-0.4030
208,0.0,0.0,0.0,0.0,0.0,0.0,0.1335,0.9575,0.1220,0.5936,0.5218,-0.4617,-0.4026
209,0.0,0.0,0.0,0.0,0.0,0.0,0.1240,0.9690,0.1211,0.5934,0.5215,-0.4626,-0.4025
210,0.0,0.0,0.0,0.0,0.0,0.0,0.1249,0.9855,0.1274,0.5931,0.5210,-0.4634,-0.4026
211,0.0,0.0,0.0,0.0,0.0,0.0,0.1133,0.9883,0.1293,0.5925,0.5217,-0.4641,-0.4018
212,0.0,0.0,0.0,0.0,0.0,0.0,0.1078,1.0050,0.1332,0.5922,0.5221,-0.4643,-0.4014
213,0.0,0.0,0.0,0.0,0.0,0.0,0.1029,1.0017,0.1346,0.5923,0.5221,-0.4642,-0.4014
214,0.0,0.0,0.0,0.0,0.0,0.0,0.0960,1.0030,0.1308,0.5924,0.5220,-0.4640,-0.4015
215,0.0,0.0,0.0,0.0,0.0,0.0,0.0919,0.9954,0.1241,0.5925,0.5219,-0.4635,-0.4021
216,0.0,0.0,0.0,0.0,0.0,0.0,0.0916,0.9847,0.1175,0.5920,0.5232,-0.4632,-0.4016
217,0.0,0.0,0.0,0.0,0.0,0.0,0.0963,0.9763,0.1136,0.5915,0.5241,-0.4632,-0.4011
218,0.0,0.0,0.0,0.0,0.0,0.0,0.1021,0.9719,0.1084,0.5912,0.5244,-0.4637,-0.4006
219,0.0,0.0,0.0,0.0,0.0,0.0,0.0955,0.9823,0.1109,0.5909,0.5254,-0.4643,-0.3992
220,0.0,0.0,0.0,0.0,0.0,0.0,0.0876,0.9981,0.1147,0.5906,0.5263,-0.4647,-0.3977
221,0.0,0.0,0.0,0.0,0.0,0.0,0.0858,1.0039,0.1214,0.5907,0.5264,-0.4650,-0.3971
222,0.0,0.0,0.0,0.0,0.0,0.0,0.0892,1.0037,0.1252,0.5908,0.5264,-0.4653,-0.3967
223,0.0,0.0,0.0,0.0,0.0,0.0,0.0936,1.0026,0.1289,0.5908,0.5262,-0.4655,-0.3967
224,0.0,0.0,0.0,0.0,0.0,0.0,0.0950,1.0005,0.1322,0.5912,0.5255,-0.4654,-0.3972
225,0.0,0.0,0.0,0.0,0.0,0.0,0.0978,0.9960,0.1355,0.5915,0.5250,-0.4652,-0.3976
226,0.0,0.0,0.0,0.0,0.0,0.0,0.0991,0.9911,0.1359,0.5919,0.5245,-0.4648,-0.3982
227,0.0,0.0,0.0,0.0,0.0,0.0,0.0980,0.9838,0.1344,0.5920,0.5247,-0.4644,-0.3981
228,0.0,0.0,0.0,0.0,0.0,0.0,0.0973,0.9789,0.1334,0.5919,0.5252,-0.4643,-0.3978
229,0.0,0.0,0.0,0.0,0.0,0.0,0.0905,0.9792,0.1320,0.5921,0.5254,-0.4639,-0.3978
230,0.0,0.0,0.0,0.0,0.0,0.0,0.0821,0.9775,0.1292,0.5921,0.5260,-0.4636,-0.3974
231,0.0,0.0,0.0,0.0,0.0,0.0,0.0718,0.9769,0.1259,0.5918,0.5262,-0.4634,-0.3976
232,0.0,0.0,0.0,0.0,0.0,0.0,0.0722,0.9735,0.1221,0.5916,0.5256,-0.4634,-0.3988
233,0.0,0.0,0.0,0.0,0.0,0.0,0.0746,0.9716,0.1169,0.5910,0.5255,-0.4638,-0.3993
234,0.0,0.0,0.0,0.0,0.0,0.0,0.0811,0.9763,0.1146,0.5897,0.5263,-0.4649,-0.3989
235,0.0,0.0,0.0,0.0,0.0,0.0,0.0881,0.9819,0.1151,0.5886,0.5264,-0.4661,-0.3989
236,0.0,0.0,0.0,0.0,0.0,0.0,0.0936,0.9862,0.1165,0.5878,0.5257,-0.4676,-0.3992
237,0.0,0.0,0.0,0.0,0.0,0.0,0.0992,0.9918,0.1175,0.5873,0.5247,-0.4690,-0.3997
238,0.0,0.0,0.0,0.0,0.0,0.0,0.0999,1.0016,0.1162,0.5869,0.5235,-0.4701,-0.4007
239,0.0,0.0,0.0,0.0,0.0,0.0,0.1098,1.0042,0.1200,0.5867,0.5218,-0.4711,-0.4020
240,0.0,0.0,0.0,0.0,0.0,0.0,0.1186,1.0049,0.1214,0.5866,0.5201,-0.4719,-0.4033
241,0.0,0.0,0.0,0.0,0.0,0.0,0.1239,0.9998,0.1204,0.5862,0.5195,-0.4727,-0.4037
242,0.0,0.0,0.0,0.0,0.0,0.0,0.1258,0.9968,0.1204,0.5860,0.5193,-0.4734,-0.4036
243,0.0,0.0,0.0,0.0,0.0,0.0,0.1243,0.9979,0.1204,0.5862,0.5184,-0.4736,-0.4042
244,0.0,0.0,0.0,0.0,0.0,0.0,0.1243,0.9964,0.1218,0.5865,0.5177,-0.4735,-0.4047
245,0.0,0.0,0.0,0.0,0.0,0.0,0.1211,0.9892,0.1171,0.5866,0.5181,-0.4735,-0.4040
246,0.0,0.0,0.0,0.0,0.0,0.0,0.1380,0.9602,0.1004,0.5865,0.5186,-0.4741,-0.4029
247,0.0,0.0,0.0,0.0,0.0,0.0,0.1326,0.9584,0.0980,0.5866,0.5192,-0.4749,-0.4010
248,0.0,0.0,0.0,0.0,0.0,0.0,0.1186,0.9846,0.1020,0.5864,0.5205,-0.4756,-0.3986
249,0.0,0.0,0.0,0.0,0.0,0.0,0.1031,0.9918,0.1100,0.5863,0.5217,-0.4760,-0.3968
250,0.0,0.0,0.0,0.0,0.0,0.0,0.0900,1.0121,0.1205,0.5866,0.5225,-0.4761,-0.3953
251,0.0,0.0,0.0,0.0,0.0,0.0,0.0890,1.0150,0.1248,0.5866,0.5238,-0.4760,-0.3937
252,0.0,0.0,0.0,0.0,0.0,0.0,0.0889,0.9921,0.1199,0.5868,0.5245,-0.4758,-0.3926
253,0.0,0.0,0.0,0.0,0.0,0.0,0.0887,0.9863,0.1189,0.5873,0.5244,-0.4754,-0.3926
254,0.0,0.0,0.0,0.0,0.0,0.0,0.0877,0.9839,0.1170,0.5876,0.5243,-0.4751,-0.3927
255,0.0,0.0,0.0,0.0,0.0,0.0,0.0867,0.9829,0.1170,0.5877,0.5247,-0.4749,-0.3922
256,0.0,0.0,0.0,0.0,0.0,0.0,0.0906,0.9843,0.1179,0.5876,0.5256,-0.4749,-0.3911
257,0.0,0.0,0.0,0.0,0.0,0.0,0.0975,0.9841,0.1170,0.5879,0.5255,-0.4751,-0.3906
258,0.0,0.0,0.0,0.0,0.0,0.0,0.1043,0.9838,0.1212,0.5883,0.5249,-0.4753,-0.3905
259,0.0,0.0,0.0,0.0,0.0,0.0,0.1034,0.9844,0.1189,0.5883,0.5253,-0.4757,-0.3895
260,0.0,0.0,0.0,0.0,0.0,0.0,0.0973,0.9933,0.1199,0.5885,0.5250,-0.4759,-0.3894
261,0.0,0.0,0.0,0.0,0.0,0.0,0.1025,1.0057,0.1280,0.5889,0.5246,-0.4759,-0.3893
262,0.0,0.0,0.0,0.0,0.0,0.0,0.1026,1.0096,0.1280,0.5890,0.5251,-0.4757,-0.3887
263,0.0,0.0,0.0,0.0,0.0,0.0,0.1044,1.0047,0.1280,0.5891,0.5255,-0.4753,-0.3885
264,0.0,0.0,0.0,0.0,0.0,0.0,0.1055,0.9920,0.1288,0.5895,0.5252,-0.4747,-0.3889
265,0.0,0.0,0.0,0.0,0.0,0.0,0.1035,0.9900,0.1298,0.5901,0.5248,-0.4741,-0.3894
266,0.0,0.0,0.0,0.0,0.0,0.0,0.1010,0.9867,0.1297,0.5902,0.5256,-0.4734,-0.3889
267,0.0,0.0,0.0,0.0,0.0,0.0,0.0985,0.9843,0.1292,0.5904,0.5261,-0.4726,-0.3890
268,0.0,0.0,0.0,0.0,0.0,0.0,0.0979,0.9810,0.1269,0.5906,0.5266,-0.4719,-0.3889
269,0.0,0.0,0.0,0.0,0.0,0.0,0.0983,0.9781,0.1259,0.5906,0.5276,-0.4714,-0.3881
270,0.0,0.0,0.0,0.0,0.0,0.0,0.0973,0.9791,0.1250,0.5906,0.5283,-0.4711,-0.3875
271,0.0,0.0,0.0,0.0,0.0,0.0,0.0940,0.9821,0.1264,0.5907,0.5290,-0.4707,-0.3869
272,0.0,0.0,0.0,0.0,0.0,0.0,0.0956,0.9860,0.1255,0.5913,0.5289,-0.4701,-0.3869
273,0.0,0.0,0.0,0.0,0.0,0.0,0.0942,0.9880,0.1246,0.5918,0.5286,-0.4694,-0.3872
274,0.0,0.0,0.0,0.0,0.0,0.0,0.0972,0.9903,0.1269,0.5923,0.5287,-0.4689,-0.3870
275,0.0,0.0,0.0,0.0,0.0,0.0,0.0961,0.9874,0.1236,0.5924,0.5293,-0.4686,-0.3865
276,0.0,0.0,0.0,0.0,0.0,0.0,0.0955,0.9836,0.1226,0.5923,0.5299,-0.4684,-0.3859
277,0.0,0.0,0.0,0.0,0.0,0.0,0.0936,0.9856,0.1241,0.5923,0.5308,-0.4682,-0.3850
278,0.0,0.0,0.0,0.0,0.0,0.0,0.0914,0.9924,0.1260,0.5923,0.5317,-0.4680,-0.3839
279,0.0,0.0,0.0,0.0,0.0,0.0,0.0910,0.9968,0.1289,0.5938,0.5304,-0.4669,-0.3848
280,0.0,0.0,0.0,0.0,0.0,0.0,0.0901,1.0002,0.1317,0.5941,0.5305,-0.4664,-0.3848
281,0.0,0.0,0.0,0.0,0.0,0.0,0.0997,0.9757,0.1160,0.5943,0.5305,-0.4662,-0.3847
282,0.0,0.0,0.0,0.0,0.0,0.0,0.1034,0.9495,0.0998,0.5942,0.5306,-0.4668,-0.3841
283,0.0,0.0,0.0,0.0,0.0,0.0,0.0902,0.9689,0.1023,0.5933,0.5322,-0.4676,-0.3822
284,0.0,0.0,0.0,0.0,0.0,0.0,0.0833,1.0007,0.1143,0.5925,0.5332,-0.4682,-0.3812
285,0.0,0.0,0.0,0.0,0.0,0.0,0.0802,1.0133,0.1233,0.5926,0.5322,-0.4685,-0.3822
286,0.0,0.0,0.0,0.0,0.0,0.0,0.0890,1.0135,0.1257,0.5928,0.5311,-0.4685,-0.3833
287,0.0,0.0,0.0,0.0,0.0,0.0,0.0939,0.9953,0.1256,0.5928,0.5308,-0.4686,-0.3836
288,0.0,0.0,0.0,0.0,0.0,0.0,0.0937,0.9871,0.1217,0.5928,0.5310,-0.4686,-0.3833
289,0.0,0.0,0.0,0.0,0.0,0.0,0.0926,0.9847,0.1198,0.5930,0.5310,-0.4685,-0.3833
290,0.0,0.0,0.0,0.0,0.0,0.0,0.0913,0.9891,0.1227,0.5933,0.5306,-0.4683,-0.3835
291,0.0,0.0,0.0,0.0,0.0,0.0,0.0904,0.9924,0.1269,0.5938,0.5305,-0.4681,-0.3833
292,0.0,0.0,0.0,0.0,0.0,0.0,0.0889,0.9925,0.1274,0.5939,0.5309,-0.4679,-0.3827
293,0.0,0.0,0.0,0.0,0.0,0.0,0.0931,0.9865,0.1278,0.5938,0.5316,-0.4679,-0.3820
294,0.0,0.0,0.0,0.0,0.0,0.0,0.0988,0.9776,0.1235,0.5941,0.5315,-0.4680,-0.3815
295,0.0,0.0,0.0,0.0,0.0,0.0,0.0998,0.9621,0.1149,0.5940,0.5322,-0.4685,-0.3800
296,0.0,0.0,0.0,0.0,0.0,0.0,0.1027,0.9591,0.1116,0.5940,0.5326,-0.4694,-0.3784
297,0.0,0.0,0.0,0.0,0.0,0.0,0.1116,0.9623,0.1102,0.5945,0.5319,-0.4705,-0.3773
298,0.0,0.0,0.0,0.0,0.0,0.0,0.1073,0.9663,0.1074,0.5941,0.5326,-0.4722,-0.3748
299,0.0,0.0,0.0,0.0,0.0,0.0,0.1138,0.9871,0.1090,0.5939,0.5329,-0.4738,-0.3726
300,0.0,0.0,0.0,0.0,0.0,0.0,0.1125,0.9940,0.1105,0.5944,0.5327,-0.4750,-0.3706
301,0.0,0.0,0.0,0.0,0.0,0.0,0.1160,0.9992,0.1120,0.5949,0.5327,-0.4762,-0.3682
302,0.0,0.0,0.0,0.0,0.0,0.0,0.1180,0.9982,0.1143,0.5957,0.5319,-0.4774,-0.3666
303,0.0,0.0,0.0,0.0,0.0,0.0,0.1180,0.9987,0.1129,0.5968,0.5307,-0.4783,-0.3651
304,0.0,0.0,0.0,0.0,0.0,0.0,0.1205,1.0001,0.1096,0.5980,0.5297,-0.4791,-0.3637
305,0.0,0.0,0.0,0.0,0.0,0.0,0.1248,0.9966,0.1072,0.5988,0.5292,-0.4799,-0.3619
306,0.0,0.0,0.0,0.0,0.0,0.0,0.1300,0.9916,0.1030,0.5996,0.5290,-0.4805,-0.3602
307,0.0,0.0,0.0,0.0,0.0,0.0,0.1357,0.9841,0.1015,0.6005,0.5287,-0.4810,-0.3585
308,0.0,0.0,0.0,0.0,0.0,0.0,0.1385,0.9802,0.0986,0.6011,0.5289,-0.4816,-0.3564
309,0.0,0.0,0.0,0.0,0.0,0.0,0.1395,0.9773,0.0953,0.6016,0.5290,-0.4821,-0.3546
310,0.0,0.0,0.0,0.0,0.0,0.0,0.1409,0.9768,0.0944,0.6022,0.5287,-0.4827,-0.3532
311,0.0,0.0,0.0,0.0,0.0,0.0,0.1397,0.9861,0.0921,0.6025,0.5288,-0.4833,-0.3519
312,0.0,0.0,0.0,0.0,0.0,0.0,0.1420,0.9968,0.0917,0.6029,0.5288,-0.4835,-0.3508
313,0.0,0.0,0.0,0.0,0.0,0.0,0.1446,1.0031,0.0922,0.6032,0.5293,-0.4836,-0.3494
314,0.0,0.0,0.0,0.0,0.0,0.0,0.1442,1.0070,0.0927,0.6037,0.5300,-0.4836,-0.3477
315,0.0,0.0,0.0,0.0,0.0,0.0,0.1423,1.0080,0.0927,0.6044,0.5302,-0.4833,-0.3465
316,0.0,0.0,0.0,0.0,0.0,0.0,0.1432,1.0051,0.0913,0.6054,0.5298,-0.4827,-0.3461
317,0.0,0.0,0.0,0.0,0.0,0.0,0.1435,1.0002,0.0903,0.6062,0.5299,-0.4821,-0.3455
318,0.0,0.0,0.0,0.0,0.0,0.0,0.1454,0.9957,0.0931,0.6067,0.5305,-0.4814,-0.3446
319,0.0,0.0,0.0,0.0,0.0,0.0,0.1458,0.9932,0.0950,0.6075,0.5304,-0.4806,-0.3444
320,0.0,0.0,0.0,0.0,0.0,0.0,0.1452,0.9898,0.0954,0.6081,0.5307,-0.4799,-0.3439
321,0.0,0.0,0.0,0.0,0.0,0.0,0.1451,0.9864,0.0954,0.6085,0.5312,-0.4792,-0.3434
322,0.0,0.0,0.0,0.0,0.0,0.0,0.1465,0.9825,0.0939,0.6088,0.5316,-0.4785,-0.3431
323,0.0,0.0,0.0,0.0,0.0,0.0,0.1507,0.9750,0.0944,0.6094,0.5315,-0.4777,-0.3433
324,0.0,0.0,0.0,0.0,0.0,0.0,0.1539,0.9700,0.0934,0.6101,0.5309,-0.4771,-0.3440
325,0.0,0.0,0.0,0.0,0.0,0.0,0.1549,0.9700,0.0939,0.6102,0.5308,-0.4770,-0.3440
326,0.0,0.0,0.0,0.0,0.0,0.0,0.1567,0.9651,0.0910,0.6100,0.5312,-0.4772,-0.3436
327,0.0,0.0,0.0,0.0,0.0,0.0,0.1635,0.9625,0.0910,0.6101,0.5314,-0.4776,-0.3425
328,0.0,0.0,0.0,0.0,0.0,0.0,0.1641,0.9668,0.0910,0.6098,0.5319,-0.4784,-0.3411
329,0.0,0.0,0.0,0.0,0.0,0.0,0.1666,0.9658,0.0915,0.6100,0.5310,-0.4794,-0.3408
330,0.0,0.0,0.0,0.0,0.0,0.0,0.1696,0.9711,0.0915,0.6105,0.5295,-0.4805,-0.3406
331,0.0,0.0,0.0,0.0,0.0,0.0,0.1738,0.9782,0.0921,0.6105,0.5295,-0.4817,-0.3390
332,0.0,0.0,0.0,0.0,0.0,0.0,0.1768,0.9830,0.0944,0.6103,0.5296,-0.4830,-0.3373
333,0.0,0.0,0.0,0.0,0.0,0.0,0.1799,0.9883,0.0959,0.6104,0.5294,-0.4840,-0.3361
334,0.0,0.0,0.0,0.0,0.0,0.0,0.1829,0.9916,0.0964,0.6109,0.5282,-0.4847,-0.3360
335,0.0,0.0,0.0,0.0,0.0,0.0,0.1890,0.9977,0.0983,0.6115,0.5269,-0.4853,-0.3361
336,0.0,0.0,0.0,0.0,0.0,0.0,0.1914,0.9976,0.0993,0.6116,0.5272,-0.4858,-0.3346
337,0.0,0.0,0.0,0.0,0.0,0.0,0.1932,0.9898,0.0978,0.6117,0.5278,-0.4861,-0.3330
338,0.0,0.0,0.0,0.0,0.0,0.0,0.1905,0.9816,0.0944,0.6125,0.5273,-0.4860,-0.3324
339,0.0,0.0,0.0,0.0,0.0,0.0,0.1847,0.9837,0.0949,0.6130,0.5270,-0.4860,-0.3322
340,0.0,0.0,0.0,0.0,0.0,0.0,0.1891,0.9860,0.0964,0.6134,0.5267,-0.4855,-0.3325
341,0.0,0.0,0.0,0.0,0.0,0.0,0.1929,0.9815,0.0954,0.6140,0.5264,-0.4850,-0.3327
342,0.0,0.0,0.0,0.0,0.0,0.0,0.1990,0.9721,0.0939,0.6142,0.5264,-0.4847,-0.3326
343,0.0,0.0,0.0,0.0,0.0,0.0,0.2015,0.9715,0.0925,0.6142,0.5266,-0.4848,-0.3322
344,0.0,0.0,0.0,0.0,0.0,0.0,0.1947,0.9727,0.0930,0.6141,0.5266,-0.4850,-0.3320
345,0.0,0.0,0.0,0.0,0.0,0.0,0.1871,0.9827,0.0963,0.6142,0.5260,-0.4850,-0.3329
346,0.0,0.0,0.0,0.0,0.0,0.0,0.1856,1.0012,0.1031,0.6146,0.5254,-0.4844,-0.3341
347,0.0,0.0,0.0,0.0,0.0,0.0,0.1839,1.0075,0.1055,0.6150,0.5250,-0.4834,-0.3353
348,0.0,0.0,0.0,0.0,0.0,0.0,0.1856,0.9983,0.0998,0.6149,0.5250,-0.4825,-0.3369
349,0.0,0.0,0.0,0.0,0.0,0.0,0.1936,0.9888,0.0987,0.6148,0.5247,-0.4819,-0.3384
350,0.0,0.0,0.0,0.0,0.0,0.0,0.1909,0.9801,0.0982,0.6152,0.5243,-0.4809,-0.3397
351,0.0,0.0,0.0,0.0,0.0,0.0,0.1894,0.9762,0.0991,0.6157,0.5239,-0.4800,-0.3407
352,0.0,0.0,0.0,0.0,0.0,0.0,0.1864,0.9753,0.1024,0.6168,0.5226,-0.4789,-0.3421
353,0.0,0.0,0.0,0.0,0.0,0.0,0.1813,0.9686,0.1014,0.6174,0.5219,-0.4782,-0.3432
354,0.0,0.0,0.0,0.0,0.0,0.0,0.1852,0.9679,0.1066,0.6178,0.5214,-0.4777,-0.3439
355,0.0,0.0,0.0,0.0,0.0,0.0,0.1883,0.9731,0.1113,0.6192,0.5197,-0.4769,-0.3450
356,0.0,0.0,0.0,0.0,0.0,0.0,0.1850,0.9771,0.1113,0.6204,0.5181,-0.4761,-0.3463
357,0.0,0.0,0.0,0.0,0.0,0.0,0.1888,0.9740,0.1160,0.6210,0.5172,-0.4757,-0.3473
358,0.0,0.0,0.0,0.0,0.0,0.0,0.1878,0.9741,0.1151,0.6216,0.5163,-0.4752,-0.3481
359,0.0,0.0,0.0,0.0,0.0,0.0,0.1842,0.9674,0.1099,0.6217,0.5167,-0.4750,-0.3477
360,0.0,0.0,0.0,0.0,0.0,0.0,0.1908,0.9759,0.1156,0.6215,0.5176,-0.4748,-0.3470
361,0.0,0.0,0.0,0.0,0.0,0.0,0.1875,0.9818,0.1170,0.6215,0.5179,-0.4745,-0.3469
362,0.0,0.0,0.0,0.0,0.0,0.0,0.1847,0.9853,0.1204,0.6226,0.5168,-0.4734,-0.3481
363,0.0,0.0,0.0,0.0,0.0,0.0,0.1842,0.9873,0.1208,0.6226,0.5172,-0.4729,-0.3483
364,0.0,0.0,0.0,0.0,0.0,0.0,0.1839,0.9737,0.1160,0.6228,0.5169,-0.4721,-0.3493
365,0.0,0.0,0.0,0.0,0.0,0.0,0.1847,0.9692,0.1174,0.6228,0.5163,-0.4715,-0.3510
366,0.0,0.0,0.0,0.0,0.0,0.0,0.1822,0.9658,0.1221,0.6231,0.5158,-0.4708,-0.3523
367,0.0,0.0,0.0,0.0,0.0,0.0,0.1773,0.9650,0.1235,0.6231,0.5154,-0.4704,-0.3533
368,0.0,0.0,0.0,0.0,0.0,0.0,0.1761,0.9601,0.1253,0.6230,0.5151,-0.4702,-0.3542
369,0.0,0.0,0.0,0.0,0.0,0.0,0.1708,0.9607,0.1272,0.6228,0.5154,-0.4700,-0.3545
370,0.0,0.0,0.0,0.0,0.0,0.0,0.1729,0.9660,0.1287,0.6223,0.5160,-0.4698,-0.3546
371,0.0,0.0,0.0,0.0,0.0,0.0,0.1791,0.9619,0.1286,0.6224,0.5155,-0.4697,-0.3554
372,0.0,0.0,0.0,0.0,0.0,0.0,0.1851,0.9472,0.1219,0.6220,0.5151,-0.4701,-0.3560
373,0.0,0.0,0.0,0.0,0.0,0.0,0.1918,0.9402,0.1167,0.6213,0.5158,-0.4708,-0.3554
374,0.0,0.0,0.0,0.0,0.0,0.0,0.1993,0.9483,0.1154,0.6209,0.5159,-0.4716,-0.3548
375,0.0,0.0,0.0,0.0,0.0,0.0,0.2082,0.9694,0.1207,0.6208,0.5156,-0.4724,-0.3544
376,0.0,0.0,0.0,0.0,0.0,0.0,0.2091,1.0011,0.1247,0.6207,0.5156,-0.4733,-0.3534
377,0.0,0.0,0.0,0.0,0.0,0.0,0.2107,1.0249,0.1282,0.6206,0.5157,-0.4740,-0.3524
378,0.0,0.0,0.0,0.0,0.0,0.0,0.2028,1.0222,0.1334,0.6208,0.5157,-0.4742,-0.3519
379,0.0,0.0,0.0,0.0,0.0,0.0,0.1961,1.0107,0.1314,0.6213,0.5151,-0.4737,-0.3526
380,0.0,0.0,0.0,0.0,0.0,0.0,0.1993,1.0003,0.1323,0.6217,0.5147,-0.4730,-0.3533
381,0.0,0.0,0.0,0.0,0.0,0.0,0.1971,0.9921,0.1336,0.6221,0.5143,-0.4720,-0.3545
382,0.0,0.0,0.0,0.0,0.0,0.0,0.1967,0.9764,0.1330,0.6228,0.5138,-0.4706,-0.3559
383,0.0,0.0,0.0,0.0,0.0,0.0,0.1944,0.9672,0.1334,0.6236,0.5133,-0.4691,-0.3572
384,0.0,0.0,0.0,0.0,0.0,0.0,0.1808,0.9695,0.1362,0.6238,0.5140,-0.4680,-0.3573
385,0.0,0.0,0.0,0.0,0.0,0.0,0.1769,0.9711,0.1391,0.6237,0.5145,-0.4673,-0.3578
386,0.0,0.0,0.0,0.0,0.0,0.0,0.1768,0.9677,0.1381,0.6241,0.5142,-0.4663,-0.3587
387,0.0,0.0,0.0,0.0,0.0,0.0,0.1773,0.9658,0.1334,0.6242,0.5145,-0.4656,-0.3590
388,0.0,0.0,0.0,0.0,0.0,0.0,0.1783,0.9668,0.1263,0.6241,0.5151,-0.4650,-0.3592
389,0.0,0.0,0.0,0.0,0.0,0.0,0.1871,0.9676,0.1207,0.6238,0.5158,-0.4645,-0.3592
390,0.0,0.0,0.0,0.0,0.0,0.0,0.1880,0.9638,0.1169,0.6232,0.5174,-0.4642,-0.3584
391,0.0,0.0,0.0,0.0,0.0,0.0,0.1882,0.9706,0.1160,0.6222,0.5198,-0.4640,-0.3569
392,0.0,0.0,0.0,0.0,0.0,0.0,0.1925,0.9836,0.1222,0.6217,0.5215,-0.4636,-0.3558
393,0.0,0.0,0.0,0.0,0.0,0.0,0.1993,1.0008,0.1304,0.6216,0.5229,-0.4630,-0.3547
394,0.0,0.0,0.0,0.0,0.0,0.0,0.2022,1.0191,0.1404,0.6221,0.5238,-0.4618,-0.3539
395,0.0,0.0,0.0,0.0,0.0,0.0,0.2039,1.0244,0.1419,0.6233,0.5241,-0.4601,-0.3538
396,0.0,0.0,0.0,0.0,0.0,0.0,0.2091,1.0204,0.1404,0.6250,0.5241,-0.4578,-0.3538
397,0.0,0.0,0.0,0.0,0.0,0.0,0.2081,1.0020,0.1318,0.6275,0.5241,-0.4547,-0.3533
398,0.0,0.0,0.0,0.0,0.0,0.0,0.2003,0.9843,0.1260,0.6300,0.5250,-0.4514,-0.3517
399,0.0,0.0,0.0,0.0,0.0,0.0,0.1876,0.9671,0.1230,0.6329,0.5257,-0.4480,-0.3499
400,0.0,0.0,0.0,0.0,0.0,0.0,0.1706,0.9554,0.1243,0.6359,0.5266,-0.4446,-0.3474
401,0.0,0.0,0.0,0.0,0.0,0.0,0.1480,0.9506,0.1281,0.6387,0.5281,-0.4412,-0.3444
402,0.0,0.0,0.0,0.0,0.0,0.0,0.1303,0.9511,0.1318,0.6414,0.5291,-0.4378,-0.3421
403,0.0,0.0,0.0,0.0,0.0,0.0,0.1204,0.9450,0.1346,0.6437,0.5303,-0.4346,-0.3399
404,0.0,0.0,0.0,0.0,0.0,0.0,0.1225,0.9346,0.1378,0.6455,0.5316,-0.4322,-0.3375
405,0.0,0.0,0.0,0.0,0.0,0.0,0.1253,0.9296,0.1425,0.6468,0.5326,-0.4307,-0.3354
406,0.0,0.0,0.0,0.0,0.0,0.0,0.1338,0.9361,0.1472,0.6473,0.5341,-0.4302,-0.3326
407,0.0,0.0,0.0,0.0,0.0,0.0,0.1410,0.9480,0.1544,0.6468,0.5365,-0.4305,-0.3294
408,0.0,0.0,0.0,0.0,0.0,0.0,0.1464,0.9653,0.1644,0.6466,0.5374,-0.4309,-0.3278
409,0.0,0.0,0.0,0.0,0.0,0.0,0.1475,0.9890,0.1731,0.6467,0.5370,-0.4312,-0.3276
410,0.0,0.0,0.0,0.0,0.0,0.0,0.1495,1.0254,0.1880,0.6458,0.5380,-0.4319,-0.3270
411,0.0,0.0,0.0,0.0,0.0,0.0,0.1605,1.0522,0.2047,0.6458,0.5375,-0.4316,-0.3282
412,0.0,0.0,0.0,0.0,0.0,0.0,0.1696,1.0654,0.2114,0.6469,0.5351,-0.4306,-0.3313
413,0.0,0.0,0.0,0.0,0.0,0.0,0.1798,1.0613,0.2081,0.6481,0.5329,-0.4291,-0.3346
414,0.0,0.0,0.0,0.0,0.0,0.0,0.1831,1.0194,0.1903,0.6497,0.5300,-0.4271,-0.3385
415,0.0,0.0,0.0,0.0,0.0,0.0,0.1809,0.9747,0.1805,0.6519,0.5261,-0.4246,-0.3433
416,0.0,0.0,0.0,0.0,0.0,0.0,0.1674,0.9673,0.1837,0.6542,0.5225,-0.4221,-0.3476
417,0.0,0.0,0.0,0.0,0.0,0.0,0.1644,0.9652,0.1993,0.6577,0.5172,-0.4194,-0.3523
418,0.0,0.0,0.0,0.0,0.0,0.0,0.1676,0.9567,0.2058,0.6614,0.5110,-0.4170,-0.3572
419,0.0,0.0,0.0,0.0,0.0,0.0,0.1574,0.9269,0.2234,0.6644,0.5054,-0.4161,-0.3606
420,0.0,0.0,0.0,0.0,0.0,0.0,0.1534,0.9410,0.2348,0.6678,0.4990,-0.4158,-0.3636
421,0.0,0.0,0.0,0.0,0.0,0.0,0.1535,0.9291,0.2498,0.6703,0.4935,-0.4167,-0.3654
422,0.0,0.0,0.0,0.0,0.0,0.0,0.1627,0.8896,0.2547,0.6725,0.4891,-0.4178,-0.3660
423,0.0,0.0,0.0,0.0,0.0,0.0,0.1819,0.8927,0.2745,0.6749,0.4849,-0.4186,-0.3663
424,0.0,0.0,0.0,0.0,0.0,0.0,0.1917,0.9121,0.2902,0.6763,0.4823,-0.4194,-0.3663
425,0.0,0.0,0.0,0.0,0.0,0.0,0.2080,0.9189,0.2973,0.6773,0.4793,-0.4203,-0.3671
426,0.0,0.0,0.0,0.0,0.0,0.0,0.2146,0.9089,0.3005,0.6786,0.4768,-0.4206,-0.3679
427,0.0,0.0,0.0,0.0,0.0,0.0,0.2319,0.9319,0.2941,0.6790,0.4761,-0.4209,-0.3677
428,0.0,0.0,0.0,0.0,0.0,0.0,0.2351,0.9227,0.2842,0.6789,0.4740,-0.4221,-0.3691
429,0.0,0.0,0.0,0.0,0.0,0.0,0.2277,0.9219,0.2818,0.6785,0.4723,-0.4237,-0.3701
430,0.0,0.0,0.0,0.0,0.0,0.0,0.2152,0.9472,0.2858,0.6779,0.4722,-0.4248,-0.3701
431,0.0,0.0,0.0,0.0,0.0,0.0,0.2027,0.9370,0.2739,0.6773,0.4728,-0.4251,-0.3701
432,0.0,0.0,0.0,0.0,0.0,0.0,0.1972,0.9348,0.2664,0.6759,0.4744,-0.4260,-0.3696
433,0.0,0.0,0.0,0.0,0.0,0.0,0.1833,0.9425,0.2678,0.6744,0.4766,-0.4265,-0.3689
434,0.0,0.0,0.0,0.0,0.0,0.0,0.1691,0.9420,0.2640,0.6729,0.4792,-0.4266,-0.3681
435,0.0,0.0,0.0,0.0,0.0,0.0,0.1651,0.9393,0.2579,0.6715,0.4810,-0.4268,-0.3681
436,0.0,0.0,0.0,0.0,0.0,0.0,0.1598,0.9444,0.2565,0.6701,0.4824,-0.4271,-0.3686
437,0.0,0.0,0.0,0.0,0.0,0.0,0.1568,0.9412,0.2504,0.6683,0.4843,-0.4274,-0.3689
438,0.0,0.0,0.0,0.0,0.0,0.0,0.1515,0.9268,0.2404,0.6658,0.4875,-0.4283,-0.3683
439,0.0,0.0,0.0,0.0,0.0,0.0,0.1568,0.9399,0.2395,0.6630,0.4915,-0.4292,-0.3669
440,0.0,0.0,0.0,0.0,0.0,0.0,0.1567,0.9371,0.2259,0.6601,0.4950,-0.4305,-0.3659
441,0.0,0.0,0.0,0.0,0.0,0.0,0.1619,0.9463,0.2222,0.6572,0.4981,-0.4320,-0.3651
442,0.0,0.0,0.0,0.0,0.0,0.0,0.1647,0.9595,0.2152,0.6546,0.5005,-0.4335,-0.3648
443,0.0,0.0,0.0,0.0,0.0,0.0,0.1716,0.9769,0.2163,0.6521,0.5026,-0.4352,-0.3643
444,0.0,0.0,0.0,0.0,0.0,0.0,0.1733,1.0052,0.2161,0.6492,0.5059,-0.4369,-0.3630
445,0.0,0.0,0.0,0.0,0.0,0.0,0.1694,1.0229,0.2120,0.6466,0.5094,-0.4379,-0.3613
446,0.0,0.0,0.0,0.0,0.0,0.0,0.1716,1.0314,0.1998,0.6448,0.5119,-0.4381,-0.3610
447,0.0,0.0,0.0,0.0,0.0,0.0,0.1732,1.0155,0.1818,0.6438,0.5130,-0.4377,-0.3617
448,0.0,0.0,0.0,0.0,0.0,0.0,0.1722,0.9976,0.1722,0.6433,0.5132,-0.4371,-0.3630
449,0.0,0.0,0.0,0.0,0.0,0.0,0.1693,0.9977,0.1703,0.6432,0.5128,-0.4365,-0.3645
450,0.0,0.0,0.0,0.0,0.0,0.0,0.1577,0.9868,0.1735,0.6431,0.5127,-0.4358,-0.3655
451,0.0,0.0,0.0,0.0,0.0,0.0,0.2785,0.9801,0.1825,0.6437,0.5111,-0.4361,-0.3664
452,0.0,0.0,0.0,0.0,0.0,0.0,0.1543,0.9710,0.1880,0.6434,0.5115,-0.4352,-0.3674
453,0.0,0.0,0.0,0.0,0.0,0.0,0.1517,0.9481,0.1925,0.6435,0.5119,-0.4341,-0.3680
454,0.0,0.0,0.0,0.0,0.0,0.0,0.1616,0.9511,0.1987,0.6434,0.5114,-0.4335,-0.3697
455,0.0,0.0,0.0,0.0,0.0,0.0,0.1749,0.9204,0.2013,0.6428,0.5114,-0.4332,-0.3709
456,0.0,0.0,0.0,0.0,0.0,0.0,0.1898,0.9283,0.1966,0.6414,0.5126,-0.4340,-0.3710
457,0.0,0.0,0.0,0.0,0.0,0.0,0.1865,0.9322,0.2028,0.6401,0.5132,-0.4354,-0.3706
458,0.0,0.0,0.0,0.0,0.0,0.0,0.1800,0.9801,0.2154,0.6392,0.5141,-0.4362,-0.3700
459,0.0,0.0,0.0,0.0,0.0,0.0,0.1813,0.9915,0.1981,0.6365,0.5181,-0.4376,-0.3675
460,0.0,0.0,0.0,0.0,0.0,0.0,0.1971,0.9595,0.1846,0.6336,0.5225,-0.4393,-0.3641
461,0.0,0.0,0.0,0.0,0.0,0.0,0.1890,0.9865,0.1900,0.6319,0.5259,-0.4399,-0.3615
462,0.0,0.0,0.0,0.0,0.0,0.0,0.1950,0.9880,0.1759,0.6298,0.5300,-0.4404,-0.3584
463,0.0,0.0,0.0,0.0,0.0,0.0,0.2083,0.9400,0.1628,0.6288,0.5333,-0.4405,-0.3552
464,0.0,0.0,0.0,0.0,0.0,0.0,0.1877,0.9534,0.1531,0.6279,0.5365,-0.4406,-0.3518
465,0.0,0.0,0.0,0.0,0.0,0.0,0.2029,0.9375,0.1412,0.6274,0.5388,-0.4413,-0.3483
466,0.0,0.0,0.0,0.0,0.0,0.0,0.1924,0.9107,0.1278,0.6275,0.5409,-0.4421,-0.3438
467,0.0,0.0,0.0,0.0,0.0,0.0,0.1757,0.9283,0.1312,0.6282,0.5430,-0.4424,-0.3387
468,0.0,0.0,0.0,0.0,0.0,0.0,0.1614,0.9604,0.1361,0.6297,0.5441,-0.4425,-0.3342
469,0.0,0.0,0.0,0.0,0.0,0.0,0.1639,0.9793,0.1391,0.6313,0.5448,-0.4425,-0.3299
470,0.0,0.0,0.0,0.0,0.0,0.0,0.1621,0.9662,0.1371,0.6327,0.5458,-0.4425,-0.3256
471,0.0,0.0,0.0,0.0,0.0,0.0,0.1610,0.9794,0.1387,0.6347,0.5457,-0.4422,-0.3221
472,0.0,0.0,0.0,0.0,0.0,0.0,0.1718,1.0336,0.1480,0.6373,0.5444,-0.4416,-0.3200
473,0.0,0.0,0.0,0.0,0.0,0.0,0.1754,1.0238,0.1418,0.6393,0.5436,-0.4416,-0.3175
474,0.0,0.0,0.0,0.0,0.0,0.0,0.1802,1.0203,0.1385,0.6407,0.5430,-0.4420,-0.3151
475,0.0,0.0,0.0,0.0,0.0,0.0,0.1848,1.0071,0.1347,0.6421,0.5422,-0.4422,-0.3133
476,0.0,0.0,0.0,0.0,0.0,0.0,0.1980,0.9902,0.1279,0.6429,0.5420,-0.4429,-0.3111
477,0.0,0.0,0.0,0.0,0.0,0.0,0.1974,0.9870,0.1411,0.6438,0.5418,-0.4434,-0.3088
478,0.0,0.0,0.0,0.0,0.0,0.0,0.1890,0.9999,0.1497,0.6454,0.5406,-0.4432,-0.3079
479,0.0,0.0,0.0,0.0,0.0,0.0,0.1891,0.9886,0.1491,0.6460,0.5399,-0.4433,-0.3077
480,0.0,0.0,0.0,0.0,0.0,0.0,0.1981,0.9781,0.1523,0.6470,0.5389,-0.4431,-0.3076
481,0.0,0.0,0.0,0.0,0.0,0.0,0.2040,0.9613,0.1479,0.6481,0.5370,-0.4431,-0.3086
482,0.0,0.0,0.0,0.0,0.0,0.0,0.2111,0.9523,0.1502,0.6485,0.5360,-0.4437,-0.3087
483,0.0,0.0,0.0,0.0,0.0,0.0,0.2117,0.9542,0.1540,0.6488,0.5347,-0.4445,-0.3092
484,0.0,0.0,0.0,0.0,0.0,0.0,0.2140,0.9492,0.1549,0.6497,0.5325,-0.4452,-0.3100
485,0.0,0.0,0.0,0.0,0.0,0.0,0.2124,0.9619,0.1574,0.6504,0.5306,-0.4459,-0.3109
486,0.0,0.0,0.0,0.0,0.0,0.0,0.2083,0.9742,0.1603,0.6506,0.5293,-0.4465,-0.3119
487,0.0,0.0,0.0,0.0,0.0,0.0,0.2050,0.9792,0.1594,0.6504,0.5290,-0.4469,-0.3122
488,0.0,0.0,0.0,0.0,0.0,0.0,0.2037,0.9831,0.1599,0.6499,0.5296,-0.4470,-0.3120
489,0.0,0.0,0.0,0.0,0.0,0.0,0.2060,0.9778,0.1556,0.6494,0.5301,-0.4471,-0.3122
490,0.0,0.0,0.0,0.0,0.0,0.0,0.2101,0.9664,0.1551,0.6488,0.5308,-0.4471,-0.3120
491,0.0,0.0,0.0,0.0,0.0,0.0,0.2153,0.9604,0.1560,0.6499,0.5302,-0.4464,-0.3119
492,0.0,0.0,0.0,0.0,0.0,0.0,0.1918,0.9793,0.1476,0.6487,0.5317,-0.4471,-0.3108
493,0.0,0.0,0.0,0.0,0.0,0.0,0.1974,0.9698,0.1522,0.6474,0.5326,-0.4480,-0.3108
494,0.0,0.0,0.0,0.0,0.0,0.0,0.2091,0.9683,0.1584,0.6474,0.5325,-0.4478,-0.3111
495,0.0,0.0,0.0,0.0,0.0,0.0,0.1964,0.9689,0.1494,0.6475,0.5319,-0.4475,-0.3123
496,0.0,0.0,0.0,0.0,0.0,0.0,0.2021,0.9624,0.1465,0.6473,0.5318,-0.4475,-0.3129
497,0.0,0.0,0.0,0.0,0.0,0.0,0.2055,0.9594,0.1437,0.6468,0.5320,-0.4478,-0.3132
498,0.0,0.0,0.0,0.0,0.0,0.0,0.1964,0.9665,0.1437,0.6463,0.5321,-0.4480,-0.3139
499,0.0,0.0,0.0,0.0,0.0,0.0,0.1989,0.9693,0.1452,0.6459,0.5324,-0.4480,-0.3141
500,0.0,0.0,0.0,0.0,0.0,0.0,0.1971,0.9758,0.1424,0.6455,0.5323,-0.4481,-0.3148
501,0.0,0.0,0.0,0.0,0.0,0.0,0.2039,0.9741,0.1410,0.6455,0.5320,-0.4479,-0.3158
502,0.0,0.0,0.0,0.0,0.0,0.0,0.2061,0.9650,0.1306,0.6450,0.5322,-0.4480,-0.3162
503,0.0,0.0,0.0,0.0,0.0,0.0,0.2058,0.9689,0.1301,0.6439,0.5328,-0.4486,-0.3166
504,0.0,0.0,0.0,0.0,0.0,0.0,0.2129,0.9779,0.1321,0.6433,0.5327,-0.4490,-0.3174
505,0.0,0.0,0.0,0.0,0.0,0.0,0.2088,0.9712,0.1311,0.6431,0.5320,-0.4491,-0.3188
506,0.0,0.0,0.0,0.0,0.0,0.0,0.2067,0.9869,0.1336,0.6424,0.5328,-0.4491,-0.3190
507,0.0,0.0,0.0,0.0,0.0,0.0,0.2020,0.9744,0.1288,0.6413,0.5343,-0.4491,-0.3187
508,0.0,0.0,0.0,0.0,0.0,0.0,0.2013,0.9856,0.1336,0.6409,0.5350,-0.4484,-0.3192
509,0.0,0.0,0.0,0.0,0.0,0.0,0.1988,0.9998,0.1346,0.6403,0.5360,-0.4476,-0.3199
510,0.0,0.0,0.0,0.0,0.0,0.0,0.1885,0.9806,0.1311,0.6396,0.5371,-0.4469,-0.3205
511,0.0,0.0,0.0,0.0,0.0,0.0,0.1894,0.9971,0.1407,0.6393,0.5378,-0.4456,-0.3216
512,0.0,0.0,0.0,0.0,0.0,0.0,0.1897,0.9893,0.1359,0.6386,0.5393,-0.4442,-0.3227
513,0.0,0.0,0.0,0.0,0.0,0.0,0.1852,0.9521,0.1201,0.6370,0.5409,-0.4434,-0.3242
514,0.0,0.0,0.0,0.0,0.0,0.0,0.1986,0.9755,0.1278,0.6358,0.5420,-0.4425,-0.3258
515,0.0,0.0,0.0,0.0,0.0,0.0,0.2074,0.9579,0.1103,0.6348,0.5431,-0.4422,-0.3265
516,0.0,0.0,0.0,0.0,0.0,0.0,0.2125,0.9475,0.1102,0.6339,0.5435,-0.4426,-0.3269
517,0.0,0.0,0.0,0.0,0.0,0.0,0.2154,0.9634,0.1169,0.6332,0.5442,-0.4430,-0.3266
518,0.0,0.0,0.0,0.0,0.0,0.0,0.2085,0.9807,0.1217,0.6332,0.5436,-0.4431,-0.3275
519,0.0,0.0,0.0,0.0,0.0,0.0,0.2109,0.9946,0.1303,0.6338,0.5422,-0.4430,-0.3288
520,0.0,0.0,0.0,0.0,0.0,0.0,0.2075,0.9801,0.1274,0.6343,0.5411,-0.4428,-0.3299
521,0.0,0.0,0.0,0.0,0.0,0.0,0.2047,0.9656,0.1240,0.6349,0.5394,-0.4426,-0.3316
522,0.0,0.0,0.0,0.0,0.0,0.0,0.2010,0.9579,0.1249,0.6355,0.5384,-0.4424,-0.3324
523,0.0,0.0,0.0,0.0,0.0,0.0,0.1926,0.9732,0.1325,0.6353,0.5385,-0.4423,-0.3327
524,0.0,0.0,0.0,0.0,0.0,0.0,0.1891,0.9863,0.1420,0.6355,0.5377,-0.4423,-0.3336
525,0.0,0.0,0.0,0.0,0.0,0.0,0.1909,0.9988,0.1497,0.6363,0.5358,-0.4420,-0.3356
526,0.0,0.0,0.0,0.0,0.0,0.0,0.1858,0.9737,0.1400,0.6369,0.5349,-0.4413,-0.3369
527,0.0,0.0,0.0,0.0,0.0,0.0,0.1924,0.9653,0.1371,0.6368,0.5350,-0.4410,-0.3373
528,0.0,0.0,0.0,0.0,0.0,0.0,0.1893,0.9751,0.1424,0.6372,0.5347,-0.4404,-0.3379
529,0.0,0.0,0.0,0.0,0.0,0.0,0.1838,0.9562,0.1371,0.6374,0.5340,-0.4401,-0.3388
530,0.0,0.0,0.0,0.0,0.0,0.0,0.1893,0.9595,0.1390,0.6373,0.5339,-0.4404,-0.3390
531,0.0,0.0,0.0,0.0,0.0,0.0,0.1784,0.9549,0.1399,0.6372,0.5337,-0.4406,-0.3391
532,0.0,0.0,0.0,0.0,0.0,0.0,0.1683,0.9620,0.1456,0.6365,0.5345,-0.4409,-0.3387
533,0.0,0.0,0.0,0.0,0.0,0.0,0.1641,0.9693,0.1518,0.6360,0.5352,-0.4408,-0.3388
534,0.0,0.0,0.0,0.0,0.0,0.0,0.1706,0.9745,0.1513,0.6357,0.5349,-0.4406,-0.3400
535,0.0,0.0,0.0,0.0,0.0,0.0,0.1725,0.9701,0.1485,0.6350,0.5350,-0.4406,-0.3413
536,0.0,0.0,0.0,0.0,0.0,0.0,0.1695,0.9526,0.1483,0.6343,0.5348,-0.4408,-0.3427
537,0.0,0.0,0.0,0.0,0.0,0.0,0.1684,0.9633,0.1512,0.6335,0.5354,-0.4406,-0.3433
538,0.0,0.0,0.0,0.0,0.0,0.0,0.1666,0.9714,0.1409,0.6318,0.5372,-0.4412,-0.3427
539,0.0,0.0,0.0,0.0,0.0,0.0,0.1546,0.9614,0.1479,0.6307,0.5389,-0.4415,-0.3419
540,0.0,0.0,0.0,0.0,0.0,0.0,0.1646,0.9860,0.1458,0.6299,0.5405,-0.4412,-0.3411
541,0.0,0.0,0.0,0.0,0.0,0.0,0.1661,0.9699,0.1391,0.6293,0.5413,-0.4413,-0.3408
542,0.0,0.0,0.0,0.0,0.0,0.0,0.1512,1.0147,0.1512,0.6290,0.5415,-0.4414,-0.3410
543,0.0,0.0,0.0,0.0,0.0,0.0,0.1427,1.0076,0.1483,0.6286,0.5421,-0.4411,-0.3410
544,0.0,0.0,0.0,0.0,0.0,0.0,0.1540,1.0093,0.1441,0.6286,0.5432,-0.4401,-0.3407
545,0.0,0.0,0.0,0.0,0.0,0.0,0.1575,1.0137,0.1380,0.6291,0.5440,-0.4386,-0.3406
546,0.0,0.0,0.0,0.0,0.0,0.0,0.1459,1.0194,0.1408,0.6291,0.5449,-0.4372,-0.3408
547,0.0,0.0,0.0,0.0,0.0,0.0,0.1343,1.0254,0.1508,0.6295,0.5461,-0.4349,-0.3413
548,0.0,0.0,0.0,0.0,0.0,0.0,0.1299,1.0227,0.1493,0.6300,0.5475,-0.4317,-0.3420
549,0.0,0.0,0.0,0.0,0.0,0.0,0.1398,0.9757,0.1320,0.6300,0.5489,-0.4291,-0.3432
550,0.0,0.0,0.0,0.0,0.0,0.0,0.1424,0.9430,0.1275,0.6300,0.5502,-0.4270,-0.3436
551,0.0,0.0,0.0,0.0,0.0,0.0,0.1310,0.9579,0.1309,0.6300,0.5519,-0.4252,-0.3429
552,0.0,0.0,0.0,0.0,0.0,0.0,0.1273,0.9289,0.1232,0.6304,0.5528,-0.4241,-0.3424
553,0.0,0.0,0.0,0.0,0.0,0.0,0.1396,0.9303,0.1317,0.6314,0.5527,-0.4238,-0.3411
554,0.0,0.0,0.0,0.0,0.0,0.0,0.1287,0.9466,0.1426,0.6323,0.5527,-0.4236,-0.3394
555,0.0,0.0,0.0,0.0,0.0,0.0,0.1371,0.9297,0.1444,0.6332,0.5534,-0.4236,-0.3366
556,0.0,0.0,0.0,0.0,0.0,0.0,0.1500,0.9533,0.1389,0.6340,0.5543,-0.4237,-0.3335
557,0.0,0.0,0.0,0.0,0.0,0.0,0.1652,0.9535,0.1309,0.6349,0.5530,-0.4253,-0.3320
558,0.0,0.0,0.0,0.0,0.0,0.0,0.1638,0.9219,0.1212,0.6357,0.5508,-0.4282,-0.3303
559,0.0,0.0,0.0,0.0,0.0,0.0,0.1716,0.9917,0.1449,0.6363,0.5498,-0.4309,-0.3272
560,0.0,0.0,0.0,0.0,0.0,0.0,0.1809,1.0100,0.1431,0.6373,0.5481,-0.4331,-0.3253
561,0.0,0.0,0.0,0.0,0.0,0.0,0.1826,0.9828,0.1279,0.6381,0.5460,-0.4358,-0.3237
562,0.0,0.0,0.0,0.0,0.0,0.0,0.1689,1.0006,0.1407,0.6388,0.5442,-0.4383,-0.3218
563,0.0,0.0,0.0,0.0,0.0,0.0,0.1767,1.0174,0.1479,0.6397,0.5429,-0.4400,-0.3200
564,0.0,0.0,0.0,0.0,0.0,0.0,0.1798,0.9859,0.1251,0.6398,0.5421,-0.4418,-0.3186
565,0.0,0.0,0.0,0.0,0.0,0.0,0.1867,0.9895,0.1275,0.6403,0.5403,-0.4434,-0.3185
566,0.0,0.0,0.0,0.0,0.0,0.0,0.1908,0.9781,0.1335,0.6414,0.5375,-0.4460,-0.3173
567,0.0,0.0,0.0,0.0,0.0,0.0,0.1917,0.9743,0.1240,0.6411,0.5387,-0.4446,-0.3181
568,0.0,0.0,0.0,0.0,0.0,0.0,0.1952,0.9760,0.1349,0.6413,0.5367,-0.4474,-0.3171
569,0.0,0.0,0.0,0.0,0.0,0.0,0.2167,0.9588,0.1296,0.6416,0.5326,-0.4512,-0.3181
570,0.0,0.0,0.0,0.0,0.0,0.0,0.1982,0.9434,0.1210,0.6411,0.5355,-0.4491,-0.3171
571,0.0,0.0,0.0,0.0,0.0,0.0,0.2096,0.9852,0.1416,0.6417,0.5304,-0.4530,-0.3188
572,0.0,0.0,0.0,0.0,0.0,0.0,0.2085,0.9814,0.1382,0.6413,0.5276,-0.4553,-0.3209
573,0.0,0.0,0.0,0.0,0.0,0.0,0.2042,0.9824,0.1425,0.6416,0.5289,-0.4543,-0.3197
574,0.0,0.0,0.0,0.0,0.0,0.0,0.2159,0.9836,0.1373,0.6408,0.5264,-0.4564,-0.3223
575,0.0,0.0,0.0,0.0,0.0,0.0,0.2195,0.9865,0.1317,0.6391,0.5256,-0.4579,-0.3250
576,0.0,0.0,0.0,0.0,0.0,0.0,0.2159,0.9822,0.1349,0.6402,0.5255,-0.4572,-0.3239
577,0.0,0.0,0.0,0.0,0.0,0.0,0.2142,0.9906,0.1327,0.6380,0.5259,-0.4580,-0.3263
578,0.0,0.0,0.0,0.0,0.0,0.0,0.2146,0.9702,0.1221,0.6352,0.5279,-0.4584,-0.3282
579,0.0,0.0,0.0,0.0,0.0,0.0,0.2072,0.9874,0.1322,0.6368,0.5267,-0.4581,-0.3275
580,0.0,0.0,0.0,0.0,0.0,0.0,0.2131,0.9697,0.1235,0.6341,0.5286,-0.4585,-0.3290
581,0.0,0.0,0.0,0.0,0.0,0.0,0.2114,0.9615,0.1202,0.6322,0.5301,-0.4587,-0.3299
582,0.0,0.0,0.0,0.0,0.0,0.0,0.2086,0.9645,0.1207,0.6331,0.5292,-0.4586,-0.3298
583,0.0,0.0,0.0,0.0,0.0,0.0,0.2163,0.9609,0.1174,0.6316,0.5300,-0.4591,-0.3307
584,0.0,0.0,0.0,0.0,0.0,0.0,0.2113,0.9757,0.1208,0.6308,0.5297,-0.4594,-0.3323
585,0.0,0.0,0.0,0.0,0.0,0.0,0.2170,0.9682,0.1217,0.6314,0.5293,-0.4594,-0.3320
586,0.0,0.0,0.0,0.0,0.0,0.0,0.2123,0.9733,0.1160,0.6298,0.5313,-0.4595,-0.3317
587,0.0,0.0,0.0,0.0,0.0,0.0,0.2089,0.9749,0.1128,0.6292,0.5315,-0.4592,-0.3327
588,0.0,0.0,0.0,0.0,0.0,0.0,0.2128,0.9748,0.1137,0.6293,0.5320,-0.4594,-0.3317
589,0.0,0.0,0.0,0.0,0.0,0.0,0.2012,0.9810,0.1147,0.6289,0.5319,-0.4590,-0.3330
590,0.0,0.0,0.0,0.0,0.0,0.0,0.1988,0.9985,0.1261,0.6279,0.5340,-0.4574,-0.3336
591,0.0,0.0,0.0,0.0,0.0,0.0,0.1928,0.9949,0.1176,0.6282,0.5330,-0.4585,-0.3332
592,0.0,0.0,0.0,0.0,0.0,0.0,0.1982,0.9785,0.1213,0.6272,0.5356,-0.4563,-0.3339
593,0.0,0.0,0.0,0.0,0.0,0.0,0.1966,0.9723,0.1137,0.6261,0.5377,-0.4543,-0.3354
594,0.0,0.0,0.0,0.0,0.0,0.0,0.1942,0.9743,0.1160,0.6265,0.5370,-0.4552,-0.3344
595,0.0,0.0,0.0,0.0,0.0,0.0,0.2001,0.9776,0.1128,0.6254,0.5390,-0.4535,-0.3356
596,0.0,0.0,0.0,0.0,0.0,0.0,0.1993,0.9993,0.1313,0.6255,0.5414,-0.4501,-0.3364
597,0.0,0.0,0.0,0.0,0.0,0.0,0.1925,0.9855,0.1213,0.6249,0.5405,-0.4524,-0.3358
598,0.0,0.0,0.0,0.0,0.0,0.0,0.1950,0.9842,0.1091,0.6263,0.5425,-0.4475,-0.3363
599,0.0,0.0,0.0,0.0,0.0,0.0,0.1762,0.9607,0.1173,0.6246,0.5448,-0.4460,-0.3379
600,0.0,0.0,0.0,0.0,0.0,0.0,0.1720,0.9674,0.0990,0.6252,0.5439,-0.4467,-0.3372
601,0.0,0.0,0.0,0.0,0.0,0.0,0.1698,0.9600,0.1121,0.6248,0.5454,-0.4452,-0.3377
602,0.0,0.0,0.0,0.0,0.0,0.0,0.1628,1.0077,0.1375,0.6250,0.5459,-0.4440,-0.3381
603,0.0,0.0,0.0,0.0,0.0,0.0,0.1577,0.9841,0.1217,0.6249,0.5456,-0.4444,-0.3379
604,0.0,0.0,0.0,0.0,0.0,0.0,0.1686,0.9535,0.1220,0.6248,0.5468,-0.4435,-0.3377
605,0.0,0.0,0.0,0.0,0.0,0.0,0.1822,0.9672,0.1263,0.6252,0.5478,-0.4431,-0.3358
606,0.0,0.0,0.0,0.0,0.0,0.0,0.1812,0.9318,0.1152,0.6248,0.5475,-0.4432,-0.3368
607,0.0,0.0,0.0,0.0,0.0,0.0,0.1821,0.9648,0.1268,0.6257,0.5477,-0.4433,-0.3346
608,0.0,0.0,0.0,0.0,0.0,0.0,0.1937,0.9582,0.1187,0.6269,0.5468,-0.4445,-0.3322
609,0.0,0.0,0.0,0.0,0.0,0.0,0.1869,0.9578,0.1225,0.6260,0.5478,-0.4438,-0.3332
610,0.0,0.0,0.0,0.0,0.0,0.0,0.1846,0.9827,0.1312,0.6279,0.5457,-0.4451,-0.3314
611,0.0,0.0,0.0,0.0,0.0,0.0,0.1847,0.9852,0.1302,0.6289,0.5450,-0.4459,-0.3295
612,0.0,0.0,0.0,0.0,0.0,0.0,0.1835,0.9959,0.1355,0.6285,0.5451,-0.4456,-0.3306
613,0.0,0.0,0.0,0.0,0.0,0.0,0.1895,0.9831,0.1298,0.6295,0.5443,-0.4462,-0.3291
614,0.0,0.0,0.0,0.0,0.0,0.0,0.1905,0.9834,0.1359,0.6311,0.5426,-0.4463,-0.3289
615,0.0,0.0,0.0,0.0,0.0,0.0,0.1973,0.9809,0.1283,0.6304,0.5427,-0.4465,-0.3295
616,0.0,0.0,0.0,0.0,0.0,0.0,0.1899,0.9791,0.1321,0.6319,0.5418,-0.4460,-0.3290
617,0.0,0.0,0.0,0.0,0.0,0.0,0.2050,0.9430,0.1280,0.6336,0.5395,-0.4468,-0.3284
618,0.0,0.0,0.0,0.0,0.0,0.0,0.1957,0.9594,0.1291,0.6328,0.5407,-0.4461,-0.3289
619,0.0,0.0,0.0,0.0,0.0,0.0,0.2114,0.9788,0.1429,0.6350,0.5374,-0.4477,-0.3279
620,0.0,0.0,0.0,0.0,0.0,0.0,0.2117,0.9728,0.1476,0.6379,0.5344,-0.4490,-0.3255
621,0.0,0.0,0.0,0.0,0.0,0.0,0.2069,0.9940,0.1496,0.6364,0.5357,-0.4484,-0.3269
622,0.0,0.0,0.0,0.0,0.0,0.0,0.2076,0.9817,0.1500,0.6398,0.5325,-0.4489,-0.3248
623,0.0,0.0,0.0,0.0,0.0,0.0,0.1955,1.0060,0.1540,0.6435,0.5312,-0.4474,-0.3218
624,0.0,0.0,0.0,0.0,0.0,0.0,0.1980,0.9912,0.1524,0.6419,0.5313,-0.4483,-0.3236
625,0.0,0.0,0.0,0.0,0.0,0.0,0.1902,0.9929,0.1548,0.6454,0.5300,-0.4465,-0.3212
626,0.0,0.0,0.0,0.0,0.0,0.0,0.1798,0.9523,0.1502,0.6489,0.5288,-0.4431,-0.3209
627,0.0,0.0,0.0,0.0,0.0,0.0,0.1800,0.9761,0.1575,0.6477,0.5285,-0.4447,-0.3216
628,0.0,0.0,0.0,0.0,0.0,0.0,0.1887,0.9378,0.1553,0.6501,0.5286,-0.4420,-0.3204
629,0.0,0.0,0.0,0.0,0.0,0.0,0.1906,0.9376,0.1600,0.6521,0.5280,-0.4406,-0.3190
630,0.0,0.0,0.0,0.0,0.0,0.0,0.1832,0.9525,0.1620,0.6513,0.5279,-0.4410,-0.3203
631,0.0,0.0,0.0,0.0,0.0,0.0,0.1978,0.9321,0.1562,0.6524,0.5290,-0.4406,-0.3169
632,0.0,0.0,0.0,0.0,0.0,0.0,0.1981,0.9404,0.1539,0.6531,0.5295,-0.4410,-0.3141
633,0.0,0.0,0.0,0.0,0.0,0.0,0.1962,0.9448,0.1582,0.6528,0.5295,-0.4407,-0.3153
634,0.0,0.0,0.0,0.0,0.0,0.0,0.2023,0.9705,0.1570,0.6529,0.5306,-0.4417,-0.3117
635,0.0,0.0,0.0,0.0,0.0,0.0,0.2160,0.9703,0.1471,0.6508,0.5356,-0.4427,-0.3060
636,0.0,0.0,0.0,0.0,0.0,0.0,0.2041,0.9798,0.1523,0.6518,0.5332,-0.4422,-0.3088
637,0.0,0.0,0.0,0.0,0.0,0.0,0.2158,0.9617,0.1352,0.6505,0.5371,-0.4429,-0.3035
638,0.0,0.0,0.0,0.0,0.0,0.0,0.2238,0.9683,0.1344,0.6504,0.5386,-0.4440,-0.2995
639,0.0,0.0,0.0,0.0,0.0,0.0,0.2152,0.9569,0.1305,0.6505,0.5378,-0.4435,-0.3016
640,0.0,0.0,0.0,0.0,0.0,0.0,0.2236,0.9581,0.1300,0.6503,0.5402,-0.4445,-0.2963
641,0.0,0.0,0.0,0.0,0.0,0.0,0.2269,0.9531,0.1272,0.6508,0.5424,-0.4455,-0.2894
642,0.0,0.0,0.0,0.0,0.0,0.0,0.2227,0.9445,0.1285,0.6504,0.5416,-0.4449,-0.2927
643,0.0,0.0,0.0,0.0,0.0,0.0,0.2227,0.9630,0.1301,0.6514,0.5431,-0.4462,-0.2859
644,0.0,0.0,0.0,0.0,0.0,0.0,0.2291,0.9824,0.1270,0.6522,0.5449,-0.4475,-0.2783
645,0.0,0.0,0.0,0.0,0.0,0.0,0.2214,0.9689,0.1283,0.6519,0.5438,-0.4468,-0.2822
646,0.0,0.0,0.0,0.0,0.0,0.0,0.2329,0.9751,0.1184,0.6526,0.5456,-0.4481,-0.2751
647,0.0,0.0,0.0,0.0,0.0,0.0,0.2292,1.0006,0.1167,0.6524,0.5482,-0.4486,-0.2694
648,0.0,0.0,0.0,0.0,0.0,0.0,0.2269,0.9899,0.1171,0.6526,0.5469,-0.4484,-0.2720
649,0.0,0.0,0.0,0.0,0.0,0.0,0.2355,0.9971,0.1092,0.6525,0.5492,-0.4483,-0.2675
650,0.0,0.0,0.0,0.0,0.0,0.0,0.2419,0.9825,0.0973,0.6525,0.5503,-0.4477,-0.2665
651,0.0,0.0,0.0,0.0,0.0,0.0,0.2353,0.9905,0.0988,0.6524,0.5503,-0.4479,-0.2663
652,0.0,0.0,0.0,0.0,0.0,0.0,0.2515,0.9744,0.0972,0.6526,0.5499,-0.4476,-0.2671
653,0.0,0.0,0.0,0.0,0.0,0.0,0.2697,0.9615,0.1019,0.6523,0.5500,-0.4478,-0.2673
654,0.0,0.0,0.0,0.0,0.0,0.0,0.2605,0.9638,0.1014,0.6526,0.5496,-0.4476,-0.2677
655,0.0,0.0,0.0,0.0,0.0,0.0,0.2707,0.9600,0.1033,0.6518,0.5501,-0.4482,-0.2676
656,0.0,0.0,0.0,0.0,0.0,0.0,0.2730,0.9555,0.1032,0.6512,0.5493,-0.4491,-0.2693
657,0.0,0.0,0.0,0.0,0.0,0.0,0.2722,0.9619,0.1052,0.6517,0.5493,-0.4486,-0.2688
658,0.0,0.0,0.0,0.0,0.0,0.0,0.2754,0.9550,0.1028,0.6508,0.5489,-0.4496,-0.2703
659,0.0,0.0,0.0,0.0,0.0,0.0,0.2802,0.9519,0.1032,0.6502,0.5471,-0.4509,-0.2732
660,0.0,0.0,0.0,0.0,0.0,0.0,0.2778,0.9539,0.1051,0.6506,0.5477,-0.4502,-0.2721
661,0.0,0.0,0.0,0.0,0.0,0.0,0.2880,0.9502,0.1032,0.6494,0.5466,-0.4520,-0.2744
662,0.0,0.0,0.0,0.0,0.0,0.0,0.2804,0.9563,0.1042,0.6488,0.5450,-0.4535,-0.2765
663,0.0,0.0,0.0,0.0,0.0,0.0,0.2924,0.9481,0.1041,0.6491,0.5456,-0.4528,-0.2756
664,0.0,0.0,0.0,0.0,0.0,0.0,0.2765,0.9768,0.1123,0.6485,0.5443,-0.4539,-0.2776
665,0.0,0.0,0.0,0.0,0.0,0.0,0.2729,0.9507,0.0990,0.6477,0.5446,-0.4535,-0.2798
666,0.0,0.0,0.0,0.0,0.0,0.0,0.2736,0.9779,0.1091,0.6482,0.5443,-0.4537,-0.2789
667,0.0,0.0,0.0,0.0,0.0,0.0,0.2567,0.9857,0.1119,0.6473,0.5449,-0.4529,-0.2811
668,0.0,0.0,0.0,0.0,0.0,0.0,0.2304,0.9920,0.1035,0.6447,0.5481,-0.4496,-0.2861
669,0.0,0.0,0.0,0.0,0.0,0.0,0.2372,1.0262,0.1184,0.6466,0.5459,-0.4512,-0.2835
670,0.0,0.0,0.0,0.0,0.0,0.0,0.2100,0.9786,0.0930,0.6415,0.5517,-0.4483,-0.2883
671,0.0,0.0,0.0,0.0,0.0,0.0,0.2402,1.0071,0.0900,0.6346,0.5563,-0.4467,-0.2971
672,0.0,0.0,0.0,0.0,0.0,0.0,0.2251,1.0100,0.0853,0.6378,0.5546,-0.4475,-0.2923
673,0.0,0.0,0.0,0.0,0.0,0.0,0.2160,1.0019,0.0918,0.6321,0.5571,-0.4456,-0.3025
674,0.0,0.0,0.0,0.0,0.0,0.0,0.2173,0.9599,0.0858,0.6273,0.5589,-0.4433,-0.3124
675,0.0,0.0,0.0,0.0,0.0,0.0,0.2082,0.9831,0.0888,0.6296,0.5580,-0.4444,-0.3077
676,0.0,0.0,0.0,0.0,0.0,0.0,0.2073,0.9523,0.0928,0.6261,0.5578,-0.4422,-0.3182
677,0.0,0.0,0.0,0.0,0.0,0.0,0.1855,0.9792,0.1057,0.6249,0.5546,-0.4397,-0.3293
678,0.0,0.0,0.0,0.0,0.0,0.0,0.1966,0.9740,0.1019,0.6256,0.5561,-0.4409,-0.3240
679,0.0,0.0,0.0,0.0,0.0,0.0,0.1813,0.9690,0.1094,0.6240,0.5541,-0.4388,-0.3333
680,0.0,0.0,0.0,0.0,0.0,0.0,0.1709,0.9629,0.1093,0.6225,0.5521,-0.4374,-0.3412
681,0.0,0.0,0.0,0.0,0.0,0.0,0.1754,0.9677,0.1094,0.6230,0.5537,-0.4379,-0.3369
682,0.0,0.0,0.0,0.0,0.0,0.0,0.1679,0.9611,0.1093,0.6217,0.5505,-0.4373,-0.3451
683,0.0,0.0,0.0,0.0,0.0,0.0,0.1635,0.9622,0.1065,0.6198,0.5483,-0.4377,-0.3517
684,0.0,0.0,0.0,0.0,0.0,0.0,0.1624,0.9574,0.1065,0.6209,0.5493,-0.4374,-0.3486
685,0.0,0.0,0.0,0.0,0.0,0.0,0.1630,0.9623,0.1037,0.6181,0.5479,-0.4386,-0.3541
686,0.0,0.0,0.0,0.0,0.0,0.0,0.1691,0.9690,0.1019,0.6156,0.5461,-0.4405,-0.3590
687,0.0,0.0,0.0,0.0,0.0,0.0,0.1651,0.9656,0.1079,0.6168,0.5468,-0.4397,-0.3569
688,0.0,0.0,0.0,0.0,0.0,0.0,0.1735,0.9499,0.0918,0.6139,0.5455,-0.4419,-0.3610
689,0.0,0.0,0.0,0.0,0.0,0.0,0.1823,0.9706,0.0981,0.6110,0.5439,-0.4452,-0.3643
690,0.0,0.0,0.0,0.0,0.0,0.0,0.1754,0.9674,0.0967,0.6123,0.5447,-0.4435,-0.3627
691,0.0,0.0,0.0,0.0,0.0,0.0,0.1756,0.9723,0.0934,0.6093,0.5434,-0.4471,-0.3654
692,0.0,0.0,0.0,0.0,0.0,0.0,0.1914,1.0327,0.1349,0.6078,0.5416,-0.4501,-0.3669
693,0.0,0.0,0.0,0.0,0.0,0.0,0.1713,0.9791,0.1029,0.6078,0.5428,-0.4491,-0.3664
694,0.0,0.0,0.0,0.0,0.0,0.0,0.1780,0.9911,0.1035,0.6077,0.5422,-0.4501,-0.3662
695,0.0,0.0,0.0,0.0,0.0,0.0,0.1764,0.9847,0.1128,0.6041,0.5436,-0.4535,-0.3659
696,0.0,0.0,0.0,0.0,0.0,0.0,0.1668,0.9196,0.0756,0.6053,0.5434,-0.4519,-0.3662
697,0.0,0.0,0.0,0.0,0.0,0.0,0.1583,0.9853,0.1081,0.6038,0.5432,-0.4542,-0.3660
698,0.0,0.0,0.0,0.0,0.0,0.0,0.1556,0.9771,0.1052,0.6008,0.5446,-0.4577,-0.3647
699,0.0,0.0,0.0,0.0,0.0,0.0,0.1462,0.9550,0.0984,0.6022,0.5439,-0.4559,-0.3655
700,0.0,0.0,0.0,0.0,0.0,0.0,0.1362,0.9669,0.1089,0.5997,0.5447,-0.4587,-0.3650
701,0.0,0.0,0.0,0.0,0.0,0.0,0.1483,0.9770,0.0967,0.5970,0.5447,-0.4607,-0.3668
702,0.0,0.0,0.0,0.0,0.0,0.0,0.1415,0.9829,0.1095,0.5988,0.5443,-0.4593,-0.3662
703,0.0,0.0,0.0,0.0,0.0,0.0,0.1438,0.9752,0.0953,0.5943,0.5456,-0.4632,-0.3667
704,0.0,0.0,0.0,0.0,0.0,0.0,0.1433,0.9733,0.0910,0.5893,0.5471,-0.4677,-0.3670
705,0.0,0.0,0.0,0.0,0.0,0.0,0.1394,0.9767,0.0986,0.5919,0.5461,-0.4656,-0.3670
706,0.0,0.0,0.0,0.0,0.0,0.0,0.1329,0.9873,0.0921,0.5861,0.5490,-0.4701,-0.3662
707,0.0,0.0,0.0,0.0,0.0,0.0,0.1401,0.9643,0.0787,0.5816,0.5523,-0.4737,-0.3637
708,0.0,0.0,0.0,0.0,0.0,0.0,0.1370,0.9779,0.0887,0.5834,0.5511,-0.4721,-0.3648
709,0.0,0.0,0.0,0.0,0.0,0.0,0.1437,0.9877,0.0780,0.5791,0.5532,-0.4765,-0.3627
710,0.0,0.0,0.0,0.0,0.0,0.0,0.1305,0.9868,0.0648,0.5756,0.5549,-0.4803,-0.3608
711,0.0,0.0,0.0,0.0,0.0,0.0,0.1241,1.0053,0.0852,0.5769,0.5547,-0.4786,-0.3612
712,0.0,0.0,0.0,0.0,0.0,0.0,0.1386,1.0173,0.0697,0.5743,0.5538,-0.4826,-0.3614
713,0.0,0.0,0.0,0.0,0.0,0.0,0.1278,1.0128,0.0650,0.5717,0.5547,-0.4855,-0.3600
714,0.0,0.0,0.0,0.0,0.0,0.0,0.1266,1.0419,0.0798,0.5729,0.5540,-0.4844,-0.3608
715,0.0,0.0,0.0,0.0,0.0,0.0,0.1506,1.0078,0.0593,0.5715,0.5546,-0.4864,-0.3595
716,0.0,0.0,0.0,0.0,0.0,0.0,0.1480,0.9836,0.0474,0.5727,0.5527,-0.4866,-0.3603
717,0.0,0.0,0.0,0.0,0.0,0.0,0.1412,1.0197,0.0641,0.5719,0.5538,-0.4866,-0.3597
718,0.0,0.0,0.0,0.0,0.0,0.0,0.1556,0.9926,0.0545,0.5738,0.5512,-0.4869,-0.3604
719,0.0,0.0,0.0,0.0,0.0,0.0,0.1596,0.9579,0.0467,0.5764,0.5490,-0.4878,-0.3583
720,0.0,0.0,0.0,0.0,0.0,0.0,0.1431,0.9817,0.0539,0.5748,0.5503,-0.4872,-0.3597
721,0.0,0.0,0.0,0.0,0.0,0.0,0.1639,0.9553,0.0462,0.5783,0.5475,-0.4888,-0.3563
722,0.0,0.0,0.0,0.0,0.0,0.0,0.1648,0.9714,0.0473,0.5819,0.5443,-0.4915,-0.3514
723,0.0,0.0,0.0,0.0,0.0,0.0,0.1638,0.9505,0.0447,0.5800,0.5461,-0.4900,-0.3539
724,0.0,0.0,0.0,0.0,0.0,0.0,0.1633,1.0050,0.0560,0.5843,0.5418,-0.4927,-0.3497
725,0.0,0.0,0.0,0.0,0.0,0.0,0.1767,1.0096,0.0499,0.5882,0.5398,-0.4944,-0.3438
726,0.0,0.0,0.0,0.0,0.0,0.0,0.1635,0.9939,0.0489,0.5862,0.5405,-0.4937,-0.3471
727,0.0,0.0,0.0,0.0,0.0,0.0,0.1795,1.0066,0.0457,0.5904,0.5375,-0.4951,-0.3427
728,0.0,0.0,0.0,0.0,0.0,0.0,0.2012,0.9748,0.0388,0.5959,0.5339,-0.4957,-0.3379
729,0.0,0.0,0.0,0.0,0.0,0.0,0.1971,0.9700,0.0426,0.5933,0.5353,-0.4953,-0.3409
730,0.0,0.0,0.0,0.0,0.0,0.0,0.2021,0.9917,0.0531,0.5986,0.5324,-0.4957,-0.3354
731,0.0,0.0,0.0,0.0,0.0,0.0,0.2130,0.9787,0.0464,0.6031,0.5302,-0.4962,-0.3301
732,0.0,0.0,0.0,0.0,0.0,0.0,0.2075,0.9571,0.0378,0.6012,0.5308,-0.4956,-0.3334
733,0.0,0.0,0.0,0.0,0.0,0.0,0.2129,0.9938,0.0522,0.6054,0.5288,-0.4963,-0.3279
734,0.0,0.0,0.0,0.0,0.0,0.0,0.2073,0.9852,0.0507,0.6083,0.5282,-0.4964,-0.3233
735,0.0,0.0,0.0,0.0,0.0,0.0,0.2118,0.9705,0.0468,0.6075,0.5273,-0.4962,-0.3264
736,0.0,0.0,0.0,0.0,0.0,0.0,0.2217,0.9935,0.0513,0.6092,0.5284,-0.4964,-0.3213
737,0.0,0.0,0.0,0.0,0.0,0.0,0.2285,0.9904,0.0508,0.6113,0.5279,-0.4958,-0.3191
738,0.0,0.0,0.0,0.0,0.0,0.0,0.2254,0.9846,0.0521,0.6104,0.5280,-0.4961,-0.3201
739,0.0,0.0,0.0,0.0,0.0,0.0,0.2279,0.9866,0.0479,0.6118,0.5282,-0.4953,-0.3184
740,0.0,0.0,0.0,0.0,0.0,0.0,0.2305,0.9739,0.0426,0.6121,0.5283,-0.4946,-0.3187
741,0.0,0.0,0.0,0.0,0.0,0.0,0.2248,0.9784,0.0474,0.6121,0.5285,-0.4948,-0.3181
742,0.0,0.0,0.0,0.0,0.0,0.0,0.2356,0.9634,0.0444,0.6122,0.5279,-0.4946,-0.3193
743,0.0,0.0,0.0,0.0,0.0,0.0,0.2411,0.9691,0.0478,0.6118,0.5276,-0.4950,-0.3198
744,0.0,0.0,0.0,0.0,0.0,0.0,0.2332,0.9659,0.0444,0.6123,0.5273,-0.4946,-0.3200
745,0.0,0.0,0.0,0.0,0.0,0.0,0.2392,0.9711,0.0478,0.6114,0.5280,-0.4952,-0.3195
746,0.0,0.0,0.0,0.0,0.0,0.0,0.2470,0.9689,0.0487,0.6111,0.5273,-0.4958,-0.3204
747,0.0,0.0,0.0,0.0,0.0,0.0,0.2485,0.9693,0.0478,0.6113,0.5278,-0.4954,-0.3198
748,0.0,0.0,0.0,0.0,0.0,0.0,0.2529,0.9706,0.0520,0.6113,0.5262,-0.4960,-0.3216
749,0.0,0.0,0.0,0.0,0.0,0.0,0.2559,0.9733,0.0596,0.6102,0.5263,-0.4970,-0.3219
750,0.0,0.0,0.0,0.0,0.0,0.0,0.2550,0.9744,0.0568,0.6108,0.5264,-0.4964,-0.3216
751,0.0,0.0,0.0,0.0,0.0,0.0,0.2513,0.9846,0.0691,0.6105,0.5252,-0.4969,-0.3233
752,0.0,0.0,0.0,0.0,0.0,0.0,0.2206,0.9704,0.0671,0.6108,0.5248,-0.4958,-0.3250
753,0.0,0.0,0.0,0.0,0.0,0.0,0.2419,0.9804,0.0700,0.6110,0.5246,-0.4962,-0.3245
754,0.0,0.0,0.0,0.0,0.0,0.0,0.2167,0.9724,0.0680,0.6113,0.5244,-0.4956,-0.3250
755,0.0,0.0,0.0,0.0,0.0,0.0,0.2298,0.9848,0.0667,0.6129,0.5224,-0.4946,-0.3268
756,0.0,0.0,0.0,0.0,0.0,0.0,0.2163,0.9939,0.0734,0.6123,0.5235,-0.4949,-0.3258
757,0.0,0.0,0.0,0.0,0.0,0.0,0.2691,0.9354,0.0536,0.6129,0.5222,-0.4950,-0.3265
758,0.0,0.0,0.0,0.0,0.0,0.0,0.2594,0.9926,0.0720,0.6143,0.5194,-0.4956,-0.3276
759,0.0,0.0,0.0,0.0,0.0,0.0,0.2643,0.9399,0.0556,0.6133,0.5212,-0.4956,-0.3265
760,0.0,0.0,0.0,0.0,0.0,0.0,0.2682,0.9937,0.0767,0.6148,0.5186,-0.4955,-0.3281
761,0.0,0.0,0.0,0.0,0.0,0.0,0.2407,0.9895,0.0837,0.6158,0.5143,-0.4957,-0.3325
762,0.0,0.0,0.0,0.0,0.0,0.0,0.2654,0.9802,0.0728,0.6151,0.5163,-0.4961,-0.3302
763,0.0,0.0,0.0,0.0,0.0,0.0,0.2534,0.9896,0.0870,0.6166,0.5131,-0.4947,-0.3345
764,0.0,0.0,0.0,0.0,0.0,0.0,0.2483,0.9643,0.0910,0.6179,0.5101,-0.4926,-0.3396
765,0.0,0.0,0.0,0.0,0.0,0.0,0.2584,0.9763,0.0846,0.6172,0.5116,-0.4937,-0.3371
766,0.0,0.0,0.0,0.0,0.0,0.0,0.2516,0.9788,0.0954,0.6184,0.5088,-0.4915,-0.3422
767,0.0,0.0,0.0,0.0,0.0,0.0,0.2655,0.9325,0.0936,0.6190,0.5060,-0.4910,-0.3460
768,0.0,0.0,0.0,0.0,0.0,0.0,0.2594,0.9605,0.0920,0.6189,0.5070,-0.4910,-0.3449
769,0.0,0.0,0.0,0.0,0.0,0.0,0.2515,0.9392,0.0951,0.6193,0.5053,-0.4906,-0.3469
770,0.0,0.0,0.0,0.0,0.0,0.0,0.2526,0.9440,0.0989,0.6210,0.5030,-0.4893,-0.3492
771,0.0,0.0,0.0,0.0,0.0,0.0,0.2503,0.9495,0.0989,0.6202,0.5040,-0.4899,-0.3483
772,0.0,0.0,0.0,0.0,0.0,0.0,0.2552,0.9488,0.0999,0.6217,0.5021,-0.4888,-0.3500
773,0.0,0.0,0.0,0.0,0.0,0.0,0.2632,0.9569,0.0985,0.6221,0.5018,-0.4886,-0.3498
774,0.0,0.0,0.0,0.0,0.0,0.0,0.2540,0.9576,0.1014,0.6218,0.5017,-0.4887,-0.3503
775,0.0,0.0,0.0,0.0,0.0,0.0,0.2564,0.9576,0.0971,0.6227,0.5013,-0.4886,-0.3497
776,0.0,0.0,0.0,0.0,0.0,0.0,0.2655,0.9515,0.0957,0.6235,0.4988,-0.4899,-0.3500
777,0.0,0.0,0.0,0.0,0.0,0.0,0.2524,0.9557,0.0985,0.6232,0.4999,-0.4890,-0.3502
778,0.0,0.0,0.0,0.0,0.0,0.0,0.2502,0.9630,0.1056,0.6241,0.4975,-0.4904,-0.3499
779,0.0,0.0,0.0,0.0,0.0,0.0,0.2551,0.9634,0.1056,0.6251,0.4966,-0.4905,-0.3494
780,0.0,0.0,0.0,0.0,0.0,0.0,0.2542,0.9673,0.1066,0.6249,0.4963,-0.4905,-0.3501
781,0.0,0.0,0.0,0.0,0.0,0.0,0.2503,0.9664,0.1075,0.6254,0.4965,-0.4902,-0.3495
782,0.0,0.0,0.0,0.0,0.0,0.0,0.2498,0.9659,0.1104,0.6261,0.4959,-0.4898,-0.3495
783,0.0,0.0,0.0,0.0,0.0,0.0,0.2415,0.9676,0.1099,0.6261,0.4955,-0.4898,-0.3502
784,0.0,0.0,0.0,0.0,0.0,0.0,0.2473,0.9654,0.1136,0.6264,0.4962,-0.4897,-0.3488
785,0.0,0.0,0.0,0.0,0.0,0.0,0.2505,0.9769,0.1246,0.6273,0.4951,-0.4892,-0.3494
786,0.0,0.0,0.0,0.0,0.0,0.0,0.2385,0.9672,0.1141,0.6269,0.4955,-0.4894,-0.3492
787,0.0,0.0,0.0,0.0,0.0,0.0,0.2480,0.9750,0.1264,0.6278,0.4944,-0.4886,-0.3503
788,0.0,0.0,0.0,0.0,0.0,0.0,0.2256,0.9795,0.1335,0.6276,0.4959,-0.4874,-0.3502
789,0.0,0.0,0.0,0.0,0.0,0.0,0.2385,0.9665,0.1278,0.6278,0.4950,-0.4881,-0.3502
790,0.0,0.0,0.0,0.0,0.0,0.0,0.2311,0.9818,0.1331,0.6281,0.4956,-0.4865,-0.3511
791,0.0,0.0,0.0,0.0,0.0,0.0,0.2250,0.9561,0.1310,0.6284,0.4949,-0.4853,-0.3531
792,0.0,0.0,0.0,0.0,0.0,0.0,0.2388,0.9596,0.1277,0.6282,0.4954,-0.4859,-0.3518
793,0.0,0.0,0.0,0.0,0.0,0.0,0.2168,0.9616,0.1362,0.6287,0.4944,-0.4844,-0.3544
794,0.0,0.0,0.0,0.0,0.0,0.0,0.2136,0.9515,0.1314,0.6272,0.4962,-0.4837,-0.3557
795,0.0,0.0,0.0,0.0,0.0,0.0,0.2134,0.9642,0.1357,0.6282,0.4952,-0.4838,-0.3551
796,0.0,0.0,0.0,0.0,0.0,0.0,0.2112,0.9544,0.1404,0.6269,0.4964,-0.4833,-0.3564
797,0.0,0.0,0.0,0.0,0.0,0.0,0.2102,0.9700,0.1443,0.6258,0.4977,-0.4823,-0.3579
798,0.0,0.0,0.0,0.0,0.0,0.0,0.2045,0.9589,0.1437,0.6267,0.4965,-0.4827,-0.3574
799,0.0,0.0,0.0,0.0,0.0,0.0,0.2092,0.9715,0.1433,0.6249,0.4989,-0.4819,-0.3583
800,0.0,0.0,0.0,0.0,0.0,0.0,0.2009,0.9718,0.1381,0.6228,0.5012,-0.4812,-0.3597
801,0.0,0.0,0.0,0.0,0.0,0.0,0.2067,0.9697,0.1410,0.6241,0.4995,-0.4814,-0.3595
802,0.0,0.0,0.0,0.0,0.0,0.0,0.2036,0.9611,0.1305,0.6213,0.5032,-0.4812,-0.3594
803,0.0,0.0,0.0,0.0,0.0,0.0,0.2045,0.9583,0.1192,0.6186,0.5065,-0.4815,-0.3592
804,0.0,0.0,0.0,0.0,0.0,0.0,0.2031,0.9627,0.1258,0.6198,0.5054,-0.4812,-0.3589
805,0.0,0.0,0.0,0.0,0.0,0.0,0.2112,0.9689,0.1207,0.6174,0.5071,-0.4817,-0.3599
806,0.0,0.0,0.0,0.0,0.0,0.0,0.2242,0.9448,0.1036,0.6142,0.5098,-0.4838,-0.3588
807,0.0,0.0,0.0,0.0,0.0,0.0,0.2156,0.9533,0.1088,0.6159,0.5084,-0.4824,-0.3598
808,0.0,0.0,0.0,0.0,0.0,0.0,0.2263,0.9657,0.1085,0.6129,0.5108,-0.4853,-0.3576
809,0.0,0.0,0.0,0.0,0.0,0.0,0.2222,0.9771,0.1048,0.6103,0.5127,-0.4884,-0.3551
810,0.0,0.0,0.0,0.0,0.0,0.0,0.2208,0.9635,0.0995,0.6114,0.5122,-0.4869,-0.3559
811,0.0,0.0,0.0,0.0,0.0,0.0,0.2236,0.9945,0.1139,0.6099,0.5122,-0.4891,-0.3557
812,0.0,0.0,0.0,0.0,0.0,0.0,0.2217,0.9787,0.0973,0.6079,0.5142,-0.4904,-0.3543
813,0.0,0.0,0.0,0.0,0.0,0.0,0.2142,0.9895,0.1039,0.6092,0.5130,-0.4894,-0.3552
814,0.0,0.0,0.0,0.0,0.0,0.0,0.2283,0.9663,0.0943,0.6072,0.5150,-0.4912,-0.3532
815,0.0,0.0,0.0,0.0,0.0,0.0,0.2307,0.9673,0.0882,0.6067,0.5159,-0.4926,-0.3509
816,0.0,0.0,0.0,0.0,0.0,0.0,0.2322,0.9668,0.0892,0.6069,0.5153,-0.4918,-0.3524
817,0.0,0.0,0.0,0.0,0.0,0.0,0.2259,0.9699,0.0892,0.6061,0.5175,-0.4933,-0.3486
818,0.0,0.0,0.0,0.0,0.0,0.0,0.2255,0.9714,0.0897,0.6057,0.5189,-0.4948,-0.3450
819,0.0,0.0,0.0,0.0,0.0,0.0,0.2284,0.9698,0.0878,0.6057,0.5185,-0.4943,-0.3464
820,0.0,0.0,0.0,0.0,0.0,0.0,0.2235,0.9705,0.0873,0.6057,0.5199,-0.4951,-0.3432
821,0.0,0.0,0.0,0.0,0.0,0.0,0.2252,0.9603,0.0797,0.6054,0.5220,-0.4960,-0.3392
822,0.0,0.0,0.0,0.0,0.0,0.0,0.2243,0.9632,0.0807,0.6055,0.5210,-0.4955,-0.3411
823,0.0,0.0,0.0,0.0,0.0,0.0,0.2239,0.9661,0.0859,0.6055,0.5227,-0.4962,-0.3374
824,0.0,0.0,0.0,0.0,0.0,0.0,0.2177,0.9750,0.0883,0.6066,0.5225,-0.4966,-0.3352
825,0.0,0.0,0.0,0.0,0.0,0.0,0.2213,0.9793,0.0869,0.6061,0.5225,-0.4965,-0.3363
826,0.0,0.0,0.0,0.0,0.0,0.0,0.2143,0.9736,0.0902,0.6067,0.5236,-0.4965,-0.3336
827,0.0,0.0,0.0,0.0,0.0,0.0,0.2053,0.9694,0.0958,0.6067,0.5259,-0.4960,-0.3306
828,0.0,0.0,0.0,0.0,0.0,0.0,0.2094,0.9762,0.0944,0.6066,0.5249,-0.4964,-0.3317
829,0.0,0.0,0.0,0.0,0.0,0.0,0.2046,0.9593,0.0872,0.6061,0.5276,-0.4962,-0.3287
830,0.0,0.0,0.0,0.0,0.0,0.0,0.2041,0.9760,0.0840,0.6060,0.5299,-0.4963,-0.3251
831,0.0,0.0,0.0,0.0,0.0,0.0,0.2077,0.9646,0.0896,0.6059,0.5293,-0.4963,-0.3262
832,0.0,0.0,0.0,0.0,0.0,0.0,0.2113,0.9724,0.0798,0.6057,0.5312,-0.4967,-0.3230
833,0.0,0.0,0.0,0.0,0.0,0.0,0.2201,1.0069,0.0749,0.6057,0.5330,-0.4968,-0.3199
834,0.0,0.0,0.0,0.0,0.0,0.0,0.2121,0.9822,0.0747,0.6052,0.5330,-0.4969,-0.3204
835,0.0,0.0,0.0,0.0,0.0,0.0,0.2235,1.0224,0.0764,0.6067,0.5319,-0.4964,-0.3202
836,0.0,0.0,0.0,0.0,0.0,0.0,0.2285,1.0097,0.0693,0.6098,0.5282,-0.4951,-0.3225
837,0.0,0.0,0.0,0.0,0.0,0.0,0.2298,1.0213,0.0741,0.6082,0.5301,-0.4958,-0.3212
838,0.0,0.0,0.0,0.0,0.0,0.0,0.2272,0.9980,0.0673,0.6114,0.5264,-0.4943,-0.3238
839,0.0,0.0,0.0,0.0,0.0,0.0,0.2352,0.9665,0.0661,0.6139,0.5239,-0.4929,-0.3252
840,0.0,0.0,0.0,0.0,0.0,0.0,0.2293,0.9843,0.0658,0.6124,0.5257,-0.4935,-0.3242
841,0.0,0.0,0.0,0.0,0.0,0.0,0.2394,0.9618,0.0774,0.6156,0.5209,-0.4925,-0.3272
842,0.0,0.0,0.0,0.0,0.0,0.0,0.2482,0.9604,0.0901,0.6178,0.5170,-0.4922,-0.3299
843,0.0,0.0,0.0,0.0,0.0,0.0,0.2453,0.9635,0.0844,0.6169,0.5188,-0.4923,-0.3286
844,0.0,0.0,0.0,0.0,0.0,0.0,0.2530,0.9573,0.0943,0.6183,0.5157,-0.4921,-0.3310
845,0.0,0.0,0.0,0.0,0.0,0.0,0.2549,0.9567,0.0980,0.6191,0.5139,-0.4921,-0.3323
846,0.0,0.0,0.0,0.0,0.0,0.0,0.2594,0.9599,0.0976,0.6189,0.5146,-0.4920,-0.3319
847,0.0,0.0,0.0,0.0,0.0,0.0,0.2549,0.9547,0.0971,0.6192,0.5132,-0.4925,-0.3327
848,0.0,0.0,0.0,0.0,0.0,0.0,0.2462,0.9589,0.0981,0.6197,0.5123,-0.4927,-0.3327
849,0.0,0.0,0.0,0.0,0.0,0.0,0.2577,0.9527,0.0990,0.6196,0.5119,-0.4927,-0.3335
850,0.0,0.0,0.0,0.0,0.0,0.0,0.2405,0.9649,0.0976,0.6199,0.5117,-0.4929,-0.3332
851,0.0,0.0,0.0,0.0,0.0,0.0,0.2412,0.9547,0.0905,0.6206,0.5092,-0.4936,-0.3345
852,0.0,0.0,0.0,0.0,0.0,0.0,0.2422,0.9556,0.0938,0.6205,0.5099,-0.4930,-0.3346
853,0.0,0.0,0.0,0.0,0.0,0.0,0.2327,0.9676,0.0944,0.6206,0.5090,-0.4940,-0.3342
854,0.0,0.0,0.0,0.0,0.0,0.0,0.2358,0.9739,0.0963,0.6205,0.5083,-0.4949,-0.3342
855,0.0,0.0,0.0,0.0,0.0,0.0,0.2319,0.9740,0.0939,0.6205,0.5089,-0.4944,-0.3340
856,0.0,0.0,0.0,0.0,0.0,0.0,0.2362,0.9875,0.0992,0.6205,0.5073,-0.4951,-0.3354
857,0.0,0.0,0.0,0.0,0.0,0.0,0.2471,0.9744,0.1010,0.6202,0.5062,-0.4948,-0.3381
858,0.0,0.0,0.0,0.0,0.0,0.0,0.2369,0.9792,0.0982,0.6204,0.5065,-0.4951,-0.3368
859,0.0,0.0,0.0,0.0,0.0,0.0,0.2590,0.9623,0.1033,0.6203,0.5053,-0.4945,-0.3397
860,0.0,0.0,0.0,0.0,0.0,0.0,0.2612,0.9554,0.1051,0.6191,0.5072,-0.4942,-0.3395
861,0.0,0.0,0.0,0.0,0.0,0.0,0.2633,0.9573,0.1028,0.6198,0.5059,-0.4943,-0.3398
862,0.0,0.0,0.0,0.0,0.0,0.0,0.2540,0.9589,0.1098,0.6193,0.5075,-0.4933,-0.3400
863,0.0,0.0,0.0,0.0,0.0,0.0,0.2536,0.9431,0.0932,0.6192,0.5104,-0.4915,-0.3383
864,0.0,0.0,0.0,0.0,0.0,0.0,0.2592,0.9686,0.1061,0.6193,0.5088,-0.4923,-0.3395
865,0.0,0.0,0.0,0.0,0.0,0.0,0.2471,0.9400,0.0843,0.6190,0.5126,-0.4908,-0.3365
866,0.0,0.0,0.0,0.0,0.0,0.0,0.2313,0.9674,0.0807,0.6192,0.5168,-0.4895,-0.3315
867,0.0,0.0,0.0,0.0,0.0,0.0,0.2382,0.9526,0.0787,0.6190,0.5148,-0.4901,-0.3342
868,0.0,0.0,0.0,0.0,0.0,0.0,0.2158,0.9582,0.0712,0.6194,0.5193,-0.4888,-0.3283
869,0.0,0.0,0.0,0.0,0.0,0.0,0.2184,0.9637,0.0637,0.6194,0.5259,-0.4872,-0.3201
870,0.0,0.0,0.0,0.0,0.0,0.0,0.2074,0.9727,0.0680,0.6193,0.5226,-0.4880,-0.3243
871,0.0,0.0,0.0,0.0,0.0,0.0,0.2139,0.9779,0.0681,0.6208,0.5283,-0.4857,-0.3156
872,0.0,0.0,0.0,0.0,0.0,0.0,0.2008,1.0002,0.0753,0.6213,0.5332,-0.4832,-0.3102
873,0.0,0.0,0.0,0.0,0.0,0.0,0.1908,1.0103,0.0726,0.6213,0.5312,-0.4842,-0.3121
874,0.0,0.0,0.0,0.0,0.0,0.0,0.2043,0.9674,0.0713,0.6220,0.5349,-0.4819,-0.3080
875,0.0,0.0,0.0,0.0,0.0,0.0,0.1933,0.9761,0.0652,0.6217,0.5384,-0.4802,-0.3050
876,0.0,0.0,0.0,0.0,0.0,0.0,0.1945,0.9838,0.0695,0.6219,0.5369,-0.4809,-0.3061
877,0.0,0.0,0.0,0.0,0.0,0.0,0.2087,0.9844,0.0648,0.6214,0.5395,-0.4797,-0.3045
878,0.0,0.0,0.0,0.0,0.0,0.0,0.2055,0.9931,0.0776,0.6207,0.5434,-0.4773,-0.3027
879,0.0,0.0,0.0,0.0,0.0,0.0,0.2206,1.0059,0.0754,0.6209,0.5412,-0.4789,-0.3036
880,0.0,0.0,0.0,0.0,0.0,0.0,0.2035,1.0064,0.0768,0.6206,0.5454,-0.4752,-0.3026
881,0.0,0.0,0.0,0.0,0.0,0.0,0.2199,0.9460,0.0655,0.6206,0.5462,-0.4731,-0.3044
882,0.0,0.0,0.0,0.0,0.0,0.0,0.2171,0.9880,0.0747,0.6208,0.5457,-0.4736,-0.3040
883,0.0,0.0,0.0,0.0,0.0,0.0,0.2162,0.9538,0.0735,0.6210,0.5466,-0.4721,-0.3044
884,0.0,0.0,0.0,0.0,0.0,0.0,0.1947,0.9750,0.0746,0.6220,0.5468,-0.4704,-0.3048
885,0.0,0.0,0.0,0.0,0.0,0.0,0.2098,0.9715,0.0784,0.6217,0.5469,-0.4708,-0.3046
886,0.0,0.0,0.0,0.0,0.0,0.0,0.1901,0.9853,0.0804,0.6221,0.5465,-0.4704,-0.3052
887,0.0,0.0,0.0,0.0,0.0,0.0,0.2013,0.9820,0.0822,0.6227,0.5454,-0.4700,-0.3064
888,0.0,0.0,0.0,0.0,0.0,0.0,0.1965,0.9840,0.0865,0.6224,0.5463,-0.4701,-0.3053
889,0.0,0.0,0.0,0.0,0.0,0.0,0.2100,0.9769,0.0765,0.6225,0.5435,-0.4710,-0.3089
890,0.0,0.0,0.0,0.0,0.0,0.0,0.2239,0.9690,0.0882,0.6220,0.5397,-0.4736,-0.3122
891,0.0,0.0,0.0,0.0,0.0,0.0,0.2133,0.9562,0.0797,0.6224,0.5410,-0.4724,-0.3111
892,0.0,0.0,0.0,0.0,0.0,0.0,0.2290,0.9590,0.0943,0.6216,0.5387,-0.4749,-0.3130
893,0.0,0.0,0.0,0.0,0.0,0.0,0.2449,0.9648,0.0990,0.6217,0.5341,-0.4771,-0.3171
894,0.0,0.0,0.0,0.0,0.0,0.0,0.2409,0.9620,0.0990,0.6214,0.5368,-0.4761,-0.3147
895,0.0,0.0,0.0,0.0,0.0,0.0,0.2426,0.9527,0.0952,0.6217,0.5317,-0.4785,-0.3192
896,0.0,0.0,0.0,0.0,0.0,0.0,0.2500,0.9564,0.0919,0.6209,0.5292,-0.4814,-0.3204
897,0.0,0.0,0.0,0.0,0.0,0.0,0.2438,0.9434,0.0937,0.6212,0.5304,-0.4800,-0.3198
898,0.0,0.0,0.0,0.0,0.0,0.0,0.2424,0.9834,0.0964,0.6206,0.5274,-0.4829,-0.3218
899,0.0,0.0,0.0,0.0,0.0,0.0,0.2324,0.9916,0.0946,0.6194,0.5270,-0.4845,-0.3222
900,0.0,0.0,0.0,0.0,0.0,0.0,0.2322,0.9852,0.0992,0.6201,0.5266,-0.4840,-0.3224
901,0.0,0.0,0.0,0.0,0.0,0.0,0.2354,0.9926,0.0837,0.6187,0.5260,-0.4853,-0.3240
902,0.0,0.0,0.0,0.0,0.0,0.0,0.2422,0.9742,0.0916,0.6183,0.5243,-0.4861,-0.3264
903,0.0,0.0,0.0,0.0,0.0,0.0,0.2459,0.9834,0.0945,0.6185,0.5245,-0.4861,-0.3258
904,0.0,0.0,0.0,0.0,0.0,0.0,0.2516,0.9779,0.0921,0.6185,0.5231,-0.4860,-0.3280
905,0.0,0.0,0.0,0.0,0.0,0.0,0.2262,0.9815,0.0940,0.6185,0.5225,-0.4853,-0.3301
906,0.0,0.0,0.0,0.0,0.0,0.0,0.2441,0.9728,0.0883,0.6186,0.5224,-0.4858,-0.3292
907,0.0,0.0,0.0,0.0,0.0,0.0,0.2183,0.9958,0.1026,0.6183,0.5237,-0.4838,-0.3308
908,0.0,0.0,0.0,0.0,0.0,0.0,0.2145,0.9638,0.0915,0.6179,0.5257,-0.4809,-0.3325
909,0.0,0.0,0.0,0.0,0.0,0.0,0.2176,0.9719,0.0981,0.6181,0.5250,-0.4822,-0.3313
910,0.0,0.0,0.0,0.0,0.0,0.0,0.2044,0.9705,0.0934,0.6173,0.5269,-0.4799,-0.3331
911,0.0,0.0,0.0,0.0,0.0,0.0,0.2001,0.9551,0.0839,0.6166,0.5294,-0.4770,-0.3348
912,0.0,0.0,0.0,0.0,0.0,0.0,0.2003,0.9624,0.0877,0.6168,0.5283,-0.4785,-0.3339
913,0.0,0.0,0.0,0.0,0.0,0.0,0.1905,0.9643,0.0788,0.6157,0.5315,-0.4760,-0.3345
914,0.0,0.0,0.0,0.0,0.0,0.0,0.1718,0.9953,0.0960,0.6140,0.5355,-0.4736,-0.3346
915,0.0,0.0,0.0,0.0,0.0,0.0,0.1834,0.9717,0.0845,0.6149,0.5334,-0.4749,-0.3345
916,0.0,0.0,0.0,0.0,0.0,0.0,0.1665,0.9981,0.0866,0.6123,0.5391,-0.4720,-0.3342
917,0.0,0.0,0.0,0.0,0.0,0.0,0.1770,0.9715,0.0826,0.6094,0.5436,-0.4708,-0.3339
918,0.0,0.0,0.0,0.0,0.0,0.0,0.1739,0.9473,0.0692,0.6105,0.5420,-0.4713,-0.3338
919,0.0,0.0,0.0,0.0,0.0,0.0,0.1672,0.9695,0.0684,0.6086,0.5452,-0.4698,-0.3341
920,0.0,0.0,0.0,0.0,0.0,0.0,0.1591,0.9773,0.0544,0.6063,0.5501,-0.4691,-0.3311
921,0.0,0.0,0.0,0.0,0.0,0.0,0.1656,0.9639,0.0594,0.6075,0.5474,-0.4695,-0.3331
922,0.0,0.0,0.0,0.0,0.0,0.0,0.1573,0.9814,0.0488,0.6053,0.5523,-0.4690,-0.3296
923,0.0,0.0,0.0,0.0,0.0,0.0,0.1701,0.9830,0.0422,0.6053,0.5546,-0.4679,-0.3272
924,0.0,0.0,0.0,0.0,0.0,0.0,0.1588,1.0014,0.0485,0.6050,0.5537,-0.4686,-0.3283
925,0.0,0.0,0.0,0.0,0.0,0.0,0.1798,0.9813,0.0379,0.6055,0.5554,-0.4676,-0.3259
926,0.0,0.0,0.0,0.0,0.0,0.0,0.2027,0.9607,0.0345,0.6056,0.5588,-0.4682,-0.3190
927,0.0,0.0,0.0,0.0,0.0,0.0,0.1971,0.9705,0.0402,0.6055,0.5568,-0.4679,-0.3231
928,0.0,0.0,0.0,0.0,0.0,0.0,0.1939,0.9941,0.0381,0.6069,0.5596,-0.4676,-0.3160
929,0.0,0.0,0.0,0.0,0.0,0.0,0.2043,0.9835,0.0427,0.6081,0.5606,-0.4689,-0.3100
930,0.0,0.0,0.0,0.0,0.0,0.0,0.2093,0.9831,0.0243,0.6079,0.5596,-0.4679,-0.3137
931,0.0,0.0,0.0,0.0,0.0,0.0,0.2175,0.9826,0.0375,0.6094,0.5610,-0.4689,-0.3066
932,0.0,0.0,0.0,0.0,0.0,0.0,0.2242,0.9760,0.0412,0.6113,0.5609,-0.4706,-0.3003
933,0.0,0.0,0.0,0.0,0.0,0.0,0.2198,0.9583,0.0251,0.6104,0.5609,-0.4697,-0.3036
934,0.0,0.0,0.0,0.0,0.0,0.0,0.2082,1.0004,0.0471,0.6128,0.5608,-0.4707,-0.2974
935,0.0,0.0,0.0,0.0,0.0,0.0,0.2156,0.9841,0.0394,0.6159,0.5619,-0.4692,-0.2912
936,0.0,0.0,0.0,0.0,0.0,0.0,0.2052,1.0155,0.0552,0.6143,0.5613,-0.4700,-0.2942
937,0.0,0.0,0.0,0.0,0.0,0.0,0.2068,1.0000,0.0442,0.6171,0.5625,-0.4687,-0.2883
938,0.0,0.0,0.0,0.0,0.0,0.0,0.2096,0.9808,0.0446,0.6208,0.5620,-0.4661,-0.2856
939,0.0,0.0,0.0,0.0,0.0,0.0,0.1930,1.0177,0.0613,0.6187,0.5628,-0.4675,-0.2863
940,0.0,0.0,0.0,0.0,0.0,0.0,0.2153,0.9738,0.0450,0.6227,0.5613,-0.4651,-0.2843
941,0.0,0.0,0.0,0.0,0.0,0.0,0.2055,0.9735,0.0553,0.6269,0.5589,-0.4631,-0.2832
942,0.0,0.0,0.0,0.0,0.0,0.0,0.2087,0.9826,0.0559,0.6250,0.5601,-0.4638,-0.2837
943,0.0,0.0,0.0,0.0,0.0,0.0,0.2127,0.9672,0.0642,0.6284,0.5575,-0.4630,-0.2827
944,0.0,0.0,0.0,0.0,0.0,0.0,0.2097,0.9860,0.0874,0.6325,0.5524,-0.4618,-0.2855
945,0.0,0.0,0.0,0.0,0.0,0.0,0.2135,0.9963,0.0795,0.6306,0.5549,-0.4625,-0.2838
946,0.0,0.0,0.0,0.0,0.0,0.0,0.2201,0.9701,0.0892,0.6341,0.5510,-0.4606,-0.2866
947,0.0,0.0,0.0,0.0,0.0,0.0,0.2152,0.9545,0.0928,0.6365,0.5480,-0.4592,-0.2892
948,0.0,0.0,0.0,0.0,0.0,0.0,0.2188,0.9618,0.0882,0.6353,0.5498,-0.4598,-0.2876
949,0.0,0.0,0.0,0.0,0.0,0.0,0.2154,0.9613,0.0990,0.6375,0.5460,-0.4590,-0.2912
950,0.0,0.0,0.0,0.0,0.0,0.0,0.2001,0.9757,0.1113,0.6386,0.5439,-0.4582,-0.2939
951,0.0,0.0,0.0,0.0,0.0,0.0,0.2058,0.9697,0.1075,0.6384,0.5442,-0.4586,-0.2930
952,0.0,0.0,0.0,0.0,0.0,0.0,0.2030,0.9741,0.1113,0.6386,0.5432,-0.4580,-0.2954
953,0.0,0.0,0.0,0.0,0.0,0.0,0.2021,0.9780,0.1161,0.6391,0.5402,-0.4579,-0.3001
954,0.0,0.0,0.0,0.0,0.0,0.0,0.1990,0.9723,0.1132,0.6391,0.5414,-0.4579,-0.2979
955,0.0,0.0,0.0,0.0,0.0,0.0,0.2092,0.9851,0.1194,0.6390,0.5391,-0.4579,-0.3023
956,0.0,0.0,0.0,0.0,0.0,0.0,0.1976,0.9748,0.1132,0.6377,0.5371,-0.4584,-0.3079
957,0.0,0.0,0.0,0.0,0.0,0.0,0.2058,0.9867,0.1166,0.6386,0.5380,-0.4580,-0.3049
958,0.0,0.0,0.0,0.0,0.0,0.0,0.2080,0.9782,0.1203,0.6368,0.5360,-0.4586,-0.3111
959,0.0,0.0,0.0,0.0,0.0,0.0,0.2008,0.9658,0.1174,0.6358,0.5335,-0.4584,-0.3179
960,0.0,0.0,0.0,0.0,0.0,0.0,0.2128,0.9756,0.1236,0.6364,0.5349,-0.4585,-0.3142
961,0.0,0.0,0.0,0.0,0.0,0.0,0.2073,0.9695,0.1169,0.6343,0.5330,-0.4588,-0.3211
962,0.0,0.0,0.0,0.0,0.0,0.0,0.2106,0.9666,0.1089,0.6312,0.5316,-0.4603,-0.3273
963,0.0,0.0,0.0,0.0,0.0,0.0,0.2038,0.9697,0.1118,0.6327,0.5325,-0.4594,-0.3241
964,0.0,0.0,0.0,0.0,0.0,0.0,0.2114,0.9574,0.1032,0.6295,0.5314,-0.4612,-0.3295
965,0.0,0.0,0.0,0.0,0.0,0.0,0.2169,0.9637,0.0976,0.6263,0.5312,-0.4628,-0.3337
966,0.0,0.0,0.0,0.0,0.0,0.0,0.2095,0.9595,0.1004,0.6279,0.5314,-0.4619,-0.3316
967,0.0,0.0,0.0,0.0,0.0,0.0,0.2182,0.9729,0.0986,0.6248,0.5312,-0.4638,-0.3352
968,0.0,0.0,0.0,0.0,0.0,0.0,0.2213,0.9797,0.0963,0.6226,0.5297,-0.4658,-0.3390
969,0.0,0.0,0.0,0.0,0.0,0.0,0.2184,0.9812,0.0978,0.6234,0.5310,-0.4648,-0.3367
970,0.0,0.0,0.0,0.0,0.0,0.0,0.2203,0.9782,0.0991,0.6219,0.5286,-0.4665,-0.3409
971,0.0,0.0,0.0,0.0,0.0,0.0,0.2100,0.9800,0.0996,0.6196,0.5289,-0.4674,-0.3434
972,0.0,0.0,0.0,0.0,0.0,0.0,0.2106,0.9829,0.0963,0.6210,0.5285,-0.4669,-0.3423
973,0.0,0.0,0.0,0.0,0.0,0.0,0.2134,0.9769,0.1005,0.6190,0.5283,-0.4676,-0.3451
974,0.0,0.0,0.0,0.0,0.0,0.0,0.2040,0.9568,0.0914,0.6174,0.5276,-0.4679,-0.3485
975,0.0,0.0,0.0,0.0,0.0,0.0,0.2048,0.9670,0.0962,0.6184,0.5276,-0.4677,-0.3471
976,0.0,0.0,0.0,0.0,0.0,0.0,0.2019,0.9680,0.0981,0.6166,0.5275,-0.4681,-0.3498
977,0.0,0.0,0.0,0.0,0.0,0.0,0.1985,0.9715,0.0995,0.6158,0.5269,-0.4686,-0.3517
978,0.0,0.0,0.0,0.0,0.0,0.0,0.2001,0.9749,0.1024,0.6163,0.5270,-0.4683,-0.3510
979,0.0,0.0,0.0,0.0,0.0,0.0,0.1926,0.9688,0.0981,0.6149,0.5274,-0.4691,-0.3517
980,0.0,0.0,0.0,0.0,0.0,0.0,0.1837,0.9852,0.0992,0.6138,0.5289,-0.4691,-0.3513
981,0.0,0.0,0.0,0.0,0.0,0.0,0.1890,0.9816,0.1006,0.6143,0.5282,-0.4693,-0.3513
982,0.0,0.0,0.0,0.0,0.0,0.0,0.1814,0.9891,0.1001,0.6133,0.5298,-0.4688,-0.3513
983,0.0,0.0,0.0,0.0,0.0,0.0,0.1762,0.9961,0.1035,0.6121,0.5316,-0.4676,-0.3524
984,0.0,0.0,0.0,0.0,0.0,0.0,0.1792,0.9970,0.1035,0.6126,0.5308,-0.4683,-0.3515
985,0.0,0.0,0.0,0.0,0.0,0.0,0.1701,0.9885,0.1001,0.6116,0.5321,-0.4667,-0.3536
986,0.0,0.0,0.0,0.0,0.0,0.0,0.1840,0.9603,0.0933,0.6104,0.5323,-0.4658,-0.3565
987,0.0,0.0,0.0,0.0,0.0,0.0,0.1718,0.9797,0.0954,0.6112,0.5320,-0.4659,-0.3554
988,0.0,0.0,0.0,0.0,0.0,0.0,0.1789,0.9522,0.0895,0.6093,0.5335,-0.4661,-0.3561
989,0.0,0.0,0.0,0.0,0.0,0.0,0.1772,0.9620,0.0919,0.6083,0.5337,-0.4675,-0.3558
990,0.0,0.0,0.0,0.0,0.0,0.0,0.1761,0.9577,0.0924,0.6088,0.5339,-0.4666,-0.3560
991,0.0,0.0,0.0,0.0,0.0,0.0,0.1749,0.9675,0.0924,0.6079,0.5335,-0.4684,-0.3555
992,0.0,0.0,0.0,0.0,0.0,0.0,0.1825,0.9771,0.0878,0.6071,0.5338,-0.4703,-0.3540
993,0.0,0.0,0.0,0.0,0.0,0.0,0.1787,0.9800,0.0925,0.6077,0.5334,-0.4692,-0.3551
994,0.0,0.0,0.0,0.0,0.0,0.0,0.1921,0.9874,0.0935,0.6070,0.5329,-0.4715,-0.3539
995,0.0,0.0,0.0,0.0,0.0,0.0,0.1882,0.9880,0.0954,0.6066,0.5322,-0.4735,-0.3529
996,0.0,0.0,0.0,0.0,0.0,0.0,0.1911,1.0050,0.0951,0.6070,0.5320,-0.4726,-0.3537
997,0.0,0.0,0.0,0.0,0.0,0.0,0.1999,0.9848,0.0935,0.6066,0.5324,-0.4737,-0.3524
998,0.0,0.0,0.0,0.0,0.0,0.0,0.2028,0.9463,0.0810,0.6063,0.5335,-0.4752,-0.3492
999,0.0,0.0,0.0,0.0,0.0,0.0,0.2024,0.9516,0.0829,0.6065,0.5326,-0.4744,-0.3513
1000,0.0,0.0,0.0,0.0,0.0,0.0,0.2136,0.9674,0.0859,0.6066,0.5343,-0.4759,-0.3465
1001,0.0,0.0,0.0,0.0,0.0,0.0,0.2302,0.9471,0.0707,0.6072,0.5328,-0.4791,-0.3432
1002,0.0,0.0,0.0,0.0,0.0,0.0,0.2235,0.9696,0.0793,0.6067,0.5344,-0.4774,-0.3441
1003,0.0,0.0,0.0,0.0,0.0,0.0,0.2367,0.9341,0.0762,0.6083,0.5301,-0.4816,-0.3422
1004,0.0,0.0,0.0,0.0,0.0,0.0,0.2515,0.9727,0.0793,0.6093,0.5278,-0.4860,-0.3376
1005,0.0,0.0,0.0,0.0,0.0,0.0,0.2323,0.9709,0.0741,0.6088,0.5290,-0.4838,-0.3398
1006,0.0,0.0,0.0,0.0,0.0,0.0,0.2861,1.0051,0.0952,0.6111,0.5264,-0.4875,-0.3344
1007,0.0,0.0,0.0,0.0,0.0,0.0,0.2686,1.0279,0.1076,0.6130,0.5248,-0.4895,-0.3304
1008,0.0,0.0,0.0,0.0,0.0,0.0,0.2658,0.9966,0.0843,0.6125,0.5256,-0.4885,-0.3316
1009,0.0,0.0,0.0,0.0,0.0,0.0,0.2594,0.9955,0.1026,0.6143,0.5246,-0.4886,-0.3298
1010,0.0,0.0,0.0,0.0,0.0,0.0,0.2472,0.9614,0.0896,0.6165,0.5244,-0.4877,-0.3272
1011,0.0,0.0,0.0,0.0,0.0,0.0,0.2637,0.9368,0.0720,0.6152,0.5249,-0.4877,-0.3289
1012,0.0,0.0,0.0,0.0,0.0,0.0,0.2313,0.9532,0.0848,0.6176,0.5255,-0.4873,-0.3238
1013,0.0,0.0,0.0,0.0,0.0,0.0,0.2296,0.9796,0.0822,0.6208,0.5272,-0.4855,-0.3177
1014,0.0,0.0,0.0,0.0,0.0,0.0,0.2363,0.9749,0.0916,0.6194,0.5267,-0.4862,-0.3203
1015,0.0,0.0,0.0,0.0,0.0,0.0,0.2351,0.9653,0.0802,0.6220,0.5279,-0.4847,-0.3153
1016,0.0,0.0,0.0,0.0,0.0,0.0,0.2379,1.0149,0.0905,0.6265,0.5258,-0.4814,-0.3151
1017,0.0,0.0,0.0,0.0,0.0,0.0,0.2454,1.0030,0.0909,0.6242,0.5274,-0.4831,-0.3144
1018,0.0,0.0,0.0,0.0,0.0,0.0,0.2271,0.9786,0.0911,0.6281,0.5250,-0.4798,-0.3158
1019,0.0,0.0,0.0,0.0,0.0,0.0,0.2247,0.9791,0.0973,0.6306,0.5244,-0.4767,-0.3163
1020,0.0,0.0,0.0,0.0,0.0,0.0,0.2274,0.9864,0.0940,0.6293,0.5250,-0.4782,-0.3158
1021,0.0,0.0,0.0,0.0,0.0,0.0,0.2214,0.9825,0.1044,0.6324,0.5235,-0.4747,-0.3173
1022,0.0,0.0,0.0,0.0,0.0,0.0,0.2216,0.9566,0.1027,0.6343,0.5241,-0.4710,-0.3180
1023,0.0,0.0,0.0,0.0,0.0,0.0,0.2127,0.9711,0.0995,0.6333,0.5240,-0.4727,-0.3177
1024,0.0,0.0,0.0,0.0,0.0,0.0,0.2104,0.9574,0.1056,0.6355,0.5234,-0.4696,-0.3189
1025,0.0,0.0,0.0,0.0,0.0,0.0,0.1993,0.9291,0.0936,0.6369,0.5230,-0.4672,-0.3202
1026,0.0,0.0,0.0,0.0,0.0,0.0,0.2035,0.9576,0.1046,0.6365,0.5230,-0.4681,-0.3197
1027,0.0,0.0,0.0,0.0,0.0,0.0,0.2037,0.9269,0.0982,0.6367,0.5230,-0.4672,-0.3207
1028,0.0,0.0,0.0,0.0,0.0,0.0,0.1927,0.9900,0.1171,0.6350,0.5246,-0.4672,-0.3216
1029,0.0,0.0,0.0,0.0,0.0,0.0,0.1939,0.9832,0.1138,0.6360,0.5237,-0.4672,-0.3209
1030,0.0,0.0,0.0,0.0,0.0,0.0,0.2036,0.9794,0.1156,0.6338,0.5254,-0.4670,-0.3228
1031,0.0,0.0,0.0,0.0,0.0,0.0,0.2195,0.9697,0.1104,0.6303,0.5287,-0.4667,-0.3246
1032,0.0,0.0,0.0,0.0,0.0,0.0,0.2140,0.9641,0.1094,0.6320,0.5272,-0.4668,-0.3236
1033,0.0,0.0,0.0,0.0,0.0,0.0,0.2109,0.9749,0.1071,0.6283,0.5304,-0.4668,-0.3256
1034,0.0,0.0,0.0,0.0,0.0,0.0,0.2015,0.9728,0.1090,0.6255,0.5314,-0.4673,-0.3287
1035,0.0,0.0,0.0,0.0,0.0,0.0,0.2041,0.9615,0.1028,0.6266,0.5312,-0.4671,-0.3271
1036,0.0,0.0,0.0,0.0,0.0,0.0,0.1959,0.9832,0.1100,0.6243,0.5320,-0.4673,-0.3299
1037,0.0,0.0,0.0,0.0,0.0,0.0,0.1945,0.9686,0.1066,0.6219,0.5330,-0.4679,-0.3320
1038,0.0,0.0,0.0,0.0,0.0,0.0,0.1907,0.9717,0.1057,0.6231,0.5325,-0.4674,-0.3313
1039,0.0,0.0,0.0,0.0,0.0,0.0,0.1923,0.9774,0.1081,0.6208,0.5339,-0.4683,-0.3319
1040,0.0,0.0,0.0,0.0,0.0,0.0,0.1880,0.9640,0.0985,0.6196,0.5341,-0.4688,-0.3333
1041,0.0,0.0,0.0,0.0,0.0,0.0,0.1844,0.9738,0.1047,0.6203,0.5341,-0.4684,-0.3325
1042,0.0,0.0,0.0,0.0,0.0,0.0,0.1935,0.9673,0.0986,0.6187,0.5344,-0.4693,-0.3337
1043,0.0,0.0,0.0,0.0,0.0,0.0,0.1929,0.9630,0.0919,0.6174,0.5349,-0.4701,-0.3343
1044,0.0,0.0,0.0,0.0,0.0,0.0,0.1918,0.9742,0.0967,0.6180,0.5348,-0.4696,-0.3338
1045,0.0,0.0,0.0,0.0,0.0,0.0,0.1934,0.9615,0.0938,0.6167,0.5352,-0.4706,-0.3344
1046,0.0,0.0,0.0,0.0,0.0,0.0,0.1872,0.9847,0.0935,0.6155,0.5354,-0.4716,-0.3348
1047,0.0,0.0,0.0,0.0,0.0,0.0,0.1910,0.9835,0.0963,0.6161,0.5357,-0.4710,-0.3340
1048,0.0,0.0,0.0,0.0,0.0,0.0,0.1937,0.9903,0.0950,0.6153,0.5347,-0.4720,-0.3357
1049,0.0,0.0,0.0,0.0,0.0,0.0,0.1967,0.9937,0.0884,0.6134,0.5367,-0.4728,-0.3351
1050,0.0,0.0,0.0,0.0,0.0,0.0,0.1940,1.0035,0.0927,0.6145,0.5354,-0.4724,-0.3356
1051,0.0,0.0,0.0,0.0,0.0,0.0,0.1969,0.9821,0.0822,0.6125,0.5375,-0.4731,-0.3347
1052,0.0,0.0,0.0,0.0,0.0,0.0,0.2011,0.9936,0.0903,0.6123,0.5374,-0.4727,-0.3360
1053,0.0,0.0,0.0,0.0,0.0,0.0,0.2002,0.9960,0.0936,0.6121,0.5379,-0.4731,-0.3349
1054,0.0,0.0,0.0,0.0,0.0,0.0,0.1952,0.9747,0.0906,0.6121,0.5376,-0.4725,-0.3363
1055,0.0,0.0,0.0,0.0,0.0,0.0,0.2065,0.9422,0.0866,0.6122,0.5385,-0.4717,-0.3357
1056,0.0,0.0,0.0,0.0,0.0,0.0,0.1956,0.9717,0.0939,0.6120,0.5382,-0.4721,-0.3360
1057,0.0,0.0,0.0,0.0,0.0,0.0,0.2192,0.9223,0.0803,0.6128,0.5383,-0.4719,-0.3347
1058,0.0,0.0,0.0,0.0,0.0,0.0,0.2201,0.9905,0.0927,0.6140,0.5388,-0.4735,-0.3293
1059,0.0,0.0,0.0,0.0,0.0,0.0,0.2120,0.9450,0.0838,0.6133,0.5385,-0.4727,-0.3322
1060,0.0,0.0,0.0,0.0,0.0,0.0,0.2142,0.9529,0.0754,0.6149,0.5387,-0.4745,-0.3265
1061,0.0,0.0,0.0,0.0,0.0,0.0,0.2115,1.0319,0.0883,0.6171,0.5395,-0.4749,-0.3202
1062,0.0,0.0,0.0,0.0,0.0,0.0,0.2113,0.9880,0.0832,0.6161,0.5387,-0.4750,-0.3234
1063,0.0,0.0,0.0,0.0,0.0,0.0,0.2154,0.9958,0.0748,0.6177,0.5403,-0.4749,-0.3178
1064,0.0,0.0,0.0,0.0,0.0,0.0,0.2336,0.9811,0.0719,0.6210,0.5394,-0.4742,-0.3139
1065,0.0,0.0,0.0,0.0,0.0,0.0,0.2355,0.9786,0.0737,0.6193,0.5399,-0.4745,-0.3159
1066,0.0,0.0,0.0,0.0,0.0,0.0,0.2414,0.9882,0.2033,0.6259,0.5374,-0.4728,-0.3096
1067,0.0,0.0,0.0,0.0,0.0,0.0,0.2348,0.9902,0.0875,0.6272,0.5377,-0.4722,-0.3074
1068,0.0,0.0,0.0,0.0,0.0,0.0,0.2383,0.98315,0.0919,0.62955,0.5359499999999999,-0.47145000000000004,-0.30685
1069,0.0,0.0,0.0,0.0,0.0,0.0,0.2418,0.9761,0.0963,0.6319,0.5342,-0.4707,-0.3063
1070,0.0,0.0,0.0,0.0,0.0,0.0,0.2404,0.9610,0.0952,0.6345,0.5320,-0.4697,-0.3061
1071,0.0,0.0,0.0,0.0,0.0,0.0,0.24845,0.9517,0.0975,0.63715,0.53005,-0.46875,-0.3055
1072,0.0,0.0,0.0,0.0,0.0,0.0,0.2565,0.9424,0.0998,0.6398,0.5281,-0.4678,-0.3049
1073,0.0,0.0,0.0,0.0,0.0,0.0,0.2435,0.9525,0.1037,0.6422,0.5270,-0.4670,-0.3031
1074,0.0,0.0,0.0,0.0,0.0,0.0,0.2444,0.9576,0.10605,0.6438999999999999,0.5266500000000001,-0.46640000000000004,-0.30084999999999995
1075,0.0,0.0,0.0,0.0,0.0,0.0,0.2453,0.9627,0.1084,0.6456,0.5263,-0.4658,-0.2986
1076,0.0,0.0,0.0,0.0,0.0,0.0,0.2208,0.9809,0.1114,0.6466,0.5268,-0.4651,-0.2967
1077,0.0,0.0,0.0,0.0,0.0,0.0,0.22449999999999998,0.99075,0.11735000000000001,0.6471,0.52755,-0.46385,-0.2963
1078,0.0,0.0,0.0,0.0,0.0,0.0,0.2282,1.0006,0.1233,0.6476,0.5283,-0.4626,-0.2959
1079,0.0,0.0,0.0,0.0,0.0,0.0,0.2303,0.9698,0.1151,0.6479,0.5284,-0.4615,-0.2966
1080,0.0,0.0,0.0,0.0,0.0,0.0,0.23020000000000002,0.96565,0.11645,0.6479,0.5286,-0.4605,-0.29784999999999995
1081,0.0,0.0,0.0,0.0,0.0,0.0,0.2301,0.9615,0.1178,0.6479,0.5288,-0.4595,-0.2991
1082,0.0,0.0,0.0,0.0,0.0,0.0,0.2332,0.9707,0.1184,0.6474,0.5296,-0.4584,-0.3004
1083,0.0,0.0,0.0,0.0,0.0,0.0,0.2317,0.9601999999999999,0.11995,0.6468499999999999,0.5305,-0.45775,-0.3009
1084,0.0,0.0,0.0,0.0,0.0,0.0,0.2302,0.9497,0.1215,0.6463,0.5314,-0.4571,-0.3014
1085,0.0,0.0,0.0,0.0,0.0,0.0,0.2334,0.9409,0.1177,0.6464,0.5309,-0.4567,-0.3029
1086,0.0,0.0,0.0,0.0,0.0,0.0,0.22785,0.9432499999999999,0.1189,0.64585,0.53125,-0.45685,-0.30315000000000003
1087,0.0,0.0,0.0,0.0,0.0,0.0,0.2223,0.9456,0.1201,0.6453,0.5316,-0.4570,-0.3034
1088,0.0,0.0,0.0,0.0,0.0,0.0,0.2346,0.9492,0.1159,0.6449,0.5312,-0.4577,-0.3039
1089,0.0,0.0,0.0,0.0,0.0,0.0,0.21815,0.9745,0.12245,0.6447,0.531,-0.4578,-0.3046
1090,0.0,0.0,0.0,0.0,0.0,0.0,0.2017,0.9998,0.1290,0.6445,0.5308,-0.4579,-0.3053
1091,0.0,0.0,0.0,0.0,0.0,0.0,0.2067,0.9851,0.1227,0.6441,0.5307,-0.4571,-0.3073
1092,0.0,0.0,0.0,0.0,0.0,0.0,0.2022,0.97235,0.11815,0.6428,0.5321499999999999,-0.45665,-0.30820000000000003
1093,0.0,0.0,0.0,0.0,0.0,0.0,0.1977,0.9596,0.1136,0.6415,0.5336,-0.4562,-0.3091
1094,0.0,0.0,0.0,0.0,0.0,0.0,0.2007,0.9629,0.1164,0.6403,0.5348,-0.4556,-0.3105
1095,0.0,0.0,0.0,0.0,0.0,0.0,0.19905,0.95615,0.11330000000000001,0.6392,0.53495,-0.45555,-0.3126
1096,0.0,0.0,0.0,0.0,0.0,0.0,0.1974,0.9494,0.1102,0.6381,0.5351,-0.4555,-0.3147
1097,0.0,0.0,0.0,0.0,0.0,0.0,0.1949,0.9651,0.1094,0.6361,0.5363,-0.4561,-0.3158
1098,0.0,0.0,0.0,0.0,0.0,0.0,0.1943,0.96975,0.11085,0.63415,0.53825,-0.45575,-0.3169
1099,0.0,0.0,0.0,0.0,0.0,0.0,0.1937,0.9744,0.1123,0.6322,0.5402,-0.4554,-0.3180
1100,0.0,0.0,0.0,0.0,0.0,0.0,0.1854,0.9726,0.0882,0.6304,0.5426,-0.4543,-0.3190
1101,0.0,0.0,0.0,0.0,0.0,0.0,0.19485000000000002,0.96,0.0799,0.6263,0.5444,-0.4567,-0.3206
1102,0.0,0.0,0.0,0.0,0.0,0.0,0.2043,0.9474,0.0716,0.6222,0.5462,-0.4591,-0.3222
1103,0.0,0.0,0.0,0.0,0.0,0.0,0.2008,0.9808,0.0667,0.6189,0.5479,-0.4616,-0.3219
1104,0.0,0.0,0.0,0.0,0.0,0.0,0.19805,0.97785,0.056549999999999996,0.6152500000000001,0.55015,-0.46415,-0.32145
1105,0.0,0.0,0.0,0.0,0.0,0.0,0.1953,0.9749,0.0464,0.6116,0.5524,-0.4667,-0.3210
1106,0.0,0.0,0.0,0.0,0.0,0.0,0.2066,1.0292,0.0482,0.6082,0.5543,-0.4693,-0.3202
1107,0.0,0.0,0.0,0.0,0.0,0.0,0.20925,1.0013999999999998,0.0395,0.60615,0.5543,-0.47104999999999997,-0.32155
1108,0.0,0.0,0.0,0.0,0.0,0.0,0.2119,0.9736,0.0308,0.6041,0.5543,-0.4728,-0.3229
1109,0.0,0.0,0.0,0.0,0.0,0.0,0.2156,0.9993,0.0362,0.6036,0.5526,-0.4737,-0.3253
1110,0.0,0.0,0.0,0.0,0.0,0.0,0.2137,0.99325,0.0376,0.60295,0.5511999999999999,-0.4748,-0.3274
1111,0.0,0.0,0.0,0.0,0.0,0.0,0.2118,0.9872,0.0390,0.6023,0.5498,-0.4759,-0.3295
1112,0.0,0.0,0.0,0.0,0.0,0.0,0.2051,0.9737,0.0398,0.6011,0.5495,-0.4770,-0.3304
1113,0.0,0.0,0.0,0.0,0.0,0.0,0.20425,0.97,0.04445,0.60015,0.5489999999999999,-0.47785,-0.33175
1114,0.0,0.0,0.0,0.0,0.0,0.0,0.2034,0.9663,0.0491,0.5992,0.5485,-0.4787,-0.3331
1115,0.0,0.0,0.0,0.0,0.0,0.0,0.1995,0.9684,0.0492,0.5987,0.5475,-0.4797,-0.3342
1116,0.0,0.0,0.0,0.0,0.0,0.0,0.19495,0.98115,0.054,0.5981000000000001,0.5468999999999999,-0.48075,-0.33475
1117,0.0,0.0,0.0,0.0,0.0,0.0,0.1904,0.9939,0.0588,0.5975,0.5463,-0.4818,-0.3353
1118,0.0,0.0,0.0,0.0,0.0,0.0,0.1817,0.9976,0.0574,0.5971,0.5453,-0.4824,-0.3367
1119,0.0,0.0,0.0,0.0,0.0,0.0,0.1764,1.0091,0.0655,0.5964499999999999,0.5453,-0.48255000000000003,-0.3377
1120,0.0,0.0,0.0,0.0,0.0,0.0,0.1711,1.0206,0.0736,0.5958,0.5453,-0.4827,-0.3387
1121,0.0,0.0,0.0,0.0,0.0,0.0,0.1786,0.9932,0.0616,0.5955,0.5450,-0.4825,-0.3400
1122,0.0,0.0,0.0,0.0,0.0,0.0,0.1766,0.99075,0.06534999999999999,0.59575,0.5444500000000001,-0.48245,-0.34040000000000004
1123,0.0,0.0,0.0,0.0,0.0,0.0,0.1746,0.9883,0.0691,0.5960,0.5439,-0.4824,-0.3408
1124,0.0,0.0,0.0,0.0,0.0,0.0,0.1714,0.9783,0.0643,0.5966,0.5435,-0.4822,-0.3410
1125,0.0,0.0,0.0,0.0,0.0,0.0,0.17504999999999998,0.9691,0.0673,0.5971500000000001,0.5420499999999999,-0.48255000000000003,-0.34185
1126,0.0,0.0,0.0,0.0,0.0,0.0,0.1787,0.9599,0.0703,0.5977,0.5406,-0.4829,-0.3427
1127,0.0,0.0,0.0,0.0,0.0,0.0,0.1900,0.9790,0.0779,0.5996,0.5381,-0.4829,-0.3432
1128,0.0,0.0,0.0,0.0,0.0,0.0,0.1941,0.9695499999999999,0.07995,0.60175,0.5355000000000001,-0.483,-0.34325
1129,0.0,0.0,0.0,0.0,0.0,0.0,0.1982,0.9601,0.0820,0.6039,0.5329,-0.4831,-0.3433
1130,0.0,0.0,0.0,0.0,0.0,0.0,0.2034,0.9711,0.0868,0.6060,0.5311,-0.4833,-0.3422
1131,0.0,0.0,0.0,0.0,0.0,0.0,0.20665,0.97295,0.0878,0.608,0.5292,-0.48345,-0.34145000000000003
1132,0.0,0.0,0.0,0.0,0.0,0.0,0.2099,0.9748,0.0888,0.6100,0.5273,-0.4836,-0.3407
1133,0.0,0.0,0.0,0.0,0.0,0.0,0.2190,0.9661,0.0920,0.6118,0.5248,-0.4839,-0.3408
1134,0.0,0.0,0.0,0.0,0.0,0.0,0.22210000000000002,0.9636,0.09079999999999999,0.61295,0.5238,-0.4843,-0.3397
1135,0.0,0.0,0.0,0.0,0.0,0.0,0.2252,0.9611,0.0896,0.6141,0.5228,-0.4847,-0.3386
1136,0.0,0.0,0.0,0.0,0.0,0.0,0.2315,0.9579,0.0929,0.6150,0.5216,-0.4855,-0.3377
1137,0.0,0.0,0.0,0.0,0.0,0.0,0.23745,0.96085,0.0955,0.61585,0.5206999999999999,-0.48619999999999997,-0.3365
1138,0.0,0.0,0.0,0.0,0.0,0.0,0.2434,0.9638,0.0981,0.6167,0.5198,-0.4869,-0.3353
1139,0.0,0.0,0.0,0.0,0.0,0.0,0.2494,0.9681,0.0967,0.6176,0.5186,-0.4877,-0.3342
1140,0.0,0.0,0.0,0.0,0.0,0.0,0.24985000000000002,0.96625,0.08985,0.6182000000000001,0.5175,-0.48860000000000003,-0.3335
1141,0.0,0.0,0.0,0.0,0.0,0.0,0.2503,0.9644,0.0830,0.6188,0.5164,-0.4895,-0.3328
1142,0.0,0.0,0.0,0.0,0.0,0.0,0.2418,0.9767,0.0568,0.6158,0.5161,-0.4925,-0.3345
1143,0.0,0.0,0.0,0.0,0.0,0.0,0.22099999999999997,0.9587,0.0618,0.60885,0.515,-0.49805,-0.34045000000000003
1144,0.0,0.0,0.0,0.0,0.0,0.0,0.2002,0.9407,0.0668,0.6019,0.5139,-0.5036,-0.3464
1145,0.0,0.0,0.0,0.0,0.0,0.0,0.2190,0.9502,0.0796,0.5998,0.5110,-0.5072,-0.3492
1146,0.0,0.0,0.0,0.0,0.0,0.0,0.28085,0.97295,0.08385000000000001,0.59935,0.50925,-0.5096,-0.34895
1147,0.0,0.0,0.0,0.0,0.0,0.0,0.3427,0.9957,0.0881,0.5989,0.5075,-0.5120,-0.3487
1148,0.0,0.0,0.0,0.0,0.0,0.0,0.3075,0.9809,0.0677,0.5997,0.5073,-0.5126,-0.3468
1149,0.0,0.0,0.0,0.0,0.0,0.0,0.28500000000000003,0.98,0.06035,0.60065,0.50705,-0.5122,-0.34604999999999997
1150,0.0,0.0,0.0,0.0,0.0,0.0,0.2625,0.9791,0.0530,0.6016,0.5068,-0.5118,-0.3453
1151,0.0,0.0,0.0,0.0,0.0,0.0,0.2942,0.9753,0.0775,0.6029,0.5057,-0.5114,-0.3453
1152,0.0,0.0,0.0,0.0,0.0,0.0,0.28755,0.966,0.0758,0.6052,0.5058,-0.5098,-0.34345000000000003
1153,0.0,0.0,0.0,0.0,0.0,0.0,0.2809,0.9567,0.0741,0.6075,0.5059,-0.5082,-0.3416
1154,0.0,0.0,0.0,0.0,0.0,0.0,0.3076,0.9665,0.0878,0.6123,0.5071,-0.5045,-0.3367
1155,0.0,0.0,0.0,0.0,0.0,0.0,0.2779,0.9637,0.07150000000000001,0.61535,0.5093,-0.5014,-0.33240000000000003
1156,0.0,0.0,0.0,0.0,0.0,0.0,0.2482,0.9609,0.0552,0.6184,0.5115,-0.4983,-0.3281
1157,0.0,0.0,0.0,0.0,0.0,0.0,0.2656,0.9694,0.0718,0.6208,0.5117,-0.4962,-0.3265
1158,0.0,0.0,0.0,0.0,0.0,0.0,0.2633,0.9661,0.0713,0.6217,0.5128,-0.49495,-0.32484999999999997
1159,0.0,0.0,0.0,0.0,0.0,0.0,0.2610,0.9628,0.0708,0.6226,0.5139,-0.4937,-0.3232
1160,0.0,0.0,0.0,0.0,0.0,0.0,0.2641,0.9670,0.0755,0.6233,0.5146,-0.4929,-0.3222
1161,0.0,0.0,0.0,0.0,0.0,0.0,0.26034999999999997,0.9649,0.07525,0.62375,0.5150999999999999,-0.4921,-0.3217
1162,0.0,0.0,0.0,0.0,0.0,0.0,0.2566,0.9628,0.0750,0.6242,0.5156,-0.4913,-0.3212
1163,0.0,0.0,0.0,0.0,0.0,0.0,0.2532,0.9633,0.0812,0.6248,0.5161,-0.4903,-0.3208
1164,0.0,0.0,0.0,0.0,0.0,0.0,0.24075,0.9649000000000001,0.06445,0.62405,0.5165,-0.49019999999999997,-0.32165
1165,0.0,0.0,0.0,0.0,0.0,0.0,0.2283,0.9665,0.0477,0.6233,0.5169,-0.4901,-0.3225
1166,0.0,0.0,0.0,0.0,0.0,0.0,0.2122,0.9652,0.0421,0.6153,0.5167,-0.4948,-0.3310
1167,0.0,0.0,0.0,0.0,0.0,0.0,0.24395,0.9656499999999999,0.07485,0.6145499999999999,0.5142500000000001,-0.49615,-0.3341
1168,0.0,0.0,0.0,0.0,0.0,0.0,0.2757,0.9661,0.1076,0.6138,0.5118,-0.4975,-0.3372
1169,0.0,0.0,0.0,0.0,0.0,0.0,0.2851,0.9849,0.1115,0.6185,0.5123,-0.4946,-0.3322
1170,0.0,0.0,0.0,0.0,0.0,0.0,0.25645,0.9759,0.08505,0.6219,0.5153,-0.49145,-0.32575
1171,0.0,0.0,0.0,0.0,0.0,0.0,0.2278,0.9669,0.0586,0.6253,0.5183,-0.4883,-0.3193
1172,0.0,0.0,0.0,0.0,0.0,0.0,0.2491,0.9757,0.0798,0.6265,0.5190,-0.4870,-0.3178
1173,0.0,0.0,0.0,0.0,0.0,0.0,0.2493,0.97365,0.08405,0.6274,0.5192,-0.4859,-0.31735
1174,0.0,0.0,0.0,0.0,0.0,0.0,0.2495,0.9716,0.0883,0.6283,0.5194,-0.4848,-0.3169
1175,0.0,0.0,0.0,0.0,0.0,0.0,0.2519,0.9706,0.0869,0.6286,0.5206,-0.4838,-0.3158
1176,0.0,0.0,0.0,0.0,0.0,0.0,0.2511,0.9679,0.089,0.62905,0.5216,-0.48275,-0.3148
1177,0.0,0.0,0.0,0.0,0.0,0.0,0.2503,0.9652,0.0911,0.6295,0.5226,-0.4817,-0.3138
1178,0.0,0.0,0.0,0.0,0.0,0.0,0.2458,0.9644,0.0901,0.6304,0.5231,-0.4805,-0.3133
1179,0.0,0.0,0.0,0.0,0.0,0.0,0.2452,0.95955,0.0889,0.63105,0.5242,-0.47919999999999996,-0.31205000000000005
1180,0.0,0.0,0.0,0.0,0.0,0.0,0.2446,0.9547,0.0877,0.6317,0.5253,-0.4779,-0.3108
1181,0.0,0.0,0.0,0.0,0.0,0.0,0.2407,0.9572,0.0891,0.6321,0.5269,-0.4768,-0.3091
1182,0.0,0.0,0.0,0.0,0.0,0.0,0.23854999999999998,0.95855,0.08725,0.63245,0.52825,-0.4758,-0.3075
1183,0.0,0.0,0.0,0.0,0.0,0.0,0.2364,0.9599,0.0854,0.6328,0.5296,-0.4748,-0.3059
1184,0.0,0.0,0.0,0.0,0.0,0.0,0.2389,0.9617,0.0844,0.6331,0.5313,-0.4740,-0.3037
1185,0.0,0.0,0.0,0.0,0.0,0.0,0.23399999999999999,0.96095,0.08085,0.6342,0.5322,-0.4729,-0.30155
1186,0.0,0.0,0.0,0.0,0.0,0.0,0.2291,0.9602,0.0773,0.6353,0.5331,-0.4718,-0.2994
1187,0.0,0.0,0.0,0.0,0.0,0.0,0.2310,0.9747,0.0826,0.6355,0.5348,-0.4711,-0.2970
1188,0.0,0.0,0.0,0.0,0.0,0.0,0.2257,0.9778,0.081,0.63615,0.53605,-0.47004999999999997,-0.2949
1189,0.0,0.0,0.0,0.0,0.0,0.0,0.2204,0.9809,0.0794,0.6368,0.5373,-0.4690,-0.2928
1190,0.0,0.0,0.0,0.0,0.0,0.0,0.2211,0.9897,0.0813,0.6368,0.5400,-0.4679,-0.2897
1191,0.0,0.0,0.0,0.0,0.0,0.0,0.22194999999999998,0.9843,0.0808,0.63775,0.5411,-0.4664,-0.28800000000000003
1192,0.0,0.0,0.0,0.0,0.0,0.0,0.2228,0.9789,0.0803,0.6387,0.5422,-0.4649,-0.2863
1193,0.0,0.0,0.0,0.0,0.0,0.0,0.2274,0.9710,0.0788,0.6393,0.5434,-0.4637,-0.2845
1194,0.0,0.0,0.0,0.0,0.0,0.0,0.2332,0.96785,0.08045,0.64035,0.5437000000000001,-0.46285,-0.28295
1195,0.0,0.0,0.0,0.0,0.0,0.0,0.2390,0.9647,0.0821,0.6414,0.5440,-0.4620,-0.2814
1196,0.0,0.0,0.0,0.0,0.0,0.0,0.2435,0.9665,0.0845,0.6426,0.5441,-0.4613,-0.2796
1197,0.0,0.0,0.0,0.0,0.0,0.0,0.24995,0.9607,0.08230000000000001,0.64375,0.54405,-0.46094999999999997,-0.27775
1198,0.0,0.0,0.0,0.0,0.0,0.0,0.2564,0.9549,0.0801,0.6449,0.5440,-0.4606,-0.2759
1199,0.0,0.0,0.0,0.0,0.0,0.0,0.2603,0.9544,0.0778,0.6458,0.5440,-0.4604,-0.2738
1200,0.0,0.0,0.0,0.0,0.0,0.0,0.2602,0.95975,0.0797,0.6468,0.54385,-0.46035,-0.27185
1201,0.0,0.0,0.0,0.0,0.0,0.0,0.2601,0.9651,0.0816,0.6478,0.5437,-0.4603,-0.2699
1202,0.0,0.0,0.0,0.0,0.0,0.0,0.2572,0.9681,0.0817,0.6485,0.5436,-0.4603,-0.2685
1203,0.0,0.0,0.0,0.0,0.0,0.0,0.2621,0.96795,0.08145,0.6493,0.5434,-0.45994999999999997,-0.26755
1204,0.0,0.0,0.0,0.0,0.0,0.0,0.2670,0.9678,0.0812,0.6501,0.5432,-0.4596,-0.2666
1205,0.0,0.0,0.0,0.0,0.0,0.0,0.2704,0.9667,0.0821,0.6508,0.5431,-0.4591,-0.2660
1206,0.0,0.0,0.0,0.0,0.0,0.0,0.27049999999999996,0.96185,0.08065,0.6513,0.5433,-0.4585,-0.26535
1207,0.0,0.0,0.0,0.0,0.0,0.0,0.2706,0.9570,0.0792,0.6518,0.5435,-0.4579,-0.2647
1208,0.0,0.0,0.0,0.0,0.0,0.0,0.2700,0.9516,0.0773,0.6519,0.5446,-0.4573,-0.2632
1209,0.0,0.0,0.0,0.0,0.0,0.0,0.26985000000000003,0.9558,0.07615,0.65225,0.5448,-0.45699999999999996,-0.26244999999999996
1210,0.0,0.0,0.0,0.0,0.0,0.0,0.2697,0.9600,0.0750,0.6526,0.5450,-0.4567,-0.2617
1211,0.0,0.0,0.0,0.0,0.0,0.0,0.2710,0.9692,0.0789,0.6524,0.5458,-0.4566,-0.2606
1212,0.0,0.0,0.0,0.0,0.0,0.0,0.2712,0.96845,0.07794999999999999,0.65225,0.5468,-0.45630000000000004,-0.25939999999999996
1213,0.0,0.0,0.0,0.0,0.0,0.0,0.2714,0.9677,0.0770,0.6521,0.5478,-0.4560,-0.2582
1214,0.0,0.0,0.0,0.0,0.0,0.0,0.2698,0.9634,0.0746,0.6521,0.5483,-0.4558,-0.2578
1215,0.0,0.0,0.0,0.0,0.0,0.0,0.2697,0.9673,0.07535,0.652,0.5487500000000001,-0.4554,-0.25765
1216,0.0,0.0,0.0,0.0,0.0,0.0,0.2696,0.9712,0.0761,0.6519,0.5492,-0.4550,-0.2575
1217,0.0,0.0,0.0,0.0,0.0,0.0,0.2706,0.9726,0.0756,0.6513,0.5507,-0.4544,-0.2570
1218,0.0,0.0,0.0,0.0,0.0,0.0,0.26825,0.9669000000000001,0.07250000000000001,0.651,0.5512999999999999,-0.4537,-0.25770000000000004
1219,0.0,0.0,0.0,0.0,0.0,0.0,0.2659,0.9612,0.0694,0.6507,0.5519,-0.4530,-0.2584
1220,0.0,0.0,0.0,0.0,0.0,0.0,0.2674,0.9654,0.0737,0.6506,0.5522,-0.4523,-0.2593
1221,0.0,0.0,0.0,0.0,0.0,0.0,0.26839999999999997,0.96485,0.0758,0.6506,0.5526,-0.45145,-0.25985
1222,0.0,0.0,0.0,0.0,0.0,0.0,0.2694,0.9643,0.0779,0.6506,0.5530,-0.4506,-0.2604
1223,0.0,0.0,0.0,0.0,0.0,0.0,0.2698,0.9614,0.0793,0.6508,0.5532,-0.4500,-0.2608
1224,0.0,0.0,0.0,0.0,0.0,0.0,0.26985,0.95575,0.07944999999999999,0.6507000000000001,0.55355,-0.4497,-0.2607
1225,0.0,0.0,0.0,0.0,0.0,0.0,0.2699,0.9501,0.0796,0.6506,0.5539,-0.4494,-0.2606
1226,0.0,0.0,0.0,0.0,0.0,0.0,0.2705,0.9540,0.0820,0.6504,0.5546,-0.4493,-0.2599
1227,0.0,0.0,0.0,0.0,0.0,0.0,0.271,0.95375,0.08180000000000001,0.6506000000000001,0.55445,-0.4494,-0.25955
1228,0.0,0.0,0.0,0.0,0.0,0.0,0.2715,0.9535,0.0816,0.6508,0.5543,-0.4495,-0.2592
1229,0.0,0.0,0.0,0.0,0.0,0.0,0.2722,0.9603,0.0816,0.6511,0.5539,-0.4494,-0.2593
1230,0.0,0.0,0.0,0.0,0.0,0.0,0.27135,0.96445,0.0821,0.6515500000000001,0.55355,-0.44925000000000004,-0.25925
1231,0.0,0.0,0.0,0.0,0.0,0.0,0.2705,0.9686,0.0826,0.6520,0.5532,-0.4491,-0.2592
1232,0.0,0.0,0.0,0.0,0.0,0.0,0.2720,0.9700,0.0840,0.6518,0.5538,-0.4489,-0.2587
