,Position_X,Position_Y,Position_Z,Velocity_X,Velocity_Y,Velocity_Z,Acceleration_X,Acceleration_Y,Acceleration_Z,Quaterion_0,Quaterion_1,Quaterion_2,Quaterion_3
207,0.0,0.0,0.0,0.0,0.0,0.0,-0.2304,-0.9687,-0.0119,0.6659,-0.6694,-0.1570,0.2895
208,0.0,0.0,0.0,0.0,0.0,0.0,-0.2289,-0.9682,-0.0105,0.6664,-0.6691,-0.1565,0.2894
209,0.0,0.0,0.0,0.0,0.0,0.0,-0.2255,-0.9541,-0.0127,0.6667,-0.6688,-0.1562,0.2894
210,0.0,0.0,0.0,0.0,0.0,0.0,-0.2203,-0.9473,-0.0262,0.6666,-0.6689,-0.1564,0.2894
211,0.0,0.0,0.0,0.0,0.0,0.0,-0.2198,-0.9609,-0.0284,0.6665,-0.6690,-0.1570,0.2892
212,0.0,0.0,0.0,0.0,0.0,0.0,-0.2233,-0.9663,-0.0227,0.6664,-0.6690,-0.1575,0.2889
213,0.0,0.0,0.0,0.0,0.0,0.0,-0.2171,-0.9798,-0.0168,0.6665,-0.6689,-0.1582,0.2888
214,0.0,0.0,0.0,0.0,0.0,0.0,-0.2139,-0.9803,-0.0096,0.6667,-0.6685,-0.1588,0.2888
215,0.0,0.0,0.0,0.0,0.0,0.0,-0.2140,-0.9857,-0.0039,0.6671,-0.6680,-0.1591,0.2889
216,0.0,0.0,0.0,0.0,0.0,0.0,-0.2121,-0.9886,-0.0026,0.6675,-0.6674,-0.1594,0.2891
217,0.0,0.0,0.0,0.0,0.0,0.0,-0.2047,-0.9813,-0.0026,0.6681,-0.6666,-0.1598,0.2895
218,0.0,0.0,0.0,0.0,0.0,0.0,-0.1959,-0.9697,-0.0049,0.6686,-0.6658,-0.1604,0.2898
219,0.0,0.0,0.0,0.0,0.0,0.0,-0.1910,-0.9498,-0.0066,0.6690,-0.6651,-0.1611,0.2900
220,0.0,0.0,0.0,0.0,0.0,0.0,-0.1885,-0.9450,-0.0065,0.6690,-0.6647,-0.1619,0.2903
221,0.0,0.0,0.0,0.0,0.0,0.0,-0.1842,-0.9595,-0.0050,0.6689,-0.6645,-0.1628,0.2905
222,0.0,0.0,0.0,0.0,0.0,0.0,-0.1847,-0.9760,-0.0024,0.6688,-0.6644,-0.1636,0.2907
223,0.0,0.0,0.0,0.0,0.0,0.0,-0.1881,-0.9867,-0.0049,0.6687,-0.6644,-0.1642,0.2907
224,0.0,0.0,0.0,0.0,0.0,0.0,-0.1964,-0.9886,-0.0072,0.6686,-0.6644,-0.1643,0.2908
225,0.0,0.0,0.0,0.0,0.0,0.0,-0.2062,-0.9910,-0.0051,0.6686,-0.6645,-0.1641,0.2907
226,0.0,0.0,0.0,0.0,0.0,0.0,-0.2160,-0.9920,-0.0035,0.6688,-0.6644,-0.1635,0.2907
227,0.0,0.0,0.0,0.0,0.0,0.0,-0.2204,-0.9871,0.0000,0.6692,-0.6642,-0.1628,0.2907
228,0.0,0.0,0.0,0.0,0.0,0.0,-0.2214,-0.9794,0.0002,0.6697,-0.6638,-0.1621,0.2908
229,0.0,0.0,0.0,0.0,0.0,0.0,-0.2175,-0.9668,0.0023,0.6702,-0.6633,-0.1616,0.2910
230,0.0,0.0,0.0,0.0,0.0,0.0,-0.2141,-0.9614,0.0057,0.6708,-0.6628,-0.1613,0.2911
231,0.0,0.0,0.0,0.0,0.0,0.0,-0.2093,-0.9619,0.0071,0.6712,-0.6624,-0.1611,0.2911
232,0.0,0.0,0.0,0.0,0.0,0.0,-0.1981,-0.9619,0.0083,0.6717,-0.6619,-0.1613,0.2911
233,0.0,0.0,0.0,0.0,0.0,0.0,-0.1879,-0.9610,0.0091,0.6722,-0.6614,-0.1617,0.2908
234,0.0,0.0,0.0,0.0,0.0,0.0,-0.1830,-0.9547,0.0077,0.6726,-0.6611,-0.1621,0.2903
235,0.0,0.0,0.0,0.0,0.0,0.0,-0.1824,-0.9542,0.0062,0.6730,-0.6610,-0.1626,0.2893
236,0.0,0.0,0.0,0.0,0.0,0.0,-0.1838,-0.9576,0.0018,0.6733,-0.6612,-0.1630,0.2880
237,0.0,0.0,0.0,0.0,0.0,0.0,-0.1872,-0.9595,-0.0025,0.6734,-0.6616,-0.1632,0.2866
238,0.0,0.0,0.0,0.0,0.0,0.0,-0.1900,-0.9648,-0.0064,0.6733,-0.6623,-0.1633,0.2852
239,0.0,0.0,0.0,0.0,0.0,0.0,-0.1968,-0.9765,-0.0108,0.6731,-0.6631,-0.1632,0.2839
240,0.0,0.0,0.0,0.0,0.0,0.0,-0.2021,-0.9886,-0.0148,0.6730,-0.6638,-0.1629,0.2825
241,0.0,0.0,0.0,0.0,0.0,0.0,-0.2108,-0.9915,-0.0171,0.6730,-0.6645,-0.1625,0.2814
242,0.0,0.0,0.0,0.0,0.0,0.0,-0.2147,-0.9891,-0.0199,0.6729,-0.6651,-0.1619,0.2805
243,0.0,0.0,0.0,0.0,0.0,0.0,-0.2175,-0.9837,-0.0231,0.6728,-0.6656,-0.1612,0.2798
244,0.0,0.0,0.0,0.0,0.0,0.0,-0.2204,-0.9837,-0.0226,0.6727,-0.6661,-0.1605,0.2794
245,0.0,0.0,0.0,0.0,0.0,0.0,-0.2219,-0.9847,-0.0216,0.6727,-0.6663,-0.1598,0.2793
246,0.0,0.0,0.0,0.0,0.0,0.0,-0.2200,-0.9789,-0.0206,0.6726,-0.6664,-0.1593,0.2794
247,0.0,0.0,0.0,0.0,0.0,0.0,-0.2141,-0.9697,-0.0215,0.6725,-0.6664,-0.1590,0.2798
248,0.0,0.0,0.0,0.0,0.0,0.0,-0.2040,-0.9338,-0.0379,0.6719,-0.6667,-0.1592,0.2806
249,0.0,0.0,0.0,0.0,0.0,0.0,-0.1996,-0.9532,-0.0374,0.6711,-0.6671,-0.1598,0.2812
250,0.0,0.0,0.0,0.0,0.0,0.0,-0.1925,-0.9614,-0.0285,0.6704,-0.6673,-0.1608,0.2818
251,0.0,0.0,0.0,0.0,0.0,0.0,-0.1918,-0.9847,-0.0188,0.6699,-0.6673,-0.1617,0.2823
252,0.0,0.0,0.0,0.0,0.0,0.0,-0.1910,-0.9959,-0.0108,0.6698,-0.6671,-0.1624,0.2829
253,0.0,0.0,0.0,0.0,0.0,0.0,-0.1964,-0.9896,-0.0068,0.6698,-0.6668,-0.1626,0.2834
254,0.0,0.0,0.0,0.0,0.0,0.0,-0.1974,-0.9837,-0.0052,0.6699,-0.6665,-0.1627,0.2839
255,0.0,0.0,0.0,0.0,0.0,0.0,-0.1955,-0.9736,-0.0026,0.6702,-0.6660,-0.1628,0.2843
256,0.0,0.0,0.0,0.0,0.0,0.0,-0.1891,-0.9682,-0.0012,0.6705,-0.6655,-0.1630,0.2846
257,0.0,0.0,0.0,0.0,0.0,0.0,-0.1881,-0.9673,-0.0026,0.6707,-0.6652,-0.1632,0.2847
258,0.0,0.0,0.0,0.0,0.0,0.0,-0.1915,-0.9682,-0.0050,0.6708,-0.6650,-0.1634,0.2848
259,0.0,0.0,0.0,0.0,0.0,0.0,-0.1958,-0.9648,-0.0087,0.6708,-0.6650,-0.1635,0.2847
260,0.0,0.0,0.0,0.0,0.0,0.0,-0.2036,-0.9663,-0.0100,0.6707,-0.6652,-0.1634,0.2846
261,0.0,0.0,0.0,0.0,0.0,0.0,-0.1997,-0.9706,-0.0111,0.6705,-0.6654,-0.1634,0.2845
262,0.0,0.0,0.0,0.0,0.0,0.0,-0.1968,-0.9808,-0.0100,0.6705,-0.6655,-0.1635,0.2843
263,0.0,0.0,0.0,0.0,0.0,0.0,-0.2109,-0.9959,-0.0105,0.6705,-0.6656,-0.1633,0.2841
264,0.0,0.0,0.0,0.0,0.0,0.0,-0.2134,-0.9993,-0.0110,0.6707,-0.6655,-0.1629,0.2841
265,0.0,0.0,0.0,0.0,0.0,0.0,-0.2124,-0.9891,-0.0098,0.6711,-0.6652,-0.1624,0.2842
266,0.0,0.0,0.0,0.0,0.0,0.0,-0.2144,-0.9803,-0.0081,0.6716,-0.6648,-0.1618,0.2843
267,0.0,0.0,0.0,0.0,0.0,0.0,-0.2144,-0.9760,-0.0047,0.6720,-0.6644,-0.1612,0.2845
268,0.0,0.0,0.0,0.0,0.0,0.0,-0.2135,-0.9731,-0.0017,0.6726,-0.6639,-0.1606,0.2847
269,0.0,0.0,0.0,0.0,0.0,0.0,-0.2120,-0.9692,-0.0022,0.6731,-0.6633,-0.1602,0.2850
270,0.0,0.0,0.0,0.0,0.0,0.0,-0.2086,-0.9648,-0.0012,0.6736,-0.6628,-0.1600,0.2854
271,0.0,0.0,0.0,0.0,0.0,0.0,-0.2057,-0.9595,0.0008,0.6740,-0.6622,-0.1600,0.2857
272,0.0,0.0,0.0,0.0,0.0,0.0,-0.2048,-0.9600,0.0003,0.6743,-0.6618,-0.1600,0.2860
273,0.0,0.0,0.0,0.0,0.0,0.0,-0.2033,-0.9644,-0.0008,0.6744,-0.6614,-0.1602,0.2863
274,0.0,0.0,0.0,0.0,0.0,0.0,-0.2043,-0.9682,-0.0013,0.6746,-0.6612,-0.1603,0.2866
275,0.0,0.0,0.0,0.0,0.0,0.0,-0.2038,-0.9707,-0.0014,0.6747,-0.6609,-0.1605,0.2869
276,0.0,0.0,0.0,0.0,0.0,0.0,-0.2037,-0.9711,-0.0029,0.6748,-0.6607,-0.1607,0.2871
277,0.0,0.0,0.0,0.0,0.0,0.0,-0.2008,-0.9682,-0.0048,0.6747,-0.6605,-0.1610,0.2874
278,0.0,0.0,0.0,0.0,0.0,0.0,-0.2008,-0.9673,-0.0033,0.6747,-0.6603,-0.1613,0.2876
279,0.0,0.0,0.0,0.0,0.0,0.0,-0.2013,-0.9692,-0.0019,0.6747,-0.6602,-0.1615,0.2879
280,0.0,0.0,0.0,0.0,0.0,0.0,-0.2028,-0.9755,0.0004,0.6747,-0.6601,-0.1618,0.2880
281,0.0,0.0,0.0,0.0,0.0,0.0,-0.2038,-0.9794,0.0008,0.6748,-0.6599,-0.1619,0.2881
282,0.0,0.0,0.0,0.0,0.0,0.0,-0.2058,-0.9813,0.0028,0.6749,-0.6597,-0.1619,0.2882
283,0.0,0.0,0.0,0.0,0.0,0.0,-0.1962,-0.9372,-0.0096,0.6747,-0.6597,-0.1622,0.2886
284,0.0,0.0,0.0,0.0,0.0,0.0,-0.1859,-0.9459,-0.0177,0.6741,-0.6601,-0.1630,0.2885
285,0.0,0.0,0.0,0.0,0.0,0.0,-0.1801,-0.9648,-0.0129,0.6736,-0.6605,-0.1642,0.2882
286,0.0,0.0,0.0,0.0,0.0,0.0,-0.1823,-0.9862,-0.0055,0.6734,-0.6607,-0.1653,0.2876
287,0.0,0.0,0.0,0.0,0.0,0.0,-0.1882,-0.9944,-0.0003,0.6735,-0.6607,-0.1658,0.2870
288,0.0,0.0,0.0,0.0,0.0,0.0,-0.1990,-0.9891,0.0015,0.6736,-0.6608,-0.1658,0.2866
289,0.0,0.0,0.0,0.0,0.0,0.0,-0.2078,-0.9794,0.0028,0.6738,-0.6608,-0.1653,0.2864
290,0.0,0.0,0.0,0.0,0.0,0.0,-0.2078,-0.9716,0.0035,0.6739,-0.6608,-0.1650,0.2864
291,0.0,0.0,0.0,0.0,0.0,0.0,-0.2049,-0.9682,0.0049,0.6741,-0.6606,-0.1648,0.2864
292,0.0,0.0,0.0,0.0,0.0,0.0,-0.2024,-0.9707,0.0058,0.6742,-0.6604,-0.1648,0.2866
293,0.0,0.0,0.0,0.0,0.0,0.0,-0.2049,-0.9741,0.0077,0.6743,-0.6603,-0.1648,0.2868
294,0.0,0.0,0.0,0.0,0.0,0.0,-0.2064,-0.9750,0.0073,0.6743,-0.6601,-0.1648,0.2871
295,0.0,0.0,0.0,0.0,0.0,0.0,-0.2068,-0.9658,0.0050,0.6743,-0.6599,-0.1648,0.2875
296,0.0,0.0,0.0,0.0,0.0,0.0,-0.1989,-0.9484,0.0004,0.6739,-0.6600,-0.1652,0.2880
297,0.0,0.0,0.0,0.0,0.0,0.0,-0.1900,-0.9357,-0.0058,0.6733,-0.6603,-0.1658,0.2884
298,0.0,0.0,0.0,0.0,0.0,0.0,-0.1938,-0.9382,-0.0116,0.6724,-0.6610,-0.1664,0.2885
299,0.0,0.0,0.0,0.0,0.0,0.0,-0.2006,-0.9411,-0.0134,0.6713,-0.6619,-0.1670,0.2886
300,0.0,0.0,0.0,0.0,0.0,0.0,-0.1981,-0.9551,-0.0138,0.6702,-0.6627,-0.1681,0.2888
301,0.0,0.0,0.0,0.0,0.0,0.0,-0.1982,-0.9677,-0.0140,0.6690,-0.6636,-0.1693,0.2889
302,0.0,0.0,0.0,0.0,0.0,0.0,-0.1957,-0.9726,-0.0161,0.6677,-0.6644,-0.1706,0.2892
303,0.0,0.0,0.0,0.0,0.0,0.0,-0.1927,-0.9726,-0.0195,0.6663,-0.6654,-0.1718,0.2894
304,0.0,0.0,0.0,0.0,0.0,0.0,-0.1941,-0.9740,-0.0219,0.6648,-0.6665,-0.1728,0.2898
305,0.0,0.0,0.0,0.0,0.0,0.0,-0.1975,-0.9803,-0.0235,0.6633,-0.6676,-0.1735,0.2903
306,0.0,0.0,0.0,0.0,0.0,0.0,-0.2018,-0.9861,-0.0269,0.6618,-0.6686,-0.1741,0.2909
307,0.0,0.0,0.0,0.0,0.0,0.0,-0.2047,-0.9876,-0.0317,0.6603,-0.6696,-0.1747,0.2917
308,0.0,0.0,0.0,0.0,0.0,0.0,-0.2046,-0.9842,-0.0374,0.6589,-0.6705,-0.1754,0.2925
309,0.0,0.0,0.0,0.0,0.0,0.0,-0.2025,-0.9779,-0.0436,0.6575,-0.6713,-0.1763,0.2933
310,0.0,0.0,0.0,0.0,0.0,0.0,-0.2004,-0.9740,-0.0484,0.6561,-0.6721,-0.1773,0.2940
311,0.0,0.0,0.0,0.0,0.0,0.0,-0.1979,-0.9706,-0.0508,0.6548,-0.6728,-0.1785,0.2945
312,0.0,0.0,0.0,0.0,0.0,0.0,-0.1984,-0.9740,-0.0513,0.6536,-0.6734,-0.1797,0.2951
313,0.0,0.0,0.0,0.0,0.0,0.0,-0.1965,-0.9808,-0.0510,0.6526,-0.6738,-0.1810,0.2956
314,0.0,0.0,0.0,0.0,0.0,0.0,-0.1955,-0.9881,-0.0521,0.6517,-0.6741,-0.1824,0.2961
315,0.0,0.0,0.0,0.0,0.0,0.0,-0.1911,-0.9890,-0.0527,0.6508,-0.6743,-0.1838,0.2967
316,0.0,0.0,0.0,0.0,0.0,0.0,-0.1887,-0.9924,-0.0533,0.6500,-0.6744,-0.1850,0.2974
317,0.0,0.0,0.0,0.0,0.0,0.0,-0.1881,-0.9958,-0.0549,0.6492,-0.6746,-0.1860,0.2981
318,0.0,0.0,0.0,0.0,0.0,0.0,-0.1901,-0.9948,-0.0562,0.6486,-0.6747,-0.1867,0.2988
319,0.0,0.0,0.0,0.0,0.0,0.0,-0.1900,-0.9914,-0.0586,0.6479,-0.6748,-0.1873,0.2997
320,0.0,0.0,0.0,0.0,0.0,0.0,-0.1924,-0.9876,-0.0594,0.6475,-0.6748,-0.1876,0.3004
321,0.0,0.0,0.0,0.0,0.0,0.0,-0.1944,-0.9851,-0.0598,0.6471,-0.6748,-0.1878,0.3011
322,0.0,0.0,0.0,0.0,0.0,0.0,-0.1968,-0.9837,-0.0593,0.6468,-0.6747,-0.1879,0.3018
323,0.0,0.0,0.0,0.0,0.0,0.0,-0.2003,-0.9803,-0.0567,0.6466,-0.6746,-0.1878,0.3024
324,0.0,0.0,0.0,0.0,0.0,0.0,-0.2007,-0.9750,-0.0571,0.6466,-0.6744,-0.1879,0.3029
325,0.0,0.0,0.0,0.0,0.0,0.0,-0.1997,-0.9653,-0.0574,0.6465,-0.6743,-0.1881,0.3033
326,0.0,0.0,0.0,0.0,0.0,0.0,-0.2002,-0.9585,-0.0582,0.6464,-0.6743,-0.1884,0.3034
327,0.0,0.0,0.0,0.0,0.0,0.0,-0.1992,-0.9531,-0.0596,0.6460,-0.6744,-0.1888,0.3035
328,0.0,0.0,0.0,0.0,0.0,0.0,-0.1967,-0.9492,-0.0615,0.6456,-0.6747,-0.1893,0.3034
329,0.0,0.0,0.0,0.0,0.0,0.0,-0.1976,-0.9454,-0.0653,0.6449,-0.6753,-0.1900,0.3034
330,0.0,0.0,0.0,0.0,0.0,0.0,-0.1946,-0.9420,-0.0696,0.6439,-0.6760,-0.1908,0.3032
331,0.0,0.0,0.0,0.0,0.0,0.0,-0.1970,-0.9463,-0.0725,0.6428,-0.6771,-0.1915,0.3028
332,0.0,0.0,0.0,0.0,0.0,0.0,-0.2023,-0.9589,-0.0741,0.6416,-0.6783,-0.1920,0.3024
333,0.0,0.0,0.0,0.0,0.0,0.0,-0.2076,-0.9701,-0.0781,0.6404,-0.6796,-0.1925,0.3018
334,0.0,0.0,0.0,0.0,0.0,0.0,-0.2125,-0.9773,-0.0810,0.6392,-0.6808,-0.1929,0.3012
335,0.0,0.0,0.0,0.0,0.0,0.0,-0.2149,-0.9827,-0.0830,0.6382,-0.6819,-0.1931,0.3008
336,0.0,0.0,0.0,0.0,0.0,0.0,-0.2182,-0.9880,-0.0855,0.6372,-0.6829,-0.1933,0.3004
337,0.0,0.0,0.0,0.0,0.0,0.0,-0.2221,-0.9895,-0.0874,0.6364,-0.6837,-0.1934,0.3003
338,0.0,0.0,0.0,0.0,0.0,0.0,-0.2221,-0.9885,-0.0893,0.6356,-0.6844,-0.1933,0.3003
339,0.0,0.0,0.0,0.0,0.0,0.0,-0.2215,-0.9841,-0.0911,0.6350,-0.6851,-0.1931,0.3004
340,0.0,0.0,0.0,0.0,0.0,0.0,-0.2215,-0.9788,-0.0920,0.6344,-0.6856,-0.1928,0.3005
341,0.0,0.0,0.0,0.0,0.0,0.0,-0.2191,-0.9836,-0.0931,0.6340,-0.6860,-0.1927,0.3007
342,0.0,0.0,0.0,0.0,0.0,0.0,-0.2195,-0.9822,-0.0965,0.6337,-0.6862,-0.1925,0.3008
343,0.0,0.0,0.0,0.0,0.0,0.0,-0.2165,-0.9715,-0.0992,0.6334,-0.6865,-0.1924,0.3009
344,0.0,0.0,0.0,0.0,0.0,0.0,-0.2174,-0.9628,-0.1024,0.6331,-0.6869,-0.1922,0.3008
345,0.0,0.0,0.0,0.0,0.0,0.0,-0.2184,-0.9613,-0.1019,0.6328,-0.6874,-0.1920,0.3005
346,0.0,0.0,0.0,0.0,0.0,0.0,-0.2189,-0.9681,-0.0991,0.6325,-0.6879,-0.1918,0.3000
347,0.0,0.0,0.0,0.0,0.0,0.0,-0.2215,-0.9870,-0.0936,0.6325,-0.6881,-0.1915,0.2995
348,0.0,0.0,0.0,0.0,0.0,0.0,-0.2255,-0.9987,-0.0889,0.6329,-0.6882,-0.1910,0.2989
349,0.0,0.0,0.0,0.0,0.0,0.0,-0.2260,-0.9987,-0.0865,0.6336,-0.6879,-0.1903,0.2986
350,0.0,0.0,0.0,0.0,0.0,0.0,-0.2211,-0.9856,-0.0868,0.6343,-0.6876,-0.1894,0.2984
351,0.0,0.0,0.0,0.0,0.0,0.0,-0.2182,-0.9686,-0.0861,0.6349,-0.6873,-0.1885,0.2984
352,0.0,0.0,0.0,0.0,0.0,0.0,-0.2158,-0.9589,-0.0850,0.6353,-0.6871,-0.1875,0.2986
353,0.0,0.0,0.0,0.0,0.0,0.0,-0.2178,-0.9545,-0.0819,0.6355,-0.6871,-0.1863,0.2988
354,0.0,0.0,0.0,0.0,0.0,0.0,-0.2188,-0.9560,-0.0791,0.6356,-0.6872,-0.1851,0.2991
355,0.0,0.0,0.0,0.0,0.0,0.0,-0.2202,-0.9516,-0.0799,0.6355,-0.6875,-0.1839,0.2995
356,0.0,0.0,0.0,0.0,0.0,0.0,-0.2232,-0.9487,-0.0793,0.6353,-0.6878,-0.1827,0.2999
357,0.0,0.0,0.0,0.0,0.0,0.0,-0.2295,-0.9555,-0.0798,0.6349,-0.6883,-0.1814,0.3004
358,0.0,0.0,0.0,0.0,0.0,0.0,-0.2388,-0.9657,-0.0813,0.6345,-0.6889,-0.1800,0.3008
359,0.0,0.0,0.0,0.0,0.0,0.0,-0.2402,-0.9647,-0.0846,0.6340,-0.6894,-0.1788,0.3012
360,0.0,0.0,0.0,0.0,0.0,0.0,-0.2406,-0.9681,-0.0851,0.6336,-0.6899,-0.1778,0.3017
361,0.0,0.0,0.0,0.0,0.0,0.0,-0.2391,-0.9667,-0.0871,0.6333,-0.6902,-0.1771,0.3020
362,0.0,0.0,0.0,0.0,0.0,0.0,-0.2400,-0.9696,-0.0910,0.6329,-0.6906,-0.1766,0.3022
363,0.0,0.0,0.0,0.0,0.0,0.0,-0.2406,-0.9783,-0.0897,0.6327,-0.6908,-0.1762,0.3024
364,0.0,0.0,0.0,0.0,0.0,0.0,-0.2396,-0.9822,-0.0903,0.6327,-0.6909,-0.1759,0.3025
365,0.0,0.0,0.0,0.0,0.0,0.0,-0.2406,-0.9812,-0.0902,0.6328,-0.6908,-0.1756,0.3025
366,0.0,0.0,0.0,0.0,0.0,0.0,-0.2381,-0.9662,-0.0890,0.6330,-0.6907,-0.1752,0.3026
367,0.0,0.0,0.0,0.0,0.0,0.0,-0.2338,-0.9531,-0.0869,0.6333,-0.6906,-0.1748,0.3026
368,0.0,0.0,0.0,0.0,0.0,0.0,-0.2338,-0.9497,-0.0839,0.6335,-0.6905,-0.1745,0.3025
369,0.0,0.0,0.0,0.0,0.0,0.0,-0.2315,-0.9453,-0.0791,0.6338,-0.6904,-0.1740,0.3023
370,0.0,0.0,0.0,0.0,0.0,0.0,-0.2340,-0.9463,-0.0761,0.6340,-0.6905,-0.1734,0.3020
371,0.0,0.0,0.0,0.0,0.0,0.0,-0.2364,-0.9502,-0.0738,0.6343,-0.6906,-0.1728,0.3016
372,0.0,0.0,0.0,0.0,0.0,0.0,-0.2369,-0.9444,-0.0746,0.6344,-0.6908,-0.1721,0.3012
373,0.0,0.0,0.0,0.0,0.0,0.0,-0.2412,-0.9385,-0.0768,0.6344,-0.6911,-0.1714,0.3009
374,0.0,0.0,0.0,0.0,0.0,0.0,-0.2406,-0.9259,-0.0829,0.6341,-0.6916,-0.1708,0.3006
375,0.0,0.0,0.0,0.0,0.0,0.0,-0.2399,-0.9259,-0.0920,0.6334,-0.6924,-0.1707,0.3003
376,0.0,0.0,0.0,0.0,0.0,0.0,-0.2398,-0.9312,-0.1013,0.6324,-0.6934,-0.1710,0.3000
377,0.0,0.0,0.0,0.0,0.0,0.0,-0.2397,-0.9463,-0.1079,0.6311,-0.6946,-0.1715,0.2997
378,0.0,0.0,0.0,0.0,0.0,0.0,-0.2445,-0.9875,-0.1139,0.6298,-0.6958,-0.1720,0.2995
379,0.0,0.0,0.0,0.0,0.0,0.0,-0.2518,-1.0127,-0.1172,0.6286,-0.6969,-0.1722,0.2992
380,0.0,0.0,0.0,0.0,0.0,0.0,-0.2533,-1.0146,-0.1177,0.6277,-0.6979,-0.1721,0.2988
381,0.0,0.0,0.0,0.0,0.0,0.0,-0.2562,-1.0127,-0.1171,0.6273,-0.6984,-0.1718,0.2987
382,0.0,0.0,0.0,0.0,0.0,0.0,-0.2572,-1.0015,-0.1159,0.6272,-0.6986,-0.1712,0.2988
383,0.0,0.0,0.0,0.0,0.0,0.0,-0.2558,-0.9841,-0.1117,0.6273,-0.6985,-0.1704,0.2991
384,0.0,0.0,0.0,0.0,0.0,0.0,-0.2549,-0.9637,-0.1050,0.6277,-0.6983,-0.1696,0.2994
385,0.0,0.0,0.0,0.0,0.0,0.0,-0.2550,-0.9584,-0.0996,0.6281,-0.6980,-0.1689,0.2998
386,0.0,0.0,0.0,0.0,0.0,0.0,-0.2541,-0.9623,-0.0920,0.6286,-0.6975,-0.1683,0.3001
387,0.0,0.0,0.0,0.0,0.0,0.0,-0.2503,-0.9589,-0.0886,0.6291,-0.6969,-0.1679,0.3005
388,0.0,0.0,0.0,0.0,0.0,0.0,-0.2488,-0.9555,-0.0905,0.6296,-0.6964,-0.1676,0.3008
389,0.0,0.0,0.0,0.0,0.0,0.0,-0.2493,-0.9589,-0.0906,0.6300,-0.6959,-0.1676,0.3011
390,0.0,0.0,0.0,0.0,0.0,0.0,-0.2473,-0.9608,-0.0955,0.6304,-0.6954,-0.1678,0.3015
391,0.0,0.0,0.0,0.0,0.0,0.0,-0.2442,-0.9589,-0.1023,0.6306,-0.6948,-0.1686,0.3019
392,0.0,0.0,0.0,0.0,0.0,0.0,-0.2427,-0.9603,-0.1062,0.6308,-0.6943,-0.1697,0.3022
393,0.0,0.0,0.0,0.0,0.0,0.0,-0.2402,-0.9666,-0.1078,0.6309,-0.6936,-0.1712,0.3027
394,0.0,0.0,0.0,0.0,0.0,0.0,-0.2426,-0.9763,-0.1089,0.6310,-0.6929,-0.1728,0.3032
395,0.0,0.0,0.0,0.0,0.0,0.0,-0.2456,-0.9787,-0.1075,0.6311,-0.6921,-0.1743,0.3039
396,0.0,0.0,0.0,0.0,0.0,0.0,-0.2520,-0.9884,-0.1051,0.6312,-0.6913,-0.1753,0.3050
397,0.0,0.0,0.0,0.0,0.0,0.0,-0.2574,-0.9943,-0.1046,0.6312,-0.6903,-0.1760,0.3068
398,0.0,0.0,0.0,0.0,0.0,0.0,-0.2574,-0.9894,-0.1026,0.6310,-0.6891,-0.1770,0.3093
399,0.0,0.0,0.0,0.0,0.0,0.0,-0.2579,-0.9715,-0.0984,0.6304,-0.6877,-0.1780,0.3129
400,0.0,0.0,0.0,0.0,0.0,0.0,-0.2463,-0.9550,-0.0925,0.6296,-0.6861,-0.1793,0.3173
401,0.0,0.0,0.0,0.0,0.0,0.0,-0.2372,-0.9395,-0.0861,0.6286,-0.6845,-0.1807,0.3221
402,0.0,0.0,0.0,0.0,0.0,0.0,-0.2266,-0.9318,-0.0775,0.6274,-0.6828,-0.1821,0.3270
403,0.0,0.0,0.0,0.0,0.0,0.0,-0.2180,-0.9371,-0.0686,0.6262,-0.6812,-0.1837,0.3319
404,0.0,0.0,0.0,0.0,0.0,0.0,-0.2069,-0.9386,-0.0635,0.6250,-0.6795,-0.1856,0.3365
405,0.0,0.0,0.0,0.0,0.0,0.0,-0.2005,-0.9328,-0.0645,0.6237,-0.6781,-0.1875,0.3405
406,0.0,0.0,0.0,0.0,0.0,0.0,-0.2019,-0.9269,-0.0696,0.6224,-0.6772,-0.1896,0.3437
407,0.0,0.0,0.0,0.0,0.0,0.0,-0.2086,-0.9284,-0.0739,0.6209,-0.6766,-0.1920,0.3461
408,0.0,0.0,0.0,0.0,0.0,0.0,-0.2168,-0.9318,-0.0781,0.6195,-0.6765,-0.1946,0.3474
409,0.0,0.0,0.0,0.0,0.0,0.0,-0.2304,-0.9473,-0.0815,0.6181,-0.6768,-0.1970,0.3479
410,0.0,0.0,0.0,0.0,0.0,0.0,-0.2358,-0.9671,-0.0818,0.6172,-0.6772,-0.1996,0.3474
411,0.0,0.0,0.0,0.0,0.0,0.0,-0.2447,-0.9924,-0.0797,0.6165,-0.6776,-0.2019,0.3465
412,0.0,0.0,0.0,0.0,0.0,0.0,-0.2521,-1.0244,-0.0793,0.6163,-0.6781,-0.2036,0.3450
413,0.0,0.0,0.0,0.0,0.0,0.0,-0.2613,-1.0292,-0.0806,0.6164,-0.6786,-0.2042,0.3433
414,0.0,0.0,0.0,0.0,0.0,0.0,-0.2695,-1.0297,-0.0863,0.6165,-0.6793,-0.2033,0.3423
415,0.0,0.0,0.0,0.0,0.0,0.0,-0.2664,-1.0195,-0.0934,0.6167,-0.6800,-0.2012,0.3418
416,0.0,0.0,0.0,0.0,0.0,0.0,-0.2604,-0.9807,-0.0966,0.6171,-0.6807,-0.1984,0.3414
417,0.0,0.0,0.0,0.0,0.0,0.0,-0.2590,-0.9419,-0.0915,0.6172,-0.6816,-0.1949,0.3414
418,0.0,0.0,0.0,0.0,0.0,0.0,-0.2572,-0.9337,-0.0841,0.6172,-0.6824,-0.1911,0.3418
419,0.0,0.0,0.0,0.0,0.0,0.0,-0.2602,-0.9206,-0.0766,0.6170,-0.6834,-0.1868,0.3426
420,0.0,0.0,0.0,0.0,0.0,0.0,-0.2671,-0.9046,-0.0713,0.6163,-0.6848,-0.1820,0.3437
421,0.0,0.0,0.0,0.0,0.0,0.0,-0.2715,-0.8847,-0.0679,0.6150,-0.6866,-0.1769,0.3450
422,0.0,0.0,0.0,0.0,0.0,0.0,-0.2907,-0.8934,-0.0614,0.6134,-0.6890,-0.1711,0.3462
423,0.0,0.0,0.0,0.0,0.0,0.0,-0.3112,-0.9060,-0.0598,0.6115,-0.6916,-0.1649,0.3472
424,0.0,0.0,0.0,0.0,0.0,0.0,-0.3363,-0.8750,-0.0679,0.6092,-0.6947,-0.1584,0.3482
425,0.0,0.0,0.0,0.0,0.0,0.0,-0.3767,-0.9045,-0.0759,0.6068,-0.6977,-0.1520,0.3491
426,0.0,0.0,0.0,0.0,0.0,0.0,-0.4034,-0.9336,-0.0832,0.6050,-0.7003,-0.1465,0.3495
427,0.0,0.0,0.0,0.0,0.0,0.0,-0.4184,-0.9340,-0.0906,0.6036,-0.7023,-0.1416,0.3498
428,0.0,0.0,0.0,0.0,0.0,0.0,-0.4265,-0.9321,-0.0976,0.6025,-0.7040,-0.1376,0.3500
429,0.0,0.0,0.0,0.0,0.0,0.0,-0.4231,-0.9302,-0.0991,0.6018,-0.7052,-0.1342,0.3499
430,0.0,0.0,0.0,0.0,0.0,0.0,-0.4240,-0.9190,-0.1008,0.6013,-0.7062,-0.1316,0.3499
431,0.0,0.0,0.0,0.0,0.0,0.0,-0.4134,-0.9282,-0.0978,0.6010,-0.7068,-0.1299,0.3499
432,0.0,0.0,0.0,0.0,0.0,0.0,-0.4008,-0.9370,-0.0905,0.6011,-0.7069,-0.1290,0.3498
433,0.0,0.0,0.0,0.0,0.0,0.0,-0.3858,-0.9336,-0.0854,0.6014,-0.7066,-0.1289,0.3499
434,0.0,0.0,0.0,0.0,0.0,0.0,-0.3757,-0.9326,-0.0798,0.6022,-0.7059,-0.1293,0.3498
435,0.0,0.0,0.0,0.0,0.0,0.0,-0.3612,-0.9263,-0.0732,0.6031,-0.7050,-0.1302,0.3497
436,0.0,0.0,0.0,0.0,0.0,0.0,-0.3491,-0.9264,-0.0667,0.6043,-0.7039,-0.1313,0.3494
437,0.0,0.0,0.0,0.0,0.0,0.0,-0.3433,-0.9244,-0.0644,0.6055,-0.7029,-0.1327,0.3488
438,0.0,0.0,0.0,0.0,0.0,0.0,-0.3439,-0.9327,-0.0631,0.6068,-0.7019,-0.1341,0.3481
439,0.0,0.0,0.0,0.0,0.0,0.0,-0.3376,-0.9254,-0.0597,0.6082,-0.7008,-0.1357,0.3472
440,0.0,0.0,0.0,0.0,0.0,0.0,-0.3298,-0.9225,-0.0593,0.6096,-0.6997,-0.1375,0.3462
441,0.0,0.0,0.0,0.0,0.0,0.0,-0.3263,-0.9215,-0.0622,0.6110,-0.6987,-0.1396,0.3449
442,0.0,0.0,0.0,0.0,0.0,0.0,-0.3199,-0.9278,-0.0654,0.6123,-0.6978,-0.1421,0.3433
443,0.0,0.0,0.0,0.0,0.0,0.0,-0.3179,-0.9332,-0.0708,0.6136,-0.6970,-0.1449,0.3416
444,0.0,0.0,0.0,0.0,0.0,0.0,-0.3134,-0.9419,-0.0754,0.6147,-0.6963,-0.1479,0.3398
445,0.0,0.0,0.0,0.0,0.0,0.0,-0.3109,-0.9584,-0.0806,0.6157,-0.6957,-0.1509,0.3379
446,0.0,0.0,0.0,0.0,0.0,0.0,-0.3055,-0.9768,-0.0840,0.6167,-0.6951,-0.1537,0.3361
447,0.0,0.0,0.0,0.0,0.0,0.0,-0.2962,-0.9909,-0.0869,0.6176,-0.6944,-0.1561,0.3346
448,0.0,0.0,0.0,0.0,0.0,0.0,-0.2839,-0.9943,-0.0935,0.6186,-0.6936,-0.1582,0.3335
449,0.0,0.0,0.0,0.0,0.0,0.0,-0.2682,-0.9792,-0.0988,0.6194,-0.6927,-0.1598,0.3329
450,0.0,0.0,0.0,0.0,0.0,0.0,-0.2574,-0.9657,-0.1002,0.6200,-0.6921,-0.1609,0.3328
451,0.0,0.0,0.0,0.0,0.0,0.0,-0.2530,-0.9618,-0.0988,0.6205,-0.6915,-0.1616,0.3327
452,0.0,0.0,0.0,0.0,0.0,0.0,-0.2541,-0.9589,-0.0958,0.6208,-0.6911,-0.1618,0.3328
453,0.0,0.0,0.0,0.0,0.0,0.0,-0.2644,-0.9550,-0.0916,0.6212,-0.6909,-0.1615,0.3328
454,0.0,0.0,0.0,0.0,0.0,0.0,-0.2757,-0.9555,-0.0861,0.6217,-0.6906,-0.1610,0.3325
455,0.0,0.0,0.0,0.0,0.0,0.0,-0.2982,-0.9637,-0.0844,0.6224,-0.6905,-0.1602,0.3320
456,0.0,0.0,0.0,0.0,0.0,0.0,-0.3133,-0.9603,-0.0850,0.6234,-0.6902,-0.1594,0.3311
457,0.0,0.0,0.0,0.0,0.0,0.0,-0.3180,-0.9307,-0.0891,0.6242,-0.6900,-0.1594,0.3299
458,0.0,0.0,0.0,0.0,0.0,0.0,-0.3219,-0.9351,-0.0911,0.6250,-0.6898,-0.1601,0.3283
459,0.0,0.0,0.0,0.0,0.0,0.0,-0.3239,-0.9385,-0.0848,0.6258,-0.6897,-0.1614,0.3265
460,0.0,0.0,0.0,0.0,0.0,0.0,-0.3329,-1.0054,-0.0826,0.6265,-0.6893,-0.1636,0.3249
461,0.0,0.0,0.0,0.0,0.0,0.0,-0.3290,-1.0437,-0.0849,0.6275,-0.6887,-0.1668,0.3226
462,0.0,0.0,0.0,0.0,0.0,0.0,-0.3249,-0.9356,-0.0877,0.6280,-0.6885,-0.1695,0.3207
463,0.0,0.0,0.0,0.0,0.0,0.0,-0.3111,-0.9676,-0.0963,0.6276,-0.6884,-0.1729,0.3198
464,0.0,0.0,0.0,0.0,0.0,0.0,-0.2938,-0.9133,-0.1047,0.6260,-0.6891,-0.1762,0.3196
465,0.0,0.0,0.0,0.0,0.0,0.0,-0.2734,-0.8681,-0.1197,0.6234,-0.6899,-0.1797,0.3212
466,0.0,0.0,0.0,0.0,0.0,0.0,-0.2628,-0.9021,-0.1187,0.6206,-0.6905,-0.1844,0.3227
467,0.0,0.0,0.0,0.0,0.0,0.0,-0.2547,-0.8657,-0.1292,0.6169,-0.6920,-0.1889,0.3238
468,0.0,0.0,0.0,0.0,0.0,0.0,-0.2399,-0.8555,-0.1390,0.6137,-0.6933,-0.1926,0.3250
469,0.0,0.0,0.0,0.0,0.0,0.0,-0.2282,-0.8643,-0.1408,0.6115,-0.6937,-0.1950,0.3269
470,0.0,0.0,0.0,0.0,0.0,0.0,-0.2271,-0.8837,-0.1446,0.6099,-0.6930,-0.1972,0.3299
471,0.0,0.0,0.0,0.0,0.0,0.0,-0.2234,-0.8856,-0.1394,0.6095,-0.6913,-0.1992,0.3331
472,0.0,0.0,0.0,0.0,0.0,0.0,-0.2224,-0.8725,-0.1348,0.6093,-0.6892,-0.2010,0.3367
473,0.0,0.0,0.0,0.0,0.0,0.0,-0.2330,-0.9705,-0.1298,0.6084,-0.6877,-0.2032,0.3401
474,0.0,0.0,0.0,0.0,0.0,0.0,-0.2449,-1.0592,-0.1245,0.6074,-0.6869,-0.2052,0.3423
475,0.0,0.0,0.0,0.0,0.0,0.0,-0.2472,-1.0490,-0.1291,0.6060,-0.6867,-0.2068,0.3442
476,0.0,0.0,0.0,0.0,0.0,0.0,-0.2423,-1.0389,-0.1309,0.6051,-0.6869,-0.2084,0.3442
477,0.0,0.0,0.0,0.0,0.0,0.0,-0.2471,-1.0078,-0.1331,0.6044,-0.6873,-0.2104,0.3436
478,0.0,0.0,0.0,0.0,0.0,0.0,-0.2392,-0.9753,-0.1355,0.6029,-0.6881,-0.2119,0.3438
479,0.0,0.0,0.0,0.0,0.0,0.0,-0.2451,-0.9787,-0.1331,0.6014,-0.6891,-0.2126,0.3438
480,0.0,0.0,0.0,0.0,0.0,0.0,-0.2569,-0.9889,-0.1292,0.6002,-0.6901,-0.2128,0.3439
481,0.0,0.0,0.0,0.0,0.0,0.0,-0.2579,-0.9865,-0.1262,0.5995,-0.6909,-0.2125,0.3436
482,0.0,0.0,0.0,0.0,0.0,0.0,-0.2715,-0.9729,-0.1286,0.5990,-0.6917,-0.2117,0.3434
483,0.0,0.0,0.0,0.0,0.0,0.0,-0.2695,-0.9574,-0.1302,0.5986,-0.6924,-0.2110,0.3433
484,0.0,0.0,0.0,0.0,0.0,0.0,-0.2719,-0.9428,-0.1309,0.5982,-0.6932,-0.2100,0.3429
485,0.0,0.0,0.0,0.0,0.0,0.0,-0.2767,-0.9399,-0.1317,0.5979,-0.6941,-0.2090,0.3422
486,0.0,0.0,0.0,0.0,0.0,0.0,-0.2802,-0.9399,-0.1302,0.5975,-0.6950,-0.2081,0.3416
487,0.0,0.0,0.0,0.0,0.0,0.0,-0.2803,-0.9520,-0.1256,0.5975,-0.6957,-0.2072,0.3408
488,0.0,0.0,0.0,0.0,0.0,0.0,-0.2847,-0.9671,-0.1243,0.5976,-0.6963,-0.2062,0.3398
489,0.0,0.0,0.0,0.0,0.0,0.0,-0.2842,-0.9768,-0.1245,0.5980,-0.6967,-0.2054,0.3389
490,0.0,0.0,0.0,0.0,0.0,0.0,-0.2789,-0.9710,-0.1216,0.5986,-0.6968,-0.2045,0.3379
491,0.0,0.0,0.0,0.0,0.0,0.0,-0.2740,-0.9583,-0.1215,0.5993,-0.6970,-0.2037,0.3370
492,0.0,0.0,0.0,0.0,0.0,0.0,-0.2721,-0.9453,-0.1198,0.6000,-0.6972,-0.2028,0.3359
493,0.0,0.0,0.0,0.0,0.0,0.0,-0.2775,-0.9477,-0.1154,0.6006,-0.6975,-0.2016,0.3349
494,0.0,0.0,0.0,0.0,0.0,0.0,-0.2762,-0.9613,-0.1104,0.6014,-0.6976,-0.2005,0.3339
495,0.0,0.0,0.0,0.0,0.0,0.0,-0.2748,-0.9579,-0.1099,0.6021,-0.6977,-0.1995,0.3331
496,0.0,0.0,0.0,0.0,0.0,0.0,-0.2806,-0.9569,-0.1116,0.6028,-0.6977,-0.1985,0.3324
497,0.0,0.0,0.0,0.0,0.0,0.0,-0.2732,-0.9545,-0.1117,0.6035,-0.6976,-0.1977,0.3319
498,0.0,0.0,0.0,0.0,0.0,0.0,-0.2703,-0.9448,-0.1131,0.6040,-0.6975,-0.1970,0.3315
499,0.0,0.0,0.0,0.0,0.0,0.0,-0.2668,-0.9414,-0.1135,0.6044,-0.6974,-0.1966,0.3311
500,0.0,0.0,0.0,0.0,0.0,0.0,-0.2659,-0.9487,-0.1142,0.6048,-0.6974,-0.1963,0.3305
501,0.0,0.0,0.0,0.0,0.0,0.0,-0.2684,-0.9559,-0.1124,0.6052,-0.6974,-0.1961,0.3300
502,0.0,0.0,0.0,0.0,0.0,0.0,-0.2669,-0.9637,-0.1150,0.6056,-0.6973,-0.1961,0.3295
503,0.0,0.0,0.0,0.0,0.0,0.0,-0.2643,-0.9588,-0.1212,0.6060,-0.6972,-0.1963,0.3289
504,0.0,0.0,0.0,0.0,0.0,0.0,-0.2589,-0.9511,-0.1240,0.6062,-0.6971,-0.1966,0.3285
505,0.0,0.0,0.0,0.0,0.0,0.0,-0.2554,-0.9530,-0.1266,0.6063,-0.6972,-0.1970,0.3278
506,0.0,0.0,0.0,0.0,0.0,0.0,-0.2554,-0.9540,-0.1295,0.6064,-0.6973,-0.1975,0.3273
507,0.0,0.0,0.0,0.0,0.0,0.0,-0.2578,-0.9627,-0.1296,0.6065,-0.6974,-0.1978,0.3267
508,0.0,0.0,0.0,0.0,0.0,0.0,-0.2603,-0.9710,-0.1297,0.6067,-0.6974,-0.1979,0.3262
509,0.0,0.0,0.0,0.0,0.0,0.0,-0.2554,-0.9671,-0.1297,0.6069,-0.6973,-0.1981,0.3258
510,0.0,0.0,0.0,0.0,0.0,0.0,-0.2549,-0.9787,-0.1285,0.6073,-0.6971,-0.1982,0.3255
511,0.0,0.0,0.0,0.0,0.0,0.0,-0.2584,-0.9986,-0.1259,0.6079,-0.6968,-0.1982,0.3250
512,0.0,0.0,0.0,0.0,0.0,0.0,-0.2594,-0.9967,-0.1264,0.6088,-0.6965,-0.1978,0.3243
513,0.0,0.0,0.0,0.0,0.0,0.0,-0.2614,-1.0165,-0.1238,0.6099,-0.6960,-0.1975,0.3235
514,0.0,0.0,0.0,0.0,0.0,0.0,-0.2580,-0.9816,-0.1208,0.6113,-0.6953,-0.1967,0.3227
515,0.0,0.0,0.0,0.0,0.0,0.0,-0.2501,-0.9598,-0.1234,0.6125,-0.6950,-0.1956,0.3217
516,0.0,0.0,0.0,0.0,0.0,0.0,-0.2393,-0.9375,-0.1275,0.6133,-0.6950,-0.1951,0.3206
517,0.0,0.0,0.0,0.0,0.0,0.0,-0.2420,-0.9006,-0.1355,0.6136,-0.6954,-0.1944,0.3196
518,0.0,0.0,0.0,0.0,0.0,0.0,-0.2423,-0.9089,-0.1429,0.6137,-0.6961,-0.1933,0.3184
519,0.0,0.0,0.0,0.0,0.0,0.0,-0.2501,-0.9191,-0.1439,0.6135,-0.6971,-0.1921,0.3175
520,0.0,0.0,0.0,0.0,0.0,0.0,-0.2586,-0.9462,-0.1394,0.6132,-0.6978,-0.1911,0.3170
521,0.0,0.0,0.0,0.0,0.0,0.0,-0.2639,-0.9559,-0.1419,0.6130,-0.6982,-0.1903,0.3170
522,0.0,0.0,0.0,0.0,0.0,0.0,-0.2595,-0.9491,-0.1414,0.6127,-0.6985,-0.1897,0.3174
523,0.0,0.0,0.0,0.0,0.0,0.0,-0.2601,-0.9472,-0.1375,0.6125,-0.6986,-0.1891,0.3178
524,0.0,0.0,0.0,0.0,0.0,0.0,-0.2606,-0.9423,-0.1330,0.6124,-0.6986,-0.1886,0.3184
525,0.0,0.0,0.0,0.0,0.0,0.0,-0.2593,-0.9550,-0.1251,0.6124,-0.6985,-0.1884,0.3187
526,0.0,0.0,0.0,0.0,0.0,0.0,-0.2770,-0.9777,-0.1213,0.6125,-0.6984,-0.1880,0.3191
527,0.0,0.0,0.0,0.0,0.0,0.0,-0.2830,-1.0054,-0.1183,0.6130,-0.6979,-0.1874,0.3194
528,0.0,0.0,0.0,0.0,0.0,0.0,-0.2692,-0.9579,-0.1196,0.6134,-0.6974,-0.1869,0.3201
529,0.0,0.0,0.0,0.0,0.0,0.0,-0.2628,-0.9559,-0.1212,0.6138,-0.6969,-0.1865,0.3206
530,0.0,0.0,0.0,0.0,0.0,0.0,-0.2659,-0.9540,-0.1157,0.6144,-0.6964,-0.1860,0.3208
531,0.0,0.0,0.0,0.0,0.0,0.0,-0.2615,-0.9409,-0.1132,0.6149,-0.6960,-0.1857,0.3209
532,0.0,0.0,0.0,0.0,0.0,0.0,-0.2630,-0.9443,-0.1113,0.6153,-0.6957,-0.1855,0.3209
533,0.0,0.0,0.0,0.0,0.0,0.0,-0.2622,-0.9409,-0.1045,0.6157,-0.6954,-0.1854,0.3209
534,0.0,0.0,0.0,0.0,0.0,0.0,-0.2633,-0.9564,-0.0960,0.6163,-0.6949,-0.1853,0.3207
535,0.0,0.0,0.0,0.0,0.0,0.0,-0.2634,-0.9560,-0.0931,0.6171,-0.6943,-0.1854,0.3205
536,0.0,0.0,0.0,0.0,0.0,0.0,-0.2599,-0.9429,-0.0939,0.6178,-0.6938,-0.1856,0.3202
537,0.0,0.0,0.0,0.0,0.0,0.0,-0.2614,-0.9424,-0.0939,0.6185,-0.6933,-0.1860,0.3196
538,0.0,0.0,0.0,0.0,0.0,0.0,-0.2678,-0.9545,-0.0925,0.6191,-0.6929,-0.1864,0.3191
539,0.0,0.0,0.0,0.0,0.0,0.0,-0.2697,-0.9598,-0.0921,0.6199,-0.6924,-0.1870,0.3184
540,0.0,0.0,0.0,0.0,0.0,0.0,-0.2644,-0.9676,-0.0890,0.6207,-0.6917,-0.1878,0.3178
541,0.0,0.0,0.0,0.0,0.0,0.0,-0.2592,-0.9642,-0.0842,0.6216,-0.6909,-0.1887,0.3173
542,0.0,0.0,0.0,0.0,0.0,0.0,-0.2479,-0.9409,-0.0864,0.6223,-0.6901,-0.1899,0.3169
543,0.0,0.0,0.0,0.0,0.0,0.0,-0.2460,-0.9531,-0.0814,0.6229,-0.6896,-0.1911,0.3163
544,0.0,0.0,0.0,0.0,0.0,0.0,-0.2570,-0.9938,-0.0732,0.6236,-0.6890,-0.1919,0.3157
545,0.0,0.0,0.0,0.0,0.0,0.0,-0.2545,-0.9928,-0.0776,0.6242,-0.6881,-0.1927,0.3159
546,0.0,0.0,0.0,0.0,0.0,0.0,-0.2441,-0.9875,-0.0830,0.6247,-0.6873,-0.1935,0.3161
547,0.0,0.0,0.0,0.0,0.0,0.0,-0.2461,-0.9943,-0.0846,0.6253,-0.6866,-0.1937,0.3162
548,0.0,0.0,0.0,0.0,0.0,0.0,-0.2471,-1.0176,-0.0816,0.6260,-0.6858,-0.1938,0.3167
549,0.0,0.0,0.0,0.0,0.0,0.0,-0.2463,-1.0186,-0.0768,0.6270,-0.6845,-0.1937,0.3174
550,0.0,0.0,0.0,0.0,0.0,0.0,-0.2437,-0.9890,-0.0782,0.6279,-0.6835,-0.1930,0.3183
551,0.0,0.0,0.0,0.0,0.0,0.0,-0.2362,-0.9439,-0.0852,0.6283,-0.6828,-0.1924,0.3195
552,0.0,0.0,0.0,0.0,0.0,0.0,-0.2289,-0.9177,-0.0844,0.6284,-0.6820,-0.1922,0.3208
553,0.0,0.0,0.0,0.0,0.0,0.0,-0.2217,-0.9167,-0.0748,0.6286,-0.6812,-0.1922,0.3222
554,0.0,0.0,0.0,0.0,0.0,0.0,-0.2158,-0.8876,-0.0792,0.6284,-0.6807,-0.1924,0.3237
555,0.0,0.0,0.0,0.0,0.0,0.0,-0.2211,-0.8983,-0.0822,0.6278,-0.6806,-0.1927,0.3248
556,0.0,0.0,0.0,0.0,0.0,0.0,-0.2284,-0.8915,-0.0819,0.6268,-0.6809,-0.1931,0.3258
557,0.0,0.0,0.0,0.0,0.0,0.0,-0.2322,-0.8750,-0.0849,0.6254,-0.6816,-0.1939,0.3268
558,0.0,0.0,0.0,0.0,0.0,0.0,-0.2406,-0.9114,-0.0845,0.6239,-0.6822,-0.1952,0.3275
559,0.0,0.0,0.0,0.0,0.0,0.0,-0.2413,-0.9138,-0.0966,0.6222,-0.6831,-0.1966,0.3281
560,0.0,0.0,0.0,0.0,0.0,0.0,-0.2387,-0.9283,-0.1061,0.6201,-0.6845,-0.1981,0.3283
561,0.0,0.0,0.0,0.0,0.0,0.0,-0.2479,-0.9724,-0.1141,0.6177,-0.6863,-0.1992,0.3283
562,0.0,0.0,0.0,0.0,0.0,0.0,-0.2497,-0.9763,-0.1194,0.6151,-0.6882,-0.2003,0.3284
563,0.0,0.0,0.0,0.0,0.0,0.0,-0.2507,-0.9904,-0.1197,0.6125,-0.6903,-0.2010,0.3285
564,0.0,0.0,0.0,0.0,0.0,0.0,-0.2478,-1.0044,-0.1190,0.6103,-0.6921,-0.2014,0.3286
565,0.0,0.0,0.0,0.0,0.0,0.0,-0.2526,-1.0044,-0.1262,0.6083,-0.6937,-0.2016,0.3288
566,0.0,0.0,0.0,0.0,0.0,0.0,-0.2427,-0.9850,-0.1332,0.6064,-0.6951,-0.2020,0.3289
567,0.0,0.0,0.0,0.0,0.0,0.0,-0.2376,-0.9768,-0.1399,0.6048,-0.6965,-0.2023,0.3290
568,0.0,0.0,0.0,0.0,0.0,0.0,-0.2390,-0.9739,-0.1427,0.6033,-0.6978,-0.2025,0.3287
569,0.0,0.0,0.0,0.0,0.0,0.0,-0.2454,-0.9734,-0.1431,0.6021,-0.6991,-0.2024,0.3283
570,0.0,0.0,0.0,0.0,0.0,0.0,-0.2488,-0.9666,-0.1424,0.6012,-0.7004,-0.2021,0.3275
571,0.0,0.0,0.0,0.0,0.0,0.0,-0.2428,-0.9292,-0.1452,0.6001,-0.7017,-0.2018,0.3266
572,0.0,0.0,0.0,0.0,0.0,0.0,-0.2515,-0.9472,-0.1512,0.5991,-0.7034,-0.2015,0.3253
573,0.0,0.0,0.0,0.0,0.0,0.0,-0.2614,-0.9671,-0.1465,0.5984,-0.7049,-0.2009,0.3235
574,0.0,0.0,0.0,0.0,0.0,0.0,-0.2683,-0.9835,-0.1448,0.5981,-0.7061,-0.2001,0.3218
575,0.0,0.0,0.0,0.0,0.0,0.0,-0.2706,-0.9821,-0.1476,0.5981,-0.7071,-0.1992,0.3203
576,0.0,0.0,0.0,0.0,0.0,0.0,-0.2715,-0.9772,-0.1518,0.5983,-0.7079,-0.1984,0.3187
577,0.0,0.0,0.0,0.0,0.0,0.0,-0.2720,-0.9806,-0.1528,0.5988,-0.7084,-0.1976,0.3171
578,0.0,0.0,0.0,0.0,0.0,0.0,-0.2691,-0.9826,-0.1520,0.5994,-0.7087,-0.1970,0.3156
579,0.0,0.0,0.0,0.0,0.0,0.0,-0.2667,-0.9884,-0.1483,0.6004,-0.7087,-0.1964,0.3141
580,0.0,0.0,0.0,0.0,0.0,0.0,-0.2609,-0.9768,-0.1486,0.6015,-0.7085,-0.1960,0.3128
581,0.0,0.0,0.0,0.0,0.0,0.0,-0.2544,-0.9578,-0.1518,0.6025,-0.7083,-0.1955,0.3115
582,0.0,0.0,0.0,0.0,0.0,0.0,-0.2550,-0.9651,-0.1481,0.6036,-0.7081,-0.1951,0.3103
583,0.0,0.0,0.0,0.0,0.0,0.0,-0.2501,-0.9452,-0.1482,0.6045,-0.7078,-0.1948,0.3093
584,0.0,0.0,0.0,0.0,0.0,0.0,-0.2452,-0.9380,-0.1487,0.6053,-0.7075,-0.1947,0.3084
585,0.0,0.0,0.0,0.0,0.0,0.0,-0.2447,-0.9370,-0.1492,0.6058,-0.7075,-0.1945,0.3076
586,0.0,0.0,0.0,0.0,0.0,0.0,-0.2525,-0.9540,-0.1508,0.6062,-0.7076,-0.1942,0.3069
587,0.0,0.0,0.0,0.0,0.0,0.0,-0.2505,-0.9574,-0.1533,0.6065,-0.7075,-0.1941,0.3064
588,0.0,0.0,0.0,0.0,0.0,0.0,-0.2456,-0.9578,-0.1549,0.6068,-0.7074,-0.1942,0.3060
589,0.0,0.0,0.0,0.0,0.0,0.0,-0.2461,-0.9675,-0.1531,0.6071,-0.7073,-0.1942,0.3057
590,0.0,0.0,0.0,0.0,0.0,0.0,-0.2437,-0.9695,-0.1537,0.6076,-0.7070,-0.1942,0.3054
591,0.0,0.0,0.0,0.0,0.0,0.0,-0.2413,-0.9802,-0.1520,0.6082,-0.7065,-0.1942,0.3053
592,0.0,0.0,0.0,0.0,0.0,0.0,-0.2410,-1.0000,-0.1471,0.6092,-0.7056,-0.1942,0.3052
593,0.0,0.0,0.0,0.0,0.0,0.0,-0.2492,-0.9923,-0.1473,0.6104,-0.7047,-0.1940,0.3053
594,0.0,0.0,0.0,0.0,0.0,0.0,-0.2449,-0.9743,-0.1417,0.6116,-0.7039,-0.1934,0.3051
595,0.0,0.0,0.0,0.0,0.0,0.0,-0.2420,-0.9758,-0.1408,0.6128,-0.7032,-0.1927,0.3047
596,0.0,0.0,0.0,0.0,0.0,0.0,-0.2390,-0.9583,-0.1420,0.6139,-0.7026,-0.1921,0.3042
597,0.0,0.0,0.0,0.0,0.0,0.0,-0.2415,-0.9511,-0.1403,0.6150,-0.7020,-0.1913,0.3039
598,0.0,0.0,0.0,0.0,0.0,0.0,-0.2475,-0.9777,-0.1340,0.6163,-0.7013,-0.1904,0.3035
599,0.0,0.0,0.0,0.0,0.0,0.0,-0.2510,-0.9845,-0.1302,0.6174,-0.7006,-0.1893,0.3035
600,0.0,0.0,0.0,0.0,0.0,0.0,-0.2417,-0.9501,-0.1273,0.6183,-0.6999,-0.1883,0.3041
601,0.0,0.0,0.0,0.0,0.0,0.0,-0.2307,-0.9463,-0.1163,0.6189,-0.6995,-0.1871,0.3044
602,0.0,0.0,0.0,0.0,0.0,0.0,-0.2384,-0.9283,-0.1192,0.6189,-0.6995,-0.1858,0.3051
603,0.0,0.0,0.0,0.0,0.0,0.0,-0.2320,-0.9036,-0.1203,0.6185,-0.6995,-0.1855,0.3062
604,0.0,0.0,0.0,0.0,0.0,0.0,-0.2283,-0.9264,-0.1164,0.6185,-0.6989,-0.1861,0.3072
605,0.0,0.0,0.0,0.0,0.0,0.0,-0.2542,-0.9715,-0.1158,0.6194,-0.6976,-0.1864,0.3081
606,0.0,0.0,0.0,0.0,0.0,0.0,-0.2453,-0.9176,-0.1183,0.6202,-0.6961,-0.1871,0.3094
607,0.0,0.0,0.0,0.0,0.0,0.0,-0.2325,-0.9133,-0.1224,0.6206,-0.6950,-0.1884,0.3104
608,0.0,0.0,0.0,0.0,0.0,0.0,-0.2433,-0.9516,-0.1205,0.6207,-0.6943,-0.1895,0.3111
609,0.0,0.0,0.0,0.0,0.0,0.0,-0.2497,-0.9584,-0.1195,0.6205,-0.6938,-0.1903,0.3119
610,0.0,0.0,0.0,0.0,0.0,0.0,-0.2403,-0.9404,-0.1252,0.6199,-0.6937,-0.1913,0.3128
611,0.0,0.0,0.0,0.0,0.0,0.0,-0.2373,-0.9419,-0.1310,0.6189,-0.6941,-0.1924,0.3134
612,0.0,0.0,0.0,0.0,0.0,0.0,-0.2428,-0.9700,-0.1271,0.6179,-0.6945,-0.1932,0.3139
613,0.0,0.0,0.0,0.0,0.0,0.0,-0.2496,-0.9831,-0.1263,0.6171,-0.6948,-0.1936,0.3144
614,0.0,0.0,0.0,0.0,0.0,0.0,-0.2452,-0.9787,-0.1287,0.6164,-0.6951,-0.1940,0.3150
615,0.0,0.0,0.0,0.0,0.0,0.0,-0.2412,-0.9676,-0.1305,0.6158,-0.6954,-0.1943,0.3155
616,0.0,0.0,0.0,0.0,0.0,0.0,-0.2426,-0.9705,-0.1330,0.6152,-0.6957,-0.1945,0.3158
617,0.0,0.0,0.0,0.0,0.0,0.0,-0.2461,-0.9719,-0.1319,0.6146,-0.6960,-0.1945,0.3162
618,0.0,0.0,0.0,0.0,0.0,0.0,-0.2432,-0.9656,-0.1299,0.6142,-0.6962,-0.1945,0.3165
619,0.0,0.0,0.0,0.0,0.0,0.0,-0.2476,-0.9501,-0.1281,0.6138,-0.6965,-0.1943,0.3170
620,0.0,0.0,0.0,0.0,0.0,0.0,-0.2426,-0.9002,-0.1296,0.6127,-0.6972,-0.1943,0.3176
621,0.0,0.0,0.0,0.0,0.0,0.0,-0.2589,-0.9467,-0.1225,0.6115,-0.6981,-0.1941,0.3180
622,0.0,0.0,0.0,0.0,0.0,0.0,-0.2697,-0.9482,-0.1180,0.6103,-0.6991,-0.1932,0.3187
623,0.0,0.0,0.0,0.0,0.0,0.0,-0.2725,-0.9380,-0.1245,0.6087,-0.7002,-0.1923,0.3197
624,0.0,0.0,0.0,0.0,0.0,0.0,-0.2769,-0.9637,-0.1239,0.6071,-0.7013,-0.1914,0.3209
625,0.0,0.0,0.0,0.0,0.0,0.0,-0.2794,-0.9782,-0.1208,0.6056,-0.7022,-0.1904,0.3224
626,0.0,0.0,0.0,0.0,0.0,0.0,-0.2795,-0.9845,-0.1180,0.6043,-0.7028,-0.1896,0.3241
627,0.0,0.0,0.0,0.0,0.0,0.0,-0.2766,-0.9865,-0.1196,0.6032,-0.7030,-0.1887,0.3261
628,0.0,0.0,0.0,0.0,0.0,0.0,-0.2731,-0.9724,-0.1198,0.6024,-0.7030,-0.1879,0.3281
629,0.0,0.0,0.0,0.0,0.0,0.0,-0.2682,-0.9453,-0.1189,0.6019,-0.7027,-0.1874,0.3299
630,0.0,0.0,0.0,0.0,0.0,0.0,-0.2682,-0.9312,-0.1206,0.6014,-0.7024,-0.1872,0.3315
631,0.0,0.0,0.0,0.0,0.0,0.0,-0.2766,-0.9462,-0.1144,0.6011,-0.7020,-0.1872,0.3329
632,0.0,0.0,0.0,0.0,0.0,0.0,-0.2780,-0.9215,-0.1144,0.6007,-0.7016,-0.1875,0.3341
633,0.0,0.0,0.0,0.0,0.0,0.0,-0.2789,-0.9191,-0.1167,0.6002,-0.7016,-0.1881,0.3349
634,0.0,0.0,0.0,0.0,0.0,0.0,-0.2785,-0.9336,-0.1165,0.5996,-0.7016,-0.1889,0.3355
635,0.0,0.0,0.0,0.0,0.0,0.0,-0.2779,-0.9370,-0.1205,0.5989,-0.7017,-0.1901,0.3359
636,0.0,0.0,0.0,0.0,0.0,0.0,-0.2769,-0.9588,-0.1233,0.5982,-0.7018,-0.1917,0.3361
637,0.0,0.0,0.0,0.0,0.0,0.0,-0.2744,-0.9530,-0.1286,0.5974,-0.7019,-0.1933,0.3364
638,0.0,0.0,0.0,0.0,0.0,0.0,-0.2708,-0.9467,-0.1382,0.5963,-0.7022,-0.1949,0.3366
639,0.0,0.0,0.0,0.0,0.0,0.0,-0.2639,-0.9409,-0.1416,0.5952,-0.7025,-0.1970,0.3368
640,0.0,0.0,0.0,0.0,0.0,0.0,-0.2599,-0.9384,-0.1436,0.5939,-0.7027,-0.1993,0.3373
641,0.0,0.0,0.0,0.0,0.0,0.0,-0.2623,-0.9336,-0.1478,0.5925,-0.7029,-0.2017,0.3378
642,0.0,0.0,0.0,0.0,0.0,0.0,-0.2608,-0.9321,-0.1478,0.5910,-0.7033,-0.2039,0.3384
643,0.0,0.0,0.0,0.0,0.0,0.0,-0.2593,-0.9234,-0.1505,0.5893,-0.7037,-0.2062,0.3391
644,0.0,0.0,0.0,0.0,0.0,0.0,-0.2602,-0.9268,-0.1515,0.5875,-0.7042,-0.2085,0.3399
645,0.0,0.0,0.0,0.0,0.0,0.0,-0.2578,-0.9423,-0.1538,0.5855,-0.7047,-0.2109,0.3408
646,0.0,0.0,0.0,0.0,0.0,0.0,-0.2597,-0.9544,-0.1579,0.5836,-0.7051,-0.2134,0.3416
647,0.0,0.0,0.0,0.0,0.0,0.0,-0.2639,-0.9656,-0.1662,0.5817,-0.7055,-0.2157,0.3426
648,0.0,0.0,0.0,0.0,0.0,0.0,-0.2564,-0.9675,-0.1751,0.5798,-0.7058,-0.2183,0.3437
649,0.0,0.0,0.0,0.0,0.0,0.0,-0.2486,-0.9879,-0.1805,0.5782,-0.7058,-0.2209,0.3446
650,0.0,0.0,0.0,0.0,0.0,0.0,-0.2435,-0.9985,-0.1890,0.5768,-0.7057,-0.2233,0.3454
651,0.0,0.0,0.0,0.0,0.0,0.0,-0.2404,-0.9937,-0.2001,0.5757,-0.7057,-0.2254,0.3461
652,0.0,0.0,0.0,0.0,0.0,0.0,-0.2281,-0.9869,-0.2031,0.5748,-0.7055,-0.2274,0.3467
653,0.0,0.0,0.0,0.0,0.0,0.0,-0.2285,-0.9757,-0.2072,0.5742,-0.7055,-0.2290,0.3466
654,0.0,0.0,0.0,0.0,0.0,0.0,-0.2343,-0.9646,-0.2088,0.5736,-0.7058,-0.2301,0.3462
655,0.0,0.0,0.0,0.0,0.0,0.0,-0.2435,-0.9573,-0.2109,0.5731,-0.7063,-0.2308,0.3456
656,0.0,0.0,0.0,0.0,0.0,0.0,-0.2527,-0.9505,-0.2140,0.5726,-0.7069,-0.2312,0.3449
657,0.0,0.0,0.0,0.0,0.0,0.0,-0.2581,-0.9519,-0.2144,0.5723,-0.7076,-0.2314,0.3438
658,0.0,0.0,0.0,0.0,0.0,0.0,-0.2625,-0.9524,-0.2138,0.5721,-0.7083,-0.2314,0.3427
659,0.0,0.0,0.0,0.0,0.0,0.0,-0.2610,-0.9466,-0.2157,0.5720,-0.7089,-0.2314,0.3415
660,0.0,0.0,0.0,0.0,0.0,0.0,-0.2590,-0.9355,-0.2164,0.5718,-0.7096,-0.2314,0.3404
661,0.0,0.0,0.0,0.0,0.0,0.0,-0.2614,-0.9335,-0.2173,0.5717,-0.7104,-0.2313,0.3391
662,0.0,0.0,0.0,0.0,0.0,0.0,-0.2672,-0.9393,-0.2183,0.5715,-0.7112,-0.2310,0.3379
663,0.0,0.0,0.0,0.0,0.0,0.0,-0.2711,-0.9350,-0.2186,0.5713,-0.7121,-0.2305,0.3367
664,0.0,0.0,0.0,0.0,0.0,0.0,-0.2755,-0.9398,-0.2181,0.5712,-0.7129,-0.2299,0.3356
665,0.0,0.0,0.0,0.0,0.0,0.0,-0.2722,-0.9485,-0.2140,0.5712,-0.7137,-0.2293,0.3344
666,0.0,0.0,0.0,0.0,0.0,0.0,-0.2787,-0.9757,-0.2101,0.5715,-0.7143,-0.2284,0.3332
667,0.0,0.0,0.0,0.0,0.0,0.0,-0.2792,-0.9995,-0.2115,0.5720,-0.7149,-0.2273,0.3318
668,0.0,0.0,0.0,0.0,0.0,0.0,-0.2713,-0.9873,-0.2143,0.5722,-0.7162,-0.2253,0.3300
669,0.0,0.0,0.0,0.0,0.0,0.0,-0.2856,-1.0518,-0.2134,0.5729,-0.7172,-0.2233,0.3280
670,0.0,0.0,0.0,0.0,0.0,0.0,-0.2913,-1.0659,-0.1986,0.5746,-0.7176,-0.2211,0.3257
671,0.0,0.0,0.0,0.0,0.0,0.0,-0.2771,-1.0276,-0.1947,0.5771,-0.7175,-0.2191,0.3229
672,0.0,0.0,0.0,0.0,0.0,0.0,-0.2598,-0.9975,-0.2080,0.5791,-0.7176,-0.2175,0.3200
673,0.0,0.0,0.0,0.0,0.0,0.0,-0.2404,-0.9524,-0.2220,0.5806,-0.7178,-0.2174,0.3168
674,0.0,0.0,0.0,0.0,0.0,0.0,-0.2367,-0.9369,-0.2121,0.5822,-0.7178,-0.2182,0.3134
675,0.0,0.0,0.0,0.0,0.0,0.0,-0.2343,-0.9626,-0.2078,0.5842,-0.7176,-0.2185,0.3099
676,0.0,0.0,0.0,0.0,0.0,0.0,-0.2363,-0.9277,-0.2023,0.5866,-0.7172,-0.2176,0.3068
677,0.0,0.0,0.0,0.0,0.0,0.0,-0.2334,-0.8821,-0.1966,0.5895,-0.7168,-0.2148,0.3042
678,0.0,0.0,0.0,0.0,0.0,0.0,-0.2356,-0.8448,-0.1823,0.5936,-0.7154,-0.2098,0.3032
679,0.0,0.0,0.0,0.0,0.0,0.0,-0.2439,-0.8802,-0.1625,0.5998,-0.7120,-0.2036,0.3030
680,0.0,0.0,0.0,0.0,0.0,0.0,-0.2541,-0.9525,-0.1449,0.6065,-0.7080,-0.1985,0.3025
681,0.0,0.0,0.0,0.0,0.0,0.0,-0.2538,-0.9263,-0.1290,0.6119,-0.7046,-0.1944,0.3021
682,0.0,0.0,0.0,0.0,0.0,0.0,-0.2532,-0.9317,-0.1131,0.6161,-0.7019,-0.1917,0.3017
683,0.0,0.0,0.0,0.0,0.0,0.0,-0.2588,-0.9681,-0.1041,0.6191,-0.6999,-0.1899,0.3013
684,0.0,0.0,0.0,0.0,0.0,0.0,-0.2515,-0.9385,-0.1017,0.6214,-0.6986,-0.1879,0.3007
685,0.0,0.0,0.0,0.0,0.0,0.0,-0.2432,-0.9511,-0.1012,0.6236,-0.6975,-0.1864,0.2997
686,0.0,0.0,0.0,0.0,0.0,0.0,-0.2398,-0.9419,-0.1020,0.6254,-0.6967,-0.1852,0.2987
687,0.0,0.0,0.0,0.0,0.0,0.0,-0.2367,-0.9278,-0.1076,0.6269,-0.6962,-0.1839,0.2975
688,0.0,0.0,0.0,0.0,0.0,0.0,-0.2392,-0.9443,-0.1088,0.6282,-0.6958,-0.1829,0.2964
689,0.0,0.0,0.0,0.0,0.0,0.0,-0.2451,-0.9661,-0.1082,0.6289,-0.6960,-0.1814,0.2953
690,0.0,0.0,0.0,0.0,0.0,0.0,-0.2361,-0.9380,-0.1136,0.6291,-0.6968,-0.1798,0.2940
691,0.0,0.0,0.0,0.0,0.0,0.0,-0.2335,-0.9254,-0.1202,0.6290,-0.6977,-0.1786,0.2928
692,0.0,0.0,0.0,0.0,0.0,0.0,-0.2345,-0.9351,-0.1208,0.6290,-0.6985,-0.1777,0.2913
693,0.0,0.0,0.0,0.0,0.0,0.0,-0.2424,-0.9773,-0.1225,0.6284,-0.7000,-0.1766,0.2898
694,0.0,0.0,0.0,0.0,0.0,0.0,-0.2457,-0.9652,-0.1231,0.6274,-0.7015,-0.1758,0.2887
695,0.0,0.0,0.0,0.0,0.0,0.0,-0.2853,-1.0272,-0.1255,0.6269,-0.7027,-0.1743,0.2877
696,0.0,0.0,0.0,0.0,0.0,0.0,-0.2676,-0.9700,-0.1300,0.6256,-0.7042,-0.1733,0.2875
697,0.0,0.0,0.0,0.0,0.0,0.0,-0.2308,-0.9089,-0.1344,0.6241,-0.7056,-0.1737,0.2873
698,0.0,0.0,0.0,0.0,0.0,0.0,-0.2470,-0.9399,-0.1308,0.6239,-0.7060,-0.1737,0.2866
699,0.0,0.0,0.0,0.0,0.0,0.0,-0.2403,-0.9181,-0.1209,0.6246,-0.7058,-0.1739,0.2856
700,0.0,0.0,0.0,0.0,0.0,0.0,-0.2361,-0.9467,-0.1162,0.6255,-0.7053,-0.1742,0.2845
701,0.0,0.0,0.0,0.0,0.0,0.0,-0.2351,-0.9477,-0.1182,0.6262,-0.7050,-0.1743,0.2835
702,0.0,0.0,0.0,0.0,0.0,0.0,-0.2307,-0.9443,-0.1167,0.6266,-0.7051,-0.1750,0.2820
703,0.0,0.0,0.0,0.0,0.0,0.0,-0.2306,-0.9593,-0.1219,0.6271,-0.7052,-0.1759,0.2802
704,0.0,0.0,0.0,0.0,0.0,0.0,-0.2356,-0.9855,-0.1228,0.6280,-0.7050,-0.1770,0.2781
705,0.0,0.0,0.0,0.0,0.0,0.0,-0.2375,-0.9933,-0.1224,0.6290,-0.7047,-0.1782,0.2758
706,0.0,0.0,0.0,0.0,0.0,0.0,-0.2267,-0.9724,-0.1246,0.6300,-0.7044,-0.1795,0.2734
707,0.0,0.0,0.0,0.0,0.0,0.0,-0.2146,-0.9695,-0.1214,0.6312,-0.7040,-0.1808,0.2707
708,0.0,0.0,0.0,0.0,0.0,0.0,-0.2108,-0.9763,-0.1153,0.6325,-0.7035,-0.1821,0.2679
709,0.0,0.0,0.0,0.0,0.0,0.0,-0.2011,-0.9608,-0.1123,0.6336,-0.7033,-0.1835,0.2651
710,0.0,0.0,0.0,0.0,0.0,0.0,-0.1913,-0.9308,-0.1105,0.6342,-0.7033,-0.1853,0.2623
711,0.0,0.0,0.0,0.0,0.0,0.0,-0.1969,-0.9676,-0.1058,0.6347,-0.7035,-0.1869,0.2596
712,0.0,0.0,0.0,0.0,0.0,0.0,-0.1954,-0.9807,-0.1041,0.6352,-0.7039,-0.1874,0.2569
713,0.0,0.0,0.0,0.0,0.0,0.0,-0.1860,-0.9623,-0.1146,0.6344,-0.7053,-0.1879,0.2543
714,0.0,0.0,0.0,0.0,0.0,0.0,-0.1913,-0.9841,-0.1198,0.6338,-0.7068,-0.1878,0.2521
715,0.0,0.0,0.0,0.0,0.0,0.0,-0.1976,-1.0103,-0.1192,0.6335,-0.7080,-0.1865,0.2504
716,0.0,0.0,0.0,0.0,0.0,0.0,-0.1964,-0.9788,-0.1282,0.6332,-0.7090,-0.1850,0.2493
717,0.0,0.0,0.0,0.0,0.0,0.0,-0.1894,-0.9618,-0.1372,0.6336,-0.7092,-0.1839,0.2484
718,0.0,0.0,0.0,0.0,0.0,0.0,-0.1885,-0.9627,-0.1353,0.6351,-0.7085,-0.1824,0.2478
719,0.0,0.0,0.0,0.0,0.0,0.0,-0.1846,-0.9574,-0.1358,0.6362,-0.7078,-0.1812,0.2479
720,0.0,0.0,0.0,0.0,0.0,0.0,-0.1934,-0.9652,-0.1324,0.6368,-0.7073,-0.1804,0.2483
721,0.0,0.0,0.0,0.0,0.0,0.0,-0.1921,-0.9535,-0.1259,0.6369,-0.7071,-0.1801,0.2490
722,0.0,0.0,0.0,0.0,0.0,0.0,-0.1837,-0.9177,-0.1278,0.6362,-0.7074,-0.1798,0.2500
723,0.0,0.0,0.0,0.0,0.0,0.0,-0.1796,-0.9109,-0.1350,0.6349,-0.7081,-0.1799,0.2512
724,0.0,0.0,0.0,0.0,0.0,0.0,-0.1815,-0.9176,-0.1365,0.6329,-0.7094,-0.1802,0.2525
725,0.0,0.0,0.0,0.0,0.0,0.0,-0.1898,-0.9511,-0.1389,0.6302,-0.7112,-0.1804,0.2538
726,0.0,0.0,0.0,0.0,0.0,0.0,-0.1932,-0.9642,-0.1440,0.6276,-0.7129,-0.1807,0.2554
727,0.0,0.0,0.0,0.0,0.0,0.0,-0.1866,-0.9448,-0.1563,0.6251,-0.7142,-0.1818,0.2573
728,0.0,0.0,0.0,0.0,0.0,0.0,-0.1933,-0.9802,-0.1660,0.6227,-0.7151,-0.1834,0.2594
729,0.0,0.0,0.0,0.0,0.0,0.0,-0.1903,-0.9986,-0.1708,0.6207,-0.7156,-0.1849,0.2616
730,0.0,0.0,0.0,0.0,0.0,0.0,-0.1877,-0.9724,-0.1766,0.6188,-0.7161,-0.1859,0.2640
731,0.0,0.0,0.0,0.0,0.0,0.0,-0.1808,-0.9705,-0.1810,0.6170,-0.7164,-0.1871,0.2665
732,0.0,0.0,0.0,0.0,0.0,0.0,-0.1939,-0.9811,-0.1863,0.6151,-0.7165,-0.1881,0.2698
733,0.0,0.0,0.0,0.0,0.0,0.0,-0.1849,-0.9540,-0.1922,0.6128,-0.7169,-0.1896,0.2732
734,0.0,0.0,0.0,0.0,0.0,0.0,-0.1908,-0.9903,-0.1923,0.6108,-0.7172,-0.1909,0.2758
735,0.0,0.0,0.0,0.0,0.0,0.0,-0.1977,-0.9976,-0.1923,0.6090,-0.7175,-0.1921,0.2784
736,0.0,0.0,0.0,0.0,0.0,0.0,-0.1957,-0.9903,-0.1937,0.6073,-0.7177,-0.1934,0.2804
737,0.0,0.0,0.0,0.0,0.0,0.0,-0.1922,-0.9952,-0.1953,0.6060,-0.7179,-0.1947,0.2819
738,0.0,0.0,0.0,0.0,0.0,0.0,-0.1936,-0.9923,-0.1995,0.6049,-0.7179,-0.1961,0.2832
739,0.0,0.0,0.0,0.0,0.0,0.0,-0.1906,-0.9874,-0.2034,0.6039,-0.7180,-0.1974,0.2841
740,0.0,0.0,0.0,0.0,0.0,0.0,-0.1906,-0.9874,-0.2063,0.6031,-0.7181,-0.1985,0.2848
741,0.0,0.0,0.0,0.0,0.0,0.0,-0.1891,-0.9922,-0.2064,0.6026,-0.7182,-0.1995,0.2852
742,0.0,0.0,0.0,0.0,0.0,0.0,-0.1896,-0.9830,-0.2052,0.6023,-0.7181,-0.2003,0.2854
743,0.0,0.0,0.0,0.0,0.0,0.0,-0.1852,-0.9651,-0.2050,0.6021,-0.7180,-0.2011,0.2854
744,0.0,0.0,0.0,0.0,0.0,0.0,-0.1847,-0.9602,-0.2054,0.6019,-0.7181,-0.2020,0.2853
745,0.0,0.0,0.0,0.0,0.0,0.0,-0.1851,-0.9602,-0.2063,0.6017,-0.7182,-0.2027,0.2849
746,0.0,0.0,0.0,0.0,0.0,0.0,-0.1875,-0.9583,-0.2077,0.6014,-0.7184,-0.2031,0.2846
747,0.0,0.0,0.0,0.0,0.0,0.0,-0.1895,-0.9554,-0.2090,0.6010,-0.7187,-0.2035,0.2843
748,0.0,0.0,0.0,0.0,0.0,0.0,-0.1938,-0.9597,-0.2100,0.6008,-0.7191,-0.2036,0.2837
749,0.0,0.0,0.0,0.0,0.0,0.0,-0.2002,-0.9646,-0.2109,0.6006,-0.7195,-0.2036,0.2831
750,0.0,0.0,0.0,0.0,0.0,0.0,-0.2011,-0.9573,-0.2147,0.6004,-0.7199,-0.2036,0.2825
751,0.0,0.0,0.0,0.0,0.0,0.0,-0.2079,-0.9476,-0.2129,0.6002,-0.7200,-0.2038,0.2824
752,0.0,0.0,0.0,0.0,0.0,0.0,-0.2178,-0.9568,-0.2056,0.6004,-0.7197,-0.2040,0.2827
753,0.0,0.0,0.0,0.0,0.0,0.0,-0.2190,-0.9665,-0.1961,0.6013,-0.7187,-0.2042,0.2833
754,0.0,0.0,0.0,0.0,0.0,0.0,-0.2167,-0.9675,-0.1889,0.6023,-0.7181,-0.2029,0.2835
755,0.0,0.0,0.0,0.0,0.0,0.0,-0.2037,-1.0073,-0.1586,0.6053,-0.7171,-0.1985,0.2829
756,0.0,0.0,0.0,0.0,0.0,0.0,-0.2226,-1.0102,-0.1660,0.6080,-0.7161,-0.1934,0.2832
757,0.0,0.0,0.0,0.0,0.0,0.0,-0.2370,-0.9884,-0.1720,0.6088,-0.7155,-0.1908,0.2846
758,0.0,0.0,0.0,0.0,0.0,0.0,-0.2496,-0.9714,-0.1773,0.6075,-0.7155,-0.1882,0.2892
759,0.0,0.0,0.0,0.0,0.0,0.0,-0.2348,-0.9190,-0.1814,0.6047,-0.7152,-0.1872,0.2963
760,0.0,0.0,0.0,0.0,0.0,0.0,-0.2293,-0.9510,-0.1666,0.6023,-0.7154,-0.1853,0.3017
761,0.0,0.0,0.0,0.0,0.0,0.0,-0.2599,-0.9748,-0.1733,0.6002,-0.7166,-0.1825,0.3049
762,0.0,0.0,0.0,0.0,0.0,0.0,-0.2696,-0.9791,-0.1785,0.5975,-0.7190,-0.1792,0.3066
763,0.0,0.0,0.0,0.0,0.0,0.0,-0.2793,-0.9830,-0.1764,0.5954,-0.7219,-0.1747,0.3064
764,0.0,0.0,0.0,0.0,0.0,0.0,-0.2633,-0.9360,-0.1937,0.5938,-0.7247,-0.1701,0.3054
765,0.0,0.0,0.0,0.0,0.0,0.0,-0.2863,-0.9321,-0.1902,0.5923,-0.7269,-0.1657,0.3056
766,0.0,0.0,0.0,0.0,0.0,0.0,-0.3039,-0.9384,-0.1881,0.5917,-0.7282,-0.1610,0.3061
767,0.0,0.0,0.0,0.0,0.0,0.0,-0.3081,-0.9345,-0.1976,0.5902,-0.7301,-0.1568,0.3067
768,0.0,0.0,0.0,0.0,0.0,0.0,-0.3136,-0.9384,-0.1889,0.5887,-0.7317,-0.1538,0.3072
769,0.0,0.0,0.0,0.0,0.0,0.0,-0.3277,-0.9272,-0.1927,0.5870,-0.7334,-0.1506,0.3080
770,0.0,0.0,0.0,0.0,0.0,0.0,-0.3285,-0.8995,-0.1984,0.5855,-0.7349,-0.1474,0.3088
771,0.0,0.0,0.0,0.0,0.0,0.0,-0.3265,-0.9073,-0.2020,0.5837,-0.7365,-0.1448,0.3097
772,0.0,0.0,0.0,0.0,0.0,0.0,-0.3298,-0.8952,-0.2041,0.5816,-0.7380,-0.1430,0.3109
773,0.0,0.0,0.0,0.0,0.0,0.0,-0.3307,-0.8884,-0.2078,0.5800,-0.7388,-0.1417,0.3125
774,0.0,0.0,0.0,0.0,0.0,0.0,-0.3326,-0.9049,-0.2144,0.5784,-0.7396,-0.1403,0.3142
775,0.0,0.0,0.0,0.0,0.0,0.0,-0.3399,-0.8971,-0.2107,0.5766,-0.7406,-0.1391,0.3158
776,0.0,0.0,0.0,0.0,0.0,0.0,-0.3466,-0.8990,-0.2179,0.5756,-0.7409,-0.1375,0.3175
777,0.0,0.0,0.0,0.0,0.0,0.0,-0.3397,-0.9184,-0.2261,0.5743,-0.7415,-0.1361,0.3191
778,0.0,0.0,0.0,0.0,0.0,0.0,-0.3394,-0.9005,-0.2161,0.5729,-0.7425,-0.1351,0.3199
779,0.0,0.0,0.0,0.0,0.0,0.0,-0.3475,-0.8922,-0.2249,0.5719,-0.7433,-0.1335,0.3204
780,0.0,0.0,0.0,0.0,0.0,0.0,-0.3523,-0.9126,-0.2267,0.5705,-0.7439,-0.1323,0.3219
781,0.0,0.0,0.0,0.0,0.0,0.0,-0.3545,-0.9223,-0.2182,0.5692,-0.7443,-0.1314,0.3237
782,0.0,0.0,0.0,0.0,0.0,0.0,-0.3612,-0.9126,-0.2231,0.5679,-0.7453,-0.1300,0.3242
783,0.0,0.0,0.0,0.0,0.0,0.0,-0.3597,-0.8995,-0.2248,0.5673,-0.7459,-0.1284,0.3245
784,0.0,0.0,0.0,0.0,0.0,0.0,-0.3613,-0.9233,-0.2166,0.5670,-0.7459,-0.1274,0.3255
785,0.0,0.0,0.0,0.0,0.0,0.0,-0.3638,-0.9160,-0.2149,0.5671,-0.7457,-0.1263,0.3262
786,0.0,0.0,0.0,0.0,0.0,0.0,-0.3647,-0.9048,-0.2176,0.5670,-0.7457,-0.1254,0.3267
787,0.0,0.0,0.0,0.0,0.0,0.0,-0.3697,-0.9150,-0.2105,0.5665,-0.7457,-0.1245,0.3280
788,0.0,0.0,0.0,0.0,0.0,0.0,-0.3848,-0.9136,-0.2130,0.5664,-0.7456,-0.1229,0.3287
789,0.0,0.0,0.0,0.0,0.0,0.0,-0.3886,-0.9194,-0.2179,0.5665,-0.7460,-0.1215,0.3283
790,0.0,0.0,0.0,0.0,0.0,0.0,-0.3825,-0.9199,-0.2074,0.5673,-0.7459,-0.1205,0.3276
791,0.0,0.0,0.0,0.0,0.0,0.0,-0.3944,-0.9398,-0.1984,0.5687,-0.7448,-0.1196,0.3279
792,0.0,0.0,0.0,0.0,0.0,0.0,-0.3879,-0.9373,-0.2067,0.5689,-0.7446,-0.1191,0.3282
793,0.0,0.0,0.0,0.0,0.0,0.0,-0.3870,-0.8951,-0.1991,0.5695,-0.7445,-0.1182,0.3278
794,0.0,0.0,0.0,0.0,0.0,0.0,-0.3832,-0.9010,-0.1935,0.5707,-0.7435,-0.1172,0.3283
795,0.0,0.0,0.0,0.0,0.0,0.0,-0.3783,-0.9082,-0.1923,0.5718,-0.7426,-0.1167,0.3287
796,0.0,0.0,0.0,0.0,0.0,0.0,-0.3751,-0.9073,-0.1812,0.5738,-0.7412,-0.1161,0.3285
797,0.0,0.0,0.0,0.0,0.0,0.0,-0.3668,-0.9058,-0.1857,0.5754,-0.7404,-0.1160,0.3274
798,0.0,0.0,0.0,0.0,0.0,0.0,-0.3712,-0.8869,-0.1804,0.5767,-0.7404,-0.1155,0.3255
799,0.0,0.0,0.0,0.0,0.0,0.0,-0.3915,-0.8894,-0.1656,0.5787,-0.7394,-0.1144,0.3247
800,0.0,0.0,0.0,0.0,0.0,0.0,-0.3807,-0.9151,-0.1731,0.5809,-0.7379,-0.1141,0.3241
801,0.0,0.0,0.0,0.0,0.0,0.0,-0.3788,-0.9049,-0.1710,0.5839,-0.7362,-0.1138,0.3226
802,0.0,0.0,0.0,0.0,0.0,0.0,-0.3753,-0.9151,-0.1727,0.5872,-0.7345,-0.1136,0.3206
803,0.0,0.0,0.0,0.0,0.0,0.0,-0.3663,-0.9117,-0.1588,0.5910,-0.7324,-0.1135,0.3185
804,0.0,0.0,0.0,0.0,0.0,0.0,-0.3580,-0.8981,-0.1597,0.5946,-0.7302,-0.1137,0.3168
805,0.0,0.0,0.0,0.0,0.0,0.0,-0.3492,-0.9209,-0.1637,0.5978,-0.7282,-0.1143,0.3152
806,0.0,0.0,0.0,0.0,0.0,0.0,-0.3404,-0.9170,-0.1618,0.6005,-0.7267,-0.1151,0.3133
807,0.0,0.0,0.0,0.0,0.0,0.0,-0.3389,-0.9238,-0.1659,0.6030,-0.7253,-0.1163,0.3111
808,0.0,0.0,0.0,0.0,0.0,0.0,-0.3384,-0.9039,-0.1650,0.6052,-0.7242,-0.1175,0.3089
809,0.0,0.0,0.0,0.0,0.0,0.0,-0.3320,-0.8986,-0.1698,0.6069,-0.7234,-0.1186,0.3070
810,0.0,0.0,0.0,0.0,0.0,0.0,-0.3355,-0.9500,-0.1664,0.6083,-0.7229,-0.1200,0.3049
811,0.0,0.0,0.0,0.0,0.0,0.0,-0.3320,-0.9481,-0.1708,0.6083,-0.7233,-0.1214,0.3034
812,0.0,0.0,0.0,0.0,0.0,0.0,-0.3275,-0.9369,-0.1750,0.6077,-0.7240,-0.1231,0.3022
813,0.0,0.0,0.0,0.0,0.0,0.0,-0.3242,-0.9510,-0.1754,0.6082,-0.7239,-0.1251,0.3005
814,0.0,0.0,0.0,0.0,0.0,0.0,-0.3165,-0.9437,-0.1681,0.6098,-0.7231,-0.1268,0.2985
815,0.0,0.0,0.0,0.0,0.0,0.0,-0.3096,-0.9326,-0.1719,0.6110,-0.7226,-0.1281,0.2968
816,0.0,0.0,0.0,0.0,0.0,0.0,-0.3085,-0.9403,-0.1755,0.6117,-0.7223,-0.1291,0.2957
817,0.0,0.0,0.0,0.0,0.0,0.0,-0.3055,-0.9233,-0.1781,0.6116,-0.7224,-0.1303,0.2951
818,0.0,0.0,0.0,0.0,0.0,0.0,-0.3031,-0.9151,-0.1790,0.6111,-0.7228,-0.1315,0.2947
819,0.0,0.0,0.0,0.0,0.0,0.0,-0.2993,-0.9263,-0.1725,0.6107,-0.7231,-0.1328,0.2943
820,0.0,0.0,0.0,0.0,0.0,0.0,-0.2988,-0.9335,-0.1741,0.6107,-0.7231,-0.1336,0.2939
821,0.0,0.0,0.0,0.0,0.0,0.0,-0.2973,-0.9345,-0.1780,0.6103,-0.7233,-0.1348,0.2934
822,0.0,0.0,0.0,0.0,0.0,0.0,-0.2928,-0.9301,-0.1799,0.6097,-0.7237,-0.1365,0.2930
823,0.0,0.0,0.0,0.0,0.0,0.0,-0.2904,-0.9340,-0.1805,0.6092,-0.7240,-0.1384,0.2926
824,0.0,0.0,0.0,0.0,0.0,0.0,-0.2880,-0.9345,-0.1772,0.6089,-0.7240,-0.1402,0.2921
825,0.0,0.0,0.0,0.0,0.0,0.0,-0.2905,-0.9457,-0.1769,0.6089,-0.7240,-0.1416,0.2916
826,0.0,0.0,0.0,0.0,0.0,0.0,-0.2919,-0.9481,-0.1774,0.6084,-0.7243,-0.1432,0.2912
827,0.0,0.0,0.0,0.0,0.0,0.0,-0.2891,-0.9437,-0.1730,0.6080,-0.7244,-0.1447,0.2908
828,0.0,0.0,0.0,0.0,0.0,0.0,-0.2916,-0.9554,-0.1722,0.6078,-0.7244,-0.1462,0.2904
829,0.0,0.0,0.0,0.0,0.0,0.0,-0.2937,-0.9491,-0.1644,0.6079,-0.7243,-0.1479,0.2898
830,0.0,0.0,0.0,0.0,0.0,0.0,-0.2883,-0.9369,-0.1647,0.6080,-0.7241,-0.1495,0.2892
831,0.0,0.0,0.0,0.0,0.0,0.0,-0.2755,-0.9195,-0.1685,0.6083,-0.7239,-0.1512,0.2883
832,0.0,0.0,0.0,0.0,0.0,0.0,-0.2710,-0.9268,-0.1726,0.6090,-0.7233,-0.1530,0.2872
833,0.0,0.0,0.0,0.0,0.0,0.0,-0.2686,-0.9530,-0.1756,0.6093,-0.7230,-0.1548,0.2864
834,0.0,0.0,0.0,0.0,0.0,0.0,-0.2603,-0.9336,-0.1758,0.6090,-0.7231,-0.1566,0.2859
835,0.0,0.0,0.0,0.0,0.0,0.0,-0.2543,-0.9442,-0.1810,0.6087,-0.7233,-0.1581,0.2852
836,0.0,0.0,0.0,0.0,0.0,0.0,-0.2527,-0.9656,-0.1916,0.6087,-0.7234,-0.1593,0.2842
837,0.0,0.0,0.0,0.0,0.0,0.0,-0.2575,-0.9883,-0.1987,0.6087,-0.7233,-0.1602,0.2839
838,0.0,0.0,0.0,0.0,0.0,0.0,-0.2570,-0.9786,-0.1990,0.6085,-0.7233,-0.1604,0.2843
839,0.0,0.0,0.0,0.0,0.0,0.0,-0.2559,-0.9820,-0.2020,0.6084,-0.7233,-0.1602,0.2845
840,0.0,0.0,0.0,0.0,0.0,0.0,-0.2471,-0.9694,-0.2024,0.6086,-0.7232,-0.1599,0.2847
841,0.0,0.0,0.0,0.0,0.0,0.0,-0.2423,-0.9544,-0.1969,0.6088,-0.7232,-0.1591,0.2847
842,0.0,0.0,0.0,0.0,0.0,0.0,-0.2520,-0.9379,-0.2002,0.6085,-0.7236,-0.1578,0.2850
843,0.0,0.0,0.0,0.0,0.0,0.0,-0.2666,-0.9481,-0.2016,0.6081,-0.7242,-0.1560,0.2853
844,0.0,0.0,0.0,0.0,0.0,0.0,-0.2818,-0.9500,-0.1999,0.6074,-0.7251,-0.1541,0.2855
845,0.0,0.0,0.0,0.0,0.0,0.0,-0.2880,-0.9398,-0.2024,0.6071,-0.7258,-0.1522,0.2855
846,0.0,0.0,0.0,0.0,0.0,0.0,-0.2929,-0.9330,-0.2022,0.6069,-0.7263,-0.1506,0.2855
847,0.0,0.0,0.0,0.0,0.0,0.0,-0.3033,-0.9476,-0.1965,0.6066,-0.7268,-0.1488,0.2857
848,0.0,0.0,0.0,0.0,0.0,0.0,-0.2998,-0.9354,-0.1958,0.6060,-0.7275,-0.1470,0.2860
849,0.0,0.0,0.0,0.0,0.0,0.0,-0.2955,-0.9287,-0.1943,0.6058,-0.7280,-0.1457,0.2859
850,0.0,0.0,0.0,0.0,0.0,0.0,-0.2975,-0.9296,-0.1914,0.6056,-0.7284,-0.1448,0.2859
851,0.0,0.0,0.0,0.0,0.0,0.0,-0.2947,-0.9306,-0.1862,0.6049,-0.7290,-0.1439,0.2863
852,0.0,0.0,0.0,0.0,0.0,0.0,-0.2855,-0.9355,-0.1821,0.6042,-0.7296,-0.1429,0.2869
853,0.0,0.0,0.0,0.0,0.0,0.0,-0.2839,-0.9170,-0.1890,0.6029,-0.7305,-0.1418,0.2877
854,0.0,0.0,0.0,0.0,0.0,0.0,-0.2803,-0.9277,-0.1961,0.6015,-0.7315,-0.1411,0.2883
855,0.0,0.0,0.0,0.0,0.0,0.0,-0.2839,-0.9544,-0.1902,0.6004,-0.7324,-0.1408,0.2887
856,0.0,0.0,0.0,0.0,0.0,0.0,-0.2878,-0.9617,-0.1898,0.5989,-0.7335,-0.1402,0.2893
857,0.0,0.0,0.0,0.0,0.0,0.0,-0.2841,-0.9316,-0.2009,0.5973,-0.7348,-0.1394,0.2895
858,0.0,0.0,0.0,0.0,0.0,0.0,-0.2925,-0.9515,-0.2016,0.5970,-0.7355,-0.1386,0.2889
859,0.0,0.0,0.0,0.0,0.0,0.0,-0.3067,-0.9694,-0.1993,0.5976,-0.7353,-0.1377,0.2885
860,0.0,0.0,0.0,0.0,0.0,0.0,-0.3134,-0.9534,-0.2007,0.5985,-0.7349,-0.1368,0.2882
861,0.0,0.0,0.0,0.0,0.0,0.0,-0.3246,-0.9374,-0.2021,0.5991,-0.7346,-0.1360,0.2881
862,0.0,0.0,0.0,0.0,0.0,0.0,-0.3325,-0.9374,-0.1981,0.5992,-0.7345,-0.1352,0.2883
863,0.0,0.0,0.0,0.0,0.0,0.0,-0.3301,-0.9359,-0.1943,0.5995,-0.7342,-0.1349,0.2888
864,0.0,0.0,0.0,0.0,0.0,0.0,-0.3262,-0.9330,-0.1929,0.5998,-0.7336,-0.1351,0.2896
865,0.0,0.0,0.0,0.0,0.0,0.0,-0.3248,-0.9233,-0.1917,0.5997,-0.7330,-0.1359,0.2907
866,0.0,0.0,0.0,0.0,0.0,0.0,-0.3210,-0.9175,-0.1854,0.5994,-0.7324,-0.1374,0.2922
867,0.0,0.0,0.0,0.0,0.0,0.0,-0.3014,-0.9088,-0.1895,0.5987,-0.7319,-0.1396,0.2939
868,0.0,0.0,0.0,0.0,0.0,0.0,-0.2833,-0.9122,-0.1909,0.5977,-0.7314,-0.1423,0.2957
869,0.0,0.0,0.0,0.0,0.0,0.0,-0.2683,-0.8928,-0.1855,0.5973,-0.7305,-0.1454,0.2973
870,0.0,0.0,0.0,0.0,0.0,0.0,-0.2552,-0.9083,-0.1851,0.5975,-0.7292,-0.1489,0.2986
871,0.0,0.0,0.0,0.0,0.0,0.0,-0.2561,-0.9641,-0.1900,0.5966,-0.7284,-0.1524,0.3004
872,0.0,0.0,0.0,0.0,0.0,0.0,-0.2487,-0.9447,-0.1941,0.5953,-0.7279,-0.1557,0.3024
873,0.0,0.0,0.0,0.0,0.0,0.0,-0.2634,-0.9728,-0.1920,0.5946,-0.7271,-0.1589,0.3041
874,0.0,0.0,0.0,0.0,0.0,0.0,-0.2749,-1.0252,-0.1860,0.5940,-0.7264,-0.1614,0.3058
875,0.0,0.0,0.0,0.0,0.0,0.0,-0.2815,-1.0005,-0.1936,0.5923,-0.7265,-0.1632,0.3078
876,0.0,0.0,0.0,0.0,0.0,0.0,-0.2554,-0.9432,-0.1988,0.5901,-0.7270,-0.1657,0.3095
877,0.0,0.0,0.0,0.0,0.0,0.0,-0.2506,-0.9544,-0.2006,0.5884,-0.7273,-0.1687,0.3104
878,0.0,0.0,0.0,0.0,0.0,0.0,-0.2471,-0.9321,-0.2021,0.5868,-0.7280,-0.1711,0.3105
879,0.0,0.0,0.0,0.0,0.0,0.0,-0.2426,-0.9098,-0.2061,0.5862,-0.7281,-0.1729,0.3104
880,0.0,0.0,0.0,0.0,0.0,0.0,-0.2650,-0.9185,-0.2083,0.5870,-0.7273,-0.1737,0.3103
881,0.0,0.0,0.0,0.0,0.0,0.0,-0.2758,-0.9529,-0.2039,0.5890,-0.7254,-0.1742,0.3106
882,0.0,0.0,0.0,0.0,0.0,0.0,-0.2594,-0.9403,-0.1963,0.5919,-0.7230,-0.1746,0.3106
883,0.0,0.0,0.0,0.0,0.0,0.0,-0.2662,-0.9287,-0.1978,0.5951,-0.7206,-0.1747,0.3099
884,0.0,0.0,0.0,0.0,0.0,0.0,-0.2550,-0.8875,-0.1910,0.5978,-0.7186,-0.1752,0.3090
885,0.0,0.0,0.0,0.0,0.0,0.0,-0.2577,-0.9161,-0.1813,0.6001,-0.7172,-0.1757,0.3077
886,0.0,0.0,0.0,0.0,0.0,0.0,-0.2662,-0.9733,-0.1770,0.6018,-0.7161,-0.1763,0.3066
887,0.0,0.0,0.0,0.0,0.0,0.0,-0.2566,-0.9826,-0.1677,0.6022,-0.7157,-0.1766,0.3064
888,0.0,0.0,0.0,0.0,0.0,0.0,-0.2533,-0.9699,-0.1632,0.6023,-0.7161,-0.1760,0.3058
889,0.0,0.0,0.0,0.0,0.0,0.0,-0.2639,-0.9622,-0.1686,0.6020,-0.7170,-0.1743,0.3053
890,0.0,0.0,0.0,0.0,0.0,0.0,-0.2646,-0.9466,-0.1774,0.6010,-0.7185,-0.1724,0.3047
891,0.0,0.0,0.0,0.0,0.0,0.0,-0.2782,-0.9583,-0.1832,0.5997,-0.7204,-0.1703,0.3040
892,0.0,0.0,0.0,0.0,0.0,0.0,-0.2829,-0.9471,-0.1921,0.5980,-0.7228,-0.1681,0.3028
893,0.0,0.0,0.0,0.0,0.0,0.0,-0.2909,-0.9379,-0.2052,0.5971,-0.7246,-0.1663,0.3012
894,0.0,0.0,0.0,0.0,0.0,0.0,-0.3018,-0.9151,-0.1954,0.5973,-0.7255,-0.1647,0.2996
895,0.0,0.0,0.0,0.0,0.0,0.0,-0.3096,-0.9316,-0.1927,0.5979,-0.7261,-0.1627,0.2979
896,0.0,0.0,0.0,0.0,0.0,0.0,-0.3125,-0.9296,-0.1984,0.5985,-0.7269,-0.1606,0.2961
897,0.0,0.0,0.0,0.0,0.0,0.0,-0.3114,-0.9160,-0.1991,0.5983,-0.7279,-0.1589,0.2949
898,0.0,0.0,0.0,0.0,0.0,0.0,-0.3057,-0.9233,-0.1955,0.5972,-0.7294,-0.1574,0.2942
899,0.0,0.0,0.0,0.0,0.0,0.0,-0.3023,-0.9161,-0.1944,0.5959,-0.7312,-0.1557,0.2933
900,0.0,0.0,0.0,0.0,0.0,0.0,-0.3164,-0.9539,-0.1983,0.5949,-0.7329,-0.1537,0.2922
901,0.0,0.0,0.0,0.0,0.0,0.0,-0.3246,-0.9723,-0.2072,0.5935,-0.7345,-0.1524,0.2916
902,0.0,0.0,0.0,0.0,0.0,0.0,-0.3197,-0.9815,-0.2089,0.5923,-0.7360,-0.1515,0.2909
903,0.0,0.0,0.0,0.0,0.0,0.0,-0.3106,-0.9577,-0.2207,0.5907,-0.7377,-0.1506,0.2901
904,0.0,0.0,0.0,0.0,0.0,0.0,-0.3154,-0.9296,-0.2244,0.5894,-0.7390,-0.1497,0.2901
905,0.0,0.0,0.0,0.0,0.0,0.0,-0.3095,-0.9194,-0.2248,0.5886,-0.7396,-0.1489,0.2904
906,0.0,0.0,0.0,0.0,0.0,0.0,-0.3144,-0.9272,-0.2219,0.5882,-0.7400,-0.1480,0.2905
907,0.0,0.0,0.0,0.0,0.0,0.0,-0.3189,-0.9320,-0.2181,0.5888,-0.7397,-0.1472,0.2907
908,0.0,0.0,0.0,0.0,0.0,0.0,-0.3162,-0.9378,-0.2096,0.5905,-0.7384,-0.1465,0.2909
909,0.0,0.0,0.0,0.0,0.0,0.0,-0.3154,-0.9582,-0.2003,0.5931,-0.7365,-0.1458,0.2909
910,0.0,0.0,0.0,0.0,0.0,0.0,-0.3160,-0.9548,-0.1940,0.5954,-0.7346,-0.1450,0.2912
911,0.0,0.0,0.0,0.0,0.0,0.0,-0.3137,-0.9505,-0.1881,0.5968,-0.7332,-0.1444,0.2922
912,0.0,0.0,0.0,0.0,0.0,0.0,-0.3075,-0.9379,-0.1783,0.5983,-0.7317,-0.1443,0.2931
913,0.0,0.0,0.0,0.0,0.0,0.0,-0.2894,-0.9229,-0.1799,0.5997,-0.7302,-0.1446,0.2937
914,0.0,0.0,0.0,0.0,0.0,0.0,-0.2846,-0.9166,-0.1779,0.6003,-0.7294,-0.1450,0.2942
915,0.0,0.0,0.0,0.0,0.0,0.0,-0.2828,-0.9243,-0.1713,0.6013,-0.7284,-0.1455,0.2945
916,0.0,0.0,0.0,0.0,0.0,0.0,-0.2843,-0.9287,-0.1690,0.6026,-0.7270,-0.1462,0.2949
917,0.0,0.0,0.0,0.0,0.0,0.0,-0.2938,-0.9757,-0.1591,0.6039,-0.7258,-0.1467,0.2950
918,0.0,0.0,0.0,0.0,0.0,0.0,-0.2923,-0.9685,-0.1585,0.6054,-0.7244,-0.1475,0.2950
919,0.0,0.0,0.0,0.0,0.0,0.0,-0.2840,-0.9307,-0.1603,0.6069,-0.7228,-0.1492,0.2951
920,0.0,0.0,0.0,0.0,0.0,0.0,-0.2728,-0.9142,-0.1544,0.6085,-0.7209,-0.1510,0.2953
921,0.0,0.0,0.0,0.0,0.0,0.0,-0.2603,-0.9239,-0.1486,0.6098,-0.7194,-0.1530,0.2954
922,0.0,0.0,0.0,0.0,0.0,0.0,-0.2525,-0.9249,-0.1502,0.6101,-0.7186,-0.1550,0.2957
923,0.0,0.0,0.0,0.0,0.0,0.0,-0.2403,-0.9297,-0.1510,0.6097,-0.7181,-0.1571,0.2965
924,0.0,0.0,0.0,0.0,0.0,0.0,-0.2373,-0.9389,-0.1556,0.6098,-0.7173,-0.1594,0.2969
925,0.0,0.0,0.0,0.0,0.0,0.0,-0.2396,-0.9525,-0.1631,0.6098,-0.7166,-0.1616,0.2976
926,0.0,0.0,0.0,0.0,0.0,0.0,-0.2390,-0.9510,-0.1703,0.6093,-0.7161,-0.1637,0.2984
927,0.0,0.0,0.0,0.0,0.0,0.0,-0.2407,-0.9486,-0.1799,0.6083,-0.7160,-0.1663,0.2993
928,0.0,0.0,0.0,0.0,0.0,0.0,-0.2386,-0.9156,-0.1856,0.6065,-0.7165,-0.1686,0.3006
929,0.0,0.0,0.0,0.0,0.0,0.0,-0.2375,-0.9195,-0.1934,0.6044,-0.7172,-0.1707,0.3019
930,0.0,0.0,0.0,0.0,0.0,0.0,-0.2490,-0.9554,-0.2050,0.6014,-0.7185,-0.1732,0.3035
931,0.0,0.0,0.0,0.0,0.0,0.0,-0.2490,-0.9602,-0.2075,0.5981,-0.7200,-0.1762,0.3047
932,0.0,0.0,0.0,0.0,0.0,0.0,-0.2570,-0.9548,-0.2188,0.5949,-0.7215,-0.1789,0.3058
933,0.0,0.0,0.0,0.0,0.0,0.0,-0.2651,-0.9408,-0.2300,0.5912,-0.7234,-0.1816,0.3070
934,0.0,0.0,0.0,0.0,0.0,0.0,-0.2581,-0.9267,-0.2356,0.5873,-0.7253,-0.1841,0.3084
935,0.0,0.0,0.0,0.0,0.0,0.0,-0.2590,-0.9383,-0.2402,0.5840,-0.7267,-0.1864,0.3100
936,0.0,0.0,0.0,0.0,0.0,0.0,-0.2638,-0.9718,-0.2456,0.5807,-0.7279,-0.1891,0.3118
937,0.0,0.0,0.0,0.0,0.0,0.0,-0.2488,-0.9563,-0.2427,0.5782,-0.7285,-0.1919,0.3133
938,0.0,0.0,0.0,0.0,0.0,0.0,-0.2443,-0.9393,-0.2429,0.5768,-0.7285,-0.1943,0.3144
939,0.0,0.0,0.0,0.0,0.0,0.0,-0.2596,-0.9781,-0.2400,0.5761,-0.7280,-0.1963,0.3157
940,0.0,0.0,0.0,0.0,0.0,0.0,-0.2602,-0.9670,-0.2344,0.5763,-0.7268,-0.1978,0.3171
941,0.0,0.0,0.0,0.0,0.0,0.0,-0.2396,-0.9282,-0.2365,0.5769,-0.7253,-0.1992,0.3184
942,0.0,0.0,0.0,0.0,0.0,0.0,-0.2382,-0.9228,-0.2306,0.5779,-0.7239,-0.2003,0.3192
943,0.0,0.0,0.0,0.0,0.0,0.0,-0.2506,-0.9422,-0.2221,0.5788,-0.7229,-0.2007,0.3196
944,0.0,0.0,0.0,0.0,0.0,0.0,-0.2570,-0.9354,-0.2194,0.5789,-0.7226,-0.2007,0.3202
945,0.0,0.0,0.0,0.0,0.0,0.0,-0.2518,-0.9132,-0.2084,0.5798,-0.7218,-0.2000,0.3207
946,0.0,0.0,0.0,0.0,0.0,0.0,-0.2700,-0.9563,-0.2051,0.5825,-0.7200,-0.1987,0.3206
947,0.0,0.0,0.0,0.0,0.0,0.0,-0.2862,-0.9709,-0.1983,0.5844,-0.7187,-0.1976,0.3208
948,0.0,0.0,0.0,0.0,0.0,0.0,-0.2723,-0.9297,-0.1856,0.5868,-0.7171,-0.1966,0.3205
949,0.0,0.0,0.0,0.0,0.0,0.0,-0.2675,-0.9195,-0.1807,0.5908,-0.7147,-0.1956,0.3192
950,0.0,0.0,0.0,0.0,0.0,0.0,-0.2794,-0.9452,-0.1699,0.5951,-0.7122,-0.1946,0.3175
951,0.0,0.0,0.0,0.0,0.0,0.0,-0.2811,-0.9612,-0.1571,0.5988,-0.7101,-0.1940,0.3157
952,0.0,0.0,0.0,0.0,0.0,0.0,-0.2727,-0.9622,-0.1414,0.6014,-0.7086,-0.1937,0.3143
953,0.0,0.0,0.0,0.0,0.0,0.0,-0.2699,-0.9646,-0.1323,0.6034,-0.7075,-0.1934,0.3129
954,0.0,0.0,0.0,0.0,0.0,0.0,-0.2661,-0.9656,-0.1280,0.6049,-0.7068,-0.1932,0.3119
955,0.0,0.0,0.0,0.0,0.0,0.0,-0.2652,-0.9710,-0.1233,0.6063,-0.7063,-0.1925,0.3105
956,0.0,0.0,0.0,0.0,0.0,0.0,-0.2725,-0.9753,-0.1247,0.6078,-0.7060,-0.1914,0.3091
957,0.0,0.0,0.0,0.0,0.0,0.0,-0.2808,-0.9831,-0.1276,0.6091,-0.7056,-0.1902,0.3081
958,0.0,0.0,0.0,0.0,0.0,0.0,-0.2749,-0.9855,-0.1292,0.6106,-0.7052,-0.1889,0.3069
959,0.0,0.0,0.0,0.0,0.0,0.0,-0.2666,-0.9734,-0.1301,0.6120,-0.7048,-0.1878,0.3057
960,0.0,0.0,0.0,0.0,0.0,0.0,-0.2680,-0.9608,-0.1294,0.6134,-0.7045,-0.1863,0.3043
961,0.0,0.0,0.0,0.0,0.0,0.0,-0.2696,-0.9579,-0.1259,0.6150,-0.7043,-0.1846,0.3028
962,0.0,0.0,0.0,0.0,0.0,0.0,-0.2647,-0.9535,-0.1230,0.6166,-0.7039,-0.1829,0.3013
963,0.0,0.0,0.0,0.0,0.0,0.0,-0.2643,-0.9550,-0.1206,0.6182,-0.7036,-0.1812,0.2998
964,0.0,0.0,0.0,0.0,0.0,0.0,-0.2594,-0.9564,-0.1232,0.6197,-0.7033,-0.1797,0.2985
965,0.0,0.0,0.0,0.0,0.0,0.0,-0.2588,-0.9482,-0.1254,0.6209,-0.7031,-0.1783,0.2972
966,0.0,0.0,0.0,0.0,0.0,0.0,-0.2544,-0.9443,-0.1254,0.6221,-0.7030,-0.1770,0.2958
967,0.0,0.0,0.0,0.0,0.0,0.0,-0.2470,-0.9428,-0.1299,0.6230,-0.7030,-0.1760,0.2945
968,0.0,0.0,0.0,0.0,0.0,0.0,-0.2435,-0.9428,-0.1353,0.6237,-0.7031,-0.1752,0.2932
969,0.0,0.0,0.0,0.0,0.0,0.0,-0.2469,-0.9569,-0.1360,0.6243,-0.7033,-0.1744,0.2919
970,0.0,0.0,0.0,0.0,0.0,0.0,-0.2459,-0.9632,-0.1385,0.6248,-0.7035,-0.1736,0.2908
971,0.0,0.0,0.0,0.0,0.0,0.0,-0.2460,-0.9646,-0.1376,0.6252,-0.7038,-0.1726,0.2897
972,0.0,0.0,0.0,0.0,0.0,0.0,-0.2479,-0.9651,-0.1352,0.6257,-0.7041,-0.1715,0.2887
973,0.0,0.0,0.0,0.0,0.0,0.0,-0.2519,-0.9710,-0.1313,0.6262,-0.7042,-0.1704,0.2880
974,0.0,0.0,0.0,0.0,0.0,0.0,-0.2525,-0.9739,-0.1280,0.6268,-0.7043,-0.1692,0.2873
975,0.0,0.0,0.0,0.0,0.0,0.0,-0.2495,-0.9622,-0.1283,0.6272,-0.7044,-0.1680,0.2868
976,0.0,0.0,0.0,0.0,0.0,0.0,-0.2437,-0.9472,-0.1262,0.6277,-0.7043,-0.1669,0.2864
977,0.0,0.0,0.0,0.0,0.0,0.0,-0.2418,-0.9390,-0.1217,0.6282,-0.7042,-0.1660,0.2861
978,0.0,0.0,0.0,0.0,0.0,0.0,-0.2430,-0.9477,-0.1141,0.6286,-0.7041,-0.1654,0.2859
979,0.0,0.0,0.0,0.0,0.0,0.0,-0.2449,-0.9453,-0.1150,0.6288,-0.7041,-0.1648,0.2859
980,0.0,0.0,0.0,0.0,0.0,0.0,-0.2439,-0.9472,-0.1156,0.6290,-0.7041,-0.1642,0.2857
981,0.0,0.0,0.0,0.0,0.0,0.0,-0.2450,-0.9608,-0.1124,0.6293,-0.7040,-0.1639,0.2856
982,0.0,0.0,0.0,0.0,0.0,0.0,-0.2475,-0.9783,-0.1113,0.6296,-0.7037,-0.1639,0.2856
983,0.0,0.0,0.0,0.0,0.0,0.0,-0.2440,-0.9768,-0.1118,0.6302,-0.7031,-0.1640,0.2857
984,0.0,0.0,0.0,0.0,0.0,0.0,-0.2412,-0.9817,-0.1100,0.6310,-0.7023,-0.1643,0.2857
985,0.0,0.0,0.0,0.0,0.0,0.0,-0.2437,-0.9986,-0.1040,0.6320,-0.7012,-0.1646,0.2860
986,0.0,0.0,0.0,0.0,0.0,0.0,-0.2409,-0.9933,-0.1001,0.6332,-0.7000,-0.1646,0.2863
987,0.0,0.0,0.0,0.0,0.0,0.0,-0.2336,-0.9846,-0.0986,0.6344,-0.6988,-0.1644,0.2866
988,0.0,0.0,0.0,0.0,0.0,0.0,-0.2262,-0.9603,-0.0993,0.6355,-0.6979,-0.1637,0.2868
989,0.0,0.0,0.0,0.0,0.0,0.0,-0.2276,-0.9235,-0.1019,0.6362,-0.6974,-0.1630,0.2868
990,0.0,0.0,0.0,0.0,0.0,0.0,-0.2233,-0.9128,-0.0970,0.6367,-0.6970,-0.1628,0.2869
991,0.0,0.0,0.0,0.0,0.0,0.0,-0.2233,-0.9128,-0.0936,0.6371,-0.6966,-0.1632,0.2866
992,0.0,0.0,0.0,0.0,0.0,0.0,-0.2273,-0.9279,-0.0928,0.6373,-0.6964,-0.1637,0.2864
993,0.0,0.0,0.0,0.0,0.0,0.0,-0.2253,-0.9434,-0.0936,0.6374,-0.6962,-0.1645,0.2863
994,0.0,0.0,0.0,0.0,0.0,0.0,-0.2321,-0.9603,-0.0996,0.6371,-0.6964,-0.1652,0.2862
995,0.0,0.0,0.0,0.0,0.0,0.0,-0.2305,-0.9666,-0.1056,0.6365,-0.6967,-0.1659,0.2863
996,0.0,0.0,0.0,0.0,0.0,0.0,-0.2324,-0.9734,-0.1091,0.6359,-0.6972,-0.1665,0.2862
997,0.0,0.0,0.0,0.0,0.0,0.0,-0.2397,-0.9909,-0.1112,0.6352,-0.6976,-0.1671,0.2862
998,0.0,0.0,0.0,0.0,0.0,0.0,-0.2386,-0.9797,-0.1158,0.6346,-0.6980,-0.1676,0.2863
999,0.0,0.0,0.0,0.0,0.0,0.0,-0.2361,-0.9618,-0.1199,0.6339,-0.6985,-0.1680,0.2864
1000,0.0,0.0,0.0,0.0,0.0,0.0,-0.2335,-0.9438,-0.1239,0.6331,-0.6991,-0.1685,0.2866
1001,0.0,0.0,0.0,0.0,0.0,0.0,-0.2286,-0.9351,-0.1267,0.6321,-0.6997,-0.1693,0.2868
1002,0.0,0.0,0.0,0.0,0.0,0.0,-0.2246,-0.9361,-0.1297,0.6309,-0.7004,-0.1704,0.2870
1003,0.0,0.0,0.0,0.0,0.0,0.0,-0.2299,-0.9375,-0.1345,0.6294,-0.7014,-0.1714,0.2874
1004,0.0,0.0,0.0,0.0,0.0,0.0,-0.2189,-0.8982,-0.1431,0.6273,-0.7029,-0.1725,0.2877
1005,0.0,0.0,0.0,0.0,0.0,0.0,-0.2319,-0.9433,-0.1539,0.6248,-0.7047,-0.1734,0.2879
1006,0.0,0.0,0.0,0.0,0.0,0.0,-0.2274,-0.9467,-0.1627,0.6224,-0.7066,-0.1747,0.2879
1007,0.0,0.0,0.0,0.0,0.0,0.0,-0.2409,-0.9782,-0.1747,0.6197,-0.7086,-0.1759,0.2879
1008,0.0,0.0,0.0,0.0,0.0,0.0,-0.2704,-0.9956,-0.1855,0.6169,-0.7109,-0.1767,0.2878
1009,0.0,0.0,0.0,0.0,0.0,0.0,-0.2704,-0.9864,-0.1844,0.6141,-0.7131,-0.1773,0.2880
1010,0.0,0.0,0.0,0.0,0.0,0.0,-0.2925,-1.0286,-0.1828,0.6119,-0.7147,-0.1774,0.2886
1011,0.0,0.0,0.0,0.0,0.0,0.0,-0.2884,-0.9975,-0.1871,0.6093,-0.7162,-0.1781,0.2901
1012,0.0,0.0,0.0,0.0,0.0,0.0,-0.2454,-0.9331,-0.1867,0.6066,-0.7172,-0.1800,0.2922
1013,0.0,0.0,0.0,0.0,0.0,0.0,-0.2677,-0.9757,-0.1731,0.6048,-0.7175,-0.1812,0.2942
1014,0.0,0.0,0.0,0.0,0.0,0.0,-0.2427,-0.9205,-0.1730,0.6032,-0.7175,-0.1829,0.2964
1015,0.0,0.0,0.0,0.0,0.0,0.0,-0.2424,-0.9666,-0.1720,0.6020,-0.7172,-0.1846,0.2985
1016,0.0,0.0,0.0,0.0,0.0,0.0,-0.2335,-0.9486,-0.1752,0.6009,-0.7169,-0.1860,0.3008
1017,0.0,0.0,0.0,0.0,0.0,0.0,-0.2226,-0.9418,-0.1830,0.5997,-0.7165,-0.1876,0.3029
1018,0.0,0.0,0.0,0.0,0.0,0.0,-0.2343,-0.9845,-0.1846,0.5989,-0.7161,-0.1886,0.3049
1019,0.0,0.0,0.0,0.0,0.0,0.0,-0.2358,-0.9821,-0.1845,0.5984,-0.7156,-0.1891,0.3068
1020,0.0,0.0,0.0,0.0,0.0,0.0,-0.2355,-0.9738,-0.1766,0.5983,-0.7149,-0.1893,0.3085
1021,0.0,0.0,0.0,0.0,0.0,0.0,-0.2419,-0.9782,-0.1713,0.5983,-0.7142,-0.1892,0.3100
1022,0.0,0.0,0.0,0.0,0.0,0.0,-0.2498,-0.9758,-0.1638,0.5985,-0.7135,-0.1887,0.3117
1023,0.0,0.0,0.0,0.0,0.0,0.0,-0.2509,-0.9879,-0.1597,0.5989,-0.7126,-0.1880,0.3133
1024,0.0,0.0,0.0,0.0,0.0,0.0,-0.2398,-0.9641,-0.1556,0.5992,-0.7118,-0.1874,0.3148
1025,0.0,0.0,0.0,0.0,0.0,0.0,-0.2475,-0.9540,-0.1547,0.5994,-0.7113,-0.1866,0.3161
1026,0.0,0.0,0.0,0.0,0.0,0.0,-0.2511,-0.9515,-0.1498,0.5996,-0.7109,-0.1858,0.3172
1027,0.0,0.0,0.0,0.0,0.0,0.0,-0.2423,-0.9472,-0.1460,0.5998,-0.7104,-0.1852,0.3181
1028,0.0,0.0,0.0,0.0,0.0,0.0,-0.2232,-0.9094,-0.1476,0.6000,-0.7101,-0.1852,0.3186
1029,0.0,0.0,0.0,0.0,0.0,0.0,-0.2316,-0.9234,-0.1458,0.6002,-0.7100,-0.1852,0.3183
1030,0.0,0.0,0.0,0.0,0.0,0.0,-0.2478,-0.9709,-0.1435,0.6007,-0.7099,-0.1852,0.3176
1031,0.0,0.0,0.0,0.0,0.0,0.0,-0.2566,-0.9942,-0.1462,0.6017,-0.7095,-0.1853,0.3166
1032,0.0,0.0,0.0,0.0,0.0,0.0,-0.2614,-0.9894,-0.1494,0.6031,-0.7089,-0.1853,0.3153
1033,0.0,0.0,0.0,0.0,0.0,0.0,-0.2618,-0.9641,-0.1513,0.6046,-0.7083,-0.1852,0.3138
1034,0.0,0.0,0.0,0.0,0.0,0.0,-0.2638,-0.9675,-0.1465,0.6063,-0.7077,-0.1849,0.3121
1035,0.0,0.0,0.0,0.0,0.0,0.0,-0.2576,-0.9588,-0.1397,0.6081,-0.7070,-0.1846,0.3104
1036,0.0,0.0,0.0,0.0,0.0,0.0,-0.2494,-0.9438,-0.1333,0.6099,-0.7062,-0.1845,0.3088
1037,0.0,0.0,0.0,0.0,0.0,0.0,-0.2432,-0.9394,-0.1265,0.6116,-0.7054,-0.1845,0.3072
1038,0.0,0.0,0.0,0.0,0.0,0.0,-0.2453,-0.9540,-0.1220,0.6133,-0.7046,-0.1845,0.3057
1039,0.0,0.0,0.0,0.0,0.0,0.0,-0.2458,-0.9545,-0.1186,0.6149,-0.7038,-0.1844,0.3044
1040,0.0,0.0,0.0,0.0,0.0,0.0,-0.2419,-0.9438,-0.1184,0.6162,-0.7031,-0.1844,0.3033
1041,0.0,0.0,0.0,0.0,0.0,0.0,-0.2420,-0.9535,-0.1143,0.6174,-0.7025,-0.1844,0.3023
1042,0.0,0.0,0.0,0.0,0.0,0.0,-0.2371,-0.9545,-0.1139,0.6185,-0.7019,-0.1844,0.3012
1043,0.0,0.0,0.0,0.0,0.0,0.0,-0.2375,-0.9448,-0.1185,0.6195,-0.7015,-0.1845,0.3003
1044,0.0,0.0,0.0,0.0,0.0,0.0,-0.2390,-0.9545,-0.1202,0.6203,-0.7011,-0.1847,0.2995
1045,0.0,0.0,0.0,0.0,0.0,0.0,-0.2351,-0.9545,-0.1197,0.6210,-0.7006,-0.1850,0.2987
1046,0.0,0.0,0.0,0.0,0.0,0.0,-0.2282,-0.9458,-0.1216,0.6216,-0.7003,-0.1856,0.2979
1047,0.0,0.0,0.0,0.0,0.0,0.0,-0.2253,-0.9467,-0.1208,0.6221,-0.7001,-0.1864,0.2970
1048,0.0,0.0,0.0,0.0,0.0,0.0,-0.2288,-0.9666,-0.1187,0.6225,-0.6999,-0.1870,0.2961
1049,0.0,0.0,0.0,0.0,0.0,0.0,-0.2282,-0.9720,-0.1222,0.6227,-0.6999,-0.1874,0.2953
1050,0.0,0.0,0.0,0.0,0.0,0.0,-0.2277,-0.9778,-0.1252,0.6230,-0.6999,-0.1877,0.2946
1051,0.0,0.0,0.0,0.0,0.0,0.0,-0.2272,-0.9846,-0.1268,0.6233,-0.6999,-0.1879,0.2938
1052,0.0,0.0,0.0,0.0,0.0,0.0,-0.2257,-0.9758,-0.1295,0.6235,-0.7000,-0.1880,0.2931
1053,0.0,0.0,0.0,0.0,0.0,0.0,-0.2262,-0.9744,-0.1290,0.6239,-0.6999,-0.1880,0.2924
1054,0.0,0.0,0.0,0.0,0.0,0.0,-0.2330,-0.9816,-0.1295,0.6243,-0.6998,-0.1879,0.2917
1055,0.0,0.0,0.0,0.0,0.0,0.0,-0.2354,-0.9729,-0.1293,0.6248,-0.6996,-0.1880,0.2913
1056,0.0,0.0,0.0,0.0,0.0,0.0,-0.2380,-0.9710,-0.1224,0.6253,-0.6993,-0.1878,0.2911
1057,0.0,0.0,0.0,0.0,0.0,0.0,-0.2434,-0.9686,-0.1199,0.6258,-0.6989,-0.1876,0.2912
1058,0.0,0.0,0.0,0.0,0.0,0.0,-0.2359,-0.9186,-0.1243,0.6258,-0.6985,-0.1879,0.2918
1059,0.0,0.0,0.0,0.0,0.0,0.0,-0.2280,-0.8997,-0.1285,0.6252,-0.6985,-0.1888,0.2923
1060,0.0,0.0,0.0,0.0,0.0,0.0,-0.2271,-0.9365,-0.1278,0.6243,-0.6989,-0.1900,0.2928
1061,0.0,0.0,0.0,0.0,0.0,0.0,-0.2309,-0.9453,-0.1327,0.6229,-0.6995,-0.1910,0.2937
1062,0.0,0.0,0.0,0.0,0.0,0.0,-0.2116,-0.9128,-0.1431,0.6209,-0.7005,-0.1924,0.2947
1063,0.0,0.0,0.0,0.0,0.0,0.0,-0.2239,-0.9826,-0.1432,0.6190,-0.7014,-0.1939,0.2955
1064,0.0,0.0,0.0,0.0,0.0,0.0,-0.2273,-1.0039,-0.1484,0.6172,-0.7020,-0.1956,0.2966
1065,0.0,0.0,0.0,0.0,0.0,0.0,-0.2158,-0.9816,-0.1588,0.6154,-0.7025,-0.1973,0.2980
1066,0.0,0.0,0.0,0.0,0.0,0.0,-0.2196,-0.9797,-0.1650,0.6135,-0.7033,-0.1984,0.2995
1067,0.0,0.0,0.0,0.0,0.0,0.0,-0.2210,-0.9753,-0.1682,0.6115,-0.7040,-0.1996,0.3009
1068,0.0,0.0,0.0,0.0,0.0,0.0,-0.2253,-0.9593,-0.1722,0.6095,-0.7048,-0.2008,0.3024
1069,0.0,0.0,0.0,0.0,0.0,0.0,-0.2302,-0.9651,-0.1708,0.6072,-0.7058,-0.2016,0.3042
1070,0.0,0.0,0.0,0.0,0.0,0.0,-0.2336,-0.9748,-0.1718,0.6047,-0.7071,-0.2017,0.3060
1071,0.0,0.0,0.0,0.0,0.0,0.0,-0.2369,-0.9602,-0.1763,0.6020,-0.7086,-0.2016,0.3079
1072,0.0,0.0,0.0,0.0,0.0,0.0,-0.2461,-0.9573,-0.1775,0.5997,-0.7098,-0.2013,0.3100
1073,0.0,0.0,0.0,0.0,0.0,0.0,-0.2533,-0.9442,-0.1820,0.5971,-0.7110,-0.2009,0.3125
1074,0.0,0.0,0.0,0.0,0.0,0.0,-0.2473,-0.9238,-0.1899,0.5943,-0.7122,-0.2007,0.3151
1075,0.0,0.0,0.0,0.0,0.0,0.0,-0.2575,-0.9258,-0.1917,0.5918,-0.7131,-0.2008,0.3176
1076,0.0,0.0,0.0,0.0,0.0,0.0,-0.2591,-0.9486,-0.1858,0.5900,-0.7134,-0.2013,0.3202
1077,0.0,0.0,0.0,0.0,0.0,0.0,-0.2523,-0.9336,-0.1847,0.5886,-0.7143,-0.2013,0.3206
1078,0.0,0.0,0.0,0.0,0.0,0.0,-0.2513,-0.9534,-0.1860,0.5871,-0.7145,-0.2022,0.3225
1079,0.0,0.0,0.0,0.0,0.0,0.0,-0.2515,-0.9864,-0.1794,0.5859,-0.7144,-0.2032,0.3241
1080,0.0,0.0,0.0,0.0,0.0,0.0,-0.2579,-1.0058,-0.1768,0.5852,-0.7142,-0.2040,0.3252
1081,0.0,0.0,0.0,0.0,0.0,0.0,-0.2593,-0.9898,-0.1808,0.5848,-0.7140,-0.2045,0.3261
1082,0.0,0.0,0.0,0.0,0.0,0.0,-0.2543,-0.9694,-0.1858,0.5847,-0.7138,-0.2047,0.3267
1083,0.0,0.0,0.0,0.0,0.0,0.0,-0.2542,-0.9675,-0.1882,0.5847,-0.7136,-0.2050,0.3270
1084,0.0,0.0,0.0,0.0,0.0,0.0,-0.2553,-0.9559,-0.1846,0.5846,-0.7134,-0.2054,0.3272
1085,0.0,0.0,0.0,0.0,0.0,0.0,-0.2558,-0.9530,-0.1802,0.5847,-0.7134,-0.2054,0.3271
1086,0.0,0.0,0.0,0.0,0.0,0.0,-0.2691,-0.9646,-0.1777,0.5849,-0.7136,-0.2045,0.3268
1087,0.0,0.0,0.0,0.0,0.0,0.0,-0.2695,-0.9209,-0.1754,0.5844,-0.7142,-0.2038,0.3269
1088,0.0,0.0,0.0,0.0,0.0,0.0,-0.2628,-0.9122,-0.1686,0.5838,-0.7149,-0.2032,0.3269
1089,0.0,0.0,0.0,0.0,0.0,0.0,-0.2663,-0.9370,-0.1666,0.5835,-0.7155,-0.2025,0.3266
1090,0.0,0.0,0.0,0.0,0.0,0.0,-0.2597,-0.9011,-0.1747,0.5827,-0.7164,-0.2019,0.3263
1091,0.0,0.0,0.0,0.0,0.0,0.0,-0.2690,-0.9171,-0.1782,0.5823,-0.7172,-0.2012,0.3257
1092,0.0,0.0,0.0,0.0,0.0,0.0,-0.2838,-0.9835,-0.1754,0.5828,-0.7174,-0.2005,0.3248
1093,0.0,0.0,0.0,0.0,0.0,0.0,-0.2804,-1.0029,-0.1744,0.5843,-0.7168,-0.2000,0.3237
1094,0.0,0.0,0.0,0.0,0.0,0.0,-0.2746,-0.9869,-0.1727,0.5864,-0.7157,-0.1998,0.3226
1095,0.0,0.0,0.0,0.0,0.0,0.0,-0.2589,-0.9496,-0.1713,0.5887,-0.7141,-0.2001,0.3217
1096,0.0,0.0,0.0,0.0,0.0,0.0,-0.2484,-0.9603,-0.1616,0.5911,-0.7124,-0.2008,0.3206
1097,0.0,0.0,0.0,0.0,0.0,0.0,-0.2461,-0.9515,-0.1542,0.5936,-0.7107,-0.2013,0.3193
1098,0.0,0.0,0.0,0.0,0.0,0.0,-0.2398,-0.9443,-0.1528,0.5961,-0.7093,-0.2017,0.3177
1099,0.0,0.0,0.0,0.0,0.0,0.0,-0.2408,-0.9351,-0.1492,0.5984,-0.7080,-0.2020,0.3159
1100,0.0,0.0,0.0,0.0,0.0,0.0,-0.2487,-0.9627,-0.1472,0.6005,-0.7070,-0.2024,0.3140
1101,0.0,0.0,0.0,0.0,0.0,0.0,-0.2424,-0.9826,-0.1457,0.6024,-0.7060,-0.2030,0.3120
1102,0.0,0.0,0.0,0.0,0.0,0.0,-0.2364,-0.9724,-0.1510,0.6044,-0.7051,-0.2040,0.3097
1103,0.0,0.0,0.0,0.0,0.0,0.0,-0.2149,-0.9530,-0.1549,0.6062,-0.7044,-0.2053,0.3069
1104,0.0,0.0,0.0,0.0,0.0,0.0,-0.2066,-0.9579,-0.1561,0.6079,-0.7041,-0.2065,0.3034
1105,0.0,0.0,0.0,0.0,0.0,0.0,-0.2157,-0.9525,-0.1626,0.6090,-0.7042,-0.2076,0.3002
1106,0.0,0.0,0.0,0.0,0.0,0.0,-0.2030,-0.9734,-0.1662,0.6094,-0.7049,-0.2088,0.2970
1107,0.0,0.0,0.0,0.0,0.0,0.0,-0.1899,-0.9666,-0.1634,0.6098,-0.7059,-0.2092,0.2935
1108,0.0,0.0,0.0,0.0,0.0,0.0,-0.1868,-0.9617,-0.1725,0.6099,-0.7070,-0.2096,0.2903
1109,0.0,0.0,0.0,0.0,0.0,0.0,-0.1867,-0.9821,-0.1763,0.6097,-0.7079,-0.2105,0.2880
1110,0.0,0.0,0.0,0.0,0.0,0.0,-0.1695,-0.9540,-0.1843,0.6095,-0.7088,-0.2111,0.2855
1111,0.0,0.0,0.0,0.0,0.0,0.0,-0.1727,-0.9341,-0.1940,0.6098,-0.7098,-0.2107,0.2826
1112,0.0,0.0,0.0,0.0,0.0,0.0,-0.1868,-0.9520,-0.1965,0.6107,-0.7104,-0.2096,0.2800
1113,0.0,0.0,0.0,0.0,0.0,0.0,-0.1928,-0.9695,-0.1904,0.6119,-0.7105,-0.2085,0.2778
1114,0.0,0.0,0.0,0.0,0.0,0.0,-0.2007,-0.9704,-0.1859,0.6132,-0.7105,-0.2075,0.2759
1115,0.0,0.0,0.0,0.0,0.0,0.0,-0.2009,-0.9763,-0.1759,0.6147,-0.7100,-0.2067,0.2744
1116,0.0,0.0,0.0,0.0,0.0,0.0,-0.1971,-0.9739,-0.1687,0.6162,-0.7095,-0.2059,0.2730
1117,0.0,0.0,0.0,0.0,0.0,0.0,-0.1947,-0.9530,-0.1640,0.6173,-0.7092,-0.2053,0.2717
1118,0.0,0.0,0.0,0.0,0.0,0.0,-0.1910,-0.9491,-0.1558,0.6183,-0.7090,-0.2046,0.2705
1119,0.0,0.0,0.0,0.0,0.0,0.0,-0.1921,-0.9574,-0.1496,0.6193,-0.7089,-0.2039,0.2691
1120,0.0,0.0,0.0,0.0,0.0,0.0,-0.1986,-0.9841,-0.1433,0.6201,-0.7089,-0.2031,0.2678
1121,0.0,0.0,0.0,0.0,0.0,0.0,-0.1997,-0.9889,-0.1375,0.6210,-0.7088,-0.2022,0.2665
1122,0.0,0.0,0.0,0.0,0.0,0.0,-0.1978,-0.9928,-0.1323,0.6221,-0.7086,-0.2011,0.2654
1123,0.0,0.0,0.0,0.0,0.0,0.0,-0.2008,-1.0069,-0.1297,0.6233,-0.7081,-0.2000,0.2646
1124,0.0,0.0,0.0,0.0,0.0,0.0,-0.2013,-0.9720,-0.1275,0.6245,-0.7076,-0.1986,0.2643
1125,0.0,0.0,0.0,0.0,0.0,0.0,-0.1925,-0.9623,-0.1275,0.6254,-0.7072,-0.1972,0.2642
1126,0.0,0.0,0.0,0.0,0.0,0.0,-0.1980,-0.9666,-0.1246,0.6262,-0.7069,-0.1956,0.2645
1127,0.0,0.0,0.0,0.0,0.0,0.0,-0.1921,-0.9535,-0.1230,0.6269,-0.7065,-0.1940,0.2651
1128,0.0,0.0,0.0,0.0,0.0,0.0,-0.1868,-0.9395,-0.1199,0.6274,-0.7062,-0.1924,0.2658
1129,0.0,0.0,0.0,0.0,0.0,0.0,-0.1950,-0.9298,-0.1210,0.6276,-0.7062,-0.1907,0.2667
1130,0.0,0.0,0.0,0.0,0.0,0.0,-0.2042,-0.9380,-0.1244,0.6273,-0.7064,-0.1888,0.2679
1131,0.0,0.0,0.0,0.0,0.0,0.0,-0.2115,-0.9395,-0.1291,0.6266,-0.7070,-0.1869,0.2693
1132,0.0,0.0,0.0,0.0,0.0,0.0,-0.2216,-0.9438,-0.1338,0.6256,-0.7079,-0.1850,0.2707
1133,0.0,0.0,0.0,0.0,0.0,0.0,-0.2255,-0.9545,-0.1373,0.6244,-0.7088,-0.1833,0.2722
1134,0.0,0.0,0.0,0.0,0.0,0.0,-0.2322,-0.9647,-0.1408,0.6232,-0.7098,-0.1817,0.2736
1135,0.0,0.0,0.0,0.0,0.0,0.0,-0.2374,-0.9666,-0.1489,0.6219,-0.7106,-0.1803,0.2751
1136,0.0,0.0,0.0,0.0,0.0,0.0,-0.2383,-0.9608,-0.1536,0.6206,-0.7115,-0.1792,0.2765
1137,0.0,0.0,0.0,0.0,0.0,0.0,-0.2383,-0.9564,-0.1564,0.6192,-0.7124,-0.1784,0.2778
1138,0.0,0.0,0.0,0.0,0.0,0.0,-0.2387,-0.9520,-0.1607,0.6178,-0.7133,-0.1778,0.2791
1139,0.0,0.0,0.0,0.0,0.0,0.0,-0.2386,-0.9438,-0.1649,0.6163,-0.7143,-0.1774,0.2801
1140,0.0,0.0,0.0,0.0,0.0,0.0,-0.2424,-0.9539,-0.1664,0.6149,-0.7153,-0.1770,0.2808
1141,0.0,0.0,0.0,0.0,0.0,0.0,-0.2482,-0.9515,-0.1716,0.6134,-0.7164,-0.1767,0.2815
1142,0.0,0.0,0.0,0.0,0.0,0.0,-0.2524,-0.9564,-0.1793,0.6118,-0.7176,-0.1764,0.2821
1143,0.0,0.0,0.0,0.0,0.0,0.0,-0.2489,-0.9573,-0.1862,0.6102,-0.7187,-0.1765,0.2827
1144,0.0,0.0,0.0,0.0,0.0,0.0,-0.2449,-0.9602,-0.1926,0.6087,-0.7198,-0.1768,0.2832
1145,0.0,0.0,0.0,0.0,0.0,0.0,-0.2457,-0.9558,-0.1973,0.6072,-0.7207,-0.1771,0.2838
1146,0.0,0.0,0.0,0.0,0.0,0.0,-0.2427,-0.9544,-0.2012,0.6059,-0.7215,-0.1773,0.2843
1147,0.0,0.0,0.0,0.0,0.0,0.0,-0.2491,-0.9612,-0.2012,0.6047,-0.7222,-0.1778,0.2850
1148,0.0,0.0,0.0,0.0,0.0,0.0,-0.2560,-0.9651,-0.1983,0.6036,-0.7222,-0.1783,0.2867
1149,0.0,0.0,0.0,0.0,0.0,0.0,-0.2545,-0.9675,-0.1979,0.6031,-0.7221,-0.1782,0.2883
1150,0.0,0.0,0.0,0.0,0.0,0.0,-0.2495,-0.9699,-0.2043,0.6028,-0.7222,-0.1779,0.2890
1151,0.0,0.0,0.0,0.0,0.0,0.0,-0.2539,-0.9767,-0.2082,0.6023,-0.7224,-0.1778,0.2892
1152,0.0,0.0,0.0,0.0,0.0,0.0,-0.2539,-0.9786,-0.2048,0.6020,-0.7227,-0.1777,0.2895
1153,0.0,0.0,0.0,0.0,0.0,0.0,-0.2529,-0.9825,-0.2059,0.6016,-0.7230,-0.1774,0.2895
1154,0.0,0.0,0.0,0.0,0.0,0.0,-0.2519,-0.9578,-0.2045,0.6013,-0.7232,-0.1774,0.2896
1155,0.0,0.0,0.0,0.0,0.0,0.0,-0.2524,-0.9461,-0.2066,0.6011,-0.7241,-0.1767,0.2883
1156,0.0,0.0,0.0,0.0,0.0,0.0,-0.2549,-0.9476,-0.2032,0.6010,-0.7248,-0.1762,0.2871
1157,0.0,0.0,0.0,0.0,0.0,0.0,-0.2499,-0.9510,-0.2068,0.6009,-0.7257,-0.1758,0.2853
1158,0.0,0.0,0.0,0.0,0.0,0.0,-0.2607,-0.9568,-0.2038,0.6006,-0.7262,-0.1759,0.2845
1159,0.0,0.0,0.0,0.0,0.0,0.0,-0.2544,-0.9597,-0.2025,0.6003,-0.7262,-0.1765,0.2847
1160,0.0,0.0,0.0,0.0,0.0,0.0,-0.2481,-0.9617,-0.2037,0.6001,-0.7260,-0.1772,0.2853
1161,0.0,0.0,0.0,0.0,0.0,0.0,-0.2417,-0.9588,-0.2028,0.5999,-0.7256,-0.1780,0.2861
1162,0.0,0.0,0.0,0.0,0.0,0.0,-0.2340,-0.9529,-0.2014,0.5998,-0.7252,-0.1788,0.2869
1163,0.0,0.0,0.0,0.0,0.0,0.0,-0.2335,-0.9544,-0.1995,0.5997,-0.7248,-0.1796,0.2877
1164,0.0,0.0,0.0,0.0,0.0,0.0,-0.2321,-0.9544,-0.1947,0.5997,-0.7242,-0.1803,0.2885
1165,0.0,0.0,0.0,0.0,0.0,0.0,-0.2312,-0.9554,-0.1923,0.5998,-0.7237,-0.1811,0.2893
1166,0.0,0.0,0.0,0.0,0.0,0.0,-0.2332,-0.9544,-0.1884,0.6000,-0.7231,-0.1817,0.2900
1167,0.0,0.0,0.0,0.0,0.0,0.0,-0.2338,-0.9534,-0.1849,0.6001,-0.7226,-0.1823,0.2907
1168,0.0,0.0,0.0,0.0,0.0,0.0,-0.2373,-0.9525,-0.1820,0.6004,-0.7219,-0.1828,0.2916
1169,0.0,0.0,0.0,0.0,0.0,0.0,-0.2368,-0.9535,-0.1791,0.6005,-0.7207,-0.1836,0.2936
1170,0.0,0.0,0.0,0.0,0.0,0.0,-0.2227,-0.9491,-0.1783,0.6006,-0.7197,-0.1848,0.2953
1171,0.0,0.0,0.0,0.0,0.0,0.0,-0.2272,-0.9554,-0.1750,0.6008,-0.7189,-0.1857,0.2961
1172,0.0,0.0,0.0,0.0,0.0,0.0,-0.2257,-0.9476,-0.1753,0.6010,-0.7187,-0.1863,0.2959
1173,0.0,0.0,0.0,0.0,0.0,0.0,-0.2404,-0.9544,-0.1737,0.6011,-0.7188,-0.1865,0.2955
1174,0.0,0.0,0.0,0.0,0.0,0.0,-0.2467,-0.9641,-0.1738,0.6011,-0.7185,-0.1870,0.2958
1175,0.0,0.0,0.0,0.0,0.0,0.0,-0.2423,-0.9661,-0.1768,0.6010,-0.7181,-0.1877,0.2965
1176,0.0,0.0,0.0,0.0,0.0,0.0,-0.2418,-0.9661,-0.1778,0.6010,-0.7175,-0.1883,0.2974
1177,0.0,0.0,0.0,0.0,0.0,0.0,-0.2398,-0.9627,-0.1763,0.6011,-0.7169,-0.1890,0.2985
1178,0.0,0.0,0.0,0.0,0.0,0.0,-0.2389,-0.9617,-0.1749,0.6011,-0.7162,-0.1897,0.2996
1179,0.0,0.0,0.0,0.0,0.0,0.0,-0.2408,-0.9588,-0.1738,0.6011,-0.7155,-0.1904,0.3008
1180,0.0,0.0,0.0,0.0,0.0,0.0,-0.2453,-0.9573,-0.1703,0.6012,-0.7147,-0.1910,0.3019
1181,0.0,0.0,0.0,0.0,0.0,0.0,-0.2444,-0.9549,-0.1664,0.6013,-0.7139,-0.1918,0.3033
1182,0.0,0.0,0.0,0.0,0.0,0.0,-0.2439,-0.9486,-0.1649,0.6014,-0.7130,-0.1927,0.3046
1183,0.0,0.0,0.0,0.0,0.0,0.0,-0.2416,-0.9472,-0.1615,0.6014,-0.7121,-0.1938,0.3059
1184,0.0,0.0,0.0,0.0,0.0,0.0,-0.2377,-0.9457,-0.1582,0.6015,-0.7112,-0.1952,0.3072
1185,0.0,0.0,0.0,0.0,0.0,0.0,-0.2358,-0.9462,-0.1572,0.6014,-0.7102,-0.1968,0.3086
1186,0.0,0.0,0.0,0.0,0.0,0.0,-0.2358,-0.9472,-0.1573,0.6011,-0.7093,-0.1984,0.3101
1187,0.0,0.0,0.0,0.0,0.0,0.0,-0.2329,-0.9477,-0.1568,0.6007,-0.7085,-0.2003,0.3116
1188,0.0,0.0,0.0,0.0,0.0,0.0,-0.2280,-0.9477,-0.1560,0.6003,-0.7076,-0.2023,0.3132
1189,0.0,0.0,0.0,0.0,0.0,0.0,-0.2207,-0.9462,-0.1566,0.5997,-0.7067,-0.2047,0.3148
1190,0.0,0.0,0.0,0.0,0.0,0.0,-0.2227,-0.9549,-0.1548,0.5990,-0.7059,-0.2070,0.3163
1191,0.0,0.0,0.0,0.0,0.0,0.0,-0.2198,-0.9646,-0.1531,0.5984,-0.7051,-0.2093,0.3177
1192,0.0,0.0,0.0,0.0,0.0,0.0,-0.2164,-0.9739,-0.1519,0.5979,-0.7042,-0.2116,0.3192
1193,0.0,0.0,0.0,0.0,0.0,0.0,-0.2155,-0.9797,-0.1511,0.5974,-0.7032,-0.2138,0.3207
1194,0.0,0.0,0.0,0.0,0.0,0.0,-0.2135,-0.9758,-0.1525,0.5970,-0.7023,-0.2158,0.3223
1195,0.0,0.0,0.0,0.0,0.0,0.0,-0.2125,-0.9637,-0.1551,0.5964,-0.7014,-0.2177,0.3239
1196,0.0,0.0,0.0,0.0,0.0,0.0,-0.2114,-0.9545,-0.1569,0.5958,-0.7008,-0.2193,0.3253
1197,0.0,0.0,0.0,0.0,0.0,0.0,-0.2123,-0.9482,-0.1621,0.5949,-0.7004,-0.2209,0.3267
1198,0.0,0.0,0.0,0.0,0.0,0.0,-0.2186,-0.9477,-0.1639,0.5938,-0.7003,-0.2222,0.3281
1199,0.0,0.0,0.0,0.0,0.0,0.0,-0.2239,-0.9481,-0.1672,0.5925,-0.7004,-0.2233,0.3294
1200,0.0,0.0,0.0,0.0,0.0,0.0,-0.2282,-0.9462,-0.1728,0.5909,-0.7008,-0.2244,0.3306
1201,0.0,0.0,0.0,0.0,0.0,0.0,-0.2305,-0.9452,-0.1766,0.5893,-0.7013,-0.2254,0.3317
1202,0.0,0.0,0.0,0.0,0.0,0.0,-0.2348,-0.9505,-0.1815,0.5876,-0.7019,-0.2266,0.3326
1203,0.0,0.0,0.0,0.0,0.0,0.0,-0.2373,-0.9568,-0.1825,0.5860,-0.7025,-0.2279,0.3334
1204,0.0,0.0,0.0,0.0,0.0,0.0,-0.2338,-0.9631,-0.1842,0.5846,-0.7029,-0.2293,0.3341
1205,0.0,0.0,0.0,0.0,0.0,0.0,-0.2338,-0.9661,-0.1857,0.5832,-0.7033,-0.2307,0.3347
1206,0.0,0.0,0.0,0.0,0.0,0.0,-0.2362,-0.9670,-0.1871,0.5821,-0.7035,-0.2320,0.3353
1207,0.0,0.0,0.0,0.0,0.0,0.0,-0.2381,-0.9685,-0.1895,0.5811,-0.7037,-0.2332,0.3359
1208,0.0,0.0,0.0,0.0,0.0,0.0,-0.2391,-0.9656,-0.1909,0.5803,-0.7037,-0.2343,0.3366
1209,0.0,0.0,0.0,0.0,0.0,0.0,-0.2376,-0.9597,-0.1913,0.5795,-0.7036,-0.2354,0.3373
1210,0.0,0.0,0.0,0.0,0.0,0.0,-0.2346,-0.9496,-0.1931,0.5788,-0.7035,-0.2366,0.3378
1211,0.0,0.0,0.0,0.0,0.0,0.0,-0.2287,-0.9437,-0.1931,0.5780,-0.7035,-0.2378,0.3384
1212,0.0,0.0,0.0,0.0,0.0,0.0,-0.2273,-0.9476,-0.1922,0.5772,-0.7035,-0.2391,0.3388
1213,0.0,0.0,0.0,0.0,0.0,0.0,-0.2297,-0.9563,-0.1933,0.5765,-0.7035,-0.2403,0.3390
1214,0.0,0.0,0.0,0.0,0.0,0.0,-0.2316,-0.9631,-0.1963,0.5758,-0.7036,-0.2414,0.3392
1215,0.0,0.0,0.0,0.0,0.0,0.0,-0.2346,-0.9660,-0.1973,0.5752,-0.7037,-0.2424,0.3394
1216,0.0,0.0,0.0,0.0,0.0,0.0,-0.2316,-0.9641,-0.1973,0.5746,-0.7039,-0.2433,0.3394
1217,0.0,0.0,0.0,0.0,0.0,0.0,-0.2306,-0.9665,-0.1983,0.5742,-0.7039,-0.2441,0.3393
1218,0.0,0.0,0.0,0.0,0.0,0.0,-0.2301,-0.9714,-0.1989,0.5740,-0.7039,-0.2449,0.3392
1219,0.0,0.0,0.0,0.0,0.0,0.0,-0.2326,-0.9772,-0.1980,0.5740,-0.7038,-0.2456,0.3389
1220,0.0,0.0,0.0,0.0,0.0,0.0,-0.2327,-0.9777,-0.1961,0.5744,-0.7035,-0.2461,0.3385
1221,0.0,0.0,0.0,0.0,0.0,0.0,-0.2307,-0.9714,-0.1960,0.5749,-0.7031,-0.2466,0.3382
1222,0.0,0.0,0.0,0.0,0.0,0.0,-0.2273,-0.9627,-0.1940,0.5754,-0.7026,-0.2471,0.3378
1223,0.0,0.0,0.0,0.0,0.0,0.0,-0.2254,-0.9583,-0.1910,0.5761,-0.7022,-0.2475,0.3375
1224,0.0,0.0,0.0,0.0,0.0,0.0,-0.2264,-0.9520,-0.1880,0.5766,-0.7017,-0.2476,0.3372
1225,0.0,0.0,0.0,0.0,0.0,0.0,-0.2274,-0.9491,-0.1855,0.5771,-0.7014,-0.2477,0.3371
1226,0.0,0.0,0.0,0.0,0.0,0.0,-0.2294,-0.9428,-0.1839,0.5774,-0.7013,-0.2475,0.3369
1227,0.0,0.0,0.0,0.0,0.0,0.0,-0.2289,-0.9379,-0.1833,0.5775,-0.7014,-0.2473,0.3368
1228,0.0,0.0,0.0,0.0,0.0,0.0,-0.2328,-0.9379,-0.1837,0.5774,-0.7016,-0.2472,0.3366
1229,0.0,0.0,0.0,0.0,0.0,0.0,-0.2376,-0.9399,-0.1870,0.5771,-0.7019,-0.2469,0.3366
1230,0.0,0.0,0.0,0.0,0.0,0.0,-0.2381,-0.9423,-0.1890,0.5767,-0.7024,-0.2468,0.3365
1231,0.0,0.0,0.0,0.0,0.0,0.0,-0.2386,-0.9491,-0.1901,0.5763,-0.7027,-0.2468,0.3364
1232,0.0,0.0,0.0,0.0,0.0,0.0,-0.2395,-0.9559,-0.1926,0.5759,-0.7031,-0.2469,0.3363
