,Position_X,Position_Y,Position_Z,Velocity_X,Velocity_Y,Velocity_Z,Acceleration_X,Acceleration_Y,Acceleration_Z,Quaterion_0,Quaterion_1,Quaterion_2,Quaterion_3
207,0.0,0.0,0.0,0.0,0.0,0.0,-0.0536,-1.0057,0.0932,0.7657,-0.6415,0.0188,0.0422
208,0.0,0.0,0.0,0.0,0.0,0.0,-0.0531,-1.0033,0.0971,0.7661,-0.6410,0.0195,0.0420
209,0.0,0.0,0.0,0.0,0.0,0.0,-0.0389,-1.0042,0.0859,0.7664,-0.6408,0.0189,0.0412
210,0.0,0.0,0.0,0.0,0.0,0.0,-0.0443,-0.9774,0.0835,0.7662,-0.6409,0.0194,0.0416
211,0.0,0.0,0.0,0.0,0.0,0.0,-0.0424,-1.0013,0.0874,0.7665,-0.6407,0.0183,0.0408
212,0.0,0.0,0.0,0.0,0.0,0.0,-0.0394,-1.0106,0.1050,0.7670,-0.6401,0.0170,0.0403
213,0.0,0.0,0.0,0.0,0.0,0.0,-0.0404,-1.0121,0.0986,0.7667,-0.6405,0.0176,0.0405
214,0.0,0.0,0.0,0.0,0.0,0.0,-0.0404,-1.0106,0.1113,0.7674,-0.6397,0.0165,0.0403
215,0.0,0.0,0.0,0.0,0.0,0.0,-0.0355,-1.0145,0.1172,0.7685,-0.6384,0.0158,0.0408
216,0.0,0.0,0.0,0.0,0.0,0.0,-0.0399,-1.0189,0.1162,0.7679,-0.6391,0.0161,0.0406
217,0.0,0.0,0.0,0.0,0.0,0.0,-0.0286,-1.0038,0.1182,0.7693,-0.6374,0.0154,0.0410
218,0.0,0.0,0.0,0.0,0.0,0.0,-0.0233,-0.9706,0.1138,0.7704,-0.6360,0.0141,0.0414
219,0.0,0.0,0.0,0.0,0.0,0.0,-0.0257,-0.9809,0.1148,0.7700,-0.6365,0.0149,0.0412
220,0.0,0.0,0.0,0.0,0.0,0.0,-0.0184,-0.9804,0.1182,0.7705,-0.6360,0.0128,0.0415
221,0.0,0.0,0.0,0.0,0.0,0.0,-0.0139,-1.0063,0.1177,0.7702,-0.6363,0.0105,0.0420
222,0.0,0.0,0.0,0.0,0.0,0.0,-0.0149,-0.9955,0.1202,0.7704,-0.6360,0.0115,0.0418
223,0.0,0.0,0.0,0.0,0.0,0.0,-0.0188,-1.0116,0.1143,0.7699,-0.6367,0.0098,0.0422
224,0.0,0.0,0.0,0.0,0.0,0.0,-0.0389,-1.0253,0.1123,0.7695,-0.6371,0.0101,0.0422
225,0.0,0.0,0.0,0.0,0.0,0.0,-0.0271,-1.0170,0.1118,0.7696,-0.6370,0.0097,0.0421
226,0.0,0.0,0.0,0.0,0.0,0.0,-0.0472,-1.0253,0.1152,0.7698,-0.6368,0.0109,0.0423
227,0.0,0.0,0.0,0.0,0.0,0.0,-0.0511,-1.0057,0.1152,0.7704,-0.6360,0.0124,0.0426
228,0.0,0.0,0.0,0.0,0.0,0.0,-0.0511,-1.0165,0.1152,0.7701,-0.6364,0.0117,0.0424
229,0.0,0.0,0.0,0.0,0.0,0.0,-0.0497,-0.9965,0.1167,0.7709,-0.6354,0.0131,0.0428
230,0.0,0.0,0.0,0.0,0.0,0.0,-0.0374,-0.9941,0.1226,0.7715,-0.6346,0.0133,0.0433
231,0.0,0.0,0.0,0.0,0.0,0.0,-0.0472,-0.9945,0.1196,0.7713,-0.6349,0.0133,0.0430
232,0.0,0.0,0.0,0.0,0.0,0.0,-0.0267,-0.9936,0.1240,0.7718,-0.6343,0.0130,0.0432
233,0.0,0.0,0.0,0.0,0.0,0.0,-0.0213,-0.9843,0.1236,0.7722,-0.6339,0.0122,0.0418
234,0.0,0.0,0.0,0.0,0.0,0.0,-0.0218,-0.9858,0.1226,0.7720,-0.6340,0.0126,0.0426
235,0.0,0.0,0.0,0.0,0.0,0.0,-0.0203,-0.9868,0.1216,0.7722,-0.6340,0.0117,0.0407
236,0.0,0.0,0.0,0.0,0.0,0.0,-0.0213,-0.9892,0.1143,0.7716,-0.6349,0.0110,0.0379
237,0.0,0.0,0.0,0.0,0.0,0.0,-0.0203,-0.9868,0.1182,0.7721,-0.6342,0.0114,0.0393
238,0.0,0.0,0.0,0.0,0.0,0.0,-0.0232,-0.9984,0.1118,0.7710,-0.6357,0.0107,0.0364
239,0.0,0.0,0.0,0.0,0.0,0.0,-0.0315,-1.0243,0.1084,0.7700,-0.6370,0.0111,0.0337
240,0.0,0.0,0.0,0.0,0.0,0.0,-0.0257,-1.0179,0.1109,0.7705,-0.6364,0.0108,0.0350
241,0.0,0.0,0.0,0.0,0.0,0.0,-0.0345,-1.0194,0.1025,0.7696,-0.6376,0.0116,0.0326
242,0.0,0.0,0.0,0.0,0.0,0.0,-0.0409,-1.0155,0.1011,0.7693,-0.6380,0.0129,0.0311
243,0.0,0.0,0.0,0.0,0.0,0.0,-0.0369,-1.0130,0.0996,0.7693,-0.6380,0.0122,0.0317
244,0.0,0.0,0.0,0.0,0.0,0.0,-0.0423,-1.0179,0.1015,0.7692,-0.6382,0.0136,0.0310
245,0.0,0.0,0.0,0.0,0.0,0.0,-0.0404,-1.0062,0.1006,0.7692,-0.6380,0.0146,0.0313
246,0.0,0.0,0.0,0.0,0.0,0.0,-0.0414,-1.0130,0.0996,0.7692,-0.6382,0.0142,0.0310
247,0.0,0.0,0.0,0.0,0.0,0.0,-0.0326,-0.9794,0.0874,0.7691,-0.6382,0.0145,0.0315
248,0.0,0.0,0.0,0.0,0.0,0.0,-0.0130,-0.9896,0.0933,0.7686,-0.6388,0.0123,0.0324
249,0.0,0.0,0.0,0.0,0.0,0.0,-0.0218,-0.9867,0.0854,0.7688,-0.6385,0.0136,0.0319
250,0.0,0.0,0.0,0.0,0.0,0.0,-0.0149,-1.0053,0.1045,0.7684,-0.6390,0.0110,0.0329
251,0.0,0.0,0.0,0.0,0.0,0.0,-0.0198,-1.0141,0.1158,0.7688,-0.6385,0.0094,0.0340
252,0.0,0.0,0.0,0.0,0.0,0.0,-0.0134,-1.0194,0.1148,0.7685,-0.6388,0.0099,0.0334
253,0.0,0.0,0.0,0.0,0.0,0.0,-0.0242,-1.0155,0.1177,0.7690,-0.6382,0.0093,0.0346
254,0.0,0.0,0.0,0.0,0.0,0.0,-0.0237,-0.9985,0.1187,0.7693,-0.6378,0.0089,0.0354
255,0.0,0.0,0.0,0.0,0.0,0.0,-0.0262,-1.0067,0.1182,0.7692,-0.6380,0.0092,0.0351
256,0.0,0.0,0.0,0.0,0.0,0.0,-0.0213,-0.9941,0.1192,0.7696,-0.6375,0.0087,0.0356
257,0.0,0.0,0.0,0.0,0.0,0.0,-0.0252,-0.9965,0.1123,0.7697,-0.6374,0.0084,0.0355
258,0.0,0.0,0.0,0.0,0.0,0.0,-0.0223,-0.9965,0.1172,0.7697,-0.6373,0.0085,0.0356
259,0.0,0.0,0.0,0.0,0.0,0.0,-0.0301,-0.9950,0.1079,0.7694,-0.6378,0.0083,0.0354
260,0.0,0.0,0.0,0.0,0.0,0.0,-0.0222,-1.0077,0.1113,0.7693,-0.6378,0.0083,0.0351
261,0.0,0.0,0.0,0.0,0.0,0.0,-0.0306,-0.9999,0.1099,0.7692,-0.6380,0.0084,0.0353
262,0.0,0.0,0.0,0.0,0.0,0.0,-0.0315,-1.0209,0.1118,0.7693,-0.6379,0.0084,0.0350
263,0.0,0.0,0.0,0.0,0.0,0.0,-0.0359,-1.0218,0.1094,0.7695,-0.6376,0.0095,0.0350
264,0.0,0.0,0.0,0.0,0.0,0.0,-0.0374,-1.0296,0.1123,0.7692,-0.6380,0.0088,0.0349
265,0.0,0.0,0.0,0.0,0.0,0.0,-0.0399,-1.0140,0.1103,0.7699,-0.6371,0.0104,0.0352
266,0.0,0.0,0.0,0.0,0.0,0.0,-0.0433,-1.0072,0.1133,0.7705,-0.6363,0.0120,0.0358
267,0.0,0.0,0.0,0.0,0.0,0.0,-0.0418,-1.0087,0.1103,0.7701,-0.6368,0.0112,0.0355
268,0.0,0.0,0.0,0.0,0.0,0.0,-0.0448,-1.0048,0.1142,0.7711,-0.6355,0.0127,0.0361
269,0.0,0.0,0.0,0.0,0.0,0.0,-0.0409,-0.9940,0.1152,0.7723,-0.6341,0.0137,0.0369
270,0.0,0.0,0.0,0.0,0.0,0.0,-0.0418,-0.9989,0.1142,0.7718,-0.6346,0.0133,0.0365
271,0.0,0.0,0.0,0.0,0.0,0.0,-0.0384,-0.9911,0.1147,0.7723,-0.6340,0.0137,0.0372
272,0.0,0.0,0.0,0.0,0.0,0.0,-0.0374,-0.9970,0.1162,0.7728,-0.6333,0.0134,0.0377
273,0.0,0.0,0.0,0.0,0.0,0.0,-0.0360,-0.9936,0.1157,0.7726,-0.6337,0.0135,0.0375
274,0.0,0.0,0.0,0.0,0.0,0.0,-0.0355,-1.0023,0.1162,0.7729,-0.6332,0.0132,0.0379
275,0.0,0.0,0.0,0.0,0.0,0.0,-0.0325,-0.9970,0.1148,0.7732,-0.6329,0.0129,0.0385
276,0.0,0.0,0.0,0.0,0.0,0.0,-0.0345,-1.0014,0.1162,0.7730,-0.6331,0.0130,0.0383
277,0.0,0.0,0.0,0.0,0.0,0.0,-0.0320,-0.9980,0.1138,0.7735,-0.6325,0.0127,0.0386
278,0.0,0.0,0.0,0.0,0.0,0.0,-0.0335,-1.0053,0.1172,0.7736,-0.6324,0.0120,0.0390
279,0.0,0.0,0.0,0.0,0.0,0.0,-0.0325,-0.9999,0.1152,0.7737,-0.6323,0.0123,0.0388
280,0.0,0.0,0.0,0.0,0.0,0.0,-0.0340,-1.0072,0.1182,0.7736,-0.6323,0.0118,0.0392
281,0.0,0.0,0.0,0.0,0.0,0.0,-0.0370,-0.9906,0.1118,0.7739,-0.6320,0.0121,0.0394
282,0.0,0.0,0.0,0.0,0.0,0.0,-0.0374,-1.0097,0.1196,0.7739,-0.6319,0.0119,0.0393
283,0.0,0.0,0.0,0.0,0.0,0.0,-0.0145,-0.9770,0.1030,0.7734,-0.6326,0.0111,0.0394
284,0.0,0.0,0.0,0.0,0.0,0.0,-0.0095,-1.0063,0.1177,0.7732,-0.6329,0.0084,0.0387
285,0.0,0.0,0.0,0.0,0.0,0.0,-0.0086,-0.9955,0.1109,0.7732,-0.6329,0.0096,0.0391
286,0.0,0.0,0.0,0.0,0.0,0.0,-0.0149,-1.0146,0.1250,0.7732,-0.6329,0.0077,0.0383
287,0.0,0.0,0.0,0.0,0.0,0.0,-0.0394,-1.0087,0.1245,0.7733,-0.6329,0.0082,0.0377
288,0.0,0.0,0.0,0.0,0.0,0.0,-0.0257,-1.0116,0.1245,0.7731,-0.6331,0.0077,0.0379
289,0.0,0.0,0.0,0.0,0.0,0.0,-0.0428,-1.0033,0.1235,0.7736,-0.6325,0.0087,0.0376
290,0.0,0.0,0.0,0.0,0.0,0.0,-0.0384,-0.9965,0.1240,0.7738,-0.6323,0.0091,0.0376
291,0.0,0.0,0.0,0.0,0.0,0.0,-0.0404,-0.9984,0.1240,0.7738,-0.6323,0.0090,0.0375
292,0.0,0.0,0.0,0.0,0.0,0.0,-0.0399,-1.0009,0.1250,0.7738,-0.6322,0.0091,0.0377
293,0.0,0.0,0.0,0.0,0.0,0.0,-0.0428,-0.9994,0.1245,0.7740,-0.6320,0.0091,0.0382
294,0.0,0.0,0.0,0.0,0.0,0.0,-0.0423,-1.0077,0.1255,0.7739,-0.6321,0.0092,0.0379
295,0.0,0.0,0.0,0.0,0.0,0.0,-0.0384,-0.9853,0.1172,0.7738,-0.6322,0.0089,0.0385
296,0.0,0.0,0.0,0.0,0.0,0.0,-0.0262,-0.9682,0.1060,0.7730,-0.6332,0.0074,0.0384
297,0.0,0.0,0.0,0.0,0.0,0.0,-0.0287,-0.9692,0.1094,0.7735,-0.6325,0.0082,0.0385
298,0.0,0.0,0.0,0.0,0.0,0.0,-0.0326,-0.9760,0.1045,0.7722,-0.6342,0.0064,0.0383
299,0.0,0.0,0.0,0.0,0.0,0.0,-0.0267,-0.9975,0.1109,0.7705,-0.6363,0.0036,0.0379
300,0.0,0.0,0.0,0.0,0.0,0.0,-0.0311,-0.9862,0.1079,0.7714,-0.6352,0.0051,0.0381
301,0.0,0.0,0.0,0.0,0.0,0.0,-0.0232,-0.9994,0.1099,0.7697,-0.6373,0.0018,0.0377
302,0.0,0.0,0.0,0.0,0.0,0.0,-0.0169,-0.9970,0.1026,0.7674,-0.6401,-0.0019,0.0376
303,0.0,0.0,0.0,0.0,0.0,0.0,-0.0193,-0.9965,0.1065,0.7687,-0.6385,-0.0001,0.0375
304,0.0,0.0,0.0,0.0,0.0,0.0,-0.0179,-1.0023,0.1021,0.7660,-0.6417,-0.0035,0.0378
305,0.0,0.0,0.0,0.0,0.0,0.0,-0.0218,-1.0209,0.0962,0.7635,-0.6446,-0.0060,0.0386
306,0.0,0.0,0.0,0.0,0.0,0.0,-0.0203,-1.0121,0.1001,0.7648,-0.6431,-0.0048,0.0381
307,0.0,0.0,0.0,0.0,0.0,0.0,-0.0188,-1.0223,0.0903,0.7622,-0.6461,-0.0073,0.0392
308,0.0,0.0,0.0,0.0,0.0,0.0,-0.0100,-1.0116,0.0796,0.7605,-0.6480,-0.0101,0.0402
309,0.0,0.0,0.0,0.0,0.0,0.0,-0.0125,-1.0165,0.0845,0.7613,-0.6471,-0.0086,0.0398
310,0.0,0.0,0.0,0.0,0.0,0.0,-0.0081,-1.0077,0.0772,0.7596,-0.6490,-0.0117,0.0405
311,0.0,0.0,0.0,0.0,0.0,0.0,-0.0027,-1.0135,0.0811,0.7585,-0.6502,-0.0148,0.0413
312,0.0,0.0,0.0,0.0,0.0,0.0,-0.0071,-1.0077,0.0781,0.7590,-0.6496,-0.0132,0.0410
313,0.0,0.0,0.0,0.0,0.0,0.0,-0.0017,-1.0209,0.0821,0.7580,-0.6507,-0.0164,0.0417
314,0.0,0.0,0.0,0.0,0.0,0.0,0.0081,-1.0165,0.0796,0.7576,-0.6510,-0.0194,0.0428
315,0.0,0.0,0.0,0.0,0.0,0.0,0.0037,-1.0189,0.0801,0.7578,-0.6509,-0.0179,0.0422
316,0.0,0.0,0.0,0.0,0.0,0.0,0.0076,-1.0194,0.0801,0.7571,-0.6516,-0.0207,0.0436
317,0.0,0.0,0.0,0.0,0.0,0.0,0.0086,-1.0223,0.0772,0.7563,-0.6523,-0.0225,0.0453
318,0.0,0.0,0.0,0.0,0.0,0.0,0.0071,-1.0233,0.0787,0.7567,-0.6519,-0.0218,0.0444
319,0.0,0.0,0.0,0.0,0.0,0.0,0.0076,-1.0169,0.0728,0.7559,-0.6526,-0.0230,0.0462
320,0.0,0.0,0.0,0.0,0.0,0.0,0.0022,-1.0184,0.0703,0.7552,-0.6533,-0.0235,0.0480
321,0.0,0.0,0.0,0.0,0.0,0.0,0.0071,-1.0165,0.0699,0.7555,-0.6530,-0.0234,0.0471
322,0.0,0.0,0.0,0.0,0.0,0.0,-0.0022,-1.0179,0.0723,0.7552,-0.6533,-0.0233,0.0488
323,0.0,0.0,0.0,0.0,0.0,0.0,-0.0047,-1.0062,0.0689,0.7554,-0.6530,-0.0228,0.0500
324,0.0,0.0,0.0,0.0,0.0,0.0,-0.0052,-1.0155,0.0718,0.7553,-0.6531,-0.0229,0.0494
325,0.0,0.0,0.0,0.0,0.0,0.0,-0.0042,-0.9974,0.0674,0.7554,-0.6529,-0.0229,0.0502
326,0.0,0.0,0.0,0.0,0.0,0.0,-0.0008,-0.9891,0.0620,0.7549,-0.6535,-0.0236,0.0505
327,0.0,0.0,0.0,0.0,0.0,0.0,-0.0047,-0.9930,0.0654,0.7553,-0.6530,-0.0230,0.0504
328,0.0,0.0,0.0,0.0,0.0,0.0,-0.0032,-0.9886,0.0601,0.7543,-0.6541,-0.0243,0.0503
329,0.0,0.0,0.0,0.0,0.0,0.0,0.0065,-0.9794,0.0498,0.7524,-0.6563,-0.0265,0.0495
330,0.0,0.0,0.0,0.0,0.0,0.0,0.0031,-0.9794,0.0537,0.7534,-0.6551,-0.0253,0.0499
331,0.0,0.0,0.0,0.0,0.0,0.0,0.0041,-0.9940,0.0498,0.7512,-0.6577,-0.0276,0.0491
332,0.0,0.0,0.0,0.0,0.0,0.0,-0.0037,-1.0154,0.0464,0.7488,-0.6604,-0.0293,0.0479
333,0.0,0.0,0.0,0.0,0.0,0.0,-0.0018,-1.0057,0.0488,0.7499,-0.6591,-0.0286,0.0484
334,0.0,0.0,0.0,0.0,0.0,0.0,-0.0042,-1.0208,0.0425,0.7478,-0.6615,-0.0299,0.0473
335,0.0,0.0,0.0,0.0,0.0,0.0,-0.0076,-1.0281,0.0405,0.7464,-0.6632,-0.0306,0.0466
336,0.0,0.0,0.0,0.0,0.0,0.0,-0.0052,-1.0262,0.0420,0.7471,-0.6624,-0.0303,0.0469
337,0.0,0.0,0.0,0.0,0.0,0.0,-0.0062,-1.0271,0.0366,0.7454,-0.6643,-0.0308,0.0466
338,0.0,0.0,0.0,0.0,0.0,0.0,-0.0062,-1.0208,0.0322,0.7439,-0.6659,-0.0306,0.0468
339,0.0,0.0,0.0,0.0,0.0,0.0,-0.0052,-1.0247,0.0346,0.7446,-0.6652,-0.0309,0.0467
340,0.0,0.0,0.0,0.0,0.0,0.0,-0.0027,-1.0286,0.0327,0.7434,-0.6665,-0.0305,0.0469
341,0.0,0.0,0.0,0.0,0.0,0.0,0.0021,-1.0169,0.0244,0.7427,-0.6673,-0.0303,0.0470
342,0.0,0.0,0.0,0.0,0.0,0.0,-0.0018,-1.0276,0.0298,0.7431,-0.6669,-0.0304,0.0470
343,0.0,0.0,0.0,0.0,0.0,0.0,0.0036,-1.0081,0.0185,0.7423,-0.6678,-0.0301,0.0470
344,0.0,0.0,0.0,0.0,0.0,0.0,0.0011,-1.0110,0.0195,0.7417,-0.6684,-0.0296,0.0465
345,0.0,0.0,0.0,0.0,0.0,0.0,0.0046,-1.0071,0.0171,0.7419,-0.6682,-0.0299,0.0468
346,0.0,0.0,0.0,0.0,0.0,0.0,-0.0023,-1.0276,0.0283,0.7418,-0.6684,-0.0292,0.0462
347,0.0,0.0,0.0,0.0,0.0,0.0,-0.0110,-1.0379,0.0386,0.7426,-0.6677,-0.0271,0.0458
348,0.0,0.0,0.0,0.0,0.0,0.0,-0.0066,-1.0388,0.0346,0.7420,-0.6682,-0.0283,0.0460
349,0.0,0.0,0.0,0.0,0.0,0.0,-0.0071,-1.0276,0.0390,0.7431,-0.6671,-0.0257,0.0458
350,0.0,0.0,0.0,0.0,0.0,0.0,-0.0072,-0.9983,0.0366,0.7439,-0.6663,-0.0232,0.0462
351,0.0,0.0,0.0,0.0,0.0,0.0,-0.0086,-1.0086,0.0361,0.7437,-0.6665,-0.0244,0.0460
352,0.0,0.0,0.0,0.0,0.0,0.0,-0.0106,-0.9925,0.0385,0.7438,-0.6665,-0.0219,0.0466
353,0.0,0.0,0.0,0.0,0.0,0.0,-0.0150,-0.9944,0.0376,0.7435,-0.6667,-0.0196,0.0474
354,0.0,0.0,0.0,0.0,0.0,0.0,-0.0131,-0.9959,0.0385,0.7437,-0.6665,-0.0207,0.0471
355,0.0,0.0,0.0,0.0,0.0,0.0,-0.0170,-0.9915,0.0346,0.7431,-0.6672,-0.0185,0.0478
356,0.0,0.0,0.0,0.0,0.0,0.0,-0.0272,-1.0110,0.0331,0.7419,-0.6685,-0.0166,0.0485
357,0.0,0.0,0.0,0.0,0.0,0.0,-0.0199,-0.9959,0.0327,0.7427,-0.6677,-0.0176,0.0482
358,0.0,0.0,0.0,0.0,0.0,0.0,-0.0297,-1.0134,0.0287,0.7410,-0.6695,-0.0156,0.0490
359,0.0,0.0,0.0,0.0,0.0,0.0,-0.0277,-1.0188,0.0243,0.7400,-0.6706,-0.0141,0.0497
360,0.0,0.0,0.0,0.0,0.0,0.0,-0.0307,-1.0207,0.0268,0.7404,-0.6702,-0.0147,0.0495
361,0.0,0.0,0.0,0.0,0.0,0.0,-0.0248,-1.0207,0.0229,0.7395,-0.6711,-0.0137,0.0500
362,0.0,0.0,0.0,0.0,0.0,0.0,-0.0243,-1.0315,0.0219,0.7388,-0.6720,-0.0128,0.0504
363,0.0,0.0,0.0,0.0,0.0,0.0,-0.0263,-1.0266,0.0214,0.7391,-0.6716,-0.0132,0.0502
364,0.0,0.0,0.0,0.0,0.0,0.0,-0.0243,-1.0315,0.0204,0.7385,-0.6723,-0.0122,0.0505
365,0.0,0.0,0.0,0.0,0.0,0.0,-0.0243,-1.0022,0.0204,0.7383,-0.6725,-0.0107,0.0506
366,0.0,0.0,0.0,0.0,0.0,0.0,-0.0268,-1.0168,0.0204,0.7385,-0.6723,-0.0114,0.0505
367,0.0,0.0,0.0,0.0,0.0,0.0,-0.0268,-0.9973,0.0219,0.7382,-0.6726,-0.0101,0.0507
368,0.0,0.0,0.0,0.0,0.0,0.0,-0.0322,-0.9900,0.0258,0.7381,-0.6728,-0.0088,0.0504
369,0.0,0.0,0.0,0.0,0.0,0.0,-0.0287,-0.9910,0.0239,0.7381,-0.6727,-0.0095,0.0506
370,0.0,0.0,0.0,0.0,0.0,0.0,-0.0366,-0.9954,0.0287,0.7380,-0.6729,-0.0080,0.0503
371,0.0,0.0,0.0,0.0,0.0,0.0,-0.0410,-0.9895,0.0273,0.7381,-0.6729,-0.0063,0.0495
372,0.0,0.0,0.0,0.0,0.0,0.0,-0.0371,-0.9929,0.0297,0.7381,-0.6728,-0.0071,0.0499
373,0.0,0.0,0.0,0.0,0.0,0.0,-0.0425,-0.9807,0.0180,0.7378,-0.6733,-0.0057,0.0490
374,0.0,0.0,0.0,0.0,0.0,0.0,-0.0342,-0.9836,0.0063,0.7362,-0.6750,-0.0063,0.0479
375,0.0,0.0,0.0,0.0,0.0,0.0,-0.0381,-0.9793,0.0136,0.7371,-0.6740,-0.0057,0.0485
376,0.0,0.0,0.0,0.0,0.0,0.0,-0.0283,-0.9910,-0.0006,0.7351,-0.6763,-0.0073,0.0473
377,0.0,0.0,0.0,0.0,0.0,0.0,-0.0214,-1.0563,-0.0025,0.7320,-0.6797,-0.0095,0.0464
378,0.0,0.0,0.0,0.0,0.0,0.0,-0.0219,-1.0246,-0.0035,0.7335,-0.6780,-0.0085,0.0468
379,0.0,0.0,0.0,0.0,0.0,0.0,-0.0223,-1.0627,-0.0045,0.7307,-0.6810,-0.0101,0.0460
380,0.0,0.0,0.0,0.0,0.0,0.0,-0.0302,-1.0563,-0.0060,0.7296,-0.6823,-0.0092,0.0459
381,0.0,0.0,0.0,0.0,0.0,0.0,-0.0263,-1.0622,-0.0069,0.7299,-0.6819,-0.0100,0.0459
382,0.0,0.0,0.0,0.0,0.0,0.0,-0.0346,-1.0402,-0.0040,0.7296,-0.6822,-0.0080,0.0461
383,0.0,0.0,0.0,0.0,0.0,0.0,-0.0420,-1.0109,-0.0011,0.7303,-0.6815,-0.0055,0.0465
384,0.0,0.0,0.0,0.0,0.0,0.0,-0.0380,-1.0261,-0.0025,0.7300,-0.6818,-0.0067,0.0463
385,0.0,0.0,0.0,0.0,0.0,0.0,-0.0449,-1.0163,0.0067,0.7306,-0.6812,-0.0045,0.0469
386,0.0,0.0,0.0,0.0,0.0,0.0,-0.0449,-1.0075,0.0092,0.7315,-0.6802,-0.0029,0.0477
387,0.0,0.0,0.0,0.0,0.0,0.0,-0.0454,-1.0119,0.0092,0.7311,-0.6807,-0.0036,0.0473
388,0.0,0.0,0.0,0.0,0.0,0.0,-0.0439,-1.0124,0.0111,0.7320,-0.6796,-0.0023,0.0480
389,0.0,0.0,0.0,0.0,0.0,0.0,-0.0371,-1.0149,0.0077,0.7335,-0.6780,-0.0022,0.0487
390,0.0,0.0,0.0,0.0,0.0,0.0,-0.0420,-1.0178,0.0092,0.7327,-0.6788,-0.0020,0.0484
391,0.0,0.0,0.0,0.0,0.0,0.0,-0.0336,-1.0183,0.0053,0.7344,-0.6769,-0.0026,0.0490
392,0.0,0.0,0.0,0.0,0.0,0.0,-0.0282,-1.0271,0.0043,0.7366,-0.6745,-0.0044,0.0498
393,0.0,0.0,0.0,0.0,0.0,0.0,-0.0268,-1.0197,0.0028,0.7355,-0.6757,-0.0034,0.0494
394,0.0,0.0,0.0,0.0,0.0,0.0,-0.0297,-1.0227,0.0038,0.7374,-0.6736,-0.0055,0.0504
395,0.0,0.0,0.0,0.0,0.0,0.0,-0.0370,-1.0436,0.0102,0.7375,-0.6733,-0.0069,0.0529
396,0.0,0.0,0.0,0.0,0.0,0.0,-0.0331,-1.0222,0.0063,0.7379,-0.6729,-0.0063,0.0512
397,0.0,0.0,0.0,0.0,0.0,0.0,-0.0370,-1.0471,0.0141,0.7359,-0.6748,-0.0078,0.0554
398,0.0,0.0,0.0,0.0,0.0,0.0,-0.0503,-0.9978,0.0013,0.7345,-0.6756,-0.0087,0.0634
399,0.0,0.0,0.0,0.0,0.0,0.0,-0.0503,-1.0153,0.0072,0.7349,-0.6755,-0.0082,0.0591
400,0.0,0.0,0.0,0.0,0.0,0.0,-0.0533,-0.9744,0.0013,0.7343,-0.6754,-0.0092,0.0679
401,0.0,0.0,0.0,0.0,0.0,0.0,-0.0454,-0.9715,0.0136,0.7341,-0.6745,-0.0112,0.0774
402,0.0,0.0,0.0,0.0,0.0,0.0,-0.0518,-0.9651,0.0052,0.7343,-0.6749,-0.0098,0.0726
403,0.0,0.0,0.0,0.0,0.0,0.0,-0.0361,-0.9812,0.0170,0.7339,-0.6742,-0.0133,0.0820
404,0.0,0.0,0.0,0.0,0.0,0.0,-0.0214,-0.9802,0.0063,0.7333,-0.6738,-0.0180,0.0894
405,0.0,0.0,0.0,0.0,0.0,0.0,-0.0273,-0.9763,0.0111,0.7338,-0.6737,-0.0155,0.0860
406,0.0,0.0,0.0,0.0,0.0,0.0,-0.0204,-0.9915,-0.0001,0.7322,-0.6746,-0.0209,0.0919
407,0.0,0.0,0.0,0.0,0.0,0.0,-0.0342,-1.0007,-0.0153,0.7298,-0.6766,-0.0263,0.0941
408,0.0,0.0,0.0,0.0,0.0,0.0,-0.0268,-0.9919,-0.0084,0.7310,-0.6756,-0.0237,0.0934
409,0.0,0.0,0.0,0.0,0.0,0.0,-0.0376,-1.0270,-0.0162,0.7284,-0.6780,-0.0289,0.0941
410,0.0,0.0,0.0,0.0,0.0,0.0,-0.0507,-1.0694,-0.0143,0.7259,-0.6808,-0.0320,0.0924
411,0.0,0.0,0.0,0.0,0.0,0.0,-0.0474,-1.0343,-0.0182,0.7271,-0.6795,-0.0309,0.0934
412,0.0,0.0,0.0,0.0,0.0,0.0,-0.0591,-1.0606,-0.0172,0.7250,-0.6820,-0.0320,0.0913
413,0.0,0.0,0.0,0.0,0.0,0.0,-0.0719,-1.0353,-0.0309,0.7233,-0.6841,-0.0270,0.0902
414,0.0,0.0,0.0,0.0,0.0,0.0,-0.0699,-1.0406,-0.0256,0.7241,-0.6831,-0.0303,0.0904
415,0.0,0.0,0.0,0.0,0.0,0.0,-0.0694,-1.0279,-0.0305,0.7222,-0.6853,-0.0227,0.0905
416,0.0,0.0,0.0,0.0,0.0,0.0,-0.0846,-0.9650,-0.0266,0.7199,-0.6878,-0.0136,0.0923
417,0.0,0.0,0.0,0.0,0.0,0.0,-0.0763,-0.9894,-0.0295,0.7210,-0.6866,-0.0180,0.0913
418,0.0,0.0,0.0,0.0,0.0,0.0,-0.0915,-0.9562,-0.0241,0.7188,-0.6888,-0.0092,0.0935
419,0.0,0.0,0.0,0.0,0.0,0.0,-0.1013,-0.9284,-0.0286,0.7153,-0.6923,-0.0006,0.0956
420,0.0,0.0,0.0,0.0,0.0,0.0,-0.1003,-0.9494,-0.0247,0.7174,-0.6902,-0.0047,0.0946
421,0.0,0.0,0.0,0.0,0.0,0.0,-0.1180,-0.9343,-0.0301,0.7125,-0.6950,0.0036,0.0966
422,0.0,0.0,0.0,0.0,0.0,0.0,-0.1542,-0.9498,-0.0511,0.7053,-0.7020,0.0120,0.0980
423,0.0,0.0,0.0,0.0,0.0,0.0,-0.1370,-0.9669,-0.0316,0.7090,-0.6984,0.0077,0.0974
424,0.0,0.0,0.0,0.0,0.0,0.0,-0.1855,-0.9810,-0.0678,0.7017,-0.7055,0.0165,0.0983
425,0.0,0.0,0.0,0.0,0.0,0.0,-0.2144,-1.0428,-0.0854,0.6970,-0.7100,0.0244,0.0979
426,0.0,0.0,0.0,0.0,0.0,0.0,-0.2036,-1.0404,-0.0742,0.6989,-0.7081,0.0205,0.0983
427,0.0,0.0,0.0,0.0,0.0,0.0,-0.2178,-1.0423,-0.0947,0.6956,-0.7112,0.0280,0.0973
428,0.0,0.0,0.0,0.0,0.0,0.0,-0.2169,-1.0258,-0.0928,0.6943,-0.7125,0.0337,0.0957
429,0.0,0.0,0.0,0.0,0.0,0.0,-0.2110,-1.0326,-0.0962,0.6947,-0.7121,0.0310,0.0965
430,0.0,0.0,0.0,0.0,0.0,0.0,-0.2090,-1.0219,-0.0840,0.6943,-0.7125,0.0356,0.0947
431,0.0,0.0,0.0,0.0,0.0,0.0,-0.1874,-1.0234,-0.0600,0.6959,-0.7111,0.0372,0.0930
432,0.0,0.0,0.0,0.0,0.0,0.0,-0.1972,-1.0331,-0.0707,0.6949,-0.7120,0.0367,0.0939
433,0.0,0.0,0.0,0.0,0.0,0.0,-0.1767,-1.0190,-0.0526,0.6975,-0.7097,0.0372,0.0920
434,0.0,0.0,0.0,0.0,0.0,0.0,-0.1581,-1.0030,-0.0330,0.7016,-0.7059,0.0366,0.0900
435,0.0,0.0,0.0,0.0,0.0,0.0,-0.1679,-1.0059,-0.0443,0.6995,-0.7078,0.0371,0.0911
436,0.0,0.0,0.0,0.0,0.0,0.0,-0.1492,-0.9947,-0.0247,0.7038,-0.7039,0.0359,0.0887
437,0.0,0.0,0.0,0.0,0.0,0.0,-0.1463,-0.9996,-0.0125,0.7087,-0.6994,0.0345,0.0859
438,0.0,0.0,0.0,0.0,0.0,0.0,-0.1497,-1.0035,-0.0198,0.7061,-0.7018,0.0351,0.0874
439,0.0,0.0,0.0,0.0,0.0,0.0,-0.1340,-0.9967,-0.0052,0.7133,-0.6952,0.0326,0.0823
440,0.0,0.0,0.0,0.0,0.0,0.0,-0.1257,-0.9991,-0.0051,0.7157,-0.6931,0.0312,0.0803
441,0.0,0.0,0.0,0.0,0.0,0.0,-0.11860000000000001,-1.0035,-0.005350000000000001,0.71785,-0.6912,0.02935,0.0781
442,0.0,0.0,0.0,0.0,0.0,0.0,-0.1115,-1.0079,-0.0056,0.7200,-0.6893,0.0275,0.0759
443,0.0,0.0,0.0,0.0,0.0,0.0,-0.1046,-1.0153,-0.0017,0.7218,-0.6878,0.0253,0.0735
444,0.0,0.0,0.0,0.0,0.0,0.0,-0.09434999999999999,-1.0231,0.0007500000000000001,0.7233499999999999,-0.68635,0.0233,0.0717
445,0.0,0.0,0.0,0.0,0.0,0.0,-0.0841,-1.0309,0.0032,0.7249,-0.6849,0.0213,0.0699
446,0.0,0.0,0.0,0.0,0.0,0.0,-0.0703,-1.0343,0.0067,0.7263,-0.6836,0.0197,0.0688
447,0.0,0.0,0.0,0.0,0.0,0.0,-0.056400000000000006,-1.01775,0.00525,0.7274499999999999,-0.68245,0.0186,0.06845
448,0.0,0.0,0.0,0.0,0.0,0.0,-0.0425,-1.0012,0.0038,0.7286,-0.6813,0.0175,0.0681
449,0.0,0.0,0.0,0.0,0.0,0.0,-0.0385,-0.9997,0.0058,0.7292,-0.6807,0.0168,0.0684
450,0.0,0.0,0.0,0.0,0.0,0.0,-0.0427,-1.00335,0.00575,0.7295,-0.68035,0.01655,0.0689
451,0.0,0.0,0.0,0.0,0.0,0.0,-0.0469,-1.0070,0.0057,0.7298,-0.6800,0.0163,0.0694
452,0.0,0.0,0.0,0.0,0.0,0.0,-0.0606,-1.0158,0.0043,0.7298,-0.6799,0.0168,0.0698
453,0.0,0.0,0.0,0.0,0.0,0.0,-0.07894999999999999,-1.0321,0.0015500000000000002,0.7295,-0.68015,0.0179,0.07
454,0.0,0.0,0.0,0.0,0.0,0.0,-0.0973,-1.0484,-0.0012,0.7292,-0.6804,0.0190,0.0702
455,0.0,0.0,0.0,0.0,0.0,0.0,-0.1041,-1.0294,-0.0139,0.7286,-0.6810,0.0204,0.0700
456,0.0,0.0,0.0,0.0,0.0,0.0,-0.1137,-1.0216,-0.0166,0.7271000000000001,-0.6826000000000001,0.02205,0.06970000000000001
457,0.0,0.0,0.0,0.0,0.0,0.0,-0.1233,-1.0138,-0.0193,0.7256,-0.6842,0.0237,0.0694
458,0.0,0.0,0.0,0.0,0.0,0.0,-0.1276,-1.0801,-0.0100,0.7242,-0.6857,0.0250,0.0695
459,0.0,0.0,0.0,0.0,0.0,0.0,-0.14184999999999998,-1.0303,-0.0303,0.72295,-0.6868,0.02565,0.0709
460,0.0,0.0,0.0,0.0,0.0,0.0,-0.1561,-0.9805,-0.0506,0.7217,-0.6879,0.0263,0.0723
461,0.0,0.0,0.0,0.0,0.0,0.0,-0.1704,-0.9805,-0.0614,0.7199,-0.6896,0.0262,0.0747
462,0.0,0.0,0.0,0.0,0.0,0.0,-0.15134999999999998,-0.94025,-0.0626,0.71865,-0.69055,0.0245,0.07780000000000001
463,0.0,0.0,0.0,0.0,0.0,0.0,-0.1323,-0.9000,-0.0638,0.7174,-0.6915,0.0228,0.0809
464,0.0,0.0,0.0,0.0,0.0,0.0,-0.1307,-0.9430,-0.0604,0.7168,-0.6919,0.0209,0.0838
465,0.0,0.0,0.0,0.0,0.0,0.0,-0.1222,-0.9086,-0.0611,0.7174499999999999,-0.6910000000000001,0.0186,0.08615
466,0.0,0.0,0.0,0.0,0.0,0.0,-0.1137,-0.8742,-0.0618,0.7181,-0.6901,0.0163,0.0885
467,0.0,0.0,0.0,0.0,0.0,0.0,-0.1019,-0.8825,-0.0535,0.7213,-0.6868,0.0152,0.0888
468,0.0,0.0,0.0,0.0,0.0,0.0,-0.09085,-0.91765,-0.044700000000000004,0.724,-0.68415,0.012799999999999999,0.0873
469,0.0,0.0,0.0,0.0,0.0,0.0,-0.0798,-0.9528,-0.0359,0.7267,-0.6815,0.0104,0.0858
470,0.0,0.0,0.0,0.0,0.0,0.0,-0.0754,-0.9250,-0.0349,0.7305,-0.6779,0.0068,0.0824
471,0.0,0.0,0.0,0.0,0.0,0.0,-0.0572,-0.9955,-0.02385,0.73385,-0.6746,0.0008499999999999996,0.0795
472,0.0,0.0,0.0,0.0,0.0,0.0,-0.0390,-1.0660,-0.0128,0.7372,-0.6713,-0.0051,0.0766
473,0.0,0.0,0.0,0.0,0.0,0.0,-0.0140,-1.1007,0.0009,0.7392,-0.6689,-0.0098,0.0775
474,0.0,0.0,0.0,0.0,0.0,0.0,-0.0066500000000000005,-1.0846,0.00435,0.7395499999999999,-0.66835,-0.01555,0.0779
475,0.0,0.0,0.0,0.0,0.0,0.0,0.0007,-1.0685,0.0078,0.7399,-0.6678,-0.0213,0.0783
476,0.0,0.0,0.0,0.0,0.0,0.0,0.0070,-1.0305,-0.0049,0.7386,-0.6691,-0.0257,0.0785
477,0.0,0.0,0.0,0.0,0.0,0.0,0.0004000000000000002,-1.0373,-0.00295,0.7372000000000001,-0.67045,-0.0288,0.07865
478,0.0,0.0,0.0,0.0,0.0,0.0,-0.0062,-1.0441,-0.0010,0.7358,-0.6718,-0.0319,0.0788
479,0.0,0.0,0.0,0.0,0.0,0.0,-0.0106,-1.0422,-0.0040,0.7344,-0.6732,-0.0337,0.0789
480,0.0,0.0,0.0,0.0,0.0,0.0,-0.017,-1.0339,-0.00915,0.73315,-0.67455,-0.03425,0.07894999999999999
481,0.0,0.0,0.0,0.0,0.0,0.0,-0.0234,-1.0256,-0.0143,0.7319,-0.6759,-0.0348,0.0790
482,0.0,0.0,0.0,0.0,0.0,0.0,-0.0278,-1.0095,-0.0191,0.7310,-0.6770,-0.0348,0.0788
483,0.0,0.0,0.0,0.0,0.0,0.0,-0.031,-1.0073,-0.01985,0.7297,-0.67845,-0.034699999999999995,0.07819999999999999
484,0.0,0.0,0.0,0.0,0.0,0.0,-0.0342,-1.0051,-0.0206,0.7284,-0.6799,-0.0346,0.0776
485,0.0,0.0,0.0,0.0,0.0,0.0,-0.0361,-1.0153,-0.0167,0.7272,-0.6813,-0.0343,0.0769
486,0.0,0.0,0.0,0.0,0.0,0.0,-0.03635,-1.0270000000000001,-0.012549999999999999,0.7264999999999999,-0.6820999999999999,-0.03375,0.0761
487,0.0,0.0,0.0,0.0,0.0,0.0,-0.0366,-1.0387,-0.0084,0.7258,-0.6829,-0.0332,0.0753
488,0.0,0.0,0.0,0.0,0.0,0.0,-0.0341,-1.0358,-0.0084,0.7255,-0.6834,-0.0325,0.0745
489,0.0,0.0,0.0,0.0,0.0,0.0,-0.0324,-1.0211999999999999,-0.008150000000000001,0.72545,-0.6836,-0.03155,0.07365
490,0.0,0.0,0.0,0.0,0.0,0.0,-0.0307,-1.0066,-0.0079,0.7254,-0.6838,-0.0306,0.0728
491,0.0,0.0,0.0,0.0,0.0,0.0,-0.0366,-0.9987,-0.0074,0.7251,-0.6842,-0.0295,0.0721
492,0.0,0.0,0.0,0.0,0.0,0.0,-0.03855,-1.01045,-0.0006000000000000003,0.7253499999999999,-0.68405,-0.028249999999999997,0.07150000000000001
493,0.0,0.0,0.0,0.0,0.0,0.0,-0.0405,-1.0222,0.0062,0.7256,-0.6839,-0.0270,0.0709
494,0.0,0.0,0.0,0.0,0.0,0.0,-0.0439,-1.0153,0.0038,0.7259,-0.6837,-0.0260,0.0703
495,0.0,0.0,0.0,0.0,0.0,0.0,-0.04,-1.0114,0.0033,0.7261,-0.68355,-0.0252,0.06985
496,0.0,0.0,0.0,0.0,0.0,0.0,-0.0361,-1.0075,0.0028,0.7263,-0.6834,-0.0244,0.0694
497,0.0,0.0,0.0,0.0,0.0,0.0,-0.0332,-1.0012,0.0009,0.7264,-0.6833,-0.0241,0.0691
498,0.0,0.0,0.0,0.0,0.0,0.0,-0.03245,-1.0063,0.0015999999999999999,0.7265,-0.6833,-0.0241,0.06864999999999999
499,0.0,0.0,0.0,0.0,0.0,0.0,-0.0317,-1.0114,0.0023,0.7266,-0.6833,-0.0241,0.0682
500,0.0,0.0,0.0,0.0,0.0,0.0,-0.0292,-1.0212,0.0043,0.7267,-0.6832,-0.0242,0.0676
501,0.0,0.0,0.0,0.0,0.0,0.0,-0.024800000000000003,-1.0151,-0.0005999999999999998,0.72675,-0.6832,-0.02445,0.06695
502,0.0,0.0,0.0,0.0,0.0,0.0,-0.0204,-1.0090,-0.0055,0.7268,-0.6832,-0.0247,0.0663
503,0.0,0.0,0.0,0.0,0.0,0.0,-0.0126,-1.0095,-0.0059,0.7270,-0.6830,-0.0254,0.0656
504,0.0,0.0,0.0,0.0,0.0,0.0,-0.0109,-1.01025,-0.0069,0.727,-0.68305,-0.026,0.06505
505,0.0,0.0,0.0,0.0,0.0,0.0,-0.0092,-1.0110,-0.0079,0.7270,-0.6831,-0.0266,0.0645
506,0.0,0.0,0.0,0.0,0.0,0.0,-0.0126,-1.0256,-0.0059,0.7270,-0.6831,-0.0270,0.0641
507,0.0,0.0,0.0,0.0,0.0,0.0,-0.0082,-1.02805,-0.0047,0.7273000000000001,-0.6828000000000001,-0.02715,0.06390000000000001
508,0.0,0.0,0.0,0.0,0.0,0.0,-0.0038,-1.0305,-0.0035,0.7276,-0.6825,-0.0273,0.0637
509,0.0,0.0,0.0,0.0,0.0,0.0,-0.0042,-1.0476,-0.0010,0.7278,-0.6823,-0.0271,0.0636
510,0.0,0.0,0.0,0.0,0.0,0.0,-0.0042,-1.0583,-5.000000000000002e-05,0.7273000000000001,-0.68285,-0.02625,0.0638
511,0.0,0.0,0.0,0.0,0.0,0.0,-0.0042,-1.0690,0.0009,0.7268,-0.6834,-0.0254,0.0640
512,0.0,0.0,0.0,0.0,0.0,0.0,-0.0165,-1.0417,-0.0020,0.7263,-0.6840,-0.0227,0.0643
513,0.0,0.0,0.0,0.0,0.0,0.0,-0.017,-1.0229,-0.00765,0.72595,-0.6844,-0.01965,0.06470000000000001
514,0.0,0.0,0.0,0.0,0.0,0.0,-0.0175,-1.0041,-0.0133,0.7256,-0.6848,-0.0166,0.0651
515,0.0,0.0,0.0,0.0,0.0,0.0,-0.0318,-0.9490,-0.0319,0.7257,-0.6848,-0.0138,0.0654
516,0.0,0.0,0.0,0.0,0.0,0.0,-0.03275,-0.9597,-0.03215,0.7256,-0.6849000000000001,-0.01285,0.0653
517,0.0,0.0,0.0,0.0,0.0,0.0,-0.0337,-0.9704,-0.0324,0.7255,-0.6850,-0.0119,0.0652
518,0.0,0.0,0.0,0.0,0.0,0.0,-0.0386,-0.9953,-0.0250,0.7259,-0.6847,-0.0118,0.0649
519,0.0,0.0,0.0,0.0,0.0,0.0,-0.0364,-1.0009,-0.024300000000000002,0.72655,-0.6839999999999999,-0.01175,0.0645
520,0.0,0.0,0.0,0.0,0.0,0.0,-0.0342,-1.0065,-0.0236,0.7272,-0.6833,-0.0117,0.0641
521,0.0,0.0,0.0,0.0,0.0,0.0,-0.0302,-1.0060,-0.0192,0.7276,-0.6829,-0.0120,0.0635
522,0.0,0.0,0.0,0.0,0.0,0.0,-0.029249999999999998,-1.0091999999999999,-0.0138,0.7283999999999999,-0.68215,-0.01225,0.06305
523,0.0,0.0,0.0,0.0,0.0,0.0,-0.0283,-1.0124,-0.0084,0.7292,-0.6814,-0.0125,0.0626
524,0.0,0.0,0.0,0.0,0.0,0.0,-0.0366,-1.0314,-0.0016,0.7296,-0.6809,-0.0125,0.0620
525,0.0,0.0,0.0,0.0,0.0,0.0,-0.0395,-1.03095,9.999999999999994e-05,0.73,-0.68055,-0.01195,0.06185
526,0.0,0.0,0.0,0.0,0.0,0.0,-0.0424,-1.0305,0.0018,0.7304,-0.6802,-0.0114,0.0617
527,0.0,0.0,0.0,0.0,0.0,0.0,-0.0302,-1.0085,-0.0050,0.7306,-0.6799,-0.0109,0.0616
528,0.0,0.0,0.0,0.0,0.0,0.0,-0.03265,-1.00265,-0.00135,0.7310000000000001,-0.67945,-0.010450000000000001,0.06175
529,0.0,0.0,0.0,0.0,0.0,0.0,-0.0351,-0.9968,0.0023,0.7314,-0.6790,-0.0100,0.0619
530,0.0,0.0,0.0,0.0,0.0,0.0,-0.0371,-1.0066,0.0033,0.7315,-0.6789,-0.0097,0.0621
531,0.0,0.0,0.0,0.0,0.0,0.0,-0.04025,-1.01025,0.0089,0.73185,-0.67855,-0.00935,0.0621
532,0.0,0.0,0.0,0.0,0.0,0.0,-0.0434,-1.0139,0.0145,0.7322,-0.6782,-0.0090,0.0621
533,0.0,0.0,0.0,0.0,0.0,0.0,-0.0463,-1.0163,0.0204,0.7329,-0.6775,-0.0088,0.0620
534,0.0,0.0,0.0,0.0,0.0,0.0,-0.0466,-1.008,0.01895,0.7334499999999999,-0.6769000000000001,-0.0087,0.0615
535,0.0,0.0,0.0,0.0,0.0,0.0,-0.0469,-0.9997,0.0175,0.7340,-0.6763,-0.0086,0.0610
536,0.0,0.0,0.0,0.0,0.0,0.0,-0.0503,-1.0105,0.0189,0.7346,-0.6758,-0.0088,0.0603
537,0.0,0.0,0.0,0.0,0.0,0.0,-0.05075,-1.01535,0.02355,0.7355,-0.67485,-0.009049999999999999,0.0598
538,0.0,0.0,0.0,0.0,0.0,0.0,-0.0512,-1.0202,0.0282,0.7364,-0.6739,-0.0093,0.0593
539,0.0,0.0,0.0,0.0,0.0,0.0,-0.0483,-1.0217,0.0316,0.7373,-0.6729,-0.0097,0.0592
540,0.0,0.0,0.0,0.0,0.0,0.0,-0.0434,-1.00295,0.032350000000000004,0.7378,-0.6723,-0.0102,0.05915
541,0.0,0.0,0.0,0.0,0.0,0.0,-0.0385,-0.9842,0.0331,0.7383,-0.6717,-0.0107,0.0591
542,0.0,0.0,0.0,0.0,0.0,0.0,-0.0507,-1.0247,0.0487,0.7386,-0.6715,-0.0110,0.0593
543,0.0,0.0,0.0,0.0,0.0,0.0,-0.0453,-1.0259,0.04555,0.7389,-0.6710499999999999,-0.0109,0.059899999999999995
544,0.0,0.0,0.0,0.0,0.0,0.0,-0.0399,-1.0271,0.0424,0.7392,-0.6706,-0.0108,0.0605
545,0.0,0.0,0.0,0.0,0.0,0.0,-0.0409,-1.0291,0.0424,0.7393,-0.6705,-0.0110,0.0616
546,0.0,0.0,0.0,0.0,0.0,0.0,-0.0414,-1.0464,0.0451,0.7396,-0.6699999999999999,-0.0106,0.0633
547,0.0,0.0,0.0,0.0,0.0,0.0,-0.0419,-1.0637,0.0478,0.7399,-0.6695,-0.0102,0.0650
548,0.0,0.0,0.0,0.0,0.0,0.0,-0.0507,-1.0256,0.0395,0.7404,-0.6687,-0.0089,0.0671
549,0.0,0.0,0.0,0.0,0.0,0.0,-0.04975,-0.99365,0.03265,0.7412,-0.6676,-0.00825,0.06975
550,0.0,0.0,0.0,0.0,0.0,0.0,-0.0488,-0.9617,0.0258,0.7420,-0.6665,-0.0076,0.0724
551,0.0,0.0,0.0,0.0,0.0,0.0,-0.0518,-0.9524,0.0282,0.7427,-0.6653,-0.0076,0.0748
552,0.0,0.0,0.0,0.0,0.0,0.0,-0.04595,-0.9446,0.0248,0.74335,-0.6645,-0.00785,0.07605
553,0.0,0.0,0.0,0.0,0.0,0.0,-0.0401,-0.9368,0.0214,0.7440,-0.6637,-0.0081,0.0773
554,0.0,0.0,0.0,0.0,0.0,0.0,-0.0503,-0.9451,0.0253,0.7442,-0.6634,-0.0088,0.0777
555,0.0,0.0,0.0,0.0,0.0,0.0,-0.05225,-0.9512,0.02335,0.7438,-0.6638,-0.0103,0.07755000000000001
556,0.0,0.0,0.0,0.0,0.0,0.0,-0.0542,-0.9573,0.0214,0.7434,-0.6642,-0.0118,0.0774
557,0.0,0.0,0.0,0.0,0.0,0.0,-0.0572,-0.9719,0.0199,0.7428,-0.6649,-0.0143,0.0766
558,0.0,0.0,0.0,0.0,0.0,0.0,-0.044700000000000004,-0.9924,0.01725,0.74165,-0.6662,-0.018000000000000002,0.0759
559,0.0,0.0,0.0,0.0,0.0,0.0,-0.0322,-1.0129,0.0146,0.7405,-0.6675,-0.0217,0.0752
560,0.0,0.0,0.0,0.0,0.0,0.0,-0.0292,-1.0232,0.0146,0.7391,-0.6690,-0.0251,0.0743
561,0.0,0.0,0.0,0.0,0.0,0.0,-0.022600000000000002,-1.0334500000000002,0.0158,0.73705,-0.6712,-0.02815,0.0738
562,0.0,0.0,0.0,0.0,0.0,0.0,-0.0160,-1.0437,0.0170,0.7350,-0.6734,-0.0312,0.0733
563,0.0,0.0,0.0,0.0,0.0,0.0,-0.0140,-1.0573,0.0195,0.7330,-0.6755,-0.0336,0.0729
564,0.0,0.0,0.0,0.0,0.0,0.0,-0.0049499999999999995,-1.0427,0.01,0.73135,-0.67725,-0.03535,0.0726
565,0.0,0.0,0.0,0.0,0.0,0.0,0.0041,-1.0281,0.0005,0.7297,-0.6790,-0.0371,0.0723
566,0.0,0.0,0.0,0.0,0.0,0.0,0.0046,-1.0305,-0.0025,0.7278,-0.6809,-0.0385,0.0719
567,0.0,0.0,0.0,0.0,0.0,0.0,0.00065,-1.0283,-0.0069,0.7261,-0.68275,-0.03925,0.07115
568,0.0,0.0,0.0,0.0,0.0,0.0,-0.0033,-1.0261,-0.0113,0.7244,-0.6846,-0.0400,0.0704
569,0.0,0.0,0.0,0.0,0.0,0.0,-0.0053,-0.9978,-0.0167,0.7229,-0.6863,-0.0402,0.0691
570,0.0,0.0,0.0,0.0,0.0,0.0,-0.00845,-1.01,-0.01865,0.7211000000000001,-0.68835,-0.0406,0.06755
571,0.0,0.0,0.0,0.0,0.0,0.0,-0.0116,-1.0222,-0.0206,0.7193,-0.6904,-0.0410,0.0660
572,0.0,0.0,0.0,0.0,0.0,0.0,-0.0189,-1.0383,-0.0152,0.7182,-0.6917,-0.0405,0.0644
573,0.0,0.0,0.0,0.0,0.0,0.0,-0.01915,-1.03975,-0.0174,0.7174,-0.6927,-0.03975,0.0627
574,0.0,0.0,0.0,0.0,0.0,0.0,-0.0194,-1.0412,-0.0196,0.7166,-0.6937,-0.0390,0.0610
575,0.0,0.0,0.0,0.0,0.0,0.0,-0.0209,-1.0456,-0.0211,0.7159,-0.6946,-0.0379,0.0594
576,0.0,0.0,0.0,0.0,0.0,0.0,-0.019200000000000002,-1.0460500000000001,-0.0201,0.7158,-0.6949000000000001,-0.036750000000000005,0.05795
577,0.0,0.0,0.0,0.0,0.0,0.0,-0.0175,-1.0465,-0.0191,0.7157,-0.6952,-0.0356,0.0565
578,0.0,0.0,0.0,0.0,0.0,0.0,-0.0145,-1.0436,-0.0162,0.7159,-0.6952,-0.0345,0.0552
579,0.0,0.0,0.0,0.0,0.0,0.0,-0.01185,-1.0336,-0.0189,0.7162999999999999,-0.69495,-0.03325,0.05425
580,0.0,0.0,0.0,0.0,0.0,0.0,-0.0092,-1.0236,-0.0216,0.7167,-0.6947,-0.0320,0.0533
581,0.0,0.0,0.0,0.0,0.0,0.0,-0.0136,-1.0061,-0.0225,0.7172,-0.6942,-0.0308,0.0523
582,0.0,0.0,0.0,0.0,0.0,0.0,-0.010199999999999999,-0.9968,-0.02445,0.7177,-0.6938,-0.029900000000000003,0.05155
583,0.0,0.0,0.0,0.0,0.0,0.0,-0.0068,-0.9875,-0.0264,0.7182,-0.6934,-0.0290,0.0508
584,0.0,0.0,0.0,0.0,0.0,0.0,-0.0107,-1.0051,-0.0274,0.7184,-0.6932,-0.0284,0.0502
585,0.0,0.0,0.0,0.0,0.0,0.0,-0.0072499999999999995,-1.0068000000000001,-0.02765,0.71885,-0.6928000000000001,-0.02805,0.0497
586,0.0,0.0,0.0,0.0,0.0,0.0,-0.0038,-1.0085,-0.0279,0.7193,-0.6924,-0.0277,0.0492
587,0.0,0.0,0.0,0.0,0.0,0.0,-0.0004,-1.0187,-0.0259,0.7201,-0.6916,-0.0274,0.0489
588,0.0,0.0,0.0,0.0,0.0,0.0,0.0023,-1.02215,-0.0242,0.72065,-0.6910499999999999,-0.027200000000000002,0.04875
589,0.0,0.0,0.0,0.0,0.0,0.0,0.0050,-1.0256,-0.0225,0.7212,-0.6905,-0.0270,0.0486
590,0.0,0.0,0.0,0.0,0.0,0.0,0.0080,-1.0480,-0.0162,0.7218,-0.6898,-0.0267,0.0489
591,0.0,0.0,0.0,0.0,0.0,0.0,0.0004000000000000002,-1.03535,-0.0174,0.7227,-0.6889,-0.02545,0.0494
592,0.0,0.0,0.0,0.0,0.0,0.0,-0.0072,-1.0227,-0.0186,0.7236,-0.6880,-0.0242,0.0499
593,0.0,0.0,0.0,0.0,0.0,0.0,-0.0043,-1.0251,-0.0157,0.7240,-0.6876,-0.0226,0.0504
594,0.0,0.0,0.0,0.0,0.0,0.0,-0.0102,-1.01365,-0.01865,0.7242,-0.6874,-0.0209,0.050949999999999995
595,0.0,0.0,0.0,0.0,0.0,0.0,-0.0161,-1.0022,-0.0216,0.7244,-0.6872,-0.0192,0.0515
596,0.0,0.0,0.0,0.0,0.0,0.0,-0.0244,-1.0153,-0.0172,0.7251,-0.6865,-0.0172,0.0522
597,0.0,0.0,0.0,0.0,0.0,0.0,-0.0288,-1.00725,-0.014249999999999999,0.7261,-0.6854,-0.01465,0.0532
598,0.0,0.0,0.0,0.0,0.0,0.0,-0.0332,-0.9992,-0.0113,0.7271,-0.6843,-0.0121,0.0542
599,0.0,0.0,0.0,0.0,0.0,0.0,-0.0278,-0.9763,-0.0055,0.7290,-0.6823,-0.0098,0.0551
600,0.0,0.0,0.0,0.0,0.0,0.0,-0.0317,-0.9739,0.0011000000000000003,0.73065,-0.68045,-0.00825,0.05595
601,0.0,0.0,0.0,0.0,0.0,0.0,-0.0356,-0.9715,0.0077,0.7323,-0.6786,-0.0067,0.0568
602,0.0,0.0,0.0,0.0,0.0,0.0,-0.0258,-0.9910,0.0136,0.7334,-0.6773,-0.0071,0.0572
603,0.0,0.0,0.0,0.0,0.0,0.0,-0.03705,-0.99295,0.009899999999999999,0.73475,-0.6758500000000001,-0.007350000000000001,0.05745
604,0.0,0.0,0.0,0.0,0.0,0.0,-0.0483,-0.9949,0.0062,0.7361,-0.6744,-0.0076,0.0577
605,0.0,0.0,0.0,0.0,0.0,0.0,-0.0244,-0.9539,-0.0035,0.7371,-0.6733,-0.0089,0.0577
606,0.0,0.0,0.0,0.0,0.0,0.0,-0.0273,-0.98195,0.0009,0.7378,-0.67245,-0.01065,0.057550000000000004
607,0.0,0.0,0.0,0.0,0.0,0.0,-0.0302,-1.0100,0.0053,0.7385,-0.6716,-0.0124,0.0574
608,0.0,0.0,0.0,0.0,0.0,0.0,-0.0204,-0.9910,0.0014,0.7388,-0.6713,-0.0144,0.0574
609,0.0,0.0,0.0,0.0,0.0,0.0,-0.0138,-0.99905,0.00065,0.73855,-0.6715,-0.0166,0.05735
610,0.0,0.0,0.0,0.0,0.0,0.0,-0.0072,-1.0071,-0.0001,0.7383,-0.6717,-0.0188,0.0573
611,0.0,0.0,0.0,0.0,0.0,0.0,-0.0126,-1.0290,0.0048,0.7380,-0.6721,-0.0204,0.0574
612,0.0,0.0,0.0,0.0,0.0,0.0,-0.00695,-1.0246499999999998,0.0038499999999999997,0.7375499999999999,-0.6725000000000001,-0.0216,0.0576
613,0.0,0.0,0.0,0.0,0.0,0.0,-0.0013,-1.0203,0.0029,0.7371,-0.6729,-0.0228,0.0578
614,0.0,0.0,0.0,0.0,0.0,0.0,0.0001,-1.0178,-0.0010,0.7361,-0.6739,-0.0237,0.0582
615,0.0,0.0,0.0,0.0,0.0,0.0,-0.0021,-1.01925,-0.002,0.735,-0.6751,-0.0238,0.05865
616,0.0,0.0,0.0,0.0,0.0,0.0,-0.0043,-1.0207,-0.0030,0.7339,-0.6763,-0.0239,0.0591
617,0.0,0.0,0.0,0.0,0.0,0.0,-0.0136,-1.0090,-0.0054,0.7325,-0.6777,-0.0229,0.0596
618,0.0,0.0,0.0,0.0,0.0,0.0,-0.0234,-0.9973,-0.0086,0.73035,-0.68005,-0.0219,0.06005
619,0.0,0.0,0.0,0.0,0.0,0.0,-0.0332,-0.9856,-0.0118,0.7282,-0.6824,-0.0209,0.0605
620,0.0,0.0,0.0,0.0,0.0,0.0,-0.0513,-1.0031,-0.0065,0.7260,-0.6847,-0.0196,0.0610
621,0.0,0.0,0.0,0.0,0.0,0.0,-0.0557,-1.0077500000000001,-0.00845,0.7238,-0.68695,-0.01875,0.062
622,0.0,0.0,0.0,0.0,0.0,0.0,-0.0601,-1.0124,-0.0104,0.7216,-0.6892,-0.0179,0.0630
623,0.0,0.0,0.0,0.0,0.0,0.0,-0.0596,-1.0343,-0.0080,0.7197,-0.6911,-0.0179,0.0645
624,0.0,0.0,0.0,0.0,0.0,0.0,-0.05985,-1.0345499999999999,-0.0114,0.7182,-0.69245,-0.01815,0.06655
625,0.0,0.0,0.0,0.0,0.0,0.0,-0.0601,-1.0348,-0.0148,0.7167,-0.6938,-0.0184,0.0686
626,0.0,0.0,0.0,0.0,0.0,0.0,-0.0576,-1.0411,-0.0153,0.7161,-0.6942,-0.0184,0.0705
627,0.0,0.0,0.0,0.0,0.0,0.0,-0.05595,-1.0182,-0.020399999999999998,0.71605,-0.6940999999999999,-0.018250000000000002,0.07205
628,0.0,0.0,0.0,0.0,0.0,0.0,-0.0543,-0.9953,-0.0255,0.7160,-0.6940,-0.0181,0.0736
629,0.0,0.0,0.0,0.0,0.0,0.0,-0.0611,-1.0138,-0.0187,0.7163,-0.6935,-0.0184,0.0746
630,0.0,0.0,0.0,0.0,0.0,0.0,-0.06455,-0.9999,-0.02065,0.7164,-0.69335,-0.0189,0.07535
631,0.0,0.0,0.0,0.0,0.0,0.0,-0.0680,-0.9860,-0.0226,0.7165,-0.6932,-0.0194,0.0761
632,0.0,0.0,0.0,0.0,0.0,0.0,-0.0650,-1.0026,-0.0173,0.7164,-0.6932,-0.0205,0.0764
633,0.0,0.0,0.0,0.0,0.0,0.0,-0.0601,-1.01115,-0.01875,0.716,-0.69355,-0.022150000000000003,0.07665
634,0.0,0.0,0.0,0.0,0.0,0.0,-0.0552,-1.0197,-0.0202,0.7156,-0.6939,-0.0238,0.0769
635,0.0,0.0,0.0,0.0,0.0,0.0,-0.0528,-1.0163,-0.0231,0.7147,-0.6947,-0.0257,0.0770
636,0.0,0.0,0.0,0.0,0.0,0.0,-0.046200000000000005,-1.0124,-0.028200000000000003,0.71385,-0.69545,-0.027950000000000003,0.07725
637,0.0,0.0,0.0,0.0,0.0,0.0,-0.0396,-1.0085,-0.0333,0.7130,-0.6962,-0.0302,0.0775
638,0.0,0.0,0.0,0.0,0.0,0.0,-0.0357,-0.9982,-0.0377,0.7120,-0.6970,-0.0327,0.0779
639,0.0,0.0,0.0,0.0,0.0,0.0,-0.03665,-0.99285,-0.04065,0.7114,-0.6975,-0.03505,0.07830000000000001
640,0.0,0.0,0.0,0.0,0.0,0.0,-0.0376,-0.9875,-0.0436,0.7108,-0.6980,-0.0374,0.0787
641,0.0,0.0,0.0,0.0,0.0,0.0,-0.0357,-0.9821,-0.0451,0.7103,-0.6983,-0.0400,0.0789
642,0.0,0.0,0.0,0.0,0.0,0.0,-0.033,-0.9886999999999999,-0.04555,0.70965,-0.69875,-0.043050000000000005,0.07925
643,0.0,0.0,0.0,0.0,0.0,0.0,-0.0303,-0.9953,-0.0460,0.7090,-0.6992,-0.0461,0.0796
644,0.0,0.0,0.0,0.0,0.0,0.0,-0.0249,-1.0094,-0.0465,0.7081,-0.6998,-0.0494,0.0801
645,0.0,0.0,0.0,0.0,0.0,0.0,-0.01855,-1.0171999999999999,-0.05115,0.7074499999999999,-0.70015,-0.0527,0.08075
646,0.0,0.0,0.0,0.0,0.0,0.0,-0.0122,-1.0250,-0.0558,0.7068,-0.7005,-0.0560,0.0814
647,0.0,0.0,0.0,0.0,0.0,0.0,0.0035,-1.0387,-0.0582,0.7063,-0.7006,-0.0595,0.0820
648,0.0,0.0,0.0,0.0,0.0,0.0,0.013049999999999999,-1.04455,-0.06355,0.7061,-0.7005,-0.06255,0.0825
649,0.0,0.0,0.0,0.0,0.0,0.0,0.0226,-1.0504,-0.0689,0.7059,-0.7004,-0.0656,0.0830
650,0.0,0.0,0.0,0.0,0.0,0.0,0.0402,-1.0412,-0.0733,0.7064,-0.6996,-0.0680,0.0834
651,0.0,0.0,0.0,0.0,0.0,0.0,0.04095,-1.0329,-0.0777,0.7063,-0.69955,-0.06985,0.0834
652,0.0,0.0,0.0,0.0,0.0,0.0,0.0417,-1.0246,-0.0821,0.7062,-0.6995,-0.0717,0.0834
653,0.0,0.0,0.0,0.0,0.0,0.0,0.0314,-1.0182,-0.0865,0.7060,-0.6996,-0.0725,0.0829
654,0.0,0.0,0.0,0.0,0.0,0.0,0.02575,-1.0194,-0.08795,0.70565,-0.7,-0.0728,0.08225
655,0.0,0.0,0.0,0.0,0.0,0.0,0.0201,-1.0206,-0.0894,0.7053,-0.7004,-0.0731,0.0816
656,0.0,0.0,0.0,0.0,0.0,0.0,0.0157,-1.0192,-0.0904,0.7048,-0.7010,-0.0730,0.0808
657,0.0,0.0,0.0,0.0,0.0,0.0,0.015199999999999998,-1.0138,-0.09215,0.7042999999999999,-0.70165,-0.07264999999999999,0.07985
658,0.0,0.0,0.0,0.0,0.0,0.0,0.0147,-1.0084,-0.0939,0.7038,-0.7023,-0.0723,0.0789
659,0.0,0.0,0.0,0.0,0.0,0.0,0.0147,-0.9987,-0.0963,0.7032,-0.7031,-0.0721,0.0777
660,0.0,0.0,0.0,0.0,0.0,0.0,0.01125,-1.00135,-0.09755,0.70255,-0.7039,-0.07150000000000001,0.07655
661,0.0,0.0,0.0,0.0,0.0,0.0,0.0078,-1.0040,-0.0988,0.7019,-0.7047,-0.0709,0.0754
662,0.0,0.0,0.0,0.0,0.0,0.0,0.0054,-1.0069,-0.0963,0.7016,-0.7052,-0.0700,0.0745
663,0.0,0.0,0.0,0.0,0.0,0.0,0.0064,-1.0196,-0.0929,0.7013,-0.70565,-0.0691,0.07375
664,0.0,0.0,0.0,0.0,0.0,0.0,0.0074,-1.0323,-0.0895,0.7010,-0.7061,-0.0682,0.0730
665,0.0,0.0,0.0,0.0,0.0,0.0,0.0050,-1.0543,-0.0870,0.7007,-0.7066,-0.0666,0.0725
666,0.0,0.0,0.0,0.0,0.0,0.0,0.00625,-1.07625,-0.08385,0.6996,-0.7079500000000001,-0.06385,0.07264999999999999
667,0.0,0.0,0.0,0.0,0.0,0.0,0.0075,-1.0982,-0.0807,0.6985,-0.7093,-0.0611,0.0728
668,0.0,0.0,0.0,0.0,0.0,0.0,-0.0169,-1.1508,-0.0680,0.6976,-0.7105,-0.0552,0.0736
669,0.0,0.0,0.0,0.0,0.0,0.0,-0.0184,-1.1252,-0.06920000000000001,0.69865,-0.7098500000000001,-0.04665,0.0756
670,0.0,0.0,0.0,0.0,0.0,0.0,-0.0199,-1.0996,-0.0704,0.6997,-0.7092,-0.0381,0.0776
671,0.0,0.0,0.0,0.0,0.0,0.0,0.0030,-1.0343,-0.0787,0.7014,-0.7077,-0.0302,0.0800
672,0.0,0.0,0.0,0.0,0.0,0.0,-0.019049999999999997,-1.02355,-0.07115,0.7039,-0.7053,-0.023,0.0809
673,0.0,0.0,0.0,0.0,0.0,0.0,-0.0411,-1.0128,-0.0636,0.7064,-0.7029,-0.0158,0.0818
674,0.0,0.0,0.0,0.0,0.0,0.0,-0.0636,-0.9865,-0.0544,0.7085,-0.7009,-0.0086,0.0819
675,0.0,0.0,0.0,0.0,0.0,0.0,-0.07635,-0.9450000000000001,-0.047850000000000004,0.71115,-0.69835,-0.0023,0.08105
676,0.0,0.0,0.0,0.0,0.0,0.0,-0.0891,-0.9035,-0.0413,0.7138,-0.6958,0.0040,0.0802
677,0.0,0.0,0.0,0.0,0.0,0.0,-0.0915,-0.9392,-0.0237,0.7174,-0.6922,0.0077,0.0779
678,0.0,0.0,0.0,0.0,0.0,0.0,-0.09784999999999999,-0.9677,-0.0127,0.7202500000000001,-0.6895,0.0103,0.07525
679,0.0,0.0,0.0,0.0,0.0,0.0,-0.1042,-0.9962,-0.0017,0.7231,-0.6868,0.0129,0.0726
680,0.0,0.0,0.0,0.0,0.0,0.0,-0.0978,-0.9816,0.0022,0.7254,-0.6846,0.0143,0.0702
681,0.0,0.0,0.0,0.0,0.0,0.0,-0.09459999999999999,-0.9862500000000001,0.0037,0.72705,-0.683,0.016050000000000002,0.06825
682,0.0,0.0,0.0,0.0,0.0,0.0,-0.0914,-0.9909,0.0052,0.7287,-0.6814,0.0178,0.0663
683,0.0,0.0,0.0,0.0,0.0,0.0,-0.0797,-0.9973,0.0052,0.7295,-0.6807,0.0189,0.0646
684,0.0,0.0,0.0,0.0,0.0,0.0,-0.07625,-0.988,0.0052,0.73065,-0.67955,0.02055,0.06295
685,0.0,0.0,0.0,0.0,0.0,0.0,-0.0728,-0.9787,0.0052,0.7318,-0.6784,0.0222,0.0613
686,0.0,0.0,0.0,0.0,0.0,0.0,-0.0694,-0.9904,0.0072,0.7324,-0.6779,0.0232,0.0595
687,0.0,0.0,0.0,0.0,0.0,0.0,-0.06670000000000001,-0.988,0.00425,0.73285,-0.6775,0.024399999999999998,0.0578
688,0.0,0.0,0.0,0.0,0.0,0.0,-0.0640,-0.9856,0.0013,0.7333,-0.6771,0.0256,0.0561
689,0.0,0.0,0.0,0.0,0.0,0.0,-0.0621,-0.9861,0.0038,0.7335,-0.6770,0.0262,0.0545
690,0.0,0.0,0.0,0.0,0.0,0.0,-0.06185,-0.9956,0.00355,0.73355,-0.6771,0.0264,0.0527
691,0.0,0.0,0.0,0.0,0.0,0.0,-0.0616,-1.0051,0.0033,0.7336,-0.6772,0.0266,0.0509
692,0.0,0.0,0.0,0.0,0.0,0.0,-0.0571,-1.0178,0.0067,0.7337,-0.6772,0.0269,0.0492
693,0.0,0.0,0.0,0.0,0.0,0.0,-0.0794,-1.03115,0.006200000000000001,0.7339,-0.677,0.02845,0.04825
694,0.0,0.0,0.0,0.0,0.0,0.0,-0.1017,-1.0445,0.0057,0.7341,-0.6768,0.0300,0.0473
695,0.0,0.0,0.0,0.0,0.0,0.0,-0.0552,-0.9846,0.0023,0.7349,-0.6759,0.0305,0.0470
696,0.0,0.0,0.0,0.0,0.0,0.0,-0.06520000000000001,-0.9929000000000001,0.01135,0.7354,-0.6753499999999999,0.03065,0.046200000000000005
697,0.0,0.0,0.0,0.0,0.0,0.0,-0.0752,-1.0012,0.0204,0.7359,-0.6748,0.0308,0.0454
698,0.0,0.0,0.0,0.0,0.0,0.0,-0.0655,-0.9753,0.0189,0.7361,-0.6748,0.0300,0.0441
699,0.0,0.0,0.0,0.0,0.0,0.0,-0.0618,-0.98705,0.0199,0.7363999999999999,-0.6746,0.0287,0.04265
700,0.0,0.0,0.0,0.0,0.0,0.0,-0.0581,-0.9988,0.0209,0.7367,-0.6744,0.0274,0.0412
701,0.0,0.0,0.0,0.0,0.0,0.0,-0.0547,-1.0129,0.0228,0.7370,-0.6742,0.0255,0.0394
702,0.0,0.0,0.0,0.0,0.0,0.0,-0.054900000000000004,-1.03045,0.0204,0.7372000000000001,-0.67415,0.02345,0.03745
703,0.0,0.0,0.0,0.0,0.0,0.0,-0.0551,-1.0480,0.0180,0.7374,-0.6741,0.0214,0.0355
704,0.0,0.0,0.0,0.0,0.0,0.0,-0.0493,-1.0256,0.0150,0.7384,-0.6732,0.0201,0.0333
705,0.0,0.0,0.0,0.0,0.0,0.0,-0.043149999999999994,-1.02195,0.02185,0.7394,-0.67225,0.0188,0.031
706,0.0,0.0,0.0,0.0,0.0,0.0,-0.0370,-1.0183,0.0287,0.7404,-0.6713,0.0175,0.0287
707,0.0,0.0,0.0,0.0,0.0,0.0,-0.0326,-1.0091,0.0346,0.7416,-0.6702,0.0166,0.0263
708,0.0,0.0,0.0,0.0,0.0,0.0,-0.0319,-0.9952000000000001,0.03975,0.74255,-0.6692,0.016149999999999998,0.02425
709,0.0,0.0,0.0,0.0,0.0,0.0,-0.0312,-0.9813,0.0449,0.7435,-0.6682,0.0157,0.0222
710,0.0,0.0,0.0,0.0,0.0,0.0,-0.0360,-1.0013,0.0556,0.7441,-0.6676,0.0154,0.0201
711,0.0,0.0,0.0,0.0,0.0,0.0,-0.02965,-0.99985,0.05415,0.74485,-0.6668000000000001,0.01485,0.01865
712,0.0,0.0,0.0,0.0,0.0,0.0,-0.0233,-0.9984,0.0527,0.7456,-0.6660,0.0143,0.0172
713,0.0,0.0,0.0,0.0,0.0,0.0,-0.0306,-1.0223,0.0610,0.7457,-0.6659,0.0138,0.0157
714,0.0,0.0,0.0,0.0,0.0,0.0,-0.0245,-1.01765,0.05565,0.74595,-0.6656500000000001,0.01415,0.014349999999999998
715,0.0,0.0,0.0,0.0,0.0,0.0,-0.0184,-1.0130,0.0503,0.7462,-0.6654,0.0145,0.0130
716,0.0,0.0,0.0,0.0,0.0,0.0,-0.0189,-1.0042,0.0468,0.7469,-0.6646,0.0146,0.0120
717,0.0,0.0,0.0,0.0,0.0,0.0,-0.0157,-1.0047000000000001,0.04635,0.74695,-0.6646,0.0137,0.01185
718,0.0,0.0,0.0,0.0,0.0,0.0,-0.0125,-1.0052,0.0459,0.7470,-0.6646,0.0128,0.0117
719,0.0,0.0,0.0,0.0,0.0,0.0,-0.0150,-0.9891,0.0439,0.7468,-0.6648,0.0121,0.0119
720,0.0,0.0,0.0,0.0,0.0,0.0,-0.009899999999999999,-0.96885,0.0361,0.74565,-0.6660999999999999,0.01095,0.01195
721,0.0,0.0,0.0,0.0,0.0,0.0,-0.0048,-0.9486,0.0283,0.7445,-0.6674,0.0098,0.0120
722,0.0,0.0,0.0,0.0,0.0,0.0,-0.0038,-0.9476,0.0234,0.7424,-0.6698,0.0077,0.0122
723,0.0,0.0,0.0,0.0,0.0,0.0,-0.0030499999999999998,-0.9815,0.02465,0.74005,-0.6724,0.005,0.0125
724,0.0,0.0,0.0,0.0,0.0,0.0,-0.0023,-1.0154,0.0259,0.7377,-0.6750,0.0023,0.0128
725,0.0,0.0,0.0,0.0,0.0,0.0,0.0070,-1.0052,0.0176,0.7356,-0.6773,-0.0011,0.0127
726,0.0,0.0,0.0,0.0,0.0,0.0,0.0129,-1.0195500000000002,0.0083,0.73355,-0.6795,-0.00475,0.01245
727,0.0,0.0,0.0,0.0,0.0,0.0,0.0188,-1.0339,-0.0010,0.7315,-0.6817,-0.0084,0.0122
728,0.0,0.0,0.0,0.0,0.0,0.0,0.0241,-1.0076,-0.0127,0.7298,-0.6835,-0.0117,0.0123
729,0.0,0.0,0.0,0.0,0.0,0.0,0.0322,-1.0105,-0.019549999999999998,0.7282500000000001,-0.6850499999999999,-0.0149,0.012750000000000001
730,0.0,0.0,0.0,0.0,0.0,0.0,0.0403,-1.0134,-0.0264,0.7267,-0.6866,-0.0181,0.0132
731,0.0,0.0,0.0,0.0,0.0,0.0,0.0466,-1.0066,-0.0332,0.7256,-0.6876,-0.0210,0.0139
732,0.0,0.0,0.0,0.0,0.0,0.0,0.05055,-1.0295,-0.03295,0.7250000000000001,-0.68815,-0.0238,0.01505
733,0.0,0.0,0.0,0.0,0.0,0.0,0.0545,-1.0524,-0.0327,0.7244,-0.6887,-0.0266,0.0162
734,0.0,0.0,0.0,0.0,0.0,0.0,0.0579,-1.0393,-0.0342,0.7239,-0.6891,-0.0293,0.0174
735,0.0,0.0,0.0,0.0,0.0,0.0,0.064,-1.0429499999999998,-0.03515,0.7234499999999999,-0.6894,-0.032100000000000004,0.01825
736,0.0,0.0,0.0,0.0,0.0,0.0,0.0701,-1.0466,-0.0361,0.7230,-0.6897,-0.0349,0.0191
737,0.0,0.0,0.0,0.0,0.0,0.0,0.0755,-1.0393,-0.0419,0.7228,-0.6898,-0.0373,0.0196
738,0.0,0.0,0.0,0.0,0.0,0.0,0.07894999999999999,-1.03955,-0.0429,0.72245,-0.69,-0.039400000000000004,0.020249999999999997
739,0.0,0.0,0.0,0.0,0.0,0.0,0.0824,-1.0398,-0.0439,0.7221,-0.6902,-0.0415,0.0209
740,0.0,0.0,0.0,0.0,0.0,0.0,0.0824,-1.0364,-0.0424,0.7221,-0.6901,-0.0428,0.0213
741,0.0,0.0,0.0,0.0,0.0,0.0,0.08335000000000001,-1.0227,-0.0429,0.72215,-0.69,-0.043899999999999995,0.0213
742,0.0,0.0,0.0,0.0,0.0,0.0,0.0843,-1.0090,-0.0434,0.7222,-0.6899,-0.0450,0.0213
743,0.0,0.0,0.0,0.0,0.0,0.0,0.0838,-1.0047,-0.0468,0.7223,-0.6897,-0.0458,0.0211
744,0.0,0.0,0.0,0.0,0.0,0.0,0.08255,-1.00345,-0.0485,0.7222,-0.6898,-0.04635,0.020900000000000002
745,0.0,0.0,0.0,0.0,0.0,0.0,0.0813,-1.0022,-0.0502,0.7221,-0.6899,-0.0469,0.0207
746,0.0,0.0,0.0,0.0,0.0,0.0,0.0813,-1.0051,-0.0527,0.7219,-0.6901,-0.0473,0.0204
747,0.0,0.0,0.0,0.0,0.0,0.0,0.07815,-1.00975,-0.05415,0.7215499999999999,-0.6905,-0.0473,0.01975
748,0.0,0.0,0.0,0.0,0.0,0.0,0.0750,-1.0144,-0.0556,0.7212,-0.6909,-0.0473,0.0191
749,0.0,0.0,0.0,0.0,0.0,0.0,0.0676,-1.0075,-0.0581,0.7209,-0.6912,-0.0471,0.0184
750,0.0,0.0,0.0,0.0,0.0,0.0,0.0561,-1.0114,-0.05495,0.7213499999999999,-0.6908000000000001,-0.046450000000000005,0.0173
751,0.0,0.0,0.0,0.0,0.0,0.0,0.0446,-1.0153,-0.0518,0.7218,-0.6904,-0.0458,0.0162
752,0.0,0.0,0.0,0.0,0.0,0.0,0.0231,-0.9895,-0.0523,0.7237,-0.6884,-0.0450,0.0148
753,0.0,0.0,0.0,0.0,0.0,0.0,0.0106,-0.99095,-0.0406,0.7287,-0.6833,-0.0427,0.01345
754,0.0,0.0,0.0,0.0,0.0,0.0,-0.0019,-0.9924,-0.0289,0.7337,-0.6782,-0.0404,0.0121
755,0.0,0.0,0.0,0.0,0.0,0.0,0.0481,-1.0320,0.0054,0.7399,-0.6716,-0.0371,0.0112
756,0.0,0.0,0.0,0.0,0.0,0.0,0.0998,-1.0221,0.02505,0.7484500000000001,-0.66225,-0.0312,0.00945
757,0.0,0.0,0.0,0.0,0.0,0.0,0.1515,-1.0122,0.0447,0.7570,-0.6529,-0.0253,0.0077
758,0.0,0.0,0.0,0.0,0.0,0.0,0.1402,-0.9941,0.0525,0.7649,-0.6438,-0.0197,0.0056
759,0.0,0.0,0.0,0.0,0.0,0.0,0.1202,-1.01585,0.07565,0.77025,-0.6375,-0.013999999999999999,0.004
760,0.0,0.0,0.0,0.0,0.0,0.0,0.1002,-1.0376,0.0988,0.7756,-0.6312,-0.0083,0.0024
761,0.0,0.0,0.0,0.0,0.0,0.0,0.0928,-1.0366,0.1135,0.7793,-0.6267,-0.0032,0.0013
762,0.0,0.0,0.0,0.0,0.0,0.0,0.07345,-1.02295,0.11760000000000001,0.78165,-0.6237,0.0021000000000000003,0.0
763,0.0,0.0,0.0,0.0,0.0,0.0,0.0541,-1.0093,0.1217,0.7840,-0.6207,0.0074,-0.0013
764,0.0,0.0,0.0,0.0,0.0,0.0,0.0326,-1.0083,0.1178,0.7859,-0.6182,0.0127,-0.0025
765,0.0,0.0,0.0,0.0,0.0,0.0,0.031149999999999997,-1.01025,0.1288,0.7881,-0.6153500000000001,0.016,-0.00265
766,0.0,0.0,0.0,0.0,0.0,0.0,0.0297,-1.0122,0.1398,0.7903,-0.6125,0.0193,-0.0028
767,0.0,0.0,0.0,0.0,0.0,0.0,0.0228,-1.0063,0.1393,0.7920,-0.6101,0.0227,-0.0027
768,0.0,0.0,0.0,0.0,0.0,0.0,0.0184,-0.99265,0.1395,0.793,-0.6087,0.025500000000000002,-0.0026
769,0.0,0.0,0.0,0.0,0.0,0.0,0.0140,-0.9790,0.1397,0.7940,-0.6073,0.0283,-0.0025
770,0.0,0.0,0.0,0.0,0.0,0.0,0.0091,-0.9873,0.1437,0.7948,-0.6060,0.0309,-0.0023
771,0.0,0.0,0.0,0.0,0.0,0.0,0.00935,-0.9839,0.1439,0.79525,-0.60535,0.03245,-0.0022500000000000003
772,0.0,0.0,0.0,0.0,0.0,0.0,0.0096,-0.9805,0.1441,0.7957,-0.6047,0.0340,-0.0022
773,0.0,0.0,0.0,0.0,0.0,0.0,0.0130,-0.9902,0.1490,0.7962,-0.6041,0.0347,-0.0020
774,0.0,0.0,0.0,0.0,0.0,0.0,0.015,-0.9936499999999999,0.1505,0.79625,-0.604,0.03445,-0.0017000000000000001
775,0.0,0.0,0.0,0.0,0.0,0.0,0.0170,-0.9971,0.1520,0.7963,-0.6039,0.0342,-0.0014
776,0.0,0.0,0.0,0.0,0.0,0.0,0.0179,-0.9854,0.1495,0.7961,-0.6042,0.0343,-0.0012
777,0.0,0.0,0.0,0.0,0.0,0.0,0.013,-0.99075,0.15,0.79585,-0.6045499999999999,0.033449999999999994,-0.0007499999999999999
778,0.0,0.0,0.0,0.0,0.0,0.0,0.0081,-0.9961,0.1505,0.7956,-0.6049,0.0326,-0.0003
779,0.0,0.0,0.0,0.0,0.0,0.0,0.0170,-1.0083,0.1608,0.7953,-0.6055,0.0313,0.0002
780,0.0,0.0,0.0,0.0,0.0,0.0,0.011850000000000001,-1.0017,0.15685,0.7947500000000001,-0.60625,0.03065,0.00045
781,0.0,0.0,0.0,0.0,0.0,0.0,0.0067,-0.9951,0.1529,0.7942,-0.6070,0.0300,0.0007
782,0.0,0.0,0.0,0.0,0.0,0.0,0.0106,-0.9961,0.1534,0.7940,-0.6073,0.0286,0.0013
783,0.0,0.0,0.0,0.0,0.0,0.0,0.009600000000000001,-0.99805,0.15610000000000002,0.7937000000000001,-0.6076999999999999,0.02815,0.00175
784,0.0,0.0,0.0,0.0,0.0,0.0,0.0086,-1.0000,0.1588,0.7934,-0.6081,0.0277,0.0022
785,0.0,0.0,0.0,0.0,0.0,0.0,0.0042,-0.9922,0.1529,0.7935,-0.6080,0.0271,0.0025
786,0.0,0.0,0.0,0.0,0.0,0.0,0.0025,-1.00685,0.16,0.79355,-0.6079,0.02675,0.0028
787,0.0,0.0,0.0,0.0,0.0,0.0,0.0008,-1.0215,0.1671,0.7936,-0.6078,0.0264,0.0031
788,0.0,0.0,0.0,0.0,0.0,0.0,0.0052,-1.0210,0.1637,0.7932,-0.6083,0.0266,0.0032
789,0.0,0.0,0.0,0.0,0.0,0.0,9.999999999999983e-05,-1.02075,0.16615000000000002,0.79345,-0.608,0.027549999999999998,0.0033
790,0.0,0.0,0.0,0.0,0.0,0.0,-0.0050,-1.0205,0.1686,0.7937,-0.6077,0.0285,0.0034
791,0.0,0.0,0.0,0.0,0.0,0.0,-0.0055,-1.0097,0.1602,0.7938,-0.6074,0.0295,0.0037
792,0.0,0.0,0.0,0.0,0.0,0.0,-0.007,-1.00535,0.16585,0.7944,-0.6066,0.030100000000000002,0.00385
793,0.0,0.0,0.0,0.0,0.0,0.0,-0.0085,-1.0010,0.1715,0.7950,-0.6058,0.0307,0.0040
794,0.0,0.0,0.0,0.0,0.0,0.0,-0.0085,-1.0015,0.1734,0.7958,-0.6048,0.0309,0.0040
795,0.0,0.0,0.0,0.0,0.0,0.0,-0.00455,-0.9927,0.1749,0.7963,-0.60415,0.0303,0.00445
796,0.0,0.0,0.0,0.0,0.0,0.0,-0.0006,-0.9839,0.1764,0.7968,-0.6035,0.0297,0.0049
797,0.0,0.0,0.0,0.0,0.0,0.0,-0.0462,-0.9697,0.1660,0.7969,-0.6033,0.0307,0.0049
798,0.0,0.0,0.0,0.0,0.0,0.0,-0.03025,-0.98975,0.17435,0.79765,-0.6023499999999999,0.0307,0.00455
799,0.0,0.0,0.0,0.0,0.0,0.0,-0.0143,-1.0098,0.1827,0.7984,-0.6014,0.0307,0.0042
800,0.0,0.0,0.0,0.0,0.0,0.0,-0.0143,-1.0029,0.1773,0.7983,-0.6016,0.0292,0.0044
801,0.0,0.0,0.0,0.0,0.0,0.0,-0.01555,-0.98925,0.1668,0.7979499999999999,-0.6021000000000001,0.027950000000000003,0.0044
802,0.0,0.0,0.0,0.0,0.0,0.0,-0.0168,-0.9756,0.1563,0.7976,-0.6026,0.0267,0.0044
803,0.0,0.0,0.0,0.0,0.0,0.0,0.0042,-0.9873,0.1593,0.7967,-0.6039,0.0242,0.0046
804,0.0,0.0,0.0,0.0,0.0,0.0,0.0101,-0.99315,0.15345,0.7955,-0.60555,0.0219,0.0045000000000000005
805,0.0,0.0,0.0,0.0,0.0,0.0,0.0160,-0.9990,0.1476,0.7943,-0.6072,0.0196,0.0044
806,0.0,0.0,0.0,0.0,0.0,0.0,0.0140,-0.9878,0.1310,0.7924,-0.6097,0.0171,0.0042
807,0.0,0.0,0.0,0.0,0.0,0.0,0.01695,-0.9968,0.1251,0.7902,-0.61265,0.014100000000000001,0.00415
808,0.0,0.0,0.0,0.0,0.0,0.0,0.0199,-1.0058,0.1192,0.7880,-0.6156,0.0111,0.0041
809,0.0,0.0,0.0,0.0,0.0,0.0,0.0208,-1.0082,0.1129,0.7861,-0.6181,0.0086,0.0035
810,0.0,0.0,0.0,0.0,0.0,0.0,0.02965,-1.02115,0.10925,0.78425,-0.6204000000000001,0.0056500000000000005,0.00315
811,0.0,0.0,0.0,0.0,0.0,0.0,0.0385,-1.0341,0.1056,0.7824,-0.6227,0.0027,0.0028
812,0.0,0.0,0.0,0.0,0.0,0.0,0.0267,-1.0155,0.1036,0.7804,-0.6253,0.0004,0.0028
813,0.0,0.0,0.0,0.0,0.0,0.0,0.02815,-1.0033,0.09065000000000001,0.77935,-0.6266,-0.00045,0.0023
814,0.0,0.0,0.0,0.0,0.0,0.0,0.0296,-0.9911,0.0777,0.7783,-0.6279,-0.0013,0.0018
815,0.0,0.0,0.0,0.0,0.0,0.0,0.0330,-0.9965,0.0777,0.7772,-0.6293,-0.0020,0.0016
816,0.0,0.0,0.0,0.0,0.0,0.0,0.03105,-0.9940500000000001,0.07475000000000001,0.7757499999999999,-0.63105,-0.00285,0.0016
817,0.0,0.0,0.0,0.0,0.0,0.0,0.0291,-0.9916,0.0718,0.7743,-0.6328,-0.0037,0.0016
818,0.0,0.0,0.0,0.0,0.0,0.0,0.0301,-0.9999,0.0689,0.7734,-0.6339,-0.0050,0.0019
819,0.0,0.0,0.0,0.0,0.0,0.0,0.033049999999999996,-1.00135,0.06965,0.77225,-0.6352500000000001,-0.00625,0.0023
820,0.0,0.0,0.0,0.0,0.0,0.0,0.0360,-1.0028,0.0704,0.7711,-0.6366,-0.0075,0.0027
821,0.0,0.0,0.0,0.0,0.0,0.0,0.0399,-1.0043,0.0650,0.7700,-0.6380,-0.0089,0.0031
822,0.0,0.0,0.0,0.0,0.0,0.0,0.03815,-1.0048,0.0628,0.7687999999999999,-0.6394,-0.010499999999999999,0.0034999999999999996
823,0.0,0.0,0.0,0.0,0.0,0.0,0.0364,-1.0053,0.0606,0.7676,-0.6408,-0.0121,0.0039
824,0.0,0.0,0.0,0.0,0.0,0.0,0.0335,-1.0160,0.0635,0.7667,-0.6418,-0.0136,0.0044
825,0.0,0.0,0.0,0.0,0.0,0.0,0.03375,-1.0199,0.06570000000000001,0.7661,-0.6425000000000001,-0.0149,0.0049
826,0.0,0.0,0.0,0.0,0.0,0.0,0.0340,-1.0238,0.0679,0.7655,-0.6432,-0.0162,0.0054
827,0.0,0.0,0.0,0.0,0.0,0.0,0.0237,-1.0248,0.0665,0.7649,-0.6439,-0.0174,0.0060
828,0.0,0.0,0.0,0.0,0.0,0.0,0.02465,-1.0087,0.06085,0.7644500000000001,-0.6444000000000001,-0.0185,0.00635
829,0.0,0.0,0.0,0.0,0.0,0.0,0.0256,-0.9926,0.0552,0.7640,-0.6449,-0.0196,0.0067
830,0.0,0.0,0.0,0.0,0.0,0.0,0.0345,-0.9921,0.0528,0.7639,-0.6450,-0.0210,0.0066
831,0.0,0.0,0.0,0.0,0.0,0.0,0.0401,-0.9921,0.0506,0.76345,-0.6454500000000001,-0.0225,0.00645
832,0.0,0.0,0.0,0.0,0.0,0.0,0.0457,-0.9921,0.0484,0.7630,-0.6459,-0.0240,0.0063
833,0.0,0.0,0.0,0.0,0.0,0.0,0.0531,-0.9931,0.0460,0.7629,-0.6460,-0.0254,0.0061
834,0.0,0.0,0.0,0.0,0.0,0.0,0.061149999999999996,-1.0099,0.0455,0.7623500000000001,-0.6466000000000001,-0.0267,0.00605
835,0.0,0.0,0.0,0.0,0.0,0.0,0.0692,-1.0267,0.0450,0.7618,-0.6472,-0.0280,0.0060
836,0.0,0.0,0.0,0.0,0.0,0.0,0.0687,-1.0243,0.0397,0.7609,-0.6482,-0.0283,0.0063
837,0.0,0.0,0.0,0.0,0.0,0.0,0.07264999999999999,-1.02695,0.0387,0.75995,-0.6493,-0.02815,0.00715
838,0.0,0.0,0.0,0.0,0.0,0.0,0.0766,-1.0296,0.0377,0.7590,-0.6504,-0.0280,0.0080
839,0.0,0.0,0.0,0.0,0.0,0.0,0.0780,-1.0057,0.0265,0.7582,-0.6514,-0.0269,0.0086
840,0.0,0.0,0.0,0.0,0.0,0.0,0.06725,-1.00645,0.0206,0.7569,-0.6529499999999999,-0.025599999999999998,0.00935
841,0.0,0.0,0.0,0.0,0.0,0.0,0.0565,-1.0072,0.0147,0.7556,-0.6545,-0.0243,0.0101
842,0.0,0.0,0.0,0.0,0.0,0.0,0.0428,-1.0203,0.0122,0.7544,-0.6559,-0.0225,0.0104
843,0.0,0.0,0.0,0.0,0.0,0.0,0.03565,-1.0183499999999999,0.0078000000000000005,0.7536,-0.65695,-0.02045,0.010450000000000001
844,0.0,0.0,0.0,0.0,0.0,0.0,0.0285,-1.0164,0.0034,0.7528,-0.6580,-0.0184,0.0105
845,0.0,0.0,0.0,0.0,0.0,0.0,0.0197,-1.0174,0.0063,0.7523,-0.6585,-0.0163,0.0103
846,0.0,0.0,0.0,0.0,0.0,0.0,0.0202,-1.01445,0.0085,0.7517,-0.65925,-0.01465,0.0103
847,0.0,0.0,0.0,0.0,0.0,0.0,0.0207,-1.0115,0.0107,0.7511,-0.6600,-0.0130,0.0103
848,0.0,0.0,0.0,0.0,0.0,0.0,0.0183,-1.0052,0.0122,0.7506,-0.6606,-0.0112,0.0102
849,0.0,0.0,0.0,0.0,0.0,0.0,0.019,-1.0003,0.01515,0.7502500000000001,-0.661,-0.00995,0.01025
850,0.0,0.0,0.0,0.0,0.0,0.0,0.0197,-0.9954,0.0181,0.7499,-0.6614,-0.0087,0.0103
851,0.0,0.0,0.0,0.0,0.0,0.0,0.0231,-0.9905,0.0147,0.7494,-0.6620,-0.0079,0.0100
852,0.0,0.0,0.0,0.0,0.0,0.0,0.03,-1.00445,0.0225,0.74905,-0.6624,-0.0074,0.01
853,0.0,0.0,0.0,0.0,0.0,0.0,0.0369,-1.0184,0.0303,0.7487,-0.6628,-0.0069,0.0100
854,0.0,0.0,0.0,0.0,0.0,0.0,0.0349,-1.0213,0.0289,0.7482,-0.6634,-0.0061,0.0098
855,0.0,0.0,0.0,0.0,0.0,0.0,0.0342,-1.0269,0.02815,0.7478,-0.66385,-0.00525,0.00955
856,0.0,0.0,0.0,0.0,0.0,0.0,0.0335,-1.0325,0.0274,0.7474,-0.6643,-0.0044,0.0093
857,0.0,0.0,0.0,0.0,0.0,0.0,0.0217,-1.0442,0.0288,0.7467,-0.6651,-0.0031,0.0090
858,0.0,0.0,0.0,0.0,0.0,0.0,0.0107,-1.0371000000000001,0.02195,0.7469,-0.6648499999999999,-0.00105,0.0086
859,0.0,0.0,0.0,0.0,0.0,0.0,-0.0003,-1.0300,0.0151,0.7471,-0.6646,0.0010,0.0082
860,0.0,0.0,0.0,0.0,0.0,0.0,-0.0140,-1.0232,0.0146,0.7477,-0.6640,0.0027,0.0079
861,0.0,0.0,0.0,0.0,0.0,0.0,-0.01425,-1.02005,0.018,0.7484999999999999,-0.6631,0.0037,0.00795
862,0.0,0.0,0.0,0.0,0.0,0.0,-0.0145,-1.0169,0.0214,0.7493,-0.6622,0.0047,0.0080
863,0.0,0.0,0.0,0.0,0.0,0.0,-0.0135,-1.0115,0.0263,0.7506,-0.6607,0.0056,0.0085
864,0.0,0.0,0.0,0.0,0.0,0.0,-0.009600000000000001,-1.0003,0.028749999999999998,0.75195,-0.6591,0.0053,0.00975
865,0.0,0.0,0.0,0.0,0.0,0.0,-0.0057,-0.9891,0.0312,0.7533,-0.6575,0.0050,0.0110
866,0.0,0.0,0.0,0.0,0.0,0.0,0.0134,-0.9813,0.0381,0.7541,-0.6566,0.0029,0.0127
867,0.0,0.0,0.0,0.0,0.0,0.0,0.0222,-0.9708,0.0398,0.7545999999999999,-0.65605,-0.0002000000000000001,0.0143
868,0.0,0.0,0.0,0.0,0.0,0.0,0.0310,-0.9603,0.0415,0.7551,-0.6555,-0.0033,0.0159
869,0.0,0.0,0.0,0.0,0.0,0.0,0.0442,-0.9916,0.0484,0.7552,-0.6552,-0.0071,0.0177
870,0.0,0.0,0.0,0.0,0.0,0.0,0.044950000000000004,-1.0045000000000002,0.04865,0.7551,-0.6552,-0.010499999999999999,0.019700000000000002
871,0.0,0.0,0.0,0.0,0.0,0.0,0.0457,-1.0174,0.0489,0.7550,-0.6552,-0.0139,0.0217
872,0.0,0.0,0.0,0.0,0.0,0.0,0.0399,-1.0589,0.0577,0.7550,-0.6551,-0.0160,0.0235
873,0.0,0.0,0.0,0.0,0.0,0.0,0.0416,-1.0367,0.050100000000000006,0.7555499999999999,-0.6544,-0.01675,0.02525
874,0.0,0.0,0.0,0.0,0.0,0.0,0.0433,-1.0145,0.0425,0.7561,-0.6537,-0.0175,0.0270
875,0.0,0.0,0.0,0.0,0.0,0.0,0.0536,-1.0194,0.0523,0.7562,-0.6535,-0.0182,0.0288
876,0.0,0.0,0.0,0.0,0.0,0.0,0.05065,-1.0033,0.0496,0.7569,-0.6526,-0.017750000000000002,0.029949999999999997
877,0.0,0.0,0.0,0.0,0.0,0.0,0.0477,-0.9872,0.0469,0.7576,-0.6517,-0.0173,0.0311
878,0.0,0.0,0.0,0.0,0.0,0.0,0.0340,-1.0096,0.0479,0.7577,-0.6516,-0.0181,0.0321
879,0.0,0.0,0.0,0.0,0.0,0.0,0.03205,-1.01475,0.04935,0.75805,-0.6511499999999999,-0.0194,0.032299999999999995
880,0.0,0.0,0.0,0.0,0.0,0.0,0.0301,-1.0199,0.0508,0.7584,-0.6507,-0.0207,0.0325
881,0.0,0.0,0.0,0.0,0.0,0.0,0.0291,-1.0130,0.0455,0.7586,-0.6504,-0.0222,0.0321
882,0.0,0.0,0.0,0.0,0.0,0.0,0.03005,-0.9879,0.0374,0.7586,-0.6504,-0.02395,0.0315
883,0.0,0.0,0.0,0.0,0.0,0.0,0.0310,-0.9628,0.0293,0.7586,-0.6504,-0.0257,0.0309
884,0.0,0.0,0.0,0.0,0.0,0.0,0.0286,-0.9935,0.0371,0.7582,-0.6507,-0.0273,0.0305
885,0.0,0.0,0.0,0.0,0.0,0.0,0.03815,-1.00085,0.04105,0.7578,-0.6511499999999999,-0.028200000000000003,0.0303
886,0.0,0.0,0.0,0.0,0.0,0.0,0.0477,-1.0082,0.0450,0.7574,-0.6516,-0.0291,0.0301
887,0.0,0.0,0.0,0.0,0.0,0.0,0.0349,-1.0067,0.0425,0.7571,-0.6520,-0.0289,0.0295
888,0.0,0.0,0.0,0.0,0.0,0.0,0.03445,-1.0112999999999999,0.04005,0.7567999999999999,-0.6524000000000001,-0.02845,0.0284
889,0.0,0.0,0.0,0.0,0.0,0.0,0.0340,-1.0159,0.0376,0.7565,-0.6528,-0.0280,0.0273
890,0.0,0.0,0.0,0.0,0.0,0.0,0.0354,-1.0189,0.0367,0.7562,-0.6532,-0.0271,0.0259
891,0.0,0.0,0.0,0.0,0.0,0.0,0.0266,-1.0149499999999998,0.03005,0.755,-0.6547000000000001,-0.0254,0.0246
892,0.0,0.0,0.0,0.0,0.0,0.0,0.0178,-1.0110,0.0234,0.7538,-0.6562,-0.0237,0.0233
893,0.0,0.0,0.0,0.0,0.0,0.0,0.0080,-1.0056,0.0171,0.7527,-0.6576,-0.0217,0.0221
894,0.0,0.0,0.0,0.0,0.0,0.0,0.00505,-1.00125,0.0139,0.7514000000000001,-0.65925,-0.01965,0.02085
895,0.0,0.0,0.0,0.0,0.0,0.0,0.0021,-0.9969,0.0107,0.7501,-0.6609,-0.0176,0.0196
896,0.0,0.0,0.0,0.0,0.0,0.0,0.0060,-0.9900,0.0102,0.7488,-0.6624,-0.0161,0.0182
897,0.0,0.0,0.0,0.0,0.0,0.0,0.0075,-1.00345,0.01365,0.74745,-0.66395,-0.015050000000000001,0.0167
898,0.0,0.0,0.0,0.0,0.0,0.0,0.0090,-1.0169,0.0171,0.7461,-0.6655,-0.0140,0.0152
899,0.0,0.0,0.0,0.0,0.0,0.0,0.0041,-1.0559,0.0264,0.7453,-0.6665,-0.0129,0.0140
900,0.0,0.0,0.0,0.0,0.0,0.0,0.009,-1.0464,0.0249,0.7453,-0.6665,-0.01075,0.0133
901,0.0,0.0,0.0,0.0,0.0,0.0,0.0139,-1.0369,0.0234,0.7453,-0.6665,-0.0086,0.0126
902,0.0,0.0,0.0,0.0,0.0,0.0,0.0110,-1.0276,0.0205,0.7458,-0.6660,-0.0062,0.0119
903,0.0,0.0,0.0,0.0,0.0,0.0,0.0085,-1.0203,0.0195,0.7463500000000001,-0.6654500000000001,-0.0039,0.011800000000000001
904,0.0,0.0,0.0,0.0,0.0,0.0,0.0060,-1.0130,0.0185,0.7469,-0.6649,-0.0016,0.0117
905,0.0,0.0,0.0,0.0,0.0,0.0,0.0051,-1.0257,0.0283,0.7472,-0.6645,0.0001,0.0121
906,0.0,0.0,0.0,0.0,0.0,0.0,0.0004500000000000003,-1.03445,0.03685,0.7477,-0.6638999999999999,0.0015999999999999999,0.012549999999999999
907,0.0,0.0,0.0,0.0,0.0,0.0,-0.0042,-1.0432,0.0454,0.7482,-0.6633,0.0031,0.0130
908,0.0,0.0,0.0,0.0,0.0,0.0,-0.0150,-1.0218,0.0395,0.7491,-0.6624,0.0047,0.0136
909,0.0,0.0,0.0,0.0,0.0,0.0,-0.012549999999999999,-1.024,0.045399999999999996,0.75,-0.6613,0.0063999999999999994,0.014499999999999999
910,0.0,0.0,0.0,0.0,0.0,0.0,-0.0101,-1.0262,0.0513,0.7509,-0.6602,0.0081,0.0154
911,0.0,0.0,0.0,0.0,0.0,0.0,-0.0037,-1.0008,0.0527,0.7519,-0.6590,0.0092,0.0165
912,0.0,0.0,0.0,0.0,0.0,0.0,-0.00175,-0.9998499999999999,0.05445,0.7531,-0.6576,0.00935,0.0172
913,0.0,0.0,0.0,0.0,0.0,0.0,0.0002,-0.9989,0.0562,0.7543,-0.6562,0.0095,0.0179
914,0.0,0.0,0.0,0.0,0.0,0.0,0.0002,-1.0023,0.0620,0.7557,-0.6546,0.0091,0.0182
915,0.0,0.0,0.0,0.0,0.0,0.0,-0.00465,-1.0217999999999998,0.074,0.7575000000000001,-0.6525,0.0087,0.01845
916,0.0,0.0,0.0,0.0,0.0,0.0,-0.0095,-1.0413,0.0860,0.7593,-0.6504,0.0083,0.0187
917,0.0,0.0,0.0,0.0,0.0,0.0,-0.0105,-1.0101,0.0806,0.7613,-0.6481,0.0083,0.0188
918,0.0,0.0,0.0,0.0,0.0,0.0,-0.0044,-0.9935499999999999,0.08280000000000001,0.7631,-0.64595,0.0076500000000000005,0.01915
919,0.0,0.0,0.0,0.0,0.0,0.0,0.0017,-0.9770,0.0850,0.7649,-0.6438,0.0070,0.0195
920,0.0,0.0,0.0,0.0,0.0,0.0,0.0090,-0.9648,0.0879,0.7666,-0.6418,0.0053,0.0198
921,0.0,0.0,0.0,0.0,0.0,0.0,0.019799999999999998,-0.97605,0.09455,0.7678499999999999,-0.6403000000000001,0.00315,0.0201
922,0.0,0.0,0.0,0.0,0.0,0.0,0.0306,-0.9873,0.1012,0.7691,-0.6388,0.0010,0.0204
923,0.0,0.0,0.0,0.0,0.0,0.0,0.0350,-0.9931,0.0978,0.7702,-0.6375,-0.0015,0.0208
924,0.0,0.0,0.0,0.0,0.0,0.0,0.03745,-0.99385,0.09315,0.77085,-0.6366499999999999,-0.00405,0.02165
925,0.0,0.0,0.0,0.0,0.0,0.0,0.0399,-0.9946,0.0885,0.7715,-0.6358,-0.0066,0.0225
926,0.0,0.0,0.0,0.0,0.0,0.0,0.0394,-0.9697,0.0714,0.7714,-0.6358,-0.0091,0.0233
927,0.0,0.0,0.0,0.0,0.0,0.0,0.04255,-0.9821,0.07115,0.7706,-0.6367,-0.01205,0.024399999999999998
928,0.0,0.0,0.0,0.0,0.0,0.0,0.0457,-0.9945,0.0709,0.7698,-0.6376,-0.0150,0.0255
929,0.0,0.0,0.0,0.0,0.0,0.0,0.0487,-1.0175,0.0704,0.7689,-0.6386,-0.0177,0.0267
930,0.0,0.0,0.0,0.0,0.0,0.0,0.04235,-1.0165000000000002,0.0633,0.76805,-0.63945,-0.01985,0.0283
931,0.0,0.0,0.0,0.0,0.0,0.0,0.0360,-1.0155,0.0562,0.7672,-0.6403,-0.0220,0.0299
932,0.0,0.0,0.0,0.0,0.0,0.0,0.0398,-0.9965,0.0450,0.7662,-0.6414,-0.0243,0.0314
933,0.0,0.0,0.0,0.0,0.0,0.0,0.041800000000000004,-1.01305,0.0506,0.7653,-0.64225,-0.026799999999999997,0.03325
934,0.0,0.0,0.0,0.0,0.0,0.0,0.0438,-1.0296,0.0562,0.7644,-0.6431,-0.0293,0.0351
935,0.0,0.0,0.0,0.0,0.0,0.0,0.0561,-1.0433,0.0641,0.7635,-0.6440,-0.0317,0.0372
936,0.0,0.0,0.0,0.0,0.0,0.0,0.0519,-1.0438,0.0636,0.7618499999999999,-0.6456500000000001,-0.03365,0.0398
937,0.0,0.0,0.0,0.0,0.0,0.0,0.0477,-1.0443,0.0631,0.7602,-0.6473,-0.0356,0.0424
938,0.0,0.0,0.0,0.0,0.0,0.0,0.0326,-1.0487,0.0650,0.7584,-0.6492,-0.0363,0.0450
939,0.0,0.0,0.0,0.0,0.0,0.0,0.0482,-1.0038,0.0435,0.7562,-0.6515,-0.0374,0.0477
940,0.0,0.0,0.0,0.0,0.0,0.0,0.0526,-0.9960,0.0377,0.7536,-0.6543,-0.0389,0.0502
941,0.0,0.0,0.0,0.0,0.0,0.0,0.0383,-0.9920,0.0323,0.7508,-0.6572,-0.0400,0.0524
942,0.0,0.0,0.0,0.0,0.0,0.0,0.0124,-1.0018,0.0283,0.7488,-0.6593,-0.0404,0.0540
943,0.0,0.0,0.0,0.0,0.0,0.0,0.0148,-0.9930,0.0259,0.7482,-0.6600,-0.0411,0.0548
944,0.0,0.0,0.0,0.0,0.0,0.0,0.0134,-1.0208,0.0264,0.7478,-0.6603,-0.0418,0.0551
945,0.0,0.0,0.0,0.0,0.0,0.0,-0.0062,-1.0378,0.0273,0.7469,-0.6613,-0.0423,0.0550
946,0.0,0.0,0.0,0.0,0.0,0.0,0.0026,-1.0222,0.0254,0.7463,-0.6620,-0.0428,0.0551
947,0.0,0.0,0.0,0.0,0.0,0.0,0.0080,-1.0115,0.0239,0.7459,-0.6624,-0.0436,0.0549
948,0.0,0.0,0.0,0.0,0.0,0.0,-0.0003,-1.0125,0.0239,0.7456,-0.6627,-0.0446,0.0545
949,0.0,0.0,0.0,0.0,0.0,0.0,-0.0047,-1.0149,0.0283,0.7453,-0.6630,-0.0453,0.0545
950,0.0,0.0,0.0,0.0,0.0,0.0,-0.0067,-1.0110,0.0307,0.7449,-0.6634,-0.0456,0.0542
951,0.0,0.0,0.0,0.0,0.0,0.0,-0.0062,-1.0130,0.0346,0.7443,-0.6641,-0.0457,0.0538
952,0.0,0.0,0.0,0.0,0.0,0.0,-0.0057,-1.0135,0.0371,0.7438,-0.6648,-0.0453,0.0532
953,0.0,0.0,0.0,0.0,0.0,0.0,-0.0081,-1.0183,0.0381,0.7431,-0.6656,-0.0446,0.0524
954,0.0,0.0,0.0,0.0,0.0,0.0,-0.0106,-1.0266,0.0366,0.7422,-0.6668,-0.0437,0.0514
955,0.0,0.0,0.0,0.0,0.0,0.0,-0.0155,-1.0344,0.0307,0.7412,-0.6681,-0.0422,0.0501
956,0.0,0.0,0.0,0.0,0.0,0.0,-0.0115,-1.0452,0.0273,0.7406,-0.6690,-0.0404,0.0488
957,0.0,0.0,0.0,0.0,0.0,0.0,-0.0032,-1.0330,0.0254,0.7407,-0.6691,-0.0383,0.0476
958,0.0,0.0,0.0,0.0,0.0,0.0,-0.0057,-1.0178,0.0205,0.7408,-0.6692,-0.0361,0.0465
959,0.0,0.0,0.0,0.0,0.0,0.0,-0.0111,-1.0144,0.0210,0.7408,-0.6693,-0.0339,0.0455
960,0.0,0.0,0.0,0.0,0.0,0.0,-0.0126,-1.0081,0.0214,0.7409,-0.6694,-0.0315,0.0444
961,0.0,0.0,0.0,0.0,0.0,0.0,-0.0131,-1.0110,0.0224,0.7411,-0.6694,-0.0291,0.0434
962,0.0,0.0,0.0,0.0,0.0,0.0,-0.0067,-1.0125,0.0234,0.7413,-0.6693,-0.0269,0.0421
963,0.0,0.0,0.0,0.0,0.0,0.0,-0.0067,-1.0076,0.0195,0.7416,-0.6692,-0.0246,0.0409
964,0.0,0.0,0.0,0.0,0.0,0.0,-0.0067,-0.9998,0.0175,0.7420,-0.6689,-0.0226,0.0397
965,0.0,0.0,0.0,0.0,0.0,0.0,0.0041,-0.9959,0.0185,0.7425,-0.6684,-0.0209,0.0385
966,0.0,0.0,0.0,0.0,0.0,0.0,0.0080,-0.9949,0.0151,0.7427,-0.6683,-0.0196,0.0371
967,0.0,0.0,0.0,0.0,0.0,0.0,0.0085,-1.0042,0.0132,0.7425,-0.6686,-0.0184,0.0358
968,0.0,0.0,0.0,0.0,0.0,0.0,0.0085,-1.0120,0.0122,0.7421,-0.6692,-0.0173,0.0346
969,0.0,0.0,0.0,0.0,0.0,0.0,0.0090,-1.0130,0.0117,0.7419,-0.6695,-0.0160,0.0336
970,0.0,0.0,0.0,0.0,0.0,0.0,0.0075,-1.0169,0.0137,0.7419,-0.6696,-0.0146,0.0328
971,0.0,0.0,0.0,0.0,0.0,0.0,0.0036,-1.0227,0.0180,0.7421,-0.6693,-0.0130,0.0321
972,0.0,0.0,0.0,0.0,0.0,0.0,0.0012,-1.0256,0.0200,0.7426,-0.6689,-0.0113,0.0315
973,0.0,0.0,0.0,0.0,0.0,0.0,0.0011,-1.0178,0.0185,0.7426,-0.6690,-0.0097,0.0310
974,0.0,0.0,0.0,0.0,0.0,0.0,0.0002,-1.0076,0.0205,0.7426,-0.6690,-0.0081,0.0306
975,0.0,0.0,0.0,0.0,0.0,0.0,0.0006,-0.9939,0.0224,0.7428,-0.6688,-0.0069,0.0302
976,0.0,0.0,0.0,0.0,0.0,0.0,-0.0057,-0.9964,0.0273,0.7432,-0.6684,-0.0058,0.0298
977,0.0,0.0,0.0,0.0,0.0,0.0,-0.0087,-0.9964,0.0293,0.7434,-0.6682,-0.0050,0.0294
978,0.0,0.0,0.0,0.0,0.0,0.0,-0.0057,-0.9988,0.0298,0.7435,-0.6681,-0.0044,0.0292
979,0.0,0.0,0.0,0.0,0.0,0.0,-0.0033,-1.0091,0.0322,0.7436,-0.6680,-0.0041,0.0290
980,0.0,0.0,0.0,0.0,0.0,0.0,-0.0067,-1.0281,0.0386,0.7438,-0.6678,-0.0038,0.0289
981,0.0,0.0,0.0,0.0,0.0,0.0,-0.0047,-1.0286,0.0386,0.7441,-0.6674,-0.0036,0.0289
982,0.0,0.0,0.0,0.0,0.0,0.0,-0.0022,-1.0291,0.0395,0.7448,-0.6667,-0.0033,0.0287
983,0.0,0.0,0.0,0.0,0.0,0.0,0.0002,-1.0388,0.0449,0.7456,-0.6658,-0.0027,0.0287
984,0.0,0.0,0.0,0.0,0.0,0.0,-0.0047,-1.0359,0.0464,0.7461,-0.6652,-0.0019,0.0290
985,0.0,0.0,0.0,0.0,0.0,0.0,-0.0008,-1.0237,0.0474,0.7468,-0.6644,-0.0012,0.0294
986,0.0,0.0,0.0,0.0,0.0,0.0,0.0021,-1.0071,0.0444,0.7477,-0.6633,-0.0001,0.0299
987,0.0,0.0,0.0,0.0,0.0,0.0,-0.0023,-0.9793,0.0371,0.7485,-0.6624,0.0010,0.0302
988,0.0,0.0,0.0,0.0,0.0,0.0,-0.0048,-0.9701,0.0395,0.7490,-0.6619,0.0017,0.0306
989,0.0,0.0,0.0,0.0,0.0,0.0,-0.0111,-0.9671,0.0434,0.7495,-0.6613,0.0019,0.0307
990,0.0,0.0,0.0,0.0,0.0,0.0,-0.0131,-0.9720,0.0444,0.7497,-0.6611,0.0015,0.0308
991,0.0,0.0,0.0,0.0,0.0,0.0,-0.0111,-0.9876,0.0444,0.7496,-0.6612,0.0007,0.0306
992,0.0,0.0,0.0,0.0,0.0,0.0,-0.0082,-0.9954,0.0420,0.7494,-0.6614,-0.0004,0.0304
993,0.0,0.0,0.0,0.0,0.0,0.0,-0.0047,-1.0096,0.0400,0.7492,-0.6617,-0.0014,0.0303
994,0.0,0.0,0.0,0.0,0.0,0.0,0.0017,-1.0130,0.0347,0.7485,-0.6624,-0.0026,0.0301
995,0.0,0.0,0.0,0.0,0.0,0.0,-0.0052,-1.0349,0.0347,0.7479,-0.6632,-0.0035,0.0299
996,0.0,0.0,0.0,0.0,0.0,0.0,-0.0042,-1.0300,0.0312,0.7473,-0.6638,-0.0042,0.0297
997,0.0,0.0,0.0,0.0,0.0,0.0,-0.0033,-1.0139,0.0219,0.7467,-0.6645,-0.0049,0.0296
998,0.0,0.0,0.0,0.0,0.0,0.0,0.0001,-0.9988,0.0166,0.7460,-0.6653,-0.0057,0.0295
999,0.0,0.0,0.0,0.0,0.0,0.0,0.0026,-0.9856,0.0122,0.7449,-0.6665,-0.0066,0.0296
1000,0.0,0.0,0.0,0.0,0.0,0.0,0.0055,-0.9852,0.0102,0.7439,-0.6676,-0.0077,0.0297
1001,0.0,0.0,0.0,0.0,0.0,0.0,0.0026,-0.9842,0.0039,0.7427,-0.6689,-0.0087,0.0298
1002,0.0,0.0,0.0,0.0,0.0,0.0,0.0060,-0.9588,-0.0069,0.7410,-0.6707,-0.0097,0.0299
1003,0.0,0.0,0.0,0.0,0.0,0.0,0.0148,-0.9690,-0.0157,0.7387,-0.6732,-0.0117,0.0301
1004,0.0,0.0,0.0,0.0,0.0,0.0,0.0084,-1.0100,-0.0166,0.7362,-0.6760,-0.0137,0.0302
1005,0.0,0.0,0.0,0.0,0.0,0.0,0.0187,-1.0144,-0.0313,0.7334,-0.6789,-0.0159,0.0301
1006,0.0,0.0,0.0,0.0,0.0,0.0,-0.0067,-1.0592,-0.0377,0.7302,-0.6824,-0.0169,0.0301
1007,0.0,0.0,0.0,0.0,0.0,0.0,-0.0092,-1.0499,-0.0470,0.7271,-0.6856,-0.0177,0.0304
1008,0.0,0.0,0.0,0.0,0.0,0.0,-0.0238,-1.0801,-0.0465,0.7250,-0.6878,-0.0186,0.0314
1009,0.0,0.0,0.0,0.0,0.0,0.0,-0.0366,-1.0884,-0.0392,0.7233,-0.6895,-0.0190,0.0331
1010,0.0,0.0,0.0,0.0,0.0,0.0,0.0069,-0.9982,-0.0513,0.7223,-0.6903,-0.0203,0.0357
1011,0.0,0.0,0.0,0.0,0.0,0.0,-0.0200,-1.0172,-0.0441,0.7216,-0.6909,-0.0206,0.0387
1012,0.0,0.0,0.0,0.0,0.0,0.0,-0.0342,-0.9899,-0.0387,0.7209,-0.6915,-0.0206,0.0414
1013,0.0,0.0,0.0,0.0,0.0,0.0,-0.0225,-0.9967,-0.0490,0.7198,-0.6924,-0.0215,0.0442
1014,0.0,0.0,0.0,0.0,0.0,0.0,-0.0278,-1.0041,-0.0421,0.7195,-0.6925,-0.0220,0.0469
1015,0.0,0.0,0.0,0.0,0.0,0.0,-0.0039,-0.9865,-0.0470,0.7193,-0.6925,-0.0233,0.0490
1016,0.0,0.0,0.0,0.0,0.0,0.0,-0.0019,-1.0216,-0.0479,0.7190,-0.6927,-0.0247,0.0505
1017,0.0,0.0,0.0,0.0,0.0,0.0,-0.0033,-1.0377,-0.0445,0.7191,-0.6925,-0.0255,0.0520
1018,0.0,0.0,0.0,0.0,0.0,0.0,-0.0043,-1.0275,-0.0416,0.7195,-0.6920,-0.0261,0.0532
1019,0.0,0.0,0.0,0.0,0.0,0.0,-0.0087,-1.0319,-0.0343,0.7199,-0.6914,-0.0264,0.0542
1020,0.0,0.0,0.0,0.0,0.0,0.0,-0.0190,-1.0275,-0.0299,0.7207,-0.6905,-0.0261,0.0551
1021,0.0,0.0,0.0,0.0,0.0,0.0,-0.0190,-1.0387,-0.0245,0.7213,-0.6898,-0.0258,0.0561
1022,0.0,0.0,0.0,0.0,0.0,0.0,-0.0121,-1.0222,-0.0230,0.7221,-0.6889,-0.0254,0.0572
1023,0.0,0.0,0.0,0.0,0.0,0.0,-0.0107,-1.0144,-0.0206,0.7229,-0.6880,-0.0249,0.0583
1024,0.0,0.0,0.0,0.0,0.0,0.0,-0.0190,-1.0139,-0.0182,0.7233,-0.6875,-0.0240,0.0595
1025,0.0,0.0,0.0,0.0,0.0,0.0,-0.0190,-1.0070,-0.0157,0.7237,-0.6870,-0.0234,0.0607
1026,0.0,0.0,0.0,0.0,0.0,0.0,-0.0043,-0.9861,-0.0172,0.7243,-0.6864,-0.0230,0.0614
1027,0.0,0.0,0.0,0.0,0.0,0.0,-0.0004,-0.9666,-0.0250,0.7245,-0.6862,-0.0231,0.0613
1028,0.0,0.0,0.0,0.0,0.0,0.0,-0.0155,-1.0256,-0.0142,0.7248,-0.6859,-0.0231,0.0608
1029,0.0,0.0,0.0,0.0,0.0,0.0,-0.0160,-1.0568,-0.0113,0.7251,-0.6856,-0.0229,0.0599
1030,0.0,0.0,0.0,0.0,0.0,0.0,-0.0194,-1.0617,-0.0123,0.7258,-0.6850,-0.0221,0.0587
1031,0.0,0.0,0.0,0.0,0.0,0.0,-0.0209,-1.0275,-0.0206,0.7269,-0.6840,-0.0208,0.0573
1032,0.0,0.0,0.0,0.0,0.0,0.0,-0.0258,-1.0280,-0.0162,0.7282,-0.6828,-0.0193,0.0560
1033,0.0,0.0,0.0,0.0,0.0,0.0,-0.0283,-1.0217,-0.0055,0.7295,-0.6815,-0.0179,0.0549
1034,0.0,0.0,0.0,0.0,0.0,0.0,-0.0268,-1.0066,0.0009,0.7311,-0.6800,-0.0166,0.0537
1035,0.0,0.0,0.0,0.0,0.0,0.0,-0.0239,-0.9924,0.0082,0.7327,-0.6784,-0.0155,0.0524
1036,0.0,0.0,0.0,0.0,0.0,0.0,-0.0248,-1.0007,0.0141,0.7340,-0.6770,-0.0146,0.0511
1037,0.0,0.0,0.0,0.0,0.0,0.0,-0.0307,-1.0041,0.0165,0.7352,-0.6759,-0.0137,0.0498
1038,0.0,0.0,0.0,0.0,0.0,0.0,-0.0268,-0.9964,0.0185,0.7363,-0.6747,-0.0130,0.0485
1039,0.0,0.0,0.0,0.0,0.0,0.0,-0.0243,-0.9993,0.0200,0.7377,-0.6734,-0.0124,0.0472
1040,0.0,0.0,0.0,0.0,0.0,0.0,-0.0180,-1.0042,0.0234,0.7387,-0.6724,-0.0121,0.0460
1041,0.0,0.0,0.0,0.0,0.0,0.0,-0.0141,-0.9934,0.0180,0.7393,-0.6718,-0.0121,0.0448
1042,0.0,0.0,0.0,0.0,0.0,0.0,-0.0155,-1.0022,0.0185,0.7399,-0.6712,-0.0122,0.0437
1043,0.0,0.0,0.0,0.0,0.0,0.0,-0.0111,-1.0076,0.0214,0.7406,-0.6704,-0.0125,0.0427
1044,0.0,0.0,0.0,0.0,0.0,0.0,-0.0043,-0.9988,0.0200,0.7415,-0.6695,-0.0129,0.0418
1045,0.0,0.0,0.0,0.0,0.0,0.0,0.0021,-0.9910,0.0185,0.7421,-0.6689,-0.0137,0.0408
1046,0.0,0.0,0.0,0.0,0.0,0.0,0.0011,-1.0032,0.0234,0.7423,-0.6687,-0.0145,0.0399
1047,0.0,0.0,0.0,0.0,0.0,0.0,0.0016,-1.0125,0.0259,0.7426,-0.6684,-0.0149,0.0391
1048,0.0,0.0,0.0,0.0,0.0,0.0,0.0065,-1.0198,0.0234,0.7426,-0.6684,-0.0153,0.0384
1049,0.0,0.0,0.0,0.0,0.0,0.0,0.0075,-1.0266,0.0225,0.7425,-0.6686,-0.0158,0.0379
1050,0.0,0.0,0.0,0.0,0.0,0.0,0.0075,-1.0227,0.0195,0.7424,-0.6687,-0.0160,0.0374
1051,0.0,0.0,0.0,0.0,0.0,0.0,0.0065,-1.0208,0.0185,0.7424,-0.6688,-0.0161,0.0370
1052,0.0,0.0,0.0,0.0,0.0,0.0,0.0046,-1.0335,0.0215,0.7424,-0.6687,-0.0161,0.0367
1053,0.0,0.0,0.0,0.0,0.0,0.0,-0.0037,-1.0247,0.0175,0.7425,-0.6686,-0.0156,0.0365
1054,0.0,0.0,0.0,0.0,0.0,0.0,-0.0086,-1.0149,0.0185,0.7429,-0.6682,-0.0151,0.0365
1055,0.0,0.0,0.0,0.0,0.0,0.0,-0.0170,-1.0217,0.0234,0.7437,-0.6674,-0.0144,0.0367
1056,0.0,0.0,0.0,0.0,0.0,0.0,-0.0190,-0.9895,0.0170,0.7440,-0.6670,-0.0140,0.0370
1057,0.0,0.0,0.0,0.0,0.0,0.0,-0.0131,-0.9564,0.0092,0.7438,-0.6672,-0.0146,0.0375
1058,0.0,0.0,0.0,0.0,0.0,0.0,-0.0077,-0.9617,0.0068,0.7429,-0.6681,-0.0160,0.0384
1059,0.0,0.0,0.0,0.0,0.0,0.0,-0.0131,-0.9925,0.0117,0.7418,-0.6692,-0.0174,0.0394
1060,0.0,0.0,0.0,0.0,0.0,0.0,0.0025,-0.9588,-0.0025,0.7401,-0.6710,-0.0196,0.0404
1061,0.0,0.0,0.0,0.0,0.0,0.0,0.0109,-1.0115,0.0010,0.7380,-0.6732,-0.0225,0.0416
1062,0.0,0.0,0.0,0.0,0.0,0.0,0.0061,-1.0603,0.0044,0.7358,-0.6754,-0.0250,0.0427
1063,0.0,0.0,0.0,0.0,0.0,0.0,0.0138,-1.0168,-0.0147,0.7341,-0.6770,-0.0274,0.0441
1064,0.0,0.0,0.0,0.0,0.0,0.0,0.0192,-1.0198,-0.0196,0.7326,-0.6784,-0.0294,0.0457
1065,0.0,0.0,0.0,0.0,0.0,0.0,0.0168,-1.0266,-0.0240,0.7309,-0.6802,-0.0308,0.0474
1066,0.0,0.0,0.0,0.0,0.0,0.0,0.0118,-1.0114,-0.0323,0.7289,-0.6821,-0.0316,0.0493
1067,0.0,0.0,0.0,0.0,0.0,0.0,0.0040,-1.0012,-0.0386,0.7269,-0.6840,-0.0323,0.0513
1068,0.0,0.0,0.0,0.0,0.0,0.0,-0.0019,-1.0070,-0.0411,0.7251,-0.6858,-0.0330,0.0535
1069,0.0,0.0,0.0,0.0,0.0,0.0,-0.0038,-1.0182,-0.0406,0.7233,-0.6875,-0.0336,0.0557
1070,0.0,0.0,0.0,0.0,0.0,0.0,-0.0107,-1.0075,-0.0484,0.7212,-0.6895,-0.0339,0.0581
1071,0.0,0.0,0.0,0.0,0.0,0.0,-0.0288,-1.0016,-0.0543,0.7193,-0.6913,-0.0338,0.0606
1072,0.0,0.0,0.0,0.0,0.0,0.0,-0.0225,-0.9899,-0.0651,0.7175,-0.6928,-0.0343,0.0631
1073,0.0,0.0,0.0,0.0,0.0,0.0,-0.0244,-1.0006,-0.0695,0.7158,-0.6943,-0.0353,0.0654
1074,0.0,0.0,0.0,0.0,0.0,0.0,-0.0274,-1.0201,-0.0646,0.7141,-0.6958,-0.0366,0.0676
1075,0.0,0.0,0.0,0.0,0.0,0.0,-0.0210,-1.0021,-0.0675,0.7126,-0.6971,-0.0379,0.0695
1076,0.0,0.0,0.0,0.0,0.0,0.0,-0.0166,-1.0070,-0.0680,0.7114,-0.6981,-0.0392,0.0712
1077,0.0,0.0,0.0,0.0,0.0,0.0,-0.0151,-1.0450,-0.0572,0.7106,-0.6987,-0.0402,0.0726
1078,0.0,0.0,0.0,0.0,0.0,0.0,-0.0190,-1.0660,-0.0519,0.7098,-0.6993,-0.0411,0.0738
1079,0.0,0.0,0.0,0.0,0.0,0.0,-0.0219,-1.0533,-0.0592,0.7091,-0.6999,-0.0415,0.0747
1080,0.0,0.0,0.0,0.0,0.0,0.0,-0.0185,-1.0362,-0.0670,0.7086,-0.7003,-0.0415,0.0755
1081,0.0,0.0,0.0,0.0,0.0,0.0,-0.0166,-1.0377,-0.0690,0.7083,-0.7006,-0.0415,0.0761
1082,0.0,0.0,0.0,0.0,0.0,0.0,-0.0264,-1.0265,-0.0690,0.7078,-0.7011,-0.0414,0.0766
1083,0.0,0.0,0.0,0.0,0.0,0.0,-0.0274,-1.0055,-0.0739,0.7073,-0.7015,-0.0413,0.0770
1084,0.0,0.0,0.0,0.0,0.0,0.0,-0.0391,-1.0084,-0.0724,0.7073,-0.7015,-0.0403,0.0773
1085,0.0,0.0,0.0,0.0,0.0,0.0,-0.0494,-0.9982,-0.0666,0.7075,-0.7014,-0.0384,0.0777
1086,0.0,0.0,0.0,0.0,0.0,0.0,-0.0489,-0.9738,-0.0651,0.7075,-0.7014,-0.0374,0.0782
1087,0.0,0.0,0.0,0.0,0.0,0.0,-0.0479,-0.9933,-0.0558,0.7078,-0.7011,-0.0365,0.0783
1088,0.0,0.0,0.0,0.0,0.0,0.0,-0.0450,-0.9816,-0.0558,0.7084,-0.7006,-0.0354,0.0778
1089,0.0,0.0,0.0,0.0,0.0,0.0,-0.0431,-0.9738,-0.0627,0.7084,-0.7008,-0.0347,0.0767
1090,0.0,0.0,0.0,0.0,0.0,0.0,-0.0503,-1.0382,-0.0524,0.7083,-0.7010,-0.0343,0.0758
1091,0.0,0.0,0.0,0.0,0.0,0.0,-0.0478,-1.0806,-0.0421,0.7088,-0.7007,-0.0337,0.0750
1092,0.0,0.0,0.0,0.0,0.0,0.0,-0.0405,-1.0679,-0.0446,0.7101,-0.6994,-0.0326,0.0741
1093,0.0,0.0,0.0,0.0,0.0,0.0,-0.0356,-1.0304,-0.0485,0.7118,-0.6979,-0.0313,0.0728
1094,0.0,0.0,0.0,0.0,0.0,0.0,-0.0244,-1.0206,-0.0436,0.7136,-0.6962,-0.0305,0.0712
1095,0.0,0.0,0.0,0.0,0.0,0.0,-0.0293,-1.0104,-0.0392,0.7158,-0.6942,-0.0295,0.0695
1096,0.0,0.0,0.0,0.0,0.0,0.0,-0.0254,-1.0016,-0.0363,0.7181,-0.6920,-0.0289,0.0679
1097,0.0,0.0,0.0,0.0,0.0,0.0,-0.0229,-0.9899,-0.0309,0.7207,-0.6896,-0.0281,0.0659
1098,0.0,0.0,0.0,0.0,0.0,0.0,-0.0283,-1.0124,-0.0221,0.7228,-0.6876,-0.0274,0.0635
1099,0.0,0.0,0.0,0.0,0.0,0.0,-0.0214,-1.0407,-0.0133,0.7244,-0.6861,-0.0276,0.0614
1100,0.0,0.0,0.0,0.0,0.0,0.0,-0.0092,-1.0392,-0.0123,0.7258,-0.6847,-0.0278,0.0591
1101,0.0,0.0,0.0,0.0,0.0,0.0,0.0031,-1.0090,-0.0171,0.7269,-0.6838,-0.0279,0.0570
1102,0.0,0.0,0.0,0.0,0.0,0.0,0.0158,-1.0085,-0.0157,0.7277,-0.6832,-0.0283,0.0546
1103,0.0,0.0,0.0,0.0,0.0,0.0,0.0060,-0.9949,-0.0206,0.7279,-0.6831,-0.0285,0.0523
1104,0.0,0.0,0.0,0.0,0.0,0.0,0.0167,-1.0022,-0.0230,0.7275,-0.6836,-0.0298,0.0508
1105,0.0,0.0,0.0,0.0,0.0,0.0,0.0265,-1.0095,-0.0205,0.7276,-0.6835,-0.0310,0.0495
1106,0.0,0.0,0.0,0.0,0.0,0.0,0.0339,-1.0017,-0.0176,0.7273,-0.6839,-0.0324,0.0480
1107,0.0,0.0,0.0,0.0,0.0,0.0,0.0315,-1.0212,-0.0176,0.7263,-0.6850,-0.0337,0.0464
1108,0.0,0.0,0.0,0.0,0.0,0.0,0.0495,-0.9929,-0.0332,0.7258,-0.6855,-0.0346,0.0448
1109,0.0,0.0,0.0,0.0,0.0,0.0,0.0549,-0.9563,-0.0430,0.7264,-0.6850,-0.0339,0.0429
1110,0.0,0.0,0.0,0.0,0.0,0.0,0.0383,-0.9958,-0.0371,0.7278,-0.6838,-0.0320,0.0407
1111,0.0,0.0,0.0,0.0,0.0,0.0,0.0324,-1.0154,-0.0308,0.7288,-0.6830,-0.0303,0.0382
1112,0.0,0.0,0.0,0.0,0.0,0.0,0.0280,-1.0266,-0.0264,0.7296,-0.6823,-0.0289,0.0358
1113,0.0,0.0,0.0,0.0,0.0,0.0,0.0212,-1.0280,-0.0220,0.7307,-0.6813,-0.0274,0.0335
1114,0.0,0.0,0.0,0.0,0.0,0.0,0.0217,-1.0188,-0.0166,0.7319,-0.6802,-0.0261,0.0313
1115,0.0,0.0,0.0,0.0,0.0,0.0,0.0231,-1.0003,-0.0137,0.7329,-0.6793,-0.0251,0.0291
1116,0.0,0.0,0.0,0.0,0.0,0.0,0.0221,-0.9905,-0.0078,0.7336,-0.6786,-0.0243,0.0270
1117,0.0,0.0,0.0,0.0,0.0,0.0,0.0256,-0.9988,0.0010,0.7344,-0.6778,-0.0237,0.0249
1118,0.0,0.0,0.0,0.0,0.0,0.0,0.0232,-1.0193,0.0103,0.7347,-0.6776,-0.0236,0.0231
1119,0.0,0.0,0.0,0.0,0.0,0.0,0.0202,-1.0261,0.0171,0.7350,-0.6774,-0.0232,0.0217
1120,0.0,0.0,0.0,0.0,0.0,0.0,0.0178,-1.0242,0.0210,0.7355,-0.6769,-0.0226,0.0205
1121,0.0,0.0,0.0,0.0,0.0,0.0,0.0193,-1.0437,0.0293,0.7361,-0.6762,-0.0216,0.0197
1122,0.0,0.0,0.0,0.0,0.0,0.0,0.0109,-1.0188,0.0259,0.7371,-0.6752,-0.0201,0.0194
1123,0.0,0.0,0.0,0.0,0.0,0.0,0.0158,-0.9910,0.0234,0.7381,-0.6741,-0.0187,0.0192
1124,0.0,0.0,0.0,0.0,0.0,0.0,0.0124,-0.9993,0.0269,0.7389,-0.6733,-0.0174,0.0193
1125,0.0,0.0,0.0,0.0,0.0,0.0,0.0119,-0.9905,0.0249,0.7392,-0.6730,-0.0162,0.0197
1126,0.0,0.0,0.0,0.0,0.0,0.0,0.0168,-0.9769,0.0259,0.7394,-0.6728,-0.0153,0.0201
1127,0.0,0.0,0.0,0.0,0.0,0.0,0.0104,-0.9627,0.0200,0.7397,-0.6725,-0.0143,0.0207
1128,0.0,0.0,0.0,0.0,0.0,0.0,0.0060,-0.9739,0.0166,0.7397,-0.6725,-0.0134,0.0214
1129,0.0,0.0,0.0,0.0,0.0,0.0,0.0045,-0.9798,0.0117,0.7391,-0.6731,-0.0127,0.0220
1130,0.0,0.0,0.0,0.0,0.0,0.0,0.0021,-0.9866,0.0088,0.7385,-0.6738,-0.0123,0.0226
1131,0.0,0.0,0.0,0.0,0.0,0.0,0.0006,-0.9998,0.0058,0.7376,-0.6747,-0.0120,0.0233
1132,0.0,0.0,0.0,0.0,0.0,0.0,0.0006,-1.0149,0.0019,0.7365,-0.6759,-0.0121,0.0241
1133,0.0,0.0,0.0,0.0,0.0,0.0,0.0001,-1.0237,-0.0044,0.7352,-0.6773,-0.0125,0.0246
1134,0.0,0.0,0.0,0.0,0.0,0.0,0.0031,-1.0212,-0.0113,0.7340,-0.6786,-0.0130,0.0252
1135,0.0,0.0,0.0,0.0,0.0,0.0,0.0060,-1.0149,-0.0186,0.7329,-0.6797,-0.0136,0.0257
1136,0.0,0.0,0.0,0.0,0.0,0.0,0.0060,-1.0168,-0.0215,0.7319,-0.6807,-0.0142,0.0260
1137,0.0,0.0,0.0,0.0,0.0,0.0,0.0074,-1.0061,-0.0269,0.7309,-0.6818,-0.0150,0.0261
1138,0.0,0.0,0.0,0.0,0.0,0.0,0.0074,-1.0105,-0.0308,0.7296,-0.6832,-0.0160,0.0262
1139,0.0,0.0,0.0,0.0,0.0,0.0,0.0060,-1.0109,-0.0372,0.7281,-0.6848,-0.0169,0.0262
1140,0.0,0.0,0.0,0.0,0.0,0.0,0.0050,-1.0158,-0.0416,0.7267,-0.6863,-0.0179,0.0263
1141,0.0,0.0,0.0,0.0,0.0,0.0,0.0099,-1.0202,-0.0455,0.7253,-0.6877,-0.0190,0.0262
1142,0.0,0.0,0.0,0.0,0.0,0.0,0.0162,-1.0207,-0.0508,0.7241,-0.6889,-0.0201,0.0260
1143,0.0,0.0,0.0,0.0,0.0,0.0,0.0148,-1.0124,-0.0601,0.7226,-0.6904,-0.0211,0.0260
1144,0.0,0.0,0.0,0.0,0.0,0.0,0.0177,-1.0080,-0.0670,0.7206,-0.6925,-0.0222,0.0261
1145,0.0,0.0,0.0,0.0,0.0,0.0,0.0187,-1.0236,-0.0650,0.7187,-0.6944,-0.0233,0.0260
1146,0.0,0.0,0.0,0.0,0.0,0.0,-0.0078,-1.0040,-0.0758,0.7161,-0.6971,-0.0236,0.0263
1147,0.0,0.0,0.0,0.0,0.0,0.0,-0.0112,-1.0138,-0.0787,0.7126,-0.7007,-0.0234,0.0272
1148,0.0,0.0,0.0,0.0,0.0,0.0,0.0319,-1.0387,-0.0767,0.7103,-0.7030,-0.0235,0.0280
1149,0.0,0.0,0.0,0.0,0.0,0.0,0.0481,-1.0597,-0.0728,0.7097,-0.7035,-0.0237,0.0283
1150,0.0,0.0,0.0,0.0,0.0,0.0,0.0334,-1.0426,-0.0884,0.7092,-0.7040,-0.0238,0.0287
1151,0.0,0.0,0.0,0.0,0.0,0.0,0.0412,-1.0577,-0.0831,0.7091,-0.7041,-0.0245,0.0284
1152,0.0,0.0,0.0,0.0,0.0,0.0,0.0162,-1.0221,-0.0904,0.7093,-0.7039,-0.0240,0.0283
1153,0.0,0.0,0.0,0.0,0.0,0.0,0.0275,-1.0211,-0.0904,0.7096,-0.7036,-0.0241,0.0284
1154,0.0,0.0,0.0,0.0,0.0,0.0,0.0118,-1.0074,-0.0880,0.7098,-0.7034,-0.0242,0.0287
1155,0.0,0.0,0.0,0.0,0.0,0.0,0.0275,-1.0231,-0.0836,0.7100,-0.7032,-0.0255,0.0288
1156,0.0,0.0,0.0,0.0,0.0,0.0,0.0172,-1.0201,-0.0811,0.7107,-0.7024,-0.0265,0.0287
1157,0.0,0.0,0.0,0.0,0.0,0.0,0.0089,-1.0153,-0.0821,0.7118,-0.7013,-0.0269,0.0292
1158,0.0,0.0,0.0,0.0,0.0,0.0,0.0162,-1.0182,-0.0787,0.7130,-0.7000,-0.0274,0.0300
1159,0.0,0.0,0.0,0.0,0.0,0.0,0.0201,-1.0148,-0.0743,0.7141,-0.6988,-0.0279,0.0309
1160,0.0,0.0,0.0,0.0,0.0,0.0,0.0270,-1.0080,-0.0728,0.7150,-0.6979,-0.0284,0.0318
1161,0.0,0.0,0.0,0.0,0.0,0.0,0.0299,-1.0051,-0.0694,0.7157,-0.6971,-0.0290,0.0329
1162,0.0,0.0,0.0,0.0,0.0,0.0,0.0285,-1.0095,-0.0645,0.7165,-0.6962,-0.0294,0.0339
1163,0.0,0.0,0.0,0.0,0.0,0.0,0.0265,-1.0129,-0.0601,0.7171,-0.6955,-0.0298,0.0349
1164,0.0,0.0,0.0,0.0,0.0,0.0,0.0265,-1.0085,-0.0567,0.7175,-0.6949,-0.0303,0.0357
1165,0.0,0.0,0.0,0.0,0.0,0.0,0.0221,-1.0095,-0.0543,0.7181,-0.6943,-0.0306,0.0365
1166,0.0,0.0,0.0,0.0,0.0,0.0,0.0152,-1.0046,-0.0538,0.7183,-0.6940,-0.0307,0.0373
1167,0.0,0.0,0.0,0.0,0.0,0.0,0.0108,-1.0012,-0.0504,0.7185,-0.6938,-0.0305,0.0383
1168,0.0,0.0,0.0,0.0,0.0,0.0,0.0309,-1.0056,-0.0474,0.7185,-0.6938,-0.0310,0.0393
1169,0.0,0.0,0.0,0.0,0.0,0.0,0.0241,-1.0231,-0.0401,0.7188,-0.6934,-0.0315,0.0401
1170,0.0,0.0,0.0,0.0,0.0,0.0,0.0304,-1.0075,-0.0459,0.7193,-0.6927,-0.0324,0.0404
1171,0.0,0.0,0.0,0.0,0.0,0.0,0.0128,-1.0109,-0.0430,0.7198,-0.6922,-0.0332,0.0408
1172,0.0,0.0,0.0,0.0,0.0,0.0,0.0060,-1.0138,-0.0440,0.7203,-0.6916,-0.0336,0.0414
1173,0.0,0.0,0.0,0.0,0.0,0.0,0.0089,-1.0187,-0.0440,0.7210,-0.6908,-0.0338,0.0422
1174,0.0,0.0,0.0,0.0,0.0,0.0,0.0084,-1.0207,-0.0450,0.7216,-0.6901,-0.0340,0.0431
1175,0.0,0.0,0.0,0.0,0.0,0.0,0.0123,-1.0182,-0.0445,0.7221,-0.6896,-0.0343,0.0440
1176,0.0,0.0,0.0,0.0,0.0,0.0,0.0128,-1.0158,-0.0440,0.7227,-0.6888,-0.0348,0.0451
1177,0.0,0.0,0.0,0.0,0.0,0.0,0.0079,-1.0139,-0.0430,0.7233,-0.6881,-0.0350,0.0464
1178,0.0,0.0,0.0,0.0,0.0,0.0,0.0079,-1.0158,-0.0406,0.7237,-0.6876,-0.0355,0.0476
1179,0.0,0.0,0.0,0.0,0.0,0.0,0.0079,-1.0153,-0.0372,0.7244,-0.6867,-0.0360,0.0488
1180,0.0,0.0,0.0,0.0,0.0,0.0,0.0069,-1.0075,-0.0357,0.7252,-0.6858,-0.0365,0.0500
1181,0.0,0.0,0.0,0.0,0.0,0.0,0.0060,-1.0046,-0.0338,0.7256,-0.6852,-0.0375,0.0513
1182,0.0,0.0,0.0,0.0,0.0,0.0,0.0069,-1.0031,-0.0303,0.7263,-0.6843,-0.0385,0.0527
1183,0.0,0.0,0.0,0.0,0.0,0.0,0.0084,-0.9997,-0.0269,0.7271,-0.6833,-0.0396,0.0541
1184,0.0,0.0,0.0,0.0,0.0,0.0,0.0079,-1.0002,-0.0250,0.7276,-0.6826,-0.0410,0.0555
1185,0.0,0.0,0.0,0.0,0.0,0.0,0.0079,-1.0002,-0.0245,0.7281,-0.6818,-0.0426,0.0569
1186,0.0,0.0,0.0,0.0,0.0,0.0,0.0089,-0.9944,-0.0230,0.7287,-0.6809,-0.0440,0.0583
1187,0.0,0.0,0.0,0.0,0.0,0.0,0.0177,-0.9983,-0.0215,0.7289,-0.6804,-0.0459,0.0598
1188,0.0,0.0,0.0,0.0,0.0,0.0,0.0158,-1.0105,-0.0147,0.7293,-0.6798,-0.0482,0.0614
1189,0.0,0.0,0.0,0.0,0.0,0.0,0.0177,-1.0032,-0.0171,0.7296,-0.6791,-0.0505,0.0629
1190,0.0,0.0,0.0,0.0,0.0,0.0,0.0227,-1.0183,-0.0098,0.7299,-0.6785,-0.0528,0.0644
1191,0.0,0.0,0.0,0.0,0.0,0.0,0.0241,-1.0247,-0.0078,0.7303,-0.6778,-0.0549,0.0660
1192,0.0,0.0,0.0,0.0,0.0,0.0,0.0280,-1.0188,-0.0098,0.7306,-0.6771,-0.0568,0.0677
1193,0.0,0.0,0.0,0.0,0.0,0.0,0.0295,-1.0090,-0.0156,0.7307,-0.6766,-0.0587,0.0693
1194,0.0,0.0,0.0,0.0,0.0,0.0,0.0295,-0.9983,-0.0195,0.7305,-0.6765,-0.0605,0.0709
1195,0.0,0.0,0.0,0.0,0.0,0.0,0.0290,-0.9934,-0.0235,0.7300,-0.6767,-0.0622,0.0725
1196,0.0,0.0,0.0,0.0,0.0,0.0,0.0260,-0.9949,-0.0293,0.7294,-0.6770,-0.0637,0.0739
1197,0.0,0.0,0.0,0.0,0.0,0.0,0.0236,-0.9968,-0.0327,0.7285,-0.6777,-0.0653,0.0754
1198,0.0,0.0,0.0,0.0,0.0,0.0,0.0206,-0.9978,-0.0391,0.7272,-0.6788,-0.0670,0.0767
1199,0.0,0.0,0.0,0.0,0.0,0.0,0.0211,-1.0017,-0.0445,0.7259,-0.6800,-0.0686,0.0778
1200,0.0,0.0,0.0,0.0,0.0,0.0,0.0197,-1.0075,-0.0474,0.7245,-0.6812,-0.0704,0.0788
1201,0.0,0.0,0.0,0.0,0.0,0.0,0.0182,-1.0158,-0.0469,0.7232,-0.6822,-0.0721,0.0797
1202,0.0,0.0,0.0,0.0,0.0,0.0,0.0221,-1.0187,-0.0479,0.7220,-0.6832,-0.0739,0.0807
1203,0.0,0.0,0.0,0.0,0.0,0.0,0.0246,-1.0246,-0.0479,0.7210,-0.6839,-0.0757,0.0815
1204,0.0,0.0,0.0,0.0,0.0,0.0,0.0246,-1.0207,-0.0513,0.7202,-0.6845,-0.0773,0.0823
1205,0.0,0.0,0.0,0.0,0.0,0.0,0.0241,-1.0256,-0.0523,0.7195,-0.6850,-0.0786,0.0830
1206,0.0,0.0,0.0,0.0,0.0,0.0,0.0206,-1.0256,-0.0543,0.7192,-0.6852,-0.0795,0.0838
1207,0.0,0.0,0.0,0.0,0.0,0.0,0.0221,-1.0192,-0.0567,0.7189,-0.6852,-0.0804,0.0847
1208,0.0,0.0,0.0,0.0,0.0,0.0,0.0255,-1.0099,-0.0586,0.7187,-0.6852,-0.0813,0.0856
1209,0.0,0.0,0.0,0.0,0.0,0.0,0.0289,-1.0007,-0.0591,0.7182,-0.6855,-0.0826,0.0863
1210,0.0,0.0,0.0,0.0,0.0,0.0,0.0309,-1.0007,-0.0577,0.7176,-0.6859,-0.0840,0.0869
1211,0.0,0.0,0.0,0.0,0.0,0.0,0.0304,-1.0090,-0.0572,0.7169,-0.6864,-0.0853,0.0874
1212,0.0,0.0,0.0,0.0,0.0,0.0,0.0309,-1.0168,-0.0581,0.7163,-0.6868,-0.0865,0.0878
1213,0.0,0.0,0.0,0.0,0.0,0.0,0.0304,-1.0217,-0.0601,0.7158,-0.6872,-0.0875,0.0881
1214,0.0,0.0,0.0,0.0,0.0,0.0,0.0334,-1.0182,-0.0606,0.7152,-0.6877,-0.0884,0.0883
1215,0.0,0.0,0.0,0.0,0.0,0.0,0.0339,-1.0212,-0.0591,0.7147,-0.6881,-0.0892,0.0886
1216,0.0,0.0,0.0,0.0,0.0,0.0,0.0344,-1.0285,-0.0581,0.7145,-0.6882,-0.0898,0.0888
1217,0.0,0.0,0.0,0.0,0.0,0.0,0.0334,-1.0334,-0.0581,0.7145,-0.6881,-0.0900,0.0889
1218,0.0,0.0,0.0,0.0,0.0,0.0,0.0329,-1.0348,-0.0557,0.7146,-0.6880,-0.0902,0.0888
1219,0.0,0.0,0.0,0.0,0.0,0.0,0.0329,-1.0304,-0.0542,0.7149,-0.6877,-0.0901,0.0887
1220,0.0,0.0,0.0,0.0,0.0,0.0,0.0339,-1.0197,-0.0537,0.7156,-0.6870,-0.0898,0.0887
1221,0.0,0.0,0.0,0.0,0.0,0.0,0.0339,-1.0109,-0.0484,0.7164,-0.6862,-0.0896,0.0887
1222,0.0,0.0,0.0,0.0,0.0,0.0,0.0299,-1.0036,-0.0489,0.7169,-0.6857,-0.0892,0.0887
1223,0.0,0.0,0.0,0.0,0.0,0.0,0.0285,-0.9992,-0.0484,0.7174,-0.6853,-0.0886,0.0888
1224,0.0,0.0,0.0,0.0,0.0,0.0,0.0245,-0.9963,-0.0474,0.7177,-0.6851,-0.0880,0.0889
1225,0.0,0.0,0.0,0.0,0.0,0.0,0.0226,-0.9948,-0.0489,0.7174,-0.6854,-0.0878,0.0889
1226,0.0,0.0,0.0,0.0,0.0,0.0,0.0182,-0.9934,-0.0499,0.7170,-0.6858,-0.0875,0.0890
1227,0.0,0.0,0.0,0.0,0.0,0.0,0.0182,-0.9929,-0.0518,0.7168,-0.6860,-0.0872,0.0891
1228,0.0,0.0,0.0,0.0,0.0,0.0,0.0196,-0.9992,-0.0538,0.7163,-0.6866,-0.0872,0.0892
1229,0.0,0.0,0.0,0.0,0.0,0.0,0.0152,-1.0065,-0.0557,0.7155,-0.6874,-0.0873,0.0892
1230,0.0,0.0,0.0,0.0,0.0,0.0,0.0162,-1.0129,-0.0577,0.7149,-0.6880,-0.0874,0.0892
1231,0.0,0.0,0.0,0.0,0.0,0.0,0.0201,-1.0163,-0.0582,0.7146,-0.6883,-0.0875,0.0893
1232,0.0,0.0,0.0,0.0,0.0,0.0,0.0206,-1.0241,-0.0572,0.7143,-0.6885,-0.0874,0.0896
