,Position_X,Position_Y,Position_Z,Velocity_X,Velocity_Y,Velocity_Z,Acceleration_X,Acceleration_Y,Acceleration_Z,Quaterion_0,Quaterion_1,Quaterion_2,Quaterion_3
207,0.0,0.0,0.0,0.0,0.0,0.0,0.1062,-1.0038,0.0239,0.7383,-0.6584,0.0607,-0.1328
208,0.0,0.0,0.0,0.0,0.0,0.0,0.1082,-1.0020,0.0259,0.7385,-0.6582,0.0610,-0.1330
209,0.0,0.0,0.0,0.0,0.0,0.0,0.1219,-0.9773,0.0151,0.7383,-0.6584,0.0604,-0.1332
210,0.0,0.0,0.0,0.0,0.0,0.0,0.1296,-0.9984,0.0179,0.7387,-0.6578,0.0602,-0.1341
211,0.0,0.0,0.0,0.0,0.0,0.0,0.1213,-0.9950,0.0204,0.7392,-0.6570,0.0603,-0.1352
212,0.0,0.0,0.0,0.0,0.0,0.0,0.1169,-1.0011,0.0275,0.7390,-0.6572,0.0593,-0.1357
213,0.0,0.0,0.0,0.0,0.0,0.0,0.1160,-0.9984,0.0339,0.7385,-0.6579,0.0577,-0.1357
214,0.0,0.0,0.0,0.0,0.0,0.0,0.1068,-0.9980,0.0387,0.7387,-0.6578,0.0572,-0.1358
215,0.0,0.0,0.0,0.0,0.0,0.0,0.1077,-1.0090,0.0451,0.7395,-0.6567,0.0577,-0.1359
216,0.0,0.0,0.0,0.0,0.0,0.0,0.1126,-1.0068,0.0506,0.7406,-0.6556,0.0581,-0.1358
217,0.0,0.0,0.0,0.0,0.0,0.0,0.1205,-0.9996,0.0518,0.7414,-0.6547,0.0580,-0.1355
218,0.0,0.0,0.0,0.0,0.0,0.0,0.1240,-0.9785,0.0476,0.7418,-0.6544,0.0574,-0.1350
219,0.0,0.0,0.0,0.0,0.0,0.0,0.1245,-0.9662,0.0456,0.7421,-0.6541,0.0565,-0.1349
220,0.0,0.0,0.0,0.0,0.0,0.0,0.1304,-0.9746,0.0483,0.7425,-0.6537,0.0557,-0.1352
221,0.0,0.0,0.0,0.0,0.0,0.0,0.1313,-0.9860,0.0518,0.7428,-0.6533,0.0549,-0.1356
222,0.0,0.0,0.0,0.0,0.0,0.0,0.1298,-0.9957,0.0505,0.7432,-0.6527,0.0547,-0.1362
223,0.0,0.0,0.0,0.0,0.0,0.0,0.1273,-0.9980,0.0460,0.7436,-0.6522,0.0549,-0.1366
224,0.0,0.0,0.0,0.0,0.0,0.0,0.1233,-1.0056,0.0419,0.7435,-0.6522,0.0549,-0.1370
225,0.0,0.0,0.0,0.0,0.0,0.0,0.1164,-1.0144,0.0440,0.7435,-0.6522,0.0554,-0.1371
226,0.0,0.0,0.0,0.0,0.0,0.0,0.1086,-1.0192,0.0453,0.7436,-0.6520,0.0564,-0.1369
227,0.0,0.0,0.0,0.0,0.0,0.0,0.1038,-1.0123,0.0440,0.7435,-0.6521,0.0570,-0.1365
228,0.0,0.0,0.0,0.0,0.0,0.0,0.1028,-1.0045,0.0443,0.7438,-0.6519,0.0578,-0.1361
229,0.0,0.0,0.0,0.0,0.0,0.0,0.1039,-0.9962,0.0436,0.7439,-0.6517,0.0584,-0.1357
230,0.0,0.0,0.0,0.0,0.0,0.0,0.1063,-0.9924,0.0461,0.7439,-0.6518,0.0585,-0.1354
231,0.0,0.0,0.0,0.0,0.0,0.0,0.1127,-0.9906,0.0496,0.7440,-0.6517,0.0585,-0.1353
232,0.0,0.0,0.0,0.0,0.0,0.0,0.1220,-0.9898,0.0507,0.7442,-0.6515,0.0583,-0.1353
233,0.0,0.0,0.0,0.0,0.0,0.0,0.1288,-0.9849,0.0503,0.7442,-0.6514,0.0579,-0.1357
234,0.0,0.0,0.0,0.0,0.0,0.0,0.1308,-0.9826,0.0519,0.7441,-0.6515,0.0573,-0.1364
235,0.0,0.0,0.0,0.0,0.0,0.0,0.1303,-0.9825,0.0504,0.7444,-0.6508,0.0575,-0.1378
236,0.0,0.0,0.0,0.0,0.0,0.0,0.1293,-0.9819,0.0480,0.7448,-0.6500,0.0581,-0.1395
237,0.0,0.0,0.0,0.0,0.0,0.0,0.1274,-0.9809,0.0456,0.7445,-0.6499,0.0583,-0.1410
238,0.0,0.0,0.0,0.0,0.0,0.0,0.1264,-0.9857,0.0455,0.7446,-0.6494,0.0591,-0.1428
239,0.0,0.0,0.0,0.0,0.0,0.0,0.1258,-1.0039,0.0478,0.7447,-0.6487,0.0600,-0.1448
240,0.0,0.0,0.0,0.0,0.0,0.0,0.1228,-1.0140,0.0455,0.7445,-0.6487,0.0607,-0.1460
241,0.0,0.0,0.0,0.0,0.0,0.0,0.1199,-1.0089,0.0398,0.7439,-0.6491,0.0611,-0.1468
242,0.0,0.0,0.0,0.0,0.0,0.0,0.1194,-1.0024,0.0357,0.7434,-0.6494,0.0616,-0.1475
243,0.0,0.0,0.0,0.0,0.0,0.0,0.1155,-1.0034,0.0361,0.7436,-0.6490,0.0628,-0.1481
244,0.0,0.0,0.0,0.0,0.0,0.0,0.1145,-1.0073,0.0370,0.7441,-0.6481,0.0643,-0.1487
245,0.0,0.0,0.0,0.0,0.0,0.0,0.1145,-1.0053,0.0356,0.7445,-0.6475,0.0655,-0.1490
246,0.0,0.0,0.0,0.0,0.0,0.0,0.1141,-0.9980,0.0358,0.7445,-0.6475,0.0661,-0.1488
247,0.0,0.0,0.0,0.0,0.0,0.0,0.1317,-0.9802,0.0262,0.7442,-0.6480,0.0655,-0.1482
248,0.0,0.0,0.0,0.0,0.0,0.0,0.1410,-0.9676,0.0267,0.7441,-0.6482,0.0646,-0.1482
249,0.0,0.0,0.0,0.0,0.0,0.0,0.1458,-0.9870,0.0348,0.7440,-0.6485,0.0630,-0.1480
250,0.0,0.0,0.0,0.0,0.0,0.0,0.1346,-0.9881,0.0425,0.7440,-0.6487,0.0617,-0.1477
251,0.0,0.0,0.0,0.0,0.0,0.0,0.1356,-1.0035,0.0483,0.7441,-0.6487,0.0607,-0.1474
252,0.0,0.0,0.0,0.0,0.0,0.0,0.1263,-0.9995,0.0479,0.7438,-0.6493,0.0597,-0.1469
253,0.0,0.0,0.0,0.0,0.0,0.0,0.1263,-1.0073,0.0496,0.7440,-0.6493,0.0596,-0.1463
254,0.0,0.0,0.0,0.0,0.0,0.0,0.1253,-1.0015,0.0508,0.7441,-0.6493,0.0594,-0.1458
255,0.0,0.0,0.0,0.0,0.0,0.0,0.1268,-0.9947,0.0510,0.7443,-0.6491,0.0592,-0.1455
256,0.0,0.0,0.0,0.0,0.0,0.0,0.1303,-0.9903,0.0497,0.7444,-0.6491,0.0590,-0.1452
257,0.0,0.0,0.0,0.0,0.0,0.0,0.1298,-0.9902,0.0482,0.7443,-0.6493,0.0585,-0.1449
258,0.0,0.0,0.0,0.0,0.0,0.0,0.1288,-0.9906,0.0443,0.7444,-0.6492,0.0586,-0.1450
259,0.0,0.0,0.0,0.0,0.0,0.0,0.1234,-0.9889,0.0395,0.7445,-0.6489,0.0590,-0.1453
260,0.0,0.0,0.0,0.0,0.0,0.0,0.1224,-0.9939,0.0418,0.7445,-0.6488,0.0591,-0.1457
261,0.0,0.0,0.0,0.0,0.0,0.0,0.1307,-0.9984,0.0446,0.7446,-0.6486,0.0593,-0.1462
262,0.0,0.0,0.0,0.0,0.0,0.0,0.1185,-1.0046,0.0443,0.7446,-0.6484,0.0598,-0.1466
263,0.0,0.0,0.0,0.0,0.0,0.0,0.1140,-1.0227,0.0457,0.7449,-0.6481,0.0608,-0.1466
264,0.0,0.0,0.0,0.0,0.0,0.0,0.1184,-1.0095,0.0432,0.7453,-0.6474,0.0619,-0.1464
265,0.0,0.0,0.0,0.0,0.0,0.0,0.1150,-1.0074,0.0408,0.7456,-0.6472,0.0629,-0.1460
266,0.0,0.0,0.0,0.0,0.0,0.0,0.1126,-1.0035,0.0419,0.7456,-0.6473,0.0634,-0.1453
267,0.0,0.0,0.0,0.0,0.0,0.0,0.1116,-1.0021,0.0434,0.7472,-0.6455,0.0643,-0.1445
268,0.0,0.0,0.0,0.0,0.0,0.0,0.1102,-1.0017,0.0444,0.7475,-0.6451,0.0651,-0.1440
269,0.0,0.0,0.0,0.0,0.0,0.0,0.1112,-0.9978,0.0450,0.7475,-0.6453,0.0653,-0.1434
270,0.0,0.0,0.0,0.0,0.0,0.0,0.1132,-0.9919,0.0447,0.7479,-0.6449,0.0658,-0.1429
271,0.0,0.0,0.0,0.0,0.0,0.0,0.1137,-0.9880,0.0449,0.7480,-0.6449,0.0657,-0.1423
272,0.0,0.0,0.0,0.0,0.0,0.0,0.1151,-0.9876,0.0449,0.7482,-0.6449,0.0655,-0.1418
273,0.0,0.0,0.0,0.0,0.0,0.0,0.1151,-0.9905,0.0457,0.7482,-0.6450,0.0651,-0.1414
274,0.0,0.0,0.0,0.0,0.0,0.0,0.1161,-0.9955,0.0475,0.7484,-0.6449,0.0649,-0.1410
275,0.0,0.0,0.0,0.0,0.0,0.0,0.1166,-0.9930,0.0452,0.7486,-0.6446,0.0649,-0.1408
276,0.0,0.0,0.0,0.0,0.0,0.0,0.1180,-0.9925,0.0452,0.7484,-0.6450,0.0643,-0.1402
277,0.0,0.0,0.0,0.0,0.0,0.0,0.1185,-0.9910,0.0457,0.7487,-0.6448,0.0642,-0.1401
278,0.0,0.0,0.0,0.0,0.0,0.0,0.1181,-0.9930,0.0467,0.7488,-0.6447,0.0640,-0.1400
279,0.0,0.0,0.0,0.0,0.0,0.0,0.1180,-0.9970,0.0480,0.7486,-0.6450,0.0635,-0.1399
280,0.0,0.0,0.0,0.0,0.0,0.0,0.1156,-1.0014,0.0488,0.7486,-0.6450,0.0632,-0.1399
281,0.0,0.0,0.0,0.0,0.0,0.0,0.1122,-1.0024,0.0502,0.7484,-0.6454,0.0629,-0.1396
282,0.0,0.0,0.0,0.0,0.0,0.0,0.1136,-0.9924,0.0428,0.7484,-0.6454,0.0630,-0.1393
283,0.0,0.0,0.0,0.0,0.0,0.0,0.1455,-0.9691,0.0393,0.7484,-0.6455,0.0619,-0.1396
284,0.0,0.0,0.0,0.0,0.0,0.0,0.1473,-0.9904,0.0493,0.7482,-0.6457,0.0602,-0.1403
285,0.0,0.0,0.0,0.0,0.0,0.0,0.1366,-0.9944,0.0535,0.7477,-0.6462,0.0587,-0.1410
286,0.0,0.0,0.0,0.0,0.0,0.0,0.1288,-0.9998,0.0572,0.7478,-0.6460,0.0583,-0.1419
287,0.0,0.0,0.0,0.0,0.0,0.0,0.1156,-0.9953,0.0577,0.7481,-0.6454,0.0590,-0.1426
288,0.0,0.0,0.0,0.0,0.0,0.0,0.1073,-1.0016,0.0580,0.7480,-0.6454,0.0595,-0.1428
289,0.0,0.0,0.0,0.0,0.0,0.0,0.1049,-1.0026,0.0594,0.7478,-0.6456,0.0597,-0.1427
290,0.0,0.0,0.0,0.0,0.0,0.0,0.1069,-0.9978,0.0591,0.7482,-0.6451,0.0603,-0.1429
291,0.0,0.0,0.0,0.0,0.0,0.0,0.1083,-0.9938,0.0568,0.7482,-0.6451,0.0603,-0.1429
292,0.0,0.0,0.0,0.0,0.0,0.0,0.1083,-0.9962,0.0557,0.7481,-0.6453,0.0601,-0.1427
293,0.0,0.0,0.0,0.0,0.0,0.0,0.1078,-1.0040,0.0569,0.7481,-0.6454,0.0601,-0.1425
294,0.0,0.0,0.0,0.0,0.0,0.0,0.1078,-1.0019,0.0531,0.7482,-0.6452,0.0604,-0.1423
295,0.0,0.0,0.0,0.0,0.0,0.0,0.1137,-0.9832,0.0460,0.7486,-0.6447,0.0607,-0.1423
296,0.0,0.0,0.0,0.0,0.0,0.0,0.1260,-0.9685,0.0402,0.7481,-0.6453,0.0597,-0.1424
297,0.0,0.0,0.0,0.0,0.0,0.0,0.1299,-0.9621,0.0389,0.7476,-0.6459,0.0586,-0.1430
298,0.0,0.0,0.0,0.0,0.0,0.0,0.1225,-0.9713,0.0391,0.7468,-0.6468,0.0573,-0.1437
299,0.0,0.0,0.0,0.0,0.0,0.0,0.1249,-0.9827,0.0441,0.7457,-0.6482,0.0552,-0.1441
300,0.0,0.0,0.0,0.0,0.0,0.0,0.1288,-0.9902,0.0463,0.7452,-0.6487,0.0537,-0.1450
301,0.0,0.0,0.0,0.0,0.0,0.0,0.1283,-0.9940,0.0442,0.7450,-0.6487,0.0527,-0.1461
302,0.0,0.0,0.0,0.0,0.0,0.0,0.1327,-0.9855,0.0382,0.7444,-0.6492,0.0514,-0.1473
303,0.0,0.0,0.0,0.0,0.0,0.0,0.1332,-0.9811,0.0369,0.7433,-0.6504,0.0497,-0.1482
304,0.0,0.0,0.0,0.0,0.0,0.0,0.1332,-0.9864,0.0362,0.7418,-0.6522,0.0477,-0.1486
305,0.0,0.0,0.0,0.0,0.0,0.0,0.1331,-0.9971,0.0359,0.7407,-0.6534,0.0464,-0.1491
306,0.0,0.0,0.0,0.0,0.0,0.0,0.1365,-1.0069,0.0361,0.7399,-0.6544,0.0452,-0.1494
307,0.0,0.0,0.0,0.0,0.0,0.0,0.1433,-1.0108,0.0331,0.7388,-0.6557,0.0436,-0.1493
308,0.0,0.0,0.0,0.0,0.0,0.0,0.1501,-1.0048,0.0275,0.7379,-0.6570,0.0417,-0.1490
309,0.0,0.0,0.0,0.0,0.0,0.0,0.2784,-0.9983,0.0209,0.7371,-0.6581,0.0370,-0.1490
310,0.0,0.0,0.0,0.0,0.0,0.0,0.1594,-0.9934,0.0191,0.7364,-0.6590,0.0354,-0.1490
311,0.0,0.0,0.0,0.0,0.0,0.0,0.1609,-0.9924,0.0202,0.7355,-0.6602,0.0333,-0.1489
312,0.0,0.0,0.0,0.0,0.0,0.0,0.1604,-0.9960,0.0234,0.7348,-0.6611,0.0314,-0.1487
313,0.0,0.0,0.0,0.0,0.0,0.0,0.1604,-1.0009,0.0243,0.7342,-0.6618,0.0297,-0.1484
314,0.0,0.0,0.0,0.0,0.0,0.0,0.1657,-0.9979,0.0234,0.7343,-0.6618,0.0287,-0.1482
315,0.0,0.0,0.0,0.0,0.0,0.0,0.1662,-0.9915,0.0212,0.7341,-0.6622,0.0275,-0.1478
316,0.0,0.0,0.0,0.0,0.0,0.0,0.1667,-0.9960,0.0220,0.7339,-0.6625,0.0265,-0.1473
317,0.0,0.0,0.0,0.0,0.0,0.0,0.1672,-1.0004,0.0224,0.7336,-0.6631,0.0255,-0.1466
318,0.0,0.0,0.0,0.0,0.0,0.0,0.1691,-0.9978,0.0186,0.7330,-0.6641,0.0244,-0.1454
319,0.0,0.0,0.0,0.0,0.0,0.0,0.1711,-0.9948,0.0153,0.7331,-0.6642,0.0242,-0.1445
320,0.0,0.0,0.0,0.0,0.0,0.0,0.1716,-0.9942,0.0133,0.7333,-0.6641,0.0244,-0.1436
321,0.0,0.0,0.0,0.0,0.0,0.0,0.1696,-0.9976,0.0132,0.7336,-0.6640,0.0247,-0.1426
322,0.0,0.0,0.0,0.0,0.0,0.0,0.1681,-1.0006,0.0141,0.7335,-0.6643,0.0247,-0.1415
323,0.0,0.0,0.0,0.0,0.0,0.0,0.1676,-1.0005,0.0131,0.7336,-0.6645,0.0248,-0.1405
324,0.0,0.0,0.0,0.0,0.0,0.0,0.1686,-0.9940,0.0085,0.7339,-0.6643,0.0252,-0.1398
325,0.0,0.0,0.0,0.0,0.0,0.0,0.1677,-0.9866,0.0053,0.7339,-0.6644,0.0251,-0.1391
326,0.0,0.0,0.0,0.0,0.0,0.0,0.1682,-0.9802,0.0036,0.7341,-0.6642,0.0252,-0.1389
327,0.0,0.0,0.0,0.0,0.0,0.0,0.1746,-0.9748,0.0023,0.7341,-0.6645,0.0231,-0.1380
328,0.0,0.0,0.0,0.0,0.0,0.0,0.1701,-0.9765,-0.0050,0.7332,-0.6654,0.0221,-0.1383
329,0.0,0.0,0.0,0.0,0.0,0.0,0.1760,-0.9637,-0.0085,0.7322,-0.6665,0.0207,-0.1385
330,0.0,0.0,0.0,0.0,0.0,0.0,0.1775,-0.9578,-0.0117,0.7313,-0.6674,0.0195,-0.1394
331,0.0,0.0,0.0,0.0,0.0,0.0,0.1750,-0.9695,-0.0116,0.7304,-0.6682,0.0187,-0.1405
332,0.0,0.0,0.0,0.0,0.0,0.0,0.1754,-0.9856,-0.0101,0.7292,-0.6692,0.0175,-0.1415
333,0.0,0.0,0.0,0.0,0.0,0.0,0.1725,-0.9919,-0.0104,0.7283,-0.6701,0.0169,-0.1426
334,0.0,0.0,0.0,0.0,0.0,0.0,0.1724,-0.9948,-0.0129,0.7275,-0.6707,0.0165,-0.1435
335,0.0,0.0,0.0,0.0,0.0,0.0,0.1739,-1.0001,-0.0140,0.7266,-0.6716,0.0160,-0.1443
336,0.0,0.0,0.0,0.0,0.0,0.0,0.1714,-1.0004,-0.0189,0.7253,-0.6729,0.0152,-0.1446
337,0.0,0.0,0.0,0.0,0.0,0.0,0.1714,-0.9978,-0.0217,0.7243,-0.6739,0.0148,-0.1448
338,0.0,0.0,0.0,0.0,0.0,0.0,0.1728,-0.9973,-0.0246,0.7237,-0.6746,0.0148,-0.1447
339,0.0,0.0,0.0,0.0,0.0,0.0,0.1753,-0.9948,-0.0250,0.7229,-0.6755,0.0146,-0.1445
340,0.0,0.0,0.0,0.0,0.0,0.0,0.1777,-0.9983,-0.0227,0.7224,-0.6761,0.0145,-0.1442
341,0.0,0.0,0.0,0.0,0.0,0.0,0.1801,-1.0007,-0.0261,0.7223,-0.6763,0.0150,-0.1440
342,0.0,0.0,0.0,0.0,0.0,0.0,0.1865,-0.9946,-0.0332,0.7223,-0.6762,0.0157,-0.1439
343,0.0,0.0,0.0,0.0,0.0,0.0,0.1899,-0.9827,-0.0391,0.7216,-0.6771,0.0154,-0.1433
344,0.0,0.0,0.0,0.0,0.0,0.0,0.1919,-0.9827,-0.0420,0.7211,-0.6777,0.0154,-0.1432
345,0.0,0.0,0.0,0.0,0.0,0.0,0.1899,-0.9863,-0.0363,0.7209,-0.6778,0.0156,-0.1435
346,0.0,0.0,0.0,0.0,0.0,0.0,0.1841,-0.9962,-0.0284,0.7203,-0.6784,0.0155,-0.1436
347,0.0,0.0,0.0,0.0,0.0,0.0,0.1757,-1.0096,-0.0225,0.7203,-0.6785,0.0161,-0.1437
348,0.0,0.0,0.0,0.0,0.0,0.0,0.1684,-1.0105,-0.0221,0.7205,-0.6782,0.0173,-0.1434
349,0.0,0.0,0.0,0.0,0.0,0.0,0.1675,-0.9992,-0.0237,0.7210,-0.6778,0.0190,-0.1430
350,0.0,0.0,0.0,0.0,0.0,0.0,0.1680,-0.9855,-0.0257,0.7214,-0.6774,0.0207,-0.1424
351,0.0,0.0,0.0,0.0,0.0,0.0,0.1710,-0.9757,-0.0263,0.7218,-0.6771,0.0222,-0.1418
352,0.0,0.0,0.0,0.0,0.0,0.0,0.1671,-0.9702,-0.0286,0.7216,-0.6773,0.0232,-0.1411
353,0.0,0.0,0.0,0.0,0.0,0.0,0.1652,-0.9727,-0.0268,0.7209,-0.6783,0.0236,-0.1403
354,0.0,0.0,0.0,0.0,0.0,0.0,0.1661,-0.9747,-0.0278,0.7205,-0.6788,0.0244,-0.1397
355,0.0,0.0,0.0,0.0,0.0,0.0,0.1647,-0.9696,-0.0320,0.7201,-0.6793,0.0254,-0.1395
356,0.0,0.0,0.0,0.0,0.0,0.0,0.1642,-0.9739,-0.0360,0.7191,-0.6803,0.0257,-0.1392
357,0.0,0.0,0.0,0.0,0.0,0.0,0.1592,-0.9895,-0.0351,0.7181,-0.6815,0.0260,-0.1387
358,0.0,0.0,0.0,0.0,0.0,0.0,0.1592,-0.9937,-0.0381,0.7173,-0.6824,0.0266,-0.1384
359,0.0,0.0,0.0,0.0,0.0,0.0,0.1611,-1.0016,-0.0379,0.7167,-0.6829,0.0273,-0.1382
360,0.0,0.0,0.0,0.0,0.0,0.0,0.1650,-1.0001,-0.0398,0.7162,-0.6836,0.0276,-0.1380
361,0.0,0.0,0.0,0.0,0.0,0.0,0.1693,-1.0010,-0.0432,0.7155,-0.6844,0.0275,-0.1378
362,0.0,0.0,0.0,0.0,0.0,0.0,0.1664,-1.0004,-0.0456,0.7149,-0.6849,0.0277,-0.1379
363,0.0,0.0,0.0,0.0,0.0,0.0,0.1673,-1.0053,-0.0448,0.7144,-0.6854,0.0278,-0.1377
364,0.0,0.0,0.0,0.0,0.0,0.0,0.1664,-1.0058,-0.0448,0.7141,-0.6859,0.0279,-0.1372
365,0.0,0.0,0.0,0.0,0.0,0.0,0.1645,-0.9970,-0.0445,0.7143,-0.6857,0.0286,-0.1368
366,0.0,0.0,0.0,0.0,0.0,0.0,0.1655,-0.9828,-0.0445,0.7143,-0.6857,0.0291,-0.1366
367,0.0,0.0,0.0,0.0,0.0,0.0,0.1602,-0.9777,-0.0497,0.7146,-0.6854,0.0301,-0.1365
368,0.0,0.0,0.0,0.0,0.0,0.0,0.1597,-0.9725,-0.0467,0.7147,-0.6853,0.0307,-0.1364
369,0.0,0.0,0.0,0.0,0.0,0.0,0.1573,-0.9726,-0.0428,0.7144,-0.6857,0.0310,-0.1363
370,0.0,0.0,0.0,0.0,0.0,0.0,0.1524,-0.9770,-0.0405,0.7145,-0.6855,0.0317,-0.1365
371,0.0,0.0,0.0,0.0,0.0,0.0,0.1519,-0.9780,-0.0406,0.7143,-0.6856,0.0322,-0.1365
372,0.0,0.0,0.0,0.0,0.0,0.0,0.1475,-0.9739,-0.0434,0.7143,-0.6856,0.0329,-0.1368
373,0.0,0.0,0.0,0.0,0.0,0.0,0.1471,-0.9694,-0.0486,0.7142,-0.6855,0.0336,-0.1373
374,0.0,0.0,0.0,0.0,0.0,0.0,0.1578,-0.9654,-0.0518,0.7135,-0.6861,0.0332,-0.1379
375,0.0,0.0,0.0,0.0,0.0,0.0,0.1651,-0.9677,-0.0572,0.7124,-0.6872,0.0320,-0.1387
376,0.0,0.0,0.0,0.0,0.0,0.0,0.1675,-0.9640,-0.0668,0.7113,-0.6882,0.0310,-0.1399
377,0.0,0.0,0.0,0.0,0.0,0.0,0.1752,-0.9825,-0.0702,0.7105,-0.6887,0.0305,-0.1410
378,0.0,0.0,0.0,0.0,0.0,0.0,0.1818,-1.0240,-0.0696,0.7099,-0.6892,0.0301,-0.1419
379,0.0,0.0,0.0,0.0,0.0,0.0,0.1744,-1.0299,-0.0674,0.7093,-0.6896,0.0302,-0.1428
380,0.0,0.0,0.0,0.0,0.0,0.0,0.1681,-1.0231,-0.0643,0.7089,-0.6900,0.0308,-0.1431
381,0.0,0.0,0.0,0.0,0.0,0.0,0.1657,-1.0177,-0.0665,0.7084,-0.6905,0.0314,-0.1427
382,0.0,0.0,0.0,0.0,0.0,0.0,0.1653,-1.0118,-0.0668,0.7081,-0.6909,0.0321,-0.1421
383,0.0,0.0,0.0,0.0,0.0,0.0,0.1614,-1.0010,-0.0675,0.7082,-0.6910,0.0333,-0.1413
384,0.0,0.0,0.0,0.0,0.0,0.0,0.1591,-0.9903,-0.0666,0.7080,-0.6913,0.0340,-0.1404
385,0.0,0.0,0.0,0.0,0.0,0.0,0.1532,-0.9958,-0.0615,0.7079,-0.6916,0.0344,-0.1395
386,0.0,0.0,0.0,0.0,0.0,0.0,0.1508,-0.9944,-0.0590,0.7079,-0.6917,0.0348,-0.1386
387,0.0,0.0,0.0,0.0,0.0,0.0,0.1508,-0.9896,-0.0570,0.7080,-0.6917,0.0351,-0.1378
388,0.0,0.0,0.0,0.0,0.0,0.0,0.1542,-0.9922,-0.0541,0.7086,-0.6912,0.0356,-0.1374
389,0.0,0.0,0.0,0.0,0.0,0.0,0.1586,-1.0001,-0.0524,0.7092,-0.6907,0.0356,-0.1367
390,0.0,0.0,0.0,0.0,0.0,0.0,0.1634,-0.9986,-0.0543,0.7097,-0.6903,0.0350,-0.1361
391,0.0,0.0,0.0,0.0,0.0,0.0,0.1669,-0.9996,-0.0528,0.7105,-0.6897,0.0342,-0.1354
392,0.0,0.0,0.0,0.0,0.0,0.0,0.1727,-1.0001,-0.0538,0.7116,-0.6888,0.0332,-0.1347
393,0.0,0.0,0.0,0.0,0.0,0.0,0.1683,-0.9999,-0.0577,0.7128,-0.6876,0.0326,-0.1344
394,0.0,0.0,0.0,0.0,0.0,0.0,0.1625,-0.9930,-0.0604,0.7136,-0.6869,0.0317,-0.1339
395,0.0,0.0,0.0,0.0,0.0,0.0,0.1489,-0.9797,-0.0600,0.7138,-0.6870,0.0307,-0.1326
396,0.0,0.0,0.0,0.0,0.0,0.0,0.1343,-0.9817,-0.0553,0.7140,-0.6872,0.0304,-0.1306
397,0.0,0.0,0.0,0.0,0.0,0.0,0.1284,-0.9852,-0.0511,0.7148,-0.6868,0.0316,-0.1283
398,0.0,0.0,0.0,0.0,0.0,0.0,0.1147,-0.9885,-0.0517,0.7154,-0.6867,0.0327,-0.1247
399,0.0,0.0,0.0,0.0,0.0,0.0,0.1319,-0.9815,-0.0466,0.7153,-0.6878,0.0319,-0.1197
400,0.0,0.0,0.0,0.0,0.0,0.0,0.1344,-0.9699,-0.0457,0.7150,-0.6890,0.0301,-0.1143
401,0.0,0.0,0.0,0.0,0.0,0.0,0.1369,-0.9667,-0.0398,0.7152,-0.6898,0.0281,-0.1092
402,0.0,0.0,0.0,0.0,0.0,0.0,0.1388,-0.9667,-0.0393,0.7154,-0.6904,0.0255,-0.1045
403,0.0,0.0,0.0,0.0,0.0,0.0,0.1461,-0.9757,-0.0352,0.7155,-0.6911,0.0223,-0.0998
404,0.0,0.0,0.0,0.0,0.0,0.0,0.1602,-0.9747,-0.0385,0.7157,-0.6915,0.0190,-0.0960
405,0.0,0.0,0.0,0.0,0.0,0.0,0.1690,-0.9705,-0.0495,0.7160,-0.6916,0.0159,-0.0931
406,0.0,0.0,0.0,0.0,0.0,0.0,0.1704,-0.9702,-0.0587,0.7160,-0.6920,0.0127,-0.0910
407,0.0,0.0,0.0,0.0,0.0,0.0,0.1733,-0.9798,-0.0643,0.7160,-0.6922,0.0099,-0.0900
408,0.0,0.0,0.0,0.0,0.0,0.0,0.1678,-0.9849,-0.0703,0.7153,-0.6930,0.0069,-0.0896
409,0.0,0.0,0.0,0.0,0.0,0.0,0.1609,-1.0052,-0.0729,0.7147,-0.6936,0.0049,-0.0902
410,0.0,0.0,0.0,0.0,0.0,0.0,0.1521,-1.0139,-0.0718,0.7148,-0.6933,0.0041,-0.0916
411,0.0,0.0,0.0,0.0,0.0,0.0,0.1378,-1.0295,-0.0714,0.7153,-0.6925,0.0047,-0.0935
412,0.0,0.0,0.0,0.0,0.0,0.0,0.1227,-1.0341,-0.0750,0.7154,-0.6922,0.0063,-0.0952
413,0.0,0.0,0.0,0.0,0.0,0.0,0.0984,-1.0042,-0.0867,0.7148,-0.6926,0.0089,-0.0961
414,0.0,0.0,0.0,0.0,0.0,0.0,0.0926,-0.9906,-0.0844,0.7141,-0.6933,0.0123,-0.0962
415,0.0,0.0,0.0,0.0,0.0,0.0,0.1029,-0.9922,-0.0815,0.7133,-0.6941,0.0160,-0.0953
416,0.0,0.0,0.0,0.0,0.0,0.0,0.1118,-0.9763,-0.0785,0.7120,-0.6957,0.0190,-0.0937
417,0.0,0.0,0.0,0.0,0.0,0.0,0.1109,-0.9613,-0.0747,0.7107,-0.6971,0.0217,-0.0922
418,0.0,0.0,0.0,0.0,0.0,0.0,0.1046,-0.9572,-0.0789,0.7095,-0.6984,0.0244,-0.0909
419,0.0,0.0,0.0,0.0,0.0,0.0,0.0968,-0.9445,-0.0902,0.7077,-0.7002,0.0273,-0.0896
420,0.0,0.0,0.0,0.0,0.0,0.0,0.0891,-0.9225,-0.1036,0.7055,-0.7024,0.0305,-0.0891
421,0.0,0.0,0.0,0.0,0.0,0.0,0.0802,-0.9286,-0.1092,0.7021,-0.7059,0.0323,-0.0882
422,0.0,0.0,0.0,0.0,0.0,0.0,0.0678,-0.9593,-0.1082,0.6987,-0.7092,0.0350,-0.0878
423,0.0,0.0,0.0,0.0,0.0,0.0,0.0580,-0.9591,-0.1238,0.6957,-0.7119,0.0388,-0.0881
424,0.0,0.0,0.0,0.0,0.0,0.0,0.0466,-0.9870,-0.1335,0.6925,-0.7147,0.0420,-0.0885
425,0.0,0.0,0.0,0.0,0.0,0.0,0.0374,-1.0456,-0.1412,0.6894,-0.7176,0.0443,-0.0886
426,0.0,0.0,0.0,0.0,0.0,0.0,0.0412,-1.0554,-0.1556,0.6868,-0.7198,0.0466,-0.0891
427,0.0,0.0,0.0,0.0,0.0,0.0,0.0310,-1.0358,-0.1695,0.6851,-0.7211,0.0497,-0.0900
428,0.0,0.0,0.0,0.0,0.0,0.0,0.0476,-1.0342,-0.1767,0.6840,-0.7219,0.0522,-0.0908
429,0.0,0.0,0.0,0.0,0.0,0.0,0.0369,-1.0298,-0.1747,0.6832,-0.7224,0.0545,-0.0920
430,0.0,0.0,0.0,0.0,0.0,0.0,0.0423,-1.0276,-0.1702,0.6835,-0.7218,0.0565,-0.0930
431,0.0,0.0,0.0,0.0,0.0,0.0,0.0472,-1.0263,-0.1536,0.6840,-0.7210,0.0583,-0.0943
432,0.0,0.0,0.0,0.0,0.0,0.0,0.0458,-1.0322,-0.1373,0.6846,-0.7202,0.0595,-0.0954
433,0.0,0.0,0.0,0.0,0.0,0.0,0.0518,-1.0144,-0.1324,0.6854,-0.7193,0.0601,-0.0960
434,0.0,0.0,0.0,0.0,0.0,0.0,0.0563,-1.0024,-0.1281,0.6863,-0.7184,0.0598,-0.0962
435,0.0,0.0,0.0,0.0,0.0,0.0,0.0607,-1.0004,-0.1169,0.6876,-0.7171,0.0597,-0.0967
436,0.0,0.0,0.0,0.0,0.0,0.0,0.0657,-0.9923,-0.1112,0.6895,-0.7151,0.0602,-0.0979
437,0.0,0.0,0.0,0.0,0.0,0.0,0.0681,-0.9965,-0.1051,0.6912,-0.7133,0.0601,-0.0991
438,0.0,0.0,0.0,0.0,0.0,0.0,0.0662,-0.9942,-0.0992,0.6931,-0.7113,0.0605,-0.1005
439,0.0,0.0,0.0,0.0,0.0,0.0,0.0721,-0.9856,-0.0950,0.6947,-0.7095,0.0603,-0.1020
440,0.0,0.0,0.0,0.0,0.0,0.0,0.0726,-0.9912,-0.0893,0.6960,-0.7080,0.0598,-0.1037
441,0.0,0.0,0.0,0.0,0.0,0.0,0.0857,-1.0008,-0.0843,0.6978,-0.7060,0.0592,-0.1056
442,0.0,0.0,0.0,0.0,0.0,0.0,0.0941,-0.9985,-0.0812,0.7001,-0.7034,0.0588,-0.1079
443,0.0,0.0,0.0,0.0,0.0,0.0,0.0960,-0.9959,-0.0855,0.7019,-0.7013,0.0581,-0.1102
444,0.0,0.0,0.0,0.0,0.0,0.0,0.1023,-0.9984,-0.0870,0.7026,-0.7005,0.0561,-0.1121
445,0.0,0.0,0.0,0.0,0.0,0.0,0.1024,-0.9976,-0.0802,0.7032,-0.6996,0.0545,-0.1142
446,0.0,0.0,0.0,0.0,0.0,0.0,0.1019,-0.9989,-0.0720,0.7043,-0.6982,0.0540,-0.1161
447,0.0,0.0,0.0,0.0,0.0,0.0,0.1122,-0.9988,-0.0627,0.7057,-0.6966,0.0541,-0.1175
448,0.0,0.0,0.0,0.0,0.0,0.0,0.1250,-0.9854,-0.0603,0.7065,-0.6957,0.0537,-0.1178
449,0.0,0.0,0.0,0.0,0.0,0.0,0.1363,-0.9678,-0.0636,0.7068,-0.6956,0.0529,-0.1174
450,0.0,0.0,0.0,0.0,0.0,0.0,0.1465,-0.9680,-0.0587,0.7074,-0.6951,0.0526,-0.1170
451,0.0,0.0,0.0,0.0,0.0,0.0,0.1494,-0.9764,-0.0565,0.7079,-0.6947,0.0523,-0.1163
452,0.0,0.0,0.0,0.0,0.0,0.0,0.1484,-0.9821,-0.0621,0.7087,-0.6938,0.0531,-0.1160
453,0.0,0.0,0.0,0.0,0.0,0.0,0.1400,-0.9962,-0.0601,0.7093,-0.6933,0.0542,-0.1156
454,0.0,0.0,0.0,0.0,0.0,0.0,0.1321,-1.0067,-0.0639,0.7094,-0.6932,0.0550,-0.1149
455,0.0,0.0,0.0,0.0,0.0,0.0,0.1164,-1.0290,-0.0661,0.7096,-0.6929,0.0563,-0.1148
456,0.0,0.0,0.0,0.0,0.0,0.0,0.1043,-1.0125,-0.0739,0.7099,-0.6925,0.0576,-0.1147
457,0.0,0.0,0.0,0.0,0.0,0.0,0.1073,-0.9906,-0.0863,0.7102,-0.6922,0.0583,-0.1146
458,0.0,0.0,0.0,0.0,0.0,0.0,0.1029,-0.9885,-0.0901,0.7104,-0.6918,0.0589,-0.1152
459,0.0,0.0,0.0,0.0,0.0,0.0,0.0779,-1.0142,-0.0755,0.7109,-0.6912,0.0599,-0.1155
460,0.0,0.0,0.0,0.0,0.0,0.0,0.0670,-1.0453,-0.0765,0.7110,-0.6911,0.0611,-0.1148
461,0.0,0.0,0.0,0.0,0.0,0.0,0.0817,-1.0250,-0.0739,0.7112,-0.6910,0.0627,-0.1132
462,0.0,0.0,0.0,0.0,0.0,0.0,0.0755,-1.0116,-0.0783,0.7122,-0.6900,0.0642,-0.1116
463,0.0,0.0,0.0,0.0,0.0,0.0,0.0696,-1.0204,-0.0767,0.7128,-0.6898,0.0649,-0.1092
464,0.0,0.0,0.0,0.0,0.0,0.0,0.0850,-0.9545,-0.0944,0.7128,-0.6902,0.0644,-0.1066
465,0.0,0.0,0.0,0.0,0.0,0.0,0.0796,-0.9545,-0.0949,0.7134,-0.6902,0.0627,-0.1040
466,0.0,0.0,0.0,0.0,0.0,0.0,0.1007,-0.9489,-0.0913,0.7138,-0.6905,0.0592,-0.1016
467,0.0,0.0,0.0,0.0,0.0,0.0,0.1149,-0.9384,-0.0880,0.7139,-0.6910,0.0540,-0.0997
468,0.0,0.0,0.0,0.0,0.0,0.0,0.1213,-0.9285,-0.0809,0.7142,-0.6913,0.0466,-0.0991
469,0.0,0.0,0.0,0.0,0.0,0.0,0.1270,-0.9610,-0.0736,0.7153,-0.6907,0.0389,-0.0995
470,0.0,0.0,0.0,0.0,0.0,0.0,0.1337,-0.9886,-0.0681,0.7163,-0.6899,0.0312,-0.1001
471,0.0,0.0,0.0,0.0,0.0,0.0,0.1362,-0.9822,-0.0694,0.7172,-0.6891,0.0237,-0.1011
472,0.0,0.0,0.0,0.0,0.0,0.0,0.1552,-0.9751,-0.0676,0.7180,-0.6883,0.0168,-0.1022
473,0.0,0.0,0.0,0.0,0.0,0.0,0.1556,-0.9961,-0.0668,0.7185,-0.6877,0.0113,-0.1035
474,0.0,0.0,0.0,0.0,0.0,0.0,0.1634,-0.9946,-0.0702,0.7185,-0.6875,0.0066,-0.1049
475,0.0,0.0,0.0,0.0,0.0,0.0,0.1771,-0.9983,-0.0644,0.7186,-0.6873,0.0034,-0.1062
476,0.0,0.0,0.0,0.0,0.0,0.0,0.1766,-0.9954,-0.0643,0.7186,-0.6871,0.0015,-0.1073
477,0.0,0.0,0.0,0.0,0.0,0.0,0.1914,-0.9686,-0.0658,0.7186,-0.6869,-0.0001,-0.1085
478,0.0,0.0,0.0,0.0,0.0,0.0,0.1904,-0.9774,-0.0647,0.7179,-0.6874,-0.0016,-0.1100
479,0.0,0.0,0.0,0.0,0.0,0.0,0.1761,-0.9988,-0.0630,0.7167,-0.6886,-0.0029,-0.1106
480,0.0,0.0,0.0,0.0,0.0,0.0,0.1785,-0.9999,-0.0601,0.7158,-0.6894,-0.0033,-0.1111
481,0.0,0.0,0.0,0.0,0.0,0.0,0.1688,-0.9993,-0.0630,0.7150,-0.6902,-0.0031,-0.1114
482,0.0,0.0,0.0,0.0,0.0,0.0,0.1732,-0.9923,-0.0681,0.7146,-0.6904,-0.0021,-0.1122
483,0.0,0.0,0.0,0.0,0.0,0.0,0.1732,-0.9798,-0.0769,0.7146,-0.6903,-0.0006,-0.1134
484,0.0,0.0,0.0,0.0,0.0,0.0,0.1688,-0.9820,-0.0809,0.7139,-0.6908,0.0006,-0.1145
485,0.0,0.0,0.0,0.0,0.0,0.0,0.1649,-0.9812,-0.0775,0.7129,-0.6917,0.0012,-0.1154
486,0.0,0.0,0.0,0.0,0.0,0.0,0.1649,-0.9867,-0.0723,0.7120,-0.6924,0.0018,-0.1165
487,0.0,0.0,0.0,0.0,0.0,0.0,0.1629,-1.0030,-0.0675,0.7118,-0.6925,0.0030,-0.1179
488,0.0,0.0,0.0,0.0,0.0,0.0,0.1609,-1.0088,-0.0672,0.7114,-0.6926,0.0040,-0.1189
489,0.0,0.0,0.0,0.0,0.0,0.0,0.1619,-1.0060,-0.0647,0.7107,-0.6933,0.0046,-0.1195
490,0.0,0.0,0.0,0.0,0.0,0.0,0.1649,-0.9973,-0.0634,0.7106,-0.6932,0.0060,-0.1204
491,0.0,0.0,0.0,0.0,0.0,0.0,0.1669,-0.9869,-0.0665,0.7106,-0.6930,0.0074,-0.1213
492,0.0,0.0,0.0,0.0,0.0,0.0,0.1581,-0.9781,-0.0672,0.7098,-0.6938,0.0077,-0.1215
493,0.0,0.0,0.0,0.0,0.0,0.0,0.1581,-0.9956,-0.0532,0.7101,-0.6934,0.0087,-0.1220
494,0.0,0.0,0.0,0.0,0.0,0.0,0.1561,-1.0005,-0.0524,0.7102,-0.6932,0.0100,-0.1225
495,0.0,0.0,0.0,0.0,0.0,0.0,0.1527,-0.9915,-0.0585,0.7100,-0.6933,0.0110,-0.1227
496,0.0,0.0,0.0,0.0,0.0,0.0,0.1591,-0.9917,-0.0531,0.7105,-0.6927,0.0124,-0.1231
497,0.0,0.0,0.0,0.0,0.0,0.0,0.1601,-0.9907,-0.0565,0.7106,-0.6925,0.0133,-0.1233
498,0.0,0.0,0.0,0.0,0.0,0.0,0.1635,-0.9805,-0.0561,0.7107,-0.6924,0.0139,-0.1235
499,0.0,0.0,0.0,0.0,0.0,0.0,0.1699,-0.9869,-0.0534,0.7113,-0.6917,0.0148,-0.1241
500,0.0,0.0,0.0,0.0,0.0,0.0,0.1649,-0.9922,-0.0541,0.7121,-0.6907,0.0159,-0.1250
501,0.0,0.0,0.0,0.0,0.0,0.0,0.1649,-0.9977,-0.0528,0.7123,-0.6904,0.0162,-0.1254
502,0.0,0.0,0.0,0.0,0.0,0.0,0.1712,-0.9986,-0.0547,0.7122,-0.6905,0.0158,-0.1253
503,0.0,0.0,0.0,0.0,0.0,0.0,0.1772,-0.9854,-0.0572,0.7126,-0.6901,0.0158,-0.1255
504,0.0,0.0,0.0,0.0,0.0,0.0,0.1796,-0.9805,-0.0590,0.7131,-0.6895,0.0160,-0.1258
505,0.0,0.0,0.0,0.0,0.0,0.0,0.1825,-0.9844,-0.0581,0.7136,-0.6889,0.0159,-0.1261
506,0.0,0.0,0.0,0.0,0.0,0.0,0.1806,-0.9805,-0.0585,0.7139,-0.6885,0.0160,-0.1264
507,0.0,0.0,0.0,0.0,0.0,0.0,0.1771,-0.9933,-0.0545,0.7143,-0.6881,0.0163,-0.1264
508,0.0,0.0,0.0,0.0,0.0,0.0,0.1786,-0.9930,-0.0502,0.7148,-0.6876,0.0165,-0.1263
509,0.0,0.0,0.0,0.0,0.0,0.0,0.1859,-0.9936,-0.0487,0.7152,-0.6873,0.0165,-0.1260
510,0.0,0.0,0.0,0.0,0.0,0.0,0.1835,-0.9950,-0.0507,0.7144,-0.6881,0.0170,-0.1263
511,0.0,0.0,0.0,0.0,0.0,0.0,0.1752,-1.0007,-0.0514,0.7145,-0.6880,0.0174,-0.1259
512,0.0,0.0,0.0,0.0,0.0,0.0,0.1742,-1.0005,-0.0446,0.7148,-0.6877,0.0184,-0.1257
513,0.0,0.0,0.0,0.0,0.0,0.0,0.1693,-1.0077,-0.0453,0.7154,-0.6871,0.0200,-0.1253
514,0.0,0.0,0.0,0.0,0.0,0.0,0.1734,-0.9686,-0.0484,0.7158,-0.6868,0.0214,-0.1247
515,0.0,0.0,0.0,0.0,0.0,0.0,0.1884,-0.9816,-0.0580,0.7164,-0.6861,0.0232,-0.1245
516,0.0,0.0,0.0,0.0,0.0,0.0,0.1909,-0.9700,-0.0688,0.7166,-0.6859,0.0242,-0.1240
517,0.0,0.0,0.0,0.0,0.0,0.0,0.1954,-0.9551,-0.0644,0.7164,-0.6862,0.0240,-0.1240
518,0.0,0.0,0.0,0.0,0.0,0.0,0.1880,-0.9672,-0.0643,0.7159,-0.6866,0.0238,-0.1246
519,0.0,0.0,0.0,0.0,0.0,0.0,0.1786,-0.9848,-0.0615,0.7161,-0.6862,0.0244,-0.1257
520,0.0,0.0,0.0,0.0,0.0,0.0,0.1712,-0.9964,-0.0615,0.7161,-0.6860,0.0248,-0.1263
521,0.0,0.0,0.0,0.0,0.0,0.0,0.1762,-0.9837,-0.0649,0.7159,-0.6862,0.0249,-0.1264
522,0.0,0.0,0.0,0.0,0.0,0.0,0.1806,-0.9842,-0.0635,0.7157,-0.6864,0.0252,-0.1265
523,0.0,0.0,0.0,0.0,0.0,0.0,0.1777,-0.9814,-0.0610,0.7153,-0.6868,0.0254,-0.1266
524,0.0,0.0,0.0,0.0,0.0,0.0,0.1767,-0.9834,-0.0596,0.7149,-0.6871,0.0256,-0.1267
525,0.0,0.0,0.0,0.0,0.0,0.0,0.1635,-0.9925,-0.0589,0.7150,-0.6870,0.0265,-0.1267
526,0.0,0.0,0.0,0.0,0.0,0.0,0.1556,-1.0073,-0.0531,0.7150,-0.6870,0.0274,-0.1268
527,0.0,0.0,0.0,0.0,0.0,0.0,0.1502,-1.0063,-0.0546,0.7150,-0.6871,0.0280,-0.1261
528,0.0,0.0,0.0,0.0,0.0,0.0,0.1665,-0.9829,-0.0557,0.7155,-0.6867,0.0286,-0.1254
529,0.0,0.0,0.0,0.0,0.0,0.0,0.1640,-0.9893,-0.0535,0.7158,-0.6864,0.0292,-0.1250
530,0.0,0.0,0.0,0.0,0.0,0.0,0.1597,-0.9716,-0.0563,0.7162,-0.6860,0.0300,-0.1248
531,0.0,0.0,0.0,0.0,0.0,0.0,0.1650,-0.9820,-0.0533,0.7163,-0.6858,0.0301,-0.1250
532,0.0,0.0,0.0,0.0,0.0,0.0,0.1625,-0.9895,-0.0496,0.7165,-0.6856,0.0302,-0.1252
533,0.0,0.0,0.0,0.0,0.0,0.0,0.1562,-0.9956,-0.0401,0.7171,-0.6848,0.0306,-0.1256
534,0.0,0.0,0.0,0.0,0.0,0.0,0.1523,-1.0005,-0.0379,0.7181,-0.6837,0.0310,-0.1262
535,0.0,0.0,0.0,0.0,0.0,0.0,0.1499,-0.9911,-0.0415,0.7190,-0.6826,0.0315,-0.1269
536,0.0,0.0,0.0,0.0,0.0,0.0,0.1553,-0.9878,-0.0399,0.7196,-0.6818,0.0315,-0.1276
537,0.0,0.0,0.0,0.0,0.0,0.0,0.1499,-0.9977,-0.0344,0.7204,-0.6809,0.0315,-0.1281
538,0.0,0.0,0.0,0.0,0.0,0.0,0.1367,-0.9991,-0.0330,0.7214,-0.6797,0.0321,-0.1288
539,0.0,0.0,0.0,0.0,0.0,0.0,0.1382,-0.9988,-0.0282,0.7225,-0.6784,0.0321,-0.1294
540,0.0,0.0,0.0,0.0,0.0,0.0,0.1382,-0.9995,-0.0229,0.7236,-0.6771,0.0322,-0.1297
541,0.0,0.0,0.0,0.0,0.0,0.0,0.1398,-0.9820,-0.0223,0.7249,-0.6758,0.0322,-0.1298
542,0.0,0.0,0.0,0.0,0.0,0.0,0.1458,-0.9627,-0.0178,0.7261,-0.6744,0.0320,-0.1302
543,0.0,0.0,0.0,0.0,0.0,0.0,0.1358,-1.0034,-0.0070,0.7272,-0.6733,0.0317,-0.1301
544,0.0,0.0,0.0,0.0,0.0,0.0,0.1284,-1.0101,-0.0097,0.7276,-0.6731,0.0308,-0.1288
545,0.0,0.0,0.0,0.0,0.0,0.0,0.1378,-0.9938,-0.0057,0.7280,-0.6730,0.0296,-0.1273
546,0.0,0.0,0.0,0.0,0.0,0.0,0.1445,-1.0168,-0.0035,0.7287,-0.6726,0.0292,-0.1255
547,0.0,0.0,0.0,0.0,0.0,0.0,0.1387,-1.0152,-0.0073,0.7295,-0.6720,0.0298,-0.1234
548,0.0,0.0,0.0,0.0,0.0,0.0,0.1328,-1.0187,-0.0026,0.7301,-0.6719,0.0304,-0.1209
549,0.0,0.0,0.0,0.0,0.0,0.0,0.1271,-1.0016,-0.0021,0.7304,-0.6721,0.0308,-0.1179
550,0.0,0.0,0.0,0.0,0.0,0.0,0.1285,-0.9956,-0.0063,0.7309,-0.6720,0.0317,-0.1151
551,0.0,0.0,0.0,0.0,0.0,0.0,0.1418,-0.9715,-0.0147,0.7314,-0.6719,0.0324,-0.1123
552,0.0,0.0,0.0,0.0,0.0,0.0,0.1453,-0.9681,-0.0146,0.7321,-0.6715,0.0322,-0.1098
553,0.0,0.0,0.0,0.0,0.0,0.0,0.1400,-0.9479,-0.0203,0.7325,-0.6715,0.0312,-0.1080
554,0.0,0.0,0.0,0.0,0.0,0.0,0.1503,-0.9336,-0.0266,0.7318,-0.6725,0.0287,-0.1069
555,0.0,0.0,0.0,0.0,0.0,0.0,0.1390,-0.9515,-0.0281,0.7305,-0.6740,0.0261,-0.1067
556,0.0,0.0,0.0,0.0,0.0,0.0,0.1322,-0.9462,-0.0236,0.7300,-0.6744,0.0248,-0.1078
557,0.0,0.0,0.0,0.0,0.0,0.0,0.1539,-0.9759,-0.0303,0.7293,-0.6752,0.0221,-0.1087
558,0.0,0.0,0.0,0.0,0.0,0.0,0.1505,-0.9657,-0.0436,0.7282,-0.6762,0.0188,-0.1102
559,0.0,0.0,0.0,0.0,0.0,0.0,0.1638,-0.9469,-0.0395,0.7278,-0.6763,0.0161,-0.1127
560,0.0,0.0,0.0,0.0,0.0,0.0,0.1641,-0.9793,-0.0478,0.7268,-0.6769,0.0134,-0.1155
561,0.0,0.0,0.0,0.0,0.0,0.0,0.1582,-0.9846,-0.0490,0.7252,-0.6782,0.0111,-0.1179
562,0.0,0.0,0.0,0.0,0.0,0.0,0.1626,-0.9830,-0.0383,0.7238,-0.6794,0.0086,-0.1199
563,0.0,0.0,0.0,0.0,0.0,0.0,0.1665,-1.0030,-0.0267,0.7222,-0.6808,0.0065,-0.1218
564,0.0,0.0,0.0,0.0,0.0,0.0,0.1629,-1.0228,-0.0322,0.7207,-0.6823,0.0050,-0.1231
565,0.0,0.0,0.0,0.0,0.0,0.0,0.1786,-1.0017,-0.0393,0.7191,-0.6839,0.0031,-0.1235
566,0.0,0.0,0.0,0.0,0.0,0.0,0.1943,-0.9846,-0.0416,0.7178,-0.6851,0.0019,-0.1244
567,0.0,0.0,0.0,0.0,0.0,0.0,0.2025,-0.9946,-0.0511,0.7163,-0.6864,0.0005,-0.1254
568,0.0,0.0,0.0,0.0,0.0,0.0,0.2006,-0.9895,-0.0558,0.7147,-0.6879,-0.0009,-0.1267
569,0.0,0.0,0.0,0.0,0.0,0.0,0.1947,-0.9934,-0.0569,0.7131,-0.6893,-0.0015,-0.1280
570,0.0,0.0,0.0,0.0,0.0,0.0,0.1952,-0.9825,-0.0609,0.7118,-0.6903,-0.0014,-0.1295
571,0.0,0.0,0.0,0.0,0.0,0.0,0.2079,-0.9685,-0.0721,0.7109,-0.6908,-0.0011,-0.1318
572,0.0,0.0,0.0,0.0,0.0,0.0,0.1946,-0.9974,-0.0658,0.7102,-0.6910,-0.0003,-0.1344
573,0.0,0.0,0.0,0.0,0.0,0.0,0.1809,-1.0138,-0.0561,0.7093,-0.6916,0.0006,-0.1361
574,0.0,0.0,0.0,0.0,0.0,0.0,0.1829,-1.0107,-0.0609,0.7087,-0.6920,0.0018,-0.1375
575,0.0,0.0,0.0,0.0,0.0,0.0,0.1838,-1.0077,-0.0637,0.7083,-0.6922,0.0032,-0.1387
576,0.0,0.0,0.0,0.0,0.0,0.0,0.1828,-1.0147,-0.0591,0.7076,-0.6927,0.0042,-0.1394
577,0.0,0.0,0.0,0.0,0.0,0.0,0.1867,-1.0156,-0.0596,0.7077,-0.6925,0.0057,-0.1399
578,0.0,0.0,0.0,0.0,0.0,0.0,0.1843,-1.0112,-0.0594,0.7085,-0.6916,0.0078,-0.1405
579,0.0,0.0,0.0,0.0,0.0,0.0,0.1834,-1.0138,-0.0552,0.7096,-0.6903,0.0103,-0.1411
580,0.0,0.0,0.0,0.0,0.0,0.0,0.1894,-0.9869,-0.0577,0.7102,-0.6896,0.0120,-0.1412
581,0.0,0.0,0.0,0.0,0.0,0.0,0.1889,-0.9879,-0.0597,0.7106,-0.6891,0.0136,-0.1415
582,0.0,0.0,0.0,0.0,0.0,0.0,0.1811,-0.9830,-0.0576,0.7113,-0.6884,0.0150,-0.1415
583,0.0,0.0,0.0,0.0,0.0,0.0,0.1890,-0.9698,-0.0605,0.7116,-0.6880,0.0159,-0.1416
584,0.0,0.0,0.0,0.0,0.0,0.0,0.1890,-0.9654,-0.0609,0.7118,-0.6877,0.0168,-0.1421
585,0.0,0.0,0.0,0.0,0.0,0.0,0.1870,-0.9718,-0.0582,0.7123,-0.6870,0.0178,-0.1425
586,0.0,0.0,0.0,0.0,0.0,0.0,0.1864,-0.9914,-0.0554,0.7130,-0.6862,0.0188,-0.1428
587,0.0,0.0,0.0,0.0,0.0,0.0,0.1918,-0.9842,-0.0547,0.7131,-0.6862,0.0188,-0.1425
588,0.0,0.0,0.0,0.0,0.0,0.0,0.1957,-0.9832,-0.0546,0.7131,-0.6862,0.0186,-0.1424
589,0.0,0.0,0.0,0.0,0.0,0.0,0.1918,-0.9911,-0.0515,0.7139,-0.6854,0.0192,-0.1422
590,0.0,0.0,0.0,0.0,0.0,0.0,0.1928,-0.9893,-0.0476,0.7147,-0.6846,0.0198,-0.1420
591,0.0,0.0,0.0,0.0,0.0,0.0,0.1996,-0.9989,-0.0391,0.7155,-0.6837,0.0202,-0.1418
592,0.0,0.0,0.0,0.0,0.0,0.0,0.1893,-1.0038,-0.0505,0.7163,-0.6829,0.0214,-0.1416
593,0.0,0.0,0.0,0.0,0.0,0.0,0.1836,-0.9843,-0.0489,0.7170,-0.6823,0.0225,-0.1409
594,0.0,0.0,0.0,0.0,0.0,0.0,0.1889,-0.9835,-0.0445,0.7177,-0.6817,0.0235,-0.1400
595,0.0,0.0,0.0,0.0,0.0,0.0,0.1943,-0.9908,-0.0457,0.7182,-0.6813,0.0243,-0.1392
596,0.0,0.0,0.0,0.0,0.0,0.0,0.1894,-0.9903,-0.0461,0.7182,-0.6815,0.0246,-0.1383
597,0.0,0.0,0.0,0.0,0.0,0.0,0.1831,-0.9929,-0.0390,0.7185,-0.6814,0.0252,-0.1374
598,0.0,0.0,0.0,0.0,0.0,0.0,0.1713,-0.9997,-0.0383,0.7193,-0.6806,0.0267,-0.1364
599,0.0,0.0,0.0,0.0,0.0,0.0,0.1699,-0.9958,-0.0367,0.7206,-0.6795,0.0281,-0.1349
600,0.0,0.0,0.0,0.0,0.0,0.0,0.1842,-0.9744,-0.0258,0.7215,-0.6789,0.0281,-0.1333
601,0.0,0.0,0.0,0.0,0.0,0.0,0.1715,-0.9745,-0.0321,0.7221,-0.6784,0.0283,-0.1321
602,0.0,0.0,0.0,0.0,0.0,0.0,0.1691,-0.9727,-0.0287,0.7230,-0.6777,0.0284,-0.1309
603,0.0,0.0,0.0,0.0,0.0,0.0,0.1768,-0.9847,-0.0222,0.7235,-0.6774,0.0278,-0.1297
604,0.0,0.0,0.0,0.0,0.0,0.0,0.1616,-1.0065,-0.0230,0.7239,-0.6772,0.0274,-0.1286
605,0.0,0.0,0.0,0.0,0.0,0.0,0.1518,-0.9987,-0.0330,0.7246,-0.6767,0.0277,-0.1277
606,0.0,0.0,0.0,0.0,0.0,0.0,0.1755,-0.9405,-0.0427,0.7246,-0.6768,0.0265,-0.1270
607,0.0,0.0,0.0,0.0,0.0,0.0,0.1778,-0.9713,-0.0417,0.7243,-0.6773,0.0247,-0.1268
608,0.0,0.0,0.0,0.0,0.0,0.0,0.1641,-0.9766,-0.0414,0.7243,-0.6773,0.0237,-0.1271
609,0.0,0.0,0.0,0.0,0.0,0.0,0.1725,-0.9628,-0.0458,0.7241,-0.6774,0.0225,-0.1275
610,0.0,0.0,0.0,0.0,0.0,0.0,0.1871,-0.9599,-0.0496,0.7237,-0.6778,0.0207,-0.1284
611,0.0,0.0,0.0,0.0,0.0,0.0,0.1832,-0.9747,-0.0428,0.7232,-0.6781,0.0188,-0.1293
612,0.0,0.0,0.0,0.0,0.0,0.0,0.1728,-0.9943,-0.0386,0.7229,-0.6784,0.0179,-0.1298
613,0.0,0.0,0.0,0.0,0.0,0.0,0.1787,-0.9904,-0.0394,0.7223,-0.6790,0.0169,-0.1301
614,0.0,0.0,0.0,0.0,0.0,0.0,0.1826,-0.9806,-0.0430,0.7216,-0.6798,0.0156,-0.1302
615,0.0,0.0,0.0,0.0,0.0,0.0,0.1865,-0.9796,-0.0434,0.7210,-0.6804,0.0147,-0.1304
616,0.0,0.0,0.0,0.0,0.0,0.0,0.1787,-0.9779,-0.0497,0.7202,-0.6813,0.0141,-0.1306
617,0.0,0.0,0.0,0.0,0.0,0.0,0.1763,-0.9741,-0.0467,0.7191,-0.6824,0.0135,-0.1304
618,0.0,0.0,0.0,0.0,0.0,0.0,0.1783,-0.9670,-0.0547,0.7176,-0.6840,0.0127,-0.1305
619,0.0,0.0,0.0,0.0,0.0,0.0,0.1764,-0.9447,-0.0622,0.7164,-0.6852,0.0127,-0.1312
620,0.0,0.0,0.0,0.0,0.0,0.0,0.1754,-0.9520,-0.0629,0.7154,-0.6861,0.0126,-0.1319
621,0.0,0.0,0.0,0.0,0.0,0.0,0.1533,-0.9872,-0.0573,0.7137,-0.6878,0.0124,-0.1320
622,0.0,0.0,0.0,0.0,0.0,0.0,0.1489,-0.9708,-0.0627,0.7119,-0.6897,0.0122,-0.1317
623,0.0,0.0,0.0,0.0,0.0,0.0,0.1556,-0.9943,-0.0624,0.7107,-0.6910,0.0123,-0.1313
624,0.0,0.0,0.0,0.0,0.0,0.0,0.1473,-1.0092,-0.0527,0.7097,-0.6922,0.0125,-0.1306
625,0.0,0.0,0.0,0.0,0.0,0.0,0.1453,-1.0176,-0.0496,0.7086,-0.6935,0.0125,-0.1293
626,0.0,0.0,0.0,0.0,0.0,0.0,0.1506,-1.0218,-0.0565,0.7075,-0.6951,0.0120,-0.1275
627,0.0,0.0,0.0,0.0,0.0,0.0,0.1555,-1.0189,-0.0564,0.7064,-0.6965,0.0114,-0.1254
628,0.0,0.0,0.0,0.0,0.0,0.0,0.1585,-1.0076,-0.0585,0.7061,-0.6971,0.0113,-0.1236
629,0.0,0.0,0.0,0.0,0.0,0.0,0.1668,-0.9917,-0.0686,0.7058,-0.6977,0.0106,-0.1222
630,0.0,0.0,0.0,0.0,0.0,0.0,0.1590,-0.9936,-0.0701,0.7052,-0.6985,0.0095,-0.1212
631,0.0,0.0,0.0,0.0,0.0,0.0,0.1493,-0.9792,-0.0741,0.7051,-0.6987,0.0091,-0.1210
632,0.0,0.0,0.0,0.0,0.0,0.0,0.1552,-0.9733,-0.0758,0.7050,-0.6988,0.0083,-0.1209
633,0.0,0.0,0.0,0.0,0.0,0.0,0.1551,-0.9856,-0.0748,0.7052,-0.6986,0.0074,-0.1211
634,0.0,0.0,0.0,0.0,0.0,0.0,0.1493,-0.9812,-0.0742,0.7055,-0.6981,0.0067,-0.1216
635,0.0,0.0,0.0,0.0,0.0,0.0,0.1595,-0.9907,-0.0686,0.7057,-0.6978,0.0055,-0.1222
636,0.0,0.0,0.0,0.0,0.0,0.0,0.1619,-0.9981,-0.0659,0.7061,-0.6974,0.0045,-0.1228
637,0.0,0.0,0.0,0.0,0.0,0.0,0.1610,-0.9851,-0.0762,0.7063,-0.6971,0.0036,-0.1232
638,0.0,0.0,0.0,0.0,0.0,0.0,0.1737,-0.9784,-0.0745,0.7063,-0.6971,0.0017,-0.1231
639,0.0,0.0,0.0,0.0,0.0,0.0,0.1781,-0.9770,-0.0729,0.7062,-0.6973,-0.0003,-0.1230
640,0.0,0.0,0.0,0.0,0.0,0.0,0.1752,-0.9705,-0.0781,0.7057,-0.6978,-0.0026,-0.1229
641,0.0,0.0,0.0,0.0,0.0,0.0,0.1786,-0.9685,-0.0804,0.7050,-0.6986,-0.0056,-0.1226
642,0.0,0.0,0.0,0.0,0.0,0.0,0.1801,-0.9635,-0.0832,0.7039,-0.6996,-0.0089,-0.1222
643,0.0,0.0,0.0,0.0,0.0,0.0,0.1797,-0.9586,-0.0855,0.7033,-0.7002,-0.0116,-0.1223
644,0.0,0.0,0.0,0.0,0.0,0.0,0.1835,-0.9695,-0.0804,0.7029,-0.7005,-0.0142,-0.1223
645,0.0,0.0,0.0,0.0,0.0,0.0,0.1878,-0.9783,-0.0812,0.7022,-0.7012,-0.0176,-0.1220
646,0.0,0.0,0.0,0.0,0.0,0.0,0.1873,-0.9845,-0.0843,0.7016,-0.7017,-0.0204,-0.1219
647,0.0,0.0,0.0,0.0,0.0,0.0,0.1990,-0.9894,-0.0873,0.7013,-0.7020,-0.0232,-0.1217
648,0.0,0.0,0.0,0.0,0.0,0.0,0.2170,-0.9968,-0.0880,0.7007,-0.7026,-0.0265,-0.1213
649,0.0,0.0,0.0,0.0,0.0,0.0,0.2282,-1.0047,-0.0872,0.7003,-0.7029,-0.0294,-0.1208
650,0.0,0.0,0.0,0.0,0.0,0.0,0.2330,-1.0016,-0.0958,0.7000,-0.7033,-0.0319,-0.1201
651,0.0,0.0,0.0,0.0,0.0,0.0,0.2521,-0.9910,-0.0964,0.7000,-0.7034,-0.0342,-0.1190
652,0.0,0.0,0.0,0.0,0.0,0.0,0.2590,-0.9791,-0.1023,0.6999,-0.7035,-0.0361,-0.1183
653,0.0,0.0,0.0,0.0,0.0,0.0,0.2570,-0.9715,-0.1093,0.6998,-0.7035,-0.0375,-0.1180
654,0.0,0.0,0.0,0.0,0.0,0.0,0.2531,-0.9693,-0.1151,0.6998,-0.7034,-0.0380,-0.1182
655,0.0,0.0,0.0,0.0,0.0,0.0,0.2424,-0.9711,-0.1176,0.6994,-0.7038,-0.0384,-0.1186
656,0.0,0.0,0.0,0.0,0.0,0.0,0.2443,-0.9770,-0.1159,0.6992,-0.7039,-0.0386,-0.1190
657,0.0,0.0,0.0,0.0,0.0,0.0,0.2380,-0.9715,-0.1201,0.6987,-0.7043,-0.0386,-0.1194
658,0.0,0.0,0.0,0.0,0.0,0.0,0.2385,-0.9700,-0.1191,0.6981,-0.7049,-0.0385,-0.1198
659,0.0,0.0,0.0,0.0,0.0,0.0,0.2424,-0.9680,-0.1214,0.6981,-0.7048,-0.0378,-0.1203
660,0.0,0.0,0.0,0.0,0.0,0.0,0.2390,-0.9542,-0.1249,0.6983,-0.7045,-0.0367,-0.1214
661,0.0,0.0,0.0,0.0,0.0,0.0,0.2341,-0.9586,-0.1245,0.6982,-0.7045,-0.0357,-0.1222
662,0.0,0.0,0.0,0.0,0.0,0.0,0.2355,-0.9644,-0.1252,0.6977,-0.7049,-0.0350,-0.1231
663,0.0,0.0,0.0,0.0,0.0,0.0,0.2263,-0.9638,-0.1262,0.6968,-0.7056,-0.0347,-0.1237
664,0.0,0.0,0.0,0.0,0.0,0.0,0.2282,-0.9674,-0.1210,0.6959,-0.7065,-0.0347,-0.1239
665,0.0,0.0,0.0,0.0,0.0,0.0,0.2257,-0.9803,-0.1170,0.6960,-0.7064,-0.0336,-0.1244
666,0.0,0.0,0.0,0.0,0.0,0.0,0.2213,-0.9974,-0.1142,0.6962,-0.7063,-0.0321,-0.1244
667,0.0,0.0,0.0,0.0,0.0,0.0,0.2327,-0.9611,-0.1207,0.6957,-0.7068,-0.0313,-0.1241
668,0.0,0.0,0.0,0.0,0.0,0.0,0.2267,-0.9830,-0.1098,0.6960,-0.7066,-0.0297,-0.1242
669,0.0,0.0,0.0,0.0,0.0,0.0,0.2098,-1.0455,-0.0900,0.6970,-0.7059,-0.0266,-0.1234
670,0.0,0.0,0.0,0.0,0.0,0.0,0.2128,-1.0445,-0.0909,0.6981,-0.7053,-0.0227,-0.1215
671,0.0,0.0,0.0,0.0,0.0,0.0,0.2188,-1.0106,-0.0976,0.6994,-0.7044,-0.0182,-0.1197
672,0.0,0.0,0.0,0.0,0.0,0.0,0.2388,-1.0104,-0.0961,0.7008,-0.7035,-0.0136,-0.1177
673,0.0,0.0,0.0,0.0,0.0,0.0,0.2412,-1.0167,-0.0982,0.7018,-0.7028,-0.0089,-0.1159
674,0.0,0.0,0.0,0.0,0.0,0.0,0.2111,-0.9995,-0.0944,0.7031,-0.7018,-0.0041,-0.1144
675,0.0,0.0,0.0,0.0,0.0,0.0,0.1897,-0.9877,-0.0791,0.7046,-0.7005,0.0010,-0.1132
676,0.0,0.0,0.0,0.0,0.0,0.0,0.1908,-0.9666,-0.0813,0.7068,-0.6984,0.0060,-0.1122
677,0.0,0.0,0.0,0.0,0.0,0.0,0.1769,-0.9427,-0.0777,0.7091,-0.6961,0.0101,-0.1119
678,0.0,0.0,0.0,0.0,0.0,0.0,0.1685,-0.9572,-0.0660,0.7110,-0.6941,0.0127,-0.1119
679,0.0,0.0,0.0,0.0,0.0,0.0,0.1493,-0.9916,-0.0560,0.7131,-0.6918,0.0160,-0.1125
680,0.0,0.0,0.0,0.0,0.0,0.0,0.1450,-0.9828,-0.0538,0.7154,-0.6892,0.0200,-0.1133
681,0.0,0.0,0.0,0.0,0.0,0.0,0.1476,-0.9648,-0.0523,0.7166,-0.6877,0.0230,-0.1141
682,0.0,0.0,0.0,0.0,0.0,0.0,0.1451,-0.9723,-0.0482,0.7175,-0.6865,0.0256,-0.1151
683,0.0,0.0,0.0,0.0,0.0,0.0,0.1480,-0.9814,-0.0402,0.7183,-0.6854,0.0279,-0.1160
684,0.0,0.0,0.0,0.0,0.0,0.0,0.1534,-0.9716,-0.0418,0.7191,-0.6843,0.0302,-0.1174
685,0.0,0.0,0.0,0.0,0.0,0.0,0.1554,-0.9707,-0.0403,0.7195,-0.6835,0.0321,-0.1189
686,0.0,0.0,0.0,0.0,0.0,0.0,0.1593,-0.9684,-0.0368,0.7197,-0.6829,0.0337,-0.1206
687,0.0,0.0,0.0,0.0,0.0,0.0,0.1622,-0.9719,-0.0365,0.7202,-0.6818,0.0358,-0.1229
688,0.0,0.0,0.0,0.0,0.0,0.0,0.1578,-0.9732,-0.0380,0.7203,-0.6814,0.0371,-0.1247
689,0.0,0.0,0.0,0.0,0.0,0.0,0.1710,-0.9706,-0.0335,0.7203,-0.6810,0.0378,-0.1264
690,0.0,0.0,0.0,0.0,0.0,0.0,0.1725,-0.9700,-0.0378,0.7203,-0.6805,0.0388,-0.1284
691,0.0,0.0,0.0,0.0,0.0,0.0,0.1754,-0.9743,-0.0389,0.7204,-0.6800,0.0396,-0.1306
692,0.0,0.0,0.0,0.0,0.0,0.0,0.1676,-0.9784,-0.0337,0.7202,-0.6798,0.0400,-0.1324
693,0.0,0.0,0.0,0.0,0.0,0.0,0.1636,-0.9877,-0.0297,0.7201,-0.6796,0.0403,-0.1342
694,0.0,0.0,0.0,0.0,0.0,0.0,0.1400,-1.0121,-0.0378,0.7203,-0.6789,0.0417,-0.1358
695,0.0,0.0,0.0,0.0,0.0,0.0,0.1291,-1.0488,-0.0342,0.7208,-0.6783,0.0431,-0.1363
696,0.0,0.0,0.0,0.0,0.0,0.0,0.1711,-0.9580,-0.0302,0.7213,-0.6776,0.0433,-0.1370
697,0.0,0.0,0.0,0.0,0.0,0.0,0.1719,-0.9852,-0.0349,0.7216,-0.6769,0.0432,-0.1385
698,0.0,0.0,0.0,0.0,0.0,0.0,0.1523,-1.0024,-0.0273,0.7216,-0.6767,0.0428,-0.1398
699,0.0,0.0,0.0,0.0,0.0,0.0,0.1589,-0.9654,-0.0246,0.7214,-0.6766,0.0420,-0.1412
700,0.0,0.0,0.0,0.0,0.0,0.0,0.1675,-0.9919,-0.0244,0.7215,-0.6762,0.0409,-0.1429
701,0.0,0.0,0.0,0.0,0.0,0.0,0.1695,-0.9886,-0.0200,0.7216,-0.6759,0.0392,-0.1446
702,0.0,0.0,0.0,0.0,0.0,0.0,0.1724,-0.9931,-0.0191,0.7218,-0.6754,0.0380,-0.1463
703,0.0,0.0,0.0,0.0,0.0,0.0,0.1753,-1.0078,-0.0181,0.7223,-0.6744,0.0372,-0.1485
704,0.0,0.0,0.0,0.0,0.0,0.0,0.1713,-1.0244,-0.0153,0.7235,-0.6727,0.0375,-0.1507
705,0.0,0.0,0.0,0.0,0.0,0.0,0.1753,-1.0034,-0.0175,0.7244,-0.6712,0.0378,-0.1528
706,0.0,0.0,0.0,0.0,0.0,0.0,0.1788,-0.9875,-0.0136,0.7253,-0.6697,0.0377,-0.1551
707,0.0,0.0,0.0,0.0,0.0,0.0,0.1768,-0.9950,-0.0066,0.7264,-0.6679,0.0379,-0.1577
708,0.0,0.0,0.0,0.0,0.0,0.0,0.1687,-0.9751,-0.0011,0.7270,-0.6666,0.0381,-0.1603
709,0.0,0.0,0.0,0.0,0.0,0.0,0.1708,-0.9537,-0.0009,0.7274,-0.6654,0.0383,-0.1632
710,0.0,0.0,0.0,0.0,0.0,0.0,0.1737,-0.9555,0.0078,0.7278,-0.6642,0.0381,-0.1662
711,0.0,0.0,0.0,0.0,0.0,0.0,0.1638,-0.9909,0.0173,0.7282,-0.6633,0.0381,-0.1686
712,0.0,0.0,0.0,0.0,0.0,0.0,0.1693,-0.9656,0.0186,0.7287,-0.6621,0.0386,-0.1708
713,0.0,0.0,0.0,0.0,0.0,0.0,0.1790,-0.9823,0.0191,0.7295,-0.6606,0.0393,-0.1731
714,0.0,0.0,0.0,0.0,0.0,0.0,0.1648,-1.0031,0.0320,0.7297,-0.6598,0.0399,-0.1749
715,0.0,0.0,0.0,0.0,0.0,0.0,0.1584,-0.9992,0.0316,0.7299,-0.6592,0.0409,-0.1763
716,0.0,0.0,0.0,0.0,0.0,0.0,0.1717,-0.9829,0.0244,0.7300,-0.6588,0.0414,-0.1771
717,0.0,0.0,0.0,0.0,0.0,0.0,0.1751,-0.9859,0.0253,0.7302,-0.6583,0.0419,-0.1778
718,0.0,0.0,0.0,0.0,0.0,0.0,0.1747,-0.9584,0.0208,0.7300,-0.6585,0.0420,-0.1782
719,0.0,0.0,0.0,0.0,0.0,0.0,0.1824,-0.9730,0.0184,0.7292,-0.6594,0.0412,-0.1783
720,0.0,0.0,0.0,0.0,0.0,0.0,0.1766,-0.9709,0.0151,0.7284,-0.6603,0.0407,-0.1783
721,0.0,0.0,0.0,0.0,0.0,0.0,0.1899,-0.9385,0.0074,0.7272,-0.6617,0.0391,-0.1783
722,0.0,0.0,0.0,0.0,0.0,0.0,0.1972,-0.9295,-0.0029,0.7260,-0.6629,0.0374,-0.1792
723,0.0,0.0,0.0,0.0,0.0,0.0,0.1968,-0.9315,-0.0016,0.7243,-0.6646,0.0353,-0.1800
724,0.0,0.0,0.0,0.0,0.0,0.0,0.2050,-0.9468,0.0019,0.7222,-0.6668,0.0323,-0.1807
725,0.0,0.0,0.0,0.0,0.0,0.0,0.2003,-0.9991,0.0080,0.7205,-0.6686,0.0297,-0.1815
726,0.0,0.0,0.0,0.0,0.0,0.0,0.2047,-0.9878,0.0049,0.7191,-0.6701,0.0273,-0.1819
727,0.0,0.0,0.0,0.0,0.0,0.0,0.2155,-0.9833,-0.0007,0.7176,-0.6717,0.0247,-0.1822
728,0.0,0.0,0.0,0.0,0.0,0.0,0.2202,-1.0014,-0.0017,0.7163,-0.6732,0.0225,-0.1824
729,0.0,0.0,0.0,0.0,0.0,0.0,0.2174,-0.9704,-0.0211,0.7145,-0.6753,0.0199,-0.1820
730,0.0,0.0,0.0,0.0,0.0,0.0,0.2404,-0.9638,-0.0199,0.7129,-0.6772,0.0164,-0.1812
731,0.0,0.0,0.0,0.0,0.0,0.0,0.2457,-0.9750,-0.0241,0.7119,-0.6784,0.0136,-0.1809
732,0.0,0.0,0.0,0.0,0.0,0.0,0.2506,-0.9658,-0.0359,0.7106,-0.6801,0.0104,-0.1801
733,0.0,0.0,0.0,0.0,0.0,0.0,0.2676,-0.9678,-0.0374,0.7090,-0.6818,0.0066,-0.1799
734,0.0,0.0,0.0,0.0,0.0,0.0,0.2596,-1.0059,-0.0347,0.7081,-0.6829,0.0042,-0.1795
735,0.0,0.0,0.0,0.0,0.0,0.0,0.2650,-0.9887,-0.0390,0.7074,-0.6838,0.0018,-0.1789
736,0.0,0.0,0.0,0.0,0.0,0.0,0.2772,-0.9941,-0.0415,0.7067,-0.6846,-0.0008,-0.1787
737,0.0,0.0,0.0,0.0,0.0,0.0,0.2772,-0.9974,-0.0441,0.7060,-0.6855,-0.0033,-0.1780
738,0.0,0.0,0.0,0.0,0.0,0.0,0.2816,-0.9919,-0.0492,0.7050,-0.6867,-0.0058,-0.1773
739,0.0,0.0,0.0,0.0,0.0,0.0,0.2840,-0.9865,-0.0515,0.7044,-0.6875,-0.0078,-0.1763
740,0.0,0.0,0.0,0.0,0.0,0.0,0.2865,-0.9836,-0.0509,0.7046,-0.6875,-0.0090,-0.1754
741,0.0,0.0,0.0,0.0,0.0,0.0,0.2841,-0.9802,-0.0508,0.7045,-0.6878,-0.0099,-0.1747
742,0.0,0.0,0.0,0.0,0.0,0.0,0.2890,-0.9714,-0.0510,0.7047,-0.6877,-0.0106,-0.1743
743,0.0,0.0,0.0,0.0,0.0,0.0,0.2837,-0.9559,-0.0597,0.7052,-0.6872,-0.0108,-0.1743
744,0.0,0.0,0.0,0.0,0.0,0.0,0.2818,-0.9536,-0.0577,0.7053,-0.6871,-0.0111,-0.1743
745,0.0,0.0,0.0,0.0,0.0,0.0,0.2827,-0.9541,-0.0572,0.7056,-0.6867,-0.0110,-0.1746
746,0.0,0.0,0.0,0.0,0.0,0.0,0.2817,-0.9550,-0.0597,0.7057,-0.6865,-0.0108,-0.1749
747,0.0,0.0,0.0,0.0,0.0,0.0,0.2842,-0.9573,-0.0622,0.7060,-0.6861,-0.0106,-0.1752
748,0.0,0.0,0.0,0.0,0.0,0.0,0.2802,-0.9656,-0.0625,0.7059,-0.6862,-0.0105,-0.1753
749,0.0,0.0,0.0,0.0,0.0,0.0,0.2816,-0.9670,-0.0640,0.7051,-0.6871,-0.0108,-0.1752
750,0.0,0.0,0.0,0.0,0.0,0.0,0.2772,-0.9669,-0.0669,0.7044,-0.6878,-0.0108,-0.1752
751,0.0,0.0,0.0,0.0,0.0,0.0,0.2665,-0.9712,-0.0666,0.7044,-0.6877,-0.0097,-0.1754
752,0.0,0.0,0.0,0.0,0.0,0.0,0.2572,-0.9839,-0.0631,0.7050,-0.6871,-0.0080,-0.1756
753,0.0,0.0,0.0,0.0,0.0,0.0,0.2479,-0.9859,-0.0608,0.7040,-0.6880,-0.0064,-0.1759
754,0.0,0.0,0.0,0.0,0.0,0.0,0.2495,-0.9709,-0.0560,0.7045,-0.6877,-0.0052,-0.1754
755,0.0,0.0,0.0,0.0,0.0,0.0,0.2441,-0.9721,-0.0614,0.7050,-0.6871,-0.0034,-0.1754
756,0.0,0.0,0.0,0.0,0.0,0.0,0.2421,-0.9778,-0.0528,0.7056,-0.6865,-0.0016,-0.1755
757,0.0,0.0,0.0,0.0,0.0,0.0,0.2372,-0.9822,-0.0515,0.7061,-0.6859,0.0005,-0.1759
758,0.0,0.0,0.0,0.0,0.0,0.0,0.2628,-0.9342,-0.0615,0.7068,-0.6851,0.0019,-0.1763
759,0.0,0.0,0.0,0.0,0.0,0.0,0.2839,-0.9182,-0.0653,0.7070,-0.6848,0.0020,-0.1769
760,0.0,0.0,0.0,0.0,0.0,0.0,0.2617,-0.9632,-0.0566,0.7068,-0.6848,0.0026,-0.1775
761,0.0,0.0,0.0,0.0,0.0,0.0,0.2665,-0.9760,-0.0556,0.7066,-0.6849,0.0033,-0.1779
762,0.0,0.0,0.0,0.0,0.0,0.0,0.2714,-0.9774,-0.0561,0.7067,-0.6847,0.0044,-0.1783
763,0.0,0.0,0.0,0.0,0.0,0.0,0.2674,-0.9828,-0.0558,0.7066,-0.6848,0.0054,-0.1783
764,0.0,0.0,0.0,0.0,0.0,0.0,0.2592,-0.9822,-0.0558,0.7061,-0.6853,0.0065,-0.1780
765,0.0,0.0,0.0,0.0,0.0,0.0,0.2547,-0.9870,-0.0569,0.7060,-0.6856,0.0081,-0.1776
766,0.0,0.0,0.0,0.0,0.0,0.0,0.2499,-0.9752,-0.0590,0.7054,-0.6862,0.0092,-0.1771
767,0.0,0.0,0.0,0.0,0.0,0.0,0.2440,-0.9795,-0.0601,0.7047,-0.6872,0.0100,-0.1762
768,0.0,0.0,0.0,0.0,0.0,0.0,0.2416,-0.9720,-0.0662,0.7043,-0.6880,0.0108,-0.1749
769,0.0,0.0,0.0,0.0,0.0,0.0,0.2368,-0.9562,-0.0687,0.7041,-0.6883,0.0120,-0.1742
770,0.0,0.0,0.0,0.0,0.0,0.0,0.2363,-0.9569,-0.0643,0.7041,-0.6885,0.0128,-0.1736
771,0.0,0.0,0.0,0.0,0.0,0.0,0.2353,-0.9605,-0.0712,0.7039,-0.6888,0.0133,-0.1728
772,0.0,0.0,0.0,0.0,0.0,0.0,0.2383,-0.9532,-0.0715,0.7031,-0.6898,0.0129,-0.1719
773,0.0,0.0,0.0,0.0,0.0,0.0,0.2402,-0.9602,-0.0659,0.7030,-0.6900,0.0131,-0.1717
774,0.0,0.0,0.0,0.0,0.0,0.0,0.2484,-0.9660,-0.0718,0.7027,-0.6904,0.0128,-0.1714
775,0.0,0.0,0.0,0.0,0.0,0.0,0.2451,-0.9601,-0.0721,0.7022,-0.6911,0.0120,-0.1711
776,0.0,0.0,0.0,0.0,0.0,0.0,0.2470,-0.9619,-0.0761,0.7018,-0.6915,0.0115,-0.1709
777,0.0,0.0,0.0,0.0,0.0,0.0,0.2505,-0.9521,-0.0772,0.7011,-0.6922,0.0109,-0.1709
778,0.0,0.0,0.0,0.0,0.0,0.0,0.2519,-0.9581,-0.0735,0.7014,-0.6918,0.0111,-0.1713
779,0.0,0.0,0.0,0.0,0.0,0.0,0.2489,-0.9732,-0.0735,0.7014,-0.6916,0.0113,-0.1719
780,0.0,0.0,0.0,0.0,0.0,0.0,0.2464,-0.9758,-0.0702,0.7009,-0.6921,0.0107,-0.1720
781,0.0,0.0,0.0,0.0,0.0,0.0,0.2474,-0.9774,-0.0664,0.7006,-0.6925,0.0103,-0.1719
782,0.0,0.0,0.0,0.0,0.0,0.0,0.2465,-0.9728,-0.0706,0.7007,-0.6923,0.0106,-0.1719
783,0.0,0.0,0.0,0.0,0.0,0.0,0.2431,-0.9688,-0.0729,0.7003,-0.6928,0.0103,-0.1717
784,0.0,0.0,0.0,0.0,0.0,0.0,0.2440,-0.9727,-0.0721,0.6998,-0.6934,0.0103,-0.1714
785,0.0,0.0,0.0,0.0,0.0,0.0,0.2421,-0.9743,-0.0692,0.6996,-0.6937,0.0104,-0.1711
786,0.0,0.0,0.0,0.0,0.0,0.0,0.2367,-0.9723,-0.0692,0.6989,-0.6945,0.0101,-0.1707
787,0.0,0.0,0.0,0.0,0.0,0.0,0.2332,-0.9825,-0.0695,0.6990,-0.6944,0.0108,-0.1705
788,0.0,0.0,0.0,0.0,0.0,0.0,0.2312,-0.9952,-0.0675,0.6994,-0.6940,0.0120,-0.1705
789,0.0,0.0,0.0,0.0,0.0,0.0,0.2303,-0.9863,-0.0706,0.6994,-0.6941,0.0125,-0.1700
790,0.0,0.0,0.0,0.0,0.0,0.0,0.2205,-0.9932,-0.0675,0.6993,-0.6944,0.0133,-0.1692
791,0.0,0.0,0.0,0.0,0.0,0.0,0.2224,-0.9975,-0.0690,0.6998,-0.6940,0.0145,-0.1686
792,0.0,0.0,0.0,0.0,0.0,0.0,0.2249,-0.9907,-0.0708,0.7005,-0.6934,0.0159,-0.1680
793,0.0,0.0,0.0,0.0,0.0,0.0,0.2157,-0.9855,-0.0634,0.7011,-0.6929,0.0170,-0.1673
794,0.0,0.0,0.0,0.0,0.0,0.0,0.2167,-0.9837,-0.0589,0.7017,-0.6925,0.0178,-0.1667
795,0.0,0.0,0.0,0.0,0.0,0.0,0.2157,-0.9849,-0.0541,0.7030,-0.6911,0.0195,-0.1665
796,0.0,0.0,0.0,0.0,0.0,0.0,0.2187,-0.9727,-0.0547,0.7038,-0.6904,0.0204,-0.1662
797,0.0,0.0,0.0,0.0,0.0,0.0,0.2095,-0.9607,-0.0587,0.7040,-0.6903,0.0210,-0.1657
798,0.0,0.0,0.0,0.0,0.0,0.0,0.1890,-0.9790,-0.0472,0.7048,-0.6895,0.0227,-0.1655
799,0.0,0.0,0.0,0.0,0.0,0.0,0.1928,-0.9978,-0.0425,0.7055,-0.6887,0.0239,-0.1654
800,0.0,0.0,0.0,0.0,0.0,0.0,0.2001,-0.9943,-0.0448,0.7065,-0.6877,0.0249,-0.1653
801,0.0,0.0,0.0,0.0,0.0,0.0,0.1991,-0.9934,-0.0433,0.7072,-0.6870,0.0257,-0.1650
802,0.0,0.0,0.0,0.0,0.0,0.0,0.1928,-0.9855,-0.0436,0.7078,-0.6865,0.0264,-0.1646
803,0.0,0.0,0.0,0.0,0.0,0.0,0.1978,-0.9778,-0.0413,0.7087,-0.6855,0.0274,-0.1646
804,0.0,0.0,0.0,0.0,0.0,0.0,0.2075,-0.9730,-0.0436,0.7096,-0.6844,0.0282,-0.1649
805,0.0,0.0,0.0,0.0,0.0,0.0,0.2105,-0.9666,-0.0443,0.7103,-0.6836,0.0289,-0.1653
806,0.0,0.0,0.0,0.0,0.0,0.0,0.2159,-0.9722,-0.0387,0.7112,-0.6825,0.0297,-0.1660
807,0.0,0.0,0.0,0.0,0.0,0.0,0.2236,-0.9800,-0.0428,0.7118,-0.6818,0.0295,-0.1663
808,0.0,0.0,0.0,0.0,0.0,0.0,0.2223,-0.9538,-0.0497,0.7118,-0.6816,0.0289,-0.1669
809,0.0,0.0,0.0,0.0,0.0,0.0,0.2232,-0.9715,-0.0474,0.7123,-0.6808,0.0286,-0.1684
810,0.0,0.0,0.0,0.0,0.0,0.0,0.2236,-0.9830,-0.0404,0.7122,-0.6806,0.0274,-0.1697
811,0.0,0.0,0.0,0.0,0.0,0.0,0.2275,-0.9850,-0.0381,0.7119,-0.6807,0.0261,-0.1708
812,0.0,0.0,0.0,0.0,0.0,0.0,0.2246,-0.9865,-0.0386,0.7124,-0.6799,0.0255,-0.1721
813,0.0,0.0,0.0,0.0,0.0,0.0,0.2168,-0.9836,-0.0347,0.7130,-0.6789,0.0256,-0.1732
814,0.0,0.0,0.0,0.0,0.0,0.0,0.2213,-0.9680,-0.0356,0.7129,-0.6789,0.0253,-0.1739
815,0.0,0.0,0.0,0.0,0.0,0.0,0.2257,-0.9626,-0.0369,0.7128,-0.6790,0.0249,-0.1741
816,0.0,0.0,0.0,0.0,0.0,0.0,0.2276,-0.9606,-0.0392,0.7130,-0.6787,0.0246,-0.1744
817,0.0,0.0,0.0,0.0,0.0,0.0,0.2267,-0.9587,-0.0387,0.7127,-0.6790,0.0237,-0.1743
818,0.0,0.0,0.0,0.0,0.0,0.0,0.2281,-0.9691,-0.0332,0.7130,-0.6786,0.0233,-0.1748
819,0.0,0.0,0.0,0.0,0.0,0.0,0.2291,-0.9735,-0.0333,0.7135,-0.6780,0.0230,-0.1752
820,0.0,0.0,0.0,0.0,0.0,0.0,0.2291,-0.9701,-0.0322,0.7133,-0.6782,0.0220,-0.1753
821,0.0,0.0,0.0,0.0,0.0,0.0,0.2295,-0.9731,-0.0323,0.7136,-0.6779,0.0213,-0.1754
822,0.0,0.0,0.0,0.0,0.0,0.0,0.2325,-0.9746,-0.0304,0.7138,-0.6777,0.0205,-0.1753
823,0.0,0.0,0.0,0.0,0.0,0.0,0.2378,-0.9737,-0.0313,0.7137,-0.6780,0.0192,-0.1752
824,0.0,0.0,0.0,0.0,0.0,0.0,0.2330,-0.9696,-0.0337,0.7134,-0.6783,0.0178,-0.1750
825,0.0,0.0,0.0,0.0,0.0,0.0,0.2280,-0.9824,-0.0297,0.7133,-0.6785,0.0165,-0.1749
826,0.0,0.0,0.0,0.0,0.0,0.0,0.2276,-0.9860,-0.0250,0.7135,-0.6784,0.0154,-0.1748
827,0.0,0.0,0.0,0.0,0.0,0.0,0.2261,-0.9880,-0.0217,0.7139,-0.6779,0.0146,-0.1747
828,0.0,0.0,0.0,0.0,0.0,0.0,0.2178,-0.9934,-0.0204,0.7145,-0.6774,0.0140,-0.1743
829,0.0,0.0,0.0,0.0,0.0,0.0,0.2144,-0.9923,-0.0218,0.7152,-0.6768,0.0136,-0.1741
830,0.0,0.0,0.0,0.0,0.0,0.0,0.2227,-0.9747,-0.0256,0.7157,-0.6763,0.0128,-0.1740
831,0.0,0.0,0.0,0.0,0.0,0.0,0.2160,-0.9612,-0.0325,0.7159,-0.6760,0.0119,-0.1741
832,0.0,0.0,0.0,0.0,0.0,0.0,0.2218,-0.9635,-0.0258,0.7162,-0.6757,0.0108,-0.1743
833,0.0,0.0,0.0,0.0,0.0,0.0,0.2296,-0.9636,-0.0243,0.7164,-0.6754,0.0096,-0.1745
834,0.0,0.0,0.0,0.0,0.0,0.0,0.2336,-0.9622,-0.0232,0.7164,-0.6754,0.0085,-0.1748
835,0.0,0.0,0.0,0.0,0.0,0.0,0.2409,-0.9627,-0.0257,0.7163,-0.6754,0.0074,-0.1751
836,0.0,0.0,0.0,0.0,0.0,0.0,0.2418,-0.9699,-0.0278,0.7160,-0.6757,0.0065,-0.1752
837,0.0,0.0,0.0,0.0,0.0,0.0,0.2432,-0.9744,-0.0265,0.7156,-0.6762,0.0060,-0.1750
838,0.0,0.0,0.0,0.0,0.0,0.0,0.2476,-0.9763,-0.0275,0.7150,-0.6770,0.0057,-0.1745
839,0.0,0.0,0.0,0.0,0.0,0.0,0.2554,-0.9767,-0.0323,0.7143,-0.6779,0.0056,-0.1740
840,0.0,0.0,0.0,0.0,0.0,0.0,0.2628,-0.9575,-0.0380,0.7133,-0.6790,0.0055,-0.1737
841,0.0,0.0,0.0,0.0,0.0,0.0,0.2609,-0.9500,-0.0441,0.7125,-0.6798,0.0060,-0.1736
842,0.0,0.0,0.0,0.0,0.0,0.0,0.2573,-0.9658,-0.0509,0.7113,-0.6811,0.0064,-0.1734
843,0.0,0.0,0.0,0.0,0.0,0.0,0.2479,-0.9836,-0.0544,0.7097,-0.6828,0.0070,-0.1733
844,0.0,0.0,0.0,0.0,0.0,0.0,0.2464,-0.9948,-0.0558,0.7096,-0.6829,0.0091,-0.1734
845,0.0,0.0,0.0,0.0,0.0,0.0,0.2386,-0.9813,-0.0641,0.7093,-0.6831,0.0111,-0.1736
846,0.0,0.0,0.0,0.0,0.0,0.0,0.2337,-0.9851,-0.0662,0.7083,-0.6842,0.0121,-0.1734
847,0.0,0.0,0.0,0.0,0.0,0.0,0.2259,-0.9846,-0.0647,0.7074,-0.6852,0.0130,-0.1731
848,0.0,0.0,0.0,0.0,0.0,0.0,0.2240,-0.9733,-0.0649,0.7066,-0.6861,0.0137,-0.1728
849,0.0,0.0,0.0,0.0,0.0,0.0,0.2236,-0.9709,-0.0629,0.7062,-0.6864,0.0149,-0.1731
850,0.0,0.0,0.0,0.0,0.0,0.0,0.2182,-0.9680,-0.0628,0.7056,-0.6870,0.0155,-0.1732
851,0.0,0.0,0.0,0.0,0.0,0.0,0.2241,-0.9633,-0.0578,0.7049,-0.6878,0.0153,-0.1729
852,0.0,0.0,0.0,0.0,0.0,0.0,0.2290,-0.9594,-0.0605,0.7039,-0.6888,0.0150,-0.1728
853,0.0,0.0,0.0,0.0,0.0,0.0,0.2349,-0.9601,-0.0562,0.7035,-0.6890,0.0153,-0.1733
854,0.0,0.0,0.0,0.0,0.0,0.0,0.2377,-0.9763,-0.0528,0.7030,-0.6895,0.0153,-0.1738
855,0.0,0.0,0.0,0.0,0.0,0.0,0.2367,-0.9772,-0.0557,0.7018,-0.6906,0.0146,-0.1740
856,0.0,0.0,0.0,0.0,0.0,0.0,0.2406,-0.9782,-0.0543,0.7011,-0.6913,0.0144,-0.1743
857,0.0,0.0,0.0,0.0,0.0,0.0,0.2401,-0.9944,-0.0519,0.7006,-0.6918,0.0145,-0.1745
858,0.0,0.0,0.0,0.0,0.0,0.0,0.2269,-1.0013,-0.0473,0.7005,-0.6917,0.0157,-0.1749
859,0.0,0.0,0.0,0.0,0.0,0.0,0.2282,-1.0148,-0.0511,0.7012,-0.6910,0.0176,-0.1748
860,0.0,0.0,0.0,0.0,0.0,0.0,0.2200,-1.0032,-0.0605,0.7015,-0.6908,0.0184,-0.1744
861,0.0,0.0,0.0,0.0,0.0,0.0,0.2112,-1.0002,-0.0595,0.7017,-0.6907,0.0189,-0.1738
862,0.0,0.0,0.0,0.0,0.0,0.0,0.2073,-1.0091,-0.0549,0.7025,-0.6900,0.0199,-0.1734
863,0.0,0.0,0.0,0.0,0.0,0.0,0.1942,-0.9894,-0.0577,0.7037,-0.6889,0.0208,-0.1727
864,0.0,0.0,0.0,0.0,0.0,0.0,0.1928,-0.9809,-0.0512,0.7050,-0.6879,0.0212,-0.1715
865,0.0,0.0,0.0,0.0,0.0,0.0,0.1943,-0.9844,-0.0488,0.7062,-0.6869,0.0210,-0.1702
866,0.0,0.0,0.0,0.0,0.0,0.0,0.1983,-0.9666,-0.0410,0.7077,-0.6859,0.0198,-0.1684
867,0.0,0.0,0.0,0.0,0.0,0.0,0.2150,-0.9532,-0.0381,0.7092,-0.6847,0.0177,-0.1669
868,0.0,0.0,0.0,0.0,0.0,0.0,0.2160,-0.9539,-0.0323,0.7104,-0.6839,0.0151,-0.1656
869,0.0,0.0,0.0,0.0,0.0,0.0,0.2224,-0.9418,-0.0309,0.7108,-0.6840,0.0113,-0.1637
870,0.0,0.0,0.0,0.0,0.0,0.0,0.2380,-0.9511,-0.0209,0.7117,-0.6835,0.0076,-0.1621
871,0.0,0.0,0.0,0.0,0.0,0.0,0.2443,-0.9539,-0.0263,0.7123,-0.6832,0.0037,-0.1606
872,0.0,0.0,0.0,0.0,0.0,0.0,0.2496,-0.9711,-0.0249,0.7125,-0.6835,-0.0008,-0.1589
873,0.0,0.0,0.0,0.0,0.0,0.0,0.2431,-1.0061,-0.0110,0.7128,-0.6834,-0.0040,-0.1576
874,0.0,0.0,0.0,0.0,0.0,0.0,0.2348,-1.0037,-0.0231,0.7134,-0.6831,-0.0060,-0.1561
875,0.0,0.0,0.0,0.0,0.0,0.0,0.2414,-0.9525,-0.0384,0.7134,-0.6834,-0.0088,-0.1545
876,0.0,0.0,0.0,0.0,0.0,0.0,0.2535,-0.9658,-0.0228,0.7139,-0.6830,-0.0106,-0.1541
877,0.0,0.0,0.0,0.0,0.0,0.0,0.2554,-0.9835,-0.0204,0.7149,-0.6820,-0.0113,-0.1536
878,0.0,0.0,0.0,0.0,0.0,0.0,0.2632,-0.9742,-0.0220,0.7162,-0.6808,-0.0119,-0.1529
879,0.0,0.0,0.0,0.0,0.0,0.0,0.2544,-0.9911,-0.0241,0.7173,-0.6798,-0.0123,-0.1525
880,0.0,0.0,0.0,0.0,0.0,0.0,0.2459,-1.0190,-0.0206,0.7180,-0.6792,-0.0124,-0.1519
881,0.0,0.0,0.0,0.0,0.0,0.0,0.2451,-0.9857,-0.0235,0.7187,-0.6786,-0.0123,-0.1511
882,0.0,0.0,0.0,0.0,0.0,0.0,0.2417,-0.9801,-0.0291,0.7196,-0.6778,-0.0118,-0.1504
883,0.0,0.0,0.0,0.0,0.0,0.0,0.2336,-0.9466,-0.0373,0.7199,-0.6777,-0.0116,-0.1495
884,0.0,0.0,0.0,0.0,0.0,0.0,0.2337,-0.9220,-0.0428,0.7201,-0.6776,-0.0114,-0.1493
885,0.0,0.0,0.0,0.0,0.0,0.0,0.2336,-0.9476,-0.0354,0.7200,-0.6776,-0.0115,-0.1494
886,0.0,0.0,0.0,0.0,0.0,0.0,0.2360,-0.9575,-0.0318,0.7194,-0.6781,-0.0118,-0.1500
887,0.0,0.0,0.0,0.0,0.0,0.0,0.2394,-0.9671,-0.0248,0.7189,-0.6784,-0.0115,-0.1510
888,0.0,0.0,0.0,0.0,0.0,0.0,0.2369,-0.9772,-0.0286,0.7181,-0.6790,-0.0105,-0.1522
889,0.0,0.0,0.0,0.0,0.0,0.0,0.2452,-0.9636,-0.0412,0.7167,-0.6802,-0.0098,-0.1534
890,0.0,0.0,0.0,0.0,0.0,0.0,0.2373,-0.9726,-0.0464,0.7154,-0.6812,-0.0087,-0.1549
891,0.0,0.0,0.0,0.0,0.0,0.0,0.2324,-0.9721,-0.0449,0.7144,-0.6820,-0.0074,-0.1567
892,0.0,0.0,0.0,0.0,0.0,0.0,0.2250,-0.9828,-0.0443,0.7139,-0.6821,-0.0054,-0.1583
893,0.0,0.0,0.0,0.0,0.0,0.0,0.2221,-0.9820,-0.0530,0.7132,-0.6825,-0.0033,-0.1596
894,0.0,0.0,0.0,0.0,0.0,0.0,0.2192,-0.9704,-0.0624,0.7121,-0.6833,-0.0016,-0.1611
895,0.0,0.0,0.0,0.0,0.0,0.0,0.2128,-0.9743,-0.0630,0.7116,-0.6834,0.0009,-0.1631
896,0.0,0.0,0.0,0.0,0.0,0.0,0.2104,-0.9732,-0.0664,0.7109,-0.6837,0.0033,-0.1648
897,0.0,0.0,0.0,0.0,0.0,0.0,0.2241,-0.9595,-0.0693,0.7098,-0.6844,0.0047,-0.1667
898,0.0,0.0,0.0,0.0,0.0,0.0,0.2275,-0.9590,-0.0707,0.7085,-0.6851,0.0058,-0.1691
899,0.0,0.0,0.0,0.0,0.0,0.0,0.2255,-0.9858,-0.0580,0.7073,-0.6858,0.0067,-0.1712
900,0.0,0.0,0.0,0.0,0.0,0.0,0.2136,-1.0157,-0.0507,0.7065,-0.6861,0.0081,-0.1732
901,0.0,0.0,0.0,0.0,0.0,0.0,0.2132,-1.0034,-0.0542,0.7057,-0.6866,0.0094,-0.1742
902,0.0,0.0,0.0,0.0,0.0,0.0,0.2265,-0.9890,-0.0503,0.7053,-0.6869,0.0105,-0.1750
903,0.0,0.0,0.0,0.0,0.0,0.0,0.2220,-0.9900,-0.0620,0.7055,-0.6863,0.0124,-0.1761
904,0.0,0.0,0.0,0.0,0.0,0.0,0.2167,-0.9777,-0.0631,0.7053,-0.6866,0.0133,-0.1761
905,0.0,0.0,0.0,0.0,0.0,0.0,0.2241,-0.9696,-0.0585,0.7052,-0.6866,0.0144,-0.1759
906,0.0,0.0,0.0,0.0,0.0,0.0,0.2187,-0.9844,-0.0531,0.7054,-0.6865,0.0158,-0.1759
907,0.0,0.0,0.0,0.0,0.0,0.0,0.2093,-1.0018,-0.0416,0.7057,-0.6863,0.0172,-0.1753
908,0.0,0.0,0.0,0.0,0.0,0.0,0.2132,-1.0131,-0.0405,0.7066,-0.6856,0.0187,-0.1742
909,0.0,0.0,0.0,0.0,0.0,0.0,0.2060,-0.9916,-0.0408,0.7075,-0.6850,0.0201,-0.1730
910,0.0,0.0,0.0,0.0,0.0,0.0,0.2085,-0.9819,-0.0385,0.7084,-0.6842,0.0216,-0.1720
911,0.0,0.0,0.0,0.0,0.0,0.0,0.2011,-0.9933,-0.0316,0.7094,-0.6835,0.0230,-0.1707
912,0.0,0.0,0.0,0.0,0.0,0.0,0.2148,-0.9846,-0.0332,0.7102,-0.6829,0.0241,-0.1693
913,0.0,0.0,0.0,0.0,0.0,0.0,0.2286,-0.9669,-0.0414,0.7111,-0.6823,0.0238,-0.1681
914,0.0,0.0,0.0,0.0,0.0,0.0,0.2203,-0.9846,-0.0225,0.7120,-0.6817,0.0231,-0.1669
915,0.0,0.0,0.0,0.0,0.0,0.0,0.2139,-0.9961,-0.0118,0.7132,-0.6806,0.0231,-0.1659
916,0.0,0.0,0.0,0.0,0.0,0.0,0.2100,-0.9972,-0.0084,0.7144,-0.6796,0.0231,-0.1649
917,0.0,0.0,0.0,0.0,0.0,0.0,0.2016,-1.0159,-0.0003,0.7161,-0.6781,0.0234,-0.1640
918,0.0,0.0,0.0,0.0,0.0,0.0,0.1945,-0.9786,-0.0060,0.7178,-0.6764,0.0238,-0.1631
919,0.0,0.0,0.0,0.0,0.0,0.0,0.1975,-0.9691,0.0002,0.7196,-0.6746,0.0239,-0.1628
920,0.0,0.0,0.0,0.0,0.0,0.0,0.2024,-0.9648,0.0018,0.7210,-0.6733,0.0232,-0.1622
921,0.0,0.0,0.0,0.0,0.0,0.0,0.2108,-0.9525,0.0119,0.7227,-0.6716,0.0222,-0.1618
922,0.0,0.0,0.0,0.0,0.0,0.0,0.2094,-0.9502,0.0154,0.7241,-0.6702,0.0207,-0.1615
923,0.0,0.0,0.0,0.0,0.0,0.0,0.2167,-0.9539,0.0201,0.7248,-0.6697,0.0184,-0.1610
924,0.0,0.0,0.0,0.0,0.0,0.0,0.2225,-0.9667,0.0241,0.7255,-0.6690,0.0159,-0.1605
925,0.0,0.0,0.0,0.0,0.0,0.0,0.2215,-0.9638,0.0232,0.7269,-0.6676,0.0144,-0.1604
926,0.0,0.0,0.0,0.0,0.0,0.0,0.2313,-0.9605,0.0122,0.7281,-0.6664,0.0133,-0.1604
927,0.0,0.0,0.0,0.0,0.0,0.0,0.2382,-0.9356,-0.0030,0.7279,-0.6667,0.0103,-0.1600
928,0.0,0.0,0.0,0.0,0.0,0.0,0.2387,-0.9244,-0.0046,0.7272,-0.6675,0.0067,-0.1601
929,0.0,0.0,0.0,0.0,0.0,0.0,0.2468,-0.9639,0.0068,0.7269,-0.6677,0.0037,-0.1605
930,0.0,0.0,0.0,0.0,0.0,0.0,0.2540,-0.9756,-0.0066,0.7262,-0.6685,0.0002,-0.1603
931,0.0,0.0,0.0,0.0,0.0,0.0,0.2487,-0.9662,-0.0092,0.7261,-0.6688,-0.0026,-0.1600
932,0.0,0.0,0.0,0.0,0.0,0.0,0.2447,-0.9782,-0.0150,0.7258,-0.6692,-0.0053,-0.1594
933,0.0,0.0,0.0,0.0,0.0,0.0,0.2521,-0.9683,-0.0195,0.7248,-0.6704,-0.0087,-0.1584
934,0.0,0.0,0.0,0.0,0.0,0.0,0.2560,-0.9602,-0.0289,0.7241,-0.6714,-0.0122,-0.1575
935,0.0,0.0,0.0,0.0,0.0,0.0,0.2549,-0.9751,-0.0226,0.7235,-0.6722,-0.0158,-0.1563
936,0.0,0.0,0.0,0.0,0.0,0.0,0.2588,-0.9863,-0.0229,0.7230,-0.6730,-0.0187,-0.1551
937,0.0,0.0,0.0,0.0,0.0,0.0,0.2575,-0.9554,-0.0273,0.7221,-0.6742,-0.0212,-0.1538
938,0.0,0.0,0.0,0.0,0.0,0.0,0.2642,-0.9821,-0.0208,0.7208,-0.6759,-0.0241,-0.1520
939,0.0,0.0,0.0,0.0,0.0,0.0,0.2441,-1.0023,-0.0216,0.7197,-0.6774,-0.0262,-0.1499
940,0.0,0.0,0.0,0.0,0.0,0.0,0.2521,-0.9631,-0.0305,0.7186,-0.6790,-0.0282,-0.1477
941,0.0,0.0,0.0,0.0,0.0,0.0,0.2648,-0.9502,-0.0397,0.7175,-0.6804,-0.0300,-0.1460
942,0.0,0.0,0.0,0.0,0.0,0.0,0.2691,-0.9643,-0.0401,0.7168,-0.6815,-0.0316,-0.1441
943,0.0,0.0,0.0,0.0,0.0,0.0,0.2524,-0.9688,-0.0472,0.7164,-0.6822,-0.0326,-0.1427
944,0.0,0.0,0.0,0.0,0.0,0.0,0.2486,-0.9648,-0.0495,0.7160,-0.6826,-0.0327,-0.1423
945,0.0,0.0,0.0,0.0,0.0,0.0,0.2479,-0.9894,-0.0435,0.7155,-0.6832,-0.0332,-0.1420
946,0.0,0.0,0.0,0.0,0.0,0.0,0.2263,-1.0131,-0.0443,0.7154,-0.6835,-0.0318,-0.1417
947,0.0,0.0,0.0,0.0,0.0,0.0,0.2279,-0.9883,-0.0561,0.7152,-0.6839,-0.0307,-0.1409
948,0.0,0.0,0.0,0.0,0.0,0.0,0.2338,-0.9826,-0.0520,0.7146,-0.6847,-0.0306,-0.1398
949,0.0,0.0,0.0,0.0,0.0,0.0,0.2192,-0.9795,-0.0554,0.7148,-0.6846,-0.0293,-0.1394
950,0.0,0.0,0.0,0.0,0.0,0.0,0.2148,-0.9789,-0.0559,0.7147,-0.6848,-0.0278,-0.1394
951,0.0,0.0,0.0,0.0,0.0,0.0,0.2104,-0.9755,-0.0543,0.7142,-0.6854,-0.0267,-0.1395
952,0.0,0.0,0.0,0.0,0.0,0.0,0.2080,-0.9791,-0.0496,0.7141,-0.6855,-0.0250,-0.1398
953,0.0,0.0,0.0,0.0,0.0,0.0,0.2060,-0.9811,-0.0477,0.7143,-0.6852,-0.0226,-0.1406
954,0.0,0.0,0.0,0.0,0.0,0.0,0.2006,-0.9846,-0.0449,0.7143,-0.6851,-0.0201,-0.1417
955,0.0,0.0,0.0,0.0,0.0,0.0,0.1991,-0.9978,-0.0434,0.7141,-0.6851,-0.0176,-0.1427
956,0.0,0.0,0.0,0.0,0.0,0.0,0.1927,-1.0020,-0.0475,0.7142,-0.6849,-0.0144,-0.1436
957,0.0,0.0,0.0,0.0,0.0,0.0,0.1907,-1.0134,-0.0425,0.7148,-0.6842,-0.0110,-0.1442
958,0.0,0.0,0.0,0.0,0.0,0.0,0.1996,-1.0061,-0.0418,0.7153,-0.6837,-0.0084,-0.1444
959,0.0,0.0,0.0,0.0,0.0,0.0,0.1992,-0.9874,-0.0465,0.7157,-0.6832,-0.0059,-0.1447
960,0.0,0.0,0.0,0.0,0.0,0.0,0.1914,-0.9830,-0.0469,0.7162,-0.6826,-0.0029,-0.1451
961,0.0,0.0,0.0,0.0,0.0,0.0,0.1900,-0.9787,-0.0438,0.7164,-0.6822,0.0001,-0.1458
962,0.0,0.0,0.0,0.0,0.0,0.0,0.1836,-0.9834,-0.0455,0.7168,-0.6817,0.0032,-0.1463
963,0.0,0.0,0.0,0.0,0.0,0.0,0.1924,-0.9852,-0.0392,0.7174,-0.6810,0.0058,-0.1466
964,0.0,0.0,0.0,0.0,0.0,0.0,0.1963,-0.9842,-0.0396,0.7176,-0.6808,0.0076,-0.1470
965,0.0,0.0,0.0,0.0,0.0,0.0,0.1958,-0.9808,-0.0390,0.7176,-0.6806,0.0093,-0.1474
966,0.0,0.0,0.0,0.0,0.0,0.0,0.1988,-0.9727,-0.0363,0.7178,-0.6802,0.0109,-0.1480
967,0.0,0.0,0.0,0.0,0.0,0.0,0.2042,-0.9696,-0.0420,0.7179,-0.6799,0.0123,-0.1488
968,0.0,0.0,0.0,0.0,0.0,0.0,0.2051,-0.9706,-0.0421,0.7178,-0.6799,0.0134,-0.1495
969,0.0,0.0,0.0,0.0,0.0,0.0,0.2061,-0.9773,-0.0442,0.7177,-0.6798,0.0145,-0.1503
970,0.0,0.0,0.0,0.0,0.0,0.0,0.2100,-0.9758,-0.0456,0.7178,-0.6795,0.0157,-0.1512
971,0.0,0.0,0.0,0.0,0.0,0.0,0.2085,-0.9809,-0.0409,0.7178,-0.6792,0.0168,-0.1519
972,0.0,0.0,0.0,0.0,0.0,0.0,0.1997,-0.9889,-0.0320,0.7179,-0.6791,0.0179,-0.1523
973,0.0,0.0,0.0,0.0,0.0,0.0,0.1972,-0.9927,-0.0341,0.7179,-0.6790,0.0191,-0.1523
974,0.0,0.0,0.0,0.0,0.0,0.0,0.1958,-0.9838,-0.0381,0.7176,-0.6794,0.0200,-0.1520
975,0.0,0.0,0.0,0.0,0.0,0.0,0.1978,-0.9811,-0.0332,0.7177,-0.6792,0.0213,-0.1521
976,0.0,0.0,0.0,0.0,0.0,0.0,0.2003,-0.9719,-0.0305,0.7179,-0.6789,0.0222,-0.1524
977,0.0,0.0,0.0,0.0,0.0,0.0,0.1949,-0.9764,-0.0272,0.7178,-0.6790,0.0226,-0.1526
978,0.0,0.0,0.0,0.0,0.0,0.0,0.1861,-0.9744,-0.0272,0.7180,-0.6787,0.0235,-0.1528
979,0.0,0.0,0.0,0.0,0.0,0.0,0.1891,-0.9729,-0.0276,0.7180,-0.6786,0.0240,-0.1530
980,0.0,0.0,0.0,0.0,0.0,0.0,0.1920,-0.9833,-0.0231,0.7180,-0.6785,0.0242,-0.1533
981,0.0,0.0,0.0,0.0,0.0,0.0,0.1909,-1.0021,-0.0164,0.7183,-0.6781,0.0243,-0.1536
982,0.0,0.0,0.0,0.0,0.0,0.0,0.1914,-1.0036,-0.0155,0.7185,-0.6779,0.0242,-0.1537
983,0.0,0.0,0.0,0.0,0.0,0.0,0.1885,-0.9958,-0.0153,0.7190,-0.6774,0.0245,-0.1537
984,0.0,0.0,0.0,0.0,0.0,0.0,0.1890,-0.9978,-0.0139,0.7196,-0.6768,0.0248,-0.1535
985,0.0,0.0,0.0,0.0,0.0,0.0,0.1817,-0.9958,-0.0134,0.7202,-0.6762,0.0256,-0.1532
986,0.0,0.0,0.0,0.0,0.0,0.0,0.1842,-0.9916,-0.0084,0.7212,-0.6751,0.0268,-0.1529
987,0.0,0.0,0.0,0.0,0.0,0.0,0.1964,-0.9824,-0.0104,0.7224,-0.6739,0.0280,-0.1523
988,0.0,0.0,0.0,0.0,0.0,0.0,0.1950,-0.9638,-0.0234,0.7231,-0.6732,0.0287,-0.1519
989,0.0,0.0,0.0,0.0,0.0,0.0,0.1955,-0.9602,-0.0161,0.7235,-0.6728,0.0288,-0.1517
990,0.0,0.0,0.0,0.0,0.0,0.0,0.1936,-0.9660,-0.0162,0.7240,-0.6722,0.0290,-0.1520
991,0.0,0.0,0.0,0.0,0.0,0.0,0.1877,-0.9621,-0.0142,0.7237,-0.6725,0.0283,-0.1525
992,0.0,0.0,0.0,0.0,0.0,0.0,0.1877,-0.9705,-0.0116,0.7235,-0.6726,0.0277,-0.1529
993,0.0,0.0,0.0,0.0,0.0,0.0,0.1886,-0.9748,-0.0165,0.7231,-0.6729,0.0269,-0.1534
994,0.0,0.0,0.0,0.0,0.0,0.0,0.1954,-0.9831,-0.0177,0.7222,-0.6739,0.0252,-0.1539
995,0.0,0.0,0.0,0.0,0.0,0.0,0.2003,-0.9839,-0.0221,0.7214,-0.6745,0.0240,-0.1548
996,0.0,0.0,0.0,0.0,0.0,0.0,0.1938,-1.0003,-0.0251,0.7206,-0.6753,0.0230,-0.1552
997,0.0,0.0,0.0,0.0,0.0,0.0,0.1982,-1.0019,-0.0246,0.7201,-0.6758,0.0223,-0.1555
998,0.0,0.0,0.0,0.0,0.0,0.0,0.1983,-0.9846,-0.0309,0.7197,-0.6762,0.0218,-0.1557
999,0.0,0.0,0.0,0.0,0.0,0.0,0.2008,-0.9697,-0.0377,0.7189,-0.6771,0.0208,-0.1557
1000,0.0,0.0,0.0,0.0,0.0,0.0,0.1990,-0.9437,-0.0417,0.7184,-0.6776,0.0199,-0.1561
1001,0.0,0.0,0.0,0.0,0.0,0.0,0.2081,-0.9555,-0.0425,0.7177,-0.6782,0.0185,-0.1568
1002,0.0,0.0,0.0,0.0,0.0,0.0,0.2076,-0.9573,-0.0465,0.7166,-0.6793,0.0169,-0.1573
1003,0.0,0.0,0.0,0.0,0.0,0.0,0.2213,-0.9422,-0.0624,0.7153,-0.6806,0.0146,-0.1577
1004,0.0,0.0,0.0,0.0,0.0,0.0,0.2259,-0.9143,-0.0664,0.7139,-0.6819,0.0122,-0.1589
1005,0.0,0.0,0.0,0.0,0.0,0.0,0.2303,-0.9905,-0.0635,0.7124,-0.6833,0.0103,-0.1599
1006,0.0,0.0,0.0,0.0,0.0,0.0,0.2363,-0.9549,-0.0769,0.7101,-0.6854,0.0076,-0.1608
1007,0.0,0.0,0.0,0.0,0.0,0.0,0.2193,-1.0184,-0.0867,0.7081,-0.6875,0.0060,-0.1611
1008,0.0,0.0,0.0,0.0,0.0,0.0,0.2169,-1.0157,-0.0798,0.7060,-0.6898,0.0040,-0.1601
1009,0.0,0.0,0.0,0.0,0.0,0.0,0.2013,-1.0180,-0.0785,0.7048,-0.6913,0.0031,-0.1592
1010,0.0,0.0,0.0,0.0,0.0,0.0,0.1738,-1.0347,-0.0825,0.7041,-0.6925,0.0031,-0.1571
1011,0.0,0.0,0.0,0.0,0.0,0.0,0.2065,-0.9498,-0.0909,0.7035,-0.6937,0.0027,-0.1546
1012,0.0,0.0,0.0,0.0,0.0,0.0,0.2051,-0.9470,-0.0879,0.7029,-0.6946,0.0018,-0.1532
1013,0.0,0.0,0.0,0.0,0.0,0.0,0.1840,-0.9769,-0.0783,0.7015,-0.6964,0.0000,-0.1515
1014,0.0,0.0,0.0,0.0,0.0,0.0,0.2026,-0.9645,-0.0754,0.7002,-0.6980,-0.0023,-0.1499
1015,0.0,0.0,0.0,0.0,0.0,0.0,0.2082,-1.0050,-0.0761,0.7002,-0.6983,-0.0032,-0.1484
1016,0.0,0.0,0.0,0.0,0.0,0.0,0.2336,-0.9818,-0.0899,0.6998,-0.6991,-0.0049,-0.1466
1017,0.0,0.0,0.0,0.0,0.0,0.0,0.2303,-0.9759,-0.0897,0.6992,-0.7001,-0.0067,-0.1451
1018,0.0,0.0,0.0,0.0,0.0,0.0,0.2301,-1.0087,-0.0859,0.6993,-0.7002,-0.0073,-0.1439
1019,0.0,0.0,0.0,0.0,0.0,0.0,0.2199,-0.9990,-0.0832,0.6991,-0.7008,-0.0076,-0.1420
1020,0.0,0.0,0.0,0.0,0.0,0.0,0.2165,-0.9938,-0.0782,0.6988,-0.7015,-0.0084,-0.1397
1021,0.0,0.0,0.0,0.0,0.0,0.0,0.2112,-0.9936,-0.0801,0.6986,-0.7020,-0.0087,-0.1378
1022,0.0,0.0,0.0,0.0,0.0,0.0,0.1971,-0.9869,-0.0746,0.6990,-0.7020,-0.0082,-0.1362
1023,0.0,0.0,0.0,0.0,0.0,0.0,0.2064,-0.9822,-0.0715,0.6994,-0.7019,-0.0076,-0.1348
1024,0.0,0.0,0.0,0.0,0.0,0.0,0.2020,-0.9721,-0.0790,0.6993,-0.7023,-0.0072,-0.1334
1025,0.0,0.0,0.0,0.0,0.0,0.0,0.1942,-0.9701,-0.0795,0.6992,-0.7027,-0.0070,-0.1318
1026,0.0,0.0,0.0,0.0,0.0,0.0,0.2021,-0.9759,-0.0704,0.6996,-0.7025,-0.0064,-0.1308
1027,0.0,0.0,0.0,0.0,0.0,0.0,0.2118,-0.9739,-0.0737,0.7000,-0.7021,-0.0057,-0.1303
1028,0.0,0.0,0.0,0.0,0.0,0.0,0.2300,-0.9431,-0.0799,0.7004,-0.7017,-0.0057,-0.1305
1029,0.0,0.0,0.0,0.0,0.0,0.0,0.2165,-1.0008,-0.0716,0.7007,-0.7013,-0.0055,-0.1312
1030,0.0,0.0,0.0,0.0,0.0,0.0,0.2061,-1.0272,-0.0681,0.7009,-0.7009,-0.0045,-0.1319
1031,0.0,0.0,0.0,0.0,0.0,0.0,0.2008,-1.0209,-0.0670,0.7018,-0.6998,-0.0027,-0.1328
1032,0.0,0.0,0.0,0.0,0.0,0.0,0.1951,-0.9913,-0.0733,0.7030,-0.6985,-0.0006,-0.1336
1033,0.0,0.0,0.0,0.0,0.0,0.0,0.1912,-0.9910,-0.0675,0.7042,-0.6971,0.0013,-0.1344
1034,0.0,0.0,0.0,0.0,0.0,0.0,0.1903,-0.9951,-0.0623,0.7049,-0.6963,0.0024,-0.1349
1035,0.0,0.0,0.0,0.0,0.0,0.0,0.1884,-0.9806,-0.0589,0.7057,-0.6954,0.0036,-0.1356
1036,0.0,0.0,0.0,0.0,0.0,0.0,0.1904,-0.9740,-0.0524,0.7067,-0.6942,0.0048,-0.1365
1037,0.0,0.0,0.0,0.0,0.0,0.0,0.1846,-0.9785,-0.0472,0.7077,-0.6930,0.0060,-0.1374
1038,0.0,0.0,0.0,0.0,0.0,0.0,0.1797,-0.9831,-0.0416,0.7092,-0.6913,0.0080,-0.1385
1039,0.0,0.0,0.0,0.0,0.0,0.0,0.1817,-0.9748,-0.0423,0.7104,-0.6897,0.0098,-0.1396
1040,0.0,0.0,0.0,0.0,0.0,0.0,0.1802,-0.9787,-0.0405,0.7115,-0.6885,0.0110,-0.1405
1041,0.0,0.0,0.0,0.0,0.0,0.0,0.1802,-0.9814,-0.0333,0.7126,-0.6870,0.0123,-0.1413
1042,0.0,0.0,0.0,0.0,0.0,0.0,0.1822,-0.9656,-0.0391,0.7127,-0.6868,0.0124,-0.1417
1043,0.0,0.0,0.0,0.0,0.0,0.0,0.1851,-0.9740,-0.0359,0.7132,-0.6863,0.0126,-0.1425
1044,0.0,0.0,0.0,0.0,0.0,0.0,0.1895,-0.9835,-0.0323,0.7141,-0.6851,0.0131,-0.1435
1045,0.0,0.0,0.0,0.0,0.0,0.0,0.1939,-0.9726,-0.0359,0.7147,-0.6843,0.0131,-0.1442
1046,0.0,0.0,0.0,0.0,0.0,0.0,0.1974,-0.9600,-0.0359,0.7150,-0.6837,0.0127,-0.1452
1047,0.0,0.0,0.0,0.0,0.0,0.0,0.1979,-0.9704,-0.0309,0.7154,-0.6832,0.0122,-0.1463
1048,0.0,0.0,0.0,0.0,0.0,0.0,0.1929,-0.9817,-0.0289,0.7160,-0.6822,0.0125,-0.1474
1049,0.0,0.0,0.0,0.0,0.0,0.0,0.2017,-0.9846,-0.0294,0.7165,-0.6815,0.0126,-0.1483
1050,0.0,0.0,0.0,0.0,0.0,0.0,0.2036,-0.9931,-0.0258,0.7168,-0.6811,0.0124,-0.1488
1051,0.0,0.0,0.0,0.0,0.0,0.0,0.2041,-0.9935,-0.0282,0.7171,-0.6807,0.0123,-0.1491
1052,0.0,0.0,0.0,0.0,0.0,0.0,0.2109,-0.9897,-0.0266,0.7178,-0.6799,0.0128,-0.1494
1053,0.0,0.0,0.0,0.0,0.0,0.0,0.2055,-0.9995,-0.0245,0.7182,-0.6795,0.0131,-0.1497
1054,0.0,0.0,0.0,0.0,0.0,0.0,0.1933,-0.9997,-0.0299,0.7187,-0.6791,0.0132,-0.1490
1055,0.0,0.0,0.0,0.0,0.0,0.0,0.1914,-0.9925,-0.0253,0.7199,-0.6780,0.0137,-0.1481
1056,0.0,0.0,0.0,0.0,0.0,0.0,0.1778,-0.9890,-0.0248,0.7208,-0.6772,0.0139,-0.1471
1057,0.0,0.0,0.0,0.0,0.0,0.0,0.1764,-0.9760,-0.0322,0.7221,-0.6761,0.0145,-0.1461
1058,0.0,0.0,0.0,0.0,0.0,0.0,0.1844,-0.9289,-0.0442,0.7227,-0.6755,0.0144,-0.1457
1059,0.0,0.0,0.0,0.0,0.0,0.0,0.1840,-0.9108,-0.0456,0.7221,-0.6761,0.0129,-0.1458
1060,0.0,0.0,0.0,0.0,0.0,0.0,0.1866,-0.9585,-0.0466,0.7210,-0.6773,0.0105,-0.1462
1061,0.0,0.0,0.0,0.0,0.0,0.0,0.2033,-0.9480,-0.0462,0.7196,-0.6788,0.0075,-0.1465
1062,0.0,0.0,0.0,0.0,0.0,0.0,0.2159,-0.9693,-0.0391,0.7184,-0.6799,0.0047,-0.1467
1063,0.0,0.0,0.0,0.0,0.0,0.0,0.2044,-1.0201,-0.0334,0.7177,-0.6808,0.0029,-0.1463
1064,0.0,0.0,0.0,0.0,0.0,0.0,0.2158,-0.9848,-0.0410,0.7172,-0.6814,0.0015,-0.1458
1065,0.0,0.0,0.0,0.0,0.0,0.0,0.2231,-0.9662,-0.0583,0.7165,-0.6823,-0.0000,-0.1454
1066,0.0,0.0,0.0,0.0,0.0,0.0,0.2207,-0.9736,-0.0576,0.7155,-0.6835,-0.0017,-0.1444
1067,0.0,0.0,0.0,0.0,0.0,0.0,0.2207,-0.9674,-0.0657,0.7143,-0.6851,-0.0033,-0.1431
1068,0.0,0.0,0.0,0.0,0.0,0.0,0.2162,-0.9711,-0.0702,0.7124,-0.6872,-0.0052,-0.1417
1069,0.0,0.0,0.0,0.0,0.0,0.0,0.2157,-0.9783,-0.0723,0.7108,-0.6893,-0.0068,-0.1402
1070,0.0,0.0,0.0,0.0,0.0,0.0,0.2088,-0.9772,-0.0767,0.7090,-0.6914,-0.0083,-0.1383
1071,0.0,0.0,0.0,0.0,0.0,0.0,0.2035,-0.9755,-0.0820,0.7071,-0.6938,-0.0099,-0.1361
1072,0.0,0.0,0.0,0.0,0.0,0.0,0.1936,-0.9860,-0.0853,0.7059,-0.6954,-0.0106,-0.1341
1073,0.0,0.0,0.0,0.0,0.0,0.0,0.2108,-0.9687,-0.0958,0.7048,-0.6969,-0.0115,-0.1323
1074,0.0,0.0,0.0,0.0,0.0,0.0,0.2039,-0.9711,-0.1081,0.7029,-0.6991,-0.0136,-0.1303
1075,0.0,0.0,0.0,0.0,0.0,0.0,0.2048,-0.9820,-0.1050,0.7010,-0.7013,-0.0164,-0.1282
1076,0.0,0.0,0.0,0.0,0.0,0.0,0.2088,-0.9696,-0.1095,0.6992,-0.7034,-0.0189,-0.1267
1077,0.0,0.0,0.0,0.0,0.0,0.0,0.2166,-0.9688,-0.1089,0.6981,-0.7045,-0.0208,-0.1259
1078,0.0,0.0,0.0,0.0,0.0,0.0,0.2179,-1.0053,-0.0965,0.6973,-0.7055,-0.0228,-0.1249
1079,0.0,0.0,0.0,0.0,0.0,0.0,0.2124,-1.0238,-0.0952,0.6965,-0.7064,-0.0241,-0.1236
1080,0.0,0.0,0.0,0.0,0.0,0.0,0.2085,-1.0144,-0.1007,0.6962,-0.7070,-0.0244,-0.1222
1081,0.0,0.0,0.0,0.0,0.0,0.0,0.2111,-0.9921,-0.1097,0.6955,-0.7079,-0.0248,-0.1206
1082,0.0,0.0,0.0,0.0,0.0,0.0,0.2145,-0.9886,-0.1134,0.6952,-0.7084,-0.0246,-0.1196
1083,0.0,0.0,0.0,0.0,0.0,0.0,0.2096,-0.9838,-0.1099,0.6955,-0.7083,-0.0232,-0.1189
1084,0.0,0.0,0.0,0.0,0.0,0.0,0.2063,-0.9738,-0.1149,0.6952,-0.7087,-0.0224,-0.1181
1085,0.0,0.0,0.0,0.0,0.0,0.0,0.1906,-0.9761,-0.1165,0.6947,-0.7093,-0.0213,-0.1179
1086,0.0,0.0,0.0,0.0,0.0,0.0,0.1775,-0.9732,-0.1131,0.6947,-0.7094,-0.0197,-0.1174
1087,0.0,0.0,0.0,0.0,0.0,0.0,0.1908,-0.9502,-0.1172,0.6940,-0.7101,-0.0195,-0.1169
1088,0.0,0.0,0.0,0.0,0.0,0.0,0.1795,-0.9759,-0.1040,0.6939,-0.7102,-0.0190,-0.1167
1089,0.0,0.0,0.0,0.0,0.0,0.0,0.1765,-0.9759,-0.1059,0.6941,-0.7101,-0.0183,-0.1166
1090,0.0,0.0,0.0,0.0,0.0,0.0,0.1912,-0.9587,-0.1121,0.6944,-0.7098,-0.0177,-0.1170
1091,0.0,0.0,0.0,0.0,0.0,0.0,0.1852,-1.0044,-0.1019,0.6951,-0.7090,-0.0163,-0.1176
1092,0.0,0.0,0.0,0.0,0.0,0.0,0.1714,-1.0394,-0.0871,0.6959,-0.7083,-0.0147,-0.1174
1093,0.0,0.0,0.0,0.0,0.0,0.0,0.1763,-1.0268,-0.0857,0.6970,-0.7074,-0.0130,-0.1170
1094,0.0,0.0,0.0,0.0,0.0,0.0,0.1881,-1.0097,-0.0890,0.6983,-0.7061,-0.0113,-0.1170
1095,0.0,0.0,0.0,0.0,0.0,0.0,0.1994,-0.9947,-0.0885,0.6997,-0.7047,-0.0100,-0.1171
1096,0.0,0.0,0.0,0.0,0.0,0.0,0.1927,-0.9864,-0.0863,0.7010,-0.7034,-0.0088,-0.1175
1097,0.0,0.0,0.0,0.0,0.0,0.0,0.1956,-0.9806,-0.0861,0.7022,-0.7020,-0.0079,-0.1184
1098,0.0,0.0,0.0,0.0,0.0,0.0,0.1957,-0.9735,-0.0815,0.7041,-0.6999,-0.0063,-0.1200
1099,0.0,0.0,0.0,0.0,0.0,0.0,0.1913,-0.9841,-0.0692,0.7055,-0.6982,-0.0050,-0.1216
1100,0.0,0.0,0.0,0.0,0.0,0.0,0.1956,-1.0069,-0.0607,0.7067,-0.6967,-0.0039,-0.1234
1101,0.0,0.0,0.0,0.0,0.0,0.0,0.1898,-0.9971,-0.0614,0.7084,-0.6946,-0.0021,-0.1254
1102,0.0,0.0,0.0,0.0,0.0,0.0,0.1982,-0.9761,-0.0636,0.7100,-0.6928,-0.0010,-0.1267
1103,0.0,0.0,0.0,0.0,0.0,0.0,0.2140,-0.9486,-0.0593,0.7114,-0.6909,0.0002,-0.1289
1104,0.0,0.0,0.0,0.0,0.0,0.0,0.2076,-0.9404,-0.0683,0.7124,-0.6892,0.0018,-0.1321
1105,0.0,0.0,0.0,0.0,0.0,0.0,0.2228,-0.9507,-0.0554,0.7132,-0.6878,0.0028,-0.1353
1106,0.0,0.0,0.0,0.0,0.0,0.0,0.2222,-0.9670,-0.0496,0.7139,-0.6864,0.0042,-0.1385
1107,0.0,0.0,0.0,0.0,0.0,0.0,0.2266,-0.9657,-0.0467,0.7144,-0.6853,0.0056,-0.1415
1108,0.0,0.0,0.0,0.0,0.0,0.0,0.2396,-0.9928,-0.0421,0.7147,-0.6844,0.0068,-0.1439
1109,0.0,0.0,0.0,0.0,0.0,0.0,0.2300,-0.9618,-0.0470,0.7142,-0.6845,0.0077,-0.1457
1110,0.0,0.0,0.0,0.0,0.0,0.0,0.2497,-0.9331,-0.0489,0.7140,-0.6844,0.0076,-0.1475
1111,0.0,0.0,0.0,0.0,0.0,0.0,0.2509,-0.9853,-0.0496,0.7139,-0.6840,0.0074,-0.1495
1112,0.0,0.0,0.0,0.0,0.0,0.0,0.2329,-0.9803,-0.0486,0.7143,-0.6832,0.0080,-0.1512
1113,0.0,0.0,0.0,0.0,0.0,0.0,0.2367,-0.9877,-0.0488,0.7145,-0.6827,0.0084,-0.1527
1114,0.0,0.0,0.0,0.0,0.0,0.0,0.2313,-0.9946,-0.0451,0.7144,-0.6825,0.0088,-0.1540
1115,0.0,0.0,0.0,0.0,0.0,0.0,0.2319,-0.9863,-0.0434,0.7145,-0.6822,0.0094,-0.1551
1116,0.0,0.0,0.0,0.0,0.0,0.0,0.2276,-0.9653,-0.0452,0.7145,-0.6818,0.0099,-0.1563
1117,0.0,0.0,0.0,0.0,0.0,0.0,0.2223,-0.9561,-0.0425,0.7147,-0.6813,0.0106,-0.1579
1118,0.0,0.0,0.0,0.0,0.0,0.0,0.2223,-0.9636,-0.0355,0.7152,-0.6804,0.0113,-0.1595
1119,0.0,0.0,0.0,0.0,0.0,0.0,0.2178,-0.9854,-0.0265,0.7156,-0.6795,0.0121,-0.1611
1120,0.0,0.0,0.0,0.0,0.0,0.0,0.2095,-0.9909,-0.0204,0.7158,-0.6791,0.0129,-0.1622
1121,0.0,0.0,0.0,0.0,0.0,0.0,0.2018,-0.9828,-0.0138,0.7160,-0.6787,0.0138,-0.1630
1122,0.0,0.0,0.0,0.0,0.0,0.0,0.1900,-0.9931,-0.0093,0.7168,-0.6775,0.0156,-0.1638
1123,0.0,0.0,0.0,0.0,0.0,0.0,0.1880,-0.9992,-0.0144,0.7181,-0.6761,0.0180,-0.1639
1124,0.0,0.0,0.0,0.0,0.0,0.0,0.1965,-0.9557,-0.0183,0.7189,-0.6753,0.0194,-0.1637
1125,0.0,0.0,0.0,0.0,0.0,0.0,0.1911,-0.9616,-0.0176,0.7190,-0.6752,0.0204,-0.1635
1126,0.0,0.0,0.0,0.0,0.0,0.0,0.1887,-0.9625,-0.0171,0.7189,-0.6753,0.0213,-0.1632
1127,0.0,0.0,0.0,0.0,0.0,0.0,0.1951,-0.9508,-0.0182,0.7188,-0.6755,0.0221,-0.1629
1128,0.0,0.0,0.0,0.0,0.0,0.0,0.1917,-0.9423,-0.0242,0.7182,-0.6762,0.0223,-0.1626
1129,0.0,0.0,0.0,0.0,0.0,0.0,0.1936,-0.9538,-0.0299,0.7175,-0.6770,0.0224,-0.1625
1130,0.0,0.0,0.0,0.0,0.0,0.0,0.1964,-0.9589,-0.0383,0.7165,-0.6781,0.0223,-0.1623
1131,0.0,0.0,0.0,0.0,0.0,0.0,0.1920,-0.9562,-0.0451,0.7151,-0.6795,0.0219,-0.1625
1132,0.0,0.0,0.0,0.0,0.0,0.0,0.1973,-0.9708,-0.0484,0.7135,-0.6811,0.0214,-0.1630
1133,0.0,0.0,0.0,0.0,0.0,0.0,0.2026,-0.9865,-0.0465,0.7119,-0.6828,0.0203,-0.1631
1134,0.0,0.0,0.0,0.0,0.0,0.0,0.2035,-0.9964,-0.0565,0.7105,-0.6843,0.0194,-0.1632
1135,0.0,0.0,0.0,0.0,0.0,0.0,0.2078,-0.9903,-0.0640,0.7093,-0.6854,0.0188,-0.1634
1136,0.0,0.0,0.0,0.0,0.0,0.0,0.2147,-0.9824,-0.0676,0.7080,-0.6869,0.0177,-0.1634
1137,0.0,0.0,0.0,0.0,0.0,0.0,0.2147,-0.9827,-0.0735,0.7067,-0.6882,0.0167,-0.1634
1138,0.0,0.0,0.0,0.0,0.0,0.0,0.2167,-0.9727,-0.0794,0.7055,-0.6894,0.0156,-0.1635
1139,0.0,0.0,0.0,0.0,0.0,0.0,0.2171,-0.9775,-0.0825,0.7040,-0.6909,0.0144,-0.1636
1140,0.0,0.0,0.0,0.0,0.0,0.0,0.2147,-0.9729,-0.0892,0.7029,-0.6920,0.0138,-0.1640
1141,0.0,0.0,0.0,0.0,0.0,0.0,0.2195,-0.9807,-0.0904,0.7018,-0.6930,0.0130,-0.1644
1142,0.0,0.0,0.0,0.0,0.0,0.0,0.2277,-0.9880,-0.0920,0.7011,-0.6937,0.0121,-0.1649
1143,0.0,0.0,0.0,0.0,0.0,0.0,0.2317,-0.9786,-0.0961,0.6999,-0.6948,0.0108,-0.1651
1144,0.0,0.0,0.0,0.0,0.0,0.0,0.2199,-0.9802,-0.1161,0.6988,-0.6961,0.0096,-0.1646
1145,0.0,0.0,0.0,0.0,0.0,0.0,0.2121,-0.9725,-0.1251,0.6971,-0.6986,0.0065,-0.1611
1146,0.0,0.0,0.0,0.0,0.0,0.0,0.1983,-0.9919,-0.1253,0.6948,-0.7022,0.0038,-0.1555
1147,0.0,0.0,0.0,0.0,0.0,0.0,0.2010,-0.9598,-0.1111,0.6935,-0.7046,0.0021,-0.1504
1148,0.0,0.0,0.0,0.0,0.0,0.0,0.2404,-0.9854,-0.0996,0.6929,-0.7054,0.0002,-0.1494
1149,0.0,0.0,0.0,0.0,0.0,0.0,0.2574,-0.9994,-0.1083,0.6919,-0.7064,-0.0012,-0.1493
1150,0.0,0.0,0.0,0.0,0.0,0.0,0.2564,-0.9887,-0.1186,0.6915,-0.7066,-0.0015,-0.1500
1151,0.0,0.0,0.0,0.0,0.0,0.0,0.2350,-0.9796,-0.1233,0.6911,-0.7069,-0.0016,-0.1506
1152,0.0,0.0,0.0,0.0,0.0,0.0,0.2310,-0.9863,-0.1269,0.6903,-0.7077,-0.0022,-0.1504
1153,0.0,0.0,0.0,0.0,0.0,0.0,0.2262,-0.9776,-0.1242,0.6902,-0.7079,-0.0021,-0.1501
1154,0.0,0.0,0.0,0.0,0.0,0.0,0.2448,-0.9680,-0.1229,0.6902,-0.7079,-0.0026,-0.1501
1155,0.0,0.0,0.0,0.0,0.0,0.0,0.2204,-0.9673,-0.1244,0.6899,-0.7083,-0.0030,-0.1496
1156,0.0,0.0,0.0,0.0,0.0,0.0,0.2692,-0.9753,-0.1021,0.6904,-0.7076,-0.0042,-0.1505
1157,0.0,0.0,0.0,0.0,0.0,0.0,0.2160,-0.9747,-0.1193,0.6905,-0.7072,-0.0036,-0.1521
1158,0.0,0.0,0.0,0.0,0.0,0.0,0.2004,-0.9730,-0.1237,0.6904,-0.7070,-0.0029,-0.1532
1159,0.0,0.0,0.0,0.0,0.0,0.0,0.2213,-0.9797,-0.1180,0.6913,-0.7061,-0.0022,-0.1537
1160,0.0,0.0,0.0,0.0,0.0,0.0,0.2263,-0.9765,-0.1130,0.6925,-0.7049,-0.0015,-0.1536
1161,0.0,0.0,0.0,0.0,0.0,0.0,0.2351,-0.9675,-0.1069,0.6933,-0.7043,-0.0015,-0.1529
1162,0.0,0.0,0.0,0.0,0.0,0.0,0.2386,-0.9631,-0.1082,0.6938,-0.7039,-0.0019,-0.1521
1163,0.0,0.0,0.0,0.0,0.0,0.0,0.2385,-0.9721,-0.1012,0.6944,-0.7035,-0.0023,-0.1512
1164,0.0,0.0,0.0,0.0,0.0,0.0,0.2385,-0.9752,-0.0984,0.6949,-0.7032,-0.0028,-0.1502
1165,0.0,0.0,0.0,0.0,0.0,0.0,0.2386,-0.9714,-0.0944,0.6953,-0.7031,-0.0037,-0.1494
1166,0.0,0.0,0.0,0.0,0.0,0.0,0.2313,-0.9685,-0.0933,0.6955,-0.7030,-0.0045,-0.1486
1167,0.0,0.0,0.0,0.0,0.0,0.0,0.2122,-0.9742,-0.1052,0.6955,-0.7033,-0.0052,-0.1471
1168,0.0,0.0,0.0,0.0,0.0,0.0,0.1607,-0.9900,-0.1287,0.6943,-0.7056,-0.0072,-0.1415
1169,0.0,0.0,0.0,0.0,0.0,0.0,0.2702,-0.9395,-0.0529,0.6956,-0.7053,-0.0115,-0.1364
1170,0.0,0.0,0.0,0.0,0.0,0.0,0.2679,-0.9759,-0.0711,0.6971,-0.7038,-0.0136,-0.1364
1171,0.0,0.0,0.0,0.0,0.0,0.0,0.2621,-0.9720,-0.0690,0.6978,-0.7028,-0.0145,-0.1377
1172,0.0,0.0,0.0,0.0,0.0,0.0,0.2172,-0.9667,-0.0860,0.6989,-0.7011,-0.0123,-0.1409
1173,0.0,0.0,0.0,0.0,0.0,0.0,0.1868,-0.9801,-0.0978,0.6993,-0.7004,-0.0102,-0.1424
1174,0.0,0.0,0.0,0.0,0.0,0.0,0.2073,-0.9826,-0.0866,0.6997,-0.7000,-0.0096,-0.1425
1175,0.0,0.0,0.0,0.0,0.0,0.0,0.2132,-0.9822,-0.0861,0.7001,-0.6997,-0.0095,-0.1418
1176,0.0,0.0,0.0,0.0,0.0,0.0,0.2176,-0.9789,-0.0850,0.7001,-0.7000,-0.0102,-0.1405
1177,0.0,0.0,0.0,0.0,0.0,0.0,0.2200,-0.9784,-0.0849,0.7002,-0.7002,-0.0110,-0.1390
1178,0.0,0.0,0.0,0.0,0.0,0.0,0.2195,-0.9780,-0.0835,0.7004,-0.7002,-0.0118,-0.1377
1179,0.0,0.0,0.0,0.0,0.0,0.0,0.2137,-0.9819,-0.0812,0.7008,-0.7001,-0.0126,-0.1364
1180,0.0,0.0,0.0,0.0,0.0,0.0,0.2112,-0.9819,-0.0812,0.7017,-0.6994,-0.0127,-0.1352
1181,0.0,0.0,0.0,0.0,0.0,0.0,0.2079,-0.9770,-0.0811,0.7022,-0.6992,-0.0136,-0.1337
1182,0.0,0.0,0.0,0.0,0.0,0.0,0.2074,-0.9752,-0.0771,0.7024,-0.6992,-0.0151,-0.1321
1183,0.0,0.0,0.0,0.0,0.0,0.0,0.2084,-0.9759,-0.0723,0.7034,-0.6985,-0.0158,-0.1308
1184,0.0,0.0,0.0,0.0,0.0,0.0,0.2094,-0.9695,-0.0735,0.7039,-0.6982,-0.0173,-0.1297
1185,0.0,0.0,0.0,0.0,0.0,0.0,0.2079,-0.9670,-0.0740,0.7042,-0.6980,-0.0191,-0.1284
1186,0.0,0.0,0.0,0.0,0.0,0.0,0.2089,-0.9711,-0.0683,0.7050,-0.6974,-0.0208,-0.1272
1187,0.0,0.0,0.0,0.0,0.0,0.0,0.2158,-0.9665,-0.0623,0.7060,-0.6965,-0.0227,-0.1263
1188,0.0,0.0,0.0,0.0,0.0,0.0,0.2149,-0.9621,-0.0626,0.7071,-0.6954,-0.0248,-0.1259
1189,0.0,0.0,0.0,0.0,0.0,0.0,0.2079,-0.9750,-0.0684,0.7076,-0.6950,-0.0271,-0.1247
1190,0.0,0.0,0.0,0.0,0.0,0.0,0.2207,-0.9707,-0.0551,0.7084,-0.6943,-0.0291,-0.1234
1191,0.0,0.0,0.0,0.0,0.0,0.0,0.2192,-0.9767,-0.0509,0.7091,-0.6938,-0.0314,-0.1221
1192,0.0,0.0,0.0,0.0,0.0,0.0,0.2216,-0.9865,-0.0498,0.7095,-0.6935,-0.0339,-0.1206
1193,0.0,0.0,0.0,0.0,0.0,0.0,0.2211,-0.9831,-0.0511,0.7101,-0.6931,-0.0357,-0.1190
1194,0.0,0.0,0.0,0.0,0.0,0.0,0.2226,-0.9693,-0.0555,0.7107,-0.6927,-0.0373,-0.1174
1195,0.0,0.0,0.0,0.0,0.0,0.0,0.2246,-0.9612,-0.0640,0.7113,-0.6922,-0.0387,-0.1160
1196,0.0,0.0,0.0,0.0,0.0,0.0,0.2295,-0.9571,-0.0692,0.7108,-0.6928,-0.0410,-0.1146
1197,0.0,0.0,0.0,0.0,0.0,0.0,0.2295,-0.9571,-0.0692,0.7098,-0.6938,-0.0437,-0.1132
1198,0.0,0.0,0.0,0.0,0.0,0.0,0.2260,-0.9583,-0.0760,0.7101,-0.6936,-0.0448,-0.1126
1199,0.0,0.0,0.0,0.0,0.0,0.0,0.2255,-0.9610,-0.0815,0.7102,-0.6936,-0.0457,-0.1119
1200,0.0,0.0,0.0,0.0,0.0,0.0,0.2308,-0.9643,-0.0864,0.7089,-0.6949,-0.0478,-0.1109
1201,0.0,0.0,0.0,0.0,0.0,0.0,0.2362,-0.9712,-0.0856,0.7080,-0.6957,-0.0498,-0.1105
1202,0.0,0.0,0.0,0.0,0.0,0.0,0.2361,-0.9785,-0.0873,0.7075,-0.6962,-0.0515,-0.1102
1203,0.0,0.0,0.0,0.0,0.0,0.0,0.2386,-0.9800,-0.0849,0.7068,-0.6968,-0.0537,-0.1098
1204,0.0,0.0,0.0,0.0,0.0,0.0,0.2366,-0.9824,-0.0865,0.7058,-0.6977,-0.0560,-0.1093
1205,0.0,0.0,0.0,0.0,0.0,0.0,0.2371,-0.9766,-0.0863,0.7045,-0.6989,-0.0585,-0.1086
1206,0.0,0.0,0.0,0.0,0.0,0.0,0.2376,-0.9785,-0.0878,0.7045,-0.6989,-0.0596,-0.1081
1207,0.0,0.0,0.0,0.0,0.0,0.0,0.2341,-0.9818,-0.0894,0.7047,-0.6988,-0.0603,-0.1075
1208,0.0,0.0,0.0,0.0,0.0,0.0,0.2341,-0.9793,-0.0922,0.7042,-0.6992,-0.0616,-0.1066
1209,0.0,0.0,0.0,0.0,0.0,0.0,0.2396,-0.9684,-0.0957,0.7037,-0.6998,-0.0632,-0.1056
1210,0.0,0.0,0.0,0.0,0.0,0.0,0.2440,-0.9592,-0.0969,0.7037,-0.6997,-0.0641,-0.1050
1211,0.0,0.0,0.0,0.0,0.0,0.0,0.2455,-0.9582,-0.0973,0.7036,-0.6998,-0.0652,-0.1046
1212,0.0,0.0,0.0,0.0,0.0,0.0,0.2454,-0.9675,-0.0952,0.7033,-0.7000,-0.0666,-0.1043
1213,0.0,0.0,0.0,0.0,0.0,0.0,0.2478,-0.9733,-0.0973,0.7035,-0.6998,-0.0672,-0.1041
1214,0.0,0.0,0.0,0.0,0.0,0.0,0.2473,-0.9772,-0.0984,0.7034,-0.6999,-0.0682,-0.1036
1215,0.0,0.0,0.0,0.0,0.0,0.0,0.2473,-0.9723,-0.0977,0.7029,-0.7003,-0.0693,-0.1032
1216,0.0,0.0,0.0,0.0,0.0,0.0,0.2488,-0.9739,-0.0949,0.7029,-0.7003,-0.0700,-0.1030
1217,0.0,0.0,0.0,0.0,0.0,0.0,0.2507,-0.9813,-0.0932,0.7029,-0.7003,-0.0704,-0.1028
1218,0.0,0.0,0.0,0.0,0.0,0.0,0.2526,-0.9877,-0.0909,0.7030,-0.7002,-0.0708,-0.1026
1219,0.0,0.0,0.0,0.0,0.0,0.0,0.2507,-0.9883,-0.0895,0.7032,-0.7000,-0.0709,-0.1022
1220,0.0,0.0,0.0,0.0,0.0,0.0,0.2487,-0.9848,-0.0894,0.7036,-0.6997,-0.0708,-0.1018
1221,0.0,0.0,0.0,0.0,0.0,0.0,0.2454,-0.9756,-0.0877,0.7040,-0.6994,-0.0706,-0.1013
1222,0.0,0.0,0.0,0.0,0.0,0.0,0.2445,-0.9678,-0.0874,0.7045,-0.6990,-0.0704,-0.1008
1223,0.0,0.0,0.0,0.0,0.0,0.0,0.2401,-0.9605,-0.0872,0.7048,-0.6987,-0.0700,-0.1003
1224,0.0,0.0,0.0,0.0,0.0,0.0,0.2362,-0.9570,-0.0881,0.7053,-0.6984,-0.0694,-0.0998
1225,0.0,0.0,0.0,0.0,0.0,0.0,0.2328,-0.9544,-0.0900,0.7054,-0.6984,-0.0690,-0.0994
1226,0.0,0.0,0.0,0.0,0.0,0.0,0.2338,-0.9560,-0.0890,0.7057,-0.6983,-0.0683,-0.0989
1227,0.0,0.0,0.0,0.0,0.0,0.0,0.2338,-0.9578,-0.0915,0.7060,-0.6980,-0.0675,-0.0990
1228,0.0,0.0,0.0,0.0,0.0,0.0,0.2309,-0.9543,-0.0934,0.7062,-0.6978,-0.0670,-0.0991
1229,0.0,0.0,0.0,0.0,0.0,0.0,0.2323,-0.9577,-0.0949,0.7062,-0.6978,-0.0666,-0.0993
1230,0.0,0.0,0.0,0.0,0.0,0.0,0.2332,-0.9679,-0.0948,0.7058,-0.6982,-0.0668,-0.0993
1231,0.0,0.0,0.0,0.0,0.0,0.0,0.2342,-0.9718,-0.0954,0.7050,-0.6990,-0.0675,-0.0992
1232,0.0,0.0,0.0,0.0,0.0,0.0,0.2376,-0.9743,-0.0949,0.7052,-0.6988,-0.0673,-0.0994
