,Position_X,Position_Y,Position_Z,Velocity_X,Velocity_Y,Velocity_Z,Acceleration_X,Acceleration_Y,Acceleration_Z,Quaterion_0,Quaterion_1,Quaterion_2,Quaterion_3
207,0.0,0.0,0.0,0.0,0.0,0.0,-0.4795,0.8554,0.1971,0.3023,0.5132,-0.4529,-0.6635
208,0.0,0.0,0.0,0.0,0.0,0.0,-0.4707,0.8422,0.1936,0.3026,0.5144,-0.4521,-0.6629
209,0.0,0.0,0.0,0.0,0.0,0.0,-0.4360,0.8558,0.1309,0.3055,0.5166,-0.4526,-0.6595
210,0.0,0.0,0.0,0.0,0.0,0.0,-0.4873,0.8412,0.1855,0.3028,0.5166,-0.4521,-0.6611
211,0.0,0.0,0.0,0.0,0.0,0.0,-0.4663,0.8663,0.1603,0.3052,0.5192,-0.4535,-0.6571
212,0.0,0.0,0.0,0.0,0.0,0.0,-0.4951,0.8622,0.1828,0.3037,0.5193,-0.4523,-0.6584
213,0.0,0.0,0.0,0.0,0.0,0.0,-0.4946,0.8666,0.1973,0.3028,0.5197,-0.4536,-0.6576
214,0.0,0.0,0.0,0.0,0.0,0.0,-0.4951,0.8661,0.1843,0.3032,0.5204,-0.4533,-0.6571
215,0.0,0.0,0.0,0.0,0.0,0.0,-0.5195,0.8647,0.1985,0.3021,0.5197,-0.4527,-0.6585
216,0.0,0.0,0.0,0.0,0.0,0.0,-0.5131,0.8549,0.1873,0.3005,0.5187,-0.4520,-0.6606
217,0.0,0.0,0.0,0.0,0.0,0.0,-0.4989,0.8407,0.1764,0.2980,0.5171,-0.4512,-0.6635
218,0.0,0.0,0.0,0.0,0.0,0.0,-0.4784,0.8303,0.1659,0.2980,0.5175,-0.4515,-0.6629
219,0.0,0.0,0.0,0.0,0.0,0.0,-0.4798,0.8346,0.1524,0.2983,0.5180,-0.4516,-0.6624
220,0.0,0.0,0.0,0.0,0.0,0.0,-0.5008,0.8368,0.1725,0.2966,0.5172,-0.4528,-0.6630
221,0.0,0.0,0.0,0.0,0.0,0.0,-0.5082,0.8475,0.1799,0.2964,0.5176,-0.4540,-0.6619
222,0.0,0.0,0.0,0.0,0.0,0.0,-0.5194,0.8549,0.1907,0.2956,0.5173,-0.4546,-0.6620
223,0.0,0.0,0.0,0.0,0.0,0.0,-0.5136,0.8583,0.1921,0.2951,0.5170,-0.4551,-0.6622
224,0.0,0.0,0.0,0.0,0.0,0.0,-0.5073,0.8603,0.1935,0.2953,0.5166,-0.4552,-0.6624
225,0.0,0.0,0.0,0.0,0.0,0.0,-0.5073,0.8618,0.1994,0.2950,0.5159,-0.4553,-0.6629
226,0.0,0.0,0.0,0.0,0.0,0.0,-0.5044,0.8594,0.1998,0.2951,0.5157,-0.4551,-0.6633
227,0.0,0.0,0.0,0.0,0.0,0.0,-0.4971,0.8550,0.1978,0.2951,0.5151,-0.4545,-0.6641
228,0.0,0.0,0.0,0.0,0.0,0.0,-0.4883,0.8466,0.1904,0.2951,0.5148,-0.4541,-0.6647
229,0.0,0.0,0.0,0.0,0.0,0.0,-0.4882,0.8412,0.1884,0.2946,0.5146,-0.4541,-0.6649
230,0.0,0.0,0.0,0.0,0.0,0.0,-0.4931,0.8354,0.1894,0.2943,0.5145,-0.4537,-0.6655
231,0.0,0.0,0.0,0.0,0.0,0.0,-0.5038,0.8300,0.1860,0.2938,0.5148,-0.4535,-0.6656
232,0.0,0.0,0.0,0.0,0.0,0.0,-0.5101,0.8227,0.1831,0.2929,0.5154,-0.4532,-0.6657
233,0.0,0.0,0.0,0.0,0.0,0.0,-0.5047,0.8217,0.1744,0.2921,0.5162,-0.4531,-0.6655
234,0.0,0.0,0.0,0.0,0.0,0.0,-0.5022,0.8197,0.1690,0.2911,0.5171,-0.4535,-0.6651
235,0.0,0.0,0.0,0.0,0.0,0.0,-0.5057,0.8294,0.1715,0.2899,0.5175,-0.4541,-0.6648
236,0.0,0.0,0.0,0.0,0.0,0.0,-0.5008,0.8367,0.1710,0.2887,0.5179,-0.4550,-0.6643
237,0.0,0.0,0.0,0.0,0.0,0.0,-0.4964,0.8445,0.1706,0.2882,0.5182,-0.4559,-0.6638
238,0.0,0.0,0.0,0.0,0.0,0.0,-0.5013,0.8509,0.1745,0.2874,0.5183,-0.4569,-0.6633
239,0.0,0.0,0.0,0.0,0.0,0.0,-0.5111,0.8607,0.1815,0.2867,0.5185,-0.4578,-0.6628
240,0.0,0.0,0.0,0.0,0.0,0.0,-0.5067,0.8690,0.1800,0.2858,0.5182,-0.4586,-0.6629
241,0.0,0.0,0.0,0.0,0.0,0.0,-0.4946,0.8728,0.1780,0.2852,0.5176,-0.4591,-0.6633
242,0.0,0.0,0.0,0.0,0.0,0.0,-0.4873,0.8733,0.1750,0.2837,0.5178,-0.4615,-0.6622
243,0.0,0.0,0.0,0.0,0.0,0.0,-0.4882,0.8704,0.1770,0.2835,0.5172,-0.4622,-0.6622
244,0.0,0.0,0.0,0.0,0.0,0.0,-0.4897,0.8699,0.1770,0.2840,0.5168,-0.4622,-0.6623
245,0.0,0.0,0.0,0.0,0.0,0.0,-0.4897,0.8699,0.1765,0.2843,0.5162,-0.4623,-0.6626
246,0.0,0.0,0.0,0.0,0.0,0.0,-0.4843,0.8596,0.1657,0.2845,0.5161,-0.4620,-0.6627
247,0.0,0.0,0.0,0.0,0.0,0.0,-0.4423,0.8388,0.1366,0.2883,0.5181,-0.4634,-0.6586
248,0.0,0.0,0.0,0.0,0.0,0.0,-0.4671,0.8563,0.1229,0.2874,0.5177,-0.4615,-0.6606
249,0.0,0.0,0.0,0.0,0.0,0.0,-0.4949,0.8284,0.1680,0.2873,0.5177,-0.4630,-0.6596
250,0.0,0.0,0.0,0.0,0.0,0.0,-0.4895,0.8628,0.1377,0.2888,0.5188,-0.4630,-0.6581
251,0.0,0.0,0.0,0.0,0.0,0.0,-0.5409,0.8638,0.2036,0.2891,0.5171,-0.4646,-0.6581
252,0.0,0.0,0.0,0.0,0.0,0.0,-0.5160,0.8611,0.1747,0.2906,0.5181,-0.4642,-0.6570
253,0.0,0.0,0.0,0.0,0.0,0.0,-0.5125,0.8494,0.1712,0.2912,0.5182,-0.4632,-0.6574
254,0.0,0.0,0.0,0.0,0.0,0.0,-0.5139,0.8382,0.1678,0.2908,0.5178,-0.4630,-0.6580
255,0.0,0.0,0.0,0.0,0.0,0.0,-0.5047,0.8396,0.1648,0.2905,0.5175,-0.4626,-0.6587
256,0.0,0.0,0.0,0.0,0.0,0.0,-0.5066,0.8382,0.1658,0.2894,0.5169,-0.4630,-0.6593
257,0.0,0.0,0.0,0.0,0.0,0.0,-0.5023,0.8396,0.1672,0.2888,0.5164,-0.4627,-0.6601
258,0.0,0.0,0.0,0.0,0.0,0.0,-0.4945,0.8435,0.1667,0.2890,0.5164,-0.4625,-0.6602
259,0.0,0.0,0.0,0.0,0.0,0.0,-0.4886,0.8479,0.1657,0.2891,0.5161,-0.4633,-0.6599
260,0.0,0.0,0.0,0.0,0.0,0.0,-0.5062,0.8436,0.1702,0.2852,0.5137,-0.4637,-0.6632
261,0.0,0.0,0.0,0.0,0.0,0.0,-0.5009,0.8602,0.1838,0.2863,0.5139,-0.4646,-0.6618
262,0.0,0.0,0.0,0.0,0.0,0.0,-0.5058,0.8656,0.1805,0.2868,0.5142,-0.4651,-0.6610
263,0.0,0.0,0.0,0.0,0.0,0.0,-0.5234,0.8716,0.2020,0.2853,0.5129,-0.4650,-0.6628
264,0.0,0.0,0.0,0.0,0.0,0.0,-0.5039,0.8676,0.1882,0.2864,0.5134,-0.4641,-0.6626
265,0.0,0.0,0.0,0.0,0.0,0.0,-0.4921,0.8524,0.1808,0.2859,0.5124,-0.4639,-0.6637
266,0.0,0.0,0.0,0.0,0.0,0.0,-0.4955,0.8524,0.1856,0.2872,0.5136,-0.4629,-0.6629
267,0.0,0.0,0.0,0.0,0.0,0.0,-0.4999,0.8495,0.1842,0.2871,0.5135,-0.4623,-0.6635
268,0.0,0.0,0.0,0.0,0.0,0.0,-0.4955,0.8461,0.1832,0.2867,0.5132,-0.4615,-0.6644
269,0.0,0.0,0.0,0.0,0.0,0.0,-0.4921,0.8426,0.1788,0.2867,0.5132,-0.4608,-0.6649
270,0.0,0.0,0.0,0.0,0.0,0.0,-0.4906,0.8387,0.1773,0.2866,0.5130,-0.4601,-0.6656
271,0.0,0.0,0.0,0.0,0.0,0.0,-0.4896,0.8406,0.1739,0.2866,0.5132,-0.4598,-0.6656
272,0.0,0.0,0.0,0.0,0.0,0.0,-0.4950,0.8426,0.1783,0.2866,0.5132,-0.4596,-0.6657
273,0.0,0.0,0.0,0.0,0.0,0.0,-0.4989,0.8456,0.1803,0.2869,0.5133,-0.4590,-0.6659
274,0.0,0.0,0.0,0.0,0.0,0.0,-0.5018,0.8461,0.1803,0.2871,0.5136,-0.4583,-0.6661
275,0.0,0.0,0.0,0.0,0.0,0.0,-0.5009,0.8490,0.1794,0.2870,0.5139,-0.4580,-0.6661
276,0.0,0.0,0.0,0.0,0.0,0.0,-0.4974,0.8451,0.1774,0.2872,0.5140,-0.4575,-0.6663
277,0.0,0.0,0.0,0.0,0.0,0.0,-0.4970,0.8421,0.1759,0.2877,0.5142,-0.4570,-0.6663
278,0.0,0.0,0.0,0.0,0.0,0.0,-0.5004,0.8436,0.1779,0.2878,0.5142,-0.4567,-0.6665
279,0.0,0.0,0.0,0.0,0.0,0.0,-0.5048,0.8471,0.1833,0.2876,0.5144,-0.4567,-0.6664
280,0.0,0.0,0.0,0.0,0.0,0.0,-0.5087,0.8530,0.1887,0.2876,0.5143,-0.4566,-0.6666
281,0.0,0.0,0.0,0.0,0.0,0.0,-0.5082,0.8554,0.1901,0.2879,0.5142,-0.4561,-0.6668
282,0.0,0.0,0.0,0.0,0.0,0.0,-0.4847,0.8313,0.1650,0.2881,0.5148,-0.4564,-0.6661
283,0.0,0.0,0.0,0.0,0.0,0.0,-0.4621,0.8231,0.1071,0.2870,0.5143,-0.4566,-0.6668
284,0.0,0.0,0.0,0.0,0.0,0.0,-0.5271,0.8139,0.1774,0.2836,0.5127,-0.4592,-0.6677
285,0.0,0.0,0.0,0.0,0.0,0.0,-0.5081,0.8499,0.1683,0.2832,0.5137,-0.4598,-0.6667
286,0.0,0.0,0.0,0.0,0.0,0.0,-0.5317,0.8677,0.2035,0.2826,0.5138,-0.4605,-0.6664
287,0.0,0.0,0.0,0.0,0.0,0.0,-0.5170,0.8578,0.1897,0.2836,0.5147,-0.4602,-0.6655
288,0.0,0.0,0.0,0.0,0.0,0.0,-0.5023,0.8568,0.1799,0.2856,0.5160,-0.4599,-0.6638
289,0.0,0.0,0.0,0.0,0.0,0.0,-0.5062,0.8441,0.1779,0.2847,0.5156,-0.4606,-0.6641
290,0.0,0.0,0.0,0.0,0.0,0.0,-0.4974,0.8441,0.1754,0.2843,0.5153,-0.4606,-0.6644
291,0.0,0.0,0.0,0.0,0.0,0.0,-0.4979,0.8485,0.1750,0.2849,0.5154,-0.4603,-0.6643
292,0.0,0.0,0.0,0.0,0.0,0.0,-0.5053,0.8500,0.1828,0.2853,0.5154,-0.4600,-0.6644
293,0.0,0.0,0.0,0.0,0.0,0.0,-0.5092,0.8495,0.1838,0.2858,0.5155,-0.4598,-0.6642
294,0.0,0.0,0.0,0.0,0.0,0.0,-0.4999,0.8451,0.1798,0.2860,0.5153,-0.4594,-0.6645
295,0.0,0.0,0.0,0.0,0.0,0.0,-0.4857,0.8382,0.1675,0.2851,0.5142,-0.4594,-0.6658
296,0.0,0.0,0.0,0.0,0.0,0.0,-0.4803,0.8220,0.1591,0.2829,0.5123,-0.4605,-0.6674
297,0.0,0.0,0.0,0.0,0.0,0.0,-0.4677,0.8293,0.1605,0.2828,0.5113,-0.4626,-0.6668
298,0.0,0.0,0.0,0.0,0.0,0.0,-0.4676,0.8307,0.1504,0.2844,0.5120,-0.4639,-0.6646
299,0.0,0.0,0.0,0.0,0.0,0.0,-0.4935,0.8343,0.1651,0.2822,0.5105,-0.4658,-0.6654
300,0.0,0.0,0.0,0.0,0.0,0.0,-0.4862,0.8557,0.1691,0.2822,0.5101,-0.4680,-0.6642
301,0.0,0.0,0.0,0.0,0.0,0.0,-0.4921,0.8572,0.1721,0.2827,0.5095,-0.4698,-0.6631
302,0.0,0.0,0.0,0.0,0.0,0.0,-0.4907,0.8660,0.1774,0.2814,0.5077,-0.4726,-0.6631
303,0.0,0.0,0.0,0.0,0.0,0.0,-0.4848,0.8665,0.1759,0.2815,0.5064,-0.4753,-0.6622
304,0.0,0.0,0.0,0.0,0.0,0.0,-0.4878,0.8660,0.1789,0.2824,0.5052,-0.4773,-0.6612
305,0.0,0.0,0.0,0.0,0.0,0.0,-0.4897,0.8709,0.1784,0.2830,0.5040,-0.4794,-0.6604
306,0.0,0.0,0.0,0.0,0.0,0.0,-0.4892,0.8699,0.1760,0.2829,0.5027,-0.4813,-0.6600
307,0.0,0.0,0.0,0.0,0.0,0.0,-0.4843,0.8679,0.1701,0.2842,0.5021,-0.4823,-0.6591
308,0.0,0.0,0.0,0.0,0.0,0.0,-0.4760,0.8634,0.1623,0.2849,0.5015,-0.4831,-0.6587
309,0.0,0.0,0.0,0.0,0.0,0.0,-0.4711,0.8624,0.1588,0.2851,0.5008,-0.4847,-0.6580
310,0.0,0.0,0.0,0.0,0.0,0.0,-0.4682,0.8624,0.1554,0.2851,0.5001,-0.4863,-0.6574
311,0.0,0.0,0.0,0.0,0.0,0.0,-0.4692,0.8614,0.1544,0.2858,0.5000,-0.4872,-0.6565
312,0.0,0.0,0.0,0.0,0.0,0.0,-0.4755,0.8697,0.1589,0.2866,0.4999,-0.4877,-0.6558
313,0.0,0.0,0.0,0.0,0.0,0.0,-0.4794,0.8790,0.1634,0.2869,0.4998,-0.4886,-0.6551
314,0.0,0.0,0.0,0.0,0.0,0.0,-0.4795,0.8849,0.1644,0.2875,0.4997,-0.4894,-0.6543
315,0.0,0.0,0.0,0.0,0.0,0.0,-0.4770,0.8873,0.1624,0.2879,0.4992,-0.4899,-0.6542
316,0.0,0.0,0.0,0.0,0.0,0.0,-0.4790,0.8878,0.1663,0.2887,0.4988,-0.4905,-0.6536
317,0.0,0.0,0.0,0.0,0.0,0.0,-0.4819,0.8854,0.1664,0.2894,0.4986,-0.4910,-0.6531
318,0.0,0.0,0.0,0.0,0.0,0.0,-0.4775,0.8824,0.1634,0.2903,0.4982,-0.4909,-0.6531
319,0.0,0.0,0.0,0.0,0.0,0.0,-0.4702,0.8805,0.1619,0.2907,0.4974,-0.4911,-0.6534
320,0.0,0.0,0.0,0.0,0.0,0.0,-0.4673,0.8790,0.1628,0.2913,0.4970,-0.4913,-0.6533
321,0.0,0.0,0.0,0.0,0.0,0.0,-0.4682,0.8776,0.1623,0.2922,0.4966,-0.4910,-0.6534
322,0.0,0.0,0.0,0.0,0.0,0.0,-0.4658,0.8751,0.1608,0.2928,0.4961,-0.4907,-0.6537
323,0.0,0.0,0.0,0.0,0.0,0.0,-0.4575,0.8726,0.1554,0.2932,0.4957,-0.4904,-0.6541
324,0.0,0.0,0.0,0.0,0.0,0.0,-0.4516,0.8687,0.1514,0.2938,0.4955,-0.4895,-0.6546
325,0.0,0.0,0.0,0.0,0.0,0.0,-0.4429,0.8643,0.1484,0.2945,0.4956,-0.4893,-0.6545
326,0.0,0.0,0.0,0.0,0.0,0.0,-0.4399,0.8667,0.1489,0.2943,0.4956,-0.4899,-0.6540
327,0.0,0.0,0.0,0.0,0.0,0.0,-0.4360,0.8632,0.1416,0.2942,0.4955,-0.4908,-0.6535
328,0.0,0.0,0.0,0.0,0.0,0.0,-0.4312,0.8637,0.1420,0.2944,0.4955,-0.4914,-0.6529
329,0.0,0.0,0.0,0.0,0.0,0.0,-0.4278,0.8681,0.1420,0.2945,0.4951,-0.4929,-0.6521
330,0.0,0.0,0.0,0.0,0.0,0.0,-0.4234,0.8681,0.1420,0.2944,0.4946,-0.4949,-0.6510
331,0.0,0.0,0.0,0.0,0.0,0.0,-0.4273,0.8779,0.1474,0.2950,0.4944,-0.4966,-0.6495
332,0.0,0.0,0.0,0.0,0.0,0.0,-0.4361,0.8867,0.1543,0.2953,0.4945,-0.4985,-0.6480
333,0.0,0.0,0.0,0.0,0.0,0.0,-0.4361,0.8935,0.1544,0.2955,0.4945,-0.5001,-0.6466
334,0.0,0.0,0.0,0.0,0.0,0.0,-0.4352,0.8984,0.1544,0.2958,0.4941,-0.5015,-0.6457
335,0.0,0.0,0.0,0.0,0.0,0.0,-0.4366,0.9043,0.1583,0.2960,0.4937,-0.5028,-0.6448
336,0.0,0.0,0.0,0.0,0.0,0.0,-0.4352,0.9145,0.1642,0.2965,0.4932,-0.5037,-0.6443
337,0.0,0.0,0.0,0.0,0.0,0.0,-0.4308,0.9130,0.1598,0.2973,0.4926,-0.5043,-0.6439
338,0.0,0.0,0.0,0.0,0.0,0.0,-0.4264,0.9101,0.1568,0.2984,0.4921,-0.5046,-0.6436
339,0.0,0.0,0.0,0.0,0.0,0.0,-0.4254,0.9042,0.1543,0.2995,0.4917,-0.5047,-0.6433
340,0.0,0.0,0.0,0.0,0.0,0.0,-0.4322,0.8872,0.1538,0.3005,0.4916,-0.5046,-0.6430
341,0.0,0.0,0.0,0.0,0.0,0.0,-0.4342,0.9043,0.1578,0.3015,0.4913,-0.5036,-0.6435
342,0.0,0.0,0.0,0.0,0.0,0.0,-0.4230,0.9023,0.1519,0.3022,0.4912,-0.5028,-0.6439
343,0.0,0.0,0.0,0.0,0.0,0.0,-0.4098,0.8909,0.1376,0.3024,0.4912,-0.5027,-0.6438
344,0.0,0.0,0.0,0.0,0.0,0.0,-0.4083,0.8944,0.1410,0.3030,0.4911,-0.5027,-0.6436
345,0.0,0.0,0.0,0.0,0.0,0.0,-0.4205,0.8866,0.1464,0.3033,0.4912,-0.5031,-0.6431
346,0.0,0.0,0.0,0.0,0.0,0.0,-0.4362,0.8980,0.1617,0.3032,0.4913,-0.5033,-0.6429
347,0.0,0.0,0.0,0.0,0.0,0.0,-0.4465,0.9147,0.1783,0.3030,0.4912,-0.5032,-0.6431
348,0.0,0.0,0.0,0.0,0.0,0.0,-0.4431,0.9195,0.1798,0.3030,0.4911,-0.5027,-0.6437
349,0.0,0.0,0.0,0.0,0.0,0.0,-0.4313,0.9107,0.1709,0.3034,0.4908,-0.5015,-0.6446
350,0.0,0.0,0.0,0.0,0.0,0.0,-0.4201,0.9028,0.1582,0.3042,0.4905,-0.5001,-0.6456
351,0.0,0.0,0.0,0.0,0.0,0.0,-0.4147,0.8906,0.1522,0.3047,0.4903,-0.4996,-0.6459
352,0.0,0.0,0.0,0.0,0.0,0.0,-0.4137,0.8916,0.1556,0.3051,0.4900,-0.4991,-0.6463
353,0.0,0.0,0.0,0.0,0.0,0.0,-0.4172,0.8877,0.1595,0.3068,0.4902,-0.4980,-0.6462
354,0.0,0.0,0.0,0.0,0.0,0.0,-0.4201,0.8828,0.1590,0.3082,0.4907,-0.4972,-0.6457
355,0.0,0.0,0.0,0.0,0.0,0.0,-0.4113,0.8804,0.1594,0.3100,0.4914,-0.4964,-0.6450
356,0.0,0.0,0.0,0.0,0.0,0.0,-0.4137,0.8818,0.1507,0.3123,0.4921,-0.4954,-0.6442
357,0.0,0.0,0.0,0.0,0.0,0.0,-0.4230,0.8936,0.1668,0.3136,0.4924,-0.4952,-0.6434
358,0.0,0.0,0.0,0.0,0.0,0.0,-0.4216,0.8956,0.1678,0.3148,0.4930,-0.4948,-0.6426
359,0.0,0.0,0.0,0.0,0.0,0.0,-0.4206,0.8921,0.1571,0.3168,0.4948,-0.4935,-0.6413
360,0.0,0.0,0.0,0.0,0.0,0.0,-0.4259,0.8857,0.1484,0.3176,0.4965,-0.4928,-0.6401
361,0.0,0.0,0.0,0.0,0.0,0.0,-0.4254,0.8940,0.1548,0.3182,0.4980,-0.4927,-0.6388
362,0.0,0.0,0.0,0.0,0.0,0.0,-0.4293,0.8925,0.1441,0.3181,0.4988,-0.4928,-0.6381
363,0.0,0.0,0.0,0.0,0.0,0.0,-0.4391,0.9028,0.1588,0.3181,0.4990,-0.4929,-0.6379
364,0.0,0.0,0.0,0.0,0.0,0.0,-0.4356,0.8969,0.1529,0.3179,0.4991,-0.4930,-0.6378
365,0.0,0.0,0.0,0.0,0.0,0.0,-0.4308,0.8960,0.1597,0.3181,0.4997,-0.4926,-0.6375
366,0.0,0.0,0.0,0.0,0.0,0.0,-0.4195,0.8842,0.1420,0.3177,0.4996,-0.4924,-0.6380
367,0.0,0.0,0.0,0.0,0.0,0.0,-0.4127,0.8808,0.1449,0.3177,0.4994,-0.4924,-0.6381
368,0.0,0.0,0.0,0.0,0.0,0.0,-0.4220,0.8803,0.1503,0.3181,0.4993,-0.4918,-0.6385
369,0.0,0.0,0.0,0.0,0.0,0.0,-0.4161,0.8740,0.1473,0.3186,0.4994,-0.4914,-0.6385
370,0.0,0.0,0.0,0.0,0.0,0.0,-0.4244,0.8755,0.1537,0.3191,0.4996,-0.4910,-0.6383
371,0.0,0.0,0.0,0.0,0.0,0.0,-0.4259,0.8858,0.1663,0.3198,0.4991,-0.4904,-0.6388
372,0.0,0.0,0.0,0.0,0.0,0.0,-0.4147,0.8823,0.1575,0.3204,0.4979,-0.4904,-0.6395
373,0.0,0.0,0.0,0.0,0.0,0.0,-0.3913,0.8730,0.1466,0.3213,0.4971,-0.4894,-0.6404
374,0.0,0.0,0.0,0.0,0.0,0.0,-0.3868,0.8631,0.1309,0.3233,0.4989,-0.4895,-0.6379
375,0.0,0.0,0.0,0.0,0.0,0.0,-0.3903,0.8758,0.1408,0.3250,0.4992,-0.4892,-0.6371
376,0.0,0.0,0.0,0.0,0.0,0.0,-0.3953,0.9105,0.1551,0.3276,0.4994,-0.4889,-0.6358
377,0.0,0.0,0.0,0.0,0.0,0.0,-0.4089,0.9251,0.1500,0.3290,0.4992,-0.4896,-0.6347
378,0.0,0.0,0.0,0.0,0.0,0.0,-0.4305,0.9439,0.1779,0.3314,0.4993,-0.4897,-0.6333
379,0.0,0.0,0.0,0.0,0.0,0.0,-0.4456,0.9431,0.1969,0.3336,0.4990,-0.4893,-0.6327
380,0.0,0.0,0.0,0.0,0.0,0.0,-0.4358,0.9352,0.1842,0.3348,0.4978,-0.4890,-0.6332
381,0.0,0.0,0.0,0.0,0.0,0.0,-0.4168,0.9258,0.1748,0.3360,0.4972,-0.4880,-0.6339
382,0.0,0.0,0.0,0.0,0.0,0.0,-0.4125,0.9210,0.1868,0.3372,0.4961,-0.4869,-0.6349
383,0.0,0.0,0.0,0.0,0.0,0.0,-0.4071,0.9117,0.1794,0.3382,0.4944,-0.4861,-0.6362
384,0.0,0.0,0.0,0.0,0.0,0.0,-0.3865,0.8876,0.1544,0.3391,0.4934,-0.4856,-0.6370
385,0.0,0.0,0.0,0.0,0.0,0.0,-0.3899,0.8814,0.1655,0.3400,0.4935,-0.4849,-0.6370
386,0.0,0.0,0.0,0.0,0.0,0.0,-0.4046,0.8927,0.1797,0.3404,0.4943,-0.4843,-0.6366
387,0.0,0.0,0.0,0.0,0.0,0.0,-0.4021,0.8858,0.1724,0.3405,0.4952,-0.4835,-0.6364
388,0.0,0.0,0.0,0.0,0.0,0.0,-0.4099,0.8838,0.1647,0.3409,0.4967,-0.4827,-0.6357
389,0.0,0.0,0.0,0.0,0.0,0.0,-0.4460,0.8909,0.1874,0.3305,0.4882,-0.4902,-0.6420
390,0.0,0.0,0.0,0.0,0.0,0.0,-0.3616,0.8944,0.1479,0.3192,0.4785,-0.5019,-0.6460
391,0.0,0.0,0.0,0.0,0.0,0.0,-0.3548,0.8958,0.1406,0.3239,0.4831,-0.4983,-0.6430
392,0.0,0.0,0.0,0.0,0.0,0.0,-0.3821,0.8973,0.1418,0.3352,0.4952,-0.4877,-0.6361
393,0.0,0.0,0.0,0.0,0.0,0.0,-0.4216,0.9067,0.1635,0.3400,0.5030,-0.4820,-0.6318
394,0.0,0.0,0.0,0.0,0.0,0.0,-0.4305,0.9430,0.1876,0.3375,0.5021,-0.4834,-0.6327
395,0.0,0.0,0.0,0.0,0.0,0.0,-0.3926,0.9425,0.1945,0.3297,0.4951,-0.4904,-0.6369
396,0.0,0.0,0.0,0.0,0.0,0.0,-0.3736,0.9556,0.1886,0.3291,0.4930,-0.4922,-0.6375
397,0.0,0.0,0.0,0.0,0.0,0.0,-0.3745,0.9565,0.1828,0.3390,0.4979,-0.4851,-0.6340
398,0.0,0.0,0.0,0.0,0.0,0.0,-0.3934,0.9301,0.1726,0.3503,0.5041,-0.4754,-0.6302
399,0.0,0.0,0.0,0.0,0.0,0.0,-0.4075,0.9179,0.1552,0.3542,0.5040,-0.4719,-0.6308
400,0.0,0.0,0.0,0.0,0.0,0.0,-0.3968,0.9077,0.1638,0.3521,0.4973,-0.4746,-0.6352
401,0.0,0.0,0.0,0.0,0.0,0.0,-0.3728,0.8856,0.1494,0.3526,0.4922,-0.4759,-0.6379
402,0.0,0.0,0.0,0.0,0.0,0.0,-0.3839,0.8544,0.1449,0.3602,0.4944,-0.4704,-0.6361
403,0.0,0.0,0.0,0.0,0.0,0.0,-0.4244,0.8537,0.1651,0.3706,0.4997,-0.4609,-0.6328
404,0.0,0.0,0.0,0.0,0.0,0.0,-0.4459,0.8484,0.1745,0.3763,0.5022,-0.4554,-0.6315
405,0.0,0.0,0.0,0.0,0.0,0.0,-0.4224,0.8346,0.1597,0.3756,0.4999,-0.4567,-0.6328
406,0.0,0.0,0.0,0.0,0.0,0.0,-0.3937,0.8360,0.1604,0.3725,0.4960,-0.4602,-0.6352
407,0.0,0.0,0.0,0.0,0.0,0.0,-0.3884,0.8532,0.1711,0.3724,0.4952,-0.4612,-0.6352
408,0.0,0.0,0.0,0.0,0.0,0.0,-0.3924,0.8659,0.1766,0.3759,0.4983,-0.4588,-0.6324
409,0.0,0.0,0.0,0.0,0.0,0.0,-0.4051,0.8841,0.1996,0.3803,0.5025,-0.4554,-0.6289
410,0.0,0.0,0.0,0.0,0.0,0.0,-0.4194,0.9071,0.2158,0.3803,0.5033,-0.4569,-0.6271
411,0.0,0.0,0.0,0.0,0.0,0.0,-0.4283,0.9341,0.2408,0.3762,0.5006,-0.4626,-0.6276
412,0.0,0.0,0.0,0.0,0.0,0.0,-0.4198,0.9881,0.2968,0.3716,0.4949,-0.4699,-0.6294
413,0.0,0.0,0.0,0.0,0.0,0.0,-0.3838,1.0040,0.2801,0.3702,0.4909,-0.4740,-0.6303
414,0.0,0.0,0.0,0.0,0.0,0.0,-0.3773,0.9897,0.2625,0.3725,0.4879,-0.4746,-0.6308
415,0.0,0.0,0.0,0.0,0.0,0.0,-0.3534,0.9715,0.2394,0.3748,0.4838,-0.4760,-0.6315
416,0.0,0.0,0.0,0.0,0.0,0.0,-0.3419,0.9186,0.1973,0.3747,0.4777,-0.4789,-0.6340
417,0.0,0.0,0.0,0.0,0.0,0.0,-0.3254,0.9196,0.2112,0.3757,0.4711,-0.4813,-0.6366
418,0.0,0.0,0.0,0.0,0.0,0.0,-0.3187,0.9188,0.2315,0.3752,0.4628,-0.4857,-0.6397
419,0.0,0.0,0.0,0.0,0.0,0.0,-0.2683,0.8930,0.1785,0.3739,0.4548,-0.4925,-0.6409
420,0.0,0.0,0.0,0.0,0.0,0.0,-0.2371,0.8637,0.1756,0.3755,0.4504,-0.4957,-0.6406
421,0.0,0.0,0.0,0.0,0.0,0.0,-0.2626,0.8836,0.2176,0.3790,0.4477,-0.4973,-0.6392
422,0.0,0.0,0.0,0.0,0.0,0.0,-0.2647,0.9008,0.2410,0.3807,0.4437,-0.5006,-0.6384
423,0.0,0.0,0.0,0.0,0.0,0.0,-0.2876,0.8946,0.2625,0.3791,0.4373,-0.5040,-0.6412
424,0.0,0.0,0.0,0.0,0.0,0.0,-0.2405,0.9141,0.2714,0.3768,0.4288,-0.5099,-0.6435
425,0.0,0.0,0.0,0.0,0.0,0.0,-0.2436,0.9372,0.2963,0.3770,0.4245,-0.5148,-0.6424
426,0.0,0.0,0.0,0.0,0.0,0.0,-0.2088,0.9168,0.2455,0.3816,0.4242,-0.5146,-0.6401
427,0.0,0.0,0.0,0.0,0.0,0.0,-0.2145,0.9967,0.3027,0.3889,0.4246,-0.5084,-0.6403
428,0.0,0.0,0.0,0.0,0.0,0.0,-0.2286,0.9694,0.3022,0.3943,0.4242,-0.5034,-0.6412
429,0.0,0.0,0.0,0.0,0.0,0.0,-0.2124,0.8284,0.2052,0.3936,0.4227,-0.5053,-0.6412
430,0.0,0.0,0.0,0.0,0.0,0.0,-0.2047,1.0733,0.2552,0.3925,0.4195,-0.5076,-0.6420
431,0.0,0.0,0.0,0.0,0.0,0.0,-0.2572,0.9581,0.2796,0.3940,0.4193,-0.5060,-0.6426
432,0.0,0.0,0.0,0.0,0.0,0.0,-0.2521,0.9136,0.2575,0.3973,0.4209,-0.5013,-0.6432
433,0.0,0.0,0.0,0.0,0.0,0.0,-0.2634,0.9259,0.2727,0.3988,0.4221,-0.4979,-0.6441
434,0.0,0.0,0.0,0.0,0.0,0.0,-0.2868,0.9163,0.2941,0.3965,0.4205,-0.4981,-0.6464
435,0.0,0.0,0.0,0.0,0.0,0.0,-0.2766,0.9139,0.3018,0.3934,0.4173,-0.4997,-0.6491
436,0.0,0.0,0.0,0.0,0.0,0.0,-0.2634,0.9060,0.2866,0.3922,0.4168,-0.4994,-0.6505
437,0.0,0.0,0.0,0.0,0.0,0.0,-0.2736,0.8953,0.2924,0.3946,0.4205,-0.4945,-0.6503
438,0.0,0.0,0.0,0.0,0.0,0.0,-0.2853,0.8871,0.2930,0.3958,0.4236,-0.4911,-0.6502
439,0.0,0.0,0.0,0.0,0.0,0.0,-0.2813,0.8611,0.2690,0.3944,0.4266,-0.4899,-0.6500
440,0.0,0.0,0.0,0.0,0.0,0.0,-0.2951,0.8998,0.2960,0.3915,0.4282,-0.4908,-0.6500
441,0.0,0.0,0.0,0.0,0.0,0.0,-0.2867,0.8928,0.2775,0.3890,0.4308,-0.4916,-0.6492
442,0.0,0.0,0.0,0.0,0.0,0.0,-0.2921,0.8996,0.2776,0.3886,0.4357,-0.4896,-0.6477
443,0.0,0.0,0.0,0.0,0.0,0.0,-0.2935,0.9024,0.2515,0.3885,0.4417,-0.4873,-0.6454
444,0.0,0.0,0.0,0.0,0.0,0.0,-0.3076,0.9185,0.2643,0.3871,0.4472,-0.4864,-0.6431
445,0.0,0.0,0.0,0.0,0.0,0.0,-0.3259,0.9612,0.3021,0.3849,0.4510,-0.4865,-0.6418
446,0.0,0.0,0.0,0.0,0.0,0.0,-0.3464,0.9779,0.3058,0.3827,0.4527,-0.4868,-0.6415
447,0.0,0.0,0.0,0.0,0.0,0.0,-0.3443,0.9592,0.2848,0.3812,0.4541,-0.4872,-0.6412
448,0.0,0.0,0.0,0.0,0.0,0.0,-0.3300,0.9359,0.2380,0.3807,0.4567,-0.4863,-0.6403
449,0.0,0.0,0.0,0.0,0.0,0.0,-0.3275,0.9319,0.2258,0.3804,0.4594,-0.4853,-0.6393
450,0.0,0.0,0.0,0.0,0.0,0.0,-0.3396,0.9295,0.2279,0.3793,0.4613,-0.4860,-0.6381
451,0.0,0.0,0.0,0.0,0.0,0.0,-0.3508,0.9261,0.2313,0.3778,0.4626,-0.4870,-0.6372
452,0.0,0.0,0.0,0.0,0.0,0.0,-0.3627,0.9595,0.2578,0.3772,0.4615,-0.4868,-0.6386
453,0.0,0.0,0.0,0.0,0.0,0.0,-0.3338,0.9144,0.2296,0.3776,0.4602,-0.4861,-0.6398
454,0.0,0.0,0.0,0.0,0.0,0.0,-0.3103,0.8835,0.2031,0.3774,0.4598,-0.4854,-0.6408
455,0.0,0.0,0.0,0.0,0.0,0.0,-0.3132,0.8855,0.2104,0.3756,0.4608,-0.4863,-0.6404
456,0.0,0.0,0.0,0.0,0.0,0.0,-0.2908,0.8753,0.2164,0.3730,0.4629,-0.4884,-0.6388
457,0.0,0.0,0.0,0.0,0.0,0.0,-0.2353,0.8940,0.1850,0.3703,0.4646,-0.4926,-0.6360
458,0.0,0.0,0.0,0.0,0.0,0.0,-0.2529,0.9059,0.2046,0.3686,0.4677,-0.4947,-0.6330
459,0.0,0.0,0.0,0.0,0.0,0.0,-0.3223,0.9590,0.2613,0.3680,0.4700,-0.4963,-0.6304
460,0.0,0.0,0.0,0.0,0.0,0.0,-0.2801,0.9380,0.1939,0.3671,0.4720,-0.4990,-0.6273
461,0.0,0.0,0.0,0.0,0.0,0.0,-0.2743,0.9355,0.1876,0.3671,0.4737,-0.4997,-0.6255
462,0.0,0.0,0.0,0.0,0.0,0.0,-0.3124,0.9777,0.2250,0.3682,0.4742,-0.4995,-0.6245
463,0.0,0.0,0.0,0.0,0.0,0.0,-0.3056,0.9669,0.2200,0.3702,0.4744,-0.4990,-0.6237
464,0.0,0.0,0.0,0.0,0.0,0.0,-0.2845,0.9336,0.1993,0.3730,0.4739,-0.4967,-0.6242
465,0.0,0.0,0.0,0.0,0.0,0.0,-0.2792,0.9424,0.2041,0.3757,0.4709,-0.4945,-0.6266
466,0.0,0.0,0.0,0.0,0.0,0.0,-0.2810,0.9145,0.1856,0.3770,0.4683,-0.4927,-0.6291
467,0.0,0.0,0.0,0.0,0.0,0.0,-0.2717,0.8866,0.1708,0.3775,0.4672,-0.4906,-0.6313
468,0.0,0.0,0.0,0.0,0.0,0.0,-0.2918,0.9000,0.1991,0.3786,0.4663,-0.4890,-0.6326
469,0.0,0.0,0.0,0.0,0.0,0.0,-0.3020,0.9011,0.2104,0.3808,0.4666,-0.4880,-0.6318
470,0.0,0.0,0.0,0.0,0.0,0.0,-0.3208,0.9375,0.2515,0.3840,0.4678,-0.4869,-0.6298
471,0.0,0.0,0.0,0.0,0.0,0.0,-0.3123,0.9133,0.2164,0.3854,0.4688,-0.4876,-0.6277
472,0.0,0.0,0.0,0.0,0.0,0.0,-0.3095,0.9320,0.2349,0.3871,0.4683,-0.4878,-0.6269
473,0.0,0.0,0.0,0.0,0.0,0.0,-0.3227,0.9696,0.2478,0.3884,0.4673,-0.4891,-0.6257
474,0.0,0.0,0.0,0.0,0.0,0.0,-0.3051,0.9407,0.2242,0.3899,0.4671,-0.4885,-0.6254
475,0.0,0.0,0.0,0.0,0.0,0.0,-0.3002,0.9431,0.2242,0.3910,0.4673,-0.4876,-0.6253
476,0.0,0.0,0.0,0.0,0.0,0.0,-0.3016,0.9285,0.2222,0.3917,0.4686,-0.4867,-0.6246
477,0.0,0.0,0.0,0.0,0.0,0.0,-0.2997,0.9352,0.2111,0.3926,0.4698,-0.4861,-0.6235
478,0.0,0.0,0.0,0.0,0.0,0.0,-0.3202,0.9398,0.2321,0.3937,0.4698,-0.4855,-0.6234
479,0.0,0.0,0.0,0.0,0.0,0.0,-0.3271,0.9375,0.2510,0.3941,0.4686,-0.4863,-0.6234
480,0.0,0.0,0.0,0.0,0.0,0.0,-0.3139,0.9394,0.2490,0.3933,0.4665,-0.4882,-0.6240
481,0.0,0.0,0.0,0.0,0.0,0.0,-0.2964,0.9354,0.2454,0.3924,0.4636,-0.4903,-0.6251
482,0.0,0.0,0.0,0.0,0.0,0.0,-0.2749,0.9211,0.2195,0.3918,0.4616,-0.4924,-0.6252
483,0.0,0.0,0.0,0.0,0.0,0.0,-0.2783,0.9192,0.2263,0.3916,0.4609,-0.4932,-0.6253
484,0.0,0.0,0.0,0.0,0.0,0.0,-0.2642,0.9240,0.2203,0.3923,0.4608,-0.4932,-0.6249
485,0.0,0.0,0.0,0.0,0.0,0.0,-0.2676,0.9114,0.2242,0.3930,0.4611,-0.4932,-0.6243
486,0.0,0.0,0.0,0.0,0.0,0.0,-0.2784,0.9319,0.2360,0.3932,0.4613,-0.4940,-0.6234
487,0.0,0.0,0.0,0.0,0.0,0.0,-0.2915,0.9265,0.2293,0.3925,0.4617,-0.4956,-0.6222
488,0.0,0.0,0.0,0.0,0.0,0.0,-0.2930,0.9413,0.2440,0.3912,0.4625,-0.4972,-0.6212
489,0.0,0.0,0.0,0.0,0.0,0.0,-0.2984,0.9457,0.2479,0.3894,0.4646,-0.4987,-0.6195
490,0.0,0.0,0.0,0.0,0.0,0.0,-0.2948,0.9294,0.2178,0.3876,0.4680,-0.5009,-0.6164
491,0.0,0.0,0.0,0.0,0.0,0.0,-0.2861,0.9401,0.2148,0.3859,0.4713,-0.5034,-0.6129
492,0.0,0.0,0.0,0.0,0.0,0.0,-0.2930,0.9645,0.2272,0.3853,0.4742,-0.5043,-0.6103
493,0.0,0.0,0.0,0.0,0.0,0.0,-0.3113,0.9288,0.2053,0.3845,0.4762,-0.5045,-0.6090
494,0.0,0.0,0.0,0.0,0.0,0.0,-0.3079,0.9385,0.1995,0.3848,0.4774,-0.5034,-0.6088
495,0.0,0.0,0.0,0.0,0.0,0.0,-0.3083,0.9350,0.1821,0.3850,0.4780,-0.5019,-0.6094
496,0.0,0.0,0.0,0.0,0.0,0.0,-0.3136,0.9101,0.1694,0.3846,0.4784,-0.5006,-0.6104
497,0.0,0.0,0.0,0.0,0.0,0.0,-0.3045,0.9347,0.2038,0.3847,0.4783,-0.4991,-0.6117
498,0.0,0.0,0.0,0.0,0.0,0.0,-0.3118,0.9415,0.2049,0.3844,0.4776,-0.4983,-0.6130
499,0.0,0.0,0.0,0.0,0.0,0.0,-0.3190,0.9249,0.1937,0.3837,0.4764,-0.4978,-0.6148
500,0.0,0.0,0.0,0.0,0.0,0.0,-0.3177,0.9352,0.2069,0.3832,0.4744,-0.4970,-0.6173
501,0.0,0.0,0.0,0.0,0.0,0.0,-0.3260,0.9407,0.2239,0.3832,0.4728,-0.4959,-0.6194
502,0.0,0.0,0.0,0.0,0.0,0.0,-0.3147,0.9298,0.1986,0.3836,0.4719,-0.4941,-0.6213
503,0.0,0.0,0.0,0.0,0.0,0.0,-0.3059,0.9180,0.1955,0.3839,0.4713,-0.4920,-0.6233
504,0.0,0.0,0.0,0.0,0.0,0.0,-0.3201,0.9324,0.2209,0.3836,0.4695,-0.4910,-0.6256
505,0.0,0.0,0.0,0.0,0.0,0.0,-0.3104,0.9372,0.2165,0.3830,0.4673,-0.4913,-0.6273
506,0.0,0.0,0.0,0.0,0.0,0.0,-0.3035,0.9206,0.2086,0.3829,0.4659,-0.4908,-0.6288
507,0.0,0.0,0.0,0.0,0.0,0.0,-0.3192,0.9344,0.2282,0.3836,0.4653,-0.4895,-0.6299
508,0.0,0.0,0.0,0.0,0.0,0.0,-0.3167,0.9148,0.2193,0.3841,0.4658,-0.4877,-0.6306
509,0.0,0.0,0.0,0.0,0.0,0.0,-0.3217,0.9335,0.2355,0.3849,0.4660,-0.4863,-0.6310
510,0.0,0.0,0.0,0.0,0.0,0.0,-0.3143,0.9187,0.2198,0.3847,0.4667,-0.4872,-0.6300
511,0.0,0.0,0.0,0.0,0.0,0.0,-0.3137,0.9011,0.2076,0.3835,0.4692,-0.4878,-0.6283
512,0.0,0.0,0.0,0.0,0.0,0.0,-0.3177,0.9319,0.2301,0.3820,0.4729,-0.4895,-0.6252
513,0.0,0.0,0.0,0.0,0.0,0.0,-0.3201,0.9289,0.2117,0.3806,0.4780,-0.4921,-0.6200
514,0.0,0.0,0.0,0.0,0.0,0.0,-0.3132,0.9107,0.1853,0.3807,0.4830,-0.4924,-0.6159
515,0.0,0.0,0.0,0.0,0.0,0.0,-0.3235,0.9663,0.1989,0.3820,0.4862,-0.4921,-0.6128
516,0.0,0.0,0.0,0.0,0.0,0.0,-0.3013,0.9274,0.1466,0.3822,0.4886,-0.4919,-0.6110
517,0.0,0.0,0.0,0.0,0.0,0.0,-0.2867,0.9209,0.1304,0.3816,0.4893,-0.4915,-0.6110
518,0.0,0.0,0.0,0.0,0.0,0.0,-0.3088,0.9451,0.1681,0.3805,0.4884,-0.4923,-0.6119
519,0.0,0.0,0.0,0.0,0.0,0.0,-0.3117,0.9544,0.1784,0.3799,0.4870,-0.4923,-0.6133
520,0.0,0.0,0.0,0.0,0.0,0.0,-0.3240,0.9697,0.2009,0.3812,0.4858,-0.4896,-0.6156
521,0.0,0.0,0.0,0.0,0.0,0.0,-0.3331,0.9374,0.1789,0.3832,0.4854,-0.4840,-0.6191
522,0.0,0.0,0.0,0.0,0.0,0.0,-0.3140,0.9045,0.1485,0.3823,0.4845,-0.4809,-0.6227
523,0.0,0.0,0.0,0.0,0.0,0.0,-0.3196,0.9254,0.2068,0.3797,0.4810,-0.4798,-0.6279
524,0.0,0.0,0.0,0.0,0.0,0.0,-0.3325,0.9629,0.2580,0.3778,0.4776,-0.4777,-0.6332
525,0.0,0.0,0.0,0.0,0.0,0.0,-0.3084,0.9162,0.2081,0.3765,0.4762,-0.4756,-0.6367
526,0.0,0.0,0.0,0.0,0.0,0.0,-0.3251,0.9340,0.2418,0.3768,0.4762,-0.4707,-0.6401
527,0.0,0.0,0.0,0.0,0.0,0.0,-0.3401,0.8998,0.2310,0.3765,0.4774,-0.4677,-0.6416
528,0.0,0.0,0.0,0.0,0.0,0.0,-0.3006,0.8977,0.2069,0.3767,0.4775,-0.4645,-0.6437
529,0.0,0.0,0.0,0.0,0.0,0.0,-0.3255,0.9111,0.2373,0.3771,0.4770,-0.4629,-0.6450
530,0.0,0.0,0.0,0.0,0.0,0.0,-0.3283,0.8725,0.2201,0.3771,0.4756,-0.4639,-0.6452
531,0.0,0.0,0.0,0.0,0.0,0.0,-0.3263,0.8821,0.2051,0.3776,0.4765,-0.4644,-0.6440
532,0.0,0.0,0.0,0.0,0.0,0.0,-0.3518,0.8984,0.2384,0.3786,0.4786,-0.4639,-0.6422
533,0.0,0.0,0.0,0.0,0.0,0.0,-0.3512,0.8784,0.2325,0.3785,0.4800,-0.4653,-0.6401
534,0.0,0.0,0.0,0.0,0.0,0.0,-0.3724,0.8914,0.2754,0.3761,0.4779,-0.4696,-0.6400
535,0.0,0.0,0.0,0.0,0.0,0.0,-0.3852,0.9457,0.3030,0.3728,0.4722,-0.4754,-0.6419
536,0.0,0.0,0.0,0.0,0.0,0.0,-0.3446,0.9336,0.2526,0.3710,0.4652,-0.4809,-0.6440
537,0.0,0.0,0.0,0.0,0.0,0.0,-0.2892,0.8599,0.1770,0.3701,0.4626,-0.4850,-0.6433
538,0.0,0.0,0.0,0.0,0.0,0.0,-0.3104,0.8973,0.2269,0.3700,0.4626,-0.4865,-0.6422
539,0.0,0.0,0.0,0.0,0.0,0.0,-0.2995,0.8785,0.1908,0.3674,0.4656,-0.4900,-0.6389
540,0.0,0.0,0.0,0.0,0.0,0.0,-0.3025,0.8797,0.2175,0.3644,0.4702,-0.4937,-0.6343
541,0.0,0.0,0.0,0.0,0.0,0.0,-0.3316,0.9658,0.2644,0.3624,0.4727,-0.4998,-0.6288
542,0.0,0.0,0.0,0.0,0.0,0.0,-0.3036,0.9504,0.2238,0.3614,0.4748,-0.5037,-0.6247
543,0.0,0.0,0.0,0.0,0.0,0.0,-0.3201,0.9405,0.1958,0.3604,0.4763,-0.5079,-0.6208
544,0.0,0.0,0.0,0.0,0.0,0.0,-0.3669,0.9485,0.2253,0.3599,0.4770,-0.5091,-0.6196
545,0.0,0.0,0.0,0.0,0.0,0.0,-0.3362,0.9776,0.2117,0.3609,0.4771,-0.5076,-0.6201
546,0.0,0.0,0.0,0.0,0.0,0.0,-0.3371,0.9629,0.1975,0.3629,0.4777,-0.5039,-0.6215
547,0.0,0.0,0.0,0.0,0.0,0.0,-0.3547,0.9494,0.2189,0.3649,0.4789,-0.4979,-0.6242
548,0.0,0.0,0.0,0.0,0.0,0.0,-0.3753,0.9609,0.2531,0.3661,0.4792,-0.4924,-0.6276
549,0.0,0.0,0.0,0.0,0.0,0.0,-0.3621,0.9539,0.2302,0.3662,0.4783,-0.4890,-0.6309
550,0.0,0.0,0.0,0.0,0.0,0.0,-0.3305,0.8744,0.1591,0.3632,0.4779,-0.4888,-0.6331
551,0.0,0.0,0.0,0.0,0.0,0.0,-0.3073,0.9009,0.1852,0.3621,0.4776,-0.4874,-0.6351
552,0.0,0.0,0.0,0.0,0.0,0.0,-0.3171,0.8976,0.1969,0.3624,0.4801,-0.4837,-0.6357
553,0.0,0.0,0.0,0.0,0.0,0.0,-0.2827,0.8455,0.1439,0.3613,0.4826,-0.4851,-0.6334
554,0.0,0.0,0.0,0.0,0.0,0.0,-0.2741,0.8949,0.1699,0.3605,0.4834,-0.4885,-0.6306
555,0.0,0.0,0.0,0.0,0.0,0.0,-0.3068,0.8945,0.1813,0.3602,0.4857,-0.4947,-0.6242
556,0.0,0.0,0.0,0.0,0.0,0.0,-0.2800,0.9066,0.1744,0.3622,0.4877,-0.5044,-0.6136
557,0.0,0.0,0.0,0.0,0.0,0.0,-0.3296,1.0186,0.2264,0.3708,0.4872,-0.5069,-0.6068
558,0.0,0.0,0.0,0.0,0.0,0.0,-0.3235,0.8692,0.1115,0.3767,0.4901,-0.5033,-0.6038
559,0.0,0.0,0.0,0.0,0.0,0.0,-0.2524,0.8884,0.0848,0.3797,0.4888,-0.5023,-0.6038
560,0.0,0.0,0.0,0.0,0.0,0.0,-0.3196,0.9959,0.1806,0.3790,0.4829,-0.5063,-0.6056
561,0.0,0.0,0.0,0.0,0.0,0.0,-0.2936,0.9567,0.1550,0.3801,0.4764,-0.5098,-0.6072
562,0.0,0.0,0.0,0.0,0.0,0.0,-0.2551,0.9351,0.1453,0.3848,0.4724,-0.5071,-0.6096
563,0.0,0.0,0.0,0.0,0.0,0.0,-0.2984,0.9240,0.1485,0.3890,0.4702,-0.5027,-0.6122
564,0.0,0.0,0.0,0.0,0.0,0.0,-0.3192,0.9391,0.2161,0.3907,0.4680,-0.5014,-0.6139
565,0.0,0.0,0.0,0.0,0.0,0.0,-0.3071,0.9666,0.2414,0.3899,0.4648,-0.5033,-0.6154
566,0.0,0.0,0.0,0.0,0.0,0.0,-0.2826,0.9481,0.1843,0.3885,0.4611,-0.5060,-0.6168
567,0.0,0.0,0.0,0.0,0.0,0.0,-0.2664,0.9183,0.1758,0.3880,0.4594,-0.5077,-0.6170
568,0.0,0.0,0.0,0.0,0.0,0.0,-0.2821,0.9385,0.2032,0.3887,0.4597,-0.5072,-0.6167
569,0.0,0.0,0.0,0.0,0.0,0.0,-0.2767,0.9336,0.1944,0.3884,0.4598,-0.5087,-0.6156
570,0.0,0.0,0.0,0.0,0.0,0.0,-0.2596,0.9139,0.1786,0.3857,0.4591,-0.5128,-0.6144
571,0.0,0.0,0.0,0.0,0.0,0.0,-0.2489,0.9407,0.1782,0.3833,0.4582,-0.5169,-0.6132
572,0.0,0.0,0.0,0.0,0.0,0.0,-0.2872,0.9777,0.2272,0.3822,0.4567,-0.5196,-0.6127
573,0.0,0.0,0.0,0.0,0.0,0.0,-0.2812,0.9464,0.2158,0.3825,0.4563,-0.5200,-0.6124
574,0.0,0.0,0.0,0.0,0.0,0.0,-0.2681,0.9654,0.2119,0.3823,0.4561,-0.5197,-0.6129
575,0.0,0.0,0.0,0.0,0.0,0.0,-0.2798,0.9678,0.2164,0.3809,0.4543,-0.5201,-0.6149
576,0.0,0.0,0.0,0.0,0.0,0.0,-0.2789,0.9655,0.2261,0.3797,0.4513,-0.5206,-0.6174
577,0.0,0.0,0.0,0.0,0.0,0.0,-0.2593,0.9575,0.2060,0.3785,0.4488,-0.5206,-0.6199
578,0.0,0.0,0.0,0.0,0.0,0.0,-0.2666,0.9542,0.2157,0.3790,0.4479,-0.5186,-0.6220
579,0.0,0.0,0.0,0.0,0.0,0.0,-0.2696,0.9484,0.2254,0.3804,0.4489,-0.5159,-0.6226
580,0.0,0.0,0.0,0.0,0.0,0.0,-0.2627,0.9443,0.2045,0.3809,0.4495,-0.5139,-0.6235
581,0.0,0.0,0.0,0.0,0.0,0.0,-0.2646,0.9312,0.2083,0.3800,0.4492,-0.5134,-0.6247
582,0.0,0.0,0.0,0.0,0.0,0.0,-0.2627,0.9356,0.2093,0.3782,0.4494,-0.5140,-0.6252
583,0.0,0.0,0.0,0.0,0.0,0.0,-0.2514,0.9316,0.1898,0.3774,0.4506,-0.5134,-0.6253
584,0.0,0.0,0.0,0.0,0.0,0.0,-0.2495,0.9311,0.1912,0.3780,0.4520,-0.5121,-0.6250
585,0.0,0.0,0.0,0.0,0.0,0.0,-0.2612,0.9395,0.2030,0.3789,0.4537,-0.5110,-0.6241
586,0.0,0.0,0.0,0.0,0.0,0.0,-0.2954,0.9553,0.2325,0.3793,0.4548,-0.5102,-0.6237
587,0.0,0.0,0.0,0.0,0.0,0.0,-0.2641,0.9389,0.1986,0.3788,0.4545,-0.5109,-0.6237
588,0.0,0.0,0.0,0.0,0.0,0.0,-0.2646,0.9365,0.1928,0.3779,0.4546,-0.5114,-0.6237
589,0.0,0.0,0.0,0.0,0.0,0.0,-0.2792,0.9390,0.1973,0.3774,0.4565,-0.5109,-0.6230
590,0.0,0.0,0.0,0.0,0.0,0.0,-0.2797,0.9380,0.1935,0.3776,0.4599,-0.5095,-0.6215
591,0.0,0.0,0.0,0.0,0.0,0.0,-0.3016,0.9469,0.2136,0.3782,0.4642,-0.5075,-0.6196
592,0.0,0.0,0.0,0.0,0.0,0.0,-0.2919,0.9453,0.2019,0.3777,0.4687,-0.5076,-0.6164
593,0.0,0.0,0.0,0.0,0.0,0.0,-0.2923,0.9360,0.1911,0.3766,0.4728,-0.5086,-0.6131
594,0.0,0.0,0.0,0.0,0.0,0.0,-0.2955,0.9221,0.1518,0.3746,0.4766,-0.5106,-0.6097
595,0.0,0.0,0.0,0.0,0.0,0.0,-0.2912,0.9416,0.1543,0.3728,0.4811,-0.5114,-0.6067
596,0.0,0.0,0.0,0.0,0.0,0.0,-0.3170,0.9543,0.1605,0.3724,0.4863,-0.5089,-0.6049
597,0.0,0.0,0.0,0.0,0.0,0.0,-0.3278,0.9618,0.1756,0.3734,0.4903,-0.5037,-0.6054
598,0.0,0.0,0.0,0.0,0.0,0.0,-0.3567,0.9996,0.2096,0.3744,0.4905,-0.4987,-0.6088
599,0.0,0.0,0.0,0.0,0.0,0.0,-0.3352,0.9750,0.1865,0.3738,0.4876,-0.4952,-0.6143
600,0.0,0.0,0.0,0.0,0.0,0.0,-0.3129,0.8844,0.1299,0.3715,0.4847,-0.4928,-0.6198
601,0.0,0.0,0.0,0.0,0.0,0.0,-0.3184,0.9017,0.1553,0.3692,0.4833,-0.4909,-0.6239
602,0.0,0.0,0.0,0.0,0.0,0.0,-0.3313,0.9211,0.2093,0.3696,0.4837,-0.4854,-0.6276
603,0.0,0.0,0.0,0.0,0.0,0.0,-0.3365,0.9732,0.2712,0.3739,0.4827,-0.4782,-0.6313
604,0.0,0.0,0.0,0.0,0.0,0.0,-0.3488,0.9260,0.2158,0.3766,0.4824,-0.4739,-0.6332
605,0.0,0.0,0.0,0.0,0.0,0.0,-0.3394,0.8747,0.1960,0.3761,0.4822,-0.4704,-0.6362
606,0.0,0.0,0.0,0.0,0.0,0.0,-0.2854,0.8868,0.1961,0.3753,0.4795,-0.4694,-0.6394
607,0.0,0.0,0.0,0.0,0.0,0.0,-0.3009,0.8853,0.1831,0.3757,0.4789,-0.4692,-0.6398
608,0.0,0.0,0.0,0.0,0.0,0.0,-0.3259,0.8870,0.2178,0.3779,0.4814,-0.4657,-0.6392
609,0.0,0.0,0.0,0.0,0.0,0.0,-0.3146,0.8874,0.1997,0.3800,0.4842,-0.4640,-0.6370
610,0.0,0.0,0.0,0.0,0.0,0.0,-0.3190,0.9049,0.1960,0.3804,0.4852,-0.4654,-0.6350
611,0.0,0.0,0.0,0.0,0.0,0.0,-0.3616,0.9248,0.2426,0.3794,0.4839,-0.4668,-0.6356
612,0.0,0.0,0.0,0.0,0.0,0.0,-0.3504,0.9311,0.2367,0.3778,0.4818,-0.4695,-0.6362
613,0.0,0.0,0.0,0.0,0.0,0.0,-0.3420,0.9183,0.2230,0.3768,0.4811,-0.4716,-0.6358
614,0.0,0.0,0.0,0.0,0.0,0.0,-0.3313,0.9285,0.2249,0.3780,0.4814,-0.4719,-0.6345
615,0.0,0.0,0.0,0.0,0.0,0.0,-0.3264,0.9221,0.2093,0.3792,0.4829,-0.4725,-0.6323
616,0.0,0.0,0.0,0.0,0.0,0.0,-0.3341,0.9045,0.2039,0.3787,0.4835,-0.4756,-0.6298
617,0.0,0.0,0.0,0.0,0.0,0.0,-0.3082,0.8862,0.1696,0.3747,0.4830,-0.4843,-0.6259
618,0.0,0.0,0.0,0.0,0.0,0.0,-0.2917,0.9037,0.1701,0.3692,0.4838,-0.4940,-0.6209
619,0.0,0.0,0.0,0.0,0.0,0.0,-0.2787,0.9414,0.1940,0.3659,0.4856,-0.5022,-0.6149
620,0.0,0.0,0.0,0.0,0.0,0.0,-0.2894,0.9784,0.1904,0.3664,0.4853,-0.5068,-0.6110
621,0.0,0.0,0.0,0.0,0.0,0.0,-0.3174,0.9977,0.2252,0.3689,0.4837,-0.5085,-0.6094
622,0.0,0.0,0.0,0.0,0.0,0.0,-0.3180,0.9490,0.1629,0.3694,0.4787,-0.5099,-0.6119
623,0.0,0.0,0.0,0.0,0.0,0.0,-0.2974,0.9147,0.1363,0.3676,0.4746,-0.5131,-0.6135
624,0.0,0.0,0.0,0.0,0.0,0.0,-0.3199,0.9213,0.1748,0.3643,0.4731,-0.5159,-0.6143
625,0.0,0.0,0.0,0.0,0.0,0.0,-0.2890,0.9760,0.2006,0.3645,0.4733,-0.5167,-0.6133
626,0.0,0.0,0.0,0.0,0.0,0.0,-0.3178,0.9830,0.2130,0.3670,0.4750,-0.5150,-0.6119
627,0.0,0.0,0.0,0.0,0.0,0.0,-0.3405,0.9327,0.1974,0.3673,0.4759,-0.5144,-0.6116
628,0.0,0.0,0.0,0.0,0.0,0.0,-0.2962,0.9433,0.1830,0.3667,0.4739,-0.5175,-0.6109
629,0.0,0.0,0.0,0.0,0.0,0.0,-0.2780,0.9050,0.1482,0.3663,0.4730,-0.5200,-0.6096
630,0.0,0.0,0.0,0.0,0.0,0.0,-0.2570,0.9084,0.1509,0.3677,0.4743,-0.5217,-0.6063
631,0.0,0.0,0.0,0.0,0.0,0.0,-0.2858,0.9225,0.1517,0.3699,0.4771,-0.5224,-0.6022
632,0.0,0.0,0.0,0.0,0.0,0.0,-0.2936,0.9275,0.1567,0.3731,0.4797,-0.5211,-0.5993
633,0.0,0.0,0.0,0.0,0.0,0.0,-0.2890,0.8961,0.1264,0.3748,0.4840,-0.5201,-0.5957
634,0.0,0.0,0.0,0.0,0.0,0.0,-0.2748,0.8928,0.0870,0.3731,0.4861,-0.5226,-0.5929
635,0.0,0.0,0.0,0.0,0.0,0.0,-0.3188,0.9463,0.1328,0.3721,0.4872,-0.5239,-0.5914
636,0.0,0.0,0.0,0.0,0.0,0.0,-0.3180,0.9587,0.1610,0.3728,0.4866,-0.5226,-0.5926
637,0.0,0.0,0.0,0.0,0.0,0.0,-0.2859,0.9752,0.1618,0.3739,0.4856,-0.5221,-0.5932
638,0.0,0.0,0.0,0.0,0.0,0.0,-0.2871,0.9335,0.1199,0.3737,0.4850,-0.5235,-0.5925
639,0.0,0.0,0.0,0.0,0.0,0.0,-0.2891,0.9399,0.1228,0.3735,0.4843,-0.5244,-0.5924
640,0.0,0.0,0.0,0.0,0.0,0.0,-0.2878,0.9713,0.1545,0.3761,0.4838,-0.5226,-0.5928
641,0.0,0.0,0.0,0.0,0.0,0.0,-0.2749,0.9212,0.1100,0.3788,0.4847,-0.5208,-0.5919
642,0.0,0.0,0.0,0.0,0.0,0.0,-0.2691,0.9203,0.1177,0.3807,0.4857,-0.5203,-0.5903
643,0.0,0.0,0.0,0.0,0.0,0.0,-0.2785,0.9464,0.1446,0.3818,0.4847,-0.5208,-0.5899
644,0.0,0.0,0.0,0.0,0.0,0.0,-0.2872,0.9375,0.1378,0.3816,0.4836,-0.5224,-0.5896
645,0.0,0.0,0.0,0.0,0.0,0.0,-0.2887,0.9410,0.1432,0.3820,0.4831,-0.5231,-0.5891
646,0.0,0.0,0.0,0.0,0.0,0.0,-0.2873,0.9625,0.1554,0.3845,0.4832,-0.5217,-0.5886
647,0.0,0.0,0.0,0.0,0.0,0.0,-0.2956,0.9508,0.1506,0.3882,0.4847,-0.5184,-0.5879
648,0.0,0.0,0.0,0.0,0.0,0.0,-0.3175,0.9636,0.1654,0.3917,0.4862,-0.5154,-0.5870
649,0.0,0.0,0.0,0.0,0.0,0.0,-0.3268,0.9621,0.1611,0.3924,0.4869,-0.5146,-0.5866
650,0.0,0.0,0.0,0.0,0.0,0.0,-0.3219,0.9680,0.1630,0.3921,0.4864,-0.5142,-0.5876
651,0.0,0.0,0.0,0.0,0.0,0.0,-0.3155,0.9591,0.1440,0.3914,0.4862,-0.5139,-0.5885
652,0.0,0.0,0.0,0.0,0.0,0.0,-0.3038,0.9429,0.1346,0.3916,0.4866,-0.5129,-0.5889
653,0.0,0.0,0.0,0.0,0.0,0.0,-0.2852,0.9428,0.1228,0.3924,0.4884,-0.5120,-0.5876
654,0.0,0.0,0.0,0.0,0.0,0.0,-0.2789,0.9467,0.1310,0.3935,0.4903,-0.5111,-0.5861
655,0.0,0.0,0.0,0.0,0.0,0.0,-0.2828,0.9516,0.1306,0.3934,0.4910,-0.5111,-0.5856
656,0.0,0.0,0.0,0.0,0.0,0.0,-0.2794,0.9492,0.1354,0.3925,0.4907,-0.5116,-0.5861
657,0.0,0.0,0.0,0.0,0.0,0.0,-0.2672,0.9452,0.1265,0.3911,0.4904,-0.5125,-0.5865
658,0.0,0.0,0.0,0.0,0.0,0.0,-0.2672,0.9452,0.1265,0.3904,0.4907,-0.5123,-0.5868
659,0.0,0.0,0.0,0.0,0.0,0.0,-0.2678,0.9550,0.1353,0.3904,0.4914,-0.5119,-0.5865
660,0.0,0.0,0.0,0.0,0.0,0.0,-0.2599,0.9472,0.1275,0.3909,0.4921,-0.5117,-0.5859
661,0.0,0.0,0.0,0.0,0.0,0.0,-0.2623,0.9384,0.1250,0.3911,0.4922,-0.5115,-0.5858
662,0.0,0.0,0.0,0.0,0.0,0.0,-0.2600,0.9492,0.1313,0.3909,0.4919,-0.5114,-0.5863
663,0.0,0.0,0.0,0.0,0.0,0.0,-0.2522,0.9491,0.1308,0.3905,0.4914,-0.5114,-0.5869
664,0.0,0.0,0.0,0.0,0.0,0.0,-0.2654,0.9586,0.1503,0.3912,0.4909,-0.5104,-0.5878
665,0.0,0.0,0.0,0.0,0.0,0.0,-0.2791,0.9650,0.1588,0.3922,0.4909,-0.5091,-0.5882
666,0.0,0.0,0.0,0.0,0.0,0.0,-0.2942,0.9680,0.1633,0.3935,0.4922,-0.5076,-0.5876
667,0.0,0.0,0.0,0.0,0.0,0.0,-0.2603,0.9172,0.0987,0.3934,0.4935,-0.5073,-0.5868
668,0.0,0.0,0.0,0.0,0.0,0.0,-0.2770,0.9439,0.1426,0.3930,0.4951,-0.5079,-0.5853
669,0.0,0.0,0.0,0.0,0.0,0.0,-0.3382,0.9790,0.2030,0.3924,0.4981,-0.5100,-0.5812
670,0.0,0.0,0.0,0.0,0.0,0.0,-0.3085,0.9447,0.1148,0.3910,0.5044,-0.5115,-0.5754
671,0.0,0.0,0.0,0.0,0.0,0.0,-0.3308,0.9212,0.0921,0.3886,0.5102,-0.5107,-0.5726
672,0.0,0.0,0.0,0.0,0.0,0.0,-0.3403,0.9935,0.1256,0.3856,0.5132,-0.5110,-0.5717
673,0.0,0.0,0.0,0.0,0.0,0.0,-0.3350,1.0145,0.1291,0.3844,0.5158,-0.5093,-0.5717
674,0.0,0.0,0.0,0.0,0.0,0.0,-0.3451,0.9672,0.1167,0.3828,0.5187,-0.5066,-0.5724
675,0.0,0.0,0.0,0.0,0.0,0.0,-0.3383,0.9663,0.1244,0.3804,0.5208,-0.5044,-0.5742
676,0.0,0.0,0.0,0.0,0.0,0.0,-0.3158,0.9441,0.1013,0.3769,0.5212,-0.5034,-0.5770
677,0.0,0.0,0.0,0.0,0.0,0.0,-0.3075,0.9295,0.1035,0.3746,0.5209,-0.5020,-0.5800
678,0.0,0.0,0.0,0.0,0.0,0.0,-0.3245,0.9407,0.1023,0.3743,0.5216,-0.4992,-0.5820
679,0.0,0.0,0.0,0.0,0.0,0.0,-0.3284,0.9364,0.1023,0.3752,0.5229,-0.4953,-0.5835
680,0.0,0.0,0.0,0.0,0.0,0.0,-0.3245,0.9174,0.1031,0.3753,0.5244,-0.4922,-0.5848
681,0.0,0.0,0.0,0.0,0.0,0.0,-0.3353,0.9282,0.1130,0.3733,0.5241,-0.4915,-0.5869
682,0.0,0.0,0.0,0.0,0.0,0.0,-0.3337,0.9110,0.1012,0.3706,0.5229,-0.4917,-0.5895
683,0.0,0.0,0.0,0.0,0.0,0.0,-0.3337,0.9052,0.1017,0.3690,0.5224,-0.4908,-0.5916
684,0.0,0.0,0.0,0.0,0.0,0.0,-0.3430,0.9145,0.1105,0.3689,0.5230,-0.4886,-0.5931
685,0.0,0.0,0.0,0.0,0.0,0.0,-0.3538,0.9194,0.1155,0.3687,0.5234,-0.4860,-0.5949
686,0.0,0.0,0.0,0.0,0.0,0.0,-0.3488,0.8998,0.0969,0.3667,0.5227,-0.4853,-0.5973
687,0.0,0.0,0.0,0.0,0.0,0.0,-0.3582,0.9195,0.1180,0.3644,0.5208,-0.4849,-0.6007
688,0.0,0.0,0.0,0.0,0.0,0.0,-0.3548,0.9254,0.1277,0.3635,0.5190,-0.4832,-0.6041
689,0.0,0.0,0.0,0.0,0.0,0.0,-0.3597,0.9176,0.1286,0.3646,0.5172,-0.4783,-0.6089
690,0.0,0.0,0.0,0.0,0.0,0.0,-0.3772,0.9133,0.1307,0.3645,0.5139,-0.4739,-0.6152
691,0.0,0.0,0.0,0.0,0.0,0.0,-0.3621,0.9181,0.1262,0.3621,0.5086,-0.4730,-0.6216
692,0.0,0.0,0.0,0.0,0.0,0.0,-0.3611,0.8908,0.1324,0.3576,0.5037,-0.4736,-0.6278
693,0.0,0.0,0.0,0.0,0.0,0.0,-0.3579,0.9263,0.1829,0.3544,0.4994,-0.4739,-0.6328
694,0.0,0.0,0.0,0.0,0.0,0.0,-0.3680,0.9915,0.2387,0.3539,0.4955,-0.4723,-0.6373
695,0.0,0.0,0.0,0.0,0.0,0.0,-0.3798,0.9044,0.1786,0.3510,0.4949,-0.4723,-0.6394
696,0.0,0.0,0.0,0.0,0.0,0.0,-0.2963,0.8469,0.1305,0.3495,0.4930,-0.4716,-0.6423
697,0.0,0.0,0.0,0.0,0.0,0.0,-0.3185,0.9102,0.1834,0.3502,0.4924,-0.4697,-0.6436
698,0.0,0.0,0.0,0.0,0.0,0.0,-0.3915,0.8671,0.2071,0.3500,0.4943,-0.4696,-0.6424
699,0.0,0.0,0.0,0.0,0.0,0.0,-0.3885,0.8645,0.1906,0.3491,0.4960,-0.4697,-0.6415
700,0.0,0.0,0.0,0.0,0.0,0.0,-0.3847,0.8987,0.2043,0.3479,0.4963,-0.4717,-0.6405
701,0.0,0.0,0.0,0.0,0.0,0.0,-0.4086,0.8838,0.2243,0.3462,0.4951,-0.4746,-0.6402
702,0.0,0.0,0.0,0.0,0.0,0.0,-0.3901,0.9016,0.1986,0.3448,0.4926,-0.4794,-0.6393
703,0.0,0.0,0.0,0.0,0.0,0.0,-0.3852,0.8893,0.1902,0.3429,0.4904,-0.4838,-0.6386
704,0.0,0.0,0.0,0.0,0.0,0.0,-0.3700,0.8805,0.1857,0.3393,0.4893,-0.4890,-0.6375
705,0.0,0.0,0.0,0.0,0.0,0.0,-0.3588,0.8955,0.1755,0.3353,0.4899,-0.4927,-0.6363
706,0.0,0.0,0.0,0.0,0.0,0.0,-0.3700,0.8955,0.1732,0.3327,0.4928,-0.4951,-0.6335
707,0.0,0.0,0.0,0.0,0.0,0.0,-0.3773,0.8951,0.1752,0.3300,0.4970,-0.4977,-0.6296
708,0.0,0.0,0.0,0.0,0.0,0.0,-0.3763,0.8828,0.1649,0.3243,0.5002,-0.5041,-0.6250
709,0.0,0.0,0.0,0.0,0.0,0.0,-0.3574,0.9179,0.1659,0.3177,0.5002,-0.5135,-0.6206
710,0.0,0.0,0.0,0.0,0.0,0.0,-0.3725,0.9413,0.1643,0.3134,0.5001,-0.5197,-0.6177
711,0.0,0.0,0.0,0.0,0.0,0.0,-0.4114,0.9388,0.1549,0.3103,0.5009,-0.5233,-0.6155
712,0.0,0.0,0.0,0.0,0.0,0.0,-0.3902,0.8950,0.1031,0.3070,0.5023,-0.5249,-0.6148
713,0.0,0.0,0.0,0.0,0.0,0.0,-0.3698,0.9107,0.1185,0.3017,0.5023,-0.5281,-0.6147
714,0.0,0.0,0.0,0.0,0.0,0.0,-0.4348,0.9476,0.1571,0.2958,0.5020,-0.5319,-0.6145
715,0.0,0.0,0.0,0.0,0.0,0.0,-0.3971,0.9313,0.1276,0.2904,0.5015,-0.5338,-0.6159
716,0.0,0.0,0.0,0.0,0.0,0.0,-0.3658,0.9760,0.1795,0.2884,0.4994,-0.5335,-0.6187
717,0.0,0.0,0.0,0.0,0.0,0.0,-0.4255,0.9447,0.1536,0.2849,0.4986,-0.5356,-0.6192
718,0.0,0.0,0.0,0.0,0.0,0.0,-0.3450,0.9272,0.1077,0.2840,0.4971,-0.5377,-0.6189
719,0.0,0.0,0.0,0.0,0.0,0.0,-0.3458,0.8934,0.0872,0.2842,0.4974,-0.5397,-0.6168
720,0.0,0.0,0.0,0.0,0.0,0.0,-0.3683,0.9013,0.1029,0.2849,0.4984,-0.5434,-0.6125
721,0.0,0.0,0.0,0.0,0.0,0.0,-0.3526,0.9182,0.0763,0.2865,0.5001,-0.5460,-0.6081
722,0.0,0.0,0.0,0.0,0.0,0.0,-0.4887,0.8724,0.0505,0.2886,0.5047,-0.5420,-0.6068
723,0.0,0.0,0.0,0.0,0.0,0.0,-0.3650,0.8657,0.0315,0.2905,0.5058,-0.5420,-0.6050
724,0.0,0.0,0.0,0.0,0.0,0.0,-0.3735,0.9186,0.0692,0.2910,0.5033,-0.5431,-0.6058
725,0.0,0.0,0.0,0.0,0.0,0.0,-0.4297,0.9415,0.1193,0.2907,0.4997,-0.5445,-0.6077
726,0.0,0.0,0.0,0.0,0.0,0.0,-0.3869,0.9555,0.1161,0.2910,0.4949,-0.5460,-0.6101
727,0.0,0.0,0.0,0.0,0.0,0.0,-0.3739,0.9746,0.1263,0.2953,0.4918,-0.5434,-0.6129
728,0.0,0.0,0.0,0.0,0.0,0.0,-0.3922,0.9184,0.1047,0.2990,0.4909,-0.5419,-0.6131
729,0.0,0.0,0.0,0.0,0.0,0.0,-0.3541,0.9275,0.0851,0.3038,0.4911,-0.5405,-0.6119
730,0.0,0.0,0.0,0.0,0.0,0.0,-0.3760,0.9275,0.0843,0.3084,0.4920,-0.5387,-0.6104
731,0.0,0.0,0.0,0.0,0.0,0.0,-0.3682,0.9275,0.0818,0.3129,0.4916,-0.5388,-0.6083
732,0.0,0.0,0.0,0.0,0.0,0.0,-0.3432,0.8892,0.0479,0.3149,0.4902,-0.5418,-0.6058
733,0.0,0.0,0.0,0.0,0.0,0.0,-0.3551,0.9240,0.0792,0.3160,0.4887,-0.5447,-0.6038
734,0.0,0.0,0.0,0.0,0.0,0.0,-0.3833,0.9295,0.0834,0.3168,0.4887,-0.5476,-0.6008
735,0.0,0.0,0.0,0.0,0.0,0.0,-0.3609,0.9264,0.0667,0.3186,0.4891,-0.5483,-0.5988
736,0.0,0.0,0.0,0.0,0.0,0.0,-0.3742,0.9476,0.0951,0.3210,0.4897,-0.5483,-0.5970
737,0.0,0.0,0.0,0.0,0.0,0.0,-0.3790,0.9450,0.0830,0.3226,0.4895,-0.5487,-0.5960
738,0.0,0.0,0.0,0.0,0.0,0.0,-0.3654,0.9538,0.0853,0.3246,0.4891,-0.5474,-0.5965
739,0.0,0.0,0.0,0.0,0.0,0.0,-0.3659,0.9582,0.0863,0.3268,0.4877,-0.5455,-0.5981
740,0.0,0.0,0.0,0.0,0.0,0.0,-0.3590,0.9377,0.0861,0.3290,0.4870,-0.5427,-0.6001
741,0.0,0.0,0.0,0.0,0.0,0.0,-0.3503,0.9339,0.0889,0.3310,0.4867,-0.5399,-0.6017
742,0.0,0.0,0.0,0.0,0.0,0.0,-0.3448,0.9210,0.0704,0.3312,0.4862,-0.5391,-0.6027
743,0.0,0.0,0.0,0.0,0.0,0.0,-0.3341,0.9127,0.0669,0.3315,0.4865,-0.5382,-0.6032
744,0.0,0.0,0.0,0.0,0.0,0.0,-0.3288,0.9245,0.0819,0.3321,0.4875,-0.5375,-0.6027
745,0.0,0.0,0.0,0.0,0.0,0.0,-0.3367,0.9388,0.0966,0.3328,0.4886,-0.5371,-0.6017
746,0.0,0.0,0.0,0.0,0.0,0.0,-0.3416,0.9402,0.0991,0.3336,0.4889,-0.5365,-0.6015
747,0.0,0.0,0.0,0.0,0.0,0.0,-0.3317,0.9372,0.0781,0.3340,0.4890,-0.5365,-0.6013
748,0.0,0.0,0.0,0.0,0.0,0.0,-0.3337,0.9382,0.0849,0.3339,0.4886,-0.5360,-0.6021
749,0.0,0.0,0.0,0.0,0.0,0.0,-0.3387,0.9481,0.1078,0.3344,0.4881,-0.5347,-0.6034
750,0.0,0.0,0.0,0.0,0.0,0.0,-0.3280,0.9539,0.1015,0.3354,0.4869,-0.5335,-0.6049
751,0.0,0.0,0.0,0.0,0.0,0.0,-0.3255,0.9393,0.0999,0.3362,0.4863,-0.5319,-0.6063
752,0.0,0.0,0.0,0.0,0.0,0.0,-0.3379,0.9561,0.1374,0.3370,0.4851,-0.5306,-0.6079
753,0.0,0.0,0.0,0.0,0.0,0.0,-0.3422,0.9523,0.1423,0.3372,0.4833,-0.5304,-0.6094
754,0.0,0.0,0.0,0.0,0.0,0.0,-0.3211,0.9139,0.0924,0.3360,0.4835,-0.5304,-0.6100
755,0.0,0.0,0.0,0.0,0.0,0.0,-0.3231,0.9193,0.1046,0.3347,0.4852,-0.5309,-0.6089
756,0.0,0.0,0.0,0.0,0.0,0.0,-0.3583,0.9460,0.1497,0.3342,0.4874,-0.5317,-0.6067
757,0.0,0.0,0.0,0.0,0.0,0.0,-0.3367,0.9316,0.1106,0.3320,0.4903,-0.5344,-0.6032
758,0.0,0.0,0.0,0.0,0.0,0.0,-0.3024,0.9097,0.0544,0.3291,0.4920,-0.5381,-0.6001
759,0.0,0.0,0.0,0.0,0.0,0.0,-0.2928,0.9331,0.0686,0.3273,0.4914,-0.5407,-0.5992
760,0.0,0.0,0.0,0.0,0.0,0.0,-0.3538,0.9638,0.1153,0.3273,0.4903,-0.5417,-0.5992
761,0.0,0.0,0.0,0.0,0.0,0.0,-0.3269,0.9591,0.0865,0.3280,0.4896,-0.5424,-0.5988
762,0.0,0.0,0.0,0.0,0.0,0.0,-0.3265,0.9504,0.0937,0.3291,0.4887,-0.5414,-0.5997
763,0.0,0.0,0.0,0.0,0.0,0.0,-0.3782,0.9712,0.1263,0.3301,0.4874,-0.5397,-0.6018
764,0.0,0.0,0.0,0.0,0.0,0.0,-0.3529,0.9712,0.1270,0.3310,0.4840,-0.5387,-0.6049
765,0.0,0.0,0.0,0.0,0.0,0.0,-0.3231,0.9441,0.0975,0.3315,0.4804,-0.5388,-0.6075
766,0.0,0.0,0.0,0.0,0.0,0.0,-0.3290,0.9369,0.1106,0.3320,0.4772,-0.5383,-0.6101
767,0.0,0.0,0.0,0.0,0.0,0.0,-0.3169,0.9560,0.1237,0.3319,0.4724,-0.5393,-0.6130
768,0.0,0.0,0.0,0.0,0.0,0.0,-0.2831,0.9255,0.0955,0.3313,0.4683,-0.5411,-0.6149
769,0.0,0.0,0.0,0.0,0.0,0.0,-0.2612,0.9104,0.0923,0.3316,0.4660,-0.5414,-0.6162
770,0.0,0.0,0.0,0.0,0.0,0.0,-0.2866,0.9316,0.1194,0.3326,0.4648,-0.5408,-0.6171
771,0.0,0.0,0.0,0.0,0.0,0.0,-0.2872,0.9380,0.1315,0.3351,0.4640,-0.5398,-0.6173
772,0.0,0.0,0.0,0.0,0.0,0.0,-0.2925,0.9360,0.1209,0.3374,0.4633,-0.5388,-0.6174
773,0.0,0.0,0.0,0.0,0.0,0.0,-0.2886,0.9346,0.1301,0.3382,0.4616,-0.5393,-0.6179
774,0.0,0.0,0.0,0.0,0.0,0.0,-0.2833,0.9428,0.1291,0.3380,0.4587,-0.5407,-0.6188
775,0.0,0.0,0.0,0.0,0.0,0.0,-0.2740,0.9414,0.1280,0.3383,0.4564,-0.5421,-0.6192
776,0.0,0.0,0.0,0.0,0.0,0.0,-0.2569,0.9349,0.1152,0.3401,0.4561,-0.5413,-0.6191
777,0.0,0.0,0.0,0.0,0.0,0.0,-0.2779,0.9335,0.1178,0.3422,0.4574,-0.5400,-0.6181
778,0.0,0.0,0.0,0.0,0.0,0.0,-0.2793,0.9359,0.1188,0.3433,0.4584,-0.5403,-0.6166
779,0.0,0.0,0.0,0.0,0.0,0.0,-0.2999,0.9483,0.1351,0.3443,0.4588,-0.5401,-0.6158
780,0.0,0.0,0.0,0.0,0.0,0.0,-0.3146,0.9631,0.1600,0.3451,0.4587,-0.5399,-0.6156
781,0.0,0.0,0.0,0.0,0.0,0.0,-0.2916,0.9424,0.1374,0.3461,0.4589,-0.5390,-0.6157
782,0.0,0.0,0.0,0.0,0.0,0.0,-0.3018,0.9371,0.1399,0.3472,0.4597,-0.5377,-0.6157
783,0.0,0.0,0.0,0.0,0.0,0.0,-0.3057,0.9395,0.2644,0.3487,0.4586,-0.5370,-0.6161
784,0.0,0.0,0.0,0.0,0.0,0.0,-0.2922,0.9460,0.1534,0.3495,0.4583,-0.5364,-0.6165
785,0.0,0.0,0.0,0.0,0.0,0.0,-0.2921,0.9380,0.1335,0.3495,0.4580,-0.5365,-0.6166
786,0.0,0.0,0.0,0.0,0.0,0.0,-0.2994,0.9386,0.1442,0.3499,0.4584,-0.5360,-0.6166
787,0.0,0.0,0.0,0.0,0.0,0.0,-0.3093,0.9578,0.1725,0.3514,0.4583,-0.5343,-0.6173
788,0.0,0.0,0.0,0.0,0.0,0.0,-0.3078,0.9519,0.1667,0.3527,0.4586,-0.5330,-0.6174
789,0.0,0.0,0.0,0.0,0.0,0.0,-0.3063,0.9363,0.1583,0.3528,0.4590,-0.5320,-0.6179
790,0.0,0.0,0.0,0.0,0.0,0.0,-0.3108,0.9486,0.1841,0.3531,0.4585,-0.5312,-0.6188
791,0.0,0.0,0.0,0.0,0.0,0.0,-0.3040,0.9642,0.1793,0.3539,0.4576,-0.5302,-0.6199
792,0.0,0.0,0.0,0.0,0.0,0.0,-0.3009,0.9245,0.1553,0.3548,0.4581,-0.5283,-0.6206
793,0.0,0.0,0.0,0.0,0.0,0.0,-0.3009,0.9251,0.1674,0.3552,0.4592,-0.5265,-0.6210
794,0.0,0.0,0.0,0.0,0.0,0.0,-0.3146,0.9365,0.1821,0.3553,0.4600,-0.5252,-0.6216
795,0.0,0.0,0.0,0.0,0.0,0.0,-0.3312,0.9311,0.1852,0.3557,0.4608,-0.5232,-0.6224
796,0.0,0.0,0.0,0.0,0.0,0.0,-0.3044,0.9208,0.1742,0.3565,0.4605,-0.5205,-0.6245
797,0.0,0.0,0.0,0.0,0.0,0.0,-0.3103,0.9151,0.1916,0.3574,0.4595,-0.5187,-0.6261
798,0.0,0.0,0.0,0.0,0.0,0.0,-0.3225,0.9210,0.2005,0.3576,0.4603,-0.5175,-0.6264
799,0.0,0.0,0.0,0.0,0.0,0.0,-0.3259,0.9386,0.2089,0.3586,0.4606,-0.5150,-0.6277
800,0.0,0.0,0.0,0.0,0.0,0.0,-0.3249,0.9210,0.1976,0.3594,0.4612,-0.5126,-0.6287
801,0.0,0.0,0.0,0.0,0.0,0.0,-0.3161,0.9210,0.1956,0.3595,0.4621,-0.5112,-0.6292
802,0.0,0.0,0.0,0.0,0.0,0.0,-0.3274,0.9259,0.2030,0.3583,0.4635,-0.5105,-0.6294
803,0.0,0.0,0.0,0.0,0.0,0.0,-0.3336,0.9092,0.1870,0.3566,0.4650,-0.5092,-0.6304
804,0.0,0.0,0.0,0.0,0.0,0.0,-0.3156,0.9282,0.1908,0.3561,0.4654,-0.5076,-0.6317
805,0.0,0.0,0.0,0.0,0.0,0.0,-0.3307,0.9273,0.1924,0.3544,0.4644,-0.5067,-0.6340
806,0.0,0.0,0.0,0.0,0.0,0.0,-0.3326,0.9180,0.1831,0.3539,0.4644,-0.5052,-0.6355
807,0.0,0.0,0.0,0.0,0.0,0.0,-0.3136,0.9155,0.1752,0.3526,0.4636,-0.5047,-0.6372
808,0.0,0.0,0.0,0.0,0.0,0.0,-0.2862,0.8913,0.1375,0.3505,0.4640,-0.5053,-0.6376
809,0.0,0.0,0.0,0.0,0.0,0.0,-0.2994,0.9182,0.1606,0.3492,0.4663,-0.5062,-0.6360
810,0.0,0.0,0.0,0.0,0.0,0.0,-0.3302,0.9419,0.1862,0.3484,0.4695,-0.5061,-0.6342
811,0.0,0.0,0.0,0.0,0.0,0.0,-0.3365,0.9345,0.1838,0.3476,0.4721,-0.5056,-0.6330
812,0.0,0.0,0.0,0.0,0.0,0.0,-0.3546,0.9381,0.1970,0.3459,0.4735,-0.5064,-0.6322
813,0.0,0.0,0.0,0.0,0.0,0.0,-0.3439,0.9385,0.1907,0.3429,0.4732,-0.5086,-0.6323
814,0.0,0.0,0.0,0.0,0.0,0.0,-0.3282,0.9325,0.1672,0.3406,0.4726,-0.5106,-0.6324
815,0.0,0.0,0.0,0.0,0.0,0.0,-0.3199,0.9265,0.1560,0.3397,0.4736,-0.5111,-0.6317
816,0.0,0.0,0.0,0.0,0.0,0.0,-0.3204,0.9343,0.1541,0.3400,0.4753,-0.5107,-0.6306
817,0.0,0.0,0.0,0.0,0.0,0.0,-0.3325,0.9299,0.1498,0.3403,0.4771,-0.5104,-0.6294
818,0.0,0.0,0.0,0.0,0.0,0.0,-0.3369,0.9275,0.1571,0.3400,0.4779,-0.5103,-0.6289
819,0.0,0.0,0.0,0.0,0.0,0.0,-0.3292,0.9368,0.1614,0.3398,0.4778,-0.5109,-0.6287
820,0.0,0.0,0.0,0.0,0.0,0.0,-0.3433,0.9315,0.1620,0.3397,0.4781,-0.5113,-0.6282
821,0.0,0.0,0.0,0.0,0.0,0.0,-0.3437,0.9324,0.1591,0.3402,0.4785,-0.5112,-0.6278
822,0.0,0.0,0.0,0.0,0.0,0.0,-0.3364,0.9231,0.1474,0.3408,0.4793,-0.5110,-0.6269
823,0.0,0.0,0.0,0.0,0.0,0.0,-0.3319,0.9128,0.1376,0.3410,0.4808,-0.5111,-0.6256
824,0.0,0.0,0.0,0.0,0.0,0.0,-0.3325,0.9236,0.1478,0.3412,0.4816,-0.5115,-0.6245
825,0.0,0.0,0.0,0.0,0.0,0.0,-0.3496,0.9398,0.1660,0.3416,0.4823,-0.5119,-0.6234
826,0.0,0.0,0.0,0.0,0.0,0.0,-0.3520,0.9354,0.1612,0.3425,0.4834,-0.5116,-0.6222
827,0.0,0.0,0.0,0.0,0.0,0.0,-0.3486,0.9320,0.1635,0.3435,0.4847,-0.5109,-0.6214
828,0.0,0.0,0.0,0.0,0.0,0.0,-0.3574,0.9350,0.1777,0.3444,0.4852,-0.5103,-0.6210
829,0.0,0.0,0.0,0.0,0.0,0.0,-0.3511,0.9276,0.1698,0.3453,0.4855,-0.5096,-0.6207
830,0.0,0.0,0.0,0.0,0.0,0.0,-0.3300,0.8997,0.1476,0.3455,0.4866,-0.5089,-0.6204
831,0.0,0.0,0.0,0.0,0.0,0.0,-0.3310,0.9051,0.1520,0.3457,0.4881,-0.5087,-0.6193
832,0.0,0.0,0.0,0.0,0.0,0.0,-0.3427,0.9226,0.1498,0.3457,0.4901,-0.5093,-0.6172
833,0.0,0.0,0.0,0.0,0.0,0.0,-0.3480,0.9231,0.1450,0.3461,0.4923,-0.5089,-0.6155
834,0.0,0.0,0.0,0.0,0.0,0.0,-0.3579,0.9373,0.1632,0.3472,0.4943,-0.5082,-0.6139
835,0.0,0.0,0.0,0.0,0.0,0.0,-0.3608,0.9480,0.1589,0.3478,0.4949,-0.5087,-0.6127
836,0.0,0.0,0.0,0.0,0.0,0.0,-0.3530,0.9631,0.1507,0.3477,0.4943,-0.5101,-0.6120
837,0.0,0.0,0.0,0.0,0.0,0.0,-0.3461,0.9532,0.1331,0.3470,0.4944,-0.5131,-0.6099
838,0.0,0.0,0.0,0.0,0.0,0.0,-0.3421,0.9373,0.1005,0.3462,0.4954,-0.5159,-0.6070
839,0.0,0.0,0.0,0.0,0.0,0.0,-0.3470,0.9449,0.1287,0.3465,0.4975,-0.5176,-0.6037
840,0.0,0.0,0.0,0.0,0.0,0.0,-0.3334,0.9589,0.1175,0.3475,0.4990,-0.5200,-0.5999
841,0.0,0.0,0.0,0.0,0.0,0.0,-0.3201,0.9347,0.0829,0.3474,0.4988,-0.5231,-0.5974
842,0.0,0.0,0.0,0.0,0.0,0.0,-0.3137,0.9351,0.0717,0.3460,0.4979,-0.5273,-0.5953
843,0.0,0.0,0.0,0.0,0.0,0.0,-0.3138,0.9498,0.0800,0.3447,0.4968,-0.5307,-0.5939
844,0.0,0.0,0.0,0.0,0.0,0.0,-0.3182,0.9519,0.0994,0.3449,0.4965,-0.5319,-0.5930
845,0.0,0.0,0.0,0.0,0.0,0.0,-0.2938,0.9571,0.0804,0.3459,0.4958,-0.5324,-0.5926
846,0.0,0.0,0.0,0.0,0.0,0.0,-0.2973,0.9587,0.0978,0.3463,0.4941,-0.5332,-0.5929
847,0.0,0.0,0.0,0.0,0.0,0.0,-0.2928,0.9454,0.0754,0.3452,0.4918,-0.5354,-0.5936
848,0.0,0.0,0.0,0.0,0.0,0.0,-0.2811,0.9361,0.0738,0.3440,0.4893,-0.5367,-0.5951
849,0.0,0.0,0.0,0.0,0.0,0.0,-0.2762,0.9390,0.0709,0.3445,0.4879,-0.5363,-0.5963
850,0.0,0.0,0.0,0.0,0.0,0.0,-0.2969,0.9491,0.1191,0.3467,0.4878,-0.5341,-0.5971
851,0.0,0.0,0.0,0.0,0.0,0.0,-0.3031,0.9441,0.1002,0.3487,0.4875,-0.5321,-0.5980
852,0.0,0.0,0.0,0.0,0.0,0.0,-0.3006,0.9235,0.0758,0.3479,0.4849,-0.5328,-0.6000
853,0.0,0.0,0.0,0.0,0.0,0.0,-0.2967,0.9279,0.0812,0.3457,0.4820,-0.5350,-0.6016
854,0.0,0.0,0.0,0.0,0.0,0.0,-0.3100,0.9442,0.1153,0.3450,0.4806,-0.5356,-0.6026
855,0.0,0.0,0.0,0.0,0.0,0.0,-0.3173,0.9569,0.1203,0.3460,0.4801,-0.5341,-0.6038
856,0.0,0.0,0.0,0.0,0.0,0.0,-0.3241,0.9447,0.1164,0.3475,0.4794,-0.5315,-0.6058
857,0.0,0.0,0.0,0.0,0.0,0.0,-0.3409,0.9689,0.1540,0.3482,0.4770,-0.5300,-0.6086
858,0.0,0.0,0.0,0.0,0.0,0.0,-0.3310,0.9527,0.1388,0.3471,0.4732,-0.5302,-0.6119
859,0.0,0.0,0.0,0.0,0.0,0.0,-0.3155,0.9537,0.1387,0.3462,0.4693,-0.5299,-0.6157
860,0.0,0.0,0.0,0.0,0.0,0.0,-0.2829,0.9444,0.1398,0.3466,0.4666,-0.5283,-0.6189
861,0.0,0.0,0.0,0.0,0.0,0.0,-0.2839,0.9509,0.1597,0.3485,0.4644,-0.5249,-0.6224
862,0.0,0.0,0.0,0.0,0.0,0.0,-0.2916,0.9337,0.1490,0.3504,0.4632,-0.5215,-0.6250
863,0.0,0.0,0.0,0.0,0.0,0.0,-0.2933,0.9418,0.1897,0.3517,0.4606,-0.5188,-0.6285
864,0.0,0.0,0.0,0.0,0.0,0.0,-0.2786,0.9524,0.1722,0.3519,0.4576,-0.5187,-0.6307
865,0.0,0.0,0.0,0.0,0.0,0.0,-0.2574,0.8898,0.1362,0.3520,0.4564,-0.5181,-0.6319
866,0.0,0.0,0.0,0.0,0.0,0.0,-0.2687,0.9098,0.1476,0.3525,0.4562,-0.5173,-0.6324
867,0.0,0.0,0.0,0.0,0.0,0.0,-0.2809,0.9114,0.1599,0.3540,0.4583,-0.5157,-0.6314
868,0.0,0.0,0.0,0.0,0.0,0.0,-0.3029,0.9301,0.1781,0.3563,0.4612,-0.5134,-0.6299
869,0.0,0.0,0.0,0.0,0.0,0.0,-0.3248,0.9233,0.1778,0.3577,0.4630,-0.5121,-0.6288
870,0.0,0.0,0.0,0.0,0.0,0.0,-0.3301,0.9037,0.1603,0.3582,0.4643,-0.5123,-0.6274
871,0.0,0.0,0.0,0.0,0.0,0.0,-0.3282,0.9329,0.1556,0.3581,0.4652,-0.5139,-0.6255
872,0.0,0.0,0.0,0.0,0.0,0.0,-0.3354,0.9328,0.1513,0.3580,0.4670,-0.5144,-0.6238
873,0.0,0.0,0.0,0.0,0.0,0.0,-0.3521,0.9185,0.1857,0.3596,0.4702,-0.5135,-0.6213
874,0.0,0.0,0.0,0.0,0.0,0.0,-0.3340,0.9188,0.1677,0.3600,0.4751,-0.5142,-0.6167
875,0.0,0.0,0.0,0.0,0.0,0.0,-0.3212,0.9147,0.1322,0.3580,0.4796,-0.5171,-0.6119
876,0.0,0.0,0.0,0.0,0.0,0.0,-0.3540,0.9271,0.1601,0.3550,0.4840,-0.5207,-0.6071
877,0.0,0.0,0.0,0.0,0.0,0.0,-0.3764,0.9530,0.1697,0.3536,0.4880,-0.5212,-0.6043
878,0.0,0.0,0.0,0.0,0.0,0.0,-0.3843,0.9925,0.1764,0.3557,0.4887,-0.5173,-0.6058
879,0.0,0.0,0.0,0.0,0.0,0.0,-0.3550,0.9752,0.1455,0.3585,0.4875,-0.5131,-0.6087
880,0.0,0.0,0.0,0.0,0.0,0.0,-0.3672,0.9491,0.1725,0.3619,0.4867,-0.5068,-0.6127
881,0.0,0.0,0.0,0.0,0.0,0.0,-0.3507,0.9565,0.1826,0.3640,0.4831,-0.5033,-0.6171
882,0.0,0.0,0.0,0.0,0.0,0.0,-0.2892,0.9186,0.1459,0.3630,0.4785,-0.5050,-0.6199
883,0.0,0.0,0.0,0.0,0.0,0.0,-0.2769,0.9034,0.1302,0.3599,0.4752,-0.5070,-0.6225
884,0.0,0.0,0.0,0.0,0.0,0.0,-0.3101,0.9104,0.1548,0.3598,0.4748,-0.5071,-0.6229
885,0.0,0.0,0.0,0.0,0.0,0.0,-0.2867,0.9157,0.1449,0.3629,0.4782,-0.5063,-0.6191
886,0.0,0.0,0.0,0.0,0.0,0.0,-0.2998,0.8835,0.1366,0.3649,0.4834,-0.5055,-0.6145
887,0.0,0.0,0.0,0.0,0.0,0.0,-0.3458,0.9306,0.1804,0.3614,0.4849,-0.5108,-0.6110
888,0.0,0.0,0.0,0.0,0.0,0.0,-0.3401,0.9883,0.2016,0.3568,0.4823,-0.5175,-0.6101
889,0.0,0.0,0.0,0.0,0.0,0.0,-0.3311,0.9573,0.1630,0.3539,0.4792,-0.5205,-0.6117
890,0.0,0.0,0.0,0.0,0.0,0.0,-0.2880,0.9061,0.1061,0.3531,0.4778,-0.5221,-0.6120
891,0.0,0.0,0.0,0.0,0.0,0.0,-0.2861,0.9233,0.1188,0.3542,0.4780,-0.5206,-0.6124
892,0.0,0.0,0.0,0.0,0.0,0.0,-0.3033,0.9362,0.1530,0.3549,0.4790,-0.5190,-0.6125
893,0.0,0.0,0.0,0.0,0.0,0.0,-0.2955,0.9254,0.1460,0.3527,0.4792,-0.5199,-0.6129
894,0.0,0.0,0.0,0.0,0.0,0.0,-0.2868,0.9431,0.1655,0.3496,0.4782,-0.5231,-0.6128
895,0.0,0.0,0.0,0.0,0.0,0.0,-0.2828,0.9410,0.1388,0.3461,0.4767,-0.5275,-0.6121
896,0.0,0.0,0.0,0.0,0.0,0.0,-0.2652,0.9169,0.1181,0.3432,0.4767,-0.5316,-0.6103
897,0.0,0.0,0.0,0.0,0.0,0.0,-0.2780,0.9487,0.1296,0.3424,0.4780,-0.5334,-0.6081
898,0.0,0.0,0.0,0.0,0.0,0.0,-0.3230,0.9906,0.1860,0.3440,0.4765,-0.5314,-0.6102
899,0.0,0.0,0.0,0.0,0.0,0.0,-0.3004,0.9624,0.1371,0.3448,0.4737,-0.5297,-0.6133
900,0.0,0.0,0.0,0.0,0.0,0.0,-0.3155,0.9460,0.1580,0.3446,0.4700,-0.5281,-0.6176
901,0.0,0.0,0.0,0.0,0.0,0.0,-0.3224,0.9520,0.1726,0.3427,0.4661,-0.5276,-0.6221
902,0.0,0.0,0.0,0.0,0.0,0.0,-0.2883,0.9353,0.1683,0.3409,0.4625,-0.5291,-0.6245
903,0.0,0.0,0.0,0.0,0.0,0.0,-0.2751,0.9434,0.1445,0.3408,0.4609,-0.5306,-0.6244
904,0.0,0.0,0.0,0.0,0.0,0.0,-0.3088,0.9398,0.1787,0.3426,0.4615,-0.5295,-0.6239
905,0.0,0.0,0.0,0.0,0.0,0.0,-0.2874,0.9583,0.1767,0.3447,0.4620,-0.5290,-0.6228
906,0.0,0.0,0.0,0.0,0.0,0.0,-0.2872,0.9254,0.1464,0.3442,0.4625,-0.5302,-0.6217
907,0.0,0.0,0.0,0.0,0.0,0.0,-0.3258,0.9276,0.1662,0.3409,0.4630,-0.5328,-0.6209
908,0.0,0.0,0.0,0.0,0.0,0.0,-0.3273,0.9452,0.1712,0.3355,0.4633,-0.5384,-0.6188
909,0.0,0.0,0.0,0.0,0.0,0.0,-0.3033,0.9304,0.1597,0.3316,0.4649,-0.5427,-0.6159
910,0.0,0.0,0.0,0.0,0.0,0.0,-0.2887,0.9390,0.1388,0.3308,0.4679,-0.5453,-0.6118
911,0.0,0.0,0.0,0.0,0.0,0.0,-0.3183,0.9434,0.1294,0.3309,0.4737,-0.5445,-0.6079
912,0.0,0.0,0.0,0.0,0.0,0.0,-0.3607,0.9361,0.1278,0.3307,0.4787,-0.5417,-0.6066
913,0.0,0.0,0.0,0.0,0.0,0.0,-0.3318,0.9305,0.0960,0.3296,0.4803,-0.5399,-0.6077
914,0.0,0.0,0.0,0.0,0.0,0.0,-0.3410,0.9109,0.0858,0.3258,0.4812,-0.5406,-0.6083
915,0.0,0.0,0.0,0.0,0.0,0.0,-0.3714,0.9395,0.1279,0.3229,0.4812,-0.5396,-0.6108
916,0.0,0.0,0.0,0.0,0.0,0.0,-0.3761,0.9887,0.1898,0.3244,0.4806,-0.5346,-0.6148
917,0.0,0.0,0.0,0.0,0.0,0.0,-0.3646,0.9216,0.1374,0.3252,0.4810,-0.5301,-0.6179
918,0.0,0.0,0.0,0.0,0.0,0.0,-0.3093,0.8841,0.0921,0.3247,0.4824,-0.5269,-0.6199
919,0.0,0.0,0.0,0.0,0.0,0.0,-0.4857,0.9183,0.1380,0.3228,0.4855,-0.5230,-0.6217
920,0.0,0.0,0.0,0.0,0.0,0.0,-0.3567,0.8981,0.1251,0.3235,0.4865,-0.5201,-0.6230
921,0.0,0.0,0.0,0.0,0.0,0.0,-0.3478,0.8921,0.1056,0.3264,0.4896,-0.5151,-0.6232
922,0.0,0.0,0.0,0.0,0.0,0.0,-0.3859,0.8996,0.1278,0.3292,0.4932,-0.5109,-0.6224
923,0.0,0.0,0.0,0.0,0.0,0.0,-0.3776,0.9098,0.1283,0.3305,0.4951,-0.5087,-0.6220
924,0.0,0.0,0.0,0.0,0.0,0.0,-0.4157,0.9182,0.1374,0.3304,0.4947,-0.5076,-0.6233
925,0.0,0.0,0.0,0.0,0.0,0.0,-0.3902,0.8971,0.1138,0.3293,0.4946,-0.5076,-0.6239
926,0.0,0.0,0.0,0.0,0.0,0.0,-0.3532,0.9057,0.0985,0.3282,0.4962,-0.5095,-0.6217
927,0.0,0.0,0.0,0.0,0.0,0.0,-0.3361,0.8900,0.0856,0.3285,0.4975,-0.5129,-0.6177
928,0.0,0.0,0.0,0.0,0.0,0.0,-0.3386,0.9173,0.0979,0.3298,0.4983,-0.5174,-0.6126
929,0.0,0.0,0.0,0.0,0.0,0.0,-0.3861,0.9758,0.1487,0.3319,0.4959,-0.5227,-0.6089
930,0.0,0.0,0.0,0.0,0.0,0.0,-0.3404,0.9321,0.0506,0.3327,0.4939,-0.5265,-0.6068
931,0.0,0.0,0.0,0.0,0.0,0.0,-0.3448,0.9201,0.0709,0.3321,0.4920,-0.5284,-0.6070
932,0.0,0.0,0.0,0.0,0.0,0.0,-0.3357,0.9509,0.0899,0.3308,0.4890,-0.5312,-0.6077
933,0.0,0.0,0.0,0.0,0.0,0.0,-0.3091,0.8906,0.0447,0.3289,0.4891,-0.5332,-0.6069
934,0.0,0.0,0.0,0.0,0.0,0.0,-0.3103,0.9386,0.0809,0.3292,0.4905,-0.5347,-0.6043
935,0.0,0.0,0.0,0.0,0.0,0.0,-0.3295,0.9564,0.1078,0.3306,0.4911,-0.5382,-0.5999
936,0.0,0.0,0.0,0.0,0.0,0.0,-0.3578,0.9917,0.1311,0.3316,0.4901,-0.5424,-0.5964
937,0.0,0.0,0.0,0.0,0.0,0.0,-0.3246,0.9739,0.1021,0.3319,0.4873,-0.5454,-0.5957
938,0.0,0.0,0.0,0.0,0.0,0.0,-0.3128,0.9465,0.0916,0.3320,0.4857,-0.5477,-0.5950
939,0.0,0.0,0.0,0.0,0.0,0.0,-0.3554,0.9640,0.1420,0.3331,0.4859,-0.5509,-0.5912
940,0.0,0.0,0.0,0.0,0.0,0.0,-0.2739,0.9815,0.0866,0.3365,0.4860,-0.5536,-0.5866
941,0.0,0.0,0.0,0.0,0.0,0.0,-0.2925,0.9874,0.0985,0.3451,0.4886,-0.5498,-0.5830
942,0.0,0.0,0.0,0.0,0.0,0.0,-0.3142,0.9428,0.0596,0.3547,0.4916,-0.5424,-0.5817
943,0.0,0.0,0.0,0.0,0.0,0.0,-0.3237,0.8935,0.0385,0.3603,0.4965,-0.5354,-0.5805
944,0.0,0.0,0.0,0.0,0.0,0.0,-0.3006,0.9434,0.0760,0.3636,0.4999,-0.5311,-0.5796
945,0.0,0.0,0.0,0.0,0.0,0.0,-0.3680,0.9599,0.1198,0.3655,0.5000,-0.5290,-0.5801
946,0.0,0.0,0.0,0.0,0.0,0.0,-0.3522,0.9334,0.0924,0.3641,0.4983,-0.5285,-0.5830
947,0.0,0.0,0.0,0.0,0.0,0.0,-0.2964,0.9496,0.1220,0.3637,0.4941,-0.5293,-0.5860
948,0.0,0.0,0.0,0.0,0.0,0.0,-0.2910,0.9461,0.1117,0.3638,0.4920,-0.5299,-0.5872
949,0.0,0.0,0.0,0.0,0.0,0.0,-0.2900,0.9256,0.1063,0.3643,0.4909,-0.5282,-0.5894
950,0.0,0.0,0.0,0.0,0.0,0.0,-0.2925,0.9360,0.1223,0.3654,0.4894,-0.5263,-0.5917
951,0.0,0.0,0.0,0.0,0.0,0.0,-0.3091,0.9293,0.1336,0.3657,0.4884,-0.5250,-0.5934
952,0.0,0.0,0.0,0.0,0.0,0.0,-0.3234,0.9505,0.1726,0.3659,0.4866,-0.5236,-0.5959
953,0.0,0.0,0.0,0.0,0.0,0.0,-0.3219,0.9397,0.1580,0.3648,0.4844,-0.5232,-0.5988
954,0.0,0.0,0.0,0.0,0.0,0.0,-0.3126,0.9368,0.1642,0.3635,0.4820,-0.5223,-0.6022
955,0.0,0.0,0.0,0.0,0.0,0.0,-0.3215,0.9394,0.1842,0.3628,0.4794,-0.5201,-0.6067
956,0.0,0.0,0.0,0.0,0.0,0.0,-0.3215,0.9389,0.1890,0.3628,0.4775,-0.5164,-0.6113
957,0.0,0.0,0.0,0.0,0.0,0.0,-0.3307,0.9360,0.1886,0.3630,0.4775,-0.5120,-0.6149
958,0.0,0.0,0.0,0.0,0.0,0.0,-0.3326,0.9209,0.1856,0.3630,0.4783,-0.5077,-0.6178
959,0.0,0.0,0.0,0.0,0.0,0.0,-0.3225,0.9357,0.2045,0.3629,0.4778,-0.5046,-0.6208
960,0.0,0.0,0.0,0.0,0.0,0.0,-0.3244,0.9273,0.1943,0.3611,0.4766,-0.5038,-0.6234
961,0.0,0.0,0.0,0.0,0.0,0.0,-0.3322,0.9059,0.1937,0.3586,0.4758,-0.5034,-0.6258
962,0.0,0.0,0.0,0.0,0.0,0.0,-0.3263,0.9151,0.1942,0.3571,0.4752,-0.5022,-0.6280
963,0.0,0.0,0.0,0.0,0.0,0.0,-0.3346,0.9176,0.1982,0.3561,0.4754,-0.5006,-0.6297
964,0.0,0.0,0.0,0.0,0.0,0.0,-0.3346,0.9220,0.1958,0.3558,0.4768,-0.4984,-0.6306
965,0.0,0.0,0.0,0.0,0.0,0.0,-0.3385,0.9127,0.1870,0.3554,0.4780,-0.4958,-0.6320
966,0.0,0.0,0.0,0.0,0.0,0.0,-0.3458,0.9092,0.1847,0.3543,0.4787,-0.4942,-0.6333
967,0.0,0.0,0.0,0.0,0.0,0.0,-0.3384,0.9072,0.1792,0.3524,0.4787,-0.4939,-0.6346
968,0.0,0.0,0.0,0.0,0.0,0.0,-0.3394,0.9214,0.1852,0.3507,0.4788,-0.4939,-0.6354
969,0.0,0.0,0.0,0.0,0.0,0.0,-0.3482,0.9243,0.1838,0.3495,0.4794,-0.4940,-0.6356
970,0.0,0.0,0.0,0.0,0.0,0.0,-0.3463,0.9316,0.1834,0.3491,0.4803,-0.4928,-0.6361
971,0.0,0.0,0.0,0.0,0.0,0.0,-0.3575,0.9259,0.1912,0.3490,0.4813,-0.4913,-0.6365
972,0.0,0.0,0.0,0.0,0.0,0.0,-0.3707,0.9226,0.2068,0.3484,0.4820,-0.4908,-0.6367
973,0.0,0.0,0.0,0.0,0.0,0.0,-0.3648,0.9205,0.1936,0.3473,0.4819,-0.4904,-0.6377
974,0.0,0.0,0.0,0.0,0.0,0.0,-0.3599,0.9146,0.1868,0.3454,0.4814,-0.4904,-0.6391
975,0.0,0.0,0.0,0.0,0.0,0.0,-0.3584,0.9019,0.1813,0.3435,0.4813,-0.4909,-0.6398
976,0.0,0.0,0.0,0.0,0.0,0.0,-0.3554,0.8970,0.1759,0.3428,0.4820,-0.4905,-0.6400
977,0.0,0.0,0.0,0.0,0.0,0.0,-0.3618,0.9059,0.1906,0.3433,0.4834,-0.4899,-0.6391
978,0.0,0.0,0.0,0.0,0.0,0.0,-0.3682,0.9103,0.1941,0.3440,0.4847,-0.4890,-0.6385
979,0.0,0.0,0.0,0.0,0.0,0.0,-0.3705,0.9005,0.1800,0.3435,0.4852,-0.4890,-0.6384
980,0.0,0.0,0.0,0.0,0.0,0.0,-0.3734,0.8936,0.1795,0.3420,0.4855,-0.4901,-0.6381
981,0.0,0.0,0.0,0.0,0.0,0.0,-0.3842,0.9074,0.1903,0.3411,0.4867,-0.4905,-0.6373
982,0.0,0.0,0.0,0.0,0.0,0.0,-0.3949,0.9079,0.1943,0.3411,0.4893,-0.4899,-0.6358
983,0.0,0.0,0.0,0.0,0.0,0.0,-0.3934,0.9034,0.1841,0.3417,0.4928,-0.4892,-0.6333
984,0.0,0.0,0.0,0.0,0.0,0.0,-0.3919,0.9034,0.1763,0.3416,0.4970,-0.4899,-0.6295
985,0.0,0.0,0.0,0.0,0.0,0.0,-0.4007,0.9087,0.1759,0.3411,0.5012,-0.4912,-0.6255
986,0.0,0.0,0.0,0.0,0.0,0.0,-0.4065,0.9145,0.1639,0.3399,0.5047,-0.4929,-0.6219
987,0.0,0.0,0.0,0.0,0.0,0.0,-0.4031,0.9135,0.1586,0.3385,0.5072,-0.4946,-0.6192
988,0.0,0.0,0.0,0.0,0.0,0.0,-0.3751,0.8912,0.1150,0.3362,0.5092,-0.4972,-0.6168
989,0.0,0.0,0.0,0.0,0.0,0.0,-0.3668,0.8916,0.1043,0.3348,0.5109,-0.4993,-0.6145
990,0.0,0.0,0.0,0.0,0.0,0.0,-0.3927,0.8986,0.1215,0.3327,0.5116,-0.5009,-0.6138
991,0.0,0.0,0.0,0.0,0.0,0.0,-0.3786,0.9073,0.1205,0.3305,0.5108,-0.5036,-0.6134
992,0.0,0.0,0.0,0.0,0.0,0.0,-0.3888,0.9122,0.1158,0.3285,0.5098,-0.5056,-0.6137
993,0.0,0.0,0.0,0.0,0.0,0.0,-0.3892,0.8990,0.1065,0.3258,0.5097,-0.5082,-0.6130
994,0.0,0.0,0.0,0.0,0.0,0.0,-0.3789,0.9003,0.0909,0.3230,0.5108,-0.5112,-0.6111
995,0.0,0.0,0.0,0.0,0.0,0.0,-0.3802,0.9630,0.1325,0.3232,0.5106,-0.5112,-0.6112
996,0.0,0.0,0.0,0.0,0.0,0.0,-0.4059,0.9468,0.1201,0.3224,0.5108,-0.5104,-0.6121
997,0.0,0.0,0.0,0.0,0.0,0.0,-0.4166,0.9074,0.1242,0.3196,0.5105,-0.5090,-0.6150
998,0.0,0.0,0.0,0.0,0.0,0.0,-0.3586,0.9233,0.1040,0.3159,0.5070,-0.5122,-0.6171
999,0.0,0.0,0.0,0.0,0.0,0.0,-0.3160,0.8849,0.0592,0.3111,0.5047,-0.5191,-0.6156
1000,0.0,0.0,0.0,0.0,0.0,0.0,-0.3221,0.9241,0.0969,0.3119,0.5062,-0.5241,-0.6097
1001,0.0,0.0,0.0,0.0,0.0,0.0,-0.3573,0.9926,0.1243,0.3200,0.5116,-0.5219,-0.6028
1002,0.0,0.0,0.0,0.0,0.0,0.0,-0.4069,0.9648,0.1100,0.3315,0.5173,-0.5124,-0.5999
1003,0.0,0.0,0.0,0.0,0.0,0.0,-0.3439,0.8788,0.0919,0.3425,0.5205,-0.5031,-0.5989
1004,0.0,0.0,0.0,0.0,0.0,0.0,-0.3212,0.8991,0.0095,0.3475,0.5194,-0.4986,-0.6007
1005,0.0,0.0,0.0,0.0,0.0,0.0,-0.3753,0.8775,0.0384,0.3451,0.5164,-0.5015,-0.6022
1006,0.0,0.0,0.0,0.0,0.0,0.0,-0.3758,0.9653,0.1272,0.3459,0.5085,-0.5023,-0.6079
1007,0.0,0.0,0.0,0.0,0.0,0.0,-0.3446,0.9676,0.1051,0.3494,0.5023,-0.5014,-0.6117
1008,0.0,0.0,0.0,0.0,0.0,0.0,-0.3479,0.9747,0.2074,0.3583,0.4976,-0.4940,-0.6164
1009,0.0,0.0,0.0,0.0,0.0,0.0,-0.3640,0.9762,0.2114,0.3622,0.4914,-0.4920,-0.6207
1010,0.0,0.0,0.0,0.0,0.0,0.0,-0.3721,0.9352,0.1977,0.3579,0.4822,-0.5013,-0.6230
1011,0.0,0.0,0.0,0.0,0.0,0.0,-0.2451,0.8786,0.0857,0.3529,0.4744,-0.5107,-0.6242
1012,0.0,0.0,0.0,0.0,0.0,0.0,-0.2161,0.8641,0.0340,0.3516,0.4731,-0.5166,-0.6210
1013,0.0,0.0,0.0,0.0,0.0,0.0,-0.3067,0.8958,0.1551,0.3548,0.4777,-0.5181,-0.6144
1014,0.0,0.0,0.0,0.0,0.0,0.0,-0.3153,1.0072,0.1976,0.3647,0.4890,-0.5133,-0.6037
1015,0.0,0.0,0.0,0.0,0.0,0.0,-0.4056,0.9701,0.1662,0.3719,0.4964,-0.5087,-0.5970
1016,0.0,0.0,0.0,0.0,0.0,0.0,-0.3822,0.9363,0.1546,0.3724,0.4967,-0.5071,-0.5979
1017,0.0,0.0,0.0,0.0,0.0,0.0,-0.3513,1.0033,0.1912,0.3715,0.4917,-0.5069,-0.6028
1018,0.0,0.0,0.0,0.0,0.0,0.0,-0.3624,0.9896,0.1795,0.3694,0.4865,-0.5088,-0.6066
1019,0.0,0.0,0.0,0.0,0.0,0.0,-0.3393,0.9191,0.1401,0.3704,0.4840,-0.5061,-0.6102
1020,0.0,0.0,0.0,0.0,0.0,0.0,-0.3248,0.9417,0.1658,0.3734,0.4827,-0.5020,-0.6128
1021,0.0,0.0,0.0,0.0,0.0,0.0,-0.3175,0.9335,0.1749,0.3775,0.4830,-0.4976,-0.6136
1022,0.0,0.0,0.0,0.0,0.0,0.0,-0.3610,0.9352,0.2063,0.3810,0.4837,-0.4924,-0.6152
1023,0.0,0.0,0.0,0.0,0.0,0.0,-0.3575,0.9200,0.1916,0.3816,0.4834,-0.4900,-0.6168
1024,0.0,0.0,0.0,0.0,0.0,0.0,-0.3031,0.8742,0.1259,0.3799,0.4829,-0.4907,-0.6178
1025,0.0,0.0,0.0,0.0,0.0,0.0,-0.3324,0.8656,0.1465,0.3771,0.4827,-0.4917,-0.6188
1026,0.0,0.0,0.0,0.0,0.0,0.0,-0.3404,0.9009,0.1850,0.3758,0.4842,-0.4926,-0.6178
1027,0.0,0.0,0.0,0.0,0.0,0.0,-0.3363,0.8832,0.1529,0.3761,0.4883,-0.4923,-0.6146
1028,0.0,0.0,0.0,0.0,0.0,0.0,-0.3393,0.9012,0.1526,0.3774,0.4909,-0.4905,-0.6132
1029,0.0,0.0,0.0,0.0,0.0,0.0,-0.4058,0.9486,0.2213,0.3781,0.4908,-0.4877,-0.6151
1030,0.0,0.0,0.0,0.0,0.0,0.0,-0.3974,0.9231,0.2041,0.3757,0.4897,-0.4868,-0.6181
1031,0.0,0.0,0.0,0.0,0.0,0.0,-0.3686,0.9000,0.1800,0.3714,0.4900,-0.4876,-0.6198
1032,0.0,0.0,0.0,0.0,0.0,0.0,-0.3456,0.8880,0.1516,0.3653,0.4916,-0.4913,-0.6193
1033,0.0,0.0,0.0,0.0,0.0,0.0,-0.3320,0.9134,0.1623,0.3608,0.4952,-0.4947,-0.6163
1034,0.0,0.0,0.0,0.0,0.0,0.0,-0.3379,0.9212,0.1561,0.3581,0.5016,-0.4963,-0.6115
1035,0.0,0.0,0.0,0.0,0.0,0.0,-0.3471,0.9294,0.1407,0.3579,0.5080,-0.4944,-0.6078
1036,0.0,0.0,0.0,0.0,0.0,0.0,-0.3897,0.9557,0.1980,0.3573,0.5092,-0.4937,-0.6077
1037,0.0,0.0,0.0,0.0,0.0,0.0,-0.3973,0.9242,0.1600,0.3541,0.5078,-0.4952,-0.6095
1038,0.0,0.0,0.0,0.0,0.0,0.0,-0.2404,0.9058,0.1333,0.3529,0.5047,-0.4966,-0.6117
1039,0.0,0.0,0.0,0.0,0.0,0.0,-0.3627,0.9275,0.1534,0.3526,0.5043,-0.4947,-0.6137
1040,0.0,0.0,0.0,0.0,0.0,0.0,-0.3622,0.9178,0.1563,0.3555,0.5060,-0.4905,-0.6140
1041,0.0,0.0,0.0,0.0,0.0,0.0,-0.3861,0.9140,0.1618,0.3596,0.5084,-0.4846,-0.6143
1042,0.0,0.0,0.0,0.0,0.0,0.0,-0.3928,0.8788,0.1481,0.3599,0.5099,-0.4817,-0.6152
1043,0.0,0.0,0.0,0.0,0.0,0.0,-0.3889,0.8944,0.1510,0.3578,0.5103,-0.4813,-0.6165
1044,0.0,0.0,0.0,0.0,0.0,0.0,-0.3899,0.8906,0.1583,0.3555,0.5116,-0.4815,-0.6165
1045,0.0,0.0,0.0,0.0,0.0,0.0,-0.3731,0.8629,0.1124,0.3534,0.5149,-0.4819,-0.6146
1046,0.0,0.0,0.0,0.0,0.0,0.0,-0.3742,0.8904,0.1305,0.3516,0.5182,-0.4829,-0.6121
1047,0.0,0.0,0.0,0.0,0.0,0.0,-0.4001,0.9197,0.1489,0.3496,0.5208,-0.4853,-0.6091
1048,0.0,0.0,0.0,0.0,0.0,0.0,-0.4147,0.9148,0.1383,0.3468,0.5220,-0.4882,-0.6073
1049,0.0,0.0,0.0,0.0,0.0,0.0,-0.4173,0.9403,0.1623,0.3459,0.5210,-0.4884,-0.6086
1050,0.0,0.0,0.0,0.0,0.0,0.0,-0.4167,0.9393,0.1569,0.3461,0.5199,-0.4879,-0.6098
1051,0.0,0.0,0.0,0.0,0.0,0.0,-0.4040,0.9279,0.1364,0.3466,0.5191,-0.4869,-0.6110
1052,0.0,0.0,0.0,0.0,0.0,0.0,-0.3962,0.9309,0.1392,0.3474,0.5175,-0.4854,-0.6131
1053,0.0,0.0,0.0,0.0,0.0,0.0,-0.4193,0.9362,0.1908,0.3486,0.5146,-0.4839,-0.6160
1054,0.0,0.0,0.0,0.0,0.0,0.0,-0.3997,0.9321,0.1679,0.3494,0.5110,-0.4827,-0.6196
1055,0.0,0.0,0.0,0.0,0.0,0.0,-0.3621,0.8986,0.1314,0.3507,0.5087,-0.4806,-0.6223
1056,0.0,0.0,0.0,0.0,0.0,0.0,-0.3703,0.8597,0.1400,0.3506,0.5072,-0.4802,-0.6238
1057,0.0,0.0,0.0,0.0,0.0,0.0,-0.3416,0.8782,0.1403,0.3495,0.5069,-0.4833,-0.6224
1058,0.0,0.0,0.0,0.0,0.0,0.0,-0.2893,0.8567,0.0777,0.3490,0.5082,-0.4880,-0.6178
1059,0.0,0.0,0.0,0.0,0.0,0.0,-0.3142,0.8686,0.0959,0.3507,0.5110,-0.4916,-0.6117
1060,0.0,0.0,0.0,0.0,0.0,0.0,-0.3499,0.9341,0.1199,0.3521,0.5142,-0.4958,-0.6048
1061,0.0,0.0,0.0,0.0,0.0,0.0,-0.3811,0.9186,0.1279,0.3525,0.5160,-0.4992,-0.6003
1062,0.0,0.0,0.0,0.0,0.0,0.0,-0.3828,1.0765,0.1309,0.3535,0.5149,-0.5008,-0.5993
1063,0.0,0.0,0.0,0.0,0.0,0.0,-0.4228,0.9863,0.1815,0.3531,0.5128,-0.5020,-0.6004
1064,0.0,0.0,0.0,0.0,0.0,0.0,-0.3763,0.9401,0.1343,0.3524,0.5108,-0.5026,-0.6019
1065,0.0,0.0,0.0,0.0,0.0,0.0,-0.3352,0.9353,0.0869,0.3521,0.5090,-0.5034,-0.6030
1066,0.0,0.0,0.0,0.0,0.0,0.0,-0.3627,0.9523,0.1439,0.3534,0.5073,-0.5025,-0.6043
1067,0.0,0.0,0.0,0.0,0.0,0.0,-0.3731,0.9774,0.1786,0.3582,0.5047,-0.4975,-0.6078
1068,0.0,0.0,0.0,0.0,0.0,0.0,-0.3647,0.9631,0.1590,0.3645,0.5018,-0.4906,-0.6121
1069,0.0,0.0,0.0,0.0,0.0,0.0,-0.3506,0.9301,0.1674,0.3701,0.4980,-0.4851,-0.6162
1070,0.0,0.0,0.0,0.0,0.0,0.0,-0.3277,0.9354,0.1663,0.3745,0.4925,-0.4826,-0.6199
1071,0.0,0.0,0.0,0.0,0.0,0.0,-0.3253,0.9227,0.1657,0.3765,0.4866,-0.4819,-0.6239
1072,0.0,0.0,0.0,0.0,0.0,0.0,-0.3488,0.9177,0.2119,0.3789,0.4812,-0.4808,-0.6275
1073,0.0,0.0,0.0,0.0,0.0,0.0,-0.3068,0.9077,0.1848,0.3823,0.4781,-0.4802,-0.6282
1074,0.0,0.0,0.0,0.0,0.0,0.0,-0.2736,0.8958,0.1602,0.3876,0.4784,-0.4782,-0.6263
1075,0.0,0.0,0.0,0.0,0.0,0.0,-0.3092,0.8765,0.1749,0.3915,0.4803,-0.4769,-0.6234
1076,0.0,0.0,0.0,0.0,0.0,0.0,-0.3341,0.8889,0.2048,0.3928,0.4808,-0.4784,-0.6211
1077,0.0,0.0,0.0,0.0,0.0,0.0,-0.3177,0.9294,0.2160,0.3918,0.4788,-0.4835,-0.6192
1078,0.0,0.0,0.0,0.0,0.0,0.0,-0.3742,0.9438,0.2384,0.3908,0.4764,-0.4883,-0.6180
1079,0.0,0.0,0.0,0.0,0.0,0.0,-0.3641,0.9420,0.2664,0.3919,0.4742,-0.4904,-0.6173
1080,0.0,0.0,0.0,0.0,0.0,0.0,-0.3300,0.9642,0.2469,0.3945,0.4727,-0.4912,-0.6162
1081,0.0,0.0,0.0,0.0,0.0,0.0,-0.3181,0.9132,0.1932,0.3967,0.4738,-0.4906,-0.6143
1082,0.0,0.0,0.0,0.0,0.0,0.0,-0.3112,0.9165,0.1820,0.3960,0.4734,-0.4918,-0.6141
1083,0.0,0.0,0.0,0.0,0.0,0.0,-0.3173,0.9354,0.2388,0.3934,0.4709,-0.4961,-0.6143
1084,0.0,0.0,0.0,0.0,0.0,0.0,-0.2777,0.9335,0.1886,0.3895,0.4690,-0.5043,-0.6115
1085,0.0,0.0,0.0,0.0,0.0,0.0,-0.2534,0.8779,0.1119,0.3859,0.4718,-0.5093,-0.6076
1086,0.0,0.0,0.0,0.0,0.0,0.0,-0.2776,0.9019,0.1883,0.3831,0.4754,-0.5137,-0.6028
1087,0.0,0.0,0.0,0.0,0.0,0.0,-0.2727,1.0070,0.2452,0.3842,0.4774,-0.5166,-0.5980
1088,0.0,0.0,0.0,0.0,0.0,0.0,-0.2835,0.9767,0.1569,0.3857,0.4786,-0.5183,-0.5945
1089,0.0,0.0,0.0,0.0,0.0,0.0,-0.2931,0.9036,0.1517,0.3862,0.4771,-0.5190,-0.5949
1090,0.0,0.0,0.0,0.0,0.0,0.0,-0.2576,0.9697,0.1431,0.3852,0.4720,-0.5215,-0.5973
1091,0.0,0.0,0.0,0.0,0.0,0.0,-0.3005,0.9587,0.1608,0.3838,0.4669,-0.5217,-0.6021
1092,0.0,0.0,0.0,0.0,0.0,0.0,-0.3397,0.9555,0.2430,0.3857,0.4641,-0.5172,-0.6070
1093,0.0,0.0,0.0,0.0,0.0,0.0,-0.2890,0.9556,0.2058,0.3875,0.4636,-0.5135,-0.6094
1094,0.0,0.0,0.0,0.0,0.0,0.0,-0.2935,0.8909,0.1521,0.3869,0.4658,-0.5099,-0.6110
1095,0.0,0.0,0.0,0.0,0.0,0.0,-0.3181,0.9162,0.2130,0.3853,0.4673,-0.5074,-0.6130
1096,0.0,0.0,0.0,0.0,0.0,0.0,-0.2966,0.9135,0.1716,0.3812,0.4688,-0.5090,-0.6130
1097,0.0,0.0,0.0,0.0,0.0,0.0,-0.3047,0.8914,0.1585,0.3772,0.4716,-0.5079,-0.6143
1098,0.0,0.0,0.0,0.0,0.0,0.0,-0.3403,0.9022,0.1574,0.3727,0.4767,-0.5052,-0.6154
1099,0.0,0.0,0.0,0.0,0.0,0.0,-0.3525,0.8935,0.1710,0.3676,0.4824,-0.5014,-0.6171
1100,0.0,0.0,0.0,0.0,0.0,0.0,-0.3289,0.9421,0.2133,0.3633,0.4860,-0.4995,-0.6183
1101,0.0,0.0,0.0,0.0,0.0,0.0,-0.3355,0.9179,0.1672,0.3574,0.4896,-0.5020,-0.6169
1102,0.0,0.0,0.0,0.0,0.0,0.0,-0.3204,0.9236,0.1569,0.3505,0.4910,-0.5075,-0.6152
1103,0.0,0.0,0.0,0.0,0.0,0.0,-0.2795,0.8683,0.0636,0.3422,0.4944,-0.5178,-0.6086
1104,0.0,0.0,0.0,0.0,0.0,0.0,-0.2832,0.8671,0.0273,0.3340,0.5016,-0.5248,-0.6012
1105,0.0,0.0,0.0,0.0,0.0,0.0,-0.4078,0.9638,0.1061,0.3325,0.5131,-0.5215,-0.5952
1106,0.0,0.0,0.0,0.0,0.0,0.0,-0.4049,0.8619,0.0274,0.3311,0.5271,-0.5167,-0.5878
1107,0.0,0.0,0.0,0.0,0.0,0.0,-0.3687,0.9517,0.0582,0.3335,0.5349,-0.5118,-0.5837
1108,0.0,0.0,0.0,0.0,0.0,0.0,-0.4412,1.0332,0.1403,0.3335,0.5365,-0.5099,-0.5840
1109,0.0,0.0,0.0,0.0,0.0,0.0,-0.4223,0.9368,0.0765,0.3272,0.5345,-0.5142,-0.5855
1110,0.0,0.0,0.0,0.0,0.0,0.0,-0.3765,0.9546,0.0544,0.3223,0.5294,-0.5188,-0.5889
1111,0.0,0.0,0.0,0.0,0.0,0.0,-0.3896,0.9570,0.0551,0.3184,0.5255,-0.5235,-0.5903
1112,0.0,0.0,0.0,0.0,0.0,0.0,-0.3657,0.9351,0.0532,0.3174,0.5229,-0.5249,-0.5919
1113,0.0,0.0,0.0,0.0,0.0,0.0,-0.3813,0.9429,0.0525,0.3197,0.5238,-0.5228,-0.5918
1114,0.0,0.0,0.0,0.0,0.0,0.0,-0.4022,0.9210,0.0506,0.3226,0.5270,-0.5180,-0.5915
1115,0.0,0.0,0.0,0.0,0.0,0.0,-0.3979,0.9206,0.0670,0.3228,0.5274,-0.5152,-0.5935
1116,0.0,0.0,0.0,0.0,0.0,0.0,-0.3726,0.9235,0.0736,0.3197,0.5231,-0.5163,-0.5980
1117,0.0,0.0,0.0,0.0,0.0,0.0,-0.3662,0.9035,0.0676,0.3165,0.5186,-0.5179,-0.6023
1118,0.0,0.0,0.0,0.0,0.0,0.0,-0.3746,0.9202,0.0891,0.3161,0.5160,-0.5169,-0.6055
1119,0.0,0.0,0.0,0.0,0.0,0.0,-0.3955,0.9203,0.0980,0.3189,0.5158,-0.5136,-0.6070
1120,0.0,0.0,0.0,0.0,0.0,0.0,-0.4122,0.9103,0.1194,0.3237,0.5176,-0.5093,-0.6065
1121,0.0,0.0,0.0,0.0,0.0,0.0,-0.4127,0.9040,0.1305,0.3250,0.5167,-0.5073,-0.6083
1122,0.0,0.0,0.0,0.0,0.0,0.0,-0.4240,0.9223,0.1617,0.3227,0.5125,-0.5098,-0.6109
1123,0.0,0.0,0.0,0.0,0.0,0.0,-0.3907,0.8926,0.1036,0.3165,0.5088,-0.5175,-0.6109
1124,0.0,0.0,0.0,0.0,0.0,0.0,-0.3653,0.8789,0.0936,0.3134,0.5078,-0.5223,-0.6092
1125,0.0,0.0,0.0,0.0,0.0,0.0,-0.3814,0.9223,0.1003,0.3149,0.5099,-0.5234,-0.6057
1126,0.0,0.0,0.0,0.0,0.0,0.0,-0.3961,0.9093,0.1149,0.3193,0.5143,-0.5206,-0.6021
1127,0.0,0.0,0.0,0.0,0.0,0.0,-0.3926,0.8999,0.0993,0.3229,0.5177,-0.5177,-0.5998
1128,0.0,0.0,0.0,0.0,0.0,0.0,-0.3770,0.9022,0.0866,0.3227,0.5169,-0.5187,-0.5997
1129,0.0,0.0,0.0,0.0,0.0,0.0,-0.3742,0.9312,0.1158,0.3207,0.5124,-0.5222,-0.6016
1130,0.0,0.0,0.0,0.0,0.0,0.0,-0.3620,0.9193,0.0996,0.3206,0.5091,-0.5242,-0.6027
1131,0.0,0.0,0.0,0.0,0.0,0.0,-0.3458,0.8943,0.0722,0.3228,0.5090,-0.5241,-0.6017
1132,0.0,0.0,0.0,0.0,0.0,0.0,-0.3566,0.9261,0.0972,0.3262,0.5095,-0.5237,-0.5998
1133,0.0,0.0,0.0,0.0,0.0,0.0,-0.3772,0.9404,0.1139,0.3293,0.5096,-0.5234,-0.5982
1134,0.0,0.0,0.0,0.0,0.0,0.0,-0.3669,0.9286,0.0983,0.3302,0.5082,-0.5243,-0.5982
1135,0.0,0.0,0.0,0.0,0.0,0.0,-0.3610,0.9325,0.1026,0.3299,0.5055,-0.5258,-0.5993
1136,0.0,0.0,0.0,0.0,0.0,0.0,-0.3527,0.9315,0.0986,0.3302,0.5030,-0.5266,-0.6006
1137,0.0,0.0,0.0,0.0,0.0,0.0,-0.3430,0.9305,0.1029,0.3325,0.5014,-0.5256,-0.6014
1138,0.0,0.0,0.0,0.0,0.0,0.0,-0.3494,0.9375,0.1161,0.3369,0.5004,-0.5221,-0.6029
1139,0.0,0.0,0.0,0.0,0.0,0.0,-0.3401,0.9252,0.1106,0.3402,0.4990,-0.5196,-0.6044
1140,0.0,0.0,0.0,0.0,0.0,0.0,-0.3358,0.9371,0.1290,0.3427,0.4957,-0.5178,-0.6072
1141,0.0,0.0,0.0,0.0,0.0,0.0,-0.3383,0.9386,0.1392,0.3441,0.4911,-0.5167,-0.6110
1142,0.0,0.0,0.0,0.0,0.0,0.0,-0.3276,0.9351,0.1294,0.3452,0.4863,-0.5170,-0.6140
1143,0.0,0.0,0.0,0.0,0.0,0.0,-0.3272,0.9382,0.1469,0.3479,0.4819,-0.5157,-0.6171
1144,0.0,0.0,0.0,0.0,0.0,0.0,-0.3248,0.9397,0.1643,0.3516,0.4781,-0.5136,-0.6197
1145,0.0,0.0,0.0,0.0,0.0,0.0,-0.3136,0.9353,0.1540,0.3554,0.4751,-0.5109,-0.6221
1146,0.0,0.0,0.0,0.0,0.0,0.0,-0.3224,0.9417,0.1696,0.3584,0.4716,-0.5084,-0.6250
1147,0.0,0.0,0.0,0.0,0.0,0.0,-0.3331,0.9242,0.1677,0.3602,0.4688,-0.5071,-0.6271
1148,0.0,0.0,0.0,0.0,0.0,0.0,-0.3200,0.9364,0.1730,0.3626,0.4673,-0.5057,-0.6280
1149,0.0,0.0,0.0,0.0,0.0,0.0,-0.2956,0.9451,0.1714,0.3646,0.4667,-0.5053,-0.6276
1150,0.0,0.0,0.0,0.0,0.0,0.0,-0.2883,0.9461,0.1674,0.3660,0.4663,-0.5056,-0.6269
1151,0.0,0.0,0.0,0.0,0.0,0.0,-0.3093,0.9404,0.1870,0.3672,0.4663,-0.5055,-0.6262
1152,0.0,0.0,0.0,0.0,0.0,0.0,-0.3020,0.9414,0.1903,0.3671,0.4667,-0.5068,-0.6249
1153,0.0,0.0,0.0,0.0,0.0,0.0,-0.2878,0.9426,0.1650,0.3666,0.4667,-0.5082,-0.6241
1154,0.0,0.0,0.0,0.0,0.0,0.0,-0.2703,0.9518,0.1625,0.3653,0.4667,-0.5103,-0.6231
1155,0.0,0.0,0.0,0.0,0.0,0.0,-0.2917,0.9348,0.1562,0.3644,0.4679,-0.5114,-0.6219
1156,0.0,0.0,0.0,0.0,0.0,0.0,-0.2947,0.9681,0.1778,0.3646,0.4690,-0.5108,-0.6215
1157,0.0,0.0,0.0,0.0,0.0,0.0,-0.2981,0.9335,0.1815,0.3643,0.4705,-0.5112,-0.6202
1158,0.0,0.0,0.0,0.0,0.0,0.0,-0.3019,0.9286,0.1718,0.3644,0.4721,-0.5106,-0.6193
1159,0.0,0.0,0.0,0.0,0.0,0.0,-0.3127,0.9418,0.1759,0.3643,0.4728,-0.5100,-0.6193
1160,0.0,0.0,0.0,0.0,0.0,0.0,-0.3160,0.9378,0.1604,0.3636,0.4738,-0.5102,-0.6189
1161,0.0,0.0,0.0,0.0,0.0,0.0,-0.3126,0.9382,0.1613,0.3634,0.4750,-0.5096,-0.6186
1162,0.0,0.0,0.0,0.0,0.0,0.0,-0.3117,0.9387,0.1632,0.3643,0.4761,-0.5087,-0.6179
1163,0.0,0.0,0.0,0.0,0.0,0.0,-0.3272,0.9368,0.1672,0.3658,0.4776,-0.5068,-0.6174
1164,0.0,0.0,0.0,0.0,0.0,0.0,-0.3321,0.9363,0.1624,0.3669,0.4787,-0.5050,-0.6174
1165,0.0,0.0,0.0,0.0,0.0,0.0,-0.3287,0.9374,0.1697,0.3677,0.4791,-0.5038,-0.6176
1166,0.0,0.0,0.0,0.0,0.0,0.0,-0.3287,0.9266,0.1648,0.3678,0.4793,-0.5031,-0.6179
1167,0.0,0.0,0.0,0.0,0.0,0.0,-0.3282,0.9130,0.1666,0.3678,0.4798,-0.5025,-0.6181
1168,0.0,0.0,0.0,0.0,0.0,0.0,-0.3296,0.9124,0.1608,0.3685,0.4808,-0.5013,-0.6178
1169,0.0,0.0,0.0,0.0,0.0,0.0,-0.3282,0.9368,0.1677,0.3694,0.4819,-0.5004,-0.6172
1170,0.0,0.0,0.0,0.0,0.0,0.0,-0.3243,0.9251,0.1623,0.3698,0.4834,-0.5002,-0.6159
1171,0.0,0.0,0.0,0.0,0.0,0.0,-0.3233,0.9436,0.1585,0.3693,0.4843,-0.5009,-0.6150
1172,0.0,0.0,0.0,0.0,0.0,0.0,-0.3326,0.9325,0.1774,0.3681,0.4842,-0.5024,-0.6145
1173,0.0,0.0,0.0,0.0,0.0,0.0,-0.3321,0.9145,0.1729,0.3682,0.4846,-0.5026,-0.6140
1174,0.0,0.0,0.0,0.0,0.0,0.0,-0.3297,0.9359,0.1726,0.3693,0.4857,-0.5012,-0.6136
1175,0.0,0.0,0.0,0.0,0.0,0.0,-0.3336,0.9408,0.1765,0.3700,0.4866,-0.5002,-0.6133
1176,0.0,0.0,0.0,0.0,0.0,0.0,-0.3336,0.9374,0.1755,0.3704,0.4869,-0.4995,-0.6135
1177,0.0,0.0,0.0,0.0,0.0,0.0,-0.3297,0.9383,0.1707,0.3707,0.4865,-0.4990,-0.6139
1178,0.0,0.0,0.0,0.0,0.0,0.0,-0.3272,0.9369,0.1701,0.3714,0.4860,-0.4982,-0.6146
1179,0.0,0.0,0.0,0.0,0.0,0.0,-0.3243,0.9334,0.1691,0.3725,0.4860,-0.4971,-0.6148
1180,0.0,0.0,0.0,0.0,0.0,0.0,-0.3263,0.9242,0.1705,0.3736,0.4867,-0.4960,-0.6144
1181,0.0,0.0,0.0,0.0,0.0,0.0,-0.3267,0.9164,0.1676,0.3746,0.4878,-0.4945,-0.6141
1182,0.0,0.0,0.0,0.0,0.0,0.0,-0.3238,0.9222,0.1695,0.3757,0.4884,-0.4932,-0.6140
1183,0.0,0.0,0.0,0.0,0.0,0.0,-0.3306,0.9213,0.1739,0.3768,0.4888,-0.4923,-0.6138
1184,0.0,0.0,0.0,0.0,0.0,0.0,-0.3321,0.9125,0.1681,0.3774,0.4892,-0.4918,-0.6135
1185,0.0,0.0,0.0,0.0,0.0,0.0,-0.3272,0.9208,0.1700,0.3781,0.4896,-0.4913,-0.6132
1186,0.0,0.0,0.0,0.0,0.0,0.0,-0.3292,0.9237,0.1710,0.3793,0.4905,-0.4903,-0.6125
1187,0.0,0.0,0.0,0.0,0.0,0.0,-0.3331,0.9150,0.1734,0.3804,0.4912,-0.4895,-0.6119
1188,0.0,0.0,0.0,0.0,0.0,0.0,-0.3335,0.9135,0.1700,0.3812,0.4917,-0.4898,-0.6108
1189,0.0,0.0,0.0,0.0,0.0,0.0,-0.3370,0.9325,0.1702,0.3822,0.4923,-0.4895,-0.6099
1190,0.0,0.0,0.0,0.0,0.0,0.0,-0.3409,0.9135,0.1750,0.3846,0.4941,-0.4879,-0.6082
1191,0.0,0.0,0.0,0.0,0.0,0.0,-0.3575,0.9302,0.1839,0.3870,0.4961,-0.4860,-0.6065
1192,0.0,0.0,0.0,0.0,0.0,0.0,-0.3673,0.9410,0.1938,0.3874,0.4961,-0.4857,-0.6065
1193,0.0,0.0,0.0,0.0,0.0,0.0,-0.3531,0.9336,0.1859,0.3879,0.4957,-0.4856,-0.6066
1194,0.0,0.0,0.0,0.0,0.0,0.0,-0.3424,0.9301,0.1790,0.3889,0.4959,-0.4848,-0.6065
1195,0.0,0.0,0.0,0.0,0.0,0.0,-0.3311,0.9257,0.1720,0.3907,0.4967,-0.4838,-0.6055
1196,0.0,0.0,0.0,0.0,0.0,0.0,-0.3257,0.9178,0.1642,0.3927,0.4979,-0.4826,-0.6042
1197,0.0,0.0,0.0,0.0,0.0,0.0,-0.3238,0.9242,0.1671,0.3943,0.4988,-0.4822,-0.6027
1198,0.0,0.0,0.0,0.0,0.0,0.0,-0.3219,0.9349,0.1710,0.3955,0.4987,-0.4828,-0.6015
1199,0.0,0.0,0.0,0.0,0.0,0.0,-0.3146,0.9275,0.1642,0.3966,0.4982,-0.4831,-0.6009
1200,0.0,0.0,0.0,0.0,0.0,0.0,-0.3072,0.9260,0.1554,0.3976,0.4983,-0.4833,-0.6000
1201,0.0,0.0,0.0,0.0,0.0,0.0,-0.3082,0.9299,0.1544,0.3990,0.4990,-0.4832,-0.5986
1202,0.0,0.0,0.0,0.0,0.0,0.0,-0.3150,0.9363,0.1613,0.4006,0.5000,-0.4829,-0.5969
1203,0.0,0.0,0.0,0.0,0.0,0.0,-0.3224,0.9388,0.1667,0.4019,0.5008,-0.4831,-0.5953
1204,0.0,0.0,0.0,0.0,0.0,0.0,-0.3238,0.9368,0.1667,0.4025,0.5015,-0.4832,-0.5941
1205,0.0,0.0,0.0,0.0,0.0,0.0,-0.3185,0.9373,0.1662,0.4032,0.5025,-0.4834,-0.5926
1206,0.0,0.0,0.0,0.0,0.0,0.0,-0.3199,0.9388,0.1662,0.4034,0.5032,-0.4838,-0.5916
1207,0.0,0.0,0.0,0.0,0.0,0.0,-0.3170,0.9383,0.1686,0.4040,0.5035,-0.4836,-0.5910
1208,0.0,0.0,0.0,0.0,0.0,0.0,-0.3107,0.9378,0.1613,0.4046,0.5039,-0.4835,-0.5904
1209,0.0,0.0,0.0,0.0,0.0,0.0,-0.3048,0.9367,0.1525,0.4054,0.5046,-0.4831,-0.5897
1210,0.0,0.0,0.0,0.0,0.0,0.0,-0.3023,0.9313,0.1471,0.4065,0.5049,-0.4825,-0.5891
1211,0.0,0.0,0.0,0.0,0.0,0.0,-0.3096,0.9308,0.1481,0.4071,0.5056,-0.4825,-0.5881
1212,0.0,0.0,0.0,0.0,0.0,0.0,-0.3126,0.9382,0.1516,0.4073,0.5065,-0.4827,-0.5871
1213,0.0,0.0,0.0,0.0,0.0,0.0,-0.3126,0.9397,0.1560,0.4078,0.5071,-0.4826,-0.5862
1214,0.0,0.0,0.0,0.0,0.0,0.0,-0.3136,0.9426,0.1589,0.4087,0.5076,-0.4823,-0.5854
1215,0.0,0.0,0.0,0.0,0.0,0.0,-0.3131,0.9406,0.1560,0.4090,0.5080,-0.4825,-0.5846
1216,0.0,0.0,0.0,0.0,0.0,0.0,-0.3140,0.9377,0.1511,0.4088,0.5084,-0.4829,-0.5842
1217,0.0,0.0,0.0,0.0,0.0,0.0,-0.3209,0.9387,0.1546,0.4083,0.5089,-0.4832,-0.5838
1218,0.0,0.0,0.0,0.0,0.0,0.0,-0.3253,0.9407,0.1580,0.4081,0.5096,-0.4829,-0.5836
1219,0.0,0.0,0.0,0.0,0.0,0.0,-0.3267,0.9436,0.1600,0.4081,0.5105,-0.4820,-0.5835
1220,0.0,0.0,0.0,0.0,0.0,0.0,-0.3248,0.9460,0.1561,0.4082,0.5112,-0.4809,-0.5838
1221,0.0,0.0,0.0,0.0,0.0,0.0,-0.3174,0.9328,0.1492,0.4078,0.5115,-0.4802,-0.5844
1222,0.0,0.0,0.0,0.0,0.0,0.0,-0.3160,0.9387,0.1502,0.4073,0.5116,-0.4800,-0.5848
1223,0.0,0.0,0.0,0.0,0.0,0.0,-0.3111,0.9387,0.1531,0.4071,0.5114,-0.4797,-0.5854
1224,0.0,0.0,0.0,0.0,0.0,0.0,-0.3053,0.9377,0.1506,0.4069,0.5113,-0.4793,-0.5859
1225,0.0,0.0,0.0,0.0,0.0,0.0,-0.3043,0.9372,0.1506,0.4070,0.5111,-0.4790,-0.5862
1226,0.0,0.0,0.0,0.0,0.0,0.0,-0.3028,0.9328,0.1457,0.4073,0.5110,-0.4788,-0.5863
1227,0.0,0.0,0.0,0.0,0.0,0.0,-0.2989,0.9367,0.1495,0.4076,0.5109,-0.4787,-0.5862
1228,0.0,0.0,0.0,0.0,0.0,0.0,-0.2955,0.9352,0.1476,0.4079,0.5108,-0.4791,-0.5858
1229,0.0,0.0,0.0,0.0,0.0,0.0,-0.2984,0.9342,0.1447,0.4081,0.5107,-0.4794,-0.5855
1230,0.0,0.0,0.0,0.0,0.0,0.0,-0.3033,0.9372,0.1491,0.4081,0.5108,-0.4799,-0.5850
1231,0.0,0.0,0.0,0.0,0.0,0.0,-0.3043,0.9386,0.1511,0.4080,0.5111,-0.4806,-0.5842
1232,0.0,0.0,0.0,0.0,0.0,0.0,-0.3077,0.9387,0.1530,0.4082,0.5114,-0.4807,-0.5838
