,Position_X,Position_Y,Position_Z,Velocity_X,Velocity_Y,Velocity_Z,Acceleration_X,Acceleration_Y,Acceleration_Z,Quaterion_0,Quaterion_1,Quaterion_2,Quaterion_3
207,0.0,0.0,0.0,0.0,0.0,0.0,-0.4479,-0.8958,-0.1380,0.6926,-0.6712,0.2320,0.1262
208,0.0,0.0,0.0,0.0,0.0,0.0,-0.4425,-0.8890,-0.1389,0.6929,-0.6707,0.2326,0.1261
209,0.0,0.0,0.0,0.0,0.0,0.0,-0.4137,-0.8681,-0.1455,0.6927,-0.6711,0.2326,0.1256
210,0.0,0.0,0.0,0.0,0.0,0.0,-0.3945,-0.9097,-0.1755,0.6922,-0.6720,0.2320,0.1246
211,0.0,0.0,0.0,0.0,0.0,0.0,-0.4586,-0.8847,-0.1236,0.6923,-0.6718,0.2323,0.1242
212,0.0,0.0,0.0,0.0,0.0,0.0,-0.4244,-0.8996,-0.1494,0.6924,-0.6721,0.2311,0.1239
213,0.0,0.0,0.0,0.0,0.0,0.0,-0.4405,-0.8948,-0.1351,0.6920,-0.6728,0.2305,0.1237
214,0.0,0.0,0.0,0.0,0.0,0.0,-0.4635,-0.8924,-0.1194,0.6931,-0.6716,0.2309,0.1237
215,0.0,0.0,0.0,0.0,0.0,0.0,-0.4440,-0.9114,-0.1218,0.6942,-0.6705,0.2307,0.1237
216,0.0,0.0,0.0,0.0,0.0,0.0,-0.4469,-0.9129,-0.1086,0.6953,-0.6694,0.2304,0.1241
217,0.0,0.0,0.0,0.0,0.0,0.0,-0.4308,-0.9061,-0.1140,0.6962,-0.6686,0.2296,0.1249
218,0.0,0.0,0.0,0.0,0.0,0.0,-0.4103,-0.8769,-0.1277,0.6965,-0.6684,0.2287,0.1258
219,0.0,0.0,0.0,0.0,0.0,0.0,-0.3976,-0.8672,-0.1295,0.6966,-0.6685,0.2278,0.1263
220,0.0,0.0,0.0,0.0,0.0,0.0,-0.3937,-0.8852,-0.1337,0.6964,-0.6690,0.2268,0.1262
221,0.0,0.0,0.0,0.0,0.0,0.0,-0.4162,-0.8955,-0.1153,0.6964,-0.6693,0.2263,0.1260
222,0.0,0.0,0.0,0.0,0.0,0.0,-0.4254,-0.9095,-0.1155,0.6960,-0.6699,0.2256,0.1261
223,0.0,0.0,0.0,0.0,0.0,0.0,-0.4283,-0.9085,-0.1218,0.6954,-0.6707,0.2250,0.1262
224,0.0,0.0,0.0,0.0,0.0,0.0,-0.4347,-0.9104,-0.1233,0.6950,-0.6712,0.2247,0.1265
225,0.0,0.0,0.0,0.0,0.0,0.0,-0.4459,-0.9163,-0.1199,0.6946,-0.6715,0.2248,0.1267
226,0.0,0.0,0.0,0.0,0.0,0.0,-0.4562,-0.9163,-0.1164,0.6946,-0.6713,0.2251,0.1268
227,0.0,0.0,0.0,0.0,0.0,0.0,-0.4547,-0.9056,-0.1172,0.6948,-0.6710,0.2256,0.1271
228,0.0,0.0,0.0,0.0,0.0,0.0,-0.4464,-0.8963,-0.1215,0.6950,-0.6705,0.2261,0.1274
229,0.0,0.0,0.0,0.0,0.0,0.0,-0.4367,-0.8891,-0.1234,0.6953,-0.6701,0.2265,0.1276
230,0.0,0.0,0.0,0.0,0.0,0.0,-0.4328,-0.8886,-0.1209,0.6957,-0.6696,0.2267,0.1277
231,0.0,0.0,0.0,0.0,0.0,0.0,-0.4289,-0.8940,-0.1152,0.6963,-0.6689,0.2266,0.1279
232,0.0,0.0,0.0,0.0,0.0,0.0,-0.4167,-0.8969,-0.1139,0.6964,-0.6690,0.2259,0.1280
233,0.0,0.0,0.0,0.0,0.0,0.0,-0.4059,-0.8935,-0.1187,0.6962,-0.6696,0.2251,0.1279
234,0.0,0.0,0.0,0.0,0.0,0.0,-0.3996,-0.8916,-0.1183,0.6965,-0.6696,0.2247,0.1269
235,0.0,0.0,0.0,0.0,0.0,0.0,-0.4025,-0.8930,-0.1183,0.6968,-0.6696,0.2244,0.1255
236,0.0,0.0,0.0,0.0,0.0,0.0,-0.4069,-0.8906,-0.1211,0.6967,-0.6700,0.2242,0.1241
237,0.0,0.0,0.0,0.0,0.0,0.0,-0.4103,-0.8891,-0.1279,0.6967,-0.6703,0.2245,0.1223
238,0.0,0.0,0.0,0.0,0.0,0.0,-0.4176,-0.8954,-0.1260,0.6967,-0.6705,0.2251,0.1204
239,0.0,0.0,0.0,0.0,0.0,0.0,-0.4313,-0.9124,-0.1223,0.6964,-0.6708,0.2256,0.1189
240,0.0,0.0,0.0,0.0,0.0,0.0,-0.4410,-0.9206,-0.1249,0.6962,-0.6711,0.2260,0.1178
241,0.0,0.0,0.0,0.0,0.0,0.0,-0.4420,-0.9079,-0.1334,0.6964,-0.6708,0.2269,0.1167
242,0.0,0.0,0.0,0.0,0.0,0.0,-0.4371,-0.9006,-0.1381,0.6966,-0.6703,0.2280,0.1159
243,0.0,0.0,0.0,0.0,0.0,0.0,-0.4415,-0.8997,-0.1376,0.6968,-0.6698,0.2291,0.1154
244,0.0,0.0,0.0,0.0,0.0,0.0,-0.4444,-0.9050,-0.1353,0.6968,-0.6695,0.2301,0.1152
245,0.0,0.0,0.0,0.0,0.0,0.0,-0.4449,-0.9040,-0.1352,0.6968,-0.6693,0.2306,0.1155
246,0.0,0.0,0.0,0.0,0.0,0.0,-0.4361,-0.8953,-0.1361,0.6967,-0.6692,0.2309,0.1160
247,0.0,0.0,0.0,0.0,0.0,0.0,-0.4054,-0.8729,-0.1553,0.6956,-0.6705,0.2302,0.1165
248,0.0,0.0,0.0,0.0,0.0,0.0,-0.3790,-0.9050,-0.1551,0.6952,-0.6712,0.2293,0.1166
249,0.0,0.0,0.0,0.0,0.0,0.0,-0.4113,-0.8842,-0.1390,0.6941,-0.6724,0.2290,0.1168
250,0.0,0.0,0.0,0.0,0.0,0.0,-0.3966,-0.8988,-0.1320,0.6941,-0.6729,0.2277,0.1170
251,0.0,0.0,0.0,0.0,0.0,0.0,-0.4195,-0.9182,-0.1347,0.6935,-0.6737,0.2268,0.1171
252,0.0,0.0,0.0,0.0,0.0,0.0,-0.4577,-0.9047,-0.1060,0.6938,-0.6733,0.2270,0.1178
253,0.0,0.0,0.0,0.0,0.0,0.0,-0.4229,-0.9182,-0.1244,0.6938,-0.6733,0.2263,0.1189
254,0.0,0.0,0.0,0.0,0.0,0.0,-0.4171,-0.9119,-0.1200,0.6943,-0.6729,0.2256,0.1194
255,0.0,0.0,0.0,0.0,0.0,0.0,-0.4205,-0.9042,-0.1174,0.6951,-0.6722,0.2253,0.1196
256,0.0,0.0,0.0,0.0,0.0,0.0,-0.4078,-0.9008,-0.1232,0.6954,-0.6720,0.2247,0.1201
257,0.0,0.0,0.0,0.0,0.0,0.0,-0.4108,-0.8983,-0.1246,0.6956,-0.6718,0.2245,0.1203
258,0.0,0.0,0.0,0.0,0.0,0.0,-0.4171,-0.8968,-0.1290,0.6956,-0.6717,0.2246,0.1202
259,0.0,0.0,0.0,0.0,0.0,0.0,-0.4157,-0.8900,-0.1332,0.6954,-0.6720,0.2244,0.1204
260,0.0,0.0,0.0,0.0,0.0,0.0,-0.4195,-0.9002,-0.1314,0.6953,-0.6722,0.2242,0.1202
261,0.0,0.0,0.0,0.0,0.0,0.0,-0.3971,-0.8988,-0.1359,0.6948,-0.6732,0.2232,0.1194
262,0.0,0.0,0.0,0.0,0.0,0.0,-0.4645,-0.9187,-0.1087,0.6954,-0.6722,0.2247,0.1188
263,0.0,0.0,0.0,0.0,0.0,0.0,-0.4488,-0.9187,-0.1238,0.6956,-0.6718,0.2253,0.1188
264,0.0,0.0,0.0,0.0,0.0,0.0,-0.4312,-0.9138,-0.1306,0.6957,-0.6715,0.2257,0.1190
265,0.0,0.0,0.0,0.0,0.0,0.0,-0.4508,-0.9036,-0.1235,0.6956,-0.6713,0.2263,0.1197
266,0.0,0.0,0.0,0.0,0.0,0.0,-0.4342,-0.9026,-0.1304,0.6956,-0.6711,0.2265,0.1204
267,0.0,0.0,0.0,0.0,0.0,0.0,-0.4342,-0.8988,-0.1265,0.6957,-0.6707,0.2269,0.1208
268,0.0,0.0,0.0,0.0,0.0,0.0,-0.4376,-0.8997,-0.1235,0.6962,-0.6700,0.2275,0.1213
269,0.0,0.0,0.0,0.0,0.0,0.0,-0.4308,-0.8944,-0.1245,0.6965,-0.6694,0.2278,0.1218
270,0.0,0.0,0.0,0.0,0.0,0.0,-0.4240,-0.8905,-0.1283,0.6968,-0.6691,0.2278,0.1222
271,0.0,0.0,0.0,0.0,0.0,0.0,-0.4215,-0.8876,-0.1293,0.6971,-0.6687,0.2280,0.1224
272,0.0,0.0,0.0,0.0,0.0,0.0,-0.4264,-0.8896,-0.1249,0.6974,-0.6682,0.2283,0.1225
273,0.0,0.0,0.0,0.0,0.0,0.0,-0.4293,-0.8934,-0.1240,0.6975,-0.6681,0.2281,0.1229
274,0.0,0.0,0.0,0.0,0.0,0.0,-0.4284,-0.8939,-0.1254,0.6976,-0.6679,0.2283,0.1231
275,0.0,0.0,0.0,0.0,0.0,0.0,-0.4298,-0.8968,-0.1240,0.6976,-0.6678,0.2285,0.1233
276,0.0,0.0,0.0,0.0,0.0,0.0,-0.4269,-0.8944,-0.1259,0.6976,-0.6678,0.2283,0.1236
277,0.0,0.0,0.0,0.0,0.0,0.0,-0.4210,-0.8939,-0.1274,0.6975,-0.6679,0.2280,0.1239
278,0.0,0.0,0.0,0.0,0.0,0.0,-0.4244,-0.8968,-0.1250,0.6975,-0.6680,0.2278,0.1241
279,0.0,0.0,0.0,0.0,0.0,0.0,-0.4303,-0.8993,-0.1231,0.6976,-0.6679,0.2276,0.1242
280,0.0,0.0,0.0,0.0,0.0,0.0,-0.4347,-0.9032,-0.1212,0.6977,-0.6679,0.2274,0.1245
281,0.0,0.0,0.0,0.0,0.0,0.0,-0.4430,-0.9012,-0.1201,0.6976,-0.6678,0.2274,0.1249
282,0.0,0.0,0.0,0.0,0.0,0.0,-0.4332,-0.8919,-0.1298,0.6975,-0.6680,0.2274,0.1252
283,0.0,0.0,0.0,0.0,0.0,0.0,-0.3551,-0.8760,-0.1426,0.6970,-0.6693,0.2252,0.1247
284,0.0,0.0,0.0,0.0,0.0,0.0,-0.3726,-0.9143,-0.1451,0.6963,-0.6709,0.2234,0.1232
285,0.0,0.0,0.0,0.0,0.0,0.0,-0.4352,-0.9052,-0.0974,0.6966,-0.6710,0.2229,0.1219
286,0.0,0.0,0.0,0.0,0.0,0.0,-0.4239,-0.9163,-0.1259,0.6966,-0.6713,0.2224,0.1209
287,0.0,0.0,0.0,0.0,0.0,0.0,-0.4401,-0.8935,-0.1132,0.6964,-0.6715,0.2228,0.1206
288,0.0,0.0,0.0,0.0,0.0,0.0,-0.4454,-0.9056,-0.1168,0.6961,-0.6717,0.2231,0.1205
289,0.0,0.0,0.0,0.0,0.0,0.0,-0.4376,-0.9022,-0.1158,0.6959,-0.6718,0.2233,0.1206
290,0.0,0.0,0.0,0.0,0.0,0.0,-0.4293,-0.8964,-0.1192,0.6961,-0.6716,0.2234,0.1205
291,0.0,0.0,0.0,0.0,0.0,0.0,-0.4298,-0.8949,-0.1206,0.6963,-0.6714,0.2235,0.1205
292,0.0,0.0,0.0,0.0,0.0,0.0,-0.4372,-0.8959,-0.1186,0.6964,-0.6712,0.2236,0.1207
293,0.0,0.0,0.0,0.0,0.0,0.0,-0.4376,-0.9051,-0.1154,0.6967,-0.6707,0.2236,0.1213
294,0.0,0.0,0.0,0.0,0.0,0.0,-0.4381,-0.9012,-0.1211,0.6970,-0.6704,0.2235,0.1220
295,0.0,0.0,0.0,0.0,0.0,0.0,-0.4230,-0.8832,-0.1306,0.6970,-0.6704,0.2228,0.1229
296,0.0,0.0,0.0,0.0,0.0,0.0,-0.3888,-0.8711,-0.1437,0.6967,-0.6711,0.2214,0.1233
297,0.0,0.0,0.0,0.0,0.0,0.0,-0.3883,-0.8677,-0.1412,0.6959,-0.6724,0.2199,0.1231
298,0.0,0.0,0.0,0.0,0.0,0.0,-0.4152,-0.8769,-0.1335,0.6949,-0.6740,0.2184,0.1234
299,0.0,0.0,0.0,0.0,0.0,0.0,-0.3971,-0.8866,-0.1347,0.6941,-0.6756,0.2157,0.1235
300,0.0,0.0,0.0,0.0,0.0,0.0,-0.4078,-0.9007,-0.1330,0.6932,-0.6773,0.2133,0.1234
301,0.0,0.0,0.0,0.0,0.0,0.0,-0.4249,-0.9026,-0.1285,0.6924,-0.6788,0.2111,0.1235
302,0.0,0.0,0.0,0.0,0.0,0.0,-0.4098,-0.8977,-0.1402,0.6915,-0.6805,0.2084,0.1238
303,0.0,0.0,0.0,0.0,0.0,0.0,-0.4078,-0.8895,-0.1420,0.6900,-0.6828,0.2056,0.1241
304,0.0,0.0,0.0,0.0,0.0,0.0,-0.4122,-0.8973,-0.1397,0.6884,-0.6851,0.2028,0.1248
305,0.0,0.0,0.0,0.0,0.0,0.0,-0.4190,-0.9089,-0.1360,0.6873,-0.6868,0.2004,0.1255
306,0.0,0.0,0.0,0.0,0.0,0.0,-0.4185,-0.9211,-0.1342,0.6866,-0.6882,0.1968,0.1275
307,0.0,0.0,0.0,0.0,0.0,0.0,-0.4087,-0.9254,-0.1383,0.6857,-0.6897,0.1936,0.1290
308,0.0,0.0,0.0,0.0,0.0,0.0,-0.4009,-0.9225,-0.1436,0.6845,-0.6916,0.1904,0.1302
309,0.0,0.0,0.0,0.0,0.0,0.0,-0.3921,-0.9171,-0.1494,0.6836,-0.6931,0.1871,0.1316
310,0.0,0.0,0.0,0.0,0.0,0.0,-0.3858,-0.9157,-0.1513,0.6828,-0.6945,0.1841,0.1324
311,0.0,0.0,0.0,0.0,0.0,0.0,-0.3848,-0.9157,-0.1509,0.6817,-0.6962,0.1812,0.1331
312,0.0,0.0,0.0,0.0,0.0,0.0,-0.3872,-0.9215,-0.1485,0.6813,-0.6972,0.1785,0.1337
313,0.0,0.0,0.0,0.0,0.0,0.0,-0.3921,-0.9249,-0.1447,0.6810,-0.6980,0.1761,0.1342
314,0.0,0.0,0.0,0.0,0.0,0.0,-0.3921,-0.9249,-0.1490,0.6804,-0.6991,0.1736,0.1350
315,0.0,0.0,0.0,0.0,0.0,0.0,-0.3843,-0.9200,-0.1534,0.6803,-0.6995,0.1717,0.1357
316,0.0,0.0,0.0,0.0,0.0,0.0,-0.3843,-0.9210,-0.1529,0.6801,-0.6999,0.1701,0.1364
317,0.0,0.0,0.0,0.0,0.0,0.0,-0.3911,-0.9288,-0.1457,0.6795,-0.7007,0.1684,0.1376
318,0.0,0.0,0.0,0.0,0.0,0.0,-0.3868,-0.9279,-0.1467,0.6792,-0.7011,0.1673,0.1385
319,0.0,0.0,0.0,0.0,0.0,0.0,-0.3780,-0.9220,-0.1564,0.6787,-0.7016,0.1662,0.1395
320,0.0,0.0,0.0,0.0,0.0,0.0,-0.3789,-0.9234,-0.1564,0.6781,-0.7023,0.1651,0.1405
321,0.0,0.0,0.0,0.0,0.0,0.0,-0.3819,-0.9259,-0.1530,0.6779,-0.7024,0.1645,0.1415
322,0.0,0.0,0.0,0.0,0.0,0.0,-0.3819,-0.9249,-0.1540,0.6779,-0.7023,0.1642,0.1424
323,0.0,0.0,0.0,0.0,0.0,0.0,-0.3794,-0.9234,-0.1559,0.6779,-0.7023,0.1636,0.1434
324,0.0,0.0,0.0,0.0,0.0,0.0,-0.3731,-0.9205,-0.1607,0.6779,-0.7022,0.1629,0.1441
325,0.0,0.0,0.0,0.0,0.0,0.0,-0.3677,-0.9122,-0.1665,0.6781,-0.7021,0.1625,0.1444
326,0.0,0.0,0.0,0.0,0.0,0.0,-0.3643,-0.9035,-0.1712,0.6778,-0.7025,0.1620,0.1444
327,0.0,0.0,0.0,0.0,0.0,0.0,-0.3623,-0.9030,-0.1712,0.6773,-0.7032,0.1611,0.1445
328,0.0,0.0,0.0,0.0,0.0,0.0,-0.3565,-0.9005,-0.1751,0.6768,-0.7039,0.1601,0.1442
329,0.0,0.0,0.0,0.0,0.0,0.0,-0.3555,-0.8913,-0.1837,0.6758,-0.7052,0.1594,0.1434
330,0.0,0.0,0.0,0.0,0.0,0.0,-0.3536,-0.8849,-0.1860,0.6748,-0.7065,0.1585,0.1426
331,0.0,0.0,0.0,0.0,0.0,0.0,-0.3589,-0.8971,-0.1857,0.6740,-0.7076,0.1578,0.1415
332,0.0,0.0,0.0,0.0,0.0,0.0,-0.3735,-0.9155,-0.1782,0.6727,-0.7093,0.1568,0.1404
333,0.0,0.0,0.0,0.0,0.0,0.0,-0.3823,-0.9194,-0.1777,0.6717,-0.7106,0.1562,0.1393
334,0.0,0.0,0.0,0.0,0.0,0.0,-0.3818,-0.9199,-0.1816,0.6709,-0.7117,0.1556,0.1384
335,0.0,0.0,0.0,0.0,0.0,0.0,-0.3838,-0.9233,-0.1812,0.6700,-0.7128,0.1550,0.1378
336,0.0,0.0,0.0,0.0,0.0,0.0,-0.3955,-0.9237,-0.1855,0.6692,-0.7137,0.1547,0.1374
337,0.0,0.0,0.0,0.0,0.0,0.0,-0.3960,-0.9208,-0.1869,0.6682,-0.7147,0.1542,0.1376
338,0.0,0.0,0.0,0.0,0.0,0.0,-0.3852,-0.9208,-0.1923,0.6674,-0.7154,0.1538,0.1379
339,0.0,0.0,0.0,0.0,0.0,0.0,-0.3833,-0.9208,-0.1889,0.6671,-0.7158,0.1538,0.1381
340,0.0,0.0,0.0,0.0,0.0,0.0,-0.3803,-0.9233,-0.1855,0.6671,-0.7157,0.1540,0.1382
341,0.0,0.0,0.0,0.0,0.0,0.0,-0.3793,-0.9276,-0.1885,0.6668,-0.7158,0.1545,0.1381
342,0.0,0.0,0.0,0.0,0.0,0.0,-0.3744,-0.9232,-0.1977,0.6669,-0.7156,0.1554,0.1379
343,0.0,0.0,0.0,0.0,0.0,0.0,-0.3598,-0.9125,-0.2108,0.6670,-0.7154,0.1562,0.1376
344,0.0,0.0,0.0,0.0,0.0,0.0,-0.3539,-0.9095,-0.2175,0.6662,-0.7162,0.1561,0.1374
345,0.0,0.0,0.0,0.0,0.0,0.0,-0.3622,-0.9144,-0.2069,0.6658,-0.7166,0.1563,0.1368
346,0.0,0.0,0.0,0.0,0.0,0.0,-0.3749,-0.9247,-0.1924,0.6662,-0.7163,0.1567,0.1361
347,0.0,0.0,0.0,0.0,0.0,0.0,-0.3959,-0.9354,-0.1823,0.6664,-0.7161,0.1574,0.1355
348,0.0,0.0,0.0,0.0,0.0,0.0,-0.4072,-0.9300,-0.1787,0.6670,-0.7152,0.1594,0.1347
349,0.0,0.0,0.0,0.0,0.0,0.0,-0.4018,-0.9208,-0.1839,0.6679,-0.7139,0.1619,0.1342
350,0.0,0.0,0.0,0.0,0.0,0.0,-0.3843,-0.9052,-0.1949,0.6682,-0.7131,0.1640,0.1341
351,0.0,0.0,0.0,0.0,0.0,0.0,-0.3706,-0.8960,-0.2031,0.6681,-0.7128,0.1658,0.1344
352,0.0,0.0,0.0,0.0,0.0,0.0,-0.3716,-0.8892,-0.2040,0.6676,-0.7129,0.1675,0.1345
353,0.0,0.0,0.0,0.0,0.0,0.0,-0.3779,-0.8897,-0.1962,0.6668,-0.7132,0.1691,0.1346
354,0.0,0.0,0.0,0.0,0.0,0.0,-0.3794,-0.8941,-0.1967,0.6662,-0.7133,0.1707,0.1348
355,0.0,0.0,0.0,0.0,0.0,0.0,-0.3740,-0.8853,-0.2014,0.6654,-0.7138,0.1718,0.1349
356,0.0,0.0,0.0,0.0,0.0,0.0,-0.3755,-0.8872,-0.2083,0.6641,-0.7147,0.1728,0.1352
357,0.0,0.0,0.0,0.0,0.0,0.0,-0.3906,-0.8979,-0.2074,0.6625,-0.7160,0.1738,0.1352
358,0.0,0.0,0.0,0.0,0.0,0.0,-0.4028,-0.9076,-0.1997,0.6612,-0.7169,0.1754,0.1347
359,0.0,0.0,0.0,0.0,0.0,0.0,-0.3910,-0.9085,-0.2120,0.6598,-0.7180,0.1766,0.1343
360,0.0,0.0,0.0,0.0,0.0,0.0,-0.3910,-0.9144,-0.2087,0.6580,-0.7195,0.1771,0.1341
361,0.0,0.0,0.0,0.0,0.0,0.0,-0.3876,-0.9153,-0.2160,0.6570,-0.7203,0.1780,0.1335
362,0.0,0.0,0.0,0.0,0.0,0.0,-0.3910,-0.9123,-0.2223,0.6560,-0.7210,0.1794,0.1326
363,0.0,0.0,0.0,0.0,0.0,0.0,-0.3964,-0.9182,-0.2179,0.6550,-0.7218,0.1805,0.1319
364,0.0,0.0,0.0,0.0,0.0,0.0,-0.4003,-0.9225,-0.2156,0.6547,-0.7219,0.1818,0.1312
365,0.0,0.0,0.0,0.0,0.0,0.0,-0.4052,-0.9109,-0.2168,0.6547,-0.7215,0.1840,0.1305
366,0.0,0.0,0.0,0.0,0.0,0.0,-0.3808,-0.8992,-0.2294,0.6543,-0.7216,0.1852,0.1300
367,0.0,0.0,0.0,0.0,0.0,0.0,-0.3818,-0.8861,-0.2282,0.6539,-0.7218,0.1857,0.1302
368,0.0,0.0,0.0,0.0,0.0,0.0,-0.3896,-0.8832,-0.2252,0.6537,-0.7218,0.1864,0.1302
369,0.0,0.0,0.0,0.0,0.0,0.0,-0.3794,-0.8808,-0.2266,0.6537,-0.7217,0.1869,0.1300
370,0.0,0.0,0.0,0.0,0.0,0.0,-0.3896,-0.8847,-0.2198,0.6542,-0.7211,0.1878,0.1296
371,0.0,0.0,0.0,0.0,0.0,0.0,-0.3979,-0.8891,-0.2140,0.6550,-0.7202,0.1888,0.1292
372,0.0,0.0,0.0,0.0,0.0,0.0,-0.3984,-0.8774,-0.2235,0.6556,-0.7194,0.1898,0.1290
373,0.0,0.0,0.0,0.0,0.0,0.0,-0.3891,-0.8681,-0.2327,0.6553,-0.7195,0.1904,0.1288
374,0.0,0.0,0.0,0.0,0.0,0.0,-0.3662,-0.8657,-0.2405,0.6552,-0.7197,0.1908,0.1280
375,0.0,0.0,0.0,0.0,0.0,0.0,-0.3622,-0.8743,-0.2499,0.6544,-0.7207,0.1905,0.1268
376,0.0,0.0,0.0,0.0,0.0,0.0,-0.3803,-0.8733,-0.2518,0.6532,-0.7219,0.1907,0.1254
377,0.0,0.0,0.0,0.0,0.0,0.0,-0.3851,-0.8888,-0.2564,0.6526,-0.7227,0.1908,0.1244
378,0.0,0.0,0.0,0.0,0.0,0.0,-0.3977,-0.9305,-0.2629,0.6517,-0.7236,0.1910,0.1233
379,0.0,0.0,0.0,0.0,0.0,0.0,-0.4275,-0.9452,-0.2377,0.6506,-0.7247,0.1911,0.1225
380,0.0,0.0,0.0,0.0,0.0,0.0,-0.4281,-0.9282,-0.2359,0.6505,-0.7247,0.1916,0.1224
381,0.0,0.0,0.0,0.0,0.0,0.0,-0.4159,-0.9233,-0.2418,0.6505,-0.7245,0.1919,0.1231
382,0.0,0.0,0.0,0.0,0.0,0.0,-0.4134,-0.9195,-0.2407,0.6504,-0.7244,0.1920,0.1242
383,0.0,0.0,0.0,0.0,0.0,0.0,-0.4047,-0.9049,-0.2410,0.6506,-0.7238,0.1925,0.1252
384,0.0,0.0,0.0,0.0,0.0,0.0,-0.3910,-0.8937,-0.2472,0.6509,-0.7234,0.1929,0.1259
385,0.0,0.0,0.0,0.0,0.0,0.0,-0.3925,-0.8937,-0.2443,0.6508,-0.7233,0.1931,0.1265
386,0.0,0.0,0.0,0.0,0.0,0.0,-0.4057,-0.8953,-0.2321,0.6507,-0.7232,0.1936,0.1267
387,0.0,0.0,0.0,0.0,0.0,0.0,-0.3988,-0.8943,-0.2321,0.6507,-0.7232,0.1936,0.1271
388,0.0,0.0,0.0,0.0,0.0,0.0,-0.3886,-0.8928,-0.2375,0.6505,-0.7233,0.1934,0.1274
389,0.0,0.0,0.0,0.0,0.0,0.0,-0.3876,-0.8982,-0.2390,0.6500,-0.7237,0.1935,0.1273
390,0.0,0.0,0.0,0.0,0.0,0.0,-0.3861,-0.9069,-0.2363,0.6500,-0.7238,0.1938,0.1267
391,0.0,0.0,0.0,0.0,0.0,0.0,-0.3817,-0.9103,-0.2422,0.6500,-0.7239,0.1937,0.1261
392,0.0,0.0,0.0,0.0,0.0,0.0,-0.3812,-0.9107,-0.2466,0.6504,-0.7238,0.1933,0.1255
393,0.0,0.0,0.0,0.0,0.0,0.0,-0.3851,-0.9039,-0.2547,0.6506,-0.7238,0.1927,0.1252
394,0.0,0.0,0.0,0.0,0.0,0.0,-0.3978,-0.8902,-0.2612,0.6501,-0.7243,0.1924,0.1253
395,0.0,0.0,0.0,0.0,0.0,0.0,-0.4164,-0.8708,-0.2656,0.6494,-0.7248,0.1928,0.1256
396,0.0,0.0,0.0,0.0,0.0,0.0,-0.4374,-0.8698,-0.2616,0.6480,-0.7255,0.1936,0.1272
397,0.0,0.0,0.0,0.0,0.0,0.0,-0.4452,-0.8712,-0.2562,0.6464,-0.7263,0.1944,0.1297
398,0.0,0.0,0.0,0.0,0.0,0.0,-0.4398,-0.8732,-0.2534,0.6453,-0.7265,0.1951,0.1330
399,0.0,0.0,0.0,0.0,0.0,0.0,-0.4164,-0.8747,-0.2594,0.6441,-0.7269,0.1950,0.1371
400,0.0,0.0,0.0,0.0,0.0,0.0,-0.3935,-0.8655,-0.2632,0.6427,-0.7274,0.1942,0.1417
401,0.0,0.0,0.0,0.0,0.0,0.0,-0.3808,-0.8660,-0.2541,0.6414,-0.7281,0.1928,0.1462
402,0.0,0.0,0.0,0.0,0.0,0.0,-0.3735,-0.8661,-0.2522,0.6397,-0.7292,0.1907,0.1505
403,0.0,0.0,0.0,0.0,0.0,0.0,-0.3710,-0.8778,-0.2432,0.6382,-0.7302,0.1888,0.1542
404,0.0,0.0,0.0,0.0,0.0,0.0,-0.3603,-0.8894,-0.2429,0.6372,-0.7310,0.1864,0.1577
405,0.0,0.0,0.0,0.0,0.0,0.0,-0.3427,-0.8772,-0.2608,0.6358,-0.7324,0.1836,0.1602
406,0.0,0.0,0.0,0.0,0.0,0.0,-0.3431,-0.8762,-0.2695,0.6342,-0.7341,0.1807,0.1619
407,0.0,0.0,0.0,0.0,0.0,0.0,-0.3524,-0.8830,-0.2730,0.6326,-0.7360,0.1782,0.1624
408,0.0,0.0,0.0,0.0,0.0,0.0,-0.3690,-0.8887,-0.2764,0.6310,-0.7378,0.1766,0.1621
409,0.0,0.0,0.0,0.0,0.0,0.0,-0.3782,-0.8930,-0.2886,0.6299,-0.7393,0.1757,0.1607
410,0.0,0.0,0.0,0.0,0.0,0.0,-0.3914,-0.8934,-0.2973,0.6287,-0.7409,0.1752,0.1585
411,0.0,0.0,0.0,0.0,0.0,0.0,-0.4309,-0.9128,-0.2906,0.6276,-0.7423,0.1756,0.1561
412,0.0,0.0,0.0,0.0,0.0,0.0,-0.4714,-0.9171,-0.2875,0.6267,-0.7431,0.1769,0.1544
413,0.0,0.0,0.0,0.0,0.0,0.0,-0.5061,-0.8723,-0.2997,0.6255,-0.7435,0.1801,0.1535
414,0.0,0.0,0.0,0.0,0.0,0.0,-0.4964,-0.8465,-0.3105,0.6238,-0.7438,0.1848,0.1534
415,0.0,0.0,0.0,0.0,0.0,0.0,-0.4676,-0.8689,-0.3100,0.6221,-0.7440,0.1891,0.1543
416,0.0,0.0,0.0,0.0,0.0,0.0,-0.4315,-0.8428,-0.3142,0.6196,-0.7449,0.1919,0.1560
417,0.0,0.0,0.0,0.0,0.0,0.0,-0.4095,-0.8160,-0.3226,0.6168,-0.7464,0.1936,0.1580
418,0.0,0.0,0.0,0.0,0.0,0.0,-0.4320,-0.8262,-0.3158,0.6140,-0.7479,0.1948,0.1605
419,0.0,0.0,0.0,0.0,0.0,0.0,-0.4266,-0.7980,-0.3309,0.6106,-0.7499,0.1946,0.1644
420,0.0,0.0,0.0,0.0,0.0,0.0,-0.4032,-0.7781,-0.3375,0.6069,-0.7524,0.1935,0.1678
421,0.0,0.0,0.0,0.0,0.0,0.0,-0.4007,-0.8033,-0.3370,0.6033,-0.7553,0.1909,0.1706
422,0.0,0.0,0.0,0.0,0.0,0.0,-0.4242,-0.7882,-0.3473,0.6014,-0.7568,0.1861,0.1760
423,0.0,0.0,0.0,0.0,0.0,0.0,-0.4838,-0.7941,-0.3174,0.5995,-0.7576,0.1840,0.1811
424,0.0,0.0,0.0,0.0,0.0,0.0,-0.4515,-0.8349,-0.3304,0.5967,-0.7594,0.1821,0.1847
425,0.0,0.0,0.0,0.0,0.0,0.0,-0.4557,-0.9027,-0.3452,0.5946,-0.7612,0.1800,0.1863
426,0.0,0.0,0.0,0.0,0.0,0.0,-0.5110,-0.8726,-0.3264,0.5925,-0.7628,0.1804,0.1857
427,0.0,0.0,0.0,0.0,0.0,0.0,-0.4773,-0.8419,-0.3615,0.5916,-0.7635,0.1808,0.1854
428,0.0,0.0,0.0,0.0,0.0,0.0,-0.4772,-0.8481,-0.3787,0.5904,-0.7646,0.1818,0.1836
429,0.0,0.0,0.0,0.0,0.0,0.0,-0.5104,-0.8081,-0.3972,0.5879,-0.7665,0.1839,0.1819
430,0.0,0.0,0.0,0.0,0.0,0.0,-0.4724,-0.8190,-0.3758,0.5868,-0.7680,0.1831,0.1797
431,0.0,0.0,0.0,0.0,0.0,0.0,-0.4821,-0.8881,-0.3536,0.5887,-0.7672,0.1820,0.1782
432,0.0,0.0,0.0,0.0,0.0,0.0,-0.5095,-0.8653,-0.3302,0.5911,-0.7657,0.1815,0.1768
433,0.0,0.0,0.0,0.0,0.0,0.0,-0.4583,-0.8435,-0.3461,0.5940,-0.7640,0.1804,0.1758
434,0.0,0.0,0.0,0.0,0.0,0.0,-0.4529,-0.8552,-0.3342,0.5972,-0.7619,0.1793,0.1753
435,0.0,0.0,0.0,0.0,0.0,0.0,-0.4510,-0.8515,-0.3147,0.6002,-0.7598,0.1782,0.1752
436,0.0,0.0,0.0,0.0,0.0,0.0,-0.4378,-0.8505,-0.3128,0.6033,-0.7576,0.1770,0.1752
437,0.0,0.0,0.0,0.0,0.0,0.0,-0.4300,-0.8389,-0.3170,0.6059,-0.7558,0.1759,0.1750
438,0.0,0.0,0.0,0.0,0.0,0.0,-0.4398,-0.8336,-0.3037,0.6086,-0.7540,0.1755,0.1741
439,0.0,0.0,0.0,0.0,0.0,0.0,-0.4227,-0.8288,-0.2965,0.6110,-0.7524,0.1749,0.1730
440,0.0,0.0,0.0,0.0,0.0,0.0,-0.4164,-0.8677,-0.2831,0.6142,-0.7502,0.1746,0.1716
441,0.0,0.0,0.0,0.0,0.0,0.0,-0.4198,-0.8765,-0.2818,0.6158,-0.7493,0.1736,0.1707
442,0.0,0.0,0.0,0.0,0.0,0.0,-0.4193,-0.8677,-0.2821,0.6184,-0.7478,0.1728,0.1689
443,0.0,0.0,0.0,0.0,0.0,0.0,-0.4212,-0.8677,-0.2869,0.6211,-0.7461,0.1726,0.1669
444,0.0,0.0,0.0,0.0,0.0,0.0,-0.4183,-0.8545,-0.2994,0.6233,-0.7446,0.1726,0.1652
445,0.0,0.0,0.0,0.0,0.0,0.0,-0.4369,-0.8579,-0.2896,0.6250,-0.7435,0.1732,0.1629
446,0.0,0.0,0.0,0.0,0.0,0.0,-0.4530,-0.8838,-0.2657,0.6272,-0.7420,0.1743,0.1603
447,0.0,0.0,0.0,0.0,0.0,0.0,-0.4481,-0.8906,-0.2648,0.6290,-0.7405,0.1759,0.1584
448,0.0,0.0,0.0,0.0,0.0,0.0,-0.4305,-0.8819,-0.2662,0.6303,-0.7391,0.1782,0.1571
449,0.0,0.0,0.0,0.0,0.0,0.0,-0.4032,-0.8785,-0.2770,0.6312,-0.7381,0.1798,0.1568
450,0.0,0.0,0.0,0.0,0.0,0.0,-0.3851,-0.8678,-0.2833,0.6311,-0.7377,0.1808,0.1573
451,0.0,0.0,0.0,0.0,0.0,0.0,-0.3900,-0.8927,-0.2545,0.6315,-0.7370,0.1826,0.1571
452,0.0,0.0,0.0,0.0,0.0,0.0,-0.4022,-0.9018,-0.2711,0.6315,-0.7364,0.1852,0.1569
453,0.0,0.0,0.0,0.0,0.0,0.0,-0.3954,-0.8882,-0.2714,0.6325,-0.7351,0.1868,0.1574
454,0.0,0.0,0.0,0.0,0.0,0.0,-0.3919,-0.8901,-0.2802,0.6336,-0.7336,0.1884,0.1576
455,0.0,0.0,0.0,0.0,0.0,0.0,-0.4163,-0.8779,-0.2920,0.6342,-0.7324,0.1912,0.1575
456,0.0,0.0,0.0,0.0,0.0,0.0,-0.4232,-0.8438,-0.2972,0.6337,-0.7323,0.1946,0.1561
457,0.0,0.0,0.0,0.0,0.0,0.0,-0.3836,-0.8375,-0.3114,0.6329,-0.7329,0.1951,0.1555
458,0.0,0.0,0.0,0.0,0.0,0.0,-0.3968,-0.8356,-0.3094,0.6321,-0.7338,0.1951,0.1548
459,0.0,0.0,0.0,0.0,0.0,0.0,-0.4325,-0.8389,-0.3058,0.6311,-0.7352,0.1950,0.1520
460,0.0,0.0,0.0,0.0,0.0,0.0,-0.4745,-0.8750,-0.2766,0.6296,-0.7368,0.1961,0.1491
461,0.0,0.0,0.0,0.0,0.0,0.0,-0.4514,-0.9060,-0.2826,0.6296,-0.7372,0.1968,0.1465
462,0.0,0.0,0.0,0.0,0.0,0.0,-0.4466,-0.8939,-0.2902,0.6309,-0.7365,0.1967,0.1443
463,0.0,0.0,0.0,0.0,0.0,0.0,-0.4563,-0.8802,-0.2967,0.6331,-0.7350,0.1961,0.1433
464,0.0,0.0,0.0,0.0,0.0,0.0,-0.4515,-0.8531,-0.2904,0.6352,-0.7332,0.1952,0.1441
465,0.0,0.0,0.0,0.0,0.0,0.0,-0.4105,-0.8278,-0.3004,0.6374,-0.7313,0.1948,0.1450
466,0.0,0.0,0.0,0.0,0.0,0.0,-0.4227,-0.8609,-0.2844,0.6394,-0.7295,0.1942,0.1457
467,0.0,0.0,0.0,0.0,0.0,0.0,-0.4193,-0.8662,-0.2918,0.6412,-0.7280,0.1925,0.1481
468,0.0,0.0,0.0,0.0,0.0,0.0,-0.3587,-0.8336,-0.3173,0.6412,-0.7284,0.1884,0.1508
469,0.0,0.0,0.0,0.0,0.0,0.0,-0.3920,-0.8497,-0.2975,0.6401,-0.7297,0.1847,0.1537
470,0.0,0.0,0.0,0.0,0.0,0.0,-0.3724,-0.8503,-0.2927,0.6392,-0.7310,0.1803,0.1568
471,0.0,0.0,0.0,0.0,0.0,0.0,-0.3822,-0.8917,-0.2662,0.6386,-0.7321,0.1766,0.1584
472,0.0,0.0,0.0,0.0,0.0,0.0,-0.3631,-0.9034,-0.2665,0.6381,-0.7334,0.1721,0.1592
473,0.0,0.0,0.0,0.0,0.0,0.0,-0.3797,-0.8848,-0.2875,0.6370,-0.7350,0.1691,0.1595
474,0.0,0.0,0.0,0.0,0.0,0.0,-0.4060,-0.8871,-0.2932,0.6357,-0.7363,0.1671,0.1605
475,0.0,0.0,0.0,0.0,0.0,0.0,-0.3841,-0.8847,-0.3030,0.6336,-0.7384,0.1647,0.1621
476,0.0,0.0,0.0,0.0,0.0,0.0,-0.3622,-0.8556,-0.2953,0.6312,-0.7409,0.1620,0.1628
477,0.0,0.0,0.0,0.0,0.0,0.0,-0.3382,-0.8794,-0.3032,0.6293,-0.7432,0.1587,0.1627
478,0.0,0.0,0.0,0.0,0.0,0.0,-0.3699,-0.9066,-0.2908,0.6284,-0.7446,0.1561,0.1626
479,0.0,0.0,0.0,0.0,0.0,0.0,-0.3929,-0.9213,-0.2667,0.6284,-0.7449,0.1544,0.1622
480,0.0,0.0,0.0,0.0,0.0,0.0,-0.3904,-0.8989,-0.2765,0.6289,-0.7448,0.1537,0.1616
481,0.0,0.0,0.0,0.0,0.0,0.0,-0.3797,-0.8969,-0.2823,0.6300,-0.7441,0.1538,0.1605
482,0.0,0.0,0.0,0.0,0.0,0.0,-0.3729,-0.8750,-0.2932,0.6309,-0.7436,0.1541,0.1591
483,0.0,0.0,0.0,0.0,0.0,0.0,-0.4007,-0.8809,-0.2815,0.6307,-0.7439,0.1547,0.1579
484,0.0,0.0,0.0,0.0,0.0,0.0,-0.3841,-0.8892,-0.2817,0.6307,-0.7441,0.1545,0.1570
485,0.0,0.0,0.0,0.0,0.0,0.0,-0.3719,-0.8716,-0.2922,0.6311,-0.7441,0.1543,0.1557
486,0.0,0.0,0.0,0.0,0.0,0.0,-0.3748,-0.8789,-0.2874,0.6314,-0.7443,0.1539,0.1540
487,0.0,0.0,0.0,0.0,0.0,0.0,-0.3943,-0.9008,-0.2755,0.6317,-0.7444,0.1534,0.1525
488,0.0,0.0,0.0,0.0,0.0,0.0,-0.4119,-0.9038,-0.2648,0.6324,-0.7442,0.1533,0.1511
489,0.0,0.0,0.0,0.0,0.0,0.0,-0.3997,-0.9004,-0.2711,0.6329,-0.7440,0.1527,0.1502
490,0.0,0.0,0.0,0.0,0.0,0.0,-0.3973,-0.9126,-0.2621,0.6332,-0.7439,0.1524,0.1496
491,0.0,0.0,0.0,0.0,0.0,0.0,-0.3797,-0.8902,-0.2701,0.6328,-0.7446,0.1517,0.1490
492,0.0,0.0,0.0,0.0,0.0,0.0,-0.3749,-0.8918,-0.2565,0.6318,-0.7458,0.1505,0.1480
493,0.0,0.0,0.0,0.0,0.0,0.0,-0.3929,-0.9194,-0.2530,0.6313,-0.7465,0.1506,0.1466
494,0.0,0.0,0.0,0.0,0.0,0.0,-0.4134,-0.9014,-0.2642,0.6308,-0.7468,0.1519,0.1459
495,0.0,0.0,0.0,0.0,0.0,0.0,-0.3915,-0.8810,-0.2596,0.6311,-0.7464,0.1523,0.1463
496,0.0,0.0,0.0,0.0,0.0,0.0,-0.3792,-0.9228,-0.2595,0.6319,-0.7456,0.1526,0.1466
497,0.0,0.0,0.0,0.0,0.0,0.0,-0.3895,-0.8819,-0.2694,0.6323,-0.7451,0.1532,0.1465
498,0.0,0.0,0.0,0.0,0.0,0.0,-0.3748,-0.8921,-0.2726,0.6325,-0.7449,0.1538,0.1467
499,0.0,0.0,0.0,0.0,0.0,0.0,-0.3675,-0.9000,-0.2664,0.6327,-0.7444,0.1537,0.1477
500,0.0,0.0,0.0,0.0,0.0,0.0,-0.3910,-0.8975,-0.2589,0.6338,-0.7432,0.1544,0.1486
501,0.0,0.0,0.0,0.0,0.0,0.0,-0.3831,-0.9063,-0.2630,0.6357,-0.7414,0.1550,0.1490
502,0.0,0.0,0.0,0.0,0.0,0.0,-0.3829,-0.7946,-0.2577,0.6368,-0.7399,0.1571,0.1492
503,0.0,0.0,0.0,0.0,0.0,0.0,-0.3700,-0.8893,-0.2696,0.6379,-0.7389,0.1577,0.1493
504,0.0,0.0,0.0,0.0,0.0,0.0,-0.3597,-0.8888,-0.2668,0.6393,-0.7377,0.1577,0.1493
505,0.0,0.0,0.0,0.0,0.0,0.0,-0.3656,-0.9004,-0.2698,0.6405,-0.7368,0.1572,0.1489
506,0.0,0.0,0.0,0.0,0.0,0.0,-0.3744,-0.8990,-0.2596,0.6414,-0.7362,0.1570,0.1484
507,0.0,0.0,0.0,0.0,0.0,0.0,-0.3763,-0.9024,-0.2577,0.6423,-0.7354,0.1576,0.1478
508,0.0,0.0,0.0,0.0,0.0,0.0,-0.3895,-0.9215,-0.2370,0.6438,-0.7340,0.1585,0.1468
509,0.0,0.0,0.0,0.0,0.0,0.0,-0.3641,-0.9112,-0.2540,0.6453,-0.7328,0.1592,0.1458
510,0.0,0.0,0.0,0.0,0.0,0.0,-0.3568,-0.8810,-0.2700,0.6457,-0.7324,0.1605,0.1446
511,0.0,0.0,0.0,0.0,0.0,0.0,-0.3729,-0.8820,-0.2646,0.6447,-0.7331,0.1628,0.1432
512,0.0,0.0,0.0,0.0,0.0,0.0,-0.3632,-0.8766,-0.2694,0.6428,-0.7345,0.1654,0.1411
513,0.0,0.0,0.0,0.0,0.0,0.0,-0.3694,-0.8999,-0.2839,0.6391,-0.7377,0.1688,0.1376
514,0.0,0.0,0.0,0.0,0.0,0.0,-0.3847,-0.8997,-0.2284,0.6362,-0.7401,0.1716,0.1346
515,0.0,0.0,0.0,0.0,0.0,0.0,-0.3484,-0.9154,-0.2858,0.6348,-0.7411,0.1734,0.1328
516,0.0,0.0,0.0,0.0,0.0,0.0,-0.3670,-0.8954,-0.2902,0.6337,-0.7420,0.1755,0.1310
517,0.0,0.0,0.0,0.0,0.0,0.0,-0.3382,-0.8799,-0.3071,0.6324,-0.7430,0.1757,0.1310
518,0.0,0.0,0.0,0.0,0.0,0.0,-0.3450,-0.8929,-0.3126,0.6317,-0.7437,0.1750,0.1314
519,0.0,0.0,0.0,0.0,0.0,0.0,-0.3767,-0.9061,-0.2952,0.6319,-0.7434,0.1750,0.1318
520,0.0,0.0,0.0,0.0,0.0,0.0,-0.3967,-0.9056,-0.2926,0.6327,-0.7424,0.1759,0.1327
521,0.0,0.0,0.0,0.0,0.0,0.0,-0.4090,-0.9066,-0.2838,0.6342,-0.7404,0.1784,0.1332
522,0.0,0.0,0.0,0.0,0.0,0.0,-0.4045,-0.9046,-0.2974,0.6356,-0.7383,0.1816,0.1340
523,0.0,0.0,0.0,0.0,0.0,0.0,-0.3694,-0.8964,-0.2882,0.6375,-0.7359,0.1833,0.1363
524,0.0,0.0,0.0,0.0,0.0,0.0,-0.3973,-0.9018,-0.2789,0.6387,-0.7339,0.1846,0.1394
525,0.0,0.0,0.0,0.0,0.0,0.0,-0.3909,-0.8618,-0.3118,0.6382,-0.7334,0.1863,0.1420
526,0.0,0.0,0.0,0.0,0.0,0.0,-0.3841,-0.8701,-0.2974,0.6380,-0.7325,0.1880,0.1451
527,0.0,0.0,0.0,0.0,0.0,0.0,-0.4252,-0.8951,-0.2529,0.6377,-0.7317,0.1907,0.1467
528,0.0,0.0,0.0,0.0,0.0,0.0,-0.3881,-0.8815,-0.2674,0.6380,-0.7310,0.1917,0.1478
529,0.0,0.0,0.0,0.0,0.0,0.0,-0.3187,-0.8678,-0.3041,0.6385,-0.7306,0.1915,0.1479
530,0.0,0.0,0.0,0.0,0.0,0.0,-0.3617,-0.8558,-0.2705,0.6398,-0.7296,0.1919,0.1463
531,0.0,0.0,0.0,0.0,0.0,0.0,-0.3710,-0.8800,-0.2724,0.6413,-0.7286,0.1921,0.1449
532,0.0,0.0,0.0,0.0,0.0,0.0,-0.4046,-0.8990,-0.2570,0.6420,-0.7284,0.1921,0.1427
533,0.0,0.0,0.0,0.0,0.0,0.0,-0.4018,-0.8884,-0.2437,0.6443,-0.7269,0.1911,0.1414
534,0.0,0.0,0.0,0.0,0.0,0.0,-0.3905,-0.8752,-0.2566,0.6464,-0.7256,0.1895,0.1408
535,0.0,0.0,0.0,0.0,0.0,0.0,-0.4247,-0.8953,-0.2193,0.6487,-0.7239,0.1883,0.1402
536,0.0,0.0,0.0,0.0,0.0,0.0,-0.4242,-0.9094,-0.2196,0.6508,-0.7224,0.1871,0.1403
537,0.0,0.0,0.0,0.0,0.0,0.0,-0.3959,-0.8879,-0.2412,0.6524,-0.7214,0.1858,0.1398
538,0.0,0.0,0.0,0.0,0.0,0.0,-0.3969,-0.8875,-0.2359,0.6536,-0.7208,0.1845,0.1386
539,0.0,0.0,0.0,0.0,0.0,0.0,-0.4169,-0.8841,-0.2274,0.6543,-0.7206,0.1837,0.1374
540,0.0,0.0,0.0,0.0,0.0,0.0,-0.3930,-0.8861,-0.2271,0.6547,-0.7210,0.1821,0.1358
541,0.0,0.0,0.0,0.0,0.0,0.0,-0.3808,-0.8710,-0.2318,0.6536,-0.7228,0.1802,0.1341
542,0.0,0.0,0.0,0.0,0.0,0.0,-0.3818,-0.8994,-0.2036,0.6527,-0.7243,0.1788,0.1317
543,0.0,0.0,0.0,0.0,0.0,0.0,-0.4095,-0.9244,-0.2321,0.6523,-0.7253,0.1773,0.1304
544,0.0,0.0,0.0,0.0,0.0,0.0,-0.4496,-0.9236,-0.1934,0.6518,-0.7258,0.1778,0.1293
545,0.0,0.0,0.0,0.0,0.0,0.0,-0.4208,-0.9113,-0.2192,0.6519,-0.7253,0.1793,0.1295
546,0.0,0.0,0.0,0.0,0.0,0.0,-0.4286,-0.9541,-0.2087,0.6537,-0.7234,0.1798,0.1307
547,0.0,0.0,0.0,0.0,0.0,0.0,-0.4330,-0.9263,-0.2232,0.6564,-0.7204,0.1797,0.1334
548,0.0,0.0,0.0,0.0,0.0,0.0,-0.4115,-0.8816,-0.2391,0.6592,-0.7173,0.1800,0.1363
549,0.0,0.0,0.0,0.0,0.0,0.0,-0.4047,-0.8792,-0.2347,0.6609,-0.7151,0.1802,0.1394
550,0.0,0.0,0.0,0.0,0.0,0.0,-0.4126,-0.9007,-0.2064,0.6622,-0.7133,0.1796,0.1429
551,0.0,0.0,0.0,0.0,0.0,0.0,-0.3681,-0.9038,-0.2023,0.6646,-0.7110,0.1771,0.1463
552,0.0,0.0,0.0,0.0,0.0,0.0,-0.3412,-0.8987,-0.2471,0.6658,-0.7099,0.1741,0.1497
553,0.0,0.0,0.0,0.0,0.0,0.0,-0.3399,-0.8148,-0.2320,0.6642,-0.7114,0.1711,0.1530
554,0.0,0.0,0.0,0.0,0.0,0.0,-0.2915,-0.8424,-0.2512,0.6619,-0.7141,0.1674,0.1545
555,0.0,0.0,0.0,0.0,0.0,0.0,-0.3213,-0.8663,-0.2340,0.6590,-0.7173,0.1656,0.1542
556,0.0,0.0,0.0,0.0,0.0,0.0,-0.3101,-0.8918,-0.1956,0.6564,-0.7207,0.1634,0.1517
557,0.0,0.0,0.0,0.0,0.0,0.0,-0.3324,-0.9459,-0.2280,0.6538,-0.7244,0.1610,0.1477
558,0.0,0.0,0.0,0.0,0.0,0.0,-0.4179,-0.8392,-0.2621,0.6493,-0.7288,0.1620,0.1451
559,0.0,0.0,0.0,0.0,0.0,0.0,-0.3373,-0.8744,-0.2418,0.6476,-0.7312,0.1595,0.1432
560,0.0,0.0,0.0,0.0,0.0,0.0,-0.3816,-0.9266,-0.2692,0.6468,-0.7326,0.1572,0.1422
561,0.0,0.0,0.0,0.0,0.0,0.0,-0.3910,-0.8883,-0.2661,0.6456,-0.7340,0.1556,0.1422
562,0.0,0.0,0.0,0.0,0.0,0.0,-0.3558,-0.8830,-0.2725,0.6449,-0.7350,0.1537,0.1424
563,0.0,0.0,0.0,0.0,0.0,0.0,-0.3768,-0.9224,-0.2424,0.6457,-0.7346,0.1521,0.1424
564,0.0,0.0,0.0,0.0,0.0,0.0,-0.3875,-0.9550,-0.2381,0.6466,-0.7342,0.1502,0.1425
565,0.0,0.0,0.0,0.0,0.0,0.0,-0.3612,-0.8899,-0.2536,0.6459,-0.7350,0.1494,0.1423
566,0.0,0.0,0.0,0.0,0.0,0.0,-0.3304,-0.9010,-0.2647,0.6449,-0.7362,0.1484,0.1421
567,0.0,0.0,0.0,0.0,0.0,0.0,-0.3304,-0.9083,-0.2658,0.6431,-0.7380,0.1471,0.1419
568,0.0,0.0,0.0,0.0,0.0,0.0,-0.3338,-0.9049,-0.2623,0.6413,-0.7399,0.1464,0.1409
569,0.0,0.0,0.0,0.0,0.0,0.0,-0.3392,-0.9141,-0.2683,0.6394,-0.7418,0.1462,0.1396
570,0.0,0.0,0.0,0.0,0.0,0.0,-0.3235,-0.9034,-0.2779,0.6363,-0.7450,0.1449,0.1380
571,0.0,0.0,0.0,0.0,0.0,0.0,-0.3065,-0.9000,-0.2804,0.6331,-0.7485,0.1415,0.1378
572,0.0,0.0,0.0,0.0,0.0,0.0,-0.3591,-0.9452,-0.2619,0.6314,-0.7505,0.1399,0.1363
573,0.0,0.0,0.0,0.0,0.0,0.0,-0.4046,-0.9486,-0.2452,0.6308,-0.7512,0.1401,0.1345
574,0.0,0.0,0.0,0.0,0.0,0.0,-0.3577,-0.9291,-0.2680,0.6316,-0.7508,0.1394,0.1342
575,0.0,0.0,0.0,0.0,0.0,0.0,-0.3684,-0.9461,-0.2575,0.6329,-0.7498,0.1393,0.1334
576,0.0,0.0,0.0,0.0,0.0,0.0,-0.3787,-0.9452,-0.2531,0.6348,-0.7482,0.1400,0.1327
577,0.0,0.0,0.0,0.0,0.0,0.0,-0.3577,-0.9339,-0.2700,0.6366,-0.7466,0.1406,0.1323
578,0.0,0.0,0.0,0.0,0.0,0.0,-0.3528,-0.9223,-0.2650,0.6385,-0.7449,0.1417,0.1314
579,0.0,0.0,0.0,0.0,0.0,0.0,-0.3645,-0.9330,-0.2592,0.6404,-0.7432,0.1437,0.1299
580,0.0,0.0,0.0,0.0,0.0,0.0,-0.3568,-0.9200,-0.2547,0.6429,-0.7409,0.1460,0.1284
581,0.0,0.0,0.0,0.0,0.0,0.0,-0.3255,-0.8981,-0.2734,0.6445,-0.7394,0.1475,0.1273
582,0.0,0.0,0.0,0.0,0.0,0.0,-0.3431,-0.8937,-0.2616,0.6451,-0.7387,0.1494,0.1260
583,0.0,0.0,0.0,0.0,0.0,0.0,-0.3402,-0.9020,-0.2549,0.6458,-0.7379,0.1511,0.1253
584,0.0,0.0,0.0,0.0,0.0,0.0,-0.3255,-0.8932,-0.2675,0.6459,-0.7377,0.1517,0.1248
585,0.0,0.0,0.0,0.0,0.0,0.0,-0.3260,-0.8874,-0.2708,0.6457,-0.7379,0.1521,0.1242
586,0.0,0.0,0.0,0.0,0.0,0.0,-0.3587,-0.9263,-0.2470,0.6465,-0.7372,0.1532,0.1231
587,0.0,0.0,0.0,0.0,0.0,0.0,-0.3524,-0.9180,-0.2566,0.6473,-0.7364,0.1543,0.1223
588,0.0,0.0,0.0,0.0,0.0,0.0,-0.3245,-0.9059,-0.2643,0.6476,-0.7361,0.1547,0.1217
589,0.0,0.0,0.0,0.0,0.0,0.0,-0.3460,-0.9239,-0.2509,0.6481,-0.7357,0.1554,0.1211
590,0.0,0.0,0.0,0.0,0.0,0.0,-0.3407,-0.9132,-0.2551,0.6480,-0.7356,0.1562,0.1208
591,0.0,0.0,0.0,0.0,0.0,0.0,-0.3343,-0.9151,-0.2664,0.6474,-0.7360,0.1576,0.1202
592,0.0,0.0,0.0,0.0,0.0,0.0,-0.3411,-0.9068,-0.2745,0.6454,-0.7374,0.1595,0.1194
593,0.0,0.0,0.0,0.0,0.0,0.0,-0.3353,-0.8849,-0.2853,0.6417,-0.7404,0.1614,0.1185
594,0.0,0.0,0.0,0.0,0.0,0.0,-0.3280,-0.8975,-0.2778,0.6382,-0.7433,0.1628,0.1173
595,0.0,0.0,0.0,0.0,0.0,0.0,-0.3460,-0.9305,-0.2744,0.6360,-0.7450,0.1641,0.1162
596,0.0,0.0,0.0,0.0,0.0,0.0,-0.3709,-0.9315,-0.2694,0.6355,-0.7450,0.1665,0.1160
597,0.0,0.0,0.0,0.0,0.0,0.0,-0.3635,-0.9368,-0.2734,0.6360,-0.7439,0.1692,0.1164
598,0.0,0.0,0.0,0.0,0.0,0.0,-0.3884,-0.9324,-0.2683,0.6375,-0.7416,0.1732,0.1167
599,0.0,0.0,0.0,0.0,0.0,0.0,-0.3855,-0.9154,-0.2710,0.6397,-0.7386,0.1781,0.1168
600,0.0,0.0,0.0,0.0,0.0,0.0,-0.3607,-0.9058,-0.2704,0.6425,-0.7350,0.1827,0.1169
601,0.0,0.0,0.0,0.0,0.0,0.0,-0.3626,-0.8843,-0.2827,0.6455,-0.7312,0.1862,0.1184
602,0.0,0.0,0.0,0.0,0.0,0.0,-0.3900,-0.9005,-0.2469,0.6492,-0.7268,0.1892,0.1206
603,0.0,0.0,0.0,0.0,0.0,0.0,-0.3675,-0.9277,-0.2572,0.6515,-0.7240,0.1894,0.1247
604,0.0,0.0,0.0,0.0,0.0,0.0,-0.3773,-0.8956,-0.2663,0.6526,-0.7222,0.1895,0.1289
605,0.0,0.0,0.0,0.0,0.0,0.0,-0.3661,-0.8704,-0.2620,0.6532,-0.7210,0.1906,0.1310
606,0.0,0.0,0.0,0.0,0.0,0.0,-0.2998,-0.8691,-0.2492,0.6541,-0.7203,0.1895,0.1323
607,0.0,0.0,0.0,0.0,0.0,0.0,-0.3085,-0.8659,-0.2934,0.6541,-0.7204,0.1885,0.1327
608,0.0,0.0,0.0,0.0,0.0,0.0,-0.3891,-0.8548,-0.2645,0.6537,-0.7207,0.1889,0.1330
609,0.0,0.0,0.0,0.0,0.0,0.0,-0.3500,-0.8641,-0.2635,0.6529,-0.7216,0.1881,0.1328
610,0.0,0.0,0.0,0.0,0.0,0.0,-0.3221,-0.8884,-0.2704,0.6525,-0.7227,0.1862,0.1313
611,0.0,0.0,0.0,0.0,0.0,0.0,-0.3997,-0.9190,-0.2418,0.6536,-0.7221,0.1850,0.1310
612,0.0,0.0,0.0,0.0,0.0,0.0,-0.4173,-0.9049,-0.2434,0.6543,-0.7216,0.1838,0.1317
613,0.0,0.0,0.0,0.0,0.0,0.0,-0.3666,-0.8927,-0.2566,0.6546,-0.7217,0.1827,0.1316
614,0.0,0.0,0.0,0.0,0.0,0.0,-0.3812,-0.8932,-0.2531,0.6548,-0.7216,0.1824,0.1315
615,0.0,0.0,0.0,0.0,0.0,0.0,-0.3754,-0.8825,-0.2661,0.6541,-0.7223,0.1818,0.1318
616,0.0,0.0,0.0,0.0,0.0,0.0,-0.3500,-0.8674,-0.2737,0.6523,-0.7243,0.1802,0.1321
617,0.0,0.0,0.0,0.0,0.0,0.0,-0.3466,-0.8542,-0.2871,0.6496,-0.7273,0.1780,0.1320
618,0.0,0.0,0.0,0.0,0.0,0.0,-0.3427,-0.8494,-0.2890,0.6457,-0.7315,0.1754,0.1314
619,0.0,0.0,0.0,0.0,0.0,0.0,-0.3456,-0.8689,-0.2723,0.6411,-0.7363,0.1725,0.1308
620,0.0,0.0,0.0,0.0,0.0,0.0,-0.3743,-0.8946,-0.2736,0.6367,-0.7409,0.1690,0.1309
621,0.0,0.0,0.0,0.0,0.0,0.0,-0.4046,-0.8910,-0.2947,0.6321,-0.7453,0.1658,0.1318
622,0.0,0.0,0.0,0.0,0.0,0.0,-0.4461,-0.9018,-0.2553,0.6287,-0.7482,0.1651,0.1329
623,0.0,0.0,0.0,0.0,0.0,0.0,-0.3865,-0.8977,-0.3052,0.6266,-0.7500,0.1628,0.1357
624,0.0,0.0,0.0,0.0,0.0,0.0,-0.4031,-0.8789,-0.2916,0.6255,-0.7508,0.1600,0.1393
625,0.0,0.0,0.0,0.0,0.0,0.0,-0.4173,-0.9193,-0.2689,0.6253,-0.7509,0.1574,0.1427
626,0.0,0.0,0.0,0.0,0.0,0.0,-0.4006,-0.9290,-0.2701,0.6259,-0.7503,0.1541,0.1465
627,0.0,0.0,0.0,0.0,0.0,0.0,-0.3918,-0.9202,-0.2841,0.6262,-0.7497,0.1536,0.1493
628,0.0,0.0,0.0,0.0,0.0,0.0,-0.3743,-0.9140,-0.2652,0.6266,-0.7489,0.1534,0.1518
629,0.0,0.0,0.0,0.0,0.0,0.0,-0.3206,-0.9072,-0.2921,0.6263,-0.7491,0.1511,0.1538
630,0.0,0.0,0.0,0.0,0.0,0.0,-0.3084,-0.8556,-0.3136,0.6250,-0.7506,0.1484,0.1544
631,0.0,0.0,0.0,0.0,0.0,0.0,-0.3636,-0.8575,-0.3007,0.6224,-0.7533,0.1474,0.1534
632,0.0,0.0,0.0,0.0,0.0,0.0,-0.3690,-0.8750,-0.2951,0.6194,-0.7562,0.1460,0.1523
633,0.0,0.0,0.0,0.0,0.0,0.0,-0.3841,-0.8661,-0.3187,0.6157,-0.7594,0.1451,0.1520
634,0.0,0.0,0.0,0.0,0.0,0.0,-0.3768,-0.8736,-0.2849,0.6126,-0.7624,0.1427,0.1520
635,0.0,0.0,0.0,0.0,0.0,0.0,-0.3488,-0.9206,-0.3043,0.6122,-0.7635,0.1392,0.1516
636,0.0,0.0,0.0,0.0,0.0,0.0,-0.4016,-0.9036,-0.2916,0.6123,-0.7638,0.1382,0.1506
637,0.0,0.0,0.0,0.0,0.0,0.0,-0.3631,-0.8900,-0.3052,0.6127,-0.7639,0.1365,0.1498
638,0.0,0.0,0.0,0.0,0.0,0.0,-0.3406,-0.8914,-0.3204,0.6130,-0.7643,0.1345,0.1485
639,0.0,0.0,0.0,0.0,0.0,0.0,-0.3611,-0.8871,-0.3124,0.6135,-0.7642,0.1334,0.1475
640,0.0,0.0,0.0,0.0,0.0,0.0,-0.3494,-0.8827,-0.3134,0.6143,-0.7639,0.1325,0.1467
641,0.0,0.0,0.0,0.0,0.0,0.0,-0.3411,-0.8778,-0.3221,0.6145,-0.7640,0.1313,0.1463
642,0.0,0.0,0.0,0.0,0.0,0.0,-0.3416,-0.8783,-0.3172,0.6148,-0.7640,0.1301,0.1460
643,0.0,0.0,0.0,0.0,0.0,0.0,-0.3416,-0.8745,-0.3157,0.6153,-0.7640,0.1288,0.1456
644,0.0,0.0,0.0,0.0,0.0,0.0,-0.3445,-0.8808,-0.3105,0.6161,-0.7636,0.1277,0.1451
645,0.0,0.0,0.0,0.0,0.0,0.0,-0.3435,-0.8895,-0.3087,0.6171,-0.7631,0.1265,0.1446
646,0.0,0.0,0.0,0.0,0.0,0.0,-0.3557,-0.8929,-0.3121,0.6171,-0.7632,0.1258,0.1444
647,0.0,0.0,0.0,0.0,0.0,0.0,-0.3533,-0.9075,-0.3050,0.6170,-0.7634,0.1251,0.1444
648,0.0,0.0,0.0,0.0,0.0,0.0,-0.3308,-0.9255,-0.3099,0.6175,-0.7631,0.1239,0.1447
649,0.0,0.0,0.0,0.0,0.0,0.0,-0.3474,-0.9396,-0.2998,0.6183,-0.7625,0.1229,0.1452
650,0.0,0.0,0.0,0.0,0.0,0.0,-0.3420,-0.9391,-0.3003,0.6193,-0.7617,0.1223,0.1458
651,0.0,0.0,0.0,0.0,0.0,0.0,-0.3190,-0.9342,-0.3164,0.6202,-0.7610,0.1215,0.1465
652,0.0,0.0,0.0,0.0,0.0,0.0,-0.3000,-0.9201,-0.3202,0.6204,-0.7609,0.1205,0.1470
653,0.0,0.0,0.0,0.0,0.0,0.0,-0.2922,-0.9045,-0.3374,0.6197,-0.7615,0.1200,0.1469
654,0.0,0.0,0.0,0.0,0.0,0.0,-0.2966,-0.9020,-0.3422,0.6188,-0.7624,0.1201,0.1460
655,0.0,0.0,0.0,0.0,0.0,0.0,-0.3176,-0.9128,-0.3248,0.6183,-0.7630,0.1207,0.1447
656,0.0,0.0,0.0,0.0,0.0,0.0,-0.3239,-0.9186,-0.3322,0.6178,-0.7635,0.1209,0.1438
657,0.0,0.0,0.0,0.0,0.0,0.0,-0.3273,-0.8943,-0.3351,0.6176,-0.7637,0.1217,0.1429
658,0.0,0.0,0.0,0.0,0.0,0.0,-0.3259,-0.9016,-0.3318,0.6179,-0.7634,0.1230,0.1420
659,0.0,0.0,0.0,0.0,0.0,0.0,-0.3185,-0.8986,-0.3450,0.6179,-0.7634,0.1241,0.1412
660,0.0,0.0,0.0,0.0,0.0,0.0,-0.3215,-0.8782,-0.3431,0.6179,-0.7633,0.1253,0.1406
661,0.0,0.0,0.0,0.0,0.0,0.0,-0.3230,-0.8884,-0.3428,0.6179,-0.7633,0.1263,0.1403
662,0.0,0.0,0.0,0.0,0.0,0.0,-0.3361,-0.8923,-0.3389,0.6178,-0.7632,0.1272,0.1400
663,0.0,0.0,0.0,0.0,0.0,0.0,-0.3308,-0.8899,-0.3370,0.6181,-0.7629,0.1277,0.1400
664,0.0,0.0,0.0,0.0,0.0,0.0,-0.3332,-0.9035,-0.3343,0.6183,-0.7627,0.1282,0.1398
665,0.0,0.0,0.0,0.0,0.0,0.0,-0.3449,-0.9001,-0.3332,0.6188,-0.7622,0.1293,0.1393
666,0.0,0.0,0.0,0.0,0.0,0.0,-0.3581,-0.9049,-0.3303,0.6196,-0.7614,0.1312,0.1381
667,0.0,0.0,0.0,0.0,0.0,0.0,-0.3288,-0.8802,-0.3324,0.6192,-0.7617,0.1330,0.1371
668,0.0,0.0,0.0,0.0,0.0,0.0,-0.3108,-0.8767,-0.3495,0.6188,-0.7619,0.1352,0.1353
669,0.0,0.0,0.0,0.0,0.0,0.0,-0.3634,-0.9268,-0.3243,0.6172,-0.7633,0.1381,0.1320
670,0.0,0.0,0.0,0.0,0.0,0.0,-0.3703,-0.9356,-0.3191,0.6143,-0.7657,0.1415,0.1276
671,0.0,0.0,0.0,0.0,0.0,0.0,-0.3327,-0.9289,-0.3148,0.6127,-0.7670,0.1448,0.1241
672,0.0,0.0,0.0,0.0,0.0,0.0,-0.3390,-0.9604,-0.3172,0.6138,-0.7659,0.1483,0.1215
673,0.0,0.0,0.0,0.0,0.0,0.0,-0.3487,-0.9543,-0.3536,0.6155,-0.7641,0.1519,0.1195
674,0.0,0.0,0.0,0.0,0.0,0.0,-0.3585,-0.9112,-0.3435,0.6177,-0.7616,0.1563,0.1186
675,0.0,0.0,0.0,0.0,0.0,0.0,-0.3664,-0.9244,-0.3179,0.6207,-0.7582,0.1613,0.1177
676,0.0,0.0,0.0,0.0,0.0,0.0,-0.3449,-0.9011,-0.3298,0.6228,-0.7555,0.1662,0.1173
677,0.0,0.0,0.0,0.0,0.0,0.0,-0.3255,-0.8506,-0.3387,0.6245,-0.7532,0.1705,0.1168
678,0.0,0.0,0.0,0.0,0.0,0.0,-0.3499,-0.8807,-0.3192,0.6261,-0.7509,0.1746,0.1168
679,0.0,0.0,0.0,0.0,0.0,0.0,-0.3655,-0.8870,-0.3153,0.6277,-0.7487,0.1787,0.1166
680,0.0,0.0,0.0,0.0,0.0,0.0,-0.3587,-0.8710,-0.3180,0.6290,-0.7467,0.1825,0.1162
681,0.0,0.0,0.0,0.0,0.0,0.0,-0.3446,-0.8516,-0.3172,0.6302,-0.7449,0.1859,0.1159
682,0.0,0.0,0.0,0.0,0.0,0.0,-0.3504,-0.8687,-0.3068,0.6315,-0.7431,0.1890,0.1155
683,0.0,0.0,0.0,0.0,0.0,0.0,-0.3553,-0.8720,-0.3093,0.6322,-0.7420,0.1914,0.1147
684,0.0,0.0,0.0,0.0,0.0,0.0,-0.3514,-0.8697,-0.3054,0.6330,-0.7409,0.1932,0.1140
685,0.0,0.0,0.0,0.0,0.0,0.0,-0.3494,-0.8730,-0.3069,0.6339,-0.7397,0.1951,0.1136
686,0.0,0.0,0.0,0.0,0.0,0.0,-0.3494,-0.8731,-0.3020,0.6350,-0.7385,0.1963,0.1133
687,0.0,0.0,0.0,0.0,0.0,0.0,-0.3489,-0.8784,-0.3055,0.6360,-0.7373,0.1977,0.1129
688,0.0,0.0,0.0,0.0,0.0,0.0,-0.3592,-0.8901,-0.2867,0.6373,-0.7358,0.1998,0.1119
689,0.0,0.0,0.0,0.0,0.0,0.0,-0.3509,-0.8960,-0.2844,0.6393,-0.7338,0.2015,0.1108
690,0.0,0.0,0.0,0.0,0.0,0.0,-0.3680,-0.9033,-0.2743,0.6429,-0.7300,0.2040,0.1098
691,0.0,0.0,0.0,0.0,0.0,0.0,-0.3982,-0.9168,-0.2772,0.6469,-0.7254,0.2084,0.1091
692,0.0,0.0,0.0,0.0,0.0,0.0,-0.3675,-0.8682,-0.3038,0.6500,-0.7217,0.2112,0.1099
693,0.0,0.0,0.0,0.0,0.0,0.0,-0.3734,-0.8756,-0.2796,0.6537,-0.7176,0.2125,0.1120
694,0.0,0.0,0.0,0.0,0.0,0.0,-0.4324,-0.8997,-0.2874,0.6545,-0.7159,0.2141,0.1152
695,0.0,0.0,0.0,0.0,0.0,0.0,-0.3870,-0.8837,-0.3064,0.6543,-0.7155,0.2150,0.1171
696,0.0,0.0,0.0,0.0,0.0,0.0,-0.3384,-0.8492,-0.2380,0.6551,-0.7149,0.2141,0.1178
697,0.0,0.0,0.0,0.0,0.0,0.0,-0.3255,-0.9014,-0.2793,0.6547,-0.7157,0.2127,0.1180
698,0.0,0.0,0.0,0.0,0.0,0.0,-0.3627,-0.8810,-0.2647,0.6545,-0.7163,0.2121,0.1168
699,0.0,0.0,0.0,0.0,0.0,0.0,-0.3755,-0.8545,-0.2301,0.6551,-0.7160,0.2119,0.1151
700,0.0,0.0,0.0,0.0,0.0,0.0,-0.3323,-0.9136,-0.2673,0.6547,-0.7173,0.2102,0.1126
701,0.0,0.0,0.0,0.0,0.0,0.0,-0.3930,-0.9167,-0.2213,0.6558,-0.7172,0.2083,0.1102
702,0.0,0.0,0.0,0.0,0.0,0.0,-0.3822,-0.9177,-0.2248,0.6582,-0.7160,0.2058,0.1085
703,0.0,0.0,0.0,0.0,0.0,0.0,-0.3587,-0.9244,-0.2411,0.6600,-0.7153,0.2034,0.1070
704,0.0,0.0,0.0,0.0,0.0,0.0,-0.3685,-0.9400,-0.2238,0.6627,-0.7137,0.2012,0.1051
705,0.0,0.0,0.0,0.0,0.0,0.0,-0.3568,-0.8987,-0.2426,0.6647,-0.7128,0.1991,0.1024
706,0.0,0.0,0.0,0.0,0.0,0.0,-0.3603,-0.9031,-0.2305,0.6663,-0.7121,0.1975,0.0995
707,0.0,0.0,0.0,0.0,0.0,0.0,-0.3354,-0.8992,-0.2403,0.6672,-0.7125,0.1946,0.0969
708,0.0,0.0,0.0,0.0,0.0,0.0,-0.3227,-0.8677,-0.2423,0.6670,-0.7139,0.1915,0.0940
709,0.0,0.0,0.0,0.0,0.0,0.0,-0.3169,-0.8760,-0.2254,0.6650,-0.7170,0.1884,0.0902
710,0.0,0.0,0.0,0.0,0.0,0.0,-0.3388,-0.9296,-0.1976,0.6634,-0.7199,0.1850,0.0865
711,0.0,0.0,0.0,0.0,0.0,0.0,-0.3866,-0.9508,-0.2025,0.6618,-0.7225,0.1811,0.0847
712,0.0,0.0,0.0,0.0,0.0,0.0,-0.4067,-0.9173,-0.2018,0.6613,-0.7234,0.1799,0.0844
713,0.0,0.0,0.0,0.0,0.0,0.0,-0.3392,-0.9089,-0.2424,0.6620,-0.7231,0.1778,0.0853
714,0.0,0.0,0.0,0.0,0.0,0.0,-0.3520,-0.9310,-0.1961,0.6647,-0.7210,0.1762,0.0850
715,0.0,0.0,0.0,0.0,0.0,0.0,-0.3739,-0.9490,-0.1899,0.6676,-0.7188,0.1745,0.0850
716,0.0,0.0,0.0,0.0,0.0,0.0,-0.3651,-0.9456,-0.1943,0.6701,-0.7166,0.1738,0.0856
717,0.0,0.0,0.0,0.0,0.0,0.0,-0.3314,-0.9007,-0.2394,0.6703,-0.7160,0.1746,0.0868
718,0.0,0.0,0.0,0.0,0.0,0.0,-0.3027,-0.8805,-0.2134,0.6698,-0.7165,0.1743,0.0876
719,0.0,0.0,0.0,0.0,0.0,0.0,-0.2836,-0.9236,-0.2342,0.6680,-0.7185,0.1723,0.0886
720,0.0,0.0,0.0,0.0,0.0,0.0,-0.2748,-0.8838,-0.2404,0.6649,-0.7218,0.1706,0.0883
721,0.0,0.0,0.0,0.0,0.0,0.0,-0.2998,-0.8682,-0.2414,0.6602,-0.7265,0.1688,0.0887
722,0.0,0.0,0.0,0.0,0.0,0.0,-0.3183,-0.8793,-0.2449,0.6550,-0.7313,0.1677,0.0894
723,0.0,0.0,0.0,0.0,0.0,0.0,-0.3090,-0.8559,-0.2562,0.6496,-0.7363,0.1667,0.0901
724,0.0,0.0,0.0,0.0,0.0,0.0,-0.2806,-0.9392,-0.2345,0.6487,-0.7377,0.1637,0.0905
725,0.0,0.0,0.0,0.0,0.0,0.0,-0.3304,-0.9677,-0.2328,0.6482,-0.7386,0.1606,0.0919
726,0.0,0.0,0.0,0.0,0.0,0.0,-0.3402,-0.9620,-0.2151,0.6485,-0.7387,0.1586,0.0927
727,0.0,0.0,0.0,0.0,0.0,0.0,-0.3255,-0.9653,-0.2318,0.6504,-0.7371,0.1571,0.0948
728,0.0,0.0,0.0,0.0,0.0,0.0,-0.3264,-0.9233,-0.2729,0.6501,-0.7372,0.1559,0.0981
729,0.0,0.0,0.0,0.0,0.0,0.0,-0.2665,-0.8933,-0.2742,0.6486,-0.7386,0.1537,0.1005
730,0.0,0.0,0.0,0.0,0.0,0.0,-0.2586,-0.9230,-0.2689,0.6476,-0.7397,0.1517,0.1025
731,0.0,0.0,0.0,0.0,0.0,0.0,-0.2640,-0.9473,-0.2557,0.6470,-0.7405,0.1493,0.1035
732,0.0,0.0,0.0,0.0,0.0,0.0,-0.2572,-0.8991,-0.2816,0.6456,-0.7422,0.1462,0.1045
733,0.0,0.0,0.0,0.0,0.0,0.0,-0.2590,-0.9580,-0.2598,0.6457,-0.7428,0.1422,0.1056
734,0.0,0.0,0.0,0.0,0.0,0.0,-0.3122,-0.9456,-0.2787,0.6444,-0.7441,0.1402,0.1066
735,0.0,0.0,0.0,0.0,0.0,0.0,-0.2830,-0.9332,-0.2558,0.6436,-0.7452,0.1382,0.1067
736,0.0,0.0,0.0,0.0,0.0,0.0,-0.2497,-0.9695,-0.2824,0.6423,-0.7468,0.1347,0.1076
737,0.0,0.0,0.0,0.0,0.0,0.0,-0.3010,-0.9754,-0.2506,0.6419,-0.7474,0.1331,0.1085
738,0.0,0.0,0.0,0.0,0.0,0.0,-0.2986,-0.9783,-0.2570,0.6423,-0.7470,0.1324,0.1090
739,0.0,0.0,0.0,0.0,0.0,0.0,-0.2849,-0.9748,-0.2711,0.6433,-0.7461,0.1315,0.1099
740,0.0,0.0,0.0,0.0,0.0,0.0,-0.2761,-0.9394,-0.2812,0.6443,-0.7453,0.1313,0.1107
741,0.0,0.0,0.0,0.0,0.0,0.0,-0.2703,-0.9413,-0.2769,0.6447,-0.7448,0.1317,0.1107
742,0.0,0.0,0.0,0.0,0.0,0.0,-0.2673,-0.9355,-0.2778,0.6443,-0.7452,0.1317,0.1108
743,0.0,0.0,0.0,0.0,0.0,0.0,-0.2522,-0.9146,-0.2887,0.6438,-0.7456,0.1319,0.1103
744,0.0,0.0,0.0,0.0,0.0,0.0,-0.2571,-0.9151,-0.2906,0.6430,-0.7464,0.1322,0.1093
745,0.0,0.0,0.0,0.0,0.0,0.0,-0.2693,-0.9209,-0.2892,0.6416,-0.7476,0.1328,0.1085
746,0.0,0.0,0.0,0.0,0.0,0.0,-0.2737,-0.9204,-0.2853,0.6404,-0.7486,0.1334,0.1076
747,0.0,0.0,0.0,0.0,0.0,0.0,-0.2805,-0.9408,-0.2822,0.6396,-0.7494,0.1334,0.1071
748,0.0,0.0,0.0,0.0,0.0,0.0,-0.2878,-0.9296,-0.2854,0.6396,-0.7494,0.1337,0.1070
749,0.0,0.0,0.0,0.0,0.0,0.0,-0.2888,-0.9413,-0.2827,0.6406,-0.7485,0.1342,0.1070
750,0.0,0.0,0.0,0.0,0.0,0.0,-0.2868,-0.9344,-0.2918,0.6418,-0.7474,0.1344,0.1073
751,0.0,0.0,0.0,0.0,0.0,0.0,-0.2996,-0.9208,-0.2895,0.6436,-0.7457,0.1350,0.1075
752,0.0,0.0,0.0,0.0,0.0,0.0,-0.3122,-0.9300,-0.2935,0.6445,-0.7448,0.1353,0.1079
753,0.0,0.0,0.0,0.0,0.0,0.0,-0.3128,-0.9282,-0.2677,0.6451,-0.7441,0.1364,0.1075
754,0.0,0.0,0.0,0.0,0.0,0.0,-0.3054,-0.9326,-0.2698,0.6457,-0.7434,0.1378,0.1068
755,0.0,0.0,0.0,0.0,0.0,0.0,-0.2967,-0.8969,-0.3047,0.6449,-0.7439,0.1389,0.1065
756,0.0,0.0,0.0,0.0,0.0,0.0,-0.3050,-0.8877,-0.2972,0.6438,-0.7447,0.1410,0.1056
757,0.0,0.0,0.0,0.0,0.0,0.0,-0.3113,-0.9091,-0.2893,0.6413,-0.7465,0.1430,0.1048
758,0.0,0.0,0.0,0.0,0.0,0.0,-0.2845,-0.9078,-0.2777,0.6384,-0.7489,0.1444,0.1035
759,0.0,0.0,0.0,0.0,0.0,0.0,-0.2683,-0.9146,-0.2838,0.6368,-0.7503,0.1442,0.1031
760,0.0,0.0,0.0,0.0,0.0,0.0,-0.2859,-0.8955,-0.3042,0.6359,-0.7511,0.1443,0.1036
761,0.0,0.0,0.0,0.0,0.0,0.0,-0.3069,-0.9407,-0.2884,0.6355,-0.7513,0.1454,0.1029
762,0.0,0.0,0.0,0.0,0.0,0.0,-0.3152,-0.9461,-0.2855,0.6357,-0.7509,0.1469,0.1023
763,0.0,0.0,0.0,0.0,0.0,0.0,-0.3108,-0.9334,-0.2887,0.6365,-0.7500,0.1483,0.1020
764,0.0,0.0,0.0,0.0,0.0,0.0,-0.3298,-0.9509,-0.2816,0.6378,-0.7485,0.1506,0.1018
765,0.0,0.0,0.0,0.0,0.0,0.0,-0.3274,-0.9378,-0.2838,0.6394,-0.7466,0.1531,0.1016
766,0.0,0.0,0.0,0.0,0.0,0.0,-0.3191,-0.9291,-0.2784,0.6413,-0.7445,0.1554,0.1014
767,0.0,0.0,0.0,0.0,0.0,0.0,-0.3313,-0.9222,-0.2928,0.6431,-0.7423,0.1575,0.1025
768,0.0,0.0,0.0,0.0,0.0,0.0,-0.3138,-0.8950,-0.3007,0.6446,-0.7405,0.1598,0.1030
769,0.0,0.0,0.0,0.0,0.0,0.0,-0.2987,-0.8810,-0.2956,0.6452,-0.7394,0.1622,0.1037
770,0.0,0.0,0.0,0.0,0.0,0.0,-0.3035,-0.8941,-0.2861,0.6454,-0.7388,0.1634,0.1043
771,0.0,0.0,0.0,0.0,0.0,0.0,-0.3094,-0.8916,-0.2943,0.6452,-0.7387,0.1642,0.1049
772,0.0,0.0,0.0,0.0,0.0,0.0,-0.3085,-0.8854,-0.2762,0.6454,-0.7383,0.1653,0.1049
773,0.0,0.0,0.0,0.0,0.0,0.0,-0.3206,-0.9243,-0.2739,0.6459,-0.7378,0.1660,0.1049
774,0.0,0.0,0.0,0.0,0.0,0.0,-0.3118,-0.8922,-0.2826,0.6458,-0.7379,0.1653,0.1054
775,0.0,0.0,0.0,0.0,0.0,0.0,-0.2957,-0.8907,-0.2992,0.6455,-0.7383,0.1647,0.1060
776,0.0,0.0,0.0,0.0,0.0,0.0,-0.3103,-0.9028,-0.2950,0.6443,-0.7392,0.1646,0.1063
777,0.0,0.0,0.0,0.0,0.0,0.0,-0.3060,-0.8956,-0.2891,0.6424,-0.7410,0.1635,0.1073
778,0.0,0.0,0.0,0.0,0.0,0.0,-0.2884,-0.8916,-0.3080,0.6399,-0.7436,0.1608,0.1085
779,0.0,0.0,0.0,0.0,0.0,0.0,-0.3010,-0.9140,-0.2899,0.6376,-0.7460,0.1584,0.1087
780,0.0,0.0,0.0,0.0,0.0,0.0,-0.3425,-0.9427,-0.2663,0.6363,-0.7475,0.1569,0.1089
781,0.0,0.0,0.0,0.0,0.0,0.0,-0.3347,-0.9276,-0.2792,0.6355,-0.7482,0.1558,0.1097
782,0.0,0.0,0.0,0.0,0.0,0.0,-0.3040,-0.9096,-0.2913,0.6348,-0.7489,0.1548,0.1103
783,0.0,0.0,0.0,0.0,0.0,0.0,-0.3206,-0.9238,-0.2783,0.6345,-0.7492,0.1542,0.1106
784,0.0,0.0,0.0,0.0,0.0,0.0,-0.3235,-0.9193,-0.2908,0.6341,-0.7496,0.1535,0.1112
785,0.0,0.0,0.0,0.0,0.0,0.0,-0.3123,-0.8965,-0.3002,0.6333,-0.7503,0.1529,0.1118
786,0.0,0.0,0.0,0.0,0.0,0.0,-0.3181,-0.9106,-0.2907,0.6331,-0.7505,0.1527,0.1123
787,0.0,0.0,0.0,0.0,0.0,0.0,-0.3347,-0.9281,-0.2739,0.6336,-0.7500,0.1526,0.1130
788,0.0,0.0,0.0,0.0,0.0,0.0,-0.3396,-0.9281,-0.2797,0.6343,-0.7494,0.1525,0.1136
789,0.0,0.0,0.0,0.0,0.0,0.0,-0.3289,-0.9188,-0.2889,0.6346,-0.7489,0.1527,0.1143
790,0.0,0.0,0.0,0.0,0.0,0.0,-0.3367,-0.9203,-0.2776,0.6351,-0.7484,0.1526,0.1150
791,0.0,0.0,0.0,0.0,0.0,0.0,-0.3538,-0.9368,-0.2735,0.6359,-0.7476,0.1531,0.1155
792,0.0,0.0,0.0,0.0,0.0,0.0,-0.3445,-0.9213,-0.2694,0.6369,-0.7465,0.1539,0.1163
793,0.0,0.0,0.0,0.0,0.0,0.0,-0.3304,-0.9155,-0.2747,0.6381,-0.7451,0.1546,0.1169
794,0.0,0.0,0.0,0.0,0.0,0.0,-0.3323,-0.9146,-0.2659,0.6395,-0.7437,0.1555,0.1171
795,0.0,0.0,0.0,0.0,0.0,0.0,-0.3362,-0.9190,-0.2601,0.6412,-0.7420,0.1565,0.1172
796,0.0,0.0,0.0,0.0,0.0,0.0,-0.3392,-0.9117,-0.2590,0.6427,-0.7405,0.1574,0.1173
797,0.0,0.0,0.0,0.0,0.0,0.0,-0.3290,-0.8870,-0.2562,0.6440,-0.7391,0.1587,0.1175
798,0.0,0.0,0.0,0.0,0.0,0.0,-0.3446,-0.9054,-0.2491,0.6453,-0.7377,0.1601,0.1175
799,0.0,0.0,0.0,0.0,0.0,0.0,-0.3656,-0.9234,-0.2450,0.6463,-0.7366,0.1612,0.1173
800,0.0,0.0,0.0,0.0,0.0,0.0,-0.3602,-0.9264,-0.2358,0.6481,-0.7348,0.1626,0.1167
801,0.0,0.0,0.0,0.0,0.0,0.0,-0.3539,-0.9103,-0.2526,0.6491,-0.7337,0.1639,0.1161
802,0.0,0.0,0.0,0.0,0.0,0.0,-0.3519,-0.8947,-0.2523,0.6500,-0.7327,0.1656,0.1151
803,0.0,0.0,0.0,0.0,0.0,0.0,-0.3592,-0.9191,-0.2381,0.6513,-0.7312,0.1677,0.1141
804,0.0,0.0,0.0,0.0,0.0,0.0,-0.3446,-0.9152,-0.2425,0.6534,-0.7291,0.1693,0.1132
805,0.0,0.0,0.0,0.0,0.0,0.0,-0.3261,-0.8933,-0.2519,0.6555,-0.7271,0.1705,0.1119
806,0.0,0.0,0.0,0.0,0.0,0.0,-0.3397,-0.9254,-0.2398,0.6575,-0.7250,0.1730,0.1100
807,0.0,0.0,0.0,0.0,0.0,0.0,-0.3407,-0.9059,-0.2555,0.6586,-0.7238,0.1750,0.1087
808,0.0,0.0,0.0,0.0,0.0,0.0,-0.2938,-0.8714,-0.2765,0.6589,-0.7236,0.1753,0.1078
809,0.0,0.0,0.0,0.0,0.0,0.0,-0.2947,-0.9059,-0.2762,0.6579,-0.7248,0.1745,0.1066
810,0.0,0.0,0.0,0.0,0.0,0.0,-0.3324,-0.9254,-0.2452,0.6568,-0.7262,0.1737,0.1051
811,0.0,0.0,0.0,0.0,0.0,0.0,-0.3270,-0.9293,-0.2497,0.6566,-0.7270,0.1720,0.1042
812,0.0,0.0,0.0,0.0,0.0,0.0,-0.3363,-0.9273,-0.2457,0.6564,-0.7275,0.1710,0.1030
813,0.0,0.0,0.0,0.0,0.0,0.0,-0.3514,-0.9200,-0.2416,0.6561,-0.7282,0.1701,0.1022
814,0.0,0.0,0.0,0.0,0.0,0.0,-0.3510,-0.9182,-0.2313,0.6567,-0.7277,0.1699,0.1016
815,0.0,0.0,0.0,0.0,0.0,0.0,-0.3246,-0.9113,-0.2562,0.6576,-0.7269,0.1702,0.1008
816,0.0,0.0,0.0,0.0,0.0,0.0,-0.3021,-0.9015,-0.2658,0.6579,-0.7269,0.1692,0.1005
817,0.0,0.0,0.0,0.0,0.0,0.0,-0.3099,-0.9026,-0.2541,0.6576,-0.7275,0.1684,0.1001
818,0.0,0.0,0.0,0.0,0.0,0.0,-0.3251,-0.9167,-0.2446,0.6579,-0.7273,0.1681,0.0998
819,0.0,0.0,0.0,0.0,0.0,0.0,-0.3221,-0.9235,-0.2491,0.6584,-0.7270,0.1680,0.0991
820,0.0,0.0,0.0,0.0,0.0,0.0,-0.3148,-0.9113,-0.2499,0.6588,-0.7266,0.1681,0.0984
821,0.0,0.0,0.0,0.0,0.0,0.0,-0.3187,-0.9211,-0.2442,0.6589,-0.7267,0.1680,0.0981
822,0.0,0.0,0.0,0.0,0.0,0.0,-0.3143,-0.9250,-0.2404,0.6587,-0.7270,0.1675,0.0978
823,0.0,0.0,0.0,0.0,0.0,0.0,-0.3001,-0.9147,-0.2564,0.6582,-0.7276,0.1667,0.0973
824,0.0,0.0,0.0,0.0,0.0,0.0,-0.3055,-0.9186,-0.2486,0.6577,-0.7283,0.1662,0.0967
825,0.0,0.0,0.0,0.0,0.0,0.0,-0.3226,-0.9274,-0.2390,0.6579,-0.7283,0.1661,0.0958
826,0.0,0.0,0.0,0.0,0.0,0.0,-0.3294,-0.9449,-0.2256,0.6582,-0.7281,0.1662,0.0948
827,0.0,0.0,0.0,0.0,0.0,0.0,-0.3265,-0.9347,-0.2284,0.6584,-0.7281,0.1659,0.0944
828,0.0,0.0,0.0,0.0,0.0,0.0,-0.3246,-0.9284,-0.2292,0.6593,-0.7273,0.1662,0.0933
829,0.0,0.0,0.0,0.0,0.0,0.0,-0.3353,-0.9416,-0.2207,0.6603,-0.7265,0.1666,0.0916
830,0.0,0.0,0.0,0.0,0.0,0.0,-0.3324,-0.9182,-0.2266,0.6617,-0.7253,0.1671,0.0905
831,0.0,0.0,0.0,0.0,0.0,0.0,-0.3056,-0.9080,-0.2363,0.6631,-0.7241,0.1669,0.0900
832,0.0,0.0,0.0,0.0,0.0,0.0,-0.3031,-0.9032,-0.2391,0.6631,-0.7243,0.1666,0.0892
833,0.0,0.0,0.0,0.0,0.0,0.0,-0.3217,-0.9309,-0.2239,0.6634,-0.7241,0.1667,0.0881
834,0.0,0.0,0.0,0.0,0.0,0.0,-0.3080,-0.9022,-0.2410,0.6633,-0.7244,0.1657,0.0880
835,0.0,0.0,0.0,0.0,0.0,0.0,-0.2938,-0.9173,-0.2389,0.6629,-0.7251,0.1650,0.0873
836,0.0,0.0,0.0,0.0,0.0,0.0,-0.3148,-0.9313,-0.2400,0.6617,-0.7262,0.1649,0.0868
837,0.0,0.0,0.0,0.0,0.0,0.0,-0.3226,-0.9234,-0.2520,0.6595,-0.7281,0.1656,0.0864
838,0.0,0.0,0.0,0.0,0.0,0.0,-0.2977,-0.9225,-0.2599,0.6561,-0.7313,0.1656,0.0859
839,0.0,0.0,0.0,0.0,0.0,0.0,-0.2850,-0.9214,-0.2736,0.6525,-0.7345,0.1657,0.0853
840,0.0,0.0,0.0,0.0,0.0,0.0,-0.2825,-0.9156,-0.2793,0.6476,-0.7389,0.1656,0.0849
841,0.0,0.0,0.0,0.0,0.0,0.0,-0.2796,-0.9146,-0.2745,0.6434,-0.7426,0.1652,0.0853
842,0.0,0.0,0.0,0.0,0.0,0.0,-0.2834,-0.9301,-0.2888,0.6397,-0.7458,0.1652,0.0854
843,0.0,0.0,0.0,0.0,0.0,0.0,-0.2937,-0.9466,-0.2905,0.6361,-0.7489,0.1649,0.0857
844,0.0,0.0,0.0,0.0,0.0,0.0,-0.3146,-0.9357,-0.3043,0.6336,-0.7509,0.1648,0.0868
845,0.0,0.0,0.0,0.0,0.0,0.0,-0.3039,-0.9207,-0.3090,0.6319,-0.7522,0.1653,0.0873
846,0.0,0.0,0.0,0.0,0.0,0.0,-0.3039,-0.9313,-0.3160,0.6310,-0.7529,0.1656,0.0875
847,0.0,0.0,0.0,0.0,0.0,0.0,-0.3171,-0.9114,-0.3214,0.6297,-0.7538,0.1654,0.0886
848,0.0,0.0,0.0,0.0,0.0,0.0,-0.3122,-0.8958,-0.3240,0.6284,-0.7548,0.1655,0.0896
849,0.0,0.0,0.0,0.0,0.0,0.0,-0.2990,-0.9021,-0.3262,0.6281,-0.7550,0.1654,0.0902
850,0.0,0.0,0.0,0.0,0.0,0.0,-0.3049,-0.8876,-0.3215,0.6277,-0.7552,0.1656,0.0906
851,0.0,0.0,0.0,0.0,0.0,0.0,-0.3049,-0.8969,-0.3158,0.6278,-0.7552,0.1652,0.0913
852,0.0,0.0,0.0,0.0,0.0,0.0,-0.2981,-0.8993,-0.3203,0.6275,-0.7555,0.1639,0.0926
853,0.0,0.0,0.0,0.0,0.0,0.0,-0.2888,-0.8964,-0.3145,0.6272,-0.7559,0.1624,0.0939
854,0.0,0.0,0.0,0.0,0.0,0.0,-0.2888,-0.9256,-0.3116,0.6275,-0.7559,0.1608,0.0946
855,0.0,0.0,0.0,0.0,0.0,0.0,-0.3079,-0.9154,-0.3025,0.6279,-0.7557,0.1597,0.0954
856,0.0,0.0,0.0,0.0,0.0,0.0,-0.3039,-0.9397,-0.2898,0.6292,-0.7548,0.1586,0.0963
857,0.0,0.0,0.0,0.0,0.0,0.0,-0.3093,-0.9494,-0.2934,0.6310,-0.7533,0.1577,0.0974
858,0.0,0.0,0.0,0.0,0.0,0.0,-0.3332,-0.9475,-0.2777,0.6338,-0.7508,0.1578,0.0986
859,0.0,0.0,0.0,0.0,0.0,0.0,-0.3307,-0.9577,-0.2866,0.6373,-0.7476,0.1581,0.0998
860,0.0,0.0,0.0,0.0,0.0,0.0,-0.3240,-0.9261,-0.2861,0.6409,-0.7442,0.1587,0.1010
861,0.0,0.0,0.0,0.0,0.0,0.0,-0.3293,-0.9378,-0.2790,0.6443,-0.7410,0.1591,0.1021
862,0.0,0.0,0.0,0.0,0.0,0.0,-0.3396,-0.9446,-0.2742,0.6479,-0.7377,0.1596,0.1029
863,0.0,0.0,0.0,0.0,0.0,0.0,-0.3421,-0.8965,-0.2772,0.6509,-0.7347,0.1609,0.1033
864,0.0,0.0,0.0,0.0,0.0,0.0,-0.3407,-0.8986,-0.2583,0.6539,-0.7318,0.1616,0.1037
865,0.0,0.0,0.0,0.0,0.0,0.0,-0.3289,-0.9073,-0.2653,0.6557,-0.7302,0.1611,0.1048
866,0.0,0.0,0.0,0.0,0.0,0.0,-0.3241,-0.8807,-0.2527,0.6572,-0.7288,0.1609,0.1051
867,0.0,0.0,0.0,0.0,0.0,0.0,-0.2938,-0.8958,-0.2517,0.6584,-0.7279,0.1599,0.1050
868,0.0,0.0,0.0,0.0,0.0,0.0,-0.2963,-0.8881,-0.2457,0.6593,-0.7274,0.1588,0.1053
869,0.0,0.0,0.0,0.0,0.0,0.0,-0.3085,-0.9101,-0.2198,0.6602,-0.7268,0.1580,0.1045
870,0.0,0.0,0.0,0.0,0.0,0.0,-0.2694,-0.9057,-0.2330,0.6605,-0.7270,0.1554,0.1051
871,0.0,0.0,0.0,0.0,0.0,0.0,-0.2631,-0.9159,-0.2342,0.6601,-0.7281,0.1517,0.1057
872,0.0,0.0,0.0,0.0,0.0,0.0,-0.2914,-0.9421,-0.2219,0.6603,-0.7283,0.1493,0.1060
873,0.0,0.0,0.0,0.0,0.0,0.0,-0.3201,-0.9737,-0.2053,0.6617,-0.7274,0.1468,0.1073
874,0.0,0.0,0.0,0.0,0.0,0.0,-0.2953,-0.9152,-0.2579,0.6604,-0.7289,0.1446,0.1083
875,0.0,0.0,0.0,0.0,0.0,0.0,-0.2587,-0.8364,-0.2873,0.6559,-0.7333,0.1430,0.1079
876,0.0,0.0,0.0,0.0,0.0,0.0,-0.2684,-0.9143,-0.2507,0.6518,-0.7374,0.1415,0.1068
877,0.0,0.0,0.0,0.0,0.0,0.0,-0.3274,-1.0346,-0.1805,0.6500,-0.7393,0.1406,0.1058
878,0.0,0.0,0.0,0.0,0.0,0.0,-0.3075,-0.9820,-0.2006,0.6504,-0.7389,0.1408,0.1054
879,0.0,0.0,0.0,0.0,0.0,0.0,-0.3152,-1.0057,-0.2117,0.6538,-0.7358,0.1421,0.1049
880,0.0,0.0,0.0,0.0,0.0,0.0,-0.3318,-1.0042,-0.2271,0.6580,-0.7319,0.1425,0.1055
881,0.0,0.0,0.0,0.0,0.0,0.0,-0.2996,-0.9513,-0.2317,0.6624,-0.7277,0.1431,0.1062
882,0.0,0.0,0.0,0.0,0.0,0.0,-0.2879,-0.9298,-0.2591,0.6654,-0.7246,0.1443,0.1066
883,0.0,0.0,0.0,0.0,0.0,0.0,-0.2900,-0.8661,-0.2619,0.6661,-0.7234,0.1465,0.1070
884,0.0,0.0,0.0,0.0,0.0,0.0,-0.2436,-0.8642,-0.2675,0.6658,-0.7237,0.1462,0.1077
885,0.0,0.0,0.0,0.0,0.0,0.0,-0.2694,-0.8900,-0.2503,0.6653,-0.7243,0.1450,0.1079
886,0.0,0.0,0.0,0.0,0.0,0.0,-0.2816,-0.8988,-0.2416,0.6640,-0.7260,0.1426,0.1083
887,0.0,0.0,0.0,0.0,0.0,0.0,-0.2875,-0.9216,-0.2386,0.6623,-0.7280,0.1402,0.1085
888,0.0,0.0,0.0,0.0,0.0,0.0,-0.3114,-0.9626,-0.2027,0.6605,-0.7300,0.1383,0.1084
889,0.0,0.0,0.0,0.0,0.0,0.0,-0.2899,-0.9484,-0.2332,0.6588,-0.7318,0.1365,0.1088
890,0.0,0.0,0.0,0.0,0.0,0.0,-0.2972,-0.9108,-0.2578,0.6573,-0.7326,0.1383,0.1099
891,0.0,0.0,0.0,0.0,0.0,0.0,-0.2957,-0.9181,-0.2516,0.6562,-0.7337,0.1389,0.1090
892,0.0,0.0,0.0,0.0,0.0,0.0,-0.2967,-0.9274,-0.2537,0.6554,-0.7345,0.1389,0.1079
893,0.0,0.0,0.0,0.0,0.0,0.0,-0.3240,-0.9263,-0.2550,0.6548,-0.7350,0.1398,0.1067
894,0.0,0.0,0.0,0.0,0.0,0.0,-0.3006,-0.8962,-0.2716,0.6530,-0.7368,0.1393,0.1062
895,0.0,0.0,0.0,0.0,0.0,0.0,-0.3040,-0.9185,-0.2739,0.6513,-0.7386,0.1382,0.1061
896,0.0,0.0,0.0,0.0,0.0,0.0,-0.3104,-0.9034,-0.2736,0.6496,-0.7403,0.1381,0.1043
897,0.0,0.0,0.0,0.0,0.0,0.0,-0.2928,-0.9141,-0.2768,0.6485,-0.7416,0.1377,0.1025
898,0.0,0.0,0.0,0.0,0.0,0.0,-0.3109,-0.9468,-0.2384,0.6490,-0.7414,0.1374,0.1017
899,0.0,0.0,0.0,0.0,0.0,0.0,-0.3054,-0.9633,-0.2465,0.6509,-0.7399,0.1368,0.1010
900,0.0,0.0,0.0,0.0,0.0,0.0,-0.3504,-0.9594,-0.2428,0.6534,-0.7376,0.1378,0.1002
901,0.0,0.0,0.0,0.0,0.0,0.0,-0.3396,-0.9389,-0.2541,0.6550,-0.7360,0.1391,0.0998
902,0.0,0.0,0.0,0.0,0.0,0.0,-0.2889,-0.9195,-0.2701,0.6555,-0.7356,0.1390,0.0996
903,0.0,0.0,0.0,0.0,0.0,0.0,-0.2943,-0.9210,-0.2614,0.6556,-0.7355,0.1390,0.0998
904,0.0,0.0,0.0,0.0,0.0,0.0,-0.3250,-0.9200,-0.2510,0.6559,-0.7350,0.1406,0.0992
905,0.0,0.0,0.0,0.0,0.0,0.0,-0.3050,-0.9151,-0.2704,0.6560,-0.7348,0.1407,0.0999
906,0.0,0.0,0.0,0.0,0.0,0.0,-0.3026,-0.9254,-0.2526,0.6558,-0.7349,0.1393,0.1019
907,0.0,0.0,0.0,0.0,0.0,0.0,-0.3216,-0.9347,-0.2328,0.6553,-0.7354,0.1386,0.1030
908,0.0,0.0,0.0,0.0,0.0,0.0,-0.3206,-0.9385,-0.2465,0.6535,-0.7369,0.1383,0.1038
909,0.0,0.0,0.0,0.0,0.0,0.0,-0.3221,-0.9264,-0.2438,0.6516,-0.7384,0.1383,0.1052
910,0.0,0.0,0.0,0.0,0.0,0.0,-0.2982,-0.9249,-0.2531,0.6492,-0.7405,0.1372,0.1067
911,0.0,0.0,0.0,0.0,0.0,0.0,-0.3157,-0.9254,-0.2521,0.6468,-0.7425,0.1367,0.1078
912,0.0,0.0,0.0,0.0,0.0,0.0,-0.3255,-0.9546,-0.2384,0.6454,-0.7436,0.1371,0.1082
913,0.0,0.0,0.0,0.0,0.0,0.0,-0.2767,-0.9269,-0.2460,0.6452,-0.7437,0.1367,0.1096
914,0.0,0.0,0.0,0.0,0.0,0.0,-0.2942,-0.9624,-0.2354,0.6467,-0.7423,0.1359,0.1109
915,0.0,0.0,0.0,0.0,0.0,0.0,-0.3293,-0.9789,-0.2359,0.6490,-0.7402,0.1357,0.1117
916,0.0,0.0,0.0,0.0,0.0,0.0,-0.3196,-0.9761,-0.2141,0.6541,-0.7354,0.1366,0.1128
917,0.0,0.0,0.0,0.0,0.0,0.0,-0.3138,-0.9400,-0.2485,0.6580,-0.7312,0.1396,0.1136
918,0.0,0.0,0.0,0.0,0.0,0.0,-0.2797,-0.8872,-0.2414,0.6599,-0.7290,0.1421,0.1136
919,0.0,0.0,0.0,0.0,0.0,0.0,-0.2768,-0.9076,-0.2330,0.6623,-0.7267,0.1434,0.1133
920,0.0,0.0,0.0,0.0,0.0,0.0,-0.3002,-0.9145,-0.2111,0.6648,-0.7242,0.1452,0.1117
921,0.0,0.0,0.0,0.0,0.0,0.0,-0.3041,-0.9062,-0.2139,0.6665,-0.7224,0.1474,0.1104
922,0.0,0.0,0.0,0.0,0.0,0.0,-0.2827,-0.9053,-0.2091,0.6679,-0.7211,0.1486,0.1087
923,0.0,0.0,0.0,0.0,0.0,0.0,-0.2753,-0.9131,-0.2161,0.6694,-0.7199,0.1490,0.1070
924,0.0,0.0,0.0,0.0,0.0,0.0,-0.3149,-0.9223,-0.2015,0.6707,-0.7186,0.1503,0.1062
925,0.0,0.0,0.0,0.0,0.0,0.0,-0.3115,-0.9262,-0.2064,0.6712,-0.7178,0.1522,0.1048
926,0.0,0.0,0.0,0.0,0.0,0.0,-0.2758,-0.9120,-0.2336,0.6702,-0.7189,0.1525,0.1040
927,0.0,0.0,0.0,0.0,0.0,0.0,-0.2324,-0.8643,-0.2661,0.6679,-0.7214,0.1509,0.1035
928,0.0,0.0,0.0,0.0,0.0,0.0,-0.2441,-0.8906,-0.2499,0.6654,-0.7243,0.1487,0.1026
929,0.0,0.0,0.0,0.0,0.0,0.0,-0.2953,-0.9777,-0.2016,0.6650,-0.7253,0.1459,0.1020
930,0.0,0.0,0.0,0.0,0.0,0.0,-0.3182,-0.9732,-0.2208,0.6653,-0.7254,0.1417,0.1050
931,0.0,0.0,0.0,0.0,0.0,0.0,-0.2899,-0.9206,-0.2478,0.6656,-0.7253,0.1388,0.1076
932,0.0,0.0,0.0,0.0,0.0,0.0,-0.3011,-0.9268,-0.2556,0.6657,-0.7254,0.1356,0.1105
933,0.0,0.0,0.0,0.0,0.0,0.0,-0.2918,-0.9318,-0.2489,0.6653,-0.7260,0.1313,0.1140
934,0.0,0.0,0.0,0.0,0.0,0.0,-0.2479,-0.9050,-0.2648,0.6642,-0.7275,0.1246,0.1185
935,0.0,0.0,0.0,0.0,0.0,0.0,-0.2518,-0.9289,-0.2535,0.6630,-0.7292,0.1177,0.1218
936,0.0,0.0,0.0,0.0,0.0,0.0,-0.3118,-0.9488,-0.2365,0.6615,-0.7308,0.1130,0.1248
937,0.0,0.0,0.0,0.0,0.0,0.0,-0.3060,-0.9421,-0.2228,0.6608,-0.7315,0.1081,0.1284
938,0.0,0.0,0.0,0.0,0.0,0.0,-0.2425,-0.9693,-0.2377,0.6606,-0.7320,0.1006,0.1329
939,0.0,0.0,0.0,0.0,0.0,0.0,-0.2704,-0.9509,-0.2241,0.6594,-0.7332,0.0971,0.1348
940,0.0,0.0,0.0,0.0,0.0,0.0,-0.2723,-0.9314,-0.2340,0.6575,-0.7350,0.0960,0.1351
941,0.0,0.0,0.0,0.0,0.0,0.0,-0.2410,-0.9595,-0.2468,0.6551,-0.7373,0.0932,0.1359
942,0.0,0.0,0.0,0.0,0.0,0.0,-0.2698,-0.9503,-0.2358,0.6531,-0.7392,0.0920,0.1362
943,0.0,0.0,0.0,0.0,0.0,0.0,-0.2933,-0.8912,-0.2934,0.6489,-0.7426,0.0939,0.1365
944,0.0,0.0,0.0,0.0,0.0,0.0,-0.2679,-0.8981,-0.2757,0.6452,-0.7458,0.0937,0.1367
945,0.0,0.0,0.0,0.0,0.0,0.0,-0.3039,-0.9954,-0.2422,0.6449,-0.7461,0.0937,0.1366
946,0.0,0.0,0.0,0.0,0.0,0.0,-0.3733,-0.9477,-0.2463,0.6445,-0.7460,0.0959,0.1373
947,0.0,0.0,0.0,0.0,0.0,0.0,-0.2781,-0.9526,-0.2615,0.6439,-0.7464,0.0953,0.1384
948,0.0,0.0,0.0,0.0,0.0,0.0,-0.3059,-0.9214,-0.2798,0.6427,-0.7472,0.0962,0.1391
949,0.0,0.0,0.0,0.0,0.0,0.0,-0.3084,-0.9122,-0.2670,0.6420,-0.7476,0.0973,0.1396
950,0.0,0.0,0.0,0.0,0.0,0.0,-0.3094,-0.9321,-0.2634,0.6421,-0.7473,0.0987,0.1394
951,0.0,0.0,0.0,0.0,0.0,0.0,-0.3177,-0.9200,-0.2588,0.6425,-0.7468,0.1005,0.1391
952,0.0,0.0,0.0,0.0,0.0,0.0,-0.3285,-0.9239,-0.2457,0.6431,-0.7460,0.1022,0.1392
953,0.0,0.0,0.0,0.0,0.0,0.0,-0.3270,-0.9205,-0.2514,0.6439,-0.7451,0.1042,0.1392
954,0.0,0.0,0.0,0.0,0.0,0.0,-0.3280,-0.9181,-0.2524,0.6452,-0.7436,0.1065,0.1392
955,0.0,0.0,0.0,0.0,0.0,0.0,-0.3494,-0.9346,-0.2438,0.6464,-0.7422,0.1087,0.1395
956,0.0,0.0,0.0,0.0,0.0,0.0,-0.3543,-0.9273,-0.2412,0.6473,-0.7411,0.1110,0.1396
957,0.0,0.0,0.0,0.0,0.0,0.0,-0.3573,-0.9356,-0.2384,0.6488,-0.7394,0.1136,0.1397
958,0.0,0.0,0.0,0.0,0.0,0.0,-0.3587,-0.9312,-0.2388,0.6501,-0.7377,0.1164,0.1397
959,0.0,0.0,0.0,0.0,0.0,0.0,-0.3524,-0.9167,-0.2410,0.6512,-0.7364,0.1195,0.1393
960,0.0,0.0,0.0,0.0,0.0,0.0,-0.3441,-0.8972,-0.2524,0.6516,-0.7356,0.1225,0.1387
961,0.0,0.0,0.0,0.0,0.0,0.0,-0.3480,-0.9011,-0.2413,0.6525,-0.7345,0.1252,0.1384
962,0.0,0.0,0.0,0.0,0.0,0.0,-0.3529,-0.9080,-0.2345,0.6537,-0.7330,0.1284,0.1372
963,0.0,0.0,0.0,0.0,0.0,0.0,-0.3524,-0.9085,-0.2321,0.6549,-0.7317,0.1316,0.1361
964,0.0,0.0,0.0,0.0,0.0,0.0,-0.3475,-0.9215,-0.2358,0.6559,-0.7303,0.1345,0.1356
965,0.0,0.0,0.0,0.0,0.0,0.0,-0.3470,-0.9118,-0.2371,0.6568,-0.7291,0.1376,0.1346
966,0.0,0.0,0.0,0.0,0.0,0.0,-0.3383,-0.9041,-0.2336,0.6578,-0.7279,0.1406,0.1331
967,0.0,0.0,0.0,0.0,0.0,0.0,-0.3295,-0.9055,-0.2414,0.6587,-0.7269,0.1429,0.1316
968,0.0,0.0,0.0,0.0,0.0,0.0,-0.3383,-0.9016,-0.2394,0.6594,-0.7260,0.1455,0.1299
969,0.0,0.0,0.0,0.0,0.0,0.0,-0.3441,-0.9103,-0.2419,0.6597,-0.7255,0.1480,0.1284
970,0.0,0.0,0.0,0.0,0.0,0.0,-0.3475,-0.9118,-0.2400,0.6602,-0.7249,0.1502,0.1270
971,0.0,0.0,0.0,0.0,0.0,0.0,-0.3461,-0.9206,-0.2280,0.6609,-0.7240,0.1522,0.1259
972,0.0,0.0,0.0,0.0,0.0,0.0,-0.3524,-0.9270,-0.2213,0.6614,-0.7233,0.1538,0.1252
973,0.0,0.0,0.0,0.0,0.0,0.0,-0.3602,-0.9265,-0.2207,0.6621,-0.7224,0.1560,0.1243
974,0.0,0.0,0.0,0.0,0.0,0.0,-0.3549,-0.9114,-0.2239,0.6624,-0.7217,0.1583,0.1234
975,0.0,0.0,0.0,0.0,0.0,0.0,-0.3427,-0.9124,-0.2269,0.6625,-0.7214,0.1602,0.1224
976,0.0,0.0,0.0,0.0,0.0,0.0,-0.3364,-0.9086,-0.2196,0.6631,-0.7206,0.1624,0.1210
977,0.0,0.0,0.0,0.0,0.0,0.0,-0.3422,-0.9149,-0.2167,0.6639,-0.7197,0.1642,0.1196
978,0.0,0.0,0.0,0.0,0.0,0.0,-0.3627,-0.9056,-0.2140,0.6643,-0.7191,0.1661,0.1184
979,0.0,0.0,0.0,0.0,0.0,0.0,-0.3544,-0.9012,-0.2189,0.6646,-0.7186,0.1676,0.1176
980,0.0,0.0,0.0,0.0,0.0,0.0,-0.3403,-0.9129,-0.2157,0.6647,-0.7184,0.1687,0.1168
981,0.0,0.0,0.0,0.0,0.0,0.0,-0.3559,-0.9285,-0.2047,0.6644,-0.7186,0.1699,0.1157
982,0.0,0.0,0.0,0.0,0.0,0.0,-0.3632,-0.9261,-0.2081,0.6638,-0.7189,0.1718,0.1142
983,0.0,0.0,0.0,0.0,0.0,0.0,-0.3549,-0.9144,-0.2157,0.6634,-0.7190,0.1747,0.1118
984,0.0,0.0,0.0,0.0,0.0,0.0,-0.3505,-0.9148,-0.2240,0.6616,-0.7203,0.1776,0.1093
985,0.0,0.0,0.0,0.0,0.0,0.0,-0.3676,-0.9080,-0.2184,0.6597,-0.7215,0.1814,0.1063
986,0.0,0.0,0.0,0.0,0.0,0.0,-0.3739,-0.9275,-0.1998,0.6584,-0.7221,0.1849,0.1038
987,0.0,0.0,0.0,0.0,0.0,0.0,-0.3456,-0.9196,-0.2324,0.6573,-0.7229,0.1865,0.1030
988,0.0,0.0,0.0,0.0,0.0,0.0,-0.3344,-0.9003,-0.2287,0.6568,-0.7231,0.1884,0.1016
989,0.0,0.0,0.0,0.0,0.0,0.0,-0.3358,-0.9109,-0.2342,0.6573,-0.7226,0.1885,0.1018
990,0.0,0.0,0.0,0.0,0.0,0.0,-0.3261,-0.9109,-0.2323,0.6576,-0.7226,0.1875,0.1013
991,0.0,0.0,0.0,0.0,0.0,0.0,-0.3427,-0.9183,-0.2183,0.6589,-0.7217,0.1865,0.1007
992,0.0,0.0,0.0,0.0,0.0,0.0,-0.3519,-0.9094,-0.2346,0.6598,-0.7211,0.1858,0.1007
993,0.0,0.0,0.0,0.0,0.0,0.0,-0.3451,-0.9095,-0.2298,0.6607,-0.7206,0.1847,0.1010
994,0.0,0.0,0.0,0.0,0.0,0.0,-0.3221,-0.9050,-0.2551,0.6607,-0.7211,0.1821,0.1014
995,0.0,0.0,0.0,0.0,0.0,0.0,-0.3553,-0.9391,-0.2283,0.6621,-0.7204,0.1790,0.1028
996,0.0,0.0,0.0,0.0,0.0,0.0,-0.3709,-0.9410,-0.2248,0.6637,-0.7193,0.1767,0.1048
997,0.0,0.0,0.0,0.0,0.0,0.0,-0.3539,-0.9182,-0.2313,0.6643,-0.7189,0.1745,0.1070
998,0.0,0.0,0.0,0.0,0.0,0.0,-0.3358,-0.9333,-0.2302,0.6660,-0.7175,0.1723,0.1092
999,0.0,0.0,0.0,0.0,0.0,0.0,-0.2733,-0.8851,-0.2662,0.6657,-0.7182,0.1702,0.1098
1000,0.0,0.0,0.0,0.0,0.0,0.0,-0.2602,-0.8735,-0.2632,0.6636,-0.7206,0.1696,0.1079
1001,0.0,0.0,0.0,0.0,0.0,0.0,-0.3128,-0.9059,-0.2595,0.6601,-0.7240,0.1695,0.1063
1002,0.0,0.0,0.0,0.0,0.0,0.0,-0.3559,-0.9202,-0.2206,0.6569,-0.7271,0.1690,0.1061
1003,0.0,0.0,0.0,0.0,0.0,0.0,-0.3133,-0.8981,-0.2735,0.6525,-0.7310,0.1702,0.1046
1004,0.0,0.0,0.0,0.0,0.0,0.0,-0.3212,-0.8841,-0.2581,0.6484,-0.7340,0.1737,0.1030
1005,0.0,0.0,0.0,0.0,0.0,0.0,-0.2771,-0.8846,-0.3386,0.6462,-0.7364,0.1713,0.1037
1006,0.0,0.0,0.0,0.0,0.0,0.0,-0.3616,-0.9541,-0.2266,0.6472,-0.7358,0.1701,0.1039
1007,0.0,0.0,0.0,0.0,0.0,0.0,-0.3923,-0.9781,-0.2691,0.6500,-0.7332,0.1688,0.1071
1008,0.0,0.0,0.0,0.0,0.0,0.0,-0.3479,-0.9318,-0.3011,0.6516,-0.7320,0.1651,0.1108
1009,0.0,0.0,0.0,0.0,0.0,0.0,-0.3713,-0.9417,-0.2720,0.6529,-0.7310,0.1630,0.1128
1010,0.0,0.0,0.0,0.0,0.0,0.0,-0.3977,-0.9264,-0.2939,0.6521,-0.7317,0.1628,0.1134
1011,0.0,0.0,0.0,0.0,0.0,0.0,-0.3324,-0.8245,-0.3071,0.6497,-0.7337,0.1627,0.1143
1012,0.0,0.0,0.0,0.0,0.0,0.0,-0.2528,-0.8113,-0.3414,0.6456,-0.7377,0.1605,0.1152
1013,0.0,0.0,0.0,0.0,0.0,0.0,-0.3138,-0.8443,-0.3294,0.6386,-0.7442,0.1591,0.1142
1014,0.0,0.0,0.0,0.0,0.0,0.0,-0.3245,-0.9160,-0.2708,0.6314,-0.7510,0.1559,0.1145
1015,0.0,0.0,0.0,0.0,0.0,0.0,-0.3805,-1.0312,-0.2439,0.6262,-0.7557,0.1550,0.1131
1016,0.0,0.0,0.0,0.0,0.0,0.0,-0.3973,-0.9297,-0.2439,0.6254,-0.7562,0.1554,0.1136
1017,0.0,0.0,0.0,0.0,0.0,0.0,-0.2966,-0.9176,-0.3323,0.6278,-0.7542,0.1536,0.1164
1018,0.0,0.0,0.0,0.0,0.0,0.0,-0.3663,-0.9887,-0.2865,0.6302,-0.7518,0.1531,0.1189
1019,0.0,0.0,0.0,0.0,0.0,0.0,-0.3689,-0.9242,-0.2707,0.6325,-0.7493,0.1533,0.1222
1020,0.0,0.0,0.0,0.0,0.0,0.0,-0.3171,-0.9524,-0.2822,0.6355,-0.7465,0.1526,0.1251
1021,0.0,0.0,0.0,0.0,0.0,0.0,-0.3337,-0.9037,-0.3046,0.6364,-0.7452,0.1527,0.1277
1022,0.0,0.0,0.0,0.0,0.0,0.0,-0.3392,-0.8635,-0.2815,0.6376,-0.7435,0.1543,0.1295
1023,0.0,0.0,0.0,0.0,0.0,0.0,-0.3387,-0.9170,-0.2737,0.6390,-0.7419,0.1551,0.1314
1024,0.0,0.0,0.0,0.0,0.0,0.0,-0.3294,-0.8859,-0.2790,0.6386,-0.7419,0.1547,0.1339
1025,0.0,0.0,0.0,0.0,0.0,0.0,-0.3231,-0.8718,-0.2793,0.6380,-0.7420,0.1549,0.1354
1026,0.0,0.0,0.0,0.0,0.0,0.0,-0.3280,-0.8927,-0.2782,0.6365,-0.7432,0.1549,0.1360
1027,0.0,0.0,0.0,0.0,0.0,0.0,-0.3138,-0.9034,-0.2678,0.6347,-0.7449,0.1548,0.1352
1028,0.0,0.0,0.0,0.0,0.0,0.0,-0.2933,-0.9294,-0.2323,0.6354,-0.7448,0.1529,0.1346
1029,0.0,0.0,0.0,0.0,0.0,0.0,-0.3557,-0.9857,-0.2208,0.6388,-0.7422,0.1514,0.1345
1030,0.0,0.0,0.0,0.0,0.0,0.0,-0.3762,-0.9637,-0.2432,0.6420,-0.7396,0.1513,0.1338
1031,0.0,0.0,0.0,0.0,0.0,0.0,-0.3484,-0.9052,-0.2909,0.6438,-0.7379,0.1533,0.1324
1032,0.0,0.0,0.0,0.0,0.0,0.0,-0.3504,-0.8688,-0.2903,0.6435,-0.7379,0.1566,0.1301
1033,0.0,0.0,0.0,0.0,0.0,0.0,-0.3255,-0.8834,-0.2897,0.6424,-0.7389,0.1577,0.1282
1034,0.0,0.0,0.0,0.0,0.0,0.0,-0.3519,-0.9024,-0.2656,0.6405,-0.7408,0.1584,0.1257
1035,0.0,0.0,0.0,0.0,0.0,0.0,-0.3465,-0.9264,-0.2330,0.6402,-0.7414,0.1588,0.1236
1036,0.0,0.0,0.0,0.0,0.0,0.0,-0.3465,-0.9439,-0.2357,0.6413,-0.7407,0.1587,0.1222
1037,0.0,0.0,0.0,0.0,0.0,0.0,-0.3847,-0.9299,-0.2143,0.6433,-0.7388,0.1605,0.1208
1038,0.0,0.0,0.0,0.0,0.0,0.0,-0.3646,-0.9074,-0.2495,0.6459,-0.7362,0.1624,0.1198
1039,0.0,0.0,0.0,0.0,0.0,0.0,-0.3471,-0.9153,-0.2308,0.6494,-0.7331,0.1640,0.1183
1040,0.0,0.0,0.0,0.0,0.0,0.0,-0.3568,-0.9094,-0.2394,0.6522,-0.7304,0.1659,0.1168
1041,0.0,0.0,0.0,0.0,0.0,0.0,-0.3583,-0.8904,-0.2444,0.6544,-0.7280,0.1683,0.1156
1042,0.0,0.0,0.0,0.0,0.0,0.0,-0.3471,-0.8808,-0.2370,0.6560,-0.7262,0.1709,0.1143
1043,0.0,0.0,0.0,0.0,0.0,0.0,-0.3329,-0.8807,-0.2493,0.6574,-0.7248,0.1724,0.1133
1044,0.0,0.0,0.0,0.0,0.0,0.0,-0.3407,-0.9017,-0.2340,0.6577,-0.7245,0.1733,0.1119
1045,0.0,0.0,0.0,0.0,0.0,0.0,-0.3427,-0.8910,-0.2387,0.6569,-0.7253,0.1736,0.1109
1046,0.0,0.0,0.0,0.0,0.0,0.0,-0.3222,-0.8744,-0.2511,0.6556,-0.7266,0.1733,0.1100
1047,0.0,0.0,0.0,0.0,0.0,0.0,-0.3329,-0.9089,-0.2478,0.6543,-0.7281,0.1727,0.1089
1048,0.0,0.0,0.0,0.0,0.0,0.0,-0.3690,-0.9313,-0.2164,0.6539,-0.7286,0.1734,0.1073
1049,0.0,0.0,0.0,0.0,0.0,0.0,-0.3617,-0.9382,-0.2127,0.6544,-0.7280,0.1746,0.1061
1050,0.0,0.0,0.0,0.0,0.0,0.0,-0.3475,-0.9390,-0.2419,0.6550,-0.7273,0.1758,0.1052
1051,0.0,0.0,0.0,0.0,0.0,0.0,-0.3724,-0.9425,-0.2190,0.6561,-0.7261,0.1771,0.1049
1052,0.0,0.0,0.0,0.0,0.0,0.0,-0.2328,-0.9520,-0.2190,0.6580,-0.7248,0.1751,0.1054
1053,0.0,0.0,0.0,0.0,0.0,0.0,-0.3504,-0.9498,-0.2222,0.6610,-0.7216,0.1764,0.1062
1054,0.0,0.0,0.0,0.0,0.0,0.0,-0.3759,-0.9436,-0.2005,0.6641,-0.7183,0.1771,0.1078
1055,0.0,0.0,0.0,0.0,0.0,0.0,-0.3685,-0.9123,-0.2379,0.6660,-0.7161,0.1776,0.1095
1056,0.0,0.0,0.0,0.0,0.0,0.0,-0.3486,-0.8783,-0.2467,0.6673,-0.7146,0.1783,0.1106
1057,0.0,0.0,0.0,0.0,0.0,0.0,-0.3500,-0.8875,-0.2376,0.6667,-0.7152,0.1771,0.1120
1058,0.0,0.0,0.0,0.0,0.0,0.0,-0.3056,-0.8038,-0.2942,0.6637,-0.7183,0.1758,0.1125
1059,0.0,0.0,0.0,0.0,0.0,0.0,-0.2613,-0.7449,-0.3207,0.6581,-0.7240,0.1739,0.1118
1060,0.0,0.0,0.0,0.0,0.0,0.0,-0.3124,-0.8533,-0.2946,0.6525,-0.7300,0.1709,0.1103
1061,0.0,0.0,0.0,0.0,0.0,0.0,-0.4032,-0.9474,-0.2019,0.6487,-0.7339,0.1694,0.1090
1062,0.0,0.0,0.0,0.0,0.0,0.0,-0.3602,-0.9532,-0.2178,0.6470,-0.7358,0.1665,0.1106
1063,0.0,0.0,0.0,0.0,0.0,0.0,-0.3655,-0.9622,-0.2534,0.6466,-0.7365,0.1636,0.1126
1064,0.0,0.0,0.0,0.0,0.0,0.0,-0.3768,-0.9268,-0.2425,0.6460,-0.7371,0.1622,0.1142
1065,0.0,0.0,0.0,0.0,0.0,0.0,-0.3128,-0.9096,-0.2898,0.6453,-0.7377,0.1610,0.1161
1066,0.0,0.0,0.0,0.0,0.0,0.0,-0.3172,-0.9033,-0.2886,0.6445,-0.7383,0.1601,0.1177
1067,0.0,0.0,0.0,0.0,0.0,0.0,-0.3401,-0.9067,-0.2803,0.6437,-0.7388,0.1602,0.1189
1068,0.0,0.0,0.0,0.0,0.0,0.0,-0.3743,-0.9101,-0.2758,0.6433,-0.7386,0.1625,0.1196
1069,0.0,0.0,0.0,0.0,0.0,0.0,-0.3738,-0.9261,-0.2737,0.6429,-0.7380,0.1655,0.1210
1070,0.0,0.0,0.0,0.0,0.0,0.0,-0.3504,-0.8946,-0.2810,0.6416,-0.7385,0.1662,0.1241
1071,0.0,0.0,0.0,0.0,0.0,0.0,-0.3626,-0.8955,-0.2785,0.6404,-0.7387,0.1671,0.1278
1072,0.0,0.0,0.0,0.0,0.0,0.0,-0.3597,-0.9033,-0.2835,0.6393,-0.7390,0.1679,0.1302
1073,0.0,0.0,0.0,0.0,0.0,0.0,-0.3411,-0.8965,-0.2913,0.6371,-0.7406,0.1669,0.1332
1074,0.0,0.0,0.0,0.0,0.0,0.0,-0.3031,-0.8610,-0.3040,0.6353,-0.7423,0.1635,0.1362
1075,0.0,0.0,0.0,0.0,0.0,0.0,-0.3367,-0.8915,-0.3112,0.6332,-0.7446,0.1597,0.1383
1076,0.0,0.0,0.0,0.0,0.0,0.0,-0.3504,-0.8868,-0.2862,0.6306,-0.7473,0.1562,0.1399
1077,0.0,0.0,0.0,0.0,0.0,0.0,-0.3216,-0.9057,-0.2891,0.6292,-0.7492,0.1510,0.1414
1078,0.0,0.0,0.0,0.0,0.0,0.0,-0.3581,-0.9577,-0.2689,0.6283,-0.7507,0.1471,0.1417
1079,0.0,0.0,0.0,0.0,0.0,0.0,-0.4221,-0.9559,-0.2399,0.6284,-0.7508,0.1452,0.1427
1080,0.0,0.0,0.0,0.0,0.0,0.0,-0.3743,-0.9270,-0.2853,0.6285,-0.7506,0.1437,0.1448
1081,0.0,0.0,0.0,0.0,0.0,0.0,-0.3372,-0.9164,-0.2941,0.6281,-0.7510,0.1423,0.1459
1082,0.0,0.0,0.0,0.0,0.0,0.0,-0.3382,-0.9008,-0.2982,0.6282,-0.7510,0.1407,0.1471
1083,0.0,0.0,0.0,0.0,0.0,0.0,-0.3352,-0.8852,-0.3018,0.6282,-0.7512,0.1392,0.1475
1084,0.0,0.0,0.0,0.0,0.0,0.0,-0.3445,-0.8935,-0.2990,0.6274,-0.7521,0.1379,0.1476
1085,0.0,0.0,0.0,0.0,0.0,0.0,-0.3494,-0.8765,-0.3001,0.6255,-0.7539,0.1363,0.1475
1086,0.0,0.0,0.0,0.0,0.0,0.0,-0.3445,-0.8706,-0.3137,0.6223,-0.7571,0.1336,0.1473
1087,0.0,0.0,0.0,0.0,0.0,0.0,-0.3377,-0.8839,-0.2794,0.6191,-0.7604,0.1302,0.1469
1088,0.0,0.0,0.0,0.0,0.0,0.0,-0.3405,-0.9079,-0.3187,0.6159,-0.7635,0.1268,0.1471
1089,0.0,0.0,0.0,0.0,0.0,0.0,-0.3851,-0.8970,-0.2745,0.6140,-0.7653,0.1259,0.1465
1090,0.0,0.0,0.0,0.0,0.0,0.0,-0.3660,-0.9569,-0.2519,0.6158,-0.7639,0.1248,0.1471
1091,0.0,0.0,0.0,0.0,0.0,0.0,-0.3683,-0.9590,-0.2995,0.6191,-0.7612,0.1230,0.1488
1092,0.0,0.0,0.0,0.0,0.0,0.0,-0.4036,-0.8973,-0.2924,0.6230,-0.7576,0.1247,0.1493
1093,0.0,0.0,0.0,0.0,0.0,0.0,-0.3674,-0.9100,-0.2997,0.6258,-0.7550,0.1275,0.1488
1094,0.0,0.0,0.0,0.0,0.0,0.0,-0.3567,-0.9500,-0.2683,0.6282,-0.7527,0.1308,0.1471
1095,0.0,0.0,0.0,0.0,0.0,0.0,-0.3358,-0.9097,-0.2707,0.6308,-0.7504,0.1329,0.1461
1096,0.0,0.0,0.0,0.0,0.0,0.0,-0.3206,-0.8858,-0.2985,0.6320,-0.7494,0.1345,0.1445
1097,0.0,0.0,0.0,0.0,0.0,0.0,-0.3299,-0.8932,-0.2772,0.6332,-0.7485,0.1356,0.1428
1098,0.0,0.0,0.0,0.0,0.0,0.0,-0.3685,-0.9229,-0.2542,0.6354,-0.7467,0.1385,0.1401
1099,0.0,0.0,0.0,0.0,0.0,0.0,-0.3695,-0.9298,-0.2344,0.6390,-0.7433,0.1412,0.1383
1100,0.0,0.0,0.0,0.0,0.0,0.0,-0.3367,-0.9316,-0.2589,0.6434,-0.7397,0.1414,0.1377
1101,0.0,0.0,0.0,0.0,0.0,0.0,-0.3343,-0.9087,-0.2804,0.6455,-0.7378,0.1422,0.1369
1102,0.0,0.0,0.0,0.0,0.0,0.0,-0.3046,-0.8359,-0.2841,0.6454,-0.7383,0.1425,0.1347
1103,0.0,0.0,0.0,0.0,0.0,0.0,-0.2304,-0.8173,-0.3289,0.6424,-0.7418,0.1414,0.1303
1104,0.0,0.0,0.0,0.0,0.0,0.0,-0.2860,-0.8195,-0.3462,0.6362,-0.7480,0.1409,0.1260
1105,0.0,0.0,0.0,0.0,0.0,0.0,-0.3534,-0.8312,-0.3241,0.6283,-0.7549,0.1430,0.1218
1106,0.0,0.0,0.0,0.0,0.0,0.0,-0.3807,-0.8585,-0.2933,0.6211,-0.7605,0.1488,0.1169
1107,0.0,0.0,0.0,0.0,0.0,0.0,-0.3206,-0.9972,-0.1838,0.6249,-0.7576,0.1525,0.1107
1108,0.0,0.0,0.0,0.0,0.0,0.0,-0.3384,-0.9890,-0.3182,0.6263,-0.7566,0.1537,0.1079
1109,0.0,0.0,0.0,0.0,0.0,0.0,-0.3539,-0.8792,-0.2501,0.6291,-0.7541,0.1578,0.1033
1110,0.0,0.0,0.0,0.0,0.0,0.0,-0.2467,-0.9894,-0.2803,0.6332,-0.7508,0.1591,0.1000
1111,0.0,0.0,0.0,0.0,0.0,0.0,-0.2736,-0.9747,-0.2960,0.6349,-0.7495,0.1587,0.0996
1112,0.0,0.0,0.0,0.0,0.0,0.0,-0.3147,-0.9336,-0.2668,0.6379,-0.7468,0.1602,0.0982
1113,0.0,0.0,0.0,0.0,0.0,0.0,-0.3064,-0.9417,-0.2908,0.6409,-0.7440,0.1620,0.0973
1114,0.0,0.0,0.0,0.0,0.0,0.0,-0.3152,-0.9451,-0.2782,0.6419,-0.7429,0.1631,0.0971
1115,0.0,0.0,0.0,0.0,0.0,0.0,-0.3094,-0.9399,-0.2631,0.6439,-0.7411,0.1642,0.0959
1116,0.0,0.0,0.0,0.0,0.0,0.0,-0.2938,-0.9083,-0.2772,0.6456,-0.7396,0.1647,0.0949
1117,0.0,0.0,0.0,0.0,0.0,0.0,-0.3011,-0.8966,-0.2716,0.6478,-0.7377,0.1653,0.0940
1118,0.0,0.0,0.0,0.0,0.0,0.0,-0.3231,-0.9288,-0.2409,0.6509,-0.7348,0.1667,0.0931
1119,0.0,0.0,0.0,0.0,0.0,0.0,-0.3143,-0.9469,-0.2330,0.6542,-0.7318,0.1670,0.0924
1120,0.0,0.0,0.0,0.0,0.0,0.0,-0.3250,-0.9303,-0.2419,0.6565,-0.7300,0.1661,0.0924
1121,0.0,0.0,0.0,0.0,0.0,0.0,-0.3373,-0.8909,-0.2436,0.6586,-0.7281,0.1659,0.0925
1122,0.0,0.0,0.0,0.0,0.0,0.0,-0.3603,-0.9154,-0.2050,0.6609,-0.7260,0.1660,0.0928
1123,0.0,0.0,0.0,0.0,0.0,0.0,-0.3685,-0.9231,-0.2216,0.6606,-0.7262,0.1656,0.0939
1124,0.0,0.0,0.0,0.0,0.0,0.0,-0.3374,-0.8867,-0.2270,0.6594,-0.7270,0.1666,0.0944
1125,0.0,0.0,0.0,0.0,0.0,0.0,-0.3295,-0.8578,-0.2669,0.6578,-0.7279,0.1690,0.0944
1126,0.0,0.0,0.0,0.0,0.0,0.0,-0.3461,-0.8617,-0.2571,0.6553,-0.7295,0.1720,0.0935
1127,0.0,0.0,0.0,0.0,0.0,0.0,-0.3291,-0.8701,-0.2398,0.6526,-0.7315,0.1744,0.0926
1128,0.0,0.0,0.0,0.0,0.0,0.0,-0.3212,-0.8963,-0.2442,0.6503,-0.7333,0.1757,0.0920
1129,0.0,0.0,0.0,0.0,0.0,0.0,-0.3358,-0.9137,-0.2479,0.6477,-0.7355,0.1758,0.0927
1130,0.0,0.0,0.0,0.0,0.0,0.0,-0.3378,-0.8801,-0.2716,0.6450,-0.7377,0.1764,0.0935
1131,0.0,0.0,0.0,0.0,0.0,0.0,-0.3295,-0.8679,-0.2826,0.6430,-0.7391,0.1773,0.0941
1132,0.0,0.0,0.0,0.0,0.0,0.0,-0.3245,-0.9014,-0.2871,0.6411,-0.7407,0.1775,0.0944
1133,0.0,0.0,0.0,0.0,0.0,0.0,-0.3445,-0.9223,-0.2708,0.6398,-0.7417,0.1775,0.0951
1134,0.0,0.0,0.0,0.0,0.0,0.0,-0.3572,-0.9232,-0.2722,0.6393,-0.7419,0.1779,0.0962
1135,0.0,0.0,0.0,0.0,0.0,0.0,-0.3420,-0.9198,-0.2922,0.6385,-0.7424,0.1784,0.0970
1136,0.0,0.0,0.0,0.0,0.0,0.0,-0.3303,-0.9071,-0.2974,0.6377,-0.7429,0.1786,0.0978
1137,0.0,0.0,0.0,0.0,0.0,0.0,-0.3328,-0.9032,-0.3061,0.6371,-0.7432,0.1791,0.0984
1138,0.0,0.0,0.0,0.0,0.0,0.0,-0.3499,-0.9096,-0.2905,0.6370,-0.7429,0.1806,0.0983
1139,0.0,0.0,0.0,0.0,0.0,0.0,-0.3445,-0.9022,-0.3021,0.6372,-0.7424,0.1817,0.0989
1140,0.0,0.0,0.0,0.0,0.0,0.0,-0.3406,-0.9007,-0.3045,0.6377,-0.7417,0.1821,0.1002
1141,0.0,0.0,0.0,0.0,0.0,0.0,-0.3508,-0.9261,-0.2864,0.6394,-0.7399,0.1835,0.1002
1142,0.0,0.0,0.0,0.0,0.0,0.0,-0.3278,-0.9211,-0.3137,0.6405,-0.7389,0.1836,0.1005
1143,0.0,0.0,0.0,0.0,0.0,0.0,-0.3406,-0.9071,-0.3022,0.6423,-0.7372,0.1836,0.1015
1144,0.0,0.0,0.0,0.0,0.0,0.0,-0.3352,-0.9056,-0.3017,0.6432,-0.7364,0.1834,0.1021
1145,0.0,0.0,0.0,0.0,0.0,0.0,-0.3225,-0.9023,-0.2993,0.6443,-0.7354,0.1829,0.1026
1146,0.0,0.0,0.0,0.0,0.0,0.0,-0.3308,-0.9202,-0.3005,0.6453,-0.7345,0.1827,0.1030
1147,0.0,0.0,0.0,0.0,0.0,0.0,-0.3587,-0.8999,-0.2801,0.6459,-0.7339,0.1835,0.1026
1148,0.0,0.0,0.0,0.0,0.0,0.0,-0.3376,-0.9124,-0.3038,0.6462,-0.7337,0.1836,0.1018
1149,0.0,0.0,0.0,0.0,0.0,0.0,-0.3308,-0.9250,-0.3079,0.6456,-0.7344,0.1828,0.1016
1150,0.0,0.0,0.0,0.0,0.0,0.0,-0.3244,-0.9212,-0.2991,0.6450,-0.7352,0.1826,0.1009
1151,0.0,0.0,0.0,0.0,0.0,0.0,-0.3220,-0.9042,-0.2964,0.6444,-0.7359,0.1818,0.1010
1152,0.0,0.0,0.0,0.0,0.0,0.0,-0.3327,-0.9183,-0.2990,0.6436,-0.7368,0.1806,0.1017
1153,0.0,0.0,0.0,0.0,0.0,0.0,-0.3479,-0.9062,-0.2919,0.6422,-0.7381,0.1799,0.1021
1154,0.0,0.0,0.0,0.0,0.0,0.0,-0.3303,-0.9100,-0.3028,0.6409,-0.7393,0.1791,0.1028
1155,0.0,0.0,0.0,0.0,0.0,0.0,-0.3274,-0.8989,-0.3002,0.6400,-0.7402,0.1780,0.1039
1156,0.0,0.0,0.0,0.0,0.0,0.0,-0.3396,-0.9207,-0.2995,0.6398,-0.7404,0.1769,0.1054
1157,0.0,0.0,0.0,0.0,0.0,0.0,-0.3352,-0.9183,-0.2956,0.6392,-0.7410,0.1756,0.1073
1158,0.0,0.0,0.0,0.0,0.0,0.0,-0.3450,-0.8980,-0.2821,0.6391,-0.7411,0.1750,0.1084
1159,0.0,0.0,0.0,0.0,0.0,0.0,-0.3455,-0.9193,-0.2883,0.6399,-0.7405,0.1744,0.1090
1160,0.0,0.0,0.0,0.0,0.0,0.0,-0.3357,-0.9116,-0.2853,0.6400,-0.7404,0.1733,0.1100
1161,0.0,0.0,0.0,0.0,0.0,0.0,-0.3225,-0.9077,-0.2916,0.6400,-0.7406,0.1723,0.1107
1162,0.0,0.0,0.0,0.0,0.0,0.0,-0.3211,-0.9135,-0.2903,0.6404,-0.7403,0.1714,0.1115
1163,0.0,0.0,0.0,0.0,0.0,0.0,-0.3289,-0.9150,-0.2815,0.6403,-0.7405,0.1704,0.1124
1164,0.0,0.0,0.0,0.0,0.0,0.0,-0.3299,-0.9194,-0.2738,0.6405,-0.7405,0.1691,0.1134
1165,0.0,0.0,0.0,0.0,0.0,0.0,-0.3240,-0.9189,-0.2835,0.6410,-0.7401,0.1681,0.1142
1166,0.0,0.0,0.0,0.0,0.0,0.0,-0.3348,-0.9019,-0.2803,0.6411,-0.7401,0.1675,0.1150
1167,0.0,0.0,0.0,0.0,0.0,0.0,-0.3348,-0.9087,-0.2706,0.6417,-0.7397,0.1666,0.1157
1168,0.0,0.0,0.0,0.0,0.0,0.0,-0.3343,-0.9025,-0.2647,0.6424,-0.7392,0.1655,0.1162
1169,0.0,0.0,0.0,0.0,0.0,0.0,-0.3333,-0.9077,-0.2736,0.6428,-0.7390,0.1650,0.1161
1170,0.0,0.0,0.0,0.0,0.0,0.0,-0.3172,-0.9174,-0.2821,0.6425,-0.7393,0.1639,0.1168
1171,0.0,0.0,0.0,0.0,0.0,0.0,-0.3265,-0.9092,-0.2726,0.6423,-0.7397,0.1627,0.1179
1172,0.0,0.0,0.0,0.0,0.0,0.0,-0.3275,-0.9117,-0.2712,0.6424,-0.7396,0.1615,0.1193
1173,0.0,0.0,0.0,0.0,0.0,0.0,-0.3495,-0.8917,-0.2678,0.6422,-0.7398,0.1606,0.1204
1174,0.0,0.0,0.0,0.0,0.0,0.0,-0.3582,-0.9097,-0.2671,0.6425,-0.7395,0.1600,0.1212
1175,0.0,0.0,0.0,0.0,0.0,0.0,-0.3543,-0.9228,-0.2664,0.6427,-0.7395,0.1590,0.1220
1176,0.0,0.0,0.0,0.0,0.0,0.0,-0.3484,-0.9141,-0.2692,0.6427,-0.7395,0.1583,0.1230
1177,0.0,0.0,0.0,0.0,0.0,0.0,-0.3465,-0.9150,-0.2683,0.6433,-0.7389,0.1578,0.1239
1178,0.0,0.0,0.0,0.0,0.0,0.0,-0.3465,-0.9194,-0.2659,0.6439,-0.7384,0.1570,0.1248
1179,0.0,0.0,0.0,0.0,0.0,0.0,-0.3494,-0.9175,-0.2639,0.6445,-0.7378,0.1563,0.1258
1180,0.0,0.0,0.0,0.0,0.0,0.0,-0.3499,-0.9063,-0.2695,0.6451,-0.7372,0.1561,0.1267
1181,0.0,0.0,0.0,0.0,0.0,0.0,-0.3514,-0.9000,-0.2641,0.6455,-0.7367,0.1556,0.1277
1182,0.0,0.0,0.0,0.0,0.0,0.0,-0.3480,-0.9049,-0.2598,0.6458,-0.7366,0.1546,0.1288
1183,0.0,0.0,0.0,0.0,0.0,0.0,-0.3441,-0.9049,-0.2569,0.6459,-0.7365,0.1533,0.1299
1184,0.0,0.0,0.0,0.0,0.0,0.0,-0.3446,-0.9045,-0.2520,0.6466,-0.7360,0.1521,0.1307
1185,0.0,0.0,0.0,0.0,0.0,0.0,-0.3436,-0.8986,-0.2563,0.6473,-0.7355,0.1507,0.1320
1186,0.0,0.0,0.0,0.0,0.0,0.0,-0.3417,-0.9016,-0.2505,0.6478,-0.7351,0.1494,0.1329
1187,0.0,0.0,0.0,0.0,0.0,0.0,-0.3407,-0.9084,-0.2482,0.6483,-0.7348,0.1479,0.1338
1188,0.0,0.0,0.0,0.0,0.0,0.0,-0.3378,-0.8997,-0.2428,0.6488,-0.7346,0.1462,0.1347
1189,0.0,0.0,0.0,0.0,0.0,0.0,-0.3383,-0.9040,-0.2462,0.6492,-0.7343,0.1445,0.1358
1190,0.0,0.0,0.0,0.0,0.0,0.0,-0.3382,-0.9094,-0.2458,0.6492,-0.7345,0.1421,0.1371
1191,0.0,0.0,0.0,0.0,0.0,0.0,-0.3461,-0.9143,-0.2303,0.6492,-0.7347,0.1399,0.1382
1192,0.0,0.0,0.0,0.0,0.0,0.0,-0.3544,-0.9318,-0.2243,0.6500,-0.7341,0.1385,0.1393
1193,0.0,0.0,0.0,0.0,0.0,0.0,-0.3544,-0.9225,-0.2304,0.6500,-0.7341,0.1367,0.1409
1194,0.0,0.0,0.0,0.0,0.0,0.0,-0.3461,-0.9099,-0.2371,0.6494,-0.7347,0.1349,0.1425
1195,0.0,0.0,0.0,0.0,0.0,0.0,-0.3329,-0.9050,-0.2443,0.6491,-0.7350,0.1331,0.1442
1196,0.0,0.0,0.0,0.0,0.0,0.0,-0.3241,-0.8992,-0.2521,0.6483,-0.7357,0.1312,0.1458
1197,0.0,0.0,0.0,0.0,0.0,0.0,-0.3236,-0.8972,-0.2564,0.6474,-0.7365,0.1294,0.1470
1198,0.0,0.0,0.0,0.0,0.0,0.0,-0.3329,-0.8957,-0.2597,0.6468,-0.7371,0.1282,0.1480
1199,0.0,0.0,0.0,0.0,0.0,0.0,-0.3363,-0.8996,-0.2617,0.6456,-0.7382,0.1266,0.1492
1200,0.0,0.0,0.0,0.0,0.0,0.0,-0.3275,-0.9015,-0.2701,0.6440,-0.7397,0.1247,0.1503
1201,0.0,0.0,0.0,0.0,0.0,0.0,-0.3221,-0.9102,-0.2698,0.6426,-0.7411,0.1226,0.1509
1202,0.0,0.0,0.0,0.0,0.0,0.0,-0.3279,-0.9228,-0.2670,0.6414,-0.7424,0.1206,0.1513
1203,0.0,0.0,0.0,0.0,0.0,0.0,-0.3392,-0.9204,-0.2635,0.6402,-0.7437,0.1189,0.1516
1204,0.0,0.0,0.0,0.0,0.0,0.0,-0.3411,-0.9209,-0.2606,0.6389,-0.7450,0.1170,0.1519
1205,0.0,0.0,0.0,0.0,0.0,0.0,-0.3362,-0.9204,-0.2636,0.6382,-0.7458,0.1154,0.1523
1206,0.0,0.0,0.0,0.0,0.0,0.0,-0.3401,-0.9199,-0.2679,0.6373,-0.7467,0.1141,0.1527
1207,0.0,0.0,0.0,0.0,0.0,0.0,-0.3479,-0.9233,-0.2645,0.6369,-0.7471,0.1131,0.1531
1208,0.0,0.0,0.0,0.0,0.0,0.0,-0.3440,-0.9199,-0.2684,0.6367,-0.7473,0.1120,0.1538
1209,0.0,0.0,0.0,0.0,0.0,0.0,-0.3304,-0.9082,-0.2770,0.6361,-0.7478,0.1106,0.1547
1210,0.0,0.0,0.0,0.0,0.0,0.0,-0.3182,-0.9014,-0.2808,0.6354,-0.7485,0.1090,0.1554
1211,0.0,0.0,0.0,0.0,0.0,0.0,-0.3138,-0.9087,-0.2800,0.6346,-0.7493,0.1074,0.1558
1212,0.0,0.0,0.0,0.0,0.0,0.0,-0.3221,-0.9136,-0.2786,0.6344,-0.7497,0.1063,0.1558
1213,0.0,0.0,0.0,0.0,0.0,0.0,-0.3284,-0.9189,-0.2767,0.6342,-0.7500,0.1054,0.1558
1214,0.0,0.0,0.0,0.0,0.0,0.0,-0.3313,-0.9218,-0.2835,0.6335,-0.7507,0.1043,0.1559
1215,0.0,0.0,0.0,0.0,0.0,0.0,-0.3318,-0.9194,-0.2777,0.6327,-0.7514,0.1032,0.1562
1216,0.0,0.0,0.0,0.0,0.0,0.0,-0.3274,-0.9213,-0.2748,0.6326,-0.7516,0.1026,0.1561
1217,0.0,0.0,0.0,0.0,0.0,0.0,-0.3284,-0.9267,-0.2705,0.6325,-0.7517,0.1020,0.1561
1218,0.0,0.0,0.0,0.0,0.0,0.0,-0.3323,-0.9345,-0.2721,0.6328,-0.7516,0.1017,0.1559
1219,0.0,0.0,0.0,0.0,0.0,0.0,-0.3391,-0.9355,-0.2638,0.6336,-0.7510,0.1017,0.1556
1220,0.0,0.0,0.0,0.0,0.0,0.0,-0.3367,-0.9311,-0.2691,0.6344,-0.7503,0.1020,0.1557
1221,0.0,0.0,0.0,0.0,0.0,0.0,-0.3274,-0.9199,-0.2651,0.6356,-0.7492,0.1024,0.1557
1222,0.0,0.0,0.0,0.0,0.0,0.0,-0.3245,-0.9185,-0.2694,0.6367,-0.7483,0.1029,0.1555
1223,0.0,0.0,0.0,0.0,0.0,0.0,-0.3284,-0.9063,-0.2726,0.6374,-0.7476,0.1034,0.1556
1224,0.0,0.0,0.0,0.0,0.0,0.0,-0.3309,-0.8956,-0.2714,0.6379,-0.7470,0.1043,0.1556
1225,0.0,0.0,0.0,0.0,0.0,0.0,-0.3289,-0.8980,-0.2754,0.6385,-0.7464,0.1052,0.1555
1226,0.0,0.0,0.0,0.0,0.0,0.0,-0.3250,-0.8937,-0.2729,0.6387,-0.7461,0.1059,0.1555
1227,0.0,0.0,0.0,0.0,0.0,0.0,-0.3241,-0.8976,-0.2759,0.6384,-0.7464,0.1060,0.1555
1228,0.0,0.0,0.0,0.0,0.0,0.0,-0.3294,-0.8893,-0.2776,0.6375,-0.7471,0.1060,0.1555
1229,0.0,0.0,0.0,0.0,0.0,0.0,-0.3294,-0.8941,-0.2772,0.6365,-0.7479,0.1059,0.1556
1230,0.0,0.0,0.0,0.0,0.0,0.0,-0.3328,-0.9092,-0.2755,0.6359,-0.7485,0.1058,0.1556
1231,0.0,0.0,0.0,0.0,0.0,0.0,-0.3382,-0.9106,-0.2765,0.6356,-0.7488,0.1057,0.1553
1232,0.0,0.0,0.0,0.0,0.0,0.0,-0.3362,-0.9131,-0.2775,0.6352,-0.7492,0.1057,0.1550
