,Position_X,Position_Y,Position_Z,Velocity_X,Velocity_Y,Velocity_Z,Acceleration_X,Acceleration_Y,Acceleration_Z,Quaterion_0,Quaterion_1,Quaterion_2,Quaterion_3
207,0.0,0.0,0.0,0.0,0.0,0.0,-0.6459,0.7116,-0.2530,0.1620,0.6819,-0.5027,-0.5060
208,0.0,0.0,0.0,0.0,0.0,0.0,-0.6202,0.7040,-0.2831,0.1608,0.6829,-0.5034,-0.5044
209,0.0,0.0,0.0,0.0,0.0,0.0,-0.5967,0.7175,-0.2930,0.1605,0.6829,-0.5052,-0.5026
210,0.0,0.0,0.0,0.0,0.0,0.0,-0.6314,0.6943,-0.2903,0.1596,0.6833,-0.5059,-0.5017
211,0.0,0.0,0.0,0.0,0.0,0.0,-0.6300,0.6934,-0.2830,0.1592,0.6808,-0.5087,-0.5024
212,0.0,0.0,0.0,0.0,0.0,0.0,-0.6521,0.7134,-0.2695,0.1573,0.6811,-0.5090,-0.5023
213,0.0,0.0,0.0,0.0,0.0,0.0,-0.6448,0.7255,-0.2700,0.1567,0.6797,-0.5105,-0.5029
214,0.0,0.0,0.0,0.0,0.0,0.0,-0.6531,0.7207,-0.2621,0.1558,0.6790,-0.5110,-0.5035
215,0.0,0.0,0.0,0.0,0.0,0.0,-0.6820,0.7131,-0.2531,0.1536,0.6798,-0.5099,-0.5042
216,0.0,0.0,0.0,0.0,0.0,0.0,-0.6775,0.7033,-0.2600,0.1510,0.6812,-0.5081,-0.5050
217,0.0,0.0,0.0,0.0,0.0,0.0,-0.6534,0.6876,-0.2813,0.1487,0.6825,-0.5064,-0.5056
218,0.0,0.0,0.0,0.0,0.0,0.0,-0.6200,0.6884,-0.2992,0.1482,0.6819,-0.5066,-0.5064
219,0.0,0.0,0.0,0.0,0.0,0.0,-0.6259,0.6797,-0.2958,0.1477,0.6815,-0.5067,-0.5070
220,0.0,0.0,0.0,0.0,0.0,0.0,-0.6416,0.6826,-0.2912,0.1468,0.6810,-0.5072,-0.5074
221,0.0,0.0,0.0,0.0,0.0,0.0,-0.6622,0.6915,-0.2807,0.1464,0.6804,-0.5078,-0.5077
222,0.0,0.0,0.0,0.0,0.0,0.0,-0.6804,0.6950,-0.2678,0.1461,0.6797,-0.5082,-0.5084
223,0.0,0.0,0.0,0.0,0.0,0.0,-0.6779,0.6999,-0.2668,0.1455,0.6788,-0.5088,-0.5091
224,0.0,0.0,0.0,0.0,0.0,0.0,-0.6726,0.7057,-0.2693,0.1447,0.6779,-0.5096,-0.5097
225,0.0,0.0,0.0,0.0,0.0,0.0,-0.6765,0.7057,-0.2639,0.1440,0.6771,-0.5101,-0.5105
226,0.0,0.0,0.0,0.0,0.0,0.0,-0.6771,0.7053,-0.2585,0.1433,0.6765,-0.5102,-0.5114
227,0.0,0.0,0.0,0.0,0.0,0.0,-0.6653,0.7028,-0.2616,0.1425,0.6759,-0.5103,-0.5123
228,0.0,0.0,0.0,0.0,0.0,0.0,-0.6550,0.6979,-0.2651,0.1417,0.6754,-0.5104,-0.5131
229,0.0,0.0,0.0,0.0,0.0,0.0,-0.6491,0.6920,-0.2696,0.1410,0.6748,-0.5105,-0.5140
230,0.0,0.0,0.0,0.0,0.0,0.0,-0.6511,0.6882,-0.2687,0.1405,0.6743,-0.5105,-0.5147
231,0.0,0.0,0.0,0.0,0.0,0.0,-0.6594,0.6804,-0.2676,0.1401,0.6741,-0.5105,-0.5152
232,0.0,0.0,0.0,0.0,0.0,0.0,-0.6642,0.6683,-0.2701,0.1395,0.6740,-0.5103,-0.5156
233,0.0,0.0,0.0,0.0,0.0,0.0,-0.6573,0.6653,-0.2765,0.1383,0.6743,-0.5104,-0.5155
234,0.0,0.0,0.0,0.0,0.0,0.0,-0.6524,0.6648,-0.2824,0.1368,0.6746,-0.5108,-0.5150
235,0.0,0.0,0.0,0.0,0.0,0.0,-0.6543,0.6701,-0.2843,0.1352,0.6751,-0.5114,-0.5143
236,0.0,0.0,0.0,0.0,0.0,0.0,-0.6519,0.6788,-0.2858,0.1338,0.6753,-0.5124,-0.5134
237,0.0,0.0,0.0,0.0,0.0,0.0,-0.6479,0.6861,-0.2892,0.1326,0.6755,-0.5134,-0.5124
238,0.0,0.0,0.0,0.0,0.0,0.0,-0.6602,0.6895,-0.2885,0.1314,0.6755,-0.5144,-0.5116
239,0.0,0.0,0.0,0.0,0.0,0.0,-0.6758,0.6935,-0.2830,0.1303,0.6753,-0.5154,-0.5112
240,0.0,0.0,0.0,0.0,0.0,0.0,-0.6753,0.6993,-0.2859,0.1289,0.6753,-0.5161,-0.5108
241,0.0,0.0,0.0,0.0,0.0,0.0,-0.6621,0.7089,-0.2913,0.1278,0.6750,-0.5173,-0.5103
242,0.0,0.0,0.0,0.0,0.0,0.0,-0.6523,0.7113,-0.2944,0.1274,0.6747,-0.5178,-0.5103
243,0.0,0.0,0.0,0.0,0.0,0.0,-0.6513,0.7079,-0.2978,0.1273,0.6741,-0.5185,-0.5104
244,0.0,0.0,0.0,0.0,0.0,0.0,-0.6553,0.7064,-0.2944,0.1277,0.6734,-0.5189,-0.5108
245,0.0,0.0,0.0,0.0,0.0,0.0,-0.6558,0.7045,-0.2924,0.1278,0.6732,-0.5186,-0.5114
246,0.0,0.0,0.0,0.0,0.0,0.0,-0.6434,0.7087,-0.3101,0.1281,0.6722,-0.5187,-0.5126
247,0.0,0.0,0.0,0.0,0.0,0.0,-0.5757,0.6923,-0.3456,0.1305,0.6693,-0.5223,-0.5121
248,0.0,0.0,0.0,0.0,0.0,0.0,-0.6782,0.6682,-0.2909,0.1298,0.6714,-0.5207,-0.5111
249,0.0,0.0,0.0,0.0,0.0,0.0,-0.5884,0.6647,-0.3402,0.1314,0.6693,-0.5228,-0.5114
250,0.0,0.0,0.0,0.0,0.0,0.0,-0.6380,0.6980,-0.3087,0.1318,0.6673,-0.5244,-0.5122
251,0.0,0.0,0.0,0.0,0.0,0.0,-0.6886,0.7110,-0.2774,0.1320,0.6658,-0.5250,-0.5134
252,0.0,0.0,0.0,0.0,0.0,0.0,-0.6749,0.7013,-0.2756,0.1330,0.6628,-0.5270,-0.5151
253,0.0,0.0,0.0,0.0,0.0,0.0,-0.6695,0.6974,-0.2786,0.1323,0.6617,-0.5277,-0.5160
254,0.0,0.0,0.0,0.0,0.0,0.0,-0.6548,0.6866,-0.2867,0.1312,0.6616,-0.5275,-0.5166
255,0.0,0.0,0.0,0.0,0.0,0.0,-0.6519,0.6890,-0.2842,0.1299,0.6617,-0.5274,-0.5169
256,0.0,0.0,0.0,0.0,0.0,0.0,-0.6479,0.6880,-0.2892,0.1284,0.6618,-0.5272,-0.5173
257,0.0,0.0,0.0,0.0,0.0,0.0,-0.6475,0.6890,-0.2892,0.1273,0.6619,-0.5272,-0.5175
258,0.0,0.0,0.0,0.0,0.0,0.0,-0.6357,0.6938,-0.2932,0.1270,0.6611,-0.5278,-0.5180
259,0.0,0.0,0.0,0.0,0.0,0.0,-0.6357,0.6875,-0.2913,0.1266,0.6609,-0.5277,-0.5183
260,0.0,0.0,0.0,0.0,0.0,0.0,-0.6635,0.6711,-0.2901,0.1226,0.6638,-0.5265,-0.5169
261,0.0,0.0,0.0,0.0,0.0,0.0,-0.5275,0.7270,-0.2889,0.1243,0.6612,-0.5295,-0.5167
262,0.0,0.0,0.0,0.0,0.0,0.0,-0.6631,0.7031,-0.2870,0.1247,0.6604,-0.5296,-0.5175
263,0.0,0.0,0.0,0.0,0.0,0.0,-0.6982,0.8267,-0.2625,0.1248,0.6591,-0.5305,-0.5182
264,0.0,0.0,0.0,0.0,0.0,0.0,-0.6715,0.7105,-0.2766,0.1239,0.6587,-0.5307,-0.5188
265,0.0,0.0,0.0,0.0,0.0,0.0,-0.6514,0.7007,-0.2871,0.1233,0.6584,-0.5305,-0.5194
266,0.0,0.0,0.0,0.0,0.0,0.0,-0.6563,0.6954,-0.2822,0.1229,0.6581,-0.5302,-0.5203
267,0.0,0.0,0.0,0.0,0.0,0.0,-0.6602,0.6920,-0.2793,0.1224,0.6579,-0.5298,-0.5211
268,0.0,0.0,0.0,0.0,0.0,0.0,-0.6549,0.6891,-0.2808,0.1220,0.6579,-0.5292,-0.5218
269,0.0,0.0,0.0,0.0,0.0,0.0,-0.6519,0.6876,-0.2838,0.1214,0.6583,-0.5283,-0.5224
270,0.0,0.0,0.0,0.0,0.0,0.0,-0.6480,0.6827,-0.2873,0.1209,0.6585,-0.5276,-0.5229
271,0.0,0.0,0.0,0.0,0.0,0.0,-0.6445,0.6827,-0.2892,0.1206,0.6588,-0.5270,-0.5232
272,0.0,0.0,0.0,0.0,0.0,0.0,-0.6529,0.6856,-0.2857,0.1206,0.6589,-0.5264,-0.5236
273,0.0,0.0,0.0,0.0,0.0,0.0,-0.6577,0.6837,-0.2852,0.1203,0.6592,-0.5257,-0.5240
274,0.0,0.0,0.0,0.0,0.0,0.0,-0.6611,0.6856,-0.2861,0.1201,0.6595,-0.5250,-0.5244
275,0.0,0.0,0.0,0.0,0.0,0.0,-0.6616,0.6861,-0.2866,0.1200,0.6597,-0.5244,-0.5248
276,0.0,0.0,0.0,0.0,0.0,0.0,-0.6552,0.6841,-0.2906,0.1200,0.6598,-0.5240,-0.5251
277,0.0,0.0,0.0,0.0,0.0,0.0,-0.6557,0.6802,-0.2930,0.1199,0.6600,-0.5235,-0.5254
278,0.0,0.0,0.0,0.0,0.0,0.0,-0.6596,0.6803,-0.2896,0.1198,0.6600,-0.5231,-0.5257
279,0.0,0.0,0.0,0.0,0.0,0.0,-0.6675,0.6832,-0.2865,0.1199,0.6600,-0.5227,-0.5261
280,0.0,0.0,0.0,0.0,0.0,0.0,-0.6744,0.6886,-0.2825,0.1197,0.6600,-0.5225,-0.5264
281,0.0,0.0,0.0,0.0,0.0,0.0,-0.6734,0.6886,-0.2850,0.1194,0.6600,-0.5222,-0.5267
282,0.0,0.0,0.0,0.0,0.0,0.0,-0.6261,0.6615,-0.3222,0.1182,0.6606,-0.5241,-0.5244
283,0.0,0.0,0.0,0.0,0.0,0.0,-0.6432,0.6402,-0.3226,0.1164,0.6622,-0.5245,-0.5223
284,0.0,0.0,0.0,0.0,0.0,0.0,-0.6376,0.6367,-0.3393,0.1138,0.6632,-0.5259,-0.5202
285,0.0,0.0,0.0,0.0,0.0,0.0,-0.6746,0.6753,-0.3080,0.1123,0.6628,-0.5278,-0.5192
286,0.0,0.0,0.0,0.0,0.0,0.0,-0.7021,0.6969,-0.2885,0.1113,0.6617,-0.5295,-0.5190
287,0.0,0.0,0.0,0.0,0.0,0.0,-0.6733,0.6953,-0.2976,0.1120,0.6593,-0.5320,-0.5194
288,0.0,0.0,0.0,0.0,0.0,0.0,-0.6713,0.6939,-0.2947,0.1124,0.6567,-0.5345,-0.5200
289,0.0,0.0,0.0,0.0,0.0,0.0,-0.6615,0.6802,-0.2959,0.1122,0.6553,-0.5358,-0.5205
290,0.0,0.0,0.0,0.0,0.0,0.0,-0.6547,0.6846,-0.2964,0.1119,0.6539,-0.5370,-0.5210
291,0.0,0.0,0.0,0.0,0.0,0.0,-0.6450,0.6981,-0.2984,0.1124,0.6521,-0.5383,-0.5219
292,0.0,0.0,0.0,0.0,0.0,0.0,-0.6538,0.7002,-0.2895,0.1132,0.6501,-0.5390,-0.5235
293,0.0,0.0,0.0,0.0,0.0,0.0,-0.6617,0.6978,-0.2821,0.1139,0.6480,-0.5393,-0.5256
294,0.0,0.0,0.0,0.0,0.0,0.0,-0.6456,0.6910,-0.2843,0.1141,0.6472,-0.5384,-0.5275
295,0.0,0.0,0.0,0.0,0.0,0.0,-0.6313,0.6797,-0.2957,0.1128,0.6484,-0.5366,-0.5281
296,0.0,0.0,0.0,0.0,0.0,0.0,-0.6165,0.6665,-0.3052,0.1108,0.6498,-0.5352,-0.5282
297,0.0,0.0,0.0,0.0,0.0,0.0,-0.6075,0.5800,-0.3082,0.1114,0.6482,-0.5363,-0.5290
298,0.0,0.0,0.0,0.0,0.0,0.0,-0.6131,0.6602,-0.3039,0.1134,0.6444,-0.5390,-0.5304
299,0.0,0.0,0.0,0.0,0.0,0.0,-0.6353,0.6885,-0.2879,0.1149,0.6399,-0.5423,-0.5322
300,0.0,0.0,0.0,0.0,0.0,0.0,-0.6275,0.7117,-0.2907,0.1179,0.6332,-0.5473,-0.5344
301,0.0,0.0,0.0,0.0,0.0,0.0,-0.6198,0.7303,-0.2771,0.1216,0.6261,-0.5524,-0.5367
302,0.0,0.0,0.0,0.0,0.0,0.0,-0.6112,0.7488,-0.2634,0.1260,0.6182,-0.5577,-0.5394
303,0.0,0.0,0.0,0.0,0.0,0.0,-0.5981,0.7619,-0.2557,0.1310,0.6104,-0.5627,-0.5419
304,0.0,0.0,0.0,0.0,0.0,0.0,-0.5880,0.7736,-0.2489,0.1365,0.6031,-0.5671,-0.5441
305,0.0,0.0,0.0,0.0,0.0,0.0,-0.5836,0.7809,-0.2426,0.1419,0.5967,-0.5704,-0.5464
306,0.0,0.0,0.0,0.0,0.0,0.0,-0.5807,0.7862,-0.2411,0.1463,0.5916,-0.5732,-0.5478
307,0.0,0.0,0.0,0.0,0.0,0.0,-0.5720,0.7882,-0.2388,0.1495,0.5873,-0.5755,-0.5490
308,0.0,0.0,0.0,0.0,0.0,0.0,-0.5539,0.7881,-0.2414,0.1521,0.5838,-0.5776,-0.5499
309,0.0,0.0,0.0,0.0,0.0,0.0,-0.5432,0.7925,-0.2420,0.1549,0.5805,-0.5795,-0.5505
310,0.0,0.0,0.0,0.0,0.0,0.0,-0.5344,0.7954,-0.2411,0.1581,0.5772,-0.5813,-0.5512
311,0.0,0.0,0.0,0.0,0.0,0.0,-0.5320,0.7988,-0.2382,0.1610,0.5741,-0.5831,-0.5518
312,0.0,0.0,0.0,0.0,0.0,0.0,-0.5326,0.8105,-0.2318,0.1642,0.5710,-0.5847,-0.5523
313,0.0,0.0,0.0,0.0,0.0,0.0,-0.5312,0.8236,-0.2249,0.1676,0.5681,-0.5861,-0.5529
314,0.0,0.0,0.0,0.0,0.0,0.0,-0.5264,0.8353,-0.2190,0.1709,0.5653,-0.5872,-0.5535
315,0.0,0.0,0.0,0.0,0.0,0.0,-0.5171,0.8440,-0.2181,0.1742,0.5627,-0.5882,-0.5541
316,0.0,0.0,0.0,0.0,0.0,0.0,-0.5142,0.8489,-0.2142,0.1778,0.5600,-0.5890,-0.5548
317,0.0,0.0,0.0,0.0,0.0,0.0,-0.5168,0.8470,-0.2045,0.1808,0.5579,-0.5895,-0.5555
318,0.0,0.0,0.0,0.0,0.0,0.0,-0.5109,0.8451,-0.2050,0.1830,0.5563,-0.5897,-0.5562
319,0.0,0.0,0.0,0.0,0.0,0.0,-0.5006,0.8475,-0.2071,0.1856,0.5546,-0.5897,-0.5570
320,0.0,0.0,0.0,0.0,0.0,0.0,-0.4958,0.8465,-0.2047,0.1879,0.5532,-0.5896,-0.5576
321,0.0,0.0,0.0,0.0,0.0,0.0,-0.4963,0.8470,-0.2013,0.1901,0.5518,-0.5895,-0.5584
322,0.0,0.0,0.0,0.0,0.0,0.0,-0.4914,0.8441,-0.2008,0.1923,0.5505,-0.5893,-0.5592
323,0.0,0.0,0.0,0.0,0.0,0.0,-0.4802,0.8431,-0.2044,0.1939,0.5497,-0.5891,-0.5596
324,0.0,0.0,0.0,0.0,0.0,0.0,-0.4709,0.8406,-0.2079,0.1954,0.5492,-0.5889,-0.5599
325,0.0,0.0,0.0,0.0,0.0,0.0,-0.4596,0.8367,-0.2095,0.1967,0.5487,-0.5889,-0.5598
326,0.0,0.0,0.0,0.0,0.0,0.0,-0.4523,0.8410,-0.2076,0.1982,0.5482,-0.5892,-0.5595
327,0.0,0.0,0.0,0.0,0.0,0.0,-0.4464,0.8356,-0.2131,0.1995,0.5479,-0.5895,-0.5591
328,0.0,0.0,0.0,0.0,0.0,0.0,-0.4420,0.8371,-0.2136,0.2005,0.5475,-0.5901,-0.5584
329,0.0,0.0,0.0,0.0,0.0,0.0,-0.4328,0.8453,-0.2108,0.2021,0.5463,-0.5915,-0.5575
330,0.0,0.0,0.0,0.0,0.0,0.0,-0.4264,0.8468,-0.2103,0.2038,0.5449,-0.5933,-0.5564
331,0.0,0.0,0.0,0.0,0.0,0.0,-0.4319,0.8570,-0.2053,0.2060,0.5435,-0.5947,-0.5554
332,0.0,0.0,0.0,0.0,0.0,0.0,-0.4427,0.8668,-0.1964,0.2083,0.5422,-0.5960,-0.5545
333,0.0,0.0,0.0,0.0,0.0,0.0,-0.4413,0.8736,-0.1915,0.2102,0.5411,-0.5973,-0.5535
334,0.0,0.0,0.0,0.0,0.0,0.0,-0.4359,0.8819,-0.1935,0.2116,0.5403,-0.5984,-0.5524
335,0.0,0.0,0.0,0.0,0.0,0.0,-0.4414,0.8892,-0.1880,0.2130,0.5397,-0.5993,-0.5515
336,0.0,0.0,0.0,0.0,0.0,0.0,-0.4370,0.8989,-0.1817,0.2142,0.5391,-0.6000,-0.5508
337,0.0,0.0,0.0,0.0,0.0,0.0,-0.4287,0.9003,-0.1852,0.2151,0.5387,-0.6007,-0.5502
338,0.0,0.0,0.0,0.0,0.0,0.0,-0.4248,0.8950,-0.1867,0.2159,0.5387,-0.6013,-0.5492
339,0.0,0.0,0.0,0.0,0.0,0.0,-0.4237,0.8891,-0.1931,0.2157,0.5397,-0.6024,-0.5471
340,0.0,0.0,0.0,0.0,0.0,0.0,-0.4383,0.8731,-0.2028,0.2146,0.5415,-0.6034,-0.5446
341,0.0,0.0,0.0,0.0,0.0,0.0,-0.4407,0.8779,-0.2003,0.2135,0.5433,-0.6041,-0.5425
342,0.0,0.0,0.0,0.0,0.0,0.0,-0.4265,0.8773,-0.2146,0.2112,0.5454,-0.6047,-0.5407
343,0.0,0.0,0.0,0.0,0.0,0.0,-0.4121,0.8655,-0.2328,0.2088,0.5473,-0.6054,-0.5389
344,0.0,0.0,0.0,0.0,0.0,0.0,-0.4076,0.8669,-0.2451,0.2070,0.5488,-0.6067,-0.5366
345,0.0,0.0,0.0,0.0,0.0,0.0,-0.4296,0.8587,-0.2380,0.2061,0.5494,-0.6077,-0.5352
346,0.0,0.0,0.0,0.0,0.0,0.0,-0.4503,0.8686,-0.2202,0.2062,0.5494,-0.6080,-0.5348
347,0.0,0.0,0.0,0.0,0.0,0.0,-0.4617,0.8852,-0.2058,0.2062,0.5493,-0.6078,-0.5351
348,0.0,0.0,0.0,0.0,0.0,0.0,-0.4598,0.8930,-0.2009,0.2059,0.5497,-0.6072,-0.5355
349,0.0,0.0,0.0,0.0,0.0,0.0,-0.4456,0.8891,-0.2060,0.2051,0.5504,-0.6064,-0.5360
350,0.0,0.0,0.0,0.0,0.0,0.0,-0.4312,0.8758,-0.2233,0.2042,0.5514,-0.6053,-0.5366
351,0.0,0.0,0.0,0.0,0.0,0.0,-0.4224,0.8645,-0.2332,0.2037,0.5526,-0.6041,-0.5369
352,0.0,0.0,0.0,0.0,0.0,0.0,-0.4248,0.8617,-0.2293,0.2038,0.5538,-0.6029,-0.5369
353,0.0,0.0,0.0,0.0,0.0,0.0,-0.4356,0.8583,-0.2238,0.2037,0.5552,-0.6016,-0.5370
354,0.0,0.0,0.0,0.0,0.0,0.0,-0.4400,0.8506,-0.2228,0.2032,0.5570,-0.6003,-0.5367
355,0.0,0.0,0.0,0.0,0.0,0.0,-0.4380,0.8467,-0.2273,0.2027,0.5585,-0.5994,-0.5363
356,0.0,0.0,0.0,0.0,0.0,0.0,-0.4399,0.8442,-0.2312,0.2022,0.5599,-0.5981,-0.5366
357,0.0,0.0,0.0,0.0,0.0,0.0,-0.4594,0.8457,-0.2314,0.2014,0.5620,-0.5970,-0.5359
358,0.0,0.0,0.0,0.0,0.0,0.0,-0.4702,0.8439,-0.2250,0.2005,0.5641,-0.5964,-0.5347
359,0.0,0.0,0.0,0.0,0.0,0.0,-0.4711,0.8414,-0.2323,0.1995,0.5661,-0.5954,-0.5340
360,0.0,0.0,0.0,0.0,0.0,0.0,-0.4789,0.8370,-0.2327,0.1988,0.5678,-0.5946,-0.5334
361,0.0,0.0,0.0,0.0,0.0,0.0,-0.4725,0.8379,-0.2401,0.1987,0.5686,-0.5941,-0.5332
362,0.0,0.0,0.0,0.0,0.0,0.0,-0.4765,0.8438,-0.2317,0.1986,0.5696,-0.5936,-0.5327
363,0.0,0.0,0.0,0.0,0.0,0.0,-0.4816,0.8576,-0.2106,0.1996,0.5701,-0.5930,-0.5325
364,0.0,0.0,0.0,0.0,0.0,0.0,-0.5022,0.8176,-0.2413,0.1990,0.5704,-0.5914,-0.5341
365,0.0,0.0,0.0,0.0,0.0,0.0,-0.4844,0.8498,-0.2189,0.1979,0.5723,-0.5916,-0.5322
366,0.0,0.0,0.0,0.0,0.0,0.0,-0.4552,0.8667,-0.2148,0.1988,0.5731,-0.5903,-0.5326
367,0.0,0.0,0.0,0.0,0.0,0.0,-0.4730,0.8234,-0.2334,0.1985,0.5748,-0.5885,-0.5328
368,0.0,0.0,0.0,0.0,0.0,0.0,-0.4667,0.8331,-0.2300,0.1982,0.5762,-0.5875,-0.5325
369,0.0,0.0,0.0,0.0,0.0,0.0,-0.4736,0.8278,-0.2265,0.1980,0.5776,-0.5862,-0.5325
370,0.0,0.0,0.0,0.0,0.0,0.0,-0.4858,0.8289,-0.2210,0.1972,0.5794,-0.5850,-0.5321
371,0.0,0.0,0.0,0.0,0.0,0.0,-0.4864,0.8449,-0.2146,0.1955,0.5811,-0.5847,-0.5312
372,0.0,0.0,0.0,0.0,0.0,0.0,-0.4804,0.8191,-0.2309,0.1936,0.5837,-0.5843,-0.5296
373,0.0,0.0,0.0,0.0,0.0,0.0,-0.4718,0.8009,-0.2574,0.1906,0.5879,-0.5841,-0.5262
374,0.0,0.0,0.0,0.0,0.0,0.0,-0.4661,0.7866,-0.2848,0.1869,0.5930,-0.5845,-0.5213
375,0.0,0.0,0.0,0.0,0.0,0.0,-0.4695,0.7851,-0.2941,0.1838,0.5972,-0.5855,-0.5165
376,0.0,0.0,0.0,0.0,0.0,0.0,-0.4769,0.8308,-0.2952,0.1797,0.6004,-0.5877,-0.5117
377,0.0,0.0,0.0,0.0,0.0,0.0,-0.5036,0.8245,-0.3032,0.1754,0.6040,-0.5893,-0.5070
378,0.0,0.0,0.0,0.0,0.0,0.0,-0.5359,0.8454,-0.2994,0.1728,0.6060,-0.5913,-0.5032
379,0.0,0.0,0.0,0.0,0.0,0.0,-0.5584,0.8533,-0.2981,0.1701,0.6075,-0.5934,-0.4999
380,0.0,0.0,0.0,0.0,0.0,0.0,-0.5643,0.8131,-0.2880,0.1662,0.6095,-0.5949,-0.4970
381,0.0,0.0,0.0,0.0,0.0,0.0,-0.5499,0.8027,-0.3033,0.1619,0.6120,-0.5958,-0.4943
382,0.0,0.0,0.0,0.0,0.0,0.0,-0.5370,0.8098,-0.3293,0.1572,0.6146,-0.5965,-0.4917
383,0.0,0.0,0.0,0.0,0.0,0.0,-0.5335,0.7879,-0.3377,0.1516,0.6174,-0.5972,-0.4891
384,0.0,0.0,0.0,0.0,0.0,0.0,-0.5321,0.7419,-0.3234,0.1459,0.6200,-0.5977,-0.4869
385,0.0,0.0,0.0,0.0,0.0,0.0,-0.5359,0.7335,-0.3326,0.1421,0.6224,-0.5976,-0.4851
386,0.0,0.0,0.0,0.0,0.0,0.0,-0.5481,0.7394,-0.3344,0.1405,0.6239,-0.5974,-0.4838
387,0.0,0.0,0.0,0.0,0.0,0.0,-0.5485,0.7340,-0.3417,0.1396,0.6253,-0.5973,-0.4823
388,0.0,0.0,0.0,0.0,0.0,0.0,-0.5459,0.7261,-0.3569,0.1392,0.6272,-0.5969,-0.4806
389,0.0,0.0,0.0,0.0,0.0,0.0,-0.5432,0.7395,-0.3876,0.1403,0.6286,-0.5967,-0.4786
390,0.0,0.0,0.0,0.0,0.0,0.0,-0.5501,0.7308,-0.3778,0.1386,0.6310,-0.5962,-0.4766
391,0.0,0.0,0.0,0.0,0.0,0.0,-0.5476,0.7264,-0.3808,0.1371,0.6334,-0.5957,-0.4745
392,0.0,0.0,0.0,0.0,0.0,0.0,-0.5490,0.7075,-0.3814,0.1365,0.6353,-0.5949,-0.4731
393,0.0,0.0,0.0,0.0,0.0,0.0,-0.5383,0.7332,-0.3867,0.1386,0.6356,-0.5948,-0.4723
394,0.0,0.0,0.0,0.0,0.0,0.0,-0.5296,0.7923,-0.3924,0.1411,0.6358,-0.5949,-0.4711
395,0.0,0.0,0.0,0.0,0.0,0.0,-0.5352,0.8052,-0.3649,0.1430,0.6368,-0.5937,-0.4707
396,0.0,0.0,0.0,0.0,0.0,0.0,-0.5372,0.8222,-0.3643,0.1452,0.6374,-0.5926,-0.4706
397,0.0,0.0,0.0,0.0,0.0,0.0,-0.5333,0.8255,-0.3702,0.1481,0.6371,-0.5918,-0.4711
398,0.0,0.0,0.0,0.0,0.0,0.0,-0.5312,0.7867,-0.3719,0.1517,0.6369,-0.5899,-0.4726
399,0.0,0.0,0.0,0.0,0.0,0.0,-0.5179,0.7623,-0.3844,0.1559,0.6367,-0.5876,-0.4744
400,0.0,0.0,0.0,0.0,0.0,0.0,-0.5084,0.7693,-0.4103,0.1584,0.6376,-0.5853,-0.4751
401,0.0,0.0,0.0,0.0,0.0,0.0,-0.5118,0.7393,-0.4060,0.1581,0.6392,-0.5843,-0.4744
402,0.0,0.0,0.0,0.0,0.0,0.0,-0.5246,0.6894,-0.3871,0.1573,0.6398,-0.5843,-0.4738
403,0.0,0.0,0.0,0.0,0.0,0.0,-0.5534,0.6842,-0.3834,0.1567,0.6398,-0.5847,-0.4734
404,0.0,0.0,0.0,0.0,0.0,0.0,-0.5533,0.6919,-0.3931,0.1552,0.6398,-0.5860,-0.4723
405,0.0,0.0,0.0,0.0,0.0,0.0,-0.5406,0.6628,-0.3915,0.1538,0.6396,-0.5877,-0.4710
406,0.0,0.0,0.0,0.0,0.0,0.0,-0.5297,0.6655,-0.4043,0.1525,0.6399,-0.5893,-0.4691
407,0.0,0.0,0.0,0.0,0.0,0.0,-0.5312,0.6956,-0.4075,0.1515,0.6400,-0.5915,-0.4664
408,0.0,0.0,0.0,0.0,0.0,0.0,-0.5382,0.6953,-0.3943,0.1517,0.6394,-0.5942,-0.4638
409,0.0,0.0,0.0,0.0,0.0,0.0,-0.5190,0.7314,-0.4177,0.1515,0.6382,-0.5979,-0.4607
410,0.0,0.0,0.0,0.0,0.0,0.0,-0.5167,0.7573,-0.4059,0.1521,0.6364,-0.6010,-0.4590
411,0.0,0.0,0.0,0.0,0.0,0.0,-0.5359,0.8030,-0.3952,0.1515,0.6346,-0.6036,-0.4581
412,0.0,0.0,0.0,0.0,0.0,0.0,-0.5686,0.8650,-0.3564,0.1505,0.6334,-0.6047,-0.4588
413,0.0,0.0,0.0,0.0,0.0,0.0,-0.5714,0.8731,-0.3193,0.1502,0.6324,-0.6041,-0.4611
414,0.0,0.0,0.0,0.0,0.0,0.0,-0.5364,0.8639,-0.3593,0.1501,0.6312,-0.6021,-0.4654
415,0.0,0.0,0.0,0.0,0.0,0.0,-0.5342,0.8265,-0.3741,0.1491,0.6303,-0.5989,-0.4709
416,0.0,0.0,0.0,0.0,0.0,0.0,-0.5224,0.7619,-0.3677,0.1471,0.6295,-0.5959,-0.4764
417,0.0,0.0,0.0,0.0,0.0,0.0,-0.5282,0.7662,-0.3808,0.1417,0.6280,-0.5939,-0.4825
418,0.0,0.0,0.0,0.0,0.0,0.0,-0.5292,0.7662,-0.3779,0.1383,0.6227,-0.5928,-0.4917
419,0.0,0.0,0.0,0.0,0.0,0.0,-0.4866,0.7300,-0.3322,0.1364,0.6135,-0.5939,-0.5023
420,0.0,0.0,0.0,0.0,0.0,0.0,-0.4711,0.7552,-0.2659,0.1345,0.5996,-0.5948,-0.5183
421,0.0,0.0,0.0,0.0,0.0,0.0,-0.4513,0.7461,-0.2399,0.1357,0.5833,-0.5948,-0.5362
422,0.0,0.0,0.0,0.0,0.0,0.0,-0.5703,0.7229,-0.1991,0.1387,0.5706,-0.5919,-0.5521
423,0.0,0.0,0.0,0.0,0.0,0.0,-0.5736,0.7683,-0.1633,0.1332,0.5643,-0.5910,-0.5608
424,0.0,0.0,0.0,0.0,0.0,0.0,-0.5236,0.8150,-0.1982,0.1368,0.5543,-0.5942,-0.5665
425,0.0,0.0,0.0,0.0,0.0,0.0,-0.5581,0.8003,-0.1608,0.1389,0.5455,-0.5995,-0.5690
426,0.0,0.0,0.0,0.0,0.0,0.0,-0.5273,0.8177,-0.1630,0.1310,0.5389,-0.6104,-0.5656
427,0.0,0.0,0.0,0.0,0.0,0.0,-0.5220,0.8116,-0.2075,0.1181,0.5386,-0.6237,-0.5541
428,0.0,0.0,0.0,0.0,0.0,0.0,-0.5010,0.8000,-0.2639,0.1037,0.5431,-0.6381,-0.5359
429,0.0,0.0,0.0,0.0,0.0,0.0,-0.4451,0.8297,-0.2975,0.0931,0.5423,-0.6542,-0.5189
430,0.0,0.0,0.0,0.0,0.0,0.0,-0.5165,0.8208,-0.2778,0.0850,0.5435,-0.6648,-0.5054
431,0.0,0.0,0.0,0.0,0.0,0.0,-0.5364,0.8250,-0.2999,0.0762,0.5461,-0.6720,-0.4944
432,0.0,0.0,0.0,0.0,0.0,0.0,-0.5323,0.7959,-0.3070,0.0698,0.5475,-0.6772,-0.4866
433,0.0,0.0,0.0,0.0,0.0,0.0,-0.5576,0.7633,-0.3152,0.0643,0.5505,-0.6790,-0.4814
434,0.0,0.0,0.0,0.0,0.0,0.0,-0.5569,0.7627,-0.3327,0.0600,0.5533,-0.6800,-0.4774
435,0.0,0.0,0.0,0.0,0.0,0.0,-0.5602,0.7490,-0.3489,0.0561,0.5558,-0.6804,-0.4743
436,0.0,0.0,0.0,0.0,0.0,0.0,-0.5588,0.7297,-0.3353,0.0536,0.5580,-0.6794,-0.4734
437,0.0,0.0,0.0,0.0,0.0,0.0,-0.5631,0.7141,-0.3456,0.0526,0.5603,-0.6772,-0.4740
438,0.0,0.0,0.0,0.0,0.0,0.0,-0.5581,0.6767,-0.3429,0.0520,0.5627,-0.6744,-0.4751
439,0.0,0.0,0.0,0.0,0.0,0.0,-0.5551,0.6704,-0.3498,0.0525,0.5648,-0.6720,-0.4761
440,0.0,0.0,0.0,0.0,0.0,0.0,-0.5559,0.6983,-0.3804,0.0526,0.5665,-0.6714,-0.4749
441,0.0,0.0,0.0,0.0,0.0,0.0,-0.5775,0.6927,-0.3582,0.0524,0.5680,-0.6713,-0.4733
442,0.0,0.0,0.0,0.0,0.0,0.0,-0.5745,0.6965,-0.3714,0.0518,0.5695,-0.6716,-0.4710
443,0.0,0.0,0.0,0.0,0.0,0.0,-0.5706,0.6960,-0.3729,0.0517,0.5710,-0.6718,-0.4690
444,0.0,0.0,0.0,0.0,0.0,0.0,-0.5741,0.7135,-0.3679,0.0536,0.5720,-0.6715,-0.4680
445,0.0,0.0,0.0,0.0,0.0,0.0,-0.5881,0.7803,-0.3962,0.0566,0.5721,-0.6712,-0.4679
446,0.0,0.0,0.0,0.0,0.0,0.0,-0.5989,0.7984,-0.3891,0.0580,0.5722,-0.6709,-0.4681
447,0.0,0.0,0.0,0.0,0.0,0.0,-0.6063,0.7698,-0.3755,0.0582,0.5724,-0.6700,-0.4692
448,0.0,0.0,0.0,0.0,0.0,0.0,-0.5886,0.7289,-0.3886,0.0596,0.5716,-0.6680,-0.4728
449,0.0,0.0,0.0,0.0,0.0,0.0,-0.5640,0.7399,-0.4103,0.0632,0.5692,-0.6654,-0.4788
450,0.0,0.0,0.0,0.0,0.0,0.0,-0.5795,0.7466,-0.4208,0.0691,0.5653,-0.6613,-0.4881
451,0.0,0.0,0.0,0.0,0.0,0.0,-0.6326,0.8004,-0.3878,0.0853,0.5603,-0.6521,-0.5036
452,0.0,0.0,0.0,0.0,0.0,0.0,-0.6102,0.8272,-0.2894,0.1075,0.5552,-0.6383,-0.5222
453,0.0,0.0,0.0,0.0,0.0,0.0,-0.5219,0.7476,-0.2610,0.1282,0.5511,-0.6250,-0.5378
454,0.0,0.0,0.0,0.0,0.0,0.0,-0.5202,0.7041,-0.2281,0.1439,0.5497,-0.6118,-0.5503
455,0.0,0.0,0.0,0.0,0.0,0.0,-0.5174,0.6456,-0.1977,0.1459,0.5512,-0.6054,-0.5553
456,0.0,0.0,0.0,0.0,0.0,0.0,-0.4872,0.7184,-0.2581,0.1344,0.5544,-0.6083,-0.5519
457,0.0,0.0,0.0,0.0,0.0,0.0,-0.4843,0.7490,-0.3185,0.1181,0.5577,-0.6169,-0.5427
458,0.0,0.0,0.0,0.0,0.0,0.0,-0.4989,0.7651,-0.3241,0.1052,0.5603,-0.6272,-0.5307
459,0.0,0.0,0.0,0.0,0.0,0.0,-0.5208,0.8494,-0.3536,0.0969,0.5613,-0.6374,-0.5189
460,0.0,0.0,0.0,0.0,0.0,0.0,-0.5280,0.8211,-0.3025,0.0962,0.5602,-0.6441,-0.5119
461,0.0,0.0,0.0,0.0,0.0,0.0,-0.5178,0.8167,-0.3012,0.0986,0.5592,-0.6480,-0.5075
462,0.0,0.0,0.0,0.0,0.0,0.0,-0.5293,0.8496,-0.3287,0.1006,0.5592,-0.6499,-0.5047
463,0.0,0.0,0.0,0.0,0.0,0.0,-0.5420,0.8424,-0.3261,0.1014,0.5597,-0.6499,-0.5040
464,0.0,0.0,0.0,0.0,0.0,0.0,-0.5372,0.8595,-0.3719,0.1048,0.5603,-0.6475,-0.5058
465,0.0,0.0,0.0,0.0,0.0,0.0,-0.5351,0.8831,-0.3977,0.1178,0.5611,-0.6385,-0.5134
466,0.0,0.0,0.0,0.0,0.0,0.0,-0.5150,0.8290,-0.2865,0.1413,0.5619,-0.6234,-0.5250
467,0.0,0.0,0.0,0.0,0.0,0.0,-0.4638,0.7867,-0.2688,0.1684,0.5603,-0.6045,-0.5406
468,0.0,0.0,0.0,0.0,0.0,0.0,-0.4320,0.7875,-0.2794,0.1994,0.5574,-0.5838,-0.5557
469,0.0,0.0,0.0,0.0,0.0,0.0,-0.4412,0.7540,-0.2272,0.2281,0.5539,-0.5654,-0.5670
470,0.0,0.0,0.0,0.0,0.0,0.0,-0.4519,0.7975,-0.1854,0.2504,0.5514,-0.5523,-0.5730
471,0.0,0.0,0.0,0.0,0.0,0.0,-0.4534,0.8104,-0.1385,0.2661,0.5503,-0.5450,-0.5739
472,0.0,0.0,0.0,0.0,0.0,0.0,-0.4358,0.9006,-0.1548,0.2769,0.5518,-0.5411,-0.5710
473,0.0,0.0,0.0,0.0,0.0,0.0,-0.4612,0.8968,-0.1516,0.2842,0.5544,-0.5388,-0.5671
474,0.0,0.0,0.0,0.0,0.0,0.0,-0.4754,0.8803,-0.1506,0.2892,0.5571,-0.5380,-0.5627
475,0.0,0.0,0.0,0.0,0.0,0.0,-0.4415,0.8660,-0.1691,0.2914,0.5597,-0.5385,-0.5584
476,0.0,0.0,0.0,0.0,0.0,0.0,-0.3993,0.8813,-0.1934,0.2906,0.5599,-0.5417,-0.5555
477,0.0,0.0,0.0,0.0,0.0,0.0,-0.4156,0.9014,-0.1736,0.2901,0.5587,-0.5445,-0.5542
478,0.0,0.0,0.0,0.0,0.0,0.0,-0.4280,0.9131,-0.1632,0.2888,0.5581,-0.5473,-0.5528
479,0.0,0.0,0.0,0.0,0.0,0.0,-0.4240,0.8981,-0.1623,0.2868,0.5579,-0.5507,-0.5506
480,0.0,0.0,0.0,0.0,0.0,0.0,-0.4435,0.9014,-0.1728,0.2847,0.5591,-0.5522,-0.5490
481,0.0,0.0,0.0,0.0,0.0,0.0,-0.4122,0.8863,-0.1752,0.2812,0.5604,-0.5539,-0.5479
482,0.0,0.0,0.0,0.0,0.0,0.0,-0.4064,0.8630,-0.1661,0.2769,0.5614,-0.5558,-0.5470
483,0.0,0.0,0.0,0.0,0.0,0.0,-0.4101,0.8663,-0.1807,0.2735,0.5630,-0.5578,-0.5451
484,0.0,0.0,0.0,0.0,0.0,0.0,-0.4037,0.8658,-0.1924,0.2703,0.5640,-0.5600,-0.5433
485,0.0,0.0,0.0,0.0,0.0,0.0,-0.3919,0.8487,-0.1927,0.2657,0.5640,-0.5627,-0.5428
486,0.0,0.0,0.0,0.0,0.0,0.0,-0.3905,0.8545,-0.1941,0.2603,0.5636,-0.5664,-0.5421
487,0.0,0.0,0.0,0.0,0.0,0.0,-0.4219,0.8451,-0.1728,0.2534,0.5630,-0.5712,-0.5409
488,0.0,0.0,0.0,0.0,0.0,0.0,-0.4268,0.8301,-0.1616,0.2448,0.5614,-0.5781,-0.5392
489,0.0,0.0,0.0,0.0,0.0,0.0,-0.4318,0.8351,-0.2069,0.2317,0.5587,-0.5894,-0.5355
490,0.0,0.0,0.0,0.0,0.0,0.0,-0.4240,0.8377,-0.2592,0.2102,0.5541,-0.6072,-0.5292
491,0.0,0.0,0.0,0.0,0.0,0.0,-0.4298,0.9003,-0.3320,0.1842,0.5487,-0.6283,-0.5199
492,0.0,0.0,0.0,0.0,0.0,0.0,-0.4437,0.9257,-0.3107,0.1642,0.5435,-0.6449,-0.5116
493,0.0,0.0,0.0,0.0,0.0,0.0,-0.4415,0.9006,-0.2870,0.1518,0.5398,-0.6558,-0.5055
494,0.0,0.0,0.0,0.0,0.0,0.0,-0.4376,0.8963,-0.2792,0.1450,0.5374,-0.6625,-0.5013
495,0.0,0.0,0.0,0.0,0.0,0.0,-0.4481,0.8710,-0.2973,0.1411,0.5376,-0.6663,-0.4971
496,0.0,0.0,0.0,0.0,0.0,0.0,-0.4416,0.8354,-0.3078,0.1384,0.5389,-0.6687,-0.4933
497,0.0,0.0,0.0,0.0,0.0,0.0,-0.4292,0.8445,-0.3323,0.1374,0.5399,-0.6705,-0.4900
498,0.0,0.0,0.0,0.0,0.0,0.0,-0.4375,0.8561,-0.3360,0.1361,0.5410,-0.6715,-0.4878
499,0.0,0.0,0.0,0.0,0.0,0.0,-0.4420,0.8392,-0.3200,0.1335,0.5416,-0.6718,-0.4874
500,0.0,0.0,0.0,0.0,0.0,0.0,-0.4541,0.8421,-0.3286,0.1313,0.5423,-0.6712,-0.4881
501,0.0,0.0,0.0,0.0,0.0,0.0,-0.4618,0.8391,-0.3456,0.1283,0.5437,-0.6697,-0.4893
502,0.0,0.0,0.0,0.0,0.0,0.0,-0.4672,0.7883,-0.3263,0.1245,0.5462,-0.6679,-0.4899
503,0.0,0.0,0.0,0.0,0.0,0.0,-0.4622,0.7955,-0.3395,0.1216,0.5488,-0.6666,-0.4896
504,0.0,0.0,0.0,0.0,0.0,0.0,-0.4551,0.8306,-0.3828,0.1182,0.5510,-0.6655,-0.4894
505,0.0,0.0,0.0,0.0,0.0,0.0,-0.4728,0.7905,-0.3574,0.1138,0.5534,-0.6642,-0.4896
506,0.0,0.0,0.0,0.0,0.0,0.0,-0.4836,0.7775,-0.3510,0.1097,0.5554,-0.6631,-0.4897
507,0.0,0.0,0.0,0.0,0.0,0.0,-0.5003,0.7747,-0.3367,0.1073,0.5572,-0.6616,-0.4903
508,0.0,0.0,0.0,0.0,0.0,0.0,-0.5020,0.7682,-0.3572,0.1052,0.5586,-0.6602,-0.4910
509,0.0,0.0,0.0,0.0,0.0,0.0,-0.4886,0.7830,-0.3929,0.1018,0.5606,-0.6594,-0.4905
510,0.0,0.0,0.0,0.0,0.0,0.0,-0.5107,0.7332,-0.3680,0.0981,0.5635,-0.6594,-0.4879
511,0.0,0.0,0.0,0.0,0.0,0.0,-0.5095,0.6992,-0.3794,0.0958,0.5666,-0.6609,-0.4827
512,0.0,0.0,0.0,0.0,0.0,0.0,-0.4717,0.7430,-0.4177,0.0940,0.5688,-0.6637,-0.4766
513,0.0,0.0,0.0,0.0,0.0,0.0,-0.5128,0.7315,-0.4056,0.0922,0.5717,-0.6663,-0.4697
514,0.0,0.0,0.0,0.0,0.0,0.0,-0.5220,0.7828,-0.3642,0.0907,0.5741,-0.6702,-0.4615
515,0.0,0.0,0.0,0.0,0.0,0.0,-0.5175,0.8219,-0.3889,0.0883,0.5761,-0.6721,-0.4567
516,0.0,0.0,0.0,0.0,0.0,0.0,-0.5290,0.7525,-0.3945,0.0845,0.5790,-0.6721,-0.4538
517,0.0,0.0,0.0,0.0,0.0,0.0,-0.4931,0.7488,-0.4242,0.0827,0.5810,-0.6716,-0.4523
518,0.0,0.0,0.0,0.0,0.0,0.0,-0.5120,0.7618,-0.4415,0.0826,0.5826,-0.6696,-0.4531
519,0.0,0.0,0.0,0.0,0.0,0.0,-0.5487,0.7834,-0.4332,0.0841,0.5840,-0.6658,-0.4568
520,0.0,0.0,0.0,0.0,0.0,0.0,-0.6086,0.8158,-0.4611,0.0913,0.5862,-0.6591,-0.4622
521,0.0,0.0,0.0,0.0,0.0,0.0,-0.6070,0.8220,-0.4192,0.1098,0.5884,-0.6462,-0.4735
522,0.0,0.0,0.0,0.0,0.0,0.0,-0.4999,0.7831,-0.3859,0.1378,0.5888,-0.6272,-0.4908
523,0.0,0.0,0.0,0.0,0.0,0.0,-0.5004,0.7917,-0.3298,0.1688,0.5873,-0.6045,-0.5110
524,0.0,0.0,0.0,0.0,0.0,0.0,-0.4718,0.8106,-0.2583,0.1974,0.5814,-0.5836,-0.5315
525,0.0,0.0,0.0,0.0,0.0,0.0,-0.4735,0.7739,-0.2258,0.2193,0.5748,-0.5664,-0.5484
526,0.0,0.0,0.0,0.0,0.0,0.0,-0.4810,0.7804,-0.2076,0.2358,0.5713,-0.5501,-0.5616
527,0.0,0.0,0.0,0.0,0.0,0.0,-0.4446,0.8178,-0.1932,0.2454,0.5698,-0.5403,-0.5686
528,0.0,0.0,0.0,0.0,0.0,0.0,-0.4041,0.8308,-0.1892,0.2496,0.5697,-0.5357,-0.5712
529,0.0,0.0,0.0,0.0,0.0,0.0,-0.3871,0.8376,-0.1903,0.2510,0.5726,-0.5333,-0.5699
530,0.0,0.0,0.0,0.0,0.0,0.0,-0.4093,0.8302,-0.2135,0.2513,0.5766,-0.5337,-0.5653
531,0.0,0.0,0.0,0.0,0.0,0.0,-0.4755,0.7938,-0.1706,0.2498,0.5816,-0.5338,-0.5607
532,0.0,0.0,0.0,0.0,0.0,0.0,-0.4655,0.8031,-0.1443,0.2449,0.5867,-0.5361,-0.5554
533,0.0,0.0,0.0,0.0,0.0,0.0,-0.4501,0.7927,-0.1738,0.2327,0.5945,-0.5421,-0.5464
534,0.0,0.0,0.0,0.0,0.0,0.0,-0.5324,0.8632,-0.2559,0.2156,0.6027,-0.5501,-0.5363
535,0.0,0.0,0.0,0.0,0.0,0.0,-0.5889,0.9083,-0.2789,0.1980,0.6082,-0.5598,-0.5268
536,0.0,0.0,0.0,0.0,0.0,0.0,-0.5707,0.8345,-0.2834,0.1815,0.6112,-0.5683,-0.5201
537,0.0,0.0,0.0,0.0,0.0,0.0,-0.5573,0.6835,-0.2736,0.1682,0.6140,-0.5735,-0.5155
538,0.0,0.0,0.0,0.0,0.0,0.0,-0.5549,0.6864,-0.2722,0.1594,0.6161,-0.5779,-0.5108
539,0.0,0.0,0.0,0.0,0.0,0.0,-0.5250,0.6494,-0.2800,0.1509,0.6151,-0.5857,-0.5058
540,0.0,0.0,0.0,0.0,0.0,0.0,-0.4739,0.7364,-0.3845,0.1414,0.6102,-0.5975,-0.5007
541,0.0,0.0,0.0,0.0,0.0,0.0,-0.5282,0.7871,-0.4397,0.1284,0.6058,-0.6114,-0.4927
542,0.0,0.0,0.0,0.0,0.0,0.0,-0.5211,0.8870,-0.3247,0.1170,0.5984,-0.6276,-0.4841
543,0.0,0.0,0.0,0.0,0.0,0.0,-0.5429,0.8364,-0.2779,0.1120,0.5898,-0.6382,-0.4820
544,0.0,0.0,0.0,0.0,0.0,0.0,-0.6272,0.8292,-0.2989,0.1080,0.5861,-0.6456,-0.4775
545,0.0,0.0,0.0,0.0,0.0,0.0,-0.5874,0.8675,-0.2821,0.1056,0.5834,-0.6500,-0.4754
546,0.0,0.0,0.0,0.0,0.0,0.0,-0.5800,0.8423,-0.2794,0.1079,0.5821,-0.6481,-0.4790
547,0.0,0.0,0.0,0.0,0.0,0.0,-0.5987,0.8052,-0.3072,0.1136,0.5820,-0.6413,-0.4869
548,0.0,0.0,0.0,0.0,0.0,0.0,-0.5485,0.8411,-0.3636,0.1207,0.5816,-0.6323,-0.4973
549,0.0,0.0,0.0,0.0,0.0,0.0,-0.5337,0.8162,-0.3210,0.1287,0.5801,-0.6206,-0.5116
550,0.0,0.0,0.0,0.0,0.0,0.0,-0.5208,0.7620,-0.2800,0.1418,0.5777,-0.6055,-0.5286
551,0.0,0.0,0.0,0.0,0.0,0.0,-0.5045,0.7316,-0.2457,0.1533,0.5773,-0.5884,-0.5450
552,0.0,0.0,0.0,0.0,0.0,0.0,-0.4782,0.7152,-0.2319,0.1612,0.5774,-0.5740,-0.5578
553,0.0,0.0,0.0,0.0,0.0,0.0,-0.4154,0.7424,-0.2705,0.1683,0.5752,-0.5675,-0.5645
554,0.0,0.0,0.0,0.0,0.0,0.0,-0.4161,0.7809,-0.2566,0.1708,0.5700,-0.5679,-0.5687
555,0.0,0.0,0.0,0.0,0.0,0.0,-0.3594,0.7662,-0.3193,0.1672,0.5629,-0.5779,-0.5667
556,0.0,0.0,0.0,0.0,0.0,0.0,-0.4256,0.8529,-0.3020,0.1589,0.5525,-0.5979,-0.5585
557,0.0,0.0,0.0,0.0,0.0,0.0,-0.6111,0.8978,-0.1968,0.1398,0.5489,-0.6212,-0.5415
558,0.0,0.0,0.0,0.0,0.0,0.0,-0.5707,0.8348,-0.2327,0.1129,0.5467,-0.6459,-0.5207
559,0.0,0.0,0.0,0.0,0.0,0.0,-0.4725,0.8467,-0.2391,0.0950,0.5444,-0.6638,-0.5039
560,0.0,0.0,0.0,0.0,0.0,0.0,-0.4988,0.8681,-0.3070,0.0835,0.5427,-0.6756,-0.4921
561,0.0,0.0,0.0,0.0,0.0,0.0,-0.5261,0.8372,-0.2990,0.0749,0.5421,-0.6827,-0.4843
562,0.0,0.0,0.0,0.0,0.0,0.0,-0.5440,0.8021,-0.3161,0.0685,0.5438,-0.6852,-0.4796
563,0.0,0.0,0.0,0.0,0.0,0.0,-0.5161,0.7434,-0.3674,0.0640,0.5457,-0.6861,-0.4768
564,0.0,0.0,0.0,0.0,0.0,0.0,-0.5262,0.7269,-0.3718,0.0633,0.5471,-0.6873,-0.4736
565,0.0,0.0,0.0,0.0,0.0,0.0,-0.5477,0.7551,-0.3782,0.0655,0.5476,-0.6878,-0.4720
566,0.0,0.0,0.0,0.0,0.0,0.0,-0.5039,0.7576,-0.4158,0.0662,0.5478,-0.6887,-0.4703
567,0.0,0.0,0.0,0.0,0.0,0.0,-0.5191,0.7000,-0.4013,0.0659,0.5491,-0.6895,-0.4676
568,0.0,0.0,0.0,0.0,0.0,0.0,-0.5166,0.7077,-0.4125,0.0644,0.5492,-0.6918,-0.4643
569,0.0,0.0,0.0,0.0,0.0,0.0,-0.5103,0.7058,-0.4072,0.0636,0.5483,-0.6943,-0.4618
570,0.0,0.0,0.0,0.0,0.0,0.0,-0.4924,0.7298,-0.4385,0.0651,0.5471,-0.6968,-0.4592
571,0.0,0.0,0.0,0.0,0.0,0.0,-0.4951,0.7726,-0.4212,0.0676,0.5460,-0.6993,-0.4564
572,0.0,0.0,0.0,0.0,0.0,0.0,-0.5354,0.7880,-0.3948,0.0686,0.5453,-0.7009,-0.4546
573,0.0,0.0,0.0,0.0,0.0,0.0,-0.5292,0.7652,-0.3789,0.0679,0.5442,-0.7027,-0.4533
574,0.0,0.0,0.0,0.0,0.0,0.0,-0.5228,0.7856,-0.3862,0.0670,0.5441,-0.7028,-0.4534
575,0.0,0.0,0.0,0.0,0.0,0.0,-0.5286,0.7904,-0.3934,0.0653,0.5448,-0.7015,-0.4548
576,0.0,0.0,0.0,0.0,0.0,0.0,-0.5347,0.7723,-0.4134,0.0636,0.5459,-0.6994,-0.4570
577,0.0,0.0,0.0,0.0,0.0,0.0,-0.5327,0.7601,-0.4228,0.0618,0.5478,-0.6966,-0.4591
578,0.0,0.0,0.0,0.0,0.0,0.0,-0.5289,0.7432,-0.4097,0.0585,0.5504,-0.6942,-0.4601
579,0.0,0.0,0.0,0.0,0.0,0.0,-0.5361,0.7281,-0.4190,0.0553,0.5522,-0.6927,-0.4607
580,0.0,0.0,0.0,0.0,0.0,0.0,-0.5331,0.7271,-0.4166,0.0524,0.5535,-0.6916,-0.4610
581,0.0,0.0,0.0,0.0,0.0,0.0,-0.5384,0.7077,-0.4239,0.0500,0.5555,-0.6902,-0.4610
582,0.0,0.0,0.0,0.0,0.0,0.0,-0.5365,0.7019,-0.4147,0.0477,0.5567,-0.6897,-0.4605
583,0.0,0.0,0.0,0.0,0.0,0.0,-0.5306,0.7042,-0.4255,0.0461,0.5575,-0.6898,-0.4596
584,0.0,0.0,0.0,0.0,0.0,0.0,-0.5139,0.7104,-0.4344,0.0454,0.5583,-0.6903,-0.4580
585,0.0,0.0,0.0,0.0,0.0,0.0,-0.5395,0.7184,-0.4190,0.0461,0.5594,-0.6897,-0.4575
586,0.0,0.0,0.0,0.0,0.0,0.0,-0.5648,0.7286,-0.4250,0.0464,0.5599,-0.6891,-0.4577
587,0.0,0.0,0.0,0.0,0.0,0.0,-0.5369,0.7226,-0.4366,0.0451,0.5602,-0.6890,-0.4576
588,0.0,0.0,0.0,0.0,0.0,0.0,-0.5497,0.6946,-0.4171,0.0442,0.5613,-0.6883,-0.4574
589,0.0,0.0,0.0,0.0,0.0,0.0,-0.5653,0.6831,-0.4116,0.0443,0.5624,-0.6877,-0.4570
590,0.0,0.0,0.0,0.0,0.0,0.0,-0.5519,0.6848,-0.4420,0.0456,0.5633,-0.6872,-0.4564
591,0.0,0.0,0.0,0.0,0.0,0.0,-0.5498,0.6934,-0.4590,0.0478,0.5641,-0.6870,-0.4555
592,0.0,0.0,0.0,0.0,0.0,0.0,-0.5409,0.6768,-0.4611,0.0496,0.5643,-0.6877,-0.4541
593,0.0,0.0,0.0,0.0,0.0,0.0,-0.5347,0.6944,-0.4499,0.0506,0.5639,-0.6894,-0.4519
594,0.0,0.0,0.0,0.0,0.0,0.0,-0.5380,0.6835,-0.4085,0.0519,0.5631,-0.6906,-0.4509
595,0.0,0.0,0.0,0.0,0.0,0.0,-0.5623,0.7120,-0.3744,0.0567,0.5622,-0.6904,-0.4518
596,0.0,0.0,0.0,0.0,0.0,0.0,-0.5940,0.7499,-0.3812,0.0641,0.5621,-0.6883,-0.4540
597,0.0,0.0,0.0,0.0,0.0,0.0,-0.6049,0.8214,-0.4328,0.0741,0.5630,-0.6825,-0.4601
598,0.0,0.0,0.0,0.0,0.0,0.0,-0.6232,0.9002,-0.4830,0.0877,0.5657,-0.6711,-0.4711
599,0.0,0.0,0.0,0.0,0.0,0.0,-0.5839,0.8856,-0.4035,0.1072,0.5712,-0.6539,-0.4844
600,0.0,0.0,0.0,0.0,0.0,0.0,-0.4793,0.8067,-0.3977,0.1324,0.5754,-0.6335,-0.5001
601,0.0,0.0,0.0,0.0,0.0,0.0,-0.5101,0.7365,-0.3241,0.1598,0.5761,-0.6098,-0.5204
602,0.0,0.0,0.0,0.0,0.0,0.0,-0.4623,0.7983,-0.2799,0.1866,0.5697,-0.5889,-0.5420
603,0.0,0.0,0.0,0.0,0.0,0.0,-0.4397,0.8421,-0.2546,0.2088,0.5625,-0.5705,-0.5608
604,0.0,0.0,0.0,0.0,0.0,0.0,-0.5082,0.7314,-0.2091,0.2220,0.5610,-0.5540,-0.5736
605,0.0,0.0,0.0,0.0,0.0,0.0,-0.4739,0.7214,-0.1690,0.2279,0.5632,-0.5419,-0.5807
606,0.0,0.0,0.0,0.0,0.0,0.0,-0.3976,0.8132,-0.2040,0.2281,0.5660,-0.5384,-0.5811
607,0.0,0.0,0.0,0.0,0.0,0.0,-0.4542,0.8027,-0.2059,0.2245,0.5716,-0.5370,-0.5783
608,0.0,0.0,0.0,0.0,0.0,0.0,-0.4930,0.8152,-0.2317,0.2212,0.5770,-0.5378,-0.5735
609,0.0,0.0,0.0,0.0,0.0,0.0,-0.4540,0.8127,-0.2302,0.2214,0.5795,-0.5407,-0.5682
610,0.0,0.0,0.0,0.0,0.0,0.0,-0.4788,0.8199,-0.1875,0.2219,0.5816,-0.5422,-0.5643
611,0.0,0.0,0.0,0.0,0.0,0.0,-0.5203,0.8297,-0.1894,0.2195,0.5843,-0.5440,-0.5608
612,0.0,0.0,0.0,0.0,0.0,0.0,-0.5322,0.8435,-0.2243,0.2170,0.5870,-0.5456,-0.5574
613,0.0,0.0,0.0,0.0,0.0,0.0,-0.5312,0.8256,-0.2205,0.2163,0.5885,-0.5460,-0.5556
614,0.0,0.0,0.0,0.0,0.0,0.0,-0.5122,0.8231,-0.2193,0.2160,0.5897,-0.5467,-0.5538
615,0.0,0.0,0.0,0.0,0.0,0.0,-0.4976,0.7838,-0.2089,0.2136,0.5915,-0.5488,-0.5508
616,0.0,0.0,0.0,0.0,0.0,0.0,-0.4530,0.7506,-0.2198,0.2063,0.5927,-0.5557,-0.5453
617,0.0,0.0,0.0,0.0,0.0,0.0,-0.4471,0.7216,-0.2708,0.1898,0.5935,-0.5697,-0.5359
618,0.0,0.0,0.0,0.0,0.0,0.0,-0.4803,0.7510,-0.3805,0.1674,0.5911,-0.5907,-0.5231
619,0.0,0.0,0.0,0.0,0.0,0.0,-0.4993,0.8465,-0.4105,0.1457,0.5862,-0.6140,-0.5080
620,0.0,0.0,0.0,0.0,0.0,0.0,-0.4810,0.9779,-0.3583,0.1296,0.5782,-0.6339,-0.4970
621,0.0,0.0,0.0,0.0,0.0,0.0,-0.5739,0.9332,-0.3248,0.1196,0.5728,-0.6464,-0.4896
622,0.0,0.0,0.0,0.0,0.0,0.0,-0.5480,0.8598,-0.2626,0.1169,0.5686,-0.6536,-0.4856
623,0.0,0.0,0.0,0.0,0.0,0.0,-0.5308,0.7285,-0.2956,0.1238,0.5651,-0.6508,-0.4917
624,0.0,0.0,0.0,0.0,0.0,0.0,-0.5097,0.7758,-0.3200,0.1377,0.5588,-0.6418,-0.5068
625,0.0,0.0,0.0,0.0,0.0,0.0,-0.4794,0.8745,-0.2950,0.1578,0.5499,-0.6278,-0.5278
626,0.0,0.0,0.0,0.0,0.0,0.0,-0.5118,0.8183,-0.2120,0.1802,0.5425,-0.6085,-0.5505
627,0.0,0.0,0.0,0.0,0.0,0.0,-0.4568,0.7916,-0.1898,0.1945,0.5377,-0.5952,-0.5646
628,0.0,0.0,0.0,0.0,0.0,0.0,-0.4487,0.8286,-0.1712,0.1992,0.5352,-0.5919,-0.5688
629,0.0,0.0,0.0,0.0,0.0,0.0,-0.4381,0.8254,-0.2113,0.1917,0.5342,-0.5977,-0.5663
630,0.0,0.0,0.0,0.0,0.0,0.0,-0.4220,0.8182,-0.2661,0.1785,0.5338,-0.6075,-0.5605
631,0.0,0.0,0.0,0.0,0.0,0.0,-0.4718,0.8368,-0.2606,0.1642,0.5326,-0.6224,-0.5495
632,0.0,0.0,0.0,0.0,0.0,0.0,-0.4962,0.7952,-0.2547,0.1537,0.5328,-0.6375,-0.5349
633,0.0,0.0,0.0,0.0,0.0,0.0,-0.4110,0.8243,-0.2872,0.1499,0.5314,-0.6488,-0.5237
634,0.0,0.0,0.0,0.0,0.0,0.0,-0.4272,0.8553,-0.2322,0.1528,0.5300,-0.6549,-0.5166
635,0.0,0.0,0.0,0.0,0.0,0.0,-0.4828,0.8501,-0.2375,0.1587,0.5324,-0.6561,-0.5107
636,0.0,0.0,0.0,0.0,0.0,0.0,-0.4713,0.8862,-0.2794,0.1638,0.5361,-0.6552,-0.5064
637,0.0,0.0,0.0,0.0,0.0,0.0,-0.4259,0.8833,-0.3253,0.1661,0.5401,-0.6540,-0.5030
638,0.0,0.0,0.0,0.0,0.0,0.0,-0.4131,0.8274,-0.3311,0.1686,0.5429,-0.6532,-0.5001
639,0.0,0.0,0.0,0.0,0.0,0.0,-0.4351,0.8469,-0.3258,0.1720,0.5457,-0.6520,-0.4975
640,0.0,0.0,0.0,0.0,0.0,0.0,-0.4200,0.8614,-0.3337,0.1744,0.5484,-0.6502,-0.4960
641,0.0,0.0,0.0,0.0,0.0,0.0,-0.3821,0.8044,-0.3535,0.1764,0.5498,-0.6497,-0.4945
642,0.0,0.0,0.0,0.0,0.0,0.0,-0.3817,0.8262,-0.3519,0.1789,0.5496,-0.6500,-0.4933
643,0.0,0.0,0.0,0.0,0.0,0.0,-0.4122,0.8469,-0.3222,0.1815,0.5499,-0.6496,-0.4927
644,0.0,0.0,0.0,0.0,0.0,0.0,-0.4210,0.8382,-0.3246,0.1854,0.5505,-0.6485,-0.4919
645,0.0,0.0,0.0,0.0,0.0,0.0,-0.4196,0.8523,-0.3172,0.1915,0.5511,-0.6462,-0.4921
646,0.0,0.0,0.0,0.0,0.0,0.0,-0.4225,0.8513,-0.3245,0.1972,0.5527,-0.6427,-0.4926
647,0.0,0.0,0.0,0.0,0.0,0.0,-0.4224,0.8449,-0.3357,0.2008,0.5550,-0.6396,-0.4926
648,0.0,0.0,0.0,0.0,0.0,0.0,-0.4229,0.8604,-0.3362,0.2030,0.5568,-0.6369,-0.4931
649,0.0,0.0,0.0,0.0,0.0,0.0,-0.4503,0.8422,-0.3169,0.2045,0.5588,-0.6339,-0.4941
650,0.0,0.0,0.0,0.0,0.0,0.0,-0.4562,0.8582,-0.3221,0.2045,0.5609,-0.6312,-0.4952
651,0.0,0.0,0.0,0.0,0.0,0.0,-0.4443,0.8440,-0.3379,0.2038,0.5629,-0.6286,-0.4964
652,0.0,0.0,0.0,0.0,0.0,0.0,-0.4258,0.7030,-0.3584,0.2013,0.5666,-0.6259,-0.4967
653,0.0,0.0,0.0,0.0,0.0,0.0,-0.4162,0.8185,-0.3613,0.2004,0.5684,-0.6248,-0.4963
654,0.0,0.0,0.0,0.0,0.0,0.0,-0.4115,0.8341,-0.3491,0.1999,0.5696,-0.6246,-0.4954
655,0.0,0.0,0.0,0.0,0.0,0.0,-0.4204,0.8468,-0.3387,0.1994,0.5711,-0.6245,-0.4941
656,0.0,0.0,0.0,0.0,0.0,0.0,-0.4179,0.8454,-0.3382,0.1983,0.5724,-0.6247,-0.4928
657,0.0,0.0,0.0,0.0,0.0,0.0,-0.4131,0.8279,-0.3291,0.1968,0.5735,-0.6245,-0.4923
658,0.0,0.0,0.0,0.0,0.0,0.0,-0.4130,0.8370,-0.3461,0.1953,0.5747,-0.6239,-0.4923
659,0.0,0.0,0.0,0.0,0.0,0.0,-0.4056,0.8418,-0.3491,0.1941,0.5754,-0.6237,-0.4921
660,0.0,0.0,0.0,0.0,0.0,0.0,-0.4018,0.8375,-0.3428,0.1930,0.5757,-0.6233,-0.4927
661,0.0,0.0,0.0,0.0,0.0,0.0,-0.4092,0.8332,-0.3325,0.1924,0.5757,-0.6225,-0.4940
662,0.0,0.0,0.0,0.0,0.0,0.0,-0.4131,0.8386,-0.3349,0.1918,0.5758,-0.6215,-0.4953
663,0.0,0.0,0.0,0.0,0.0,0.0,-0.4155,0.8371,-0.3315,0.1906,0.5764,-0.6203,-0.4966
664,0.0,0.0,0.0,0.0,0.0,0.0,-0.4219,0.8468,-0.3372,0.1886,0.5776,-0.6191,-0.4974
665,0.0,0.0,0.0,0.0,0.0,0.0,-0.4395,0.8348,-0.3298,0.1865,0.5790,-0.6182,-0.4978
666,0.0,0.0,0.0,0.0,0.0,0.0,-0.4456,0.8153,-0.3469,0.1836,0.5810,-0.6183,-0.4965
667,0.0,0.0,0.0,0.0,0.0,0.0,-0.4158,0.8001,-0.3507,0.1803,0.5825,-0.6202,-0.4934
668,0.0,0.0,0.0,0.0,0.0,0.0,-0.4108,0.7705,-0.4119,0.1766,0.5848,-0.6229,-0.4887
669,0.0,0.0,0.0,0.0,0.0,0.0,-0.4430,0.7905,-0.4182,0.1706,0.5871,-0.6282,-0.4812
670,0.0,0.0,0.0,0.0,0.0,0.0,-0.5230,0.7720,-0.3062,0.1651,0.5899,-0.6327,-0.4738
671,0.0,0.0,0.0,0.0,0.0,0.0,-0.5128,0.7934,-0.3106,0.1625,0.5928,-0.6357,-0.4669
672,0.0,0.0,0.0,0.0,0.0,0.0,-0.5071,0.8566,-0.3611,0.1611,0.5950,-0.6372,-0.4626
673,0.0,0.0,0.0,0.0,0.0,0.0,-0.5218,0.8596,-0.3570,0.1600,0.5965,-0.6371,-0.4611
674,0.0,0.0,0.0,0.0,0.0,0.0,-0.5044,0.8210,-0.3740,0.1596,0.5980,-0.6358,-0.4611
675,0.0,0.0,0.0,0.0,0.0,0.0,-0.4852,0.8228,-0.3956,0.1575,0.5993,-0.6349,-0.4614
676,0.0,0.0,0.0,0.0,0.0,0.0,-0.4710,0.8164,-0.4017,0.1541,0.6008,-0.6341,-0.4617
677,0.0,0.0,0.0,0.0,0.0,0.0,-0.4495,0.8076,-0.4064,0.1512,0.6020,-0.6336,-0.4619
678,0.0,0.0,0.0,0.0,0.0,0.0,-0.4573,0.8066,-0.4077,0.1483,0.6029,-0.6328,-0.4626
679,0.0,0.0,0.0,0.0,0.0,0.0,-0.4674,0.7775,-0.4073,0.1452,0.6039,-0.6325,-0.4628
680,0.0,0.0,0.0,0.0,0.0,0.0,-0.4631,0.7591,-0.3996,0.1433,0.6046,-0.6323,-0.4628
681,0.0,0.0,0.0,0.0,0.0,0.0,-0.4576,0.7677,-0.4177,0.1416,0.6051,-0.6323,-0.4626
682,0.0,0.0,0.0,0.0,0.0,0.0,-0.4678,0.7634,-0.4166,0.1385,0.6061,-0.6332,-0.4610
683,0.0,0.0,0.0,0.0,0.0,0.0,-0.4767,0.7480,-0.4010,0.1350,0.6077,-0.6336,-0.4594
684,0.0,0.0,0.0,0.0,0.0,0.0,-0.4840,0.7542,-0.4111,0.1315,0.6094,-0.6336,-0.4582
685,0.0,0.0,0.0,0.0,0.0,0.0,-0.4903,0.7532,-0.4164,0.1269,0.6117,-0.6337,-0.4562
686,0.0,0.0,0.0,0.0,0.0,0.0,-0.4942,0.7305,-0.4116,0.1223,0.6145,-0.6330,-0.4547
687,0.0,0.0,0.0,0.0,0.0,0.0,-0.5155,0.7459,-0.4338,0.1189,0.6178,-0.6307,-0.4544
688,0.0,0.0,0.0,0.0,0.0,0.0,-0.5641,0.7760,-0.4550,0.1175,0.6220,-0.6260,-0.4554
689,0.0,0.0,0.0,0.0,0.0,0.0,-0.6228,0.8563,-0.5115,0.1233,0.6266,-0.6153,-0.4622
690,0.0,0.0,0.0,0.0,0.0,0.0,-0.5679,0.8199,-0.4245,0.1415,0.6306,-0.5971,-0.4752
691,0.0,0.0,0.0,0.0,0.0,0.0,-0.4977,0.7013,-0.2849,0.1573,0.6310,-0.5767,-0.4944
692,0.0,0.0,0.0,0.0,0.0,0.0,-0.4747,0.7221,-0.3500,0.1688,0.6273,-0.5588,-0.5155
693,0.0,0.0,0.0,0.0,0.0,0.0,-0.5533,0.7866,-0.2551,0.1890,0.6164,-0.5440,-0.5370
694,0.0,0.0,0.0,0.0,0.0,0.0,-0.5333,0.7468,-0.2394,0.2092,0.6065,-0.5282,-0.5563
695,0.0,0.0,0.0,0.0,0.0,0.0,-0.4978,0.6901,-0.2182,0.2192,0.6073,-0.5123,-0.5662
696,0.0,0.0,0.0,0.0,0.0,0.0,-0.4526,0.7750,-0.2133,0.2237,0.6092,-0.5061,-0.5680
697,0.0,0.0,0.0,0.0,0.0,0.0,-0.4547,0.7998,-0.2049,0.2266,0.6121,-0.5031,-0.5664
698,0.0,0.0,0.0,0.0,0.0,0.0,-0.5083,0.7790,-0.2103,0.2265,0.6166,-0.5022,-0.5625
699,0.0,0.0,0.0,0.0,0.0,0.0,-0.5362,0.8019,-0.2035,0.2264,0.6181,-0.5062,-0.5572
700,0.0,0.0,0.0,0.0,0.0,0.0,-0.5356,0.7828,-0.1626,0.2246,0.6191,-0.5104,-0.5530
701,0.0,0.0,0.0,0.0,0.0,0.0,-0.5302,0.7712,-0.1574,0.2183,0.6220,-0.5156,-0.5473
702,0.0,0.0,0.0,0.0,0.0,0.0,-0.5443,0.7906,-0.2269,0.2072,0.6288,-0.5218,-0.5380
703,0.0,0.0,0.0,0.0,0.0,0.0,-0.6221,0.7479,-0.2492,0.1952,0.6356,-0.5275,-0.5289
704,0.0,0.0,0.0,0.0,0.0,0.0,-0.6059,0.7144,-0.2529,0.1865,0.6399,-0.5335,-0.5207
705,0.0,0.0,0.0,0.0,0.0,0.0,-0.5517,0.6949,-0.2434,0.1777,0.6427,-0.5420,-0.5115
706,0.0,0.0,0.0,0.0,0.0,0.0,-0.5723,0.6960,-0.2929,0.1631,0.6451,-0.5543,-0.5000
707,0.0,0.0,0.0,0.0,0.0,0.0,-0.5693,0.6946,-0.3529,0.1430,0.6442,-0.5706,-0.4889
708,0.0,0.0,0.0,0.0,0.0,0.0,-0.5214,0.6778,-0.4604,0.1187,0.6380,-0.5922,-0.4777
709,0.0,0.0,0.0,0.0,0.0,0.0,-0.5445,0.7545,-0.4627,0.0941,0.6293,-0.6156,-0.4649
710,0.0,0.0,0.0,0.0,0.0,0.0,-0.5709,0.8678,-0.3740,0.0775,0.6181,-0.6329,-0.4598
711,0.0,0.0,0.0,0.0,0.0,0.0,-0.6436,0.8107,-0.3105,0.0718,0.6099,-0.6417,-0.4595
712,0.0,0.0,0.0,0.0,0.0,0.0,-0.6416,0.7859,-0.3068,0.0759,0.6038,-0.6454,-0.4616
713,0.0,0.0,0.0,0.0,0.0,0.0,-0.5667,0.7642,-0.3307,0.0868,0.5983,-0.6407,-0.4733
714,0.0,0.0,0.0,0.0,0.0,0.0,-0.5884,0.8013,-0.3190,0.0966,0.5949,-0.6280,-0.4922
715,0.0,0.0,0.0,0.0,0.0,0.0,-0.5579,0.7901,-0.2365,0.1075,0.5931,-0.6119,-0.5121
716,0.0,0.0,0.0,0.0,0.0,0.0,-0.5806,0.7541,-0.2535,0.1221,0.5954,-0.5926,-0.5286
717,0.0,0.0,0.0,0.0,0.0,0.0,-0.5664,0.7691,-0.2633,0.1322,0.5961,-0.5814,-0.5377
718,0.0,0.0,0.0,0.0,0.0,0.0,-0.5345,0.7964,-0.2270,0.1330,0.5953,-0.5794,-0.5406
719,0.0,0.0,0.0,0.0,0.0,0.0,-0.5276,0.7369,-0.2727,0.1254,0.5958,-0.5835,-0.5374
720,0.0,0.0,0.0,0.0,0.0,0.0,-0.5302,0.7613,-0.3223,0.1178,0.5911,-0.5959,-0.5308
721,0.0,0.0,0.0,0.0,0.0,0.0,-0.5988,0.7753,-0.2883,0.1151,0.5836,-0.6133,-0.5196
722,0.0,0.0,0.0,0.0,0.0,0.0,-0.5226,0.7649,-0.2921,0.1203,0.5774,-0.6272,-0.5087
723,0.0,0.0,0.0,0.0,0.0,0.0,-0.4719,0.8582,-0.2576,0.1341,0.5711,-0.6302,-0.5086
724,0.0,0.0,0.0,0.0,0.0,0.0,-0.5137,0.8519,-0.2732,0.1489,0.5671,-0.6267,-0.5133
725,0.0,0.0,0.0,0.0,0.0,0.0,-0.5088,0.8911,-0.2892,0.1617,0.5645,-0.6201,-0.5203
726,0.0,0.0,0.0,0.0,0.0,0.0,-0.4931,0.9520,-0.2510,0.1792,0.5626,-0.6076,-0.5312
727,0.0,0.0,0.0,0.0,0.0,0.0,-0.5130,0.8049,-0.1818,0.1948,0.5633,-0.5915,-0.5430
728,0.0,0.0,0.0,0.0,0.0,0.0,-0.4608,0.7831,-0.2274,0.2031,0.5645,-0.5830,-0.5479
729,0.0,0.0,0.0,0.0,0.0,0.0,-0.4908,0.8275,-0.2097,0.2100,0.5652,-0.5788,-0.5491
730,0.0,0.0,0.0,0.0,0.0,0.0,-0.4581,0.8085,-0.2048,0.2117,0.5649,-0.5793,-0.5482
731,0.0,0.0,0.0,0.0,0.0,0.0,-0.4081,0.8126,-0.2351,0.2074,0.5630,-0.5848,-0.5459
732,0.0,0.0,0.0,0.0,0.0,0.0,-0.4348,0.8227,-0.2489,0.1983,0.5611,-0.5946,-0.5407
733,0.0,0.0,0.0,0.0,0.0,0.0,-0.4855,0.8102,-0.2528,0.1860,0.5588,-0.6072,-0.5334
734,0.0,0.0,0.0,0.0,0.0,0.0,-0.5004,0.8018,-0.2771,0.1730,0.5558,-0.6208,-0.5251
735,0.0,0.0,0.0,0.0,0.0,0.0,-0.5115,0.8308,-0.2968,0.1596,0.5547,-0.6339,-0.5148
736,0.0,0.0,0.0,0.0,0.0,0.0,-0.5070,0.8709,-0.3205,0.1500,0.5539,-0.6435,-0.5066
737,0.0,0.0,0.0,0.0,0.0,0.0,-0.5301,0.8357,-0.2951,0.1440,0.5533,-0.6499,-0.5008
738,0.0,0.0,0.0,0.0,0.0,0.0,-0.5262,0.8740,-0.3047,0.1394,0.5536,-0.6543,-0.4959
739,0.0,0.0,0.0,0.0,0.0,0.0,-0.5089,0.8467,-0.3226,0.1358,0.5558,-0.6560,-0.4923
740,0.0,0.0,0.0,0.0,0.0,0.0,-0.5114,0.7800,-0.3488,0.1323,0.5597,-0.6556,-0.4893
741,0.0,0.0,0.0,0.0,0.0,0.0,-0.4955,0.7705,-0.3836,0.1291,0.5637,-0.6543,-0.4873
742,0.0,0.0,0.0,0.0,0.0,0.0,-0.4819,0.7603,-0.3745,0.1268,0.5667,-0.6535,-0.4854
743,0.0,0.0,0.0,0.0,0.0,0.0,-0.4764,0.7505,-0.3786,0.1256,0.5689,-0.6540,-0.4825
744,0.0,0.0,0.0,0.0,0.0,0.0,-0.4656,0.7645,-0.3981,0.1255,0.5707,-0.6551,-0.4789
745,0.0,0.0,0.0,0.0,0.0,0.0,-0.4823,0.7772,-0.3857,0.1247,0.5724,-0.6558,-0.4761
746,0.0,0.0,0.0,0.0,0.0,0.0,-0.4823,0.7913,-0.3851,0.1223,0.5735,-0.6570,-0.4738
747,0.0,0.0,0.0,0.0,0.0,0.0,-0.4903,0.7915,-0.3660,0.1200,0.5742,-0.6574,-0.4730
748,0.0,0.0,0.0,0.0,0.0,0.0,-0.5020,0.7731,-0.3582,0.1188,0.5751,-0.6569,-0.4730
749,0.0,0.0,0.0,0.0,0.0,0.0,-0.4971,0.8074,-0.3785,0.1178,0.5754,-0.6561,-0.4738
750,0.0,0.0,0.0,0.0,0.0,0.0,-0.4946,0.8078,-0.3834,0.1159,0.5763,-0.6543,-0.4756
751,0.0,0.0,0.0,0.0,0.0,0.0,-0.5009,0.7637,-0.3748,0.1139,0.5778,-0.6522,-0.4773
752,0.0,0.0,0.0,0.0,0.0,0.0,-0.5022,0.7757,-0.3972,0.1116,0.5797,-0.6511,-0.4771
753,0.0,0.0,0.0,0.0,0.0,0.0,-0.5155,0.7671,-0.3829,0.1081,0.5815,-0.6503,-0.4767
754,0.0,0.0,0.0,0.0,0.0,0.0,-0.5072,0.7138,-0.3672,0.1052,0.5829,-0.6501,-0.4759
755,0.0,0.0,0.0,0.0,0.0,0.0,-0.4894,0.7160,-0.3937,0.1052,0.5839,-0.6505,-0.4741
756,0.0,0.0,0.0,0.0,0.0,0.0,-0.5005,0.7513,-0.4154,0.1063,0.5845,-0.6518,-0.4714
757,0.0,0.0,0.0,0.0,0.0,0.0,-0.4948,0.7495,-0.3969,0.1086,0.5844,-0.6540,-0.4680
758,0.0,0.0,0.0,0.0,0.0,0.0,-0.4871,0.7563,-0.3877,0.1131,0.5836,-0.6554,-0.4659
759,0.0,0.0,0.0,0.0,0.0,0.0,-0.5014,0.7846,-0.3820,0.1186,0.5827,-0.6558,-0.4652
760,0.0,0.0,0.0,0.0,0.0,0.0,-0.4986,0.8066,-0.4229,0.1224,0.5824,-0.6556,-0.4649
761,0.0,0.0,0.0,0.0,0.0,0.0,-0.5115,0.8116,-0.4061,0.1258,0.5822,-0.6547,-0.4654
762,0.0,0.0,0.0,0.0,0.0,0.0,-0.5253,0.8215,-0.3928,0.1293,0.5825,-0.6525,-0.4671
763,0.0,0.0,0.0,0.0,0.0,0.0,-0.5337,0.8201,-0.3810,0.1354,0.5832,-0.6475,-0.4714
764,0.0,0.0,0.0,0.0,0.0,0.0,-0.5091,0.8432,-0.4001,0.1429,0.5843,-0.6404,-0.4776
765,0.0,0.0,0.0,0.0,0.0,0.0,-0.4970,0.8229,-0.3828,0.1543,0.5849,-0.6294,-0.4877
766,0.0,0.0,0.0,0.0,0.0,0.0,-0.4843,0.8305,-0.3317,0.1700,0.5845,-0.6154,-0.5008
767,0.0,0.0,0.0,0.0,0.0,0.0,-0.4672,0.7920,-0.2770,0.1832,0.5834,-0.6021,-0.5133
768,0.0,0.0,0.0,0.0,0.0,0.0,-0.4714,0.7396,-0.2826,0.1932,0.5832,-0.5911,-0.5227
769,0.0,0.0,0.0,0.0,0.0,0.0,-0.4541,0.7644,-0.2656,0.2023,0.5820,-0.5829,-0.5298
770,0.0,0.0,0.0,0.0,0.0,0.0,-0.4405,0.8042,-0.2616,0.2096,0.5803,-0.5764,-0.5358
771,0.0,0.0,0.0,0.0,0.0,0.0,-0.4460,0.8222,-0.2532,0.2148,0.5789,-0.5715,-0.5405
772,0.0,0.0,0.0,0.0,0.0,0.0,-0.4814,0.8240,-0.2230,0.2183,0.5782,-0.5676,-0.5438
773,0.0,0.0,0.0,0.0,0.0,0.0,-0.4804,0.8244,-0.2299,0.2197,0.5783,-0.5652,-0.5458
774,0.0,0.0,0.0,0.0,0.0,0.0,-0.4686,0.8404,-0.2362,0.2204,0.5787,-0.5630,-0.5474
775,0.0,0.0,0.0,0.0,0.0,0.0,-0.4736,0.8273,-0.2265,0.2199,0.5792,-0.5615,-0.5485
776,0.0,0.0,0.0,0.0,0.0,0.0,-0.4819,0.8084,-0.2241,0.2174,0.5802,-0.5618,-0.5482
777,0.0,0.0,0.0,0.0,0.0,0.0,-0.4577,0.8252,-0.2506,0.2144,0.5814,-0.5642,-0.5455
778,0.0,0.0,0.0,0.0,0.0,0.0,-0.4705,0.8141,-0.2422,0.2113,0.5835,-0.5683,-0.5403
779,0.0,0.0,0.0,0.0,0.0,0.0,-0.5170,0.8081,-0.2232,0.2065,0.5859,-0.5725,-0.5351
780,0.0,0.0,0.0,0.0,0.0,0.0,-0.5224,0.8498,-0.2322,0.2015,0.5873,-0.5766,-0.5311
781,0.0,0.0,0.0,0.0,0.0,0.0,-0.5148,0.8263,-0.2524,0.1968,0.5889,-0.5796,-0.5278
782,0.0,0.0,0.0,0.0,0.0,0.0,-0.5010,0.7961,-0.2634,0.1911,0.5906,-0.5828,-0.5244
783,0.0,0.0,0.0,0.0,0.0,0.0,-0.5189,0.8164,-0.2826,0.1851,0.5917,-0.5868,-0.5209
784,0.0,0.0,0.0,0.0,0.0,0.0,-0.5121,0.8260,-0.2890,0.1794,0.5921,-0.5913,-0.5174
785,0.0,0.0,0.0,0.0,0.0,0.0,-0.4964,0.7959,-0.2913,0.1739,0.5921,-0.5958,-0.5140
786,0.0,0.0,0.0,0.0,0.0,0.0,-0.5125,0.8153,-0.2925,0.1708,0.5918,-0.5992,-0.5115
787,0.0,0.0,0.0,0.0,0.0,0.0,-0.5179,0.8158,-0.2909,0.1687,0.5911,-0.6012,-0.5106
788,0.0,0.0,0.0,0.0,0.0,0.0,-0.5242,0.7969,-0.2910,0.1646,0.5908,-0.6037,-0.5094
789,0.0,0.0,0.0,0.0,0.0,0.0,-0.5159,0.7887,-0.2901,0.1593,0.5906,-0.6076,-0.5066
790,0.0,0.0,0.0,0.0,0.0,0.0,-0.5201,0.8152,-0.3197,0.1534,0.5900,-0.6118,-0.5040
791,0.0,0.0,0.0,0.0,0.0,0.0,-0.5310,0.8367,-0.3009,0.1497,0.5894,-0.6140,-0.5032
792,0.0,0.0,0.0,0.0,0.0,0.0,-0.5399,0.7771,-0.2782,0.1475,0.5894,-0.6145,-0.5032
793,0.0,0.0,0.0,0.0,0.0,0.0,-0.5186,0.7658,-0.3024,0.1458,0.5894,-0.6149,-0.5032
794,0.0,0.0,0.0,0.0,0.0,0.0,-0.5221,0.7818,-0.3052,0.1437,0.5891,-0.6151,-0.5039
795,0.0,0.0,0.0,0.0,0.0,0.0,-0.5239,0.7849,-0.2705,0.1394,0.5877,-0.6169,-0.5046
796,0.0,0.0,0.0,0.0,0.0,0.0,-0.5004,0.8096,-0.2746,0.1344,0.5854,-0.6224,-0.5018
797,0.0,0.0,0.0,0.0,0.0,0.0,-0.5181,0.7683,-0.3600,0.1310,0.5855,-0.6265,-0.4976
798,0.0,0.0,0.0,0.0,0.0,0.0,-0.5458,0.7657,-0.3221,0.1296,0.5855,-0.6270,-0.4973
799,0.0,0.0,0.0,0.0,0.0,0.0,-0.5519,0.7780,-0.2990,0.1296,0.5857,-0.6265,-0.4976
800,0.0,0.0,0.0,0.0,0.0,0.0,-0.5472,0.7676,-0.3299,0.1293,0.5862,-0.6256,-0.4983
801,0.0,0.0,0.0,0.0,0.0,0.0,-0.5448,0.7589,-0.3265,0.1301,0.5874,-0.6221,-0.5010
802,0.0,0.0,0.0,0.0,0.0,0.0,-0.5695,0.7713,-0.2940,0.1371,0.5895,-0.6137,-0.5071
803,0.0,0.0,0.0,0.0,0.0,0.0,-0.5586,0.7797,-0.2638,0.1475,0.5910,-0.6026,-0.5156
804,0.0,0.0,0.0,0.0,0.0,0.0,-0.5236,0.8060,-0.3046,0.1588,0.5924,-0.5921,-0.5227
805,0.0,0.0,0.0,0.0,0.0,0.0,-0.5467,0.8334,-0.2925,0.1746,0.5933,-0.5785,-0.5318
806,0.0,0.0,0.0,0.0,0.0,0.0,-0.5418,0.7658,-0.2300,0.1909,0.5939,-0.5623,-0.5429
807,0.0,0.0,0.0,0.0,0.0,0.0,-0.5007,0.7662,-0.2392,0.2027,0.5941,-0.5512,-0.5496
808,0.0,0.0,0.0,0.0,0.0,0.0,-0.4686,0.7575,-0.2176,0.2128,0.5929,-0.5440,-0.5543
809,0.0,0.0,0.0,0.0,0.0,0.0,-0.4800,0.7741,-0.2116,0.2190,0.5916,-0.5403,-0.5568
810,0.0,0.0,0.0,0.0,0.0,0.0,-0.5002,0.8504,-0.2012,0.2207,0.5898,-0.5409,-0.5575
811,0.0,0.0,0.0,0.0,0.0,0.0,-0.5213,0.8457,-0.1898,0.2190,0.5893,-0.5434,-0.5563
812,0.0,0.0,0.0,0.0,0.0,0.0,-0.5335,0.8414,-0.1882,0.2134,0.5897,-0.5483,-0.5532
813,0.0,0.0,0.0,0.0,0.0,0.0,-0.5174,0.8544,-0.1893,0.2086,0.5894,-0.5534,-0.5504
814,0.0,0.0,0.0,0.0,0.0,0.0,-0.5134,0.8272,-0.1968,0.2047,0.5896,-0.5575,-0.5473
815,0.0,0.0,0.0,0.0,0.0,0.0,-0.5053,0.8192,-0.2208,0.1986,0.5902,-0.5634,-0.5430
816,0.0,0.0,0.0,0.0,0.0,0.0,-0.5037,0.8322,-0.2388,0.1897,0.5901,-0.5714,-0.5379
817,0.0,0.0,0.0,0.0,0.0,0.0,-0.4997,0.8219,-0.2472,0.1826,0.5890,-0.5789,-0.5335
818,0.0,0.0,0.0,0.0,0.0,0.0,-0.4962,0.8213,-0.2594,0.1783,0.5879,-0.5848,-0.5297
819,0.0,0.0,0.0,0.0,0.0,0.0,-0.5021,0.8209,-0.2608,0.1743,0.5874,-0.5896,-0.5263
820,0.0,0.0,0.0,0.0,0.0,0.0,-0.5093,0.8141,-0.2632,0.1698,0.5874,-0.5938,-0.5230
821,0.0,0.0,0.0,0.0,0.0,0.0,-0.5112,0.8057,-0.2755,0.1651,0.5875,-0.5979,-0.5197
822,0.0,0.0,0.0,0.0,0.0,0.0,-0.4997,0.7857,-0.2952,0.1600,0.5878,-0.6025,-0.5157
823,0.0,0.0,0.0,0.0,0.0,0.0,-0.4934,0.7876,-0.2982,0.1553,0.5879,-0.6074,-0.5112
824,0.0,0.0,0.0,0.0,0.0,0.0,-0.4988,0.8080,-0.2922,0.1519,0.5874,-0.6120,-0.5073
825,0.0,0.0,0.0,0.0,0.0,0.0,-0.5051,0.8046,-0.3004,0.1492,0.5871,-0.6160,-0.5036
826,0.0,0.0,0.0,0.0,0.0,0.0,-0.5188,0.8032,-0.2988,0.1459,0.5877,-0.6197,-0.4993
827,0.0,0.0,0.0,0.0,0.0,0.0,-0.5206,0.8051,-0.3066,0.1414,0.5893,-0.6240,-0.4933
828,0.0,0.0,0.0,0.0,0.0,0.0,-0.5160,0.7913,-0.3272,0.1367,0.5917,-0.6283,-0.4863
829,0.0,0.0,0.0,0.0,0.0,0.0,-0.5238,0.7738,-0.3286,0.1317,0.5950,-0.6311,-0.4799
830,0.0,0.0,0.0,0.0,0.0,0.0,-0.5056,0.7417,-0.3383,0.1265,0.5987,-0.6329,-0.4744
831,0.0,0.0,0.0,0.0,0.0,0.0,-0.4859,0.7454,-0.3590,0.1214,0.6011,-0.6354,-0.4693
832,0.0,0.0,0.0,0.0,0.0,0.0,-0.5067,0.7618,-0.3782,0.1171,0.6027,-0.6377,-0.4651
833,0.0,0.0,0.0,0.0,0.0,0.0,-0.5218,0.7550,-0.3839,0.1124,0.6036,-0.6401,-0.4619
834,0.0,0.0,0.0,0.0,0.0,0.0,-0.5216,0.7742,-0.4091,0.1076,0.6041,-0.6432,-0.4581
835,0.0,0.0,0.0,0.0,0.0,0.0,-0.5357,0.7795,-0.4192,0.1042,0.6042,-0.6456,-0.4552
836,0.0,0.0,0.0,0.0,0.0,0.0,-0.5223,0.7503,-0.4322,0.1018,0.6035,-0.6485,-0.4527
837,0.0,0.0,0.0,0.0,0.0,0.0,-0.5178,0.7545,-0.4464,0.1005,0.6016,-0.6529,-0.4492
838,0.0,0.0,0.0,0.0,0.0,0.0,-0.5267,0.7241,-0.4255,0.0988,0.5997,-0.6575,-0.4453
839,0.0,0.0,0.0,0.0,0.0,0.0,-0.5001,0.7326,-0.4574,0.0985,0.5968,-0.6630,-0.4411
840,0.0,0.0,0.0,0.0,0.0,0.0,-0.4731,0.7790,-0.4784,0.0982,0.5919,-0.6691,-0.4385
841,0.0,0.0,0.0,0.0,0.0,0.0,-0.4649,0.7431,-0.4607,0.0953,0.5868,-0.6766,-0.4345
842,0.0,0.0,0.0,0.0,0.0,0.0,-0.4714,0.7486,-0.4464,0.0908,0.5803,-0.6851,-0.4309
843,0.0,0.0,0.0,0.0,0.0,0.0,-0.5068,0.7503,-0.4187,0.0865,0.5745,-0.6921,-0.4283
844,0.0,0.0,0.0,0.0,0.0,0.0,-0.4943,0.7472,-0.4496,0.0819,0.5694,-0.6984,-0.4259
845,0.0,0.0,0.0,0.0,0.0,0.0,-0.4614,0.7736,-0.4825,0.0764,0.5647,-0.7042,-0.4236
846,0.0,0.0,0.0,0.0,0.0,0.0,-0.4546,0.7726,-0.4777,0.0716,0.5600,-0.7089,-0.4228
847,0.0,0.0,0.0,0.0,0.0,0.0,-0.4732,0.7470,-0.4689,0.0663,0.5560,-0.7132,-0.4217
848,0.0,0.0,0.0,0.0,0.0,0.0,-0.4732,0.7296,-0.4582,0.0608,0.5535,-0.7167,-0.4198
849,0.0,0.0,0.0,0.0,0.0,0.0,-0.4667,0.7251,-0.4764,0.0563,0.5524,-0.7187,-0.4186
850,0.0,0.0,0.0,0.0,0.0,0.0,-0.4627,0.7308,-0.4881,0.0522,0.5515,-0.7205,-0.4172
851,0.0,0.0,0.0,0.0,0.0,0.0,-0.4655,0.7365,-0.5061,0.0481,0.5498,-0.7224,-0.4165
852,0.0,0.0,0.0,0.0,0.0,0.0,-0.4700,0.7080,-0.4910,0.0443,0.5484,-0.7237,-0.4166
853,0.0,0.0,0.0,0.0,0.0,0.0,-0.4901,0.6873,-0.4734,0.0420,0.5476,-0.7243,-0.4168
854,0.0,0.0,0.0,0.0,0.0,0.0,-0.5028,0.7140,-0.4819,0.0418,0.5464,-0.7247,-0.4177
855,0.0,0.0,0.0,0.0,0.0,0.0,-0.5106,0.7310,-0.4768,0.0418,0.5449,-0.7246,-0.4199
856,0.0,0.0,0.0,0.0,0.0,0.0,-0.5161,0.7437,-0.4718,0.0403,0.5435,-0.7246,-0.4217
857,0.0,0.0,0.0,0.0,0.0,0.0,-0.6474,0.7562,-0.4688,0.0362,0.5434,-0.7236,-0.4241
858,0.0,0.0,0.0,0.0,0.0,0.0,-0.5465,0.7448,-0.4583,0.0335,0.5425,-0.7223,-0.4275
859,0.0,0.0,0.0,0.0,0.0,0.0,-0.5435,0.7288,-0.4555,0.0311,0.5428,-0.7200,-0.4312
860,0.0,0.0,0.0,0.0,0.0,0.0,-0.5259,0.7258,-0.4615,0.0300,0.5435,-0.7178,-0.4340
861,0.0,0.0,0.0,0.0,0.0,0.0,-0.5179,0.7378,-0.4816,0.0291,0.5455,-0.7144,-0.4373
862,0.0,0.0,0.0,0.0,0.0,0.0,-0.5308,0.6939,-0.4514,0.0287,0.5483,-0.7104,-0.4403
863,0.0,0.0,0.0,0.0,0.0,0.0,-0.5158,0.7248,-0.6065,0.0275,0.5517,-0.7073,-0.4411
864,0.0,0.0,0.0,0.0,0.0,0.0,-0.5102,0.6748,-0.4591,0.0252,0.5548,-0.7044,-0.4421
865,0.0,0.0,0.0,0.0,0.0,0.0,-0.5265,0.6435,-0.4293,0.0251,0.5570,-0.7010,-0.4448
866,0.0,0.0,0.0,0.0,0.0,0.0,-0.5248,0.6433,-0.4556,0.0264,0.5594,-0.6979,-0.4465
867,0.0,0.0,0.0,0.0,0.0,0.0,-0.5219,0.6671,-0.4585,0.0304,0.5605,-0.6957,-0.4483
868,0.0,0.0,0.0,0.0,0.0,0.0,-0.5534,0.6810,-0.4298,0.0359,0.5606,-0.6941,-0.4501
869,0.0,0.0,0.0,0.0,0.0,0.0,-0.5435,0.6861,-0.4552,0.0401,0.5598,-0.6942,-0.4506
870,0.0,0.0,0.0,0.0,0.0,0.0,-0.5374,0.6631,-0.4734,0.0438,0.5581,-0.6965,-0.4489
871,0.0,0.0,0.0,0.0,0.0,0.0,-0.5495,0.6950,-0.4317,0.0498,0.5524,-0.7010,-0.4483
872,0.0,0.0,0.0,0.0,0.0,0.0,-0.5502,0.6961,-0.4122,0.0556,0.5474,-0.7042,-0.4487
873,0.0,0.0,0.0,0.0,0.0,0.0,-0.5470,0.6702,-0.4406,0.0623,0.5435,-0.7062,-0.4494
874,0.0,0.0,0.0,0.0,0.0,0.0,-0.5053,0.6529,-0.4612,0.0707,0.5395,-0.7086,-0.4492
875,0.0,0.0,0.0,0.0,0.0,0.0,-0.4678,0.7014,-0.4570,0.0823,0.5354,-0.7105,-0.4492
876,0.0,0.0,0.0,0.0,0.0,0.0,-0.5056,0.7849,-0.4020,0.0942,0.5316,-0.7095,-0.4529
877,0.0,0.0,0.0,0.0,0.0,0.0,-0.5882,0.9132,-0.4194,0.1069,0.5285,-0.7063,-0.4586
878,0.0,0.0,0.0,0.0,0.0,0.0,-0.5112,1.0487,-0.3776,0.1284,0.5257,-0.6986,-0.4680
879,0.0,0.0,0.0,0.0,0.0,0.0,-0.4781,0.8844,-0.3315,0.1509,0.5290,-0.6832,-0.4802
880,0.0,0.0,0.0,0.0,0.0,0.0,-0.4346,0.8512,-0.3356,0.1719,0.5354,-0.6619,-0.4957
881,0.0,0.0,0.0,0.0,0.0,0.0,-0.3480,0.8213,-0.3548,0.1911,0.5405,-0.6409,-0.5105
882,0.0,0.0,0.0,0.0,0.0,0.0,-0.4329,0.7575,-0.3395,0.2012,0.5457,-0.6244,-0.5214
883,0.0,0.0,0.0,0.0,0.0,0.0,-0.4140,0.7405,-0.2691,0.2068,0.5471,-0.6154,-0.5284
884,0.0,0.0,0.0,0.0,0.0,0.0,-0.3824,0.7361,-0.2534,0.2048,0.5474,-0.6125,-0.5322
885,0.0,0.0,0.0,0.0,0.0,0.0,-0.3916,0.7337,-0.2562,0.1915,0.5481,-0.6186,-0.5294
886,0.0,0.0,0.0,0.0,0.0,0.0,-0.4182,0.7476,-0.2924,0.1715,0.5459,-0.6339,-0.5203
887,0.0,0.0,0.0,0.0,0.0,0.0,-0.4445,0.8316,-0.3639,0.1483,0.5414,-0.6524,-0.5092
888,0.0,0.0,0.0,0.0,0.0,0.0,-0.5048,0.9227,-0.3520,0.1286,0.5366,-0.6672,-0.5003
889,0.0,0.0,0.0,0.0,0.0,0.0,-0.4953,0.9005,-0.3229,0.1169,0.5336,-0.6749,-0.4961
890,0.0,0.0,0.0,0.0,0.0,0.0,-0.4711,0.8217,-0.3383,0.1099,0.5327,-0.6785,-0.4937
891,0.0,0.0,0.0,0.0,0.0,0.0,-0.4729,0.7770,-0.3482,0.1060,0.5336,-0.6799,-0.4916
892,0.0,0.0,0.0,0.0,0.0,0.0,-0.4783,0.7605,-0.3385,0.1038,0.5343,-0.6810,-0.4899
893,0.0,0.0,0.0,0.0,0.0,0.0,-0.4486,0.7577,-0.3857,0.1025,0.5337,-0.6836,-0.4871
894,0.0,0.0,0.0,0.0,0.0,0.0,-0.4285,0.8158,-0.4066,0.1025,0.5325,-0.6862,-0.4849
895,0.0,0.0,0.0,0.0,0.0,0.0,-0.4481,0.7839,-0.3909,0.1023,0.5317,-0.6872,-0.4844
896,0.0,0.0,0.0,0.0,0.0,0.0,-0.4272,0.7577,-0.3757,0.1035,0.5295,-0.6877,-0.4857
897,0.0,0.0,0.0,0.0,0.0,0.0,-0.4846,0.8686,-0.3710,0.1097,0.5278,-0.6853,-0.4896
898,0.0,0.0,0.0,0.0,0.0,0.0,-0.5201,0.9872,-0.3554,0.1205,0.5276,-0.6791,-0.4959
899,0.0,0.0,0.0,0.0,0.0,0.0,-0.4512,0.9104,-0.2887,0.1351,0.5284,-0.6697,-0.5041
900,0.0,0.0,0.0,0.0,0.0,0.0,-0.4451,0.8496,-0.3008,0.1557,0.5328,-0.6548,-0.5130
901,0.0,0.0,0.0,0.0,0.0,0.0,-0.4408,0.7924,-0.2773,0.1721,0.5384,-0.6399,-0.5207
902,0.0,0.0,0.0,0.0,0.0,0.0,-0.3926,0.8371,-0.3288,0.1842,0.5414,-0.6305,-0.5248
903,0.0,0.0,0.0,0.0,0.0,0.0,-0.4006,0.8047,-0.2460,0.1932,0.5421,-0.6254,-0.5269
904,0.0,0.0,0.0,0.0,0.0,0.0,-0.4408,0.8117,-0.2338,0.1948,0.5428,-0.6241,-0.5272
905,0.0,0.0,0.0,0.0,0.0,0.0,-0.4382,0.8110,-0.2548,0.1906,0.5431,-0.6245,-0.5280
906,0.0,0.0,0.0,0.0,0.0,0.0,-0.4577,0.7699,-0.2479,0.1837,0.5435,-0.6269,-0.5272
907,0.0,0.0,0.0,0.0,0.0,0.0,-0.4670,0.7564,-0.2377,0.1740,0.5421,-0.6333,-0.5241
908,0.0,0.0,0.0,0.0,0.0,0.0,-0.4687,0.8063,-0.3242,0.1578,0.5380,-0.6438,-0.5207
909,0.0,0.0,0.0,0.0,0.0,0.0,-0.4856,0.8047,-0.4070,0.1412,0.5343,-0.6543,-0.5162
910,0.0,0.0,0.0,0.0,0.0,0.0,-0.4542,0.8727,-0.3338,0.1311,0.5301,-0.6631,-0.5120
911,0.0,0.0,0.0,0.0,0.0,0.0,-0.5104,0.8791,-0.2639,0.1314,0.5277,-0.6647,-0.5122
912,0.0,0.0,0.0,0.0,0.0,0.0,-0.5067,0.8923,-0.2487,0.1361,0.5273,-0.6637,-0.5128
913,0.0,0.0,0.0,0.0,0.0,0.0,-0.4642,0.9217,-0.2646,0.1435,0.5262,-0.6595,-0.5174
914,0.0,0.0,0.0,0.0,0.0,0.0,-0.4774,0.8701,-0.2984,0.1533,0.5240,-0.6488,-0.5301
915,0.0,0.0,0.0,0.0,0.0,0.0,-0.5138,0.9395,-0.2328,0.1706,0.5215,-0.6305,-0.5490
916,0.0,0.0,0.0,0.0,0.0,0.0,-0.5023,0.7942,-0.1215,0.1830,0.5229,-0.6102,-0.5663
917,0.0,0.0,0.0,0.0,0.0,0.0,-0.4746,0.8017,-0.2203,0.1831,0.5288,-0.5977,-0.5741
918,0.0,0.0,0.0,0.0,0.0,0.0,-0.5035,0.7940,-0.1473,0.1838,0.5344,-0.5896,-0.5771
919,0.0,0.0,0.0,0.0,0.0,0.0,-0.4925,0.7972,-0.1743,0.1830,0.5391,-0.5873,-0.5752
920,0.0,0.0,0.0,0.0,0.0,0.0,-0.4918,0.8290,-0.2082,0.1794,0.5440,-0.5894,-0.5696
921,0.0,0.0,0.0,0.0,0.0,0.0,-0.5030,0.7984,-0.2073,0.1776,0.5494,-0.5923,-0.5620
922,0.0,0.0,0.0,0.0,0.0,0.0,-0.4496,0.8205,-0.2278,0.1787,0.5526,-0.5944,-0.5563
923,0.0,0.0,0.0,0.0,0.0,0.0,-0.5038,0.8419,-0.2334,0.1827,0.5570,-0.5922,-0.5529
924,0.0,0.0,0.0,0.0,0.0,0.0,-0.5218,0.8060,-0.2378,0.1878,0.5618,-0.5884,-0.5504
925,0.0,0.0,0.0,0.0,0.0,0.0,-0.5262,0.7837,-0.2315,0.1948,0.5657,-0.5845,-0.5481
926,0.0,0.0,0.0,0.0,0.0,0.0,-0.4291,0.7647,-0.2795,0.2027,0.5673,-0.5841,-0.5439
927,0.0,0.0,0.0,0.0,0.0,0.0,-0.3642,0.7754,-0.3265,0.2091,0.5655,-0.5897,-0.5374
928,0.0,0.0,0.0,0.0,0.0,0.0,-0.3892,0.8777,-0.2881,0.2141,0.5614,-0.5978,-0.5306
929,0.0,0.0,0.0,0.0,0.0,0.0,-0.4202,0.9778,-0.2829,0.2174,0.5567,-0.6039,-0.5274
930,0.0,0.0,0.0,0.0,0.0,0.0,-0.5187,0.8693,-0.2121,0.2211,0.5532,-0.6054,-0.5278
931,0.0,0.0,0.0,0.0,0.0,0.0,-0.4570,0.8331,-0.2301,0.2249,0.5493,-0.6051,-0.5306
932,0.0,0.0,0.0,0.0,0.0,0.0,-0.4212,0.8440,-0.2499,0.2288,0.5447,-0.6038,-0.5351
933,0.0,0.0,0.0,0.0,0.0,0.0,-0.3796,0.8095,-0.2491,0.2314,0.5381,-0.6042,-0.5402
934,0.0,0.0,0.0,0.0,0.0,0.0,-0.3200,0.8572,-0.2681,0.2335,0.5297,-0.6062,-0.5454
935,0.0,0.0,0.0,0.0,0.0,0.0,-0.3192,0.8976,-0.2605,0.2370,0.5199,-0.6079,-0.5513
936,0.0,0.0,0.0,0.0,0.0,0.0,-0.4070,0.9340,-0.1608,0.2387,0.5130,-0.6087,-0.5562
937,0.0,0.0,0.0,0.0,0.0,0.0,-0.4498,0.9372,-0.1286,0.2349,0.5079,-0.6103,-0.5607
938,0.0,0.0,0.0,0.0,0.0,0.0,-0.4008,0.9118,-0.1966,0.2292,0.5022,-0.6126,-0.5657
939,0.0,0.0,0.0,0.0,0.0,0.0,-0.3777,0.9146,-0.2159,0.2240,0.4954,-0.6173,-0.5687
940,0.0,0.0,0.0,0.0,0.0,0.0,-0.4192,0.9359,-0.1646,0.2159,0.4883,-0.6264,-0.5679
941,0.0,0.0,0.0,0.0,0.0,0.0,-0.4143,0.9470,-0.1739,0.2037,0.4873,-0.6391,-0.5591
942,0.0,0.0,0.0,0.0,0.0,0.0,-0.3997,0.8642,-0.1998,0.1905,0.4960,-0.6503,-0.5430
943,0.0,0.0,0.0,0.0,0.0,0.0,-0.3421,0.8739,-0.2531,0.1788,0.5044,-0.6593,-0.5281
944,0.0,0.0,0.0,0.0,0.0,0.0,-0.3395,0.9395,-0.2420,0.1790,0.5067,-0.6635,-0.5206
945,0.0,0.0,0.0,0.0,0.0,0.0,-0.4427,0.9026,-0.2094,0.1799,0.5122,-0.6631,-0.5154
946,0.0,0.0,0.0,0.0,0.0,0.0,-0.4082,0.8893,-0.2352,0.1787,0.5145,-0.6639,-0.5124
947,0.0,0.0,0.0,0.0,0.0,0.0,-0.3664,0.9063,-0.2824,0.1772,0.5146,-0.6661,-0.5100
948,0.0,0.0,0.0,0.0,0.0,0.0,-0.3928,0.8677,-0.2599,0.1771,0.5147,-0.6664,-0.5095
949,0.0,0.0,0.0,0.0,0.0,0.0,-0.3854,0.8661,-0.2726,0.1760,0.5145,-0.6674,-0.5088
950,0.0,0.0,0.0,0.0,0.0,0.0,-0.3742,0.8685,-0.2742,0.1756,0.5141,-0.6690,-0.5073
951,0.0,0.0,0.0,0.0,0.0,0.0,-0.3826,0.8798,-0.2609,0.1772,0.5130,-0.6691,-0.5078
952,0.0,0.0,0.0,0.0,0.0,0.0,-0.3944,0.8944,-0.2534,0.1780,0.5121,-0.6685,-0.5091
953,0.0,0.0,0.0,0.0,0.0,0.0,-0.3960,0.8940,-0.2431,0.1775,0.5111,-0.6681,-0.5108
954,0.0,0.0,0.0,0.0,0.0,0.0,-0.4033,0.8858,-0.2348,0.1770,0.5110,-0.6667,-0.5129
955,0.0,0.0,0.0,0.0,0.0,0.0,-0.4122,0.8927,-0.2239,0.1771,0.5126,-0.6639,-0.5148
956,0.0,0.0,0.0,0.0,0.0,0.0,-0.4204,0.8636,-0.2323,0.1774,0.5158,-0.6602,-0.5164
957,0.0,0.0,0.0,0.0,0.0,0.0,-0.4250,0.8460,-0.2552,0.1779,0.5200,-0.6557,-0.5177
958,0.0,0.0,0.0,0.0,0.0,0.0,-0.4050,0.8672,-0.2622,0.1787,0.5226,-0.6517,-0.5199
959,0.0,0.0,0.0,0.0,0.0,0.0,-0.3917,0.8787,-0.2769,0.1793,0.5251,-0.6479,-0.5220
960,0.0,0.0,0.0,0.0,0.0,0.0,-0.4080,0.8522,-0.2530,0.1792,0.5283,-0.6441,-0.5233
961,0.0,0.0,0.0,0.0,0.0,0.0,-0.4188,0.8485,-0.2426,0.1784,0.5314,-0.6411,-0.5242
962,0.0,0.0,0.0,0.0,0.0,0.0,-0.4251,0.8504,-0.2455,0.1774,0.5345,-0.6379,-0.5252
963,0.0,0.0,0.0,0.0,0.0,0.0,-0.4305,0.8533,-0.2449,0.1769,0.5373,-0.6342,-0.5272
964,0.0,0.0,0.0,0.0,0.0,0.0,-0.4476,0.8485,-0.2442,0.1764,0.5403,-0.6301,-0.5290
965,0.0,0.0,0.0,0.0,0.0,0.0,-0.4465,0.8402,-0.2555,0.1753,0.5441,-0.6269,-0.5294
966,0.0,0.0,0.0,0.0,0.0,0.0,-0.4380,0.8366,-0.2722,0.1727,0.5479,-0.6249,-0.5286
967,0.0,0.0,0.0,0.0,0.0,0.0,-0.4430,0.8318,-0.2678,0.1692,0.5515,-0.6233,-0.5279
968,0.0,0.0,0.0,0.0,0.0,0.0,-0.4595,0.8328,-0.2691,0.1656,0.5553,-0.6216,-0.5271
969,0.0,0.0,0.0,0.0,0.0,0.0,-0.4718,0.8324,-0.2650,0.1631,0.5585,-0.6201,-0.5262
970,0.0,0.0,0.0,0.0,0.0,0.0,-0.4805,0.8358,-0.2737,0.1608,0.5612,-0.6191,-0.5252
971,0.0,0.0,0.0,0.0,0.0,0.0,-0.4863,0.8329,-0.2756,0.1586,0.5638,-0.6181,-0.5243
972,0.0,0.0,0.0,0.0,0.0,0.0,-0.5010,0.8252,-0.2711,0.1558,0.5667,-0.6169,-0.5234
973,0.0,0.0,0.0,0.0,0.0,0.0,-0.5098,0.8155,-0.2701,0.1525,0.5705,-0.6155,-0.5220
974,0.0,0.0,0.0,0.0,0.0,0.0,-0.5067,0.7994,-0.2833,0.1491,0.5747,-0.6142,-0.5198
975,0.0,0.0,0.0,0.0,0.0,0.0,-0.5036,0.7905,-0.2942,0.1464,0.5785,-0.6135,-0.5172
976,0.0,0.0,0.0,0.0,0.0,0.0,-0.5031,0.7885,-0.3015,0.1445,0.5810,-0.6132,-0.5153
977,0.0,0.0,0.0,0.0,0.0,0.0,-0.5105,0.7896,-0.2951,0.1426,0.5832,-0.6127,-0.5139
978,0.0,0.0,0.0,0.0,0.0,0.0,-0.5217,0.7950,-0.2900,0.1406,0.5854,-0.6123,-0.5125
979,0.0,0.0,0.0,0.0,0.0,0.0,-0.5260,0.7740,-0.3018,0.1391,0.5874,-0.6118,-0.5113
980,0.0,0.0,0.0,0.0,0.0,0.0,-0.5234,0.7628,-0.3116,0.1385,0.5887,-0.6118,-0.5098
981,0.0,0.0,0.0,0.0,0.0,0.0,-0.5440,0.7677,-0.3070,0.1383,0.5908,-0.6112,-0.5081
982,0.0,0.0,0.0,0.0,0.0,0.0,-0.5517,0.7633,-0.3191,0.1378,0.5934,-0.6110,-0.5055
983,0.0,0.0,0.0,0.0,0.0,0.0,-0.5305,0.7573,-0.3365,0.1380,0.5946,-0.6127,-0.5019
984,0.0,0.0,0.0,0.0,0.0,0.0,-0.5148,0.7548,-0.3459,0.1406,0.5946,-0.6151,-0.4983
985,0.0,0.0,0.0,0.0,0.0,0.0,-0.5120,0.7756,-0.3429,0.1432,0.5943,-0.6186,-0.4936
986,0.0,0.0,0.0,0.0,0.0,0.0,-0.5169,0.7942,-0.3369,0.1419,0.5937,-0.6234,-0.4886
987,0.0,0.0,0.0,0.0,0.0,0.0,-0.5129,0.7960,-0.3511,0.1365,0.5938,-0.6288,-0.4830
988,0.0,0.0,0.0,0.0,0.0,0.0,-0.4904,0.7780,-0.3529,0.1321,0.5926,-0.6345,-0.4783
989,0.0,0.0,0.0,0.0,0.0,0.0,-0.4863,0.7919,-0.3719,0.1260,0.5904,-0.6411,-0.4738
990,0.0,0.0,0.0,0.0,0.0,0.0,-0.4926,0.7807,-0.3792,0.1181,0.5886,-0.6480,-0.4686
991,0.0,0.0,0.0,0.0,0.0,0.0,-0.5064,0.7730,-0.3669,0.1105,0.5872,-0.6541,-0.4639
992,0.0,0.0,0.0,0.0,0.0,0.0,-0.5243,0.7672,-0.3760,0.1035,0.5857,-0.6579,-0.4620
993,0.0,0.0,0.0,0.0,0.0,0.0,-0.5167,0.7267,-0.4012,0.1017,0.5829,-0.6573,-0.4667
994,0.0,0.0,0.0,0.0,0.0,0.0,-0.5091,0.7681,-0.3859,0.1078,0.5773,-0.6529,-0.4783
995,0.0,0.0,0.0,0.0,0.0,0.0,-0.5317,0.8563,-0.3354,0.1217,0.5738,-0.6409,-0.4952
996,0.0,0.0,0.0,0.0,0.0,0.0,-0.5442,0.7863,-0.2864,0.1365,0.5761,-0.6191,-0.5159
997,0.0,0.0,0.0,0.0,0.0,0.0,-0.5288,0.7670,-0.2613,0.1576,0.5740,-0.5994,-0.5352
998,0.0,0.0,0.0,0.0,0.0,0.0,-0.4585,0.7494,-0.2617,0.1749,0.5677,-0.5896,-0.5473
999,0.0,0.0,0.0,0.0,0.0,0.0,-0.4269,0.7305,-0.2412,0.1797,0.5656,-0.5832,-0.5547
1000,0.0,0.0,0.0,0.0,0.0,0.0,-0.4478,0.7987,-0.2157,0.1738,0.5637,-0.5829,-0.5587
1001,0.0,0.0,0.0,0.0,0.0,0.0,-0.5682,0.9471,-0.2121,0.1581,0.5632,-0.5890,-0.5575
1002,0.0,0.0,0.0,0.0,0.0,0.0,-0.6302,0.9109,-0.1989,0.1431,0.5633,-0.6046,-0.5446
1003,0.0,0.0,0.0,0.0,0.0,0.0,-0.5329,0.6715,-0.5881,0.1238,0.5672,-0.6292,-0.5168
1004,0.0,0.0,0.0,0.0,0.0,0.0,-0.2852,0.9155,-0.1886,0.1182,0.5685,-0.6471,-0.4941
1005,0.0,0.0,0.0,0.0,0.0,0.0,-0.4408,0.8357,-0.4034,0.1071,0.5707,-0.6571,-0.4806
1006,0.0,0.0,0.0,0.0,0.0,0.0,-0.5318,0.8617,-0.3276,0.1000,0.5702,-0.6643,-0.4728
1007,0.0,0.0,0.0,0.0,0.0,0.0,-0.5138,0.8236,-0.3617,0.0935,0.5694,-0.6698,-0.4674
1008,0.0,0.0,0.0,0.0,0.0,0.0,-0.5034,0.8110,-0.4892,0.0834,0.5717,-0.6733,-0.4615
1009,0.0,0.0,0.0,0.0,0.0,0.0,-0.4828,0.7527,-0.4843,0.0739,0.5746,-0.6734,-0.4592
1010,0.0,0.0,0.0,0.0,0.0,0.0,-0.5079,0.6735,-0.4430,0.0657,0.5764,-0.6728,-0.4592
1011,0.0,0.0,0.0,0.0,0.0,0.0,-0.4327,0.6447,-0.4406,0.0609,0.5734,-0.6782,-0.4556
1012,0.0,0.0,0.0,0.0,0.0,0.0,-0.4365,0.6076,-0.6085,0.0630,0.5711,-0.6847,-0.4484
1013,0.0,0.0,0.0,0.0,0.0,0.0,-0.4254,0.5959,-0.5331,0.0650,0.5679,-0.6957,-0.4351
1014,0.0,0.0,0.0,0.0,0.0,0.0,-0.5186,0.8018,-0.4251,0.0684,0.5635,-0.7057,-0.4241
1015,0.0,0.0,0.0,0.0,0.0,0.0,-0.5890,0.8431,-0.3676,0.0755,0.5610,-0.7107,-0.4177
1016,0.0,0.0,0.0,0.0,0.0,0.0,-0.5441,0.8324,-0.3662,0.0778,0.5594,-0.7136,-0.4145
1017,0.0,0.0,0.0,0.0,0.0,0.0,-0.4928,0.8669,-0.4783,0.0760,0.5589,-0.7133,-0.4159
1018,0.0,0.0,0.0,0.0,0.0,0.0,-0.5138,0.7966,-0.4672,0.0754,0.5598,-0.7091,-0.4221
1019,0.0,0.0,0.0,0.0,0.0,0.0,-0.5065,0.7288,-0.4466,0.0763,0.5604,-0.7040,-0.4296
1020,0.0,0.0,0.0,0.0,0.0,0.0,-0.4662,0.7420,-0.4875,0.0791,0.5604,-0.6998,-0.4359
1021,0.0,0.0,0.0,0.0,0.0,0.0,-0.5001,0.7258,-0.4545,0.0850,0.5616,-0.6943,-0.4419
1022,0.0,0.0,0.0,0.0,0.0,0.0,-0.5071,0.7410,-0.4358,0.0915,0.5627,-0.6883,-0.4486
1023,0.0,0.0,0.0,0.0,0.0,0.0,-0.4741,0.7154,-0.4714,0.0948,0.5634,-0.6845,-0.4529
1024,0.0,0.0,0.0,0.0,0.0,0.0,-0.4681,0.6948,-0.4292,0.1000,0.5649,-0.6796,-0.4572
1025,0.0,0.0,0.0,0.0,0.0,0.0,-0.4635,0.6762,-0.4469,0.1082,0.5678,-0.6742,-0.4598
1026,0.0,0.0,0.0,0.0,0.0,0.0,-0.4820,0.7029,-0.4592,0.1187,0.5706,-0.6694,-0.4608
1027,0.0,0.0,0.0,0.0,0.0,0.0,-0.4695,0.7582,-0.3927,0.1301,0.5714,-0.6652,-0.4627
1028,0.0,0.0,0.0,0.0,0.0,0.0,-0.4895,0.8337,-0.3604,0.1384,0.5722,-0.6609,-0.4654
1029,0.0,0.0,0.0,0.0,0.0,0.0,-0.5205,0.8303,-0.3772,0.1447,0.5758,-0.6548,-0.4677
1030,0.0,0.0,0.0,0.0,0.0,0.0,-0.5204,0.7463,-0.3722,0.1504,0.5807,-0.6465,-0.4713
1031,0.0,0.0,0.0,0.0,0.0,0.0,-0.5289,0.6642,-0.3843,0.1527,0.5859,-0.6369,-0.4772
1032,0.0,0.0,0.0,0.0,0.0,0.0,-0.4900,0.7049,-0.3801,0.1560,0.5883,-0.6288,-0.4838
1033,0.0,0.0,0.0,0.0,0.0,0.0,-0.4935,0.7021,-0.3747,0.1630,0.5880,-0.6215,-0.4913
1034,0.0,0.0,0.0,0.0,0.0,0.0,-0.4344,0.7853,-0.3901,0.1692,0.5854,-0.6184,-0.4962
1035,0.0,0.0,0.0,0.0,0.0,0.0,-0.4490,0.8899,-0.3703,0.1693,0.5834,-0.6203,-0.4961
1036,0.0,0.0,0.0,0.0,0.0,0.0,-0.4728,0.9489,-0.3366,0.1710,0.5829,-0.6215,-0.4948
1037,0.0,0.0,0.0,0.0,0.0,0.0,-0.5076,0.8473,-0.3045,0.1728,0.5835,-0.6197,-0.4956
1038,0.0,0.0,0.0,0.0,0.0,0.0,-0.5010,0.8195,-0.3209,0.1740,0.5858,-0.6164,-0.4966
1039,0.0,0.0,0.0,0.0,0.0,0.0,-0.4768,0.8224,-0.3045,0.1775,0.5877,-0.6111,-0.4997
1040,0.0,0.0,0.0,0.0,0.0,0.0,-0.4655,0.8040,-0.3052,0.1803,0.5891,-0.6061,-0.5031
1041,0.0,0.0,0.0,0.0,0.0,0.0,-0.4904,0.7696,-0.3012,0.1812,0.5921,-0.6013,-0.5050
1042,0.0,0.0,0.0,0.0,0.0,0.0,-0.5092,0.7298,-0.3095,0.1770,0.5955,-0.6001,-0.5040
1043,0.0,0.0,0.0,0.0,0.0,0.0,-0.5174,0.7486,-0.3264,0.1718,0.5974,-0.6011,-0.5022
1044,0.0,0.0,0.0,0.0,0.0,0.0,-0.5113,0.7484,-0.3499,0.1664,0.5975,-0.6031,-0.5015
1045,0.0,0.0,0.0,0.0,0.0,0.0,-0.4759,0.7112,-0.3758,0.1610,0.5971,-0.6069,-0.4993
1046,0.0,0.0,0.0,0.0,0.0,0.0,-0.4659,0.7609,-0.3596,0.1576,0.5957,-0.6127,-0.4949
1047,0.0,0.0,0.0,0.0,0.0,0.0,-0.4746,0.8484,-0.3366,0.1577,0.5923,-0.6162,-0.4946
1048,0.0,0.0,0.0,0.0,0.0,0.0,-0.5138,0.8463,-0.3137,0.1604,0.5899,-0.6170,-0.4956
1049,0.0,0.0,0.0,0.0,0.0,0.0,-0.5231,0.8870,-0.3183,0.1635,0.5891,-0.6168,-0.4958
1050,0.0,0.0,0.0,0.0,0.0,0.0,-0.5134,0.8531,-0.3084,0.1652,0.5891,-0.6148,-0.4976
1051,0.0,0.0,0.0,0.0,0.0,0.0,-0.5022,0.8381,-0.3012,0.1650,0.5882,-0.6130,-0.5010
1052,0.0,0.0,0.0,0.0,0.0,0.0,-0.5033,0.8396,-0.2846,0.1641,0.5860,-0.6113,-0.5060
1053,0.0,0.0,0.0,0.0,0.0,0.0,-0.4930,0.8235,-0.2961,0.1592,0.5832,-0.6117,-0.5102
1054,0.0,0.0,0.0,0.0,0.0,0.0,-0.4972,0.8006,-0.3069,0.1491,0.5829,-0.6149,-0.5099
1055,0.0,0.0,0.0,0.0,0.0,0.0,-0.4888,0.7323,-0.3551,0.1323,0.5854,-0.6212,-0.5040
1056,0.0,0.0,0.0,0.0,0.0,0.0,-0.4457,0.6827,-0.4134,0.1146,0.5864,-0.6310,-0.4948
1057,0.0,0.0,0.0,0.0,0.0,0.0,-0.4094,0.7135,-0.4414,0.1007,0.5801,-0.6468,-0.4848
1058,0.0,0.0,0.0,0.0,0.0,0.0,-0.4277,0.7031,-0.4135,0.0946,0.5711,-0.6624,-0.4755
1059,0.0,0.0,0.0,0.0,0.0,0.0,-0.4078,0.7231,-0.4629,0.0914,0.5626,-0.6784,-0.4635
1060,0.0,0.0,0.0,0.0,0.0,0.0,-0.4980,0.7957,-0.3844,0.0927,0.5566,-0.6886,-0.4554
1061,0.0,0.0,0.0,0.0,0.0,0.0,-0.5115,0.8192,-0.2988,0.0966,0.5506,-0.6945,-0.4530
1062,0.0,0.0,0.0,0.0,0.0,0.0,-0.5319,0.8807,-0.3197,0.1039,0.5465,-0.6955,-0.4549
1063,0.0,0.0,0.0,0.0,0.0,0.0,-0.5182,0.8589,-0.3741,0.1125,0.5462,-0.6911,-0.4598
1064,0.0,0.0,0.0,0.0,0.0,0.0,-0.4476,0.8217,-0.4014,0.1214,0.5462,-0.6859,-0.4653
1065,0.0,0.0,0.0,0.0,0.0,0.0,-0.4511,0.8334,-0.3965,0.1338,0.5472,-0.6779,-0.4724
1066,0.0,0.0,0.0,0.0,0.0,0.0,-0.4891,0.8998,-0.4157,0.1500,0.5489,-0.6662,-0.4821
1067,0.0,0.0,0.0,0.0,0.0,0.0,-0.5023,0.9828,-0.4253,0.1695,0.5504,-0.6515,-0.4939
1068,0.0,0.0,0.0,0.0,0.0,0.0,-0.4012,0.9215,-0.2683,0.1948,0.5506,-0.6329,-0.5083
1069,0.0,0.0,0.0,0.0,0.0,0.0,-0.3274,0.8754,-0.3137,0.2192,0.5506,-0.6119,-0.5238
1070,0.0,0.0,0.0,0.0,0.0,0.0,-0.3244,0.8398,-0.2696,0.2386,0.5508,-0.5923,-0.5375
1071,0.0,0.0,0.0,0.0,0.0,0.0,-0.4211,0.8157,-0.2032,0.2530,0.5516,-0.5752,-0.5486
1072,0.0,0.0,0.0,0.0,0.0,0.0,-0.4123,0.8055,-0.2005,0.2627,0.5513,-0.5649,-0.5550
1073,0.0,0.0,0.0,0.0,0.0,0.0,-0.3840,0.8210,-0.2012,0.2671,0.5509,-0.5617,-0.5564
1074,0.0,0.0,0.0,0.0,0.0,0.0,-0.3802,0.8123,-0.1930,0.2663,0.5517,-0.5636,-0.5541
1075,0.0,0.0,0.0,0.0,0.0,0.0,-0.3893,0.8030,-0.2061,0.2653,0.5535,-0.5682,-0.5480
1076,0.0,0.0,0.0,0.0,0.0,0.0,-0.3668,0.8354,-0.2159,0.2661,0.5538,-0.5758,-0.5395
1077,0.0,0.0,0.0,0.0,0.0,0.0,-0.3959,0.8977,-0.2007,0.2674,0.5536,-0.5818,-0.5325
1078,0.0,0.0,0.0,0.0,0.0,0.0,-0.4479,0.9199,-0.1785,0.2659,0.5529,-0.5873,-0.5279
1079,0.0,0.0,0.0,0.0,0.0,0.0,-0.4400,0.9149,-0.1854,0.2634,0.5519,-0.5929,-0.5238
1080,0.0,0.0,0.0,0.0,0.0,0.0,-0.4294,0.9069,-0.2173,0.2576,0.5526,-0.5981,-0.5201
1081,0.0,0.0,0.0,0.0,0.0,0.0,-0.4453,0.8651,-0.2271,0.2512,0.5540,-0.6013,-0.5180
1082,0.0,0.0,0.0,0.0,0.0,0.0,-0.3948,0.8289,-0.2498,0.2456,0.5553,-0.6051,-0.5150
1083,0.0,0.0,0.0,0.0,0.0,0.0,-0.3587,0.8682,-0.3120,0.2378,0.5558,-0.6115,-0.5105
1084,0.0,0.0,0.0,0.0,0.0,0.0,-0.3954,0.8257,-0.2893,0.2262,0.5547,-0.6193,-0.5076
1085,0.0,0.0,0.0,0.0,0.0,0.0,-0.4034,0.7732,-0.3129,0.2117,0.5518,-0.6297,-0.5042
1086,0.0,0.0,0.0,0.0,0.0,0.0,-0.3714,0.8084,-0.3994,0.1969,0.5479,-0.6433,-0.4972
1087,0.0,0.0,0.0,0.0,0.0,0.0,-0.3389,1.0108,-0.3202,0.1837,0.5428,-0.6574,-0.4894
1088,0.0,0.0,0.0,0.0,0.0,0.0,-0.3986,0.9520,-0.2838,0.1725,0.5407,-0.6671,-0.4826
1089,0.0,0.0,0.0,0.0,0.0,0.0,-0.4151,0.8986,-0.2858,0.1582,0.5405,-0.6772,-0.4735
1090,0.0,0.0,0.0,0.0,0.0,0.0,-0.4337,0.9286,-0.2391,0.1477,0.5387,-0.6830,-0.4706
1091,0.0,0.0,0.0,0.0,0.0,0.0,-0.4840,0.8562,-0.2628,0.1428,0.5387,-0.6827,-0.4726
1092,0.0,0.0,0.0,0.0,0.0,0.0,-0.4939,0.8115,-0.3454,0.1402,0.5421,-0.6791,-0.4746
1093,0.0,0.0,0.0,0.0,0.0,0.0,-0.4455,0.7977,-0.3582,0.1386,0.5452,-0.6750,-0.4774
1094,0.0,0.0,0.0,0.0,0.0,0.0,-0.4725,0.7426,-0.3274,0.1386,0.5493,-0.6701,-0.4796
1095,0.0,0.0,0.0,0.0,0.0,0.0,-0.4443,0.7558,-0.3730,0.1404,0.5515,-0.6666,-0.4814
1096,0.0,0.0,0.0,0.0,0.0,0.0,-0.4542,0.7836,-0.3645,0.1446,0.5532,-0.6628,-0.4834
1097,0.0,0.0,0.0,0.0,0.0,0.0,-0.5204,0.8054,-0.3314,0.1528,0.5554,-0.6563,-0.4873
1098,0.0,0.0,0.0,0.0,0.0,0.0,-0.5452,0.8421,-0.2968,0.1702,0.5560,-0.6440,-0.4972
1099,0.0,0.0,0.0,0.0,0.0,0.0,-0.4548,0.8649,-0.2597,0.1931,0.5541,-0.6270,-0.5124
1100,0.0,0.0,0.0,0.0,0.0,0.0,-0.3792,0.7515,-0.2796,0.2129,0.5530,-0.6076,-0.5289
1101,0.0,0.0,0.0,0.0,0.0,0.0,-0.3482,0.7564,-0.2561,0.2175,0.5537,-0.5986,-0.5365
1102,0.0,0.0,0.0,0.0,0.0,0.0,-0.3231,0.8356,-0.3052,0.2128,0.5547,-0.6005,-0.5352
1103,0.0,0.0,0.0,0.0,0.0,0.0,-0.3310,0.7622,-0.3240,0.2053,0.5544,-0.6085,-0.5293
1104,0.0,0.0,0.0,0.0,0.0,0.0,-0.5046,0.8002,-0.2946,0.2031,0.5568,-0.6169,-0.5178
1105,0.0,0.0,0.0,0.0,0.0,0.0,-0.6120,0.7950,-0.1841,0.2134,0.5626,-0.6192,-0.5045
1106,0.0,0.0,0.0,0.0,0.0,0.0,-0.2932,0.9123,-0.2290,0.2431,0.5618,-0.6111,-0.5018
1107,0.0,0.0,0.0,0.0,0.0,0.0,-0.3689,0.9921,-0.2312,0.2694,0.5609,-0.5968,-0.5067
1108,0.0,0.0,0.0,0.0,0.0,0.0,-0.3222,0.9766,-0.2728,0.2836,0.5639,-0.5872,-0.5068
1109,0.0,0.0,0.0,0.0,0.0,0.0,-0.3210,0.9396,-0.2896,0.2927,0.5697,-0.5784,-0.5052
1110,0.0,0.0,0.0,0.0,0.0,0.0,-0.3523,0.9703,-0.2847,0.3000,0.5740,-0.5696,-0.5060
1111,0.0,0.0,0.0,0.0,0.0,0.0,-0.3521,0.9332,-0.2434,0.3057,0.5770,-0.5622,-0.5075
1112,0.0,0.0,0.0,0.0,0.0,0.0,-0.3527,0.9420,-0.2355,0.3082,0.5795,-0.5576,-0.5083
1113,0.0,0.0,0.0,0.0,0.0,0.0,-0.4156,0.9499,-0.2450,0.3085,0.5822,-0.5535,-0.5095
1114,0.0,0.0,0.0,0.0,0.0,0.0,-0.4219,0.8927,-0.2336,0.3072,0.5844,-0.5505,-0.5109
1115,0.0,0.0,0.0,0.0,0.0,0.0,-0.3779,0.9138,-0.2486,0.3045,0.5865,-0.5495,-0.5113
1116,0.0,0.0,0.0,0.0,0.0,0.0,-0.3540,0.8988,-0.2450,0.3010,0.5883,-0.5488,-0.5120
1117,0.0,0.0,0.0,0.0,0.0,0.0,-0.3713,0.8815,-0.2196,0.2964,0.5900,-0.5487,-0.5129
1118,0.0,0.0,0.0,0.0,0.0,0.0,-0.3919,0.9044,-0.2094,0.2903,0.5909,-0.5489,-0.5150
1119,0.0,0.0,0.0,0.0,0.0,0.0,-0.4116,0.8731,-0.1870,0.2820,0.5911,-0.5511,-0.5171
1120,0.0,0.0,0.0,0.0,0.0,0.0,-0.4265,0.8386,-0.1953,0.2706,0.5916,-0.5552,-0.5183
1121,0.0,0.0,0.0,0.0,0.0,0.0,-0.4043,0.8132,-0.2171,0.2536,0.5936,-0.5631,-0.5160
1122,0.0,0.0,0.0,0.0,0.0,0.0,-0.3931,0.8258,-0.2723,0.2315,0.5960,-0.5757,-0.5096
1123,0.0,0.0,0.0,0.0,0.0,0.0,-0.4713,0.7384,-0.2465,0.2068,0.5970,-0.5904,-0.5022
1124,0.0,0.0,0.0,0.0,0.0,0.0,-0.4557,0.8015,-0.3063,0.1829,0.5951,-0.6074,-0.4934
1125,0.0,0.0,0.0,0.0,0.0,0.0,-0.5096,0.8444,-0.2938,0.1699,0.5934,-0.6178,-0.4871
1126,0.0,0.0,0.0,0.0,0.0,0.0,-0.5066,0.8022,-0.2906,0.1630,0.5930,-0.6239,-0.4822
1127,0.0,0.0,0.0,0.0,0.0,0.0,-0.4601,0.8170,-0.3145,0.1598,0.5929,-0.6291,-0.4767
1128,0.0,0.0,0.0,0.0,0.0,0.0,-0.4372,0.8543,-0.3102,0.1594,0.5921,-0.6339,-0.4713
1129,0.0,0.0,0.0,0.0,0.0,0.0,-0.4460,0.8718,-0.3144,0.1586,0.5917,-0.6376,-0.4672
1130,0.0,0.0,0.0,0.0,0.0,0.0,-0.4496,0.8139,-0.3332,0.1569,0.5918,-0.6399,-0.4644
1131,0.0,0.0,0.0,0.0,0.0,0.0,-0.4290,0.7905,-0.3462,0.1573,0.5912,-0.6416,-0.4626
1132,0.0,0.0,0.0,0.0,0.0,0.0,-0.4349,0.8279,-0.3464,0.1612,0.5895,-0.6423,-0.4626
1133,0.0,0.0,0.0,0.0,0.0,0.0,-0.4456,0.8487,-0.3584,0.1654,0.5877,-0.6426,-0.4629
1134,0.0,0.0,0.0,0.0,0.0,0.0,-0.4514,0.8259,-0.3526,0.1680,0.5872,-0.6427,-0.4625
1135,0.0,0.0,0.0,0.0,0.0,0.0,-0.4553,0.8288,-0.3574,0.1698,0.5880,-0.6419,-0.4620
1136,0.0,0.0,0.0,0.0,0.0,0.0,-0.4382,0.8428,-0.3653,0.1723,0.5884,-0.6406,-0.4622
1137,0.0,0.0,0.0,0.0,0.0,0.0,-0.4531,0.8834,-0.3991,0.1775,0.5884,-0.6370,-0.4653
1138,0.0,0.0,0.0,0.0,0.0,0.0,-0.4381,0.8761,-0.3257,0.1867,0.5876,-0.6305,-0.4716
1139,0.0,0.0,0.0,0.0,0.0,0.0,-0.4049,0.8576,-0.3232,0.1955,0.5854,-0.6229,-0.4807
1140,0.0,0.0,0.0,0.0,0.0,0.0,-0.4315,0.8690,-0.2980,0.2057,0.5845,-0.6125,-0.4907
1141,0.0,0.0,0.0,0.0,0.0,0.0,-0.3798,0.8669,-0.2976,0.2153,0.5826,-0.6025,-0.5012
1142,0.0,0.0,0.0,0.0,0.0,0.0,-0.4030,0.8507,-0.2628,0.2262,0.5800,-0.5909,-0.5131
1143,0.0,0.0,0.0,0.0,0.0,0.0,-0.4359,0.8470,-0.2414,0.2356,0.5782,-0.5794,-0.5239
1144,0.0,0.0,0.0,0.0,0.0,0.0,-0.4397,0.8478,-0.2053,0.2427,0.5766,-0.5706,-0.5320
1145,0.0,0.0,0.0,0.0,0.0,0.0,-0.4569,0.8678,-0.1904,0.2484,0.5758,-0.5637,-0.5377
1146,0.0,0.0,0.0,0.0,0.0,0.0,-0.4486,0.8509,-0.1867,0.2537,0.5763,-0.5579,-0.5406
1147,0.0,0.0,0.0,0.0,0.0,0.0,-0.4628,0.8126,-0.1740,0.2549,0.5780,-0.5544,-0.5419
1148,0.0,0.0,0.0,0.0,0.0,0.0,-0.4691,0.8160,-0.1769,0.2515,0.5784,-0.5538,-0.5437
1149,0.0,0.0,0.0,0.0,0.0,0.0,-0.4366,0.8311,-0.1640,0.2452,0.5773,-0.5564,-0.5449
1150,0.0,0.0,0.0,0.0,0.0,0.0,-0.4468,0.8708,-0.1773,0.2388,0.5765,-0.5615,-0.5434
1151,0.0,0.0,0.0,0.0,0.0,0.0,-0.4589,0.8616,-0.1870,0.2321,0.5771,-0.5674,-0.5396
1152,0.0,0.0,0.0,0.0,0.0,0.0,-0.4602,0.8533,-0.1958,0.2237,0.5780,-0.5747,-0.5344
1153,0.0,0.0,0.0,0.0,0.0,0.0,-0.4420,0.8560,-0.2199,0.2136,0.5781,-0.5836,-0.5288
1154,0.0,0.0,0.0,0.0,0.0,0.0,-0.4327,0.8322,-0.2181,0.2034,0.5784,-0.5929,-0.5222
1155,0.0,0.0,0.0,0.0,0.0,0.0,-0.4407,0.8421,-0.2526,0.1931,0.5794,-0.6024,-0.5139
1156,0.0,0.0,0.0,0.0,0.0,0.0,-0.4648,0.8653,-0.2849,0.1842,0.5803,-0.6108,-0.5063
1157,0.0,0.0,0.0,0.0,0.0,0.0,-0.4589,0.8444,-0.2836,0.1773,0.5809,-0.6183,-0.4988
1158,0.0,0.0,0.0,0.0,0.0,0.0,-0.4602,0.8626,-0.3152,0.1719,0.5817,-0.6246,-0.4919
1159,0.0,0.0,0.0,0.0,0.0,0.0,-0.4640,0.8451,-0.3216,0.1690,0.5824,-0.6277,-0.4881
1160,0.0,0.0,0.0,0.0,0.0,0.0,-0.4620,0.8077,-0.3179,0.1659,0.5834,-0.6306,-0.4842
1161,0.0,0.0,0.0,0.0,0.0,0.0,-0.4510,0.8231,-0.3429,0.1636,0.5847,-0.6336,-0.4794
1162,0.0,0.0,0.0,0.0,0.0,0.0,-0.4475,0.8230,-0.3536,0.1625,0.5856,-0.6362,-0.4753
1163,0.0,0.0,0.0,0.0,0.0,0.0,-0.4611,0.8239,-0.3632,0.1616,0.5864,-0.6387,-0.4713
1164,0.0,0.0,0.0,0.0,0.0,0.0,-0.4571,0.8146,-0.3697,0.1602,0.5869,-0.6414,-0.4674
1165,0.0,0.0,0.0,0.0,0.0,0.0,-0.4527,0.8136,-0.3741,0.1592,0.5867,-0.6435,-0.4651
1166,0.0,0.0,0.0,0.0,0.0,0.0,-0.4591,0.7929,-0.3619,0.1582,0.5867,-0.6450,-0.4634
1167,0.0,0.0,0.0,0.0,0.0,0.0,-0.4591,0.7890,-0.3639,0.1577,0.5865,-0.6462,-0.4621
1168,0.0,0.0,0.0,0.0,0.0,0.0,-0.4472,0.7951,-0.3801,0.1581,0.5858,-0.6466,-0.4624
1169,0.0,0.0,0.0,0.0,0.0,0.0,-0.4438,0.7879,-0.3748,0.1583,0.5848,-0.6476,-0.4620
1170,0.0,0.0,0.0,0.0,0.0,0.0,-0.4271,0.7993,-0.3993,0.1577,0.5831,-0.6507,-0.4601
1171,0.0,0.0,0.0,0.0,0.0,0.0,-0.4286,0.8149,-0.3890,0.1565,0.5809,-0.6546,-0.4577
1172,0.0,0.0,0.0,0.0,0.0,0.0,-0.4381,0.8194,-0.3713,0.1560,0.5784,-0.6584,-0.4558
1173,0.0,0.0,0.0,0.0,0.0,0.0,-0.4484,0.8055,-0.3610,0.1566,0.5760,-0.6610,-0.4547
1174,0.0,0.0,0.0,0.0,0.0,0.0,-0.4445,0.8190,-0.3649,0.1583,0.5740,-0.6618,-0.4555
1175,0.0,0.0,0.0,0.0,0.0,0.0,-0.4351,0.8335,-0.3771,0.1604,0.5722,-0.6618,-0.4570
1176,0.0,0.0,0.0,0.0,0.0,0.0,-0.4224,0.8402,-0.3797,0.1627,0.5707,-0.6621,-0.4577
1177,0.0,0.0,0.0,0.0,0.0,0.0,-0.4170,0.8373,-0.3827,0.1642,0.5695,-0.6629,-0.4575
1178,0.0,0.0,0.0,0.0,0.0,0.0,-0.4146,0.8276,-0.3803,0.1649,0.5687,-0.6639,-0.4568
1179,0.0,0.0,0.0,0.0,0.0,0.0,-0.4136,0.8189,-0.3765,0.1662,0.5679,-0.6645,-0.4564
1180,0.0,0.0,0.0,0.0,0.0,0.0,-0.4093,0.8048,-0.3698,0.1693,0.5662,-0.6637,-0.4585
1181,0.0,0.0,0.0,0.0,0.0,0.0,-0.3980,0.8135,-0.3752,0.1718,0.5646,-0.6637,-0.4597
1182,0.0,0.0,0.0,0.0,0.0,0.0,-0.3888,0.8266,-0.3733,0.1745,0.5630,-0.6640,-0.4601
1183,0.0,0.0,0.0,0.0,0.0,0.0,-0.3956,0.8271,-0.3737,0.1764,0.5618,-0.6647,-0.4598
1184,0.0,0.0,0.0,0.0,0.0,0.0,-0.3942,0.8208,-0.3689,0.1784,0.5605,-0.6654,-0.4596
1185,0.0,0.0,0.0,0.0,0.0,0.0,-0.3849,0.8241,-0.3738,0.1806,0.5595,-0.6659,-0.4593
1186,0.0,0.0,0.0,0.0,0.0,0.0,-0.3864,0.8261,-0.3728,0.1827,0.5585,-0.6661,-0.4594
1187,0.0,0.0,0.0,0.0,0.0,0.0,-0.3805,0.8310,-0.3699,0.1852,0.5566,-0.6670,-0.4594
1188,0.0,0.0,0.0,0.0,0.0,0.0,-0.3752,0.8353,-0.3700,0.1888,0.5547,-0.6678,-0.4590
1189,0.0,0.0,0.0,0.0,0.0,0.0,-0.3781,0.8320,-0.3651,0.1923,0.5536,-0.6682,-0.4583
1190,0.0,0.0,0.0,0.0,0.0,0.0,-0.3792,0.8339,-0.3582,0.1954,0.5525,-0.6684,-0.4581
1191,0.0,0.0,0.0,0.0,0.0,0.0,-0.3827,0.8558,-0.3547,0.1988,0.5509,-0.6684,-0.4585
1192,0.0,0.0,0.0,0.0,0.0,0.0,-0.3823,0.8690,-0.3478,0.2025,0.5497,-0.6684,-0.4584
1193,0.0,0.0,0.0,0.0,0.0,0.0,-0.3760,0.8641,-0.3430,0.2047,0.5492,-0.6685,-0.4578
1194,0.0,0.0,0.0,0.0,0.0,0.0,-0.3608,0.8592,-0.3500,0.2065,0.5489,-0.6686,-0.4572
1195,0.0,0.0,0.0,0.0,0.0,0.0,-0.3450,0.8547,-0.3595,0.2083,0.5487,-0.6685,-0.4568
1196,0.0,0.0,0.0,0.0,0.0,0.0,-0.3357,0.8469,-0.3669,0.2102,0.5485,-0.6682,-0.4566
1197,0.0,0.0,0.0,0.0,0.0,0.0,-0.3279,0.8551,-0.3665,0.2124,0.5487,-0.6679,-0.4558
1198,0.0,0.0,0.0,0.0,0.0,0.0,-0.3260,0.8663,-0.3655,0.2150,0.5488,-0.6676,-0.4548
1199,0.0,0.0,0.0,0.0,0.0,0.0,-0.3240,0.8517,-0.3646,0.2171,0.5490,-0.6674,-0.4539
1200,0.0,0.0,0.0,0.0,0.0,0.0,-0.3200,0.8497,-0.3783,0.2183,0.5496,-0.6673,-0.4528
1201,0.0,0.0,0.0,0.0,0.0,0.0,-0.3204,0.8482,-0.3803,0.2202,0.5501,-0.6667,-0.4522
1202,0.0,0.0,0.0,0.0,0.0,0.0,-0.3240,0.8594,-0.3719,0.2225,0.5502,-0.6663,-0.4515
1203,0.0,0.0,0.0,0.0,0.0,0.0,-0.3328,0.8658,-0.3679,0.2241,0.5506,-0.6664,-0.4500
1204,0.0,0.0,0.0,0.0,0.0,0.0,-0.3377,0.8634,-0.3620,0.2254,0.5513,-0.6664,-0.4484
1205,0.0,0.0,0.0,0.0,0.0,0.0,-0.3304,0.8653,-0.3635,0.2270,0.5520,-0.6663,-0.4471
1206,0.0,0.0,0.0,0.0,0.0,0.0,-0.3260,0.8706,-0.3669,0.2284,0.5526,-0.6661,-0.4459
1207,0.0,0.0,0.0,0.0,0.0,0.0,-0.3235,0.8769,-0.3689,0.2296,0.5531,-0.6659,-0.4449
1208,0.0,0.0,0.0,0.0,0.0,0.0,-0.3191,0.8687,-0.3704,0.2312,0.5534,-0.6653,-0.4446
1209,0.0,0.0,0.0,0.0,0.0,0.0,-0.3068,0.8608,-0.3789,0.2323,0.5539,-0.6649,-0.4440
1210,0.0,0.0,0.0,0.0,0.0,0.0,-0.3033,0.8574,-0.3838,0.2334,0.5545,-0.6646,-0.4432
1211,0.0,0.0,0.0,0.0,0.0,0.0,-0.3102,0.8521,-0.3789,0.2349,0.5548,-0.6641,-0.4427
1212,0.0,0.0,0.0,0.0,0.0,0.0,-0.3093,0.8637,-0.3754,0.2359,0.5553,-0.6639,-0.4418
1213,0.0,0.0,0.0,0.0,0.0,0.0,-0.3117,0.8783,-0.3797,0.2367,0.5557,-0.6639,-0.4409
1214,0.0,0.0,0.0,0.0,0.0,0.0,-0.3137,0.8788,-0.3768,0.2382,0.5557,-0.6636,-0.4405
1215,0.0,0.0,0.0,0.0,0.0,0.0,-0.3074,0.8749,-0.3725,0.2398,0.5557,-0.6632,-0.4404
1216,0.0,0.0,0.0,0.0,0.0,0.0,-0.3113,0.8691,-0.3720,0.2407,0.5561,-0.6625,-0.4403
1217,0.0,0.0,0.0,0.0,0.0,0.0,-0.3186,0.8720,-0.3729,0.2411,0.5567,-0.6618,-0.4403
1218,0.0,0.0,0.0,0.0,0.0,0.0,-0.3265,0.8794,-0.3649,0.2418,0.5574,-0.6608,-0.4407
1219,0.0,0.0,0.0,0.0,0.0,0.0,-0.3295,0.8862,-0.3614,0.2422,0.5580,-0.6597,-0.4413
1220,0.0,0.0,0.0,0.0,0.0,0.0,-0.3216,0.8784,-0.3640,0.2426,0.5585,-0.6587,-0.4419
1221,0.0,0.0,0.0,0.0,0.0,0.0,-0.3128,0.8721,-0.3661,0.2425,0.5591,-0.6581,-0.4421
1222,0.0,0.0,0.0,0.0,0.0,0.0,-0.3109,0.8726,-0.3627,0.2428,0.5596,-0.6575,-0.4423
1223,0.0,0.0,0.0,0.0,0.0,0.0,-0.3045,0.8755,-0.3637,0.2433,0.5598,-0.6568,-0.4427
1224,0.0,0.0,0.0,0.0,0.0,0.0,-0.2953,0.8721,-0.3614,0.2438,0.5598,-0.6563,-0.4433
1225,0.0,0.0,0.0,0.0,0.0,0.0,-0.2904,0.8691,-0.3644,0.2447,0.5596,-0.6557,-0.4438
1226,0.0,0.0,0.0,0.0,0.0,0.0,-0.2923,0.8667,-0.3620,0.2455,0.5595,-0.6552,-0.4443
1227,0.0,0.0,0.0,0.0,0.0,0.0,-0.2924,0.8692,-0.3590,0.2459,0.5597,-0.6549,-0.4443
1228,0.0,0.0,0.0,0.0,0.0,0.0,-0.2855,0.8677,-0.3611,0.2465,0.5600,-0.6546,-0.4440
1229,0.0,0.0,0.0,0.0,0.0,0.0,-0.2889,0.8667,-0.3620,0.2473,0.5602,-0.6541,-0.4440
1230,0.0,0.0,0.0,0.0,0.0,0.0,-0.2992,0.8687,-0.3565,0.2482,0.5603,-0.6537,-0.4440
1231,0.0,0.0,0.0,0.0,0.0,0.0,-0.3027,0.8741,-0.3545,0.2493,0.5604,-0.6531,-0.4441
1232,0.0,0.0,0.0,0.0,0.0,0.0,-0.3022,0.8809,-0.3525,0.2509,0.5603,-0.6522,-0.4447
