,Position_X,Position_Y,Position_Z,Velocity_X,Velocity_Y,Velocity_Z,Acceleration_X,Acceleration_Y,Acceleration_Z,Quaterion_0,Quaterion_1,Quaterion_2,Quaterion_3
207,0.0,0.0,0.0,0.0,0.0,0.0,-0.2951,-0.9180,-0.2060,0.6713,-0.7266,0.0979,0.1084
208,0.0,0.0,0.0,0.0,0.0,0.0,-0.2233,-0.9265,-0.1937,0.6683,-0.7297,0.0954,0.1083
209,0.0,0.0,0.0,0.0,0.0,0.0,-0.2800,-0.9351,-0.1928,0.6680,-0.7302,0.0956,0.1070
210,0.0,0.0,0.0,0.0,0.0,0.0,-0.2765,-0.9312,-0.1845,0.6667,-0.7314,0.0965,0.1062
211,0.0,0.0,0.0,0.0,0.0,0.0,-0.2648,-0.9497,-0.1811,0.6675,-0.7310,0.0953,0.1053
212,0.0,0.0,0.0,0.0,0.0,0.0,-0.2961,-0.9365,-0.1826,0.6683,-0.7303,0.0960,0.1046
213,0.0,0.0,0.0,0.0,0.0,0.0,-0.2995,-0.9432,-0.1670,0.6689,-0.7296,0.0965,0.1044
214,0.0,0.0,0.0,0.0,0.0,0.0,-0.2897,-0.9637,-0.1538,0.6706,-0.7282,0.0962,0.1043
215,0.0,0.0,0.0,0.0,0.0,0.0,-0.2897,-0.9656,-0.1431,0.6733,-0.7256,0.0959,0.1047
216,0.0,0.0,0.0,0.0,0.0,0.0,-0.2780,-0.9516,-0.1470,0.6762,-0.7228,0.0956,0.1051
217,0.0,0.0,0.0,0.0,0.0,0.0,-0.2653,-0.9065,-0.1840,0.6766,-0.7224,0.0965,0.1057
218,0.0,0.0,0.0,0.0,0.0,0.0,-0.2321,-0.9182,-0.1762,0.6760,-0.7230,0.0956,0.1060
219,0.0,0.0,0.0,0.0,0.0,0.0,-0.2413,-0.9260,-0.1718,0.6759,-0.7232,0.0947,0.1056
220,0.0,0.0,0.0,0.0,0.0,0.0,-0.2594,-0.9366,-0.1606,0.6755,-0.7236,0.0945,0.1053
221,0.0,0.0,0.0,0.0,0.0,0.0,-0.2706,-0.9535,-0.1509,0.6752,-0.7240,0.0943,0.1049
222,0.0,0.0,0.0,0.0,0.0,0.0,-0.2760,-0.9545,-0.1538,0.6749,-0.7242,0.0944,0.1049
223,0.0,0.0,0.0,0.0,0.0,0.0,-0.2789,-0.9564,-0.1592,0.6748,-0.7243,0.0948,0.1048
224,0.0,0.0,0.0,0.0,0.0,0.0,-0.2887,-0.9622,-0.1548,0.6748,-0.7243,0.0952,0.1050
225,0.0,0.0,0.0,0.0,0.0,0.0,-0.2975,-0.9636,-0.1475,0.6750,-0.7239,0.0958,0.1053
226,0.0,0.0,0.0,0.0,0.0,0.0,-0.2970,-0.9568,-0.1500,0.6755,-0.7234,0.0963,0.1056
227,0.0,0.0,0.0,0.0,0.0,0.0,-0.2897,-0.9462,-0.1553,0.6760,-0.7228,0.0967,0.1062
228,0.0,0.0,0.0,0.0,0.0,0.0,-0.2814,-0.9370,-0.1592,0.6763,-0.7224,0.0969,0.1067
229,0.0,0.0,0.0,0.0,0.0,0.0,-0.2746,-0.9351,-0.1572,0.6766,-0.7221,0.0970,0.1069
230,0.0,0.0,0.0,0.0,0.0,0.0,-0.2731,-0.9385,-0.1504,0.6769,-0.7217,0.0970,0.1071
231,0.0,0.0,0.0,0.0,0.0,0.0,-0.2609,-0.9395,-0.1489,0.6772,-0.7215,0.0967,0.1072
232,0.0,0.0,0.0,0.0,0.0,0.0,-0.2491,-0.9371,-0.1509,0.6774,-0.7214,0.0963,0.1069
233,0.0,0.0,0.0,0.0,0.0,0.0,-0.2433,-0.9357,-0.1518,0.6777,-0.7213,0.0961,0.1061
234,0.0,0.0,0.0,0.0,0.0,0.0,-0.2477,-0.9366,-0.1543,0.6782,-0.7210,0.0959,0.1050
235,0.0,0.0,0.0,0.0,0.0,0.0,-0.2521,-0.9332,-0.1587,0.6784,-0.7209,0.0958,0.1040
236,0.0,0.0,0.0,0.0,0.0,0.0,-0.2570,-0.9327,-0.1621,0.6785,-0.7211,0.0961,0.1025
237,0.0,0.0,0.0,0.0,0.0,0.0,-0.2658,-0.9400,-0.1597,0.6785,-0.7212,0.0966,0.1009
238,0.0,0.0,0.0,0.0,0.0,0.0,-0.2760,-0.9574,-0.1509,0.6786,-0.7212,0.0973,0.0995
239,0.0,0.0,0.0,0.0,0.0,0.0,-0.2843,-0.9637,-0.1504,0.6789,-0.7210,0.0982,0.0984
240,0.0,0.0,0.0,0.0,0.0,0.0,-0.2848,-0.9574,-0.1621,0.6793,-0.7206,0.0992,0.0974
241,0.0,0.0,0.0,0.0,0.0,0.0,-0.2868,-0.9491,-0.1680,0.6796,-0.7202,0.1002,0.0966
242,0.0,0.0,0.0,0.0,0.0,0.0,-0.2863,-0.9472,-0.1670,0.6798,-0.7200,0.1012,0.0962
243,0.0,0.0,0.0,0.0,0.0,0.0,-0.2897,-0.9525,-0.1612,0.6800,-0.7197,0.1021,0.0961
244,0.0,0.0,0.0,0.0,0.0,0.0,-0.2912,-0.9501,-0.1597,0.6802,-0.7194,0.1026,0.0963
245,0.0,0.0,0.0,0.0,0.0,0.0,-0.2741,-0.9526,-0.1563,0.6809,-0.7187,0.1022,0.0969
246,0.0,0.0,0.0,0.0,0.0,0.0,-0.2258,-0.8843,-0.2273,0.6807,-0.7194,0.0988,0.0965
247,0.0,0.0,0.0,0.0,0.0,0.0,-0.2466,-1.0017,-0.1240,0.6813,-0.7191,0.0980,0.0954
248,0.0,0.0,0.0,0.0,0.0,0.0,-0.2556,-0.8846,-0.2016,0.6783,-0.7217,0.1004,0.0945
249,0.0,0.0,0.0,0.0,0.0,0.0,-0.2271,-0.9615,-0.1415,0.6767,-0.7233,0.0997,0.0943
250,0.0,0.0,0.0,0.0,0.0,0.0,-0.2711,-0.9511,-0.1567,0.6760,-0.7239,0.1001,0.0944
251,0.0,0.0,0.0,0.0,0.0,0.0,-0.2995,-0.9534,-0.1466,0.6744,-0.7252,0.1009,0.0955
252,0.0,0.0,0.0,0.0,0.0,0.0,-0.2662,-0.9701,-0.1421,0.6738,-0.7257,0.1002,0.0967
253,0.0,0.0,0.0,0.0,0.0,0.0,-0.2574,-0.9633,-0.1460,0.6743,-0.7253,0.0994,0.0973
254,0.0,0.0,0.0,0.0,0.0,0.0,-0.2609,-0.9516,-0.1475,0.6751,-0.7245,0.0987,0.0977
255,0.0,0.0,0.0,0.0,0.0,0.0,-0.2535,-0.9449,-0.1538,0.6757,-0.7240,0.0981,0.0981
256,0.0,0.0,0.0,0.0,0.0,0.0,-0.2579,-0.9395,-0.1587,0.6758,-0.7239,0.0983,0.0982
257,0.0,0.0,0.0,0.0,0.0,0.0,-0.2687,-0.9336,-0.1670,0.6749,-0.7245,0.0991,0.0984
258,0.0,0.0,0.0,0.0,0.0,0.0,-0.2653,-0.9341,-0.1728,0.6733,-0.7260,0.0997,0.0987
259,0.0,0.0,0.0,0.0,0.0,0.0,-0.2056,-0.9737,-0.1405,0.6750,-0.7248,0.0969,0.0980
260,0.0,0.0,0.0,0.0,0.0,0.0,-0.4046,-0.9215,-0.1867,0.6764,-0.7232,0.1001,0.0970
261,0.0,0.0,0.0,0.0,0.0,0.0,-0.3087,-0.9689,-0.1378,0.6758,-0.7236,0.1012,0.0972
262,0.0,0.0,0.0,0.0,0.0,0.0,-0.2765,-0.9676,-0.1485,0.6762,-0.7233,0.1009,0.0972
263,0.0,0.0,0.0,0.0,0.0,0.0,-0.2921,-0.9637,-0.1504,0.6766,-0.7228,0.1016,0.0975
264,0.0,0.0,0.0,0.0,0.0,0.0,-0.2843,-0.9520,-0.1563,0.6769,-0.7223,0.1023,0.0981
265,0.0,0.0,0.0,0.0,0.0,0.0,-0.2780,-0.9501,-0.1587,0.6773,-0.7218,0.1027,0.0986
266,0.0,0.0,0.0,0.0,0.0,0.0,-0.2755,-0.9477,-0.1567,0.6777,-0.7213,0.1029,0.0992
267,0.0,0.0,0.0,0.0,0.0,0.0,-0.2780,-0.9477,-0.1519,0.6782,-0.7207,0.1031,0.1000
268,0.0,0.0,0.0,0.0,0.0,0.0,-0.2750,-0.9423,-0.1533,0.6787,-0.7201,0.1034,0.1005
269,0.0,0.0,0.0,0.0,0.0,0.0,-0.2682,-0.9375,-0.1572,0.6791,-0.7197,0.1034,0.1011
270,0.0,0.0,0.0,0.0,0.0,0.0,-0.2653,-0.9341,-0.1606,0.6793,-0.7194,0.1033,0.1016
271,0.0,0.0,0.0,0.0,0.0,0.0,-0.2697,-0.9356,-0.1558,0.6796,-0.7191,0.1035,0.1017
272,0.0,0.0,0.0,0.0,0.0,0.0,-0.2731,-0.9394,-0.1533,0.6798,-0.7188,0.1037,0.1021
273,0.0,0.0,0.0,0.0,0.0,0.0,-0.2726,-0.9428,-0.1528,0.6800,-0.7186,0.1037,0.1023
274,0.0,0.0,0.0,0.0,0.0,0.0,-0.2765,-0.9433,-0.1548,0.6802,-0.7184,0.1039,0.1026
275,0.0,0.0,0.0,0.0,0.0,0.0,-0.2726,-0.9385,-0.1563,0.6800,-0.7184,0.1039,0.1031
276,0.0,0.0,0.0,0.0,0.0,0.0,-0.2672,-0.9395,-0.1567,0.6800,-0.7184,0.1039,0.1033
277,0.0,0.0,0.0,0.0,0.0,0.0,-0.2701,-0.9429,-0.1524,0.6802,-0.7183,0.1040,0.1032
278,0.0,0.0,0.0,0.0,0.0,0.0,-0.2760,-0.9448,-0.1509,0.6802,-0.7182,0.1040,0.1034
279,0.0,0.0,0.0,0.0,0.0,0.0,-0.2814,-0.9501,-0.1475,0.6806,-0.7178,0.1041,0.1035
280,0.0,0.0,0.0,0.0,0.0,0.0,-0.2882,-0.9476,-0.1495,0.6809,-0.7175,0.1046,0.1036
281,0.0,0.0,0.0,0.0,0.0,0.0,-0.2717,-0.9210,-0.1928,0.6791,-0.7191,0.1041,0.1037
282,0.0,0.0,0.0,0.0,0.0,0.0,-0.1783,-0.9587,-0.1517,0.6788,-0.7204,0.0981,0.1032
283,0.0,0.0,0.0,0.0,0.0,0.0,-0.2291,-0.9362,-0.1703,0.6799,-0.7200,0.0950,0.1017
284,0.0,0.0,0.0,0.0,0.0,0.0,-0.2613,-0.9560,-0.1382,0.6802,-0.7202,0.0930,0.1001
285,0.0,0.0,0.0,0.0,0.0,0.0,-0.2833,-0.9545,-0.1426,0.6801,-0.7204,0.0928,0.0992
286,0.0,0.0,0.0,0.0,0.0,0.0,-0.2887,-0.9428,-0.1504,0.6789,-0.7215,0.0941,0.0987
287,0.0,0.0,0.0,0.0,0.0,0.0,-0.2814,-0.9564,-0.1446,0.6777,-0.7225,0.0950,0.0987
288,0.0,0.0,0.0,0.0,0.0,0.0,-0.2677,-0.9613,-0.1411,0.6772,-0.7229,0.0951,0.0986
289,0.0,0.0,0.0,0.0,0.0,0.0,-0.2648,-0.9516,-0.1460,0.6773,-0.7229,0.0948,0.0985
290,0.0,0.0,0.0,0.0,0.0,0.0,-0.2736,-0.9448,-0.1514,0.6773,-0.7229,0.0950,0.0986
291,0.0,0.0,0.0,0.0,0.0,0.0,-0.2785,-0.9467,-0.1504,0.6773,-0.7227,0.0958,0.0988
292,0.0,0.0,0.0,0.0,0.0,0.0,-0.2789,-0.9545,-0.1460,0.6775,-0.7223,0.0967,0.0993
293,0.0,0.0,0.0,0.0,0.0,0.0,-0.2770,-0.9511,-0.1480,0.6779,-0.7217,0.0976,0.1000
294,0.0,0.0,0.0,0.0,0.0,0.0,-0.2521,-0.9347,-0.1660,0.6784,-0.7213,0.0973,0.1006
295,0.0,0.0,0.0,0.0,0.0,0.0,-0.2291,-0.9144,-0.1815,0.6788,-0.7211,0.0956,0.1007
296,0.0,0.0,0.0,0.0,0.0,0.0,-0.2507,-0.9012,-0.1840,0.6779,-0.7221,0.0952,0.1003
297,0.0,0.0,0.0,0.0,0.0,0.0,-0.2399,-0.9153,-0.1752,0.6760,-0.7241,0.0940,0.0997
298,0.0,0.0,0.0,0.0,0.0,0.0,-0.2320,-0.9357,-0.1669,0.6752,-0.7253,0.0911,0.0987
299,0.0,0.0,0.0,0.0,0.0,0.0,-0.2491,-0.9429,-0.1635,0.6744,-0.7265,0.0888,0.0974
300,0.0,0.0,0.0,0.0,0.0,0.0,-0.2531,-0.9478,-0.1650,0.6738,-0.7276,0.0863,0.0959
301,0.0,0.0,0.0,0.0,0.0,0.0,-0.2506,-0.9449,-0.1733,0.6727,-0.7291,0.0837,0.0947
302,0.0,0.0,0.0,0.0,0.0,0.0,-0.2453,-0.9381,-0.1772,0.6715,-0.7306,0.0811,0.0935
303,0.0,0.0,0.0,0.0,0.0,0.0,-0.2472,-0.9439,-0.1738,0.6703,-0.7321,0.0787,0.0922
304,0.0,0.0,0.0,0.0,0.0,0.0,-0.2472,-0.9570,-0.1703,0.6690,-0.7337,0.0763,0.0912
305,0.0,0.0,0.0,0.0,0.0,0.0,-0.2389,-0.9682,-0.1674,0.6677,-0.7351,0.0740,0.0907
306,0.0,0.0,0.0,0.0,0.0,0.0,-0.2262,-0.9736,-0.1683,0.6667,-0.7363,0.0715,0.0905
307,0.0,0.0,0.0,0.0,0.0,0.0,-0.2174,-0.9698,-0.1737,0.6659,-0.7374,0.0689,0.0901
308,0.0,0.0,0.0,0.0,0.0,0.0,-0.2091,-0.9625,-0.1820,0.6650,-0.7384,0.0662,0.0898
309,0.0,0.0,0.0,0.0,0.0,0.0,-0.2017,-0.9586,-0.1839,0.6642,-0.7394,0.0635,0.0894
310,0.0,0.0,0.0,0.0,0.0,0.0,-0.1983,-0.9596,-0.1839,0.6637,-0.7402,0.0609,0.0889
311,0.0,0.0,0.0,0.0,0.0,0.0,-0.1973,-0.9635,-0.1805,0.6633,-0.7408,0.0583,0.0883
312,0.0,0.0,0.0,0.0,0.0,0.0,-0.2012,-0.9708,-0.1795,0.6631,-0.7413,0.0560,0.0879
313,0.0,0.0,0.0,0.0,0.0,0.0,-0.2017,-0.9717,-0.1839,0.6629,-0.7416,0.0540,0.0876
314,0.0,0.0,0.0,0.0,0.0,0.0,-0.1983,-0.9654,-0.1902,0.6625,-0.7421,0.0522,0.0876
315,0.0,0.0,0.0,0.0,0.0,0.0,-0.1973,-0.9669,-0.1893,0.6620,-0.7426,0.0506,0.0879
316,0.0,0.0,0.0,0.0,0.0,0.0,-0.1983,-0.9761,-0.1819,0.6618,-0.7429,0.0494,0.0884
317,0.0,0.0,0.0,0.0,0.0,0.0,-0.1934,-0.9742,-0.1844,0.6614,-0.7432,0.0482,0.0891
318,0.0,0.0,0.0,0.0,0.0,0.0,-0.1885,-0.9708,-0.1887,0.6610,-0.7434,0.0473,0.0900
319,0.0,0.0,0.0,0.0,0.0,0.0,-0.1881,-0.9665,-0.1912,0.6607,-0.7436,0.0466,0.0911
320,0.0,0.0,0.0,0.0,0.0,0.0,-0.1885,-0.9708,-0.1892,0.6604,-0.7438,0.0458,0.0921
321,0.0,0.0,0.0,0.0,0.0,0.0,-0.1856,-0.9728,-0.1887,0.6604,-0.7438,0.0452,0.0929
322,0.0,0.0,0.0,0.0,0.0,0.0,-0.1812,-0.9689,-0.1921,0.6604,-0.7437,0.0447,0.0935
323,0.0,0.0,0.0,0.0,0.0,0.0,-0.1768,-0.9616,-0.1980,0.6603,-0.7438,0.0440,0.0942
324,0.0,0.0,0.0,0.0,0.0,0.0,-0.1710,-0.9524,-0.2033,0.6601,-0.7440,0.0431,0.0948
325,0.0,0.0,0.0,0.0,0.0,0.0,-0.1685,-0.9437,-0.2092,0.6597,-0.7443,0.0420,0.0949
326,0.0,0.0,0.0,0.0,0.0,0.0,-0.1685,-0.9398,-0.2121,0.6591,-0.7449,0.0410,0.0948
327,0.0,0.0,0.0,0.0,0.0,0.0,-0.1602,-0.9389,-0.2175,0.6583,-0.7457,0.0399,0.0945
328,0.0,0.0,0.0,0.0,0.0,0.0,-0.1603,-0.9311,-0.2233,0.6575,-0.7466,0.0389,0.0937
329,0.0,0.0,0.0,0.0,0.0,0.0,-0.1652,-0.9238,-0.2292,0.6563,-0.7478,0.0381,0.0926
330,0.0,0.0,0.0,0.0,0.0,0.0,-0.1671,-0.9355,-0.2262,0.6550,-0.7492,0.0372,0.0913
331,0.0,0.0,0.0,0.0,0.0,0.0,-0.1749,-0.9549,-0.2180,0.6540,-0.7502,0.0366,0.0897
332,0.0,0.0,0.0,0.0,0.0,0.0,-0.1837,-0.9602,-0.2155,0.6533,-0.7511,0.0362,0.0883
333,0.0,0.0,0.0,0.0,0.0,0.0,-0.1856,-0.9626,-0.2180,0.6525,-0.7520,0.0357,0.0870
334,0.0,0.0,0.0,0.0,0.0,0.0,-0.1866,-0.9703,-0.2156,0.6518,-0.7527,0.0351,0.0858
335,0.0,0.0,0.0,0.0,0.0,0.0,-0.1939,-0.9698,-0.2195,0.6514,-0.7531,0.0350,0.0849
336,0.0,0.0,0.0,0.0,0.0,0.0,-0.1974,-0.9645,-0.2253,0.6509,-0.7537,0.0350,0.0844
337,0.0,0.0,0.0,0.0,0.0,0.0,-0.1886,-0.9635,-0.2277,0.6501,-0.7543,0.0348,0.0843
338,0.0,0.0,0.0,0.0,0.0,0.0,-0.1827,-0.9631,-0.2272,0.6494,-0.7550,0.0346,0.0844
339,0.0,0.0,0.0,0.0,0.0,0.0,-0.1783,-0.9680,-0.2228,0.6487,-0.7555,0.0345,0.0846
340,0.0,0.0,0.0,0.0,0.0,0.0,-0.1759,-0.9728,-0.2224,0.6483,-0.7559,0.0347,0.0849
341,0.0,0.0,0.0,0.0,0.0,0.0,-0.1720,-0.9631,-0.2340,0.6479,-0.7561,0.0352,0.0854
342,0.0,0.0,0.0,0.0,0.0,0.0,-0.1622,-0.9491,-0.2501,0.6473,-0.7566,0.0355,0.0860
343,0.0,0.0,0.0,0.0,0.0,0.0,-0.1549,-0.9447,-0.2589,0.6464,-0.7573,0.0356,0.0864
344,0.0,0.0,0.0,0.0,0.0,0.0,-0.1588,-0.9481,-0.2501,0.6458,-0.7578,0.0353,0.0863
345,0.0,0.0,0.0,0.0,0.0,0.0,-0.1769,-0.9646,-0.2331,0.6459,-0.7577,0.0355,0.0859
346,0.0,0.0,0.0,0.0,0.0,0.0,-0.1935,-0.9796,-0.2214,0.6466,-0.7571,0.0364,0.0856
347,0.0,0.0,0.0,0.0,0.0,0.0,-0.2076,-0.9780,-0.2161,0.6474,-0.7564,0.0380,0.0859
348,0.0,0.0,0.0,0.0,0.0,0.0,-0.2086,-0.9659,-0.2210,0.6482,-0.7554,0.0400,0.0867
349,0.0,0.0,0.0,0.0,0.0,0.0,-0.1950,-0.9470,-0.2365,0.6487,-0.7548,0.0418,0.0881
350,0.0,0.0,0.0,0.0,0.0,0.0,-0.1803,-0.9354,-0.2497,0.6483,-0.7550,0.0448,0.0877
351,0.0,0.0,0.0,0.0,0.0,0.0,-0.1828,-0.9286,-0.2477,0.6479,-0.7551,0.0464,0.0887
352,0.0,0.0,0.0,0.0,0.0,0.0,-0.1906,-0.9286,-0.2414,0.6474,-0.7553,0.0481,0.0896
353,0.0,0.0,0.0,0.0,0.0,0.0,-0.1906,-0.9305,-0.2390,0.6465,-0.7559,0.0498,0.0908
354,0.0,0.0,0.0,0.0,0.0,0.0,-0.1896,-0.9242,-0.2424,0.6453,-0.7566,0.0511,0.0919
355,0.0,0.0,0.0,0.0,0.0,0.0,-0.1881,-0.9266,-0.2472,0.6446,-0.7570,0.0522,0.0930
356,0.0,0.0,0.0,0.0,0.0,0.0,-0.2033,-0.9373,-0.2497,0.6443,-0.7572,0.0533,0.0934
357,0.0,0.0,0.0,0.0,0.0,0.0,-0.2077,-0.9504,-0.2336,0.6441,-0.7572,0.0540,0.0941
358,0.0,0.0,0.0,0.0,0.0,0.0,-0.1964,-0.9557,-0.2307,0.6448,-0.7565,0.0539,0.0949
359,0.0,0.0,0.0,0.0,0.0,0.0,-0.1998,-0.9577,-0.2307,0.6465,-0.7549,0.0540,0.0956
360,0.0,0.0,0.0,0.0,0.0,0.0,-0.2047,-0.9533,-0.2322,0.6481,-0.7536,0.0549,0.0955
361,0.0,0.0,0.0,0.0,0.0,0.0,-0.2062,-0.9577,-0.2302,0.6496,-0.7522,0.0564,0.0951
362,0.0,0.0,0.0,0.0,0.0,0.0,-0.2199,-0.9595,-0.2263,0.6510,-0.7509,0.0577,0.0950
363,0.0,0.0,0.0,0.0,0.0,0.0,-0.2507,-0.9454,-0.2444,0.6505,-0.7511,0.0588,0.0963
364,0.0,0.0,0.0,0.0,0.0,0.0,-0.2071,-0.9674,-0.2024,0.6498,-0.7515,0.0589,0.0975
365,0.0,0.0,0.0,0.0,0.0,0.0,-0.1905,-0.9679,-0.1922,0.6520,-0.7496,0.0599,0.0971
366,0.0,0.0,0.0,0.0,0.0,0.0,-0.2194,-0.9338,-0.2254,0.6533,-0.7483,0.0621,0.0970
367,0.0,0.0,0.0,0.0,0.0,0.0,-0.2126,-0.9270,-0.2258,0.6531,-0.7483,0.0641,0.0972
368,0.0,0.0,0.0,0.0,0.0,0.0,-0.2072,-0.9329,-0.2180,0.6525,-0.7487,0.0656,0.0971
369,0.0,0.0,0.0,0.0,0.0,0.0,-0.2174,-0.9343,-0.2107,0.6519,-0.7490,0.0673,0.0970
370,0.0,0.0,0.0,0.0,0.0,0.0,-0.2296,-0.9352,-0.2117,0.6508,-0.7498,0.0693,0.0968
371,0.0,0.0,0.0,0.0,0.0,0.0,-0.2326,-0.9260,-0.2244,0.6487,-0.7515,0.0716,0.0968
372,0.0,0.0,0.0,0.0,0.0,0.0,-0.2165,-0.9134,-0.2429,0.6461,-0.7536,0.0729,0.0969
373,0.0,0.0,0.0,0.0,0.0,0.0,-0.1940,-0.9077,-0.2531,0.6436,-0.7558,0.0730,0.0966
374,0.0,0.0,0.0,0.0,0.0,0.0,-0.1901,-0.9121,-0.2604,0.6414,-0.7577,0.0725,0.0958
375,0.0,0.0,0.0,0.0,0.0,0.0,-0.2121,-0.9144,-0.2712,0.6394,-0.7596,0.0722,0.0947
376,0.0,0.0,0.0,0.0,0.0,0.0,-0.2273,-0.9236,-0.2844,0.6368,-0.7619,0.0720,0.0939
377,0.0,0.0,0.0,0.0,0.0,0.0,-0.2351,-0.9634,-0.2834,0.6345,-0.7639,0.0723,0.0930
378,0.0,0.0,0.0,0.0,0.0,0.0,-0.2565,-0.9856,-0.2600,0.6325,-0.7656,0.0731,0.0921
379,0.0,0.0,0.0,0.0,0.0,0.0,-0.2644,-0.9720,-0.2571,0.6307,-0.7670,0.0741,0.0917
380,0.0,0.0,0.0,0.0,0.0,0.0,-0.2556,-0.9653,-0.2605,0.6294,-0.7680,0.0747,0.0924
381,0.0,0.0,0.0,0.0,0.0,0.0,-0.2473,-0.9570,-0.2644,0.6287,-0.7683,0.0747,0.0934
382,0.0,0.0,0.0,0.0,0.0,0.0,-0.2409,-0.9405,-0.2766,0.6282,-0.7686,0.0749,0.0948
383,0.0,0.0,0.0,0.0,0.0,0.0,-0.2268,-0.9289,-0.2805,0.6276,-0.7690,0.0751,0.0959
384,0.0,0.0,0.0,0.0,0.0,0.0,-0.2253,-0.9280,-0.2809,0.6272,-0.7691,0.0754,0.0968
385,0.0,0.0,0.0,0.0,0.0,0.0,-0.2395,-0.9269,-0.2741,0.6273,-0.7689,0.0758,0.0975
386,0.0,0.0,0.0,0.0,0.0,0.0,-0.2361,-0.9240,-0.2722,0.6273,-0.7688,0.0759,0.0982
387,0.0,0.0,0.0,0.0,0.0,0.0,-0.2248,-0.9241,-0.2697,0.6276,-0.7685,0.0758,0.0989
388,0.0,0.0,0.0,0.0,0.0,0.0,-0.2239,-0.9246,-0.2800,0.6280,-0.7681,0.0752,0.0997
389,0.0,0.0,0.0,0.0,0.0,0.0,-0.2229,-0.9353,-0.2741,0.6282,-0.7680,0.0746,0.0999
390,0.0,0.0,0.0,0.0,0.0,0.0,-0.2189,-0.9469,-0.2644,0.6293,-0.7672,0.0736,0.1002
391,0.0,0.0,0.0,0.0,0.0,0.0,-0.2165,-0.9431,-0.2722,0.6307,-0.7661,0.0722,0.1008
392,0.0,0.0,0.0,0.0,0.0,0.0,-0.2209,-0.9372,-0.2834,0.6322,-0.7649,0.0710,0.1012
393,0.0,0.0,0.0,0.0,0.0,0.0,-0.2439,-0.9211,-0.2902,0.6335,-0.7638,0.0701,0.1018
394,0.0,0.0,0.0,0.0,0.0,0.0,-0.2742,-0.9089,-0.2879,0.6345,-0.7629,0.0702,0.1024
395,0.0,0.0,0.0,0.0,0.0,0.0,-0.2986,-0.9083,-0.2811,0.6352,-0.7621,0.0712,0.1034
396,0.0,0.0,0.0,0.0,0.0,0.0,-0.3089,-0.9126,-0.2738,0.6350,-0.7618,0.0729,0.1053
397,0.0,0.0,0.0,0.0,0.0,0.0,-0.2947,-0.9209,-0.2679,0.6341,-0.7620,0.0744,0.1081
398,0.0,0.0,0.0,0.0,0.0,0.0,-0.2674,-0.9167,-0.2718,0.6323,-0.7630,0.0752,0.1115
399,0.0,0.0,0.0,0.0,0.0,0.0,-0.2434,-0.9119,-0.2756,0.6304,-0.7640,0.0748,0.1155
400,0.0,0.0,0.0,0.0,0.0,0.0,-0.2263,-0.9061,-0.2732,0.6284,-0.7652,0.0733,0.1197
401,0.0,0.0,0.0,0.0,0.0,0.0,-0.2190,-0.9042,-0.2668,0.6262,-0.7665,0.0715,0.1235
402,0.0,0.0,0.0,0.0,0.0,0.0,-0.2160,-0.9173,-0.2561,0.6247,-0.7673,0.0701,0.1267
403,0.0,0.0,0.0,0.0,0.0,0.0,-0.2102,-0.9203,-0.2561,0.6233,-0.7680,0.0696,0.1293
404,0.0,0.0,0.0,0.0,0.0,0.0,-0.1926,-0.9077,-0.2726,0.6215,-0.7693,0.0698,0.1306
405,0.0,0.0,0.0,0.0,0.0,0.0,-0.1901,-0.9092,-0.2789,0.6200,-0.7704,0.0702,0.1307
406,0.0,0.0,0.0,0.0,0.0,0.0,-0.2141,-0.9202,-0.2780,0.6193,-0.7711,0.0725,0.1287
407,0.0,0.0,0.0,0.0,0.0,0.0,-0.2331,-0.9177,-0.2829,0.6189,-0.7717,0.0767,0.1245
408,0.0,0.0,0.0,0.0,0.0,0.0,-0.2195,-0.9129,-0.3014,0.6180,-0.7729,0.0803,0.1189
409,0.0,0.0,0.0,0.0,0.0,0.0,-0.2297,-0.9241,-0.3073,0.6171,-0.7742,0.0828,0.1137
410,0.0,0.0,0.0,0.0,0.0,0.0,-0.2801,-0.9540,-0.3069,0.6162,-0.7752,0.0861,0.1092
411,0.0,0.0,0.0,0.0,0.0,0.0,-0.3275,-0.9601,-0.3123,0.6144,-0.7766,0.0905,0.1060
412,0.0,0.0,0.0,0.0,0.0,0.0,-0.3906,-0.9152,-0.3295,0.6106,-0.7791,0.0967,0.1042
413,0.0,0.0,0.0,0.0,0.0,0.0,-0.3833,-0.8813,-0.3539,0.6044,-0.7830,0.1037,0.1042
414,0.0,0.0,0.0,0.0,0.0,0.0,-0.3232,-0.8990,-0.3528,0.5978,-0.7871,0.1097,0.1054
415,0.0,0.0,0.0,0.0,0.0,0.0,-0.2807,-0.8763,-0.3517,0.5922,-0.7905,0.1133,0.1077
416,0.0,0.0,0.0,0.0,0.0,0.0,-0.2768,-0.8477,-0.3693,0.5877,-0.7933,0.1142,0.1110
417,0.0,0.0,0.0,0.0,0.0,0.0,-0.2905,-0.8544,-0.3678,0.5839,-0.7956,0.1132,0.1152
418,0.0,0.0,0.0,0.0,0.0,0.0,-0.2519,-0.8410,-0.3848,0.5818,-0.7968,0.1086,0.1215
419,0.0,0.0,0.0,0.0,0.0,0.0,-0.2484,-0.8619,-0.3916,0.5827,-0.7959,0.1018,0.1290
420,0.0,0.0,0.0,0.0,0.0,0.0,-0.2425,-0.8347,-0.3375,0.5869,-0.7923,0.0956,0.1366
421,0.0,0.0,0.0,0.0,0.0,0.0,-0.2924,-0.8029,-0.3108,0.5936,-0.7865,0.0927,0.1432
422,0.0,0.0,0.0,0.0,0.0,0.0,-0.4308,-0.7845,-0.4125,0.5900,-0.7884,0.0925,0.1478
423,0.0,0.0,0.0,0.0,0.0,0.0,-0.2947,-0.9039,-0.2723,0.5886,-0.7896,0.0877,0.1498
424,0.0,0.0,0.0,0.0,0.0,0.0,-0.3251,-0.9140,-0.3265,0.5877,-0.7902,0.0829,0.1530
425,0.0,0.0,0.0,0.0,0.0,0.0,-0.3495,-0.9037,-0.3465,0.5852,-0.7918,0.0755,0.1578
426,0.0,0.0,0.0,0.0,0.0,0.0,-0.3310,-0.8863,-0.3703,0.5813,-0.7943,0.0652,0.1642
427,0.0,0.0,0.0,0.0,0.0,0.0,-0.3746,-0.8459,-0.4099,0.5734,-0.7993,0.0543,0.1712
428,0.0,0.0,0.0,0.0,0.0,0.0,-0.2870,-0.8977,-0.3673,0.5666,-0.8038,0.0400,0.1770
429,0.0,0.0,0.0,0.0,0.0,0.0,-0.2821,-0.9239,-0.3332,0.5698,-0.8019,0.0290,0.1772
430,0.0,0.0,0.0,0.0,0.0,0.0,-0.3813,-0.9264,-0.3441,0.5690,-0.8024,0.0214,0.1787
431,0.0,0.0,0.0,0.0,0.0,0.0,-0.3251,-0.9291,-0.3182,0.5677,-0.8032,0.0140,0.1798
432,0.0,0.0,0.0,0.0,0.0,0.0,-0.3324,-0.9009,-0.3216,0.5666,-0.8038,0.0091,0.1809
433,0.0,0.0,0.0,0.0,0.0,0.0,-0.3178,-0.8975,-0.3265,0.5664,-0.8035,0.0053,0.1833
434,0.0,0.0,0.0,0.0,0.0,0.0,-0.3114,-0.8864,-0.3455,0.5658,-0.8035,0.0025,0.1852
435,0.0,0.0,0.0,0.0,0.0,0.0,-0.2904,-0.8758,-0.3493,0.5633,-0.8046,-0.0006,0.1878
436,0.0,0.0,0.0,0.0,0.0,0.0,-0.3075,-0.8709,-0.3196,0.5623,-0.8048,-0.0021,0.1899
437,0.0,0.0,0.0,0.0,0.0,0.0,-0.3105,-0.8408,-0.3372,0.5627,-0.8043,-0.0023,0.1909
438,0.0,0.0,0.0,0.0,0.0,0.0,-0.2777,-0.8462,-0.3405,0.5635,-0.8037,-0.0031,0.1910
439,0.0,0.0,0.0,0.0,0.0,0.0,-0.2650,-0.8822,-0.3590,0.5633,-0.8041,-0.0050,0.1902
440,0.0,0.0,0.0,0.0,0.0,0.0,-0.2728,-0.8880,-0.3649,0.5623,-0.8049,-0.0067,0.1895
441,0.0,0.0,0.0,0.0,0.0,0.0,-0.2767,-0.8851,-0.3610,0.5612,-0.8058,-0.0085,0.1887
442,0.0,0.0,0.0,0.0,0.0,0.0,-0.2973,-0.8762,-0.3479,0.5606,-0.8066,-0.0088,0.1872
443,0.0,0.0,0.0,0.0,0.0,0.0,-0.3066,-0.8573,-0.3484,0.5609,-0.8068,-0.0071,0.1857
444,0.0,0.0,0.0,0.0,0.0,0.0,-0.3202,-0.8689,-0.3489,0.5629,-0.8060,-0.0039,0.1829
445,0.0,0.0,0.0,0.0,0.0,0.0,-0.3212,-0.8980,-0.3664,0.5651,-0.8054,-0.0002,0.1790
446,0.0,0.0,0.0,0.0,0.0,0.0,-0.3324,-0.9004,-0.3513,0.5671,-0.8046,0.0044,0.1759
447,0.0,0.0,0.0,0.0,0.0,0.0,-0.3071,-0.8913,-0.3679,0.5689,-0.8036,0.0085,0.1746
448,0.0,0.0,0.0,0.0,0.0,0.0,-0.2684,-0.8919,-0.3785,0.5703,-0.8026,0.0108,0.1746
449,0.0,0.0,0.0,0.0,0.0,0.0,-0.2616,-0.8885,-0.3775,0.5727,-0.8007,0.0128,0.1755
450,0.0,0.0,0.0,0.0,0.0,0.0,-0.2660,-0.9312,-0.3936,0.5766,-0.7978,0.0167,0.1754
451,0.0,0.0,0.0,0.0,0.0,0.0,-0.2719,-0.8142,-0.3152,0.5831,-0.7931,0.0246,0.1742
452,0.0,0.0,0.0,0.0,0.0,0.0,-0.2386,-0.8944,-0.3331,0.5910,-0.7874,0.0308,0.1725
453,0.0,0.0,0.0,0.0,0.0,0.0,-0.2777,-0.8894,-0.3210,0.5973,-0.7829,0.0394,0.1693
454,0.0,0.0,0.0,0.0,0.0,0.0,-0.3100,-0.8344,-0.3109,0.6021,-0.7794,0.0468,0.1671
455,0.0,0.0,0.0,0.0,0.0,0.0,-0.2934,-0.8117,-0.3406,0.6023,-0.7790,0.0476,0.1679
456,0.0,0.0,0.0,0.0,0.0,0.0,-0.2646,-0.8288,-0.3600,0.5982,-0.7817,0.0444,0.1706
457,0.0,0.0,0.0,0.0,0.0,0.0,-0.2485,-0.8201,-0.3829,0.5906,-0.7871,0.0384,0.1737
458,0.0,0.0,0.0,0.0,0.0,0.0,-0.2660,-0.8603,-0.3849,0.5846,-0.7918,0.0313,0.1741
459,0.0,0.0,0.0,0.0,0.0,0.0,-0.3349,-0.9208,-0.3474,0.5834,-0.7934,0.0265,0.1715
460,0.0,0.0,0.0,0.0,0.0,0.0,-0.3123,-0.9437,-0.3089,0.5845,-0.7932,0.0229,0.1693
461,0.0,0.0,0.0,0.0,0.0,0.0,-0.3055,-0.9384,-0.3250,0.5868,-0.7916,0.0209,0.1691
462,0.0,0.0,0.0,0.0,0.0,0.0,-0.3236,-0.9189,-0.3352,0.5893,-0.7894,0.0202,0.1708
463,0.0,0.0,0.0,0.0,0.0,0.0,-0.3525,-0.8979,-0.3236,0.5922,-0.7866,0.0215,0.1737
464,0.0,0.0,0.0,0.0,0.0,0.0,-0.3265,-0.9082,-0.3231,0.5979,-0.7820,0.0238,0.1746
465,0.0,0.0,0.0,0.0,0.0,0.0,-0.3417,-0.9416,-0.3187,0.6079,-0.7744,0.0313,0.1724
466,0.0,0.0,0.0,0.0,0.0,0.0,-0.2991,-0.9112,-0.2869,0.6213,-0.7643,0.0411,0.1681
467,0.0,0.0,0.0,0.0,0.0,0.0,-0.3006,-0.8957,-0.2923,0.6387,-0.7504,0.0521,0.1621
468,0.0,0.0,0.0,0.0,0.0,0.0,-0.2948,-0.8515,-0.2635,0.6570,-0.7351,0.0639,0.1548
469,0.0,0.0,0.0,0.0,0.0,0.0,-0.2473,-0.8497,-0.2532,0.6707,-0.7236,0.0684,0.1477
470,0.0,0.0,0.0,0.0,0.0,0.0,-0.2165,-0.9202,-0.2697,0.6798,-0.7164,0.0685,0.1415
471,0.0,0.0,0.0,0.0,0.0,0.0,-0.1949,-0.9320,-0.2053,0.6844,-0.7132,0.0656,0.1366
472,0.0,0.0,0.0,0.0,0.0,0.0,-0.2281,-0.9425,-0.1854,0.6856,-0.7131,0.0638,0.1316
473,0.0,0.0,0.0,0.0,0.0,0.0,-0.2535,-0.9662,-0.1850,0.6855,-0.7143,0.0629,0.1260
474,0.0,0.0,0.0,0.0,0.0,0.0,-0.2311,-0.9503,-0.1898,0.6846,-0.7162,0.0619,0.1209
475,0.0,0.0,0.0,0.0,0.0,0.0,-0.1740,-0.9053,-0.2116,0.6807,-0.7209,0.0577,0.1166
476,0.0,0.0,0.0,0.0,0.0,0.0,-0.1490,-0.9316,-0.1770,0.6767,-0.7257,0.0526,0.1125
477,0.0,0.0,0.0,0.0,0.0,0.0,-0.1636,-0.9811,-0.1726,0.6749,-0.7282,0.0490,0.1085
478,0.0,0.0,0.0,0.0,0.0,0.0,-0.1998,-1.0164,-0.1917,0.6753,-0.7285,0.0473,0.1051
479,0.0,0.0,0.0,0.0,0.0,0.0,-0.2149,-0.9620,-0.1688,0.6749,-0.7292,0.0477,0.1023
480,0.0,0.0,0.0,0.0,0.0,0.0,-0.1929,-0.9358,-0.1688,0.6731,-0.7311,0.0488,0.1005
481,0.0,0.0,0.0,0.0,0.0,0.0,-0.2003,-0.9237,-0.1883,0.6685,-0.7352,0.0505,0.0999
482,0.0,0.0,0.0,0.0,0.0,0.0,-0.2286,-0.9537,-0.2010,0.6634,-0.7396,0.0527,0.1002
483,0.0,0.0,0.0,0.0,0.0,0.0,-0.2003,-0.9528,-0.2244,0.6578,-0.7445,0.0533,0.1012
484,0.0,0.0,0.0,0.0,0.0,0.0,-0.1964,-0.9184,-0.2351,0.6515,-0.7499,0.0530,0.1018
485,0.0,0.0,0.0,0.0,0.0,0.0,-0.1989,-0.9184,-0.2356,0.6440,-0.7564,0.0522,0.1020
486,0.0,0.0,0.0,0.0,0.0,0.0,-0.2135,-0.9431,-0.2414,0.6363,-0.7629,0.0515,0.1018
487,0.0,0.0,0.0,0.0,0.0,0.0,-0.2404,-0.9299,-0.2425,0.6286,-0.7694,0.0501,0.1017
488,0.0,0.0,0.0,0.0,0.0,0.0,-0.2458,-0.9357,-0.2664,0.6208,-0.7758,0.0471,0.1025
489,0.0,0.0,0.0,0.0,0.0,0.0,-0.2395,-0.9342,-0.3117,0.6124,-0.7825,0.0430,0.1043
490,0.0,0.0,0.0,0.0,0.0,0.0,-0.2225,-0.9091,-0.3511,0.6020,-0.7902,0.0359,0.1086
491,0.0,0.0,0.0,0.0,0.0,0.0,-0.2083,-0.9363,-0.3516,0.5933,-0.7963,0.0258,0.1152
492,0.0,0.0,0.0,0.0,0.0,0.0,-0.2361,-0.9542,-0.3351,0.5885,-0.7990,0.0165,0.1225
493,0.0,0.0,0.0,0.0,0.0,0.0,-0.2473,-0.9347,-0.3156,0.5841,-0.8012,0.0088,0.1295
494,0.0,0.0,0.0,0.0,0.0,0.0,-0.2405,-0.9308,-0.3107,0.5815,-0.8023,0.0023,0.1347
495,0.0,0.0,0.0,0.0,0.0,0.0,-0.2366,-0.9415,-0.3287,0.5802,-0.8023,-0.0024,0.1401
496,0.0,0.0,0.0,0.0,0.0,0.0,-0.2356,-0.9095,-0.3282,0.5791,-0.8024,-0.0051,0.1441
497,0.0,0.0,0.0,0.0,0.0,0.0,-0.2400,-0.9104,-0.3229,0.5793,-0.8016,-0.0069,0.1474
498,0.0,0.0,0.0,0.0,0.0,0.0,-0.2395,-0.9211,-0.3263,0.5802,-0.8002,-0.0079,0.1514
499,0.0,0.0,0.0,0.0,0.0,0.0,-0.2454,-0.9230,-0.3239,0.5814,-0.7987,-0.0082,0.1548
500,0.0,0.0,0.0,0.0,0.0,0.0,-0.2391,-0.9221,-0.3263,0.5828,-0.7971,-0.0081,0.1577
501,0.0,0.0,0.0,0.0,0.0,0.0,-0.2410,-0.9187,-0.3346,0.5841,-0.7956,-0.0079,0.1607
502,0.0,0.0,0.0,0.0,0.0,0.0,-0.2376,-0.9051,-0.3253,0.5866,-0.7932,-0.0073,0.1633
503,0.0,0.0,0.0,0.0,0.0,0.0,-0.2347,-0.9100,-0.3380,0.5895,-0.7906,-0.0066,0.1652
504,0.0,0.0,0.0,0.0,0.0,0.0,-0.2313,-0.9046,-0.3453,0.5922,-0.7883,-0.0058,0.1666
505,0.0,0.0,0.0,0.0,0.0,0.0,-0.2400,-0.9022,-0.3292,0.5953,-0.7855,-0.0057,0.1687
506,0.0,0.0,0.0,0.0,0.0,0.0,-0.2630,-0.9108,-0.3069,0.5993,-0.7820,-0.0055,0.1713
507,0.0,0.0,0.0,0.0,0.0,0.0,-0.2591,-0.9220,-0.3259,0.6022,-0.7790,-0.0058,0.1745
508,0.0,0.0,0.0,0.0,0.0,0.0,-0.2484,-0.9051,-0.3278,0.6024,-0.7781,-0.0067,0.1779
509,0.0,0.0,0.0,0.0,0.0,0.0,-0.2650,-0.8730,-0.3249,0.6012,-0.7787,-0.0059,0.1793
510,0.0,0.0,0.0,0.0,0.0,0.0,-0.2743,-0.8375,-0.3620,0.5965,-0.7827,-0.0034,0.1777
511,0.0,0.0,0.0,0.0,0.0,0.0,-0.2435,-0.8512,-0.3370,0.5903,-0.7881,-0.0024,0.1745
512,0.0,0.0,0.0,0.0,0.0,0.0,-0.2494,-0.8594,-0.3868,0.5851,-0.7925,-0.0032,0.1719
513,0.0,0.0,0.0,0.0,0.0,0.0,-0.2415,-0.9235,-0.3005,0.5826,-0.7948,-0.0047,0.1697
514,0.0,0.0,0.0,0.0,0.0,0.0,-0.2576,-0.9497,-0.2883,0.5832,-0.7945,-0.0047,0.1692
515,0.0,0.0,0.0,0.0,0.0,0.0,-0.2708,-0.9254,-0.3264,0.5833,-0.7944,-0.0042,0.1690
516,0.0,0.0,0.0,0.0,0.0,0.0,-0.2469,-0.9090,-0.3351,0.5838,-0.7941,-0.0040,0.1688
517,0.0,0.0,0.0,0.0,0.0,0.0,-0.2391,-0.9119,-0.3414,0.5856,-0.7929,-0.0032,0.1682
518,0.0,0.0,0.0,0.0,0.0,0.0,-0.2703,-0.9302,-0.3337,0.5896,-0.7901,-0.0012,0.1674
519,0.0,0.0,0.0,0.0,0.0,0.0,-0.2987,-0.9452,-0.3274,0.5949,-0.7866,0.0031,0.1654
520,0.0,0.0,0.0,0.0,0.0,0.0,-0.3382,-1.0004,-0.2953,0.6030,-0.7815,0.0141,0.1595
521,0.0,0.0,0.0,0.0,0.0,0.0,-0.3040,-0.9894,-0.2694,0.6133,-0.7749,0.0293,0.1499
522,0.0,0.0,0.0,0.0,0.0,0.0,-0.2380,-0.9750,-0.2824,0.6274,-0.7647,0.0425,0.1409
523,0.0,0.0,0.0,0.0,0.0,0.0,-0.2414,-0.9473,-0.2664,0.6465,-0.7491,0.0564,0.1329
524,0.0,0.0,0.0,0.0,0.0,0.0,-0.2234,-0.8474,-0.2581,0.6627,-0.7353,0.0681,0.1243
525,0.0,0.0,0.0,0.0,0.0,0.0,-0.2556,-0.8696,-0.2259,0.6766,-0.7230,0.0786,0.1159
526,0.0,0.0,0.0,0.0,0.0,0.0,-0.2448,-0.9182,-0.2503,0.6864,-0.7135,0.0867,0.1108
527,0.0,0.0,0.0,0.0,0.0,0.0,-0.1798,-0.9184,-0.2170,0.6895,-0.7107,0.0899,0.1072
528,0.0,0.0,0.0,0.0,0.0,0.0,-0.1466,-0.8928,-0.1892,0.6876,-0.7128,0.0910,0.1045
529,0.0,0.0,0.0,0.0,0.0,0.0,-0.1437,-0.9064,-0.2165,0.6806,-0.7198,0.0909,0.1021
530,0.0,0.0,0.0,0.0,0.0,0.0,-0.1915,-0.9679,-0.1980,0.6732,-0.7270,0.0907,0.1003
531,0.0,0.0,0.0,0.0,0.0,0.0,-0.2218,-0.9508,-0.1620,0.6684,-0.7316,0.0906,0.0992
532,0.0,0.0,0.0,0.0,0.0,0.0,-0.2497,-0.9055,-0.1596,0.6624,-0.7369,0.0896,0.1010
533,0.0,0.0,0.0,0.0,0.0,0.0,-0.2433,-0.9104,-0.1894,0.6541,-0.7441,0.0865,0.1049
534,0.0,0.0,0.0,0.0,0.0,0.0,-0.2643,-0.9812,-0.2352,0.6469,-0.7505,0.0839,0.1061
535,0.0,0.0,0.0,0.0,0.0,0.0,-0.2927,-0.9685,-0.2484,0.6421,-0.7546,0.0825,0.1069
536,0.0,0.0,0.0,0.0,0.0,0.0,-0.2488,-0.9157,-0.2527,0.6368,-0.7592,0.0799,0.1084
537,0.0,0.0,0.0,0.0,0.0,0.0,-0.2532,-0.9230,-0.2586,0.6318,-0.7635,0.0780,0.1086
538,0.0,0.0,0.0,0.0,0.0,0.0,-0.2590,-0.9109,-0.2674,0.6289,-0.7661,0.0749,0.1092
539,0.0,0.0,0.0,0.0,0.0,0.0,-0.2527,-0.8837,-0.3064,0.6250,-0.7696,0.0701,0.1105
540,0.0,0.0,0.0,0.0,0.0,0.0,-0.2533,-0.8584,-0.3775,0.6160,-0.7770,0.0643,0.1130
541,0.0,0.0,0.0,0.0,0.0,0.0,-0.2517,-0.9235,-0.3146,0.6046,-0.7858,0.0572,0.1167
542,0.0,0.0,0.0,0.0,0.0,0.0,-0.2761,-0.9550,-0.2840,0.5980,-0.7903,0.0468,0.1249
543,0.0,0.0,0.0,0.0,0.0,0.0,-0.3245,-0.9432,-0.2767,0.5934,-0.7929,0.0390,0.1329
544,0.0,0.0,0.0,0.0,0.0,0.0,-0.3342,-0.9805,-0.2426,0.5912,-0.7934,0.0340,0.1406
545,0.0,0.0,0.0,0.0,0.0,0.0,-0.3293,-0.9936,-0.2431,0.5931,-0.7905,0.0311,0.1498
546,0.0,0.0,0.0,0.0,0.0,0.0,-0.3387,-0.9611,-0.2631,0.5985,-0.7845,0.0288,0.1599
547,0.0,0.0,0.0,0.0,0.0,0.0,-0.3304,-0.8844,-0.2860,0.6040,-0.7785,0.0287,0.1681
548,0.0,0.0,0.0,0.0,0.0,0.0,-0.3197,-0.8936,-0.2816,0.6108,-0.7713,0.0280,0.1766
549,0.0,0.0,0.0,0.0,0.0,0.0,-0.3026,-0.9097,-0.3289,0.6170,-0.7651,0.0296,0.1816
550,0.0,0.0,0.0,0.0,0.0,0.0,-0.2453,-0.9507,-0.2639,0.6233,-0.7596,0.0307,0.1833
551,0.0,0.0,0.0,0.0,0.0,0.0,-0.3089,-0.8548,-0.2758,0.6283,-0.7549,0.0331,0.1851
552,0.0,0.0,0.0,0.0,0.0,0.0,-0.2704,-0.7860,-0.2718,0.6302,-0.7534,0.0341,0.1844
553,0.0,0.0,0.0,0.0,0.0,0.0,-0.2743,-0.7943,-0.2952,0.6285,-0.7552,0.0342,0.1829
554,0.0,0.0,0.0,0.0,0.0,0.0,-0.2284,-0.7881,-0.3419,0.6213,-0.7611,0.0291,0.1841
555,0.0,0.0,0.0,0.0,0.0,0.0,-0.1795,-0.8597,-0.3632,0.6103,-0.7686,0.0138,0.1912
556,0.0,0.0,0.0,0.0,0.0,0.0,-0.3285,-0.9009,-0.3231,0.5968,-0.7763,-0.0018,0.2028
557,0.0,0.0,0.0,0.0,0.0,0.0,-0.2986,-0.9408,-0.2635,0.5863,-0.7819,-0.0190,0.2111
558,0.0,0.0,0.0,0.0,0.0,0.0,-0.3186,-0.9675,-0.2402,0.5828,-0.7834,-0.0299,0.2139
559,0.0,0.0,0.0,0.0,0.0,0.0,-0.3646,-0.9119,-0.2583,0.5791,-0.7850,-0.0340,0.2174
560,0.0,0.0,0.0,0.0,0.0,0.0,-0.3510,-0.8887,-0.2851,0.5765,-0.7858,-0.0363,0.2209
561,0.0,0.0,0.0,0.0,0.0,0.0,-0.3309,-0.8858,-0.3011,0.5744,-0.7870,-0.0369,0.2222
562,0.0,0.0,0.0,0.0,0.0,0.0,-0.3236,-0.9116,-0.3226,0.5714,-0.7893,-0.0365,0.2219
563,0.0,0.0,0.0,0.0,0.0,0.0,-0.3231,-0.9106,-0.3240,0.5682,-0.7910,-0.0360,0.2238
564,0.0,0.0,0.0,0.0,0.0,0.0,-0.3300,-0.8586,-0.3094,0.5663,-0.7921,-0.0353,0.2248
565,0.0,0.0,0.0,0.0,0.0,0.0,-0.3065,-0.8582,-0.3289,0.5645,-0.7938,-0.0353,0.2234
566,0.0,0.0,0.0,0.0,0.0,0.0,-0.2997,-0.8641,-0.3406,0.5630,-0.7958,-0.0348,0.2200
567,0.0,0.0,0.0,0.0,0.0,0.0,-0.3095,-0.8733,-0.3518,0.5630,-0.7972,-0.0330,0.2156
568,0.0,0.0,0.0,0.0,0.0,0.0,-0.2905,-0.8632,-0.3708,0.5631,-0.7985,-0.0313,0.2106
569,0.0,0.0,0.0,0.0,0.0,0.0,-0.2655,-0.8705,-0.3858,0.5627,-0.7999,-0.0309,0.2061
570,0.0,0.0,0.0,0.0,0.0,0.0,-0.2528,-0.8949,-0.3595,0.5619,-0.8017,-0.0320,0.2012
571,0.0,0.0,0.0,0.0,0.0,0.0,-0.3011,-0.9360,-0.3254,0.5634,-0.8020,-0.0307,0.1963
572,0.0,0.0,0.0,0.0,0.0,0.0,-0.3231,-0.9315,-0.3065,0.5652,-0.8015,-0.0293,0.1933
573,0.0,0.0,0.0,0.0,0.0,0.0,-0.2996,-0.9340,-0.3006,0.5679,-0.7998,-0.0282,0.1923
574,0.0,0.0,0.0,0.0,0.0,0.0,-0.3045,-0.9447,-0.2952,0.5725,-0.7969,-0.0256,0.1912
575,0.0,0.0,0.0,0.0,0.0,0.0,-0.3040,-0.9413,-0.3089,0.5776,-0.7933,-0.0224,0.1910
576,0.0,0.0,0.0,0.0,0.0,0.0,-0.2884,-0.9176,-0.3220,0.5826,-0.7895,-0.0196,0.1918
577,0.0,0.0,0.0,0.0,0.0,0.0,-0.2782,-0.9195,-0.3259,0.5868,-0.7865,-0.0172,0.1918
578,0.0,0.0,0.0,0.0,0.0,0.0,-0.2996,-0.9161,-0.3123,0.5912,-0.7834,-0.0141,0.1913
579,0.0,0.0,0.0,0.0,0.0,0.0,-0.2884,-0.9064,-0.3054,0.5947,-0.7807,-0.0119,0.1917
580,0.0,0.0,0.0,0.0,0.0,0.0,-0.2679,-0.8904,-0.3122,0.5969,-0.7791,-0.0106,0.1914
581,0.0,0.0,0.0,0.0,0.0,0.0,-0.2777,-0.8807,-0.3069,0.5986,-0.7783,-0.0089,0.1894
582,0.0,0.0,0.0,0.0,0.0,0.0,-0.2757,-0.8962,-0.3069,0.6001,-0.7775,-0.0078,0.1877
583,0.0,0.0,0.0,0.0,0.0,0.0,-0.2621,-0.8837,-0.3264,0.5996,-0.7782,-0.0072,0.1863
584,0.0,0.0,0.0,0.0,0.0,0.0,-0.2625,-0.9011,-0.3000,0.5999,-0.7785,-0.0065,0.1844
585,0.0,0.0,0.0,0.0,0.0,0.0,-0.2855,-0.9156,-0.2918,0.6013,-0.7777,-0.0056,0.1831
586,0.0,0.0,0.0,0.0,0.0,0.0,-0.2840,-0.9069,-0.2947,0.6021,-0.7773,-0.0051,0.1824
587,0.0,0.0,0.0,0.0,0.0,0.0,-0.2654,-0.9074,-0.2956,0.6025,-0.7772,-0.0043,0.1814
588,0.0,0.0,0.0,0.0,0.0,0.0,-0.2689,-0.9094,-0.3049,0.6029,-0.7772,-0.0030,0.1803
589,0.0,0.0,0.0,0.0,0.0,0.0,-0.2694,-0.8972,-0.3064,0.6025,-0.7776,-0.0022,0.1796
590,0.0,0.0,0.0,0.0,0.0,0.0,-0.2708,-0.8822,-0.3244,0.6009,-0.7792,-0.0014,0.1784
591,0.0,0.0,0.0,0.0,0.0,0.0,-0.2650,-0.8618,-0.3541,0.5977,-0.7820,-0.0012,0.1765
592,0.0,0.0,0.0,0.0,0.0,0.0,-0.2303,-0.8619,-0.3380,0.5963,-0.7835,-0.0041,0.1747
593,0.0,0.0,0.0,0.0,0.0,0.0,-0.2302,-0.9051,-0.2873,0.5980,-0.7829,-0.0076,0.1716
594,0.0,0.0,0.0,0.0,0.0,0.0,-0.2648,-0.9584,-0.2371,0.6021,-0.7809,-0.0076,0.1665
595,0.0,0.0,0.0,0.0,0.0,0.0,-0.2873,-0.9744,-0.2503,0.6064,-0.7785,-0.0054,0.1617
596,0.0,0.0,0.0,0.0,0.0,0.0,-0.2751,-1.0094,-0.2411,0.6123,-0.7751,-0.0000,0.1560
597,0.0,0.0,0.0,0.0,0.0,0.0,-0.2932,-1.0161,-0.2445,0.6195,-0.7708,0.0096,0.1483
598,0.0,0.0,0.0,0.0,0.0,0.0,-0.2961,-1.0001,-0.2406,0.6272,-0.7659,0.0225,0.1400
599,0.0,0.0,0.0,0.0,0.0,0.0,-0.2580,-1.0211,-0.2439,0.6369,-0.7585,0.0372,0.1329
600,0.0,0.0,0.0,0.0,0.0,0.0,-0.2413,-0.9954,-0.2312,0.6483,-0.7491,0.0532,0.1250
601,0.0,0.0,0.0,0.0,0.0,0.0,-0.2072,-0.9581,-0.2219,0.6620,-0.7368,0.0650,0.1206
602,0.0,0.0,0.0,0.0,0.0,0.0,-0.1969,-0.9577,-0.2131,0.6794,-0.7203,0.0770,0.1166
603,0.0,0.0,0.0,0.0,0.0,0.0,-0.2336,-0.8629,-0.1981,0.6936,-0.7060,0.0899,0.1113
604,0.0,0.0,0.0,0.0,0.0,0.0,-0.2234,-0.8440,-0.2381,0.7007,-0.6984,0.0977,0.1080
605,0.0,0.0,0.0,0.0,0.0,0.0,-0.1280,-0.9191,-0.2116,0.7005,-0.6991,0.0957,0.1070
606,0.0,0.0,0.0,0.0,0.0,0.0,-0.1671,-0.8947,-0.1809,0.6962,-0.7035,0.0955,0.1063
607,0.0,0.0,0.0,0.0,0.0,0.0,-0.2033,-0.9072,-0.1922,0.6898,-0.7099,0.0953,0.1055
608,0.0,0.0,0.0,0.0,0.0,0.0,-0.1759,-0.9209,-0.2112,0.6818,-0.7182,0.0925,0.1036
609,0.0,0.0,0.0,0.0,0.0,0.0,-0.1920,-0.9548,-0.1785,0.6754,-0.7249,0.0889,0.1020
610,0.0,0.0,0.0,0.0,0.0,0.0,-0.2608,-0.9963,-0.1723,0.6718,-0.7285,0.0871,0.1018
611,0.0,0.0,0.0,0.0,0.0,0.0,-0.2658,-0.9468,-0.1874,0.6698,-0.7305,0.0852,0.1024
612,0.0,0.0,0.0,0.0,0.0,0.0,-0.2609,-0.9157,-0.2011,0.6665,-0.7335,0.0848,0.1023
613,0.0,0.0,0.0,0.0,0.0,0.0,-0.2560,-0.9351,-0.2108,0.6616,-0.7380,0.0837,0.1031
614,0.0,0.0,0.0,0.0,0.0,0.0,-0.2429,-0.9056,-0.2254,0.6557,-0.7432,0.0811,0.1051
615,0.0,0.0,0.0,0.0,0.0,0.0,-0.2121,-0.8697,-0.2493,0.6471,-0.7508,0.0768,0.1082
616,0.0,0.0,0.0,0.0,0.0,0.0,-0.1956,-0.8446,-0.2804,0.6354,-0.7609,0.0706,0.1105
617,0.0,0.0,0.0,0.0,0.0,0.0,-0.2103,-0.8256,-0.3350,0.6205,-0.7735,0.0616,0.1137
618,0.0,0.0,0.0,0.0,0.0,0.0,-0.2450,-0.8590,-0.4126,0.6023,-0.7876,0.0494,0.1205
619,0.0,0.0,0.0,0.0,0.0,0.0,-0.2165,-0.9717,-0.3033,0.5906,-0.7961,0.0355,0.1270
620,0.0,0.0,0.0,0.0,0.0,0.0,-0.3079,-0.9607,-0.3240,0.5862,-0.7988,0.0244,0.1329
621,0.0,0.0,0.0,0.0,0.0,0.0,-0.3088,-0.9918,-0.2796,0.5859,-0.7982,0.0144,0.1391
622,0.0,0.0,0.0,0.0,0.0,0.0,-0.2771,-0.9754,-0.2688,0.5883,-0.7956,0.0078,0.1446
623,0.0,0.0,0.0,0.0,0.0,0.0,-0.2654,-0.9468,-0.2932,0.5949,-0.7896,0.0038,0.1504
624,0.0,0.0,0.0,0.0,0.0,0.0,-0.2585,-0.9827,-0.2620,0.6065,-0.7801,0.0045,0.1536
625,0.0,0.0,0.0,0.0,0.0,0.0,-0.2795,-0.9516,-0.2606,0.6191,-0.7703,0.0109,0.1524
626,0.0,0.0,0.0,0.0,0.0,0.0,-0.3285,-0.8849,-0.2558,0.6260,-0.7652,0.0201,0.1489
627,0.0,0.0,0.0,0.0,0.0,0.0,-0.2331,-0.9313,-0.2332,0.6287,-0.7632,0.0228,0.1473
628,0.0,0.0,0.0,0.0,0.0,0.0,-0.1911,-0.8985,-0.2546,0.6240,-0.7667,0.0198,0.1497
629,0.0,0.0,0.0,0.0,0.0,0.0,-0.1946,-0.8450,-0.2785,0.6172,-0.7717,0.0148,0.1527
630,0.0,0.0,0.0,0.0,0.0,0.0,-0.2376,-0.8507,-0.2888,0.6100,-0.7769,0.0075,0.1559
631,0.0,0.0,0.0,0.0,0.0,0.0,-0.2821,-0.8933,-0.3035,0.6032,-0.7816,-0.0010,0.1590
632,0.0,0.0,0.0,0.0,0.0,0.0,-0.2649,-0.9011,-0.2459,0.6014,-0.7827,-0.0072,0.1599
633,0.0,0.0,0.0,0.0,0.0,0.0,-0.1387,-1.0069,-0.2637,0.6081,-0.7784,-0.0126,0.1555
634,0.0,0.0,0.0,0.0,0.0,0.0,-0.2360,-0.9998,-0.2683,0.6143,-0.7745,-0.0116,0.1504
635,0.0,0.0,0.0,0.0,0.0,0.0,-0.2170,-0.9542,-0.2488,0.6190,-0.7717,-0.0093,0.1453
636,0.0,0.0,0.0,0.0,0.0,0.0,-0.1828,-0.9684,-0.2638,0.6231,-0.7694,-0.0085,0.1406
637,0.0,0.0,0.0,0.0,0.0,0.0,-0.2052,-0.9635,-0.2614,0.6262,-0.7674,-0.0076,0.1374
638,0.0,0.0,0.0,0.0,0.0,0.0,-0.2155,-0.9392,-0.2492,0.6287,-0.7658,-0.0057,0.1355
639,0.0,0.0,0.0,0.0,0.0,0.0,-0.1984,-0.9441,-0.2448,0.6308,-0.7642,-0.0038,0.1341
640,0.0,0.0,0.0,0.0,0.0,0.0,-0.1872,-0.9320,-0.2526,0.6329,-0.7627,-0.0030,0.1329
641,0.0,0.0,0.0,0.0,0.0,0.0,-0.1886,-0.9276,-0.2550,0.6340,-0.7619,-0.0029,0.1326
642,0.0,0.0,0.0,0.0,0.0,0.0,-0.1901,-0.9329,-0.2438,0.6344,-0.7615,-0.0033,0.1326
643,0.0,0.0,0.0,0.0,0.0,0.0,-0.1964,-0.9320,-0.2492,0.6338,-0.7621,-0.0034,0.1324
644,0.0,0.0,0.0,0.0,0.0,0.0,-0.2106,-0.9304,-0.2492,0.6317,-0.7640,-0.0021,0.1317
645,0.0,0.0,0.0,0.0,0.0,0.0,-0.2238,-0.9333,-0.2468,0.6293,-0.7661,0.0000,0.1310
646,0.0,0.0,0.0,0.0,0.0,0.0,-0.2101,-0.9465,-0.2390,0.6285,-0.7667,0.0011,0.1309
647,0.0,0.0,0.0,0.0,0.0,0.0,-0.2033,-0.9664,-0.2439,0.6284,-0.7668,0.0022,0.1311
648,0.0,0.0,0.0,0.0,0.0,0.0,-0.2067,-0.9776,-0.2536,0.6279,-0.7671,0.0041,0.1313
649,0.0,0.0,0.0,0.0,0.0,0.0,-0.2047,-0.9761,-0.2419,0.6277,-0.7673,0.0059,0.1316
650,0.0,0.0,0.0,0.0,0.0,0.0,-0.1969,-0.9659,-0.2697,0.6266,-0.7680,0.0076,0.1323
651,0.0,0.0,0.0,0.0,0.0,0.0,-0.1691,-0.9452,-0.2998,0.6239,-0.7701,0.0089,0.1328
652,0.0,0.0,0.0,0.0,0.0,0.0,-0.1599,-0.9272,-0.3106,0.6199,-0.7734,0.0097,0.1325
653,0.0,0.0,0.0,0.0,0.0,0.0,-0.1740,-0.9291,-0.3023,0.6164,-0.7764,0.0106,0.1313
654,0.0,0.0,0.0,0.0,0.0,0.0,-0.1843,-0.9539,-0.2935,0.6147,-0.7779,0.0112,0.1301
655,0.0,0.0,0.0,0.0,0.0,0.0,-0.2004,-0.9417,-0.3014,0.6132,-0.7792,0.0121,0.1292
656,0.0,0.0,0.0,0.0,0.0,0.0,-0.2175,-0.9197,-0.3063,0.6114,-0.7807,0.0137,0.1284
657,0.0,0.0,0.0,0.0,0.0,0.0,-0.2083,-0.9266,-0.3189,0.6097,-0.7820,0.0150,0.1282
658,0.0,0.0,0.0,0.0,0.0,0.0,-0.2053,-0.9135,-0.3248,0.6077,-0.7837,0.0162,0.1279
659,0.0,0.0,0.0,0.0,0.0,0.0,-0.2102,-0.9057,-0.3292,0.6055,-0.7854,0.0174,0.1275
660,0.0,0.0,0.0,0.0,0.0,0.0,-0.2127,-0.9120,-0.3321,0.6039,-0.7866,0.0186,0.1274
661,0.0,0.0,0.0,0.0,0.0,0.0,-0.2141,-0.9125,-0.3316,0.6028,-0.7873,0.0193,0.1278
662,0.0,0.0,0.0,0.0,0.0,0.0,-0.2117,-0.9198,-0.3243,0.6033,-0.7867,0.0187,0.1294
663,0.0,0.0,0.0,0.0,0.0,0.0,-0.2151,-0.9251,-0.3282,0.6048,-0.7852,0.0173,0.1319
664,0.0,0.0,0.0,0.0,0.0,0.0,-0.2298,-0.9236,-0.3292,0.6066,-0.7833,0.0161,0.1346
665,0.0,0.0,0.0,0.0,0.0,0.0,-0.2410,-0.9027,-0.3502,0.6069,-0.7828,0.0153,0.1363
666,0.0,0.0,0.0,0.0,0.0,0.0,-0.2210,-0.8959,-0.3292,0.6058,-0.7834,0.0135,0.1382
667,0.0,0.0,0.0,0.0,0.0,0.0,-0.1951,-0.8868,-0.3759,0.6033,-0.7850,0.0110,0.1399
668,0.0,0.0,0.0,0.0,0.0,0.0,-0.2015,-0.8863,-0.4130,0.5973,-0.7894,0.0071,0.1412
669,0.0,0.0,0.0,0.0,0.0,0.0,-0.2141,-0.9168,-0.3336,0.5918,-0.7934,0.0008,0.1422
670,0.0,0.0,0.0,0.0,0.0,0.0,-0.2394,-0.9770,-0.2522,0.5905,-0.7944,-0.0035,0.1423
671,0.0,0.0,0.0,0.0,0.0,0.0,-0.2429,-0.9988,-0.2712,0.5908,-0.7939,-0.0060,0.1440
672,0.0,0.0,0.0,0.0,0.0,0.0,-0.2478,-0.9910,-0.2966,0.5920,-0.7927,-0.0068,0.1455
673,0.0,0.0,0.0,0.0,0.0,0.0,-0.2625,-0.9579,-0.2903,0.5937,-0.7913,-0.0034,0.1462
674,0.0,0.0,0.0,0.0,0.0,0.0,-0.2639,-0.9477,-0.3029,0.5968,-0.7890,-0.0009,0.1463
675,0.0,0.0,0.0,0.0,0.0,0.0,-0.2327,-0.9357,-0.3151,0.6003,-0.7862,0.0011,0.1468
676,0.0,0.0,0.0,0.0,0.0,0.0,-0.2303,-0.9027,-0.3170,0.6035,-0.7839,0.0048,0.1457
677,0.0,0.0,0.0,0.0,0.0,0.0,-0.2386,-0.9134,-0.3268,0.6066,-0.7816,0.0101,0.1449
678,0.0,0.0,0.0,0.0,0.0,0.0,-0.2361,-0.9105,-0.3253,0.6088,-0.7800,0.0153,0.1441
679,0.0,0.0,0.0,0.0,0.0,0.0,-0.2190,-0.8935,-0.3272,0.6097,-0.7794,0.0186,0.1430
680,0.0,0.0,0.0,0.0,0.0,0.0,-0.2181,-0.8853,-0.3297,0.6101,-0.7792,0.0208,0.1419
681,0.0,0.0,0.0,0.0,0.0,0.0,-0.2127,-0.8994,-0.3292,0.6102,-0.7794,0.0221,0.1404
682,0.0,0.0,0.0,0.0,0.0,0.0,-0.2136,-0.9076,-0.3092,0.6110,-0.7790,0.0231,0.1386
683,0.0,0.0,0.0,0.0,0.0,0.0,-0.2288,-0.9047,-0.2975,0.6126,-0.7780,0.0243,0.1370
684,0.0,0.0,0.0,0.0,0.0,0.0,-0.2185,-0.9037,-0.3136,0.6139,-0.7771,0.0250,0.1362
685,0.0,0.0,0.0,0.0,0.0,0.0,-0.2151,-0.9100,-0.3112,0.6153,-0.7761,0.0255,0.1358
686,0.0,0.0,0.0,0.0,0.0,0.0,-0.2180,-0.9149,-0.3034,0.6175,-0.7744,0.0263,0.1357
687,0.0,0.0,0.0,0.0,0.0,0.0,-0.2190,-0.9469,-0.3038,0.6198,-0.7727,0.0277,0.1346
688,0.0,0.0,0.0,0.0,0.0,0.0,-0.2551,-0.9793,-0.2425,0.6255,-0.7680,0.0324,0.1339
689,0.0,0.0,0.0,0.0,0.0,0.0,-0.3098,-1.0175,-0.2333,0.6343,-0.7602,0.0433,0.1334
690,0.0,0.0,0.0,0.0,0.0,0.0,-0.3141,-0.9995,-0.2031,0.6457,-0.7500,0.0599,0.1299
691,0.0,0.0,0.0,0.0,0.0,0.0,-0.2414,-0.8963,-0.2337,0.6577,-0.7391,0.0737,0.1256
692,0.0,0.0,0.0,0.0,0.0,0.0,-0.2399,-0.9099,-0.2327,0.6690,-0.7283,0.0881,0.1198
693,0.0,0.0,0.0,0.0,0.0,0.0,-0.2213,-0.9299,-0.2161,0.6837,-0.7144,0.1026,0.1085
694,0.0,0.0,0.0,0.0,0.0,0.0,-0.2484,-0.8415,-0.2795,0.6967,-0.7014,0.1141,0.0982
695,0.0,0.0,0.0,0.0,0.0,0.0,-0.1906,-0.8951,-0.2570,0.6999,-0.6986,0.1149,0.0946
696,0.0,0.0,0.0,0.0,0.0,0.0,-0.1900,-0.9310,-0.1693,0.6998,-0.6990,0.1161,0.0910
697,0.0,0.0,0.0,0.0,0.0,0.0,-0.2111,-0.8829,-0.1742,0.6951,-0.7039,0.1169,0.0880
698,0.0,0.0,0.0,0.0,0.0,0.0,-0.1939,-0.9164,-0.1673,0.6882,-0.7114,0.1160,0.0833
699,0.0,0.0,0.0,0.0,0.0,0.0,-0.1895,-0.9655,-0.1366,0.6847,-0.7157,0.1129,0.0790
700,0.0,0.0,0.0,0.0,0.0,0.0,-0.2330,-0.9726,-0.1367,0.6825,-0.7187,0.1094,0.0762
701,0.0,0.0,0.0,0.0,0.0,0.0,-0.2320,-1.0042,-0.1571,0.6823,-0.7197,0.1045,0.0747
702,0.0,0.0,0.0,0.0,0.0,0.0,-0.2291,-0.9775,-0.1552,0.6830,-0.7199,0.0998,0.0736
703,0.0,0.0,0.0,0.0,0.0,0.0,-0.1910,-0.9567,-0.1619,0.6811,-0.7226,0.0945,0.0710
704,0.0,0.0,0.0,0.0,0.0,0.0,-0.2360,-0.9134,-0.1664,0.6762,-0.7278,0.0909,0.0692
705,0.0,0.0,0.0,0.0,0.0,0.0,-0.2184,-0.9212,-0.1791,0.6700,-0.7342,0.0854,0.0689
706,0.0,0.0,0.0,0.0,0.0,0.0,-0.1891,-0.8946,-0.2165,0.6629,-0.7414,0.0773,0.0696
707,0.0,0.0,0.0,0.0,0.0,0.0,-0.1692,-0.8481,-0.2872,0.6519,-0.7520,0.0661,0.0716
708,0.0,0.0,0.0,0.0,0.0,0.0,-0.1810,-0.8733,-0.3613,0.6356,-0.7666,0.0530,0.0746
709,0.0,0.0,0.0,0.0,0.0,0.0,-0.1524,-1.0069,-0.2228,0.6277,-0.7736,0.0370,0.0786
710,0.0,0.0,0.0,0.0,0.0,0.0,-0.2384,-1.0309,-0.2483,0.6255,-0.7754,0.0253,0.0827
711,0.0,0.0,0.0,0.0,0.0,0.0,-0.2784,-1.0390,-0.1811,0.6279,-0.7733,0.0180,0.0857
712,0.0,0.0,0.0,0.0,0.0,0.0,-0.2095,-0.9936,-0.1834,0.6340,-0.7681,0.0116,0.0896
713,0.0,0.0,0.0,0.0,0.0,0.0,-0.1725,-0.9821,-0.2360,0.6426,-0.7605,0.0068,0.0933
714,0.0,0.0,0.0,0.0,0.0,0.0,-0.1880,-1.0116,-0.2092,0.6540,-0.7506,0.0067,0.0940
715,0.0,0.0,0.0,0.0,0.0,0.0,-0.2545,-0.9866,-0.1504,0.6683,-0.7382,0.0144,0.0909
716,0.0,0.0,0.0,0.0,0.0,0.0,-0.2444,-0.8293,-0.2123,0.6736,-0.7335,0.0216,0.0886
717,0.0,0.0,0.0,0.0,0.0,0.0,-0.1700,-0.9180,-0.1843,0.6756,-0.7320,0.0251,0.0850
718,0.0,0.0,0.0,0.0,0.0,0.0,-0.1319,-0.9079,-0.2135,0.6753,-0.7325,0.0259,0.0823
719,0.0,0.0,0.0,0.0,0.0,0.0,-0.1139,-0.8696,-0.2510,0.6705,-0.7371,0.0226,0.0811
720,0.0,0.0,0.0,0.0,0.0,0.0,-0.1588,-0.9180,-0.2282,0.6643,-0.7428,0.0158,0.0820
721,0.0,0.0,0.0,0.0,0.0,0.0,-0.2052,-0.9086,-0.2292,0.6581,-0.7484,0.0090,0.0817
722,0.0,0.0,0.0,0.0,0.0,0.0,-0.0893,-0.9901,-0.1520,0.6599,-0.7474,0.0023,0.0769
723,0.0,0.0,0.0,0.0,0.0,0.0,-0.0888,-1.0581,-0.1773,0.6661,-0.7423,-0.0014,0.0730
724,0.0,0.0,0.0,0.0,0.0,0.0,-0.1181,-1.0425,-0.1930,0.6710,-0.7379,-0.0037,0.0728
725,0.0,0.0,0.0,0.0,0.0,0.0,-0.1185,-1.0672,-0.1243,0.6793,-0.7304,-0.0020,0.0711
726,0.0,0.0,0.0,0.0,0.0,0.0,-0.1640,-1.0161,-0.1205,0.6868,-0.7235,0.0043,0.0694
727,0.0,0.0,0.0,0.0,0.0,0.0,-0.1324,-0.9205,-0.1760,0.6886,-0.7218,0.0092,0.0689
728,0.0,0.0,0.0,0.0,0.0,0.0,-0.0614,-0.9305,-0.1330,0.6907,-0.7200,0.0120,0.0662
729,0.0,0.0,0.0,0.0,0.0,0.0,-0.0918,-0.9231,-0.1428,0.6897,-0.7212,0.0154,0.0631
730,0.0,0.0,0.0,0.0,0.0,0.0,-0.0708,-0.9358,-0.1729,0.6842,-0.7263,0.0146,0.0641
731,0.0,0.0,0.0,0.0,0.0,0.0,-0.0517,-0.9519,-0.1929,0.6729,-0.7365,0.0077,0.0688
732,0.0,0.0,0.0,0.0,0.0,0.0,-0.1045,-0.9973,-0.2110,0.6595,-0.7482,0.0022,0.0728
733,0.0,0.0,0.0,0.0,0.0,0.0,-0.1221,-0.9570,-0.2388,0.6445,-0.7607,-0.0033,0.0773
734,0.0,0.0,0.0,0.0,0.0,0.0,-0.0967,-0.9726,-0.2402,0.6317,-0.7709,-0.0105,0.0810
735,0.0,0.0,0.0,0.0,0.0,0.0,-0.1035,-0.9998,-0.2471,0.6209,-0.7791,-0.0170,0.0845
736,0.0,0.0,0.0,0.0,0.0,0.0,-0.1118,-1.0211,-0.2442,0.6132,-0.7847,-0.0218,0.0877
737,0.0,0.0,0.0,0.0,0.0,0.0,-0.1285,-1.0172,-0.2593,0.6085,-0.7881,-0.0243,0.0899
738,0.0,0.0,0.0,0.0,0.0,0.0,-0.1090,-1.0056,-0.2919,0.6056,-0.7899,-0.0259,0.0930
739,0.0,0.0,0.0,0.0,0.0,0.0,-0.1178,-0.9551,-0.3144,0.6043,-0.7906,-0.0257,0.0956
740,0.0,0.0,0.0,0.0,0.0,0.0,-0.1159,-0.9400,-0.3329,0.6037,-0.7908,-0.0249,0.0977
741,0.0,0.0,0.0,0.0,0.0,0.0,-0.0949,-0.9260,-0.3460,0.6029,-0.7912,-0.0250,0.0995
742,0.0,0.0,0.0,0.0,0.0,0.0,-0.1003,-0.9173,-0.3455,0.6015,-0.7921,-0.0249,0.1002
743,0.0,0.0,0.0,0.0,0.0,0.0,-0.1096,-0.9061,-0.3490,0.5995,-0.7938,-0.0238,0.0996
744,0.0,0.0,0.0,0.0,0.0,0.0,-0.1081,-0.9124,-0.3460,0.5979,-0.7951,-0.0231,0.0990
745,0.0,0.0,0.0,0.0,0.0,0.0,-0.1208,-0.9322,-0.3383,0.5969,-0.7960,-0.0222,0.0983
746,0.0,0.0,0.0,0.0,0.0,0.0,-0.1227,-0.9526,-0.3246,0.5971,-0.7959,-0.0212,0.0980
747,0.0,0.0,0.0,0.0,0.0,0.0,-0.1413,-0.9428,-0.3173,0.5984,-0.7948,-0.0196,0.0987
748,0.0,0.0,0.0,0.0,0.0,0.0,-0.1379,-0.9492,-0.3271,0.5999,-0.7936,-0.0183,0.1001
749,0.0,0.0,0.0,0.0,0.0,0.0,-0.1447,-0.9477,-0.3261,0.6019,-0.7919,-0.0163,0.1014
750,0.0,0.0,0.0,0.0,0.0,0.0,-0.1486,-0.9423,-0.3213,0.6047,-0.7897,-0.0138,0.1026
751,0.0,0.0,0.0,0.0,0.0,0.0,-0.1569,-0.9389,-0.3188,0.6096,-0.7858,-0.0116,0.1035
752,0.0,0.0,0.0,0.0,0.0,0.0,-0.1682,-0.9262,-0.3374,0.6145,-0.7819,-0.0095,0.1045
753,0.0,0.0,0.0,0.0,0.0,0.0,-0.1516,-0.9258,-0.3486,0.6157,-0.7807,-0.0084,0.1061
754,0.0,0.0,0.0,0.0,0.0,0.0,-0.1472,-0.8986,-0.3295,0.6156,-0.7808,-0.0074,0.1067
755,0.0,0.0,0.0,0.0,0.0,0.0,-0.1687,-0.8762,-0.3369,0.6139,-0.7823,-0.0059,0.1053
756,0.0,0.0,0.0,0.0,0.0,0.0,-0.1673,-0.8709,-0.3384,0.6110,-0.7850,-0.0043,0.1024
757,0.0,0.0,0.0,0.0,0.0,0.0,-0.1374,-0.9414,-0.2974,0.6108,-0.7854,-0.0036,0.0999
758,0.0,0.0,0.0,0.0,0.0,0.0,-0.1295,-0.9812,-0.2754,0.6128,-0.7843,-0.0020,0.0967
759,0.0,0.0,0.0,0.0,0.0,0.0,-0.1452,-0.9229,-0.3081,0.6135,-0.7842,0.0007,0.0928
760,0.0,0.0,0.0,0.0,0.0,0.0,-0.1584,-0.9593,-0.3144,0.6147,-0.7837,0.0043,0.0886
761,0.0,0.0,0.0,0.0,0.0,0.0,-0.1515,-0.9807,-0.3047,0.6163,-0.7829,0.0077,0.0851
762,0.0,0.0,0.0,0.0,0.0,0.0,-0.1657,-0.9748,-0.2989,0.6181,-0.7817,0.0128,0.0820
763,0.0,0.0,0.0,0.0,0.0,0.0,-0.1559,-0.9923,-0.3071,0.6199,-0.7804,0.0181,0.0796
764,0.0,0.0,0.0,0.0,0.0,0.0,-0.1569,-0.9821,-0.2979,0.6225,-0.7785,0.0248,0.0763
765,0.0,0.0,0.0,0.0,0.0,0.0,-0.1779,-0.9621,-0.2955,0.6261,-0.7755,0.0321,0.0752
766,0.0,0.0,0.0,0.0,0.0,0.0,-0.1696,-0.9423,-0.2740,0.6298,-0.7722,0.0392,0.0743
767,0.0,0.0,0.0,0.0,0.0,0.0,-0.1848,-0.8888,-0.2848,0.6318,-0.7702,0.0478,0.0729
768,0.0,0.0,0.0,0.0,0.0,0.0,-0.1682,-0.8845,-0.2989,0.6341,-0.7679,0.0552,0.0719
769,0.0,0.0,0.0,0.0,0.0,0.0,-0.1173,-0.9162,-0.3071,0.6362,-0.7659,0.0592,0.0708
770,0.0,0.0,0.0,0.0,0.0,0.0,-0.1354,-0.9084,-0.2988,0.6368,-0.7654,0.0619,0.0694
771,0.0,0.0,0.0,0.0,0.0,0.0,-0.1628,-0.9287,-0.2940,0.6363,-0.7657,0.0645,0.0682
772,0.0,0.0,0.0,0.0,0.0,0.0,-0.1500,-0.9520,-0.2905,0.6363,-0.7655,0.0657,0.0687
773,0.0,0.0,0.0,0.0,0.0,0.0,-0.1515,-0.9210,-0.2832,0.6365,-0.7654,0.0654,0.0696
774,0.0,0.0,0.0,0.0,0.0,0.0,-0.1716,-0.9107,-0.2877,0.6362,-0.7655,0.0648,0.0708
775,0.0,0.0,0.0,0.0,0.0,0.0,-0.1750,-0.9048,-0.3086,0.6344,-0.7669,0.0642,0.0724
776,0.0,0.0,0.0,0.0,0.0,0.0,-0.1477,-0.9117,-0.3178,0.6310,-0.7697,0.0616,0.0749
777,0.0,0.0,0.0,0.0,0.0,0.0,-0.1247,-0.9045,-0.3085,0.6268,-0.7734,0.0575,0.0759
778,0.0,0.0,0.0,0.0,0.0,0.0,-0.1613,-0.9403,-0.2852,0.6232,-0.7765,0.0546,0.0753
779,0.0,0.0,0.0,0.0,0.0,0.0,-0.1818,-0.9845,-0.2648,0.6224,-0.7774,0.0527,0.0742
780,0.0,0.0,0.0,0.0,0.0,0.0,-0.1818,-0.9689,-0.2706,0.6247,-0.7756,0.0505,0.0746
781,0.0,0.0,0.0,0.0,0.0,0.0,-0.1764,-0.9408,-0.2877,0.6267,-0.7740,0.0489,0.0758
782,0.0,0.0,0.0,0.0,0.0,0.0,-0.1784,-0.9471,-0.2926,0.6282,-0.7727,0.0484,0.0770
783,0.0,0.0,0.0,0.0,0.0,0.0,-0.1764,-0.9451,-0.2809,0.6296,-0.7714,0.0477,0.0793
784,0.0,0.0,0.0,0.0,0.0,0.0,-0.1755,-0.9277,-0.2740,0.6312,-0.7700,0.0467,0.0813
785,0.0,0.0,0.0,0.0,0.0,0.0,-0.1842,-0.9364,-0.2648,0.6327,-0.7686,0.0464,0.0821
786,0.0,0.0,0.0,0.0,0.0,0.0,-0.1896,-0.9694,-0.2667,0.6344,-0.7672,0.0474,0.0825
787,0.0,0.0,0.0,0.0,0.0,0.0,-0.1886,-0.9640,-0.2550,0.6362,-0.7654,0.0479,0.0837
788,0.0,0.0,0.0,0.0,0.0,0.0,-0.1867,-0.9514,-0.2555,0.6375,-0.7642,0.0472,0.0856
789,0.0,0.0,0.0,0.0,0.0,0.0,-0.1852,-0.9592,-0.2599,0.6383,-0.7634,0.0462,0.0873
790,0.0,0.0,0.0,0.0,0.0,0.0,-0.2111,-0.9703,-0.2429,0.6395,-0.7622,0.0466,0.0890
791,0.0,0.0,0.0,0.0,0.0,0.0,-0.2155,-0.9576,-0.2317,0.6407,-0.7609,0.0471,0.0911
792,0.0,0.0,0.0,0.0,0.0,0.0,-0.1915,-0.9533,-0.2351,0.6411,-0.7603,0.0472,0.0930
793,0.0,0.0,0.0,0.0,0.0,0.0,-0.1964,-0.9499,-0.2360,0.6416,-0.7597,0.0480,0.0940
794,0.0,0.0,0.0,0.0,0.0,0.0,-0.2072,-0.9426,-0.2419,0.6415,-0.7597,0.0498,0.0946
795,0.0,0.0,0.0,0.0,0.0,0.0,-0.2150,-0.9304,-0.2419,0.6403,-0.7604,0.0516,0.0954
796,0.0,0.0,0.0,0.0,0.0,0.0,-0.2111,-0.9159,-0.2575,0.6371,-0.7629,0.0533,0.0960
797,0.0,0.0,0.0,0.0,0.0,0.0,-0.2092,-0.9329,-0.2517,0.6337,-0.7656,0.0557,0.0960
798,0.0,0.0,0.0,0.0,0.0,0.0,-0.2228,-0.9421,-0.2444,0.6314,-0.7674,0.0573,0.0958
799,0.0,0.0,0.0,0.0,0.0,0.0,-0.2331,-0.9624,-0.2483,0.6293,-0.7690,0.0590,0.0956
800,0.0,0.0,0.0,0.0,0.0,0.0,-0.2185,-0.9270,-0.2585,0.6279,-0.7701,0.0602,0.0952
801,0.0,0.0,0.0,0.0,0.0,0.0,-0.2331,-0.9177,-0.2551,0.6282,-0.7699,0.0624,0.0935
802,0.0,0.0,0.0,0.0,0.0,0.0,-0.2487,-0.9395,-0.2474,0.6304,-0.7681,0.0659,0.0906
803,0.0,0.0,0.0,0.0,0.0,0.0,-0.2150,-0.9333,-0.2619,0.6330,-0.7660,0.0684,0.0887
804,0.0,0.0,0.0,0.0,0.0,0.0,-0.2419,-0.9143,-0.2576,0.6352,-0.7640,0.0733,0.0859
805,0.0,0.0,0.0,0.0,0.0,0.0,-0.2639,-0.9307,-0.2411,0.6381,-0.7612,0.0807,0.0830
806,0.0,0.0,0.0,0.0,0.0,0.0,-0.1828,-0.9004,-0.2731,0.6404,-0.7591,0.0839,0.0813
807,0.0,0.0,0.0,0.0,0.0,0.0,-0.1569,-0.9093,-0.2915,0.6424,-0.7576,0.0847,0.0782
808,0.0,0.0,0.0,0.0,0.0,0.0,-0.1222,-0.9507,-0.3037,0.6445,-0.7564,0.0835,0.0738
809,0.0,0.0,0.0,0.0,0.0,0.0,-0.1447,-0.9627,-0.2930,0.6463,-0.7556,0.0813,0.0692
810,0.0,0.0,0.0,0.0,0.0,0.0,-0.1701,-0.9626,-0.2725,0.6465,-0.7559,0.0789,0.0662
811,0.0,0.0,0.0,0.0,0.0,0.0,-0.1642,-0.9680,-0.2540,0.6471,-0.7560,0.0748,0.0641
812,0.0,0.0,0.0,0.0,0.0,0.0,-0.2092,-0.9416,-0.2551,0.6475,-0.7560,0.0718,0.0631
813,0.0,0.0,0.0,0.0,0.0,0.0,-0.2214,-0.9435,-0.2590,0.6460,-0.7575,0.0703,0.0627
814,0.0,0.0,0.0,0.0,0.0,0.0,-0.1637,-0.9428,-0.2667,0.6442,-0.7594,0.0668,0.0630
815,0.0,0.0,0.0,0.0,0.0,0.0,-0.1383,-0.9428,-0.2701,0.6433,-0.7605,0.0614,0.0641
816,0.0,0.0,0.0,0.0,0.0,0.0,-0.1715,-0.9228,-0.2667,0.6431,-0.7609,0.0573,0.0650
817,0.0,0.0,0.0,0.0,0.0,0.0,-0.1754,-0.9345,-0.2677,0.6427,-0.7613,0.0536,0.0668
818,0.0,0.0,0.0,0.0,0.0,0.0,-0.1735,-0.9427,-0.2687,0.6419,-0.7621,0.0501,0.0689
819,0.0,0.0,0.0,0.0,0.0,0.0,-0.1657,-0.9355,-0.2613,0.6405,-0.7632,0.0469,0.0711
820,0.0,0.0,0.0,0.0,0.0,0.0,-0.1622,-0.9505,-0.2652,0.6394,-0.7641,0.0440,0.0733
821,0.0,0.0,0.0,0.0,0.0,0.0,-0.1490,-0.9496,-0.2711,0.6378,-0.7655,0.0405,0.0751
822,0.0,0.0,0.0,0.0,0.0,0.0,-0.1730,-0.9252,-0.2706,0.6358,-0.7670,0.0381,0.0770
823,0.0,0.0,0.0,0.0,0.0,0.0,-0.1623,-0.9340,-0.2755,0.6340,-0.7684,0.0358,0.0793
824,0.0,0.0,0.0,0.0,0.0,0.0,-0.1637,-0.9486,-0.2633,0.6332,-0.7690,0.0339,0.0808
825,0.0,0.0,0.0,0.0,0.0,0.0,-0.1784,-0.9621,-0.2662,0.6322,-0.7697,0.0326,0.0822
826,0.0,0.0,0.0,0.0,0.0,0.0,-0.1617,-0.9627,-0.2686,0.6308,-0.7708,0.0309,0.0836
827,0.0,0.0,0.0,0.0,0.0,0.0,-0.1701,-0.9568,-0.2682,0.6296,-0.7716,0.0293,0.0853
828,0.0,0.0,0.0,0.0,0.0,0.0,-0.1876,-0.9611,-0.2580,0.6290,-0.7720,0.0286,0.0868
829,0.0,0.0,0.0,0.0,0.0,0.0,-0.2014,-0.9305,-0.2697,0.6282,-0.7725,0.0279,0.0888
830,0.0,0.0,0.0,0.0,0.0,0.0,-0.1740,-0.9136,-0.3018,0.6264,-0.7737,0.0259,0.0911
831,0.0,0.0,0.0,0.0,0.0,0.0,-0.1940,-0.9155,-0.2765,0.6254,-0.7744,0.0254,0.0926
832,0.0,0.0,0.0,0.0,0.0,0.0,-0.1838,-0.9320,-0.2877,0.6251,-0.7745,0.0255,0.0936
833,0.0,0.0,0.0,0.0,0.0,0.0,-0.1892,-0.9077,-0.3048,0.6233,-0.7758,0.0245,0.0952
834,0.0,0.0,0.0,0.0,0.0,0.0,-0.1955,-0.9208,-0.3082,0.6215,-0.7771,0.0237,0.0962
835,0.0,0.0,0.0,0.0,0.0,0.0,-0.1960,-0.9237,-0.3350,0.6182,-0.7796,0.0234,0.0971
836,0.0,0.0,0.0,0.0,0.0,0.0,-0.1912,-0.9262,-0.3433,0.6140,-0.7828,0.0219,0.0984
837,0.0,0.0,0.0,0.0,0.0,0.0,-0.1712,-0.9087,-0.3540,0.6099,-0.7858,0.0180,0.1006
838,0.0,0.0,0.0,0.0,0.0,0.0,-0.1619,-0.8952,-0.3539,0.6057,-0.7889,0.0131,0.1025
839,0.0,0.0,0.0,0.0,0.0,0.0,-0.1620,-0.8986,-0.4500,0.6019,-0.7916,0.0058,0.1053
840,0.0,0.0,0.0,0.0,0.0,0.0,-0.1746,-0.9136,-0.3418,0.6000,-0.7926,-0.0011,0.1087
841,0.0,0.0,0.0,0.0,0.0,0.0,-0.1569,-0.9360,-0.3364,0.5977,-0.7940,-0.0069,0.1114
842,0.0,0.0,0.0,0.0,0.0,0.0,-0.1750,-0.9597,-0.3218,0.5956,-0.7951,-0.0118,0.1142
843,0.0,0.0,0.0,0.0,0.0,0.0,-0.1872,-0.9393,-0.3316,0.5934,-0.7963,-0.0153,0.1166
844,0.0,0.0,0.0,0.0,0.0,0.0,-0.1789,-0.9374,-0.3442,0.5908,-0.7978,-0.0188,0.1188
845,0.0,0.0,0.0,0.0,0.0,0.0,-0.1823,-0.9432,-0.3316,0.5896,-0.7982,-0.0217,0.1218
846,0.0,0.0,0.0,0.0,0.0,0.0,-0.2034,-0.9120,-0.3399,0.5894,-0.7977,-0.0236,0.1250
847,0.0,0.0,0.0,0.0,0.0,0.0,-0.1907,-0.9029,-0.3525,0.5896,-0.7972,-0.0253,0.1274
848,0.0,0.0,0.0,0.0,0.0,0.0,-0.1809,-0.9087,-0.3437,0.5901,-0.7966,-0.0267,0.1286
849,0.0,0.0,0.0,0.0,0.0,0.0,-0.1873,-0.9038,-0.3481,0.5910,-0.7959,-0.0273,0.1288
850,0.0,0.0,0.0,0.0,0.0,0.0,-0.1907,-0.9111,-0.3399,0.5921,-0.7950,-0.0271,0.1291
851,0.0,0.0,0.0,0.0,0.0,0.0,-0.1887,-0.9019,-0.3267,0.5941,-0.7934,-0.0260,0.1297
852,0.0,0.0,0.0,0.0,0.0,0.0,-0.1677,-0.9083,-0.3364,0.5970,-0.7912,-0.0251,0.1302
853,0.0,0.0,0.0,0.0,0.0,0.0,-0.1560,-0.9350,-0.3471,0.5997,-0.7892,-0.0240,0.1302
854,0.0,0.0,0.0,0.0,0.0,0.0,-0.1721,-0.9374,-0.3218,0.6013,-0.7881,-0.0233,0.1299
855,0.0,0.0,0.0,0.0,0.0,0.0,-0.1764,-0.9670,-0.3077,0.6026,-0.7870,-0.0232,0.1304
856,0.0,0.0,0.0,0.0,0.0,0.0,-0.1969,-0.9679,-0.2838,0.6043,-0.7854,-0.0221,0.1320
857,0.0,0.0,0.0,0.0,0.0,0.0,-0.2121,-0.9771,-0.2780,0.6073,-0.7827,-0.0193,0.1348
858,0.0,0.0,0.0,0.0,0.0,0.0,-0.1950,-0.9645,-0.2872,0.6101,-0.7802,-0.0158,0.1371
859,0.0,0.0,0.0,0.0,0.0,0.0,-0.1999,-0.9591,-0.3028,0.6116,-0.7788,-0.0123,0.1386
860,0.0,0.0,0.0,0.0,0.0,0.0,-0.2087,-0.9615,-0.2980,0.6136,-0.7771,-0.0084,0.1399
861,0.0,0.0,0.0,0.0,0.0,0.0,-0.2292,-0.9425,-0.2892,0.6159,-0.7750,-0.0034,0.1415
862,0.0,0.0,0.0,0.0,0.0,0.0,-0.2375,-0.9114,-0.2722,0.6193,-0.7718,0.0007,0.1446
863,0.0,0.0,0.0,0.0,0.0,0.0,-0.2347,-0.9066,-0.3395,0.6214,-0.7692,0.0029,0.1489
864,0.0,0.0,0.0,0.0,0.0,0.0,-0.2258,-0.9056,-0.2975,0.6226,-0.7674,0.0036,0.1532
865,0.0,0.0,0.0,0.0,0.0,0.0,-0.2293,-0.8843,-0.2810,0.6241,-0.7655,0.0022,0.1566
866,0.0,0.0,0.0,0.0,0.0,0.0,-0.2254,-0.8852,-0.2824,0.6247,-0.7645,-0.0000,0.1587
867,0.0,0.0,0.0,0.0,0.0,0.0,-0.2258,-0.8964,-0.2658,0.6255,-0.7637,-0.0030,0.1596
868,0.0,0.0,0.0,0.0,0.0,0.0,-0.2170,-0.9134,-0.2648,0.6263,-0.7630,-0.0071,0.1601
869,0.0,0.0,0.0,0.0,0.0,0.0,-0.1926,-0.9048,-0.3121,0.6235,-0.7650,-0.0122,0.1607
870,0.0,0.0,0.0,0.0,0.0,0.0,-0.1804,-0.9140,-0.2687,0.6208,-0.7672,-0.0191,0.1599
871,0.0,0.0,0.0,0.0,0.0,0.0,-0.2155,-0.9426,-0.2341,0.6180,-0.7695,-0.0235,0.1594
872,0.0,0.0,0.0,0.0,0.0,0.0,-0.2238,-0.9527,-0.2848,0.6128,-0.7734,-0.0278,0.1597
873,0.0,0.0,0.0,0.0,0.0,0.0,-0.2235,-0.8741,-0.3468,0.6047,-0.7797,-0.0323,0.1594
874,0.0,0.0,0.0,0.0,0.0,0.0,-0.1927,-0.8179,-0.3116,0.5993,-0.7844,-0.0357,0.1559
875,0.0,0.0,0.0,0.0,0.0,0.0,-0.1872,-0.9310,-0.2731,0.6011,-0.7843,-0.0367,0.1489
876,0.0,0.0,0.0,0.0,0.0,0.0,-0.2105,-1.0407,-0.2439,0.6054,-0.7825,-0.0334,0.1413
877,0.0,0.0,0.0,0.0,0.0,0.0,-0.2183,-1.0722,-0.2015,0.6103,-0.7803,-0.0270,0.1338
878,0.0,0.0,0.0,0.0,0.0,0.0,-0.1875,-1.1049,-0.2511,0.6152,-0.7781,-0.0165,0.1258
879,0.0,0.0,0.0,0.0,0.0,0.0,-0.1744,-1.0262,-0.2803,0.6211,-0.7749,-0.0048,0.1176
880,0.0,0.0,0.0,0.0,0.0,0.0,-0.1969,-0.9524,-0.2697,0.6261,-0.7718,0.0072,0.1110
881,0.0,0.0,0.0,0.0,0.0,0.0,-0.2244,-0.8585,-0.3058,0.6298,-0.7691,0.0186,0.1070
882,0.0,0.0,0.0,0.0,0.0,0.0,-0.2039,-0.7989,-0.3131,0.6303,-0.7681,0.0219,0.1106
883,0.0,0.0,0.0,0.0,0.0,0.0,-0.1325,-0.8283,-0.2944,0.6278,-0.7694,0.0186,0.1166
884,0.0,0.0,0.0,0.0,0.0,0.0,-0.1560,-0.8486,-0.3169,0.6231,-0.7722,0.0116,0.1242
885,0.0,0.0,0.0,0.0,0.0,0.0,-0.1663,-0.8723,-0.3369,0.6167,-0.7761,0.0013,0.1318
886,0.0,0.0,0.0,0.0,0.0,0.0,-0.1829,-0.9014,-0.3257,0.6112,-0.7794,-0.0097,0.1374
887,0.0,0.0,0.0,0.0,0.0,0.0,-0.2058,-0.9698,-0.3184,0.6078,-0.7809,-0.0204,0.1426
888,0.0,0.0,0.0,0.0,0.0,0.0,-0.1959,-0.9927,-0.2828,0.6076,-0.7800,-0.0276,0.1473
889,0.0,0.0,0.0,0.0,0.0,0.0,-0.2244,-0.9163,-0.2819,0.6059,-0.7809,-0.0304,0.1486
890,0.0,0.0,0.0,0.0,0.0,0.0,-0.2024,-0.9101,-0.2999,0.6053,-0.7815,-0.0322,0.1475
891,0.0,0.0,0.0,0.0,0.0,0.0,-0.1941,-0.9373,-0.3028,0.6070,-0.7805,-0.0330,0.1461
892,0.0,0.0,0.0,0.0,0.0,0.0,-0.2005,-0.9125,-0.3326,0.6076,-0.7803,-0.0334,0.1442
893,0.0,0.0,0.0,0.0,0.0,0.0,-0.1833,-0.9092,-0.3291,0.6074,-0.7808,-0.0356,0.1419
894,0.0,0.0,0.0,0.0,0.0,0.0,-0.1863,-0.9087,-0.3491,0.6067,-0.7816,-0.0380,0.1396
895,0.0,0.0,0.0,0.0,0.0,0.0,-0.1619,-0.9005,-0.3632,0.6039,-0.7844,-0.0416,0.1353
896,0.0,0.0,0.0,0.0,0.0,0.0,-0.1931,-0.9543,-0.3062,0.6028,-0.7867,-0.0402,0.1266
897,0.0,0.0,0.0,0.0,0.0,0.0,-0.1554,-1.0098,-0.3203,0.6029,-0.7881,-0.0383,0.1182
898,0.0,0.0,0.0,0.0,0.0,0.0,-0.1759,-1.0267,-0.2964,0.6050,-0.7880,-0.0312,0.1098
899,0.0,0.0,0.0,0.0,0.0,0.0,-0.1916,-0.9864,-0.3257,0.6089,-0.7863,-0.0215,0.1027
900,0.0,0.0,0.0,0.0,0.0,0.0,-0.1765,-0.9364,-0.3198,0.6150,-0.7827,-0.0128,0.0949
901,0.0,0.0,0.0,0.0,0.0,0.0,-0.1668,-0.8811,-0.3335,0.6192,-0.7802,-0.0052,0.0891
902,0.0,0.0,0.0,0.0,0.0,0.0,-0.1643,-0.8685,-0.3081,0.6187,-0.7809,0.0010,0.0856
903,0.0,0.0,0.0,0.0,0.0,0.0,-0.1608,-0.9030,-0.2750,0.6162,-0.7832,0.0059,0.0833
904,0.0,0.0,0.0,0.0,0.0,0.0,-0.1691,-0.9024,-0.2857,0.6132,-0.7855,0.0096,0.0829
905,0.0,0.0,0.0,0.0,0.0,0.0,-0.1486,-0.9093,-0.3032,0.6115,-0.7867,0.0122,0.0835
906,0.0,0.0,0.0,0.0,0.0,0.0,-0.1437,-0.9205,-0.3047,0.6114,-0.7866,0.0118,0.0850
907,0.0,0.0,0.0,0.0,0.0,0.0,-0.1818,-0.9267,-0.3086,0.6129,-0.7852,0.0092,0.0883
908,0.0,0.0,0.0,0.0,0.0,0.0,-0.1888,-0.9121,-0.3730,0.6128,-0.7845,0.0047,0.0944
909,0.0,0.0,0.0,0.0,0.0,0.0,-0.1501,-0.9472,-0.3271,0.6131,-0.7834,-0.0016,0.1015
910,0.0,0.0,0.0,0.0,0.0,0.0,-0.1549,-0.9637,-0.2759,0.6207,-0.7767,-0.0065,0.1072
911,0.0,0.0,0.0,0.0,0.0,0.0,-0.1417,-0.9899,-0.2852,0.6275,-0.7706,-0.0110,0.1111
912,0.0,0.0,0.0,0.0,0.0,0.0,-0.1167,-1.0289,-0.2217,0.6335,-0.7655,-0.0151,0.1119
913,0.0,0.0,0.0,0.0,0.0,0.0,-0.1108,-1.0707,-0.2359,0.6408,-0.7596,-0.0154,0.1106
914,0.0,0.0,0.0,0.0,0.0,0.0,-0.1533,-0.9447,-0.1560,0.6540,-0.7487,-0.0088,0.1079
915,0.0,0.0,0.0,0.0,0.0,0.0,-0.1791,-0.9908,-0.0888,0.6700,-0.7350,0.0009,0.1046
916,0.0,0.0,0.0,0.0,0.0,0.0,-0.2042,-0.8999,-0.1971,0.6788,-0.7270,0.0095,0.1029
917,0.0,0.0,0.0,0.0,0.0,0.0,-0.1079,-0.9158,-0.1628,0.6853,-0.7209,0.0121,0.1024
918,0.0,0.0,0.0,0.0,0.0,0.0,-0.1113,-0.9235,-0.1725,0.6893,-0.7171,0.0120,0.1027
919,0.0,0.0,0.0,0.0,0.0,0.0,-0.1563,-0.9413,-0.1902,0.6895,-0.7168,0.0118,0.1035
920,0.0,0.0,0.0,0.0,0.0,0.0,-0.1670,-0.9631,-0.1619,0.6870,-0.7191,0.0124,0.1037
921,0.0,0.0,0.0,0.0,0.0,0.0,-0.0873,-0.9780,-0.1544,0.6857,-0.7207,0.0125,0.1014
922,0.0,0.0,0.0,0.0,0.0,0.0,-0.1416,-0.9564,-0.1297,0.6860,-0.7207,0.0164,0.0983
923,0.0,0.0,0.0,0.0,0.0,0.0,-0.1724,-0.9481,-0.1390,0.6855,-0.7216,0.0218,0.0947
924,0.0,0.0,0.0,0.0,0.0,0.0,-0.1616,-0.9627,-0.1629,0.6831,-0.7244,0.0287,0.0886
925,0.0,0.0,0.0,0.0,0.0,0.0,-0.1016,-0.9328,-0.2115,0.6783,-0.7295,0.0338,0.0816
926,0.0,0.0,0.0,0.0,0.0,0.0,0.0787,-0.9057,-0.2658,0.6697,-0.7382,0.0302,0.0749
927,0.0,0.0,0.0,0.0,0.0,0.0,-0.0425,-0.9451,-0.2377,0.6625,-0.7454,0.0264,0.0691
928,0.0,0.0,0.0,0.0,0.0,0.0,-0.0893,-1.0430,-0.1915,0.6576,-0.7501,0.0215,0.0667
929,0.0,0.0,0.0,0.0,0.0,0.0,-0.1543,-1.0151,-0.1882,0.6519,-0.7551,0.0175,0.0670
930,0.0,0.0,0.0,0.0,0.0,0.0,-0.1675,-0.9403,-0.1829,0.6474,-0.7588,0.0139,0.0701
931,0.0,0.0,0.0,0.0,0.0,0.0,-0.1593,-0.9360,-0.2175,0.6448,-0.7605,0.0106,0.0758
932,0.0,0.0,0.0,0.0,0.0,0.0,-0.1026,-0.9537,-0.2588,0.6438,-0.7606,0.0041,0.0839
933,0.0,0.0,0.0,0.0,0.0,0.0,-0.0953,-0.9197,-0.2812,0.6440,-0.7593,-0.0038,0.0927
934,0.0,0.0,0.0,0.0,0.0,0.0,-0.1212,-0.9118,-0.2905,0.6434,-0.7589,-0.0110,0.0995
935,0.0,0.0,0.0,0.0,0.0,0.0,-0.1847,-0.9378,-0.2682,0.6384,-0.7624,-0.0159,0.1043
936,0.0,0.0,0.0,0.0,0.0,0.0,-0.1241,-0.9900,-0.2388,0.6327,-0.7668,-0.0201,0.1061
937,0.0,0.0,0.0,0.0,0.0,0.0,-0.1040,-0.9789,-0.2339,0.6315,-0.7672,-0.0250,0.1094
938,0.0,0.0,0.0,0.0,0.0,0.0,-0.1613,-0.9224,-0.2755,0.6293,-0.7686,-0.0284,0.1115
939,0.0,0.0,0.0,0.0,0.0,0.0,-0.1593,-0.9102,-0.2760,0.6257,-0.7703,-0.0372,0.1177
940,0.0,0.0,0.0,0.0,0.0,0.0,-0.1271,-0.9609,-0.3007,0.6210,-0.7711,-0.0530,0.1301
941,0.0,0.0,0.0,0.0,0.0,0.0,-0.1961,-0.9159,-0.3296,0.6131,-0.7743,-0.0653,0.1422
942,0.0,0.0,0.0,0.0,0.0,0.0,-0.1388,-0.8982,-0.2394,0.6057,-0.7779,-0.0732,0.1508
943,0.0,0.0,0.0,0.0,0.0,0.0,-0.0195,-1.0219,-0.2781,0.6091,-0.7743,-0.0810,0.1514
944,0.0,0.0,0.0,0.0,0.0,0.0,-0.2604,-1.0084,-0.2327,0.6132,-0.7717,-0.0767,0.1504
945,0.0,0.0,0.0,0.0,0.0,0.0,-0.1778,-0.9801,-0.2570,0.6159,-0.7696,-0.0743,0.1513
946,0.0,0.0,0.0,0.0,0.0,0.0,-0.1573,-0.9986,-0.2725,0.6177,-0.7679,-0.0720,0.1533
947,0.0,0.0,0.0,0.0,0.0,0.0,-0.1656,-0.9529,-0.2526,0.6192,-0.7669,-0.0686,0.1542
948,0.0,0.0,0.0,0.0,0.0,0.0,-0.1642,-0.9554,-0.2662,0.6208,-0.7660,-0.0656,0.1537
949,0.0,0.0,0.0,0.0,0.0,0.0,-0.1593,-0.9641,-0.2579,0.6220,-0.7654,-0.0633,0.1525
950,0.0,0.0,0.0,0.0,0.0,0.0,-0.1862,-0.9611,-0.2404,0.6231,-0.7649,-0.0606,0.1517
951,0.0,0.0,0.0,0.0,0.0,0.0,-0.1974,-0.9606,-0.2468,0.6234,-0.7650,-0.0571,0.1513
952,0.0,0.0,0.0,0.0,0.0,0.0,-0.1945,-0.9553,-0.2253,0.6236,-0.7652,-0.0534,0.1507
953,0.0,0.0,0.0,0.0,0.0,0.0,-0.1905,-0.9597,-0.2219,0.6249,-0.7647,-0.0490,0.1493
954,0.0,0.0,0.0,0.0,0.0,0.0,-0.1940,-0.9728,-0.2243,0.6271,-0.7635,-0.0450,0.1476
955,0.0,0.0,0.0,0.0,0.0,0.0,-0.2018,-0.9781,-0.2107,0.6312,-0.7607,-0.0415,0.1458
956,0.0,0.0,0.0,0.0,0.0,0.0,-0.2062,-0.9659,-0.2385,0.6357,-0.7575,-0.0378,0.1437
957,0.0,0.0,0.0,0.0,0.0,0.0,-0.2174,-0.9474,-0.2312,0.6398,-0.7547,-0.0329,0.1416
958,0.0,0.0,0.0,0.0,0.0,0.0,-0.2160,-0.9392,-0.2327,0.6431,-0.7524,-0.0273,0.1399
959,0.0,0.0,0.0,0.0,0.0,0.0,-0.2028,-0.9261,-0.2351,0.6459,-0.7504,-0.0224,0.1383
960,0.0,0.0,0.0,0.0,0.0,0.0,-0.2008,-0.9416,-0.2175,0.6492,-0.7480,-0.0177,0.1367
961,0.0,0.0,0.0,0.0,0.0,0.0,-0.2042,-0.9460,-0.2117,0.6525,-0.7456,-0.0127,0.1345
962,0.0,0.0,0.0,0.0,0.0,0.0,-0.2057,-0.9475,-0.1990,0.6552,-0.7437,-0.0076,0.1321
963,0.0,0.0,0.0,0.0,0.0,0.0,-0.1959,-0.9621,-0.1932,0.6580,-0.7417,-0.0033,0.1301
964,0.0,0.0,0.0,0.0,0.0,0.0,-0.1900,-0.9470,-0.2014,0.6604,-0.7400,0.0005,0.1276
965,0.0,0.0,0.0,0.0,0.0,0.0,-0.1812,-0.9437,-0.2073,0.6621,-0.7389,0.0039,0.1249
966,0.0,0.0,0.0,0.0,0.0,0.0,-0.1837,-0.9432,-0.2092,0.6635,-0.7381,0.0072,0.1223
967,0.0,0.0,0.0,0.0,0.0,0.0,-0.1837,-0.9417,-0.2141,0.6640,-0.7380,0.0101,0.1198
968,0.0,0.0,0.0,0.0,0.0,0.0,-0.1881,-0.9465,-0.2048,0.6644,-0.7381,0.0127,0.1170
969,0.0,0.0,0.0,0.0,0.0,0.0,-0.1925,-0.9519,-0.2009,0.6647,-0.7381,0.0151,0.1145
970,0.0,0.0,0.0,0.0,0.0,0.0,-0.1905,-0.9645,-0.2039,0.6647,-0.7385,0.0172,0.1121
971,0.0,0.0,0.0,0.0,0.0,0.0,-0.1850,-0.9742,-0.0771,0.6668,-0.7368,0.0192,0.1103
972,0.0,0.0,0.0,0.0,0.0,0.0,-0.1925,-0.9732,-0.1927,0.6669,-0.7368,0.0210,0.1092
973,0.0,0.0,0.0,0.0,0.0,0.0,-0.1871,-0.9582,-0.1985,0.6672,-0.7366,0.0226,0.1082
974,0.0,0.0,0.0,0.0,0.0,0.0,-0.1768,-0.9500,-0.2058,0.6672,-0.7368,0.0236,0.1072
975,0.0,0.0,0.0,0.0,0.0,0.0,-0.1793,-0.9500,-0.1980,0.6660,-0.7380,0.0246,0.1060
976,0.0,0.0,0.0,0.0,0.0,0.0,-0.1763,-0.9578,-0.1941,0.6646,-0.7393,0.0257,0.1052
977,0.0,0.0,0.0,0.0,0.0,0.0,-0.1905,-0.9495,-0.1917,0.6634,-0.7405,0.0271,0.1043
978,0.0,0.0,0.0,0.0,0.0,0.0,-0.1896,-0.9397,-0.2097,0.6616,-0.7421,0.0277,0.1039
979,0.0,0.0,0.0,0.0,0.0,0.0,-0.1773,-0.9500,-0.2131,0.6593,-0.7442,0.0283,0.1034
980,0.0,0.0,0.0,0.0,0.0,0.0,-0.1837,-0.9655,-0.2048,0.6573,-0.7461,0.0295,0.1023
981,0.0,0.0,0.0,0.0,0.0,0.0,-0.1930,-0.9480,-0.2151,0.6546,-0.7486,0.0310,0.1002
982,0.0,0.0,0.0,0.0,0.0,0.0,-0.1857,-0.9344,-0.2380,0.6499,-0.7530,0.0324,0.0976
983,0.0,0.0,0.0,0.0,0.0,0.0,-0.1823,-0.9257,-0.2424,0.6440,-0.7584,0.0342,0.0944
984,0.0,0.0,0.0,0.0,0.0,0.0,-0.1862,-0.9315,-0.2536,0.6376,-0.7641,0.0353,0.0914
985,0.0,0.0,0.0,0.0,0.0,0.0,-0.1959,-0.9499,-0.2443,0.6316,-0.7692,0.0355,0.0902
986,0.0,0.0,0.0,0.0,0.0,0.0,-0.1623,-0.9515,-0.2915,0.6245,-0.7749,0.0333,0.0918
987,0.0,0.0,0.0,0.0,0.0,0.0,-0.1647,-0.9573,-0.2662,0.6175,-0.7805,0.0328,0.0921
988,0.0,0.0,0.0,0.0,0.0,0.0,-0.1486,-0.9627,-0.3086,0.6091,-0.7869,0.0299,0.0942
989,0.0,0.0,0.0,0.0,0.0,0.0,-0.1462,-0.9559,-0.3437,0.5985,-0.7946,0.0249,0.0989
990,0.0,0.0,0.0,0.0,0.0,0.0,-0.1765,-0.9456,-0.3228,0.5862,-0.8031,0.0206,0.1048
991,0.0,0.0,0.0,0.0,0.0,0.0,-0.2102,-0.9203,-0.3219,0.5771,-0.8090,0.0178,0.1104
992,0.0,0.0,0.0,0.0,0.0,0.0,-0.1546,-0.9142,-0.3841,0.5701,-0.8130,0.0118,0.1176
993,0.0,0.0,0.0,0.0,0.0,0.0,-0.1531,-0.9156,-0.3544,0.5691,-0.8129,0.0064,0.1233
994,0.0,0.0,0.0,0.0,0.0,0.0,-0.2258,-0.9756,-0.3121,0.5789,-0.8059,0.0066,0.1242
995,0.0,0.0,0.0,0.0,0.0,0.0,-0.2523,-0.9153,-0.3258,0.5994,-0.7915,0.0141,0.1189
996,0.0,0.0,0.0,0.0,0.0,0.0,-0.2337,-0.9012,-0.3190,0.6227,-0.7746,0.0266,0.1076
997,0.0,0.0,0.0,0.0,0.0,0.0,-0.2171,-0.8581,-0.3024,0.6365,-0.7641,0.0350,0.0992
998,0.0,0.0,0.0,0.0,0.0,0.0,-0.1702,-0.8107,-0.3052,0.6407,-0.7608,0.0363,0.0969
999,0.0,0.0,0.0,0.0,0.0,0.0,-0.1506,-0.8471,-0.2760,0.6420,-0.7599,0.0347,0.0963
1000,0.0,0.0,0.0,0.0,0.0,0.0,-0.2009,-0.8659,-0.2458,0.6416,-0.7599,0.0309,0.0992
1001,0.0,0.0,0.0,0.0,0.0,0.0,-0.2072,-0.9586,-0.3102,0.6367,-0.7628,0.0177,0.1119
1002,0.0,0.0,0.0,0.0,0.0,0.0,-0.3938,-0.8638,-0.6215,0.6177,-0.7759,0.0053,0.1280
1003,0.0,0.0,0.0,0.0,0.0,0.0,0.0799,-1.0563,-0.1234,0.6080,-0.7822,-0.0118,0.1356
1004,0.0,0.0,0.0,0.0,0.0,0.0,-0.1178,-0.9609,-0.3378,0.6065,-0.7836,-0.0173,0.1332
1005,0.0,0.0,0.0,0.0,0.0,0.0,-0.2951,-1.0108,-0.2465,0.6055,-0.7842,-0.0155,0.1343
1006,0.0,0.0,0.0,0.0,0.0,0.0,-0.2013,-1.0019,-0.2994,0.6029,-0.7854,-0.0159,0.1396
1007,0.0,0.0,0.0,0.0,0.0,0.0,-0.2195,-0.9523,-0.3711,0.6006,-0.7862,-0.0153,0.1447
1008,0.0,0.0,0.0,0.0,0.0,0.0,-0.2371,-0.9415,-0.3853,0.5996,-0.7859,-0.0136,0.1505
1009,0.0,0.0,0.0,0.0,0.0,0.0,-0.2460,-0.8541,-0.3614,0.6004,-0.7842,-0.0136,0.1564
1010,0.0,0.0,0.0,0.0,0.0,0.0,-0.2392,-0.7915,-0.3824,0.5963,-0.7861,-0.0186,0.1618
1011,0.0,0.0,0.0,0.0,0.0,0.0,-0.1474,-0.7855,-0.4392,0.5890,-0.7909,-0.0287,0.1636
1012,0.0,0.0,0.0,0.0,0.0,0.0,-0.1690,-0.7247,-0.4968,0.5768,-0.7999,-0.0399,0.1606
1013,0.0,0.0,0.0,0.0,0.0,0.0,-0.1926,-0.9694,-0.3691,0.5656,-0.8073,-0.0540,0.1596
1014,0.0,0.0,0.0,0.0,0.0,0.0,-0.3146,-1.0719,-0.2489,0.5592,-0.8117,-0.0587,0.1580
1015,0.0,0.0,0.0,0.0,0.0,0.0,-0.2575,-1.0060,-0.2269,0.5524,-0.8161,-0.0620,0.1577
1016,0.0,0.0,0.0,0.0,0.0,0.0,-0.2360,-0.9852,-0.2780,0.5492,-0.8178,-0.0625,0.1601
1017,0.0,0.0,0.0,0.0,0.0,0.0,-0.2654,-0.9560,-0.3415,0.5523,-0.8157,-0.0571,0.1622
1018,0.0,0.0,0.0,0.0,0.0,0.0,-0.2362,-0.9143,-0.3858,0.5553,-0.8132,-0.0523,0.1662
1019,0.0,0.0,0.0,0.0,0.0,0.0,-0.2010,-0.9378,-0.4237,0.5562,-0.8121,-0.0481,0.1698
1020,0.0,0.0,0.0,0.0,0.0,0.0,-0.2201,-0.8634,-0.3901,0.5574,-0.8111,-0.0427,0.1722
1021,0.0,0.0,0.0,0.0,0.0,0.0,-0.2264,-0.8517,-0.3775,0.5587,-0.8099,-0.0382,0.1744
1022,0.0,0.0,0.0,0.0,0.0,0.0,-0.2284,-0.8546,-0.3960,0.5591,-0.8095,-0.0345,0.1759
1023,0.0,0.0,0.0,0.0,0.0,0.0,-0.2206,-0.8513,-0.4087,0.5589,-0.8093,-0.0324,0.1778
1024,0.0,0.0,0.0,0.0,0.0,0.0,-0.2074,-0.8479,-0.4189,0.5585,-0.8096,-0.0311,0.1779
1025,0.0,0.0,0.0,0.0,0.0,0.0,-0.2025,-0.8606,-0.4310,0.5572,-0.8111,-0.0301,0.1754
1026,0.0,0.0,0.0,0.0,0.0,0.0,-0.1922,-0.9038,-0.3837,0.5570,-0.8123,-0.0275,0.1708
1027,0.0,0.0,0.0,0.0,0.0,0.0,-0.1799,-1.0029,-0.3501,0.5594,-0.8115,-0.0251,0.1672
1028,0.0,0.0,0.0,0.0,0.0,0.0,-0.2312,-1.0032,-0.3823,0.5592,-0.8124,-0.0194,0.1640
1029,0.0,0.0,0.0,0.0,0.0,0.0,-0.2337,-0.8959,-0.3399,0.5586,-0.8132,-0.0133,0.1627
1030,0.0,0.0,0.0,0.0,0.0,0.0,-0.3296,-0.8072,-0.3265,0.5621,-0.8113,-0.0041,0.1609
1031,0.0,0.0,0.0,0.0,0.0,0.0,-0.2763,-0.7957,-0.3396,0.5678,-0.8077,0.0017,0.1588
1032,0.0,0.0,0.0,0.0,0.0,0.0,-0.2421,-0.8410,-0.3746,0.5758,-0.8028,0.0067,0.1545
1033,0.0,0.0,0.0,0.0,0.0,0.0,-0.2182,-0.8629,-0.4106,0.5846,-0.7976,0.0106,0.1486
1034,0.0,0.0,0.0,0.0,0.0,0.0,-0.1717,-0.9393,-0.3964,0.5897,-0.7946,0.0091,0.1442
1035,0.0,0.0,0.0,0.0,0.0,0.0,-0.2292,-0.9819,-0.3204,0.5935,-0.7926,0.0097,0.1394
1036,0.0,0.0,0.0,0.0,0.0,0.0,-0.2556,-0.9589,-0.3180,0.5949,-0.7920,0.0119,0.1367
1037,0.0,0.0,0.0,0.0,0.0,0.0,-0.2229,-0.9236,-0.3214,0.5952,-0.7920,0.0140,0.1350
1038,0.0,0.0,0.0,0.0,0.0,0.0,-0.2180,-0.9372,-0.3238,0.5957,-0.7920,0.0170,0.1328
1039,0.0,0.0,0.0,0.0,0.0,0.0,-0.2234,-0.9129,-0.3151,0.5978,-0.7909,0.0207,0.1294
1040,0.0,0.0,0.0,0.0,0.0,0.0,-0.2630,-0.8540,-0.3230,0.5999,-0.7895,0.0255,0.1269
1041,0.0,0.0,0.0,0.0,0.0,0.0,-0.2406,-0.8527,-0.3297,0.5995,-0.7898,0.0286,0.1264
1042,0.0,0.0,0.0,0.0,0.0,0.0,-0.1990,-0.8708,-0.3297,0.6000,-0.7894,0.0286,0.1266
1043,0.0,0.0,0.0,0.0,0.0,0.0,-0.2005,-0.8887,-0.3423,0.6031,-0.7871,0.0275,0.1264
1044,0.0,0.0,0.0,0.0,0.0,0.0,-0.2040,-0.8722,-0.3867,0.6044,-0.7862,0.0249,0.1262
1045,0.0,0.0,0.0,0.0,0.0,0.0,-0.1966,-0.8693,-0.3574,0.6040,-0.7869,0.0219,0.1243
1046,0.0,0.0,0.0,0.0,0.0,0.0,-0.1887,-0.9189,-0.2692,0.6090,-0.7839,0.0215,0.1191
1047,0.0,0.0,0.0,0.0,0.0,0.0,-0.2195,-0.9445,-0.3087,0.6146,-0.7803,0.0240,0.1127
1048,0.0,0.0,0.0,0.0,0.0,0.0,-0.2082,-0.9737,-0.3019,0.6182,-0.7781,0.0271,0.1083
1049,0.0,0.0,0.0,0.0,0.0,0.0,-0.2214,-0.9634,-0.2951,0.6206,-0.7763,0.0306,0.1065
1050,0.0,0.0,0.0,0.0,0.0,0.0,-0.2057,-0.9698,-0.2755,0.6231,-0.7742,0.0321,0.1068
1051,0.0,0.0,0.0,0.0,0.0,0.0,-0.1974,-0.9834,-0.2814,0.6260,-0.7714,0.0317,0.1096
1052,0.0,0.0,0.0,0.0,0.0,0.0,-0.1989,-0.9650,-0.2897,0.6282,-0.7689,0.0286,0.1154
1053,0.0,0.0,0.0,0.0,0.0,0.0,-0.1999,-0.9475,-0.3179,0.6278,-0.7681,0.0228,0.1240
1054,0.0,0.0,0.0,0.0,0.0,0.0,-0.2053,-0.9135,-0.3121,0.6256,-0.7685,0.0156,0.1336
1055,0.0,0.0,0.0,0.0,0.0,0.0,-0.1760,-0.8985,-0.3408,0.6230,-0.7691,0.0053,0.1428
1056,0.0,0.0,0.0,0.0,0.0,0.0,-0.1800,-0.8364,-0.3691,0.6179,-0.7714,-0.0074,0.1517
1057,0.0,0.0,0.0,0.0,0.0,0.0,-0.1806,-0.7781,-0.3740,0.6078,-0.7780,-0.0225,0.1578
1058,0.0,0.0,0.0,0.0,0.0,0.0,-0.1527,-0.7549,-0.3920,0.5959,-0.7865,-0.0371,0.1580
1059,0.0,0.0,0.0,0.0,0.0,0.0,-0.2186,-0.8634,-0.3136,0.5905,-0.7910,-0.0464,0.1534
1060,0.0,0.0,0.0,0.0,0.0,0.0,-0.2829,-0.9695,-0.2362,0.5893,-0.7926,-0.0504,0.1485
1061,0.0,0.0,0.0,0.0,0.0,0.0,-0.2320,-1.0396,-0.2307,0.5903,-0.7919,-0.0526,0.1473
1062,0.0,0.0,0.0,0.0,0.0,0.0,-0.2321,-0.9848,-0.2995,0.5929,-0.7900,-0.0495,0.1476
1063,0.0,0.0,0.0,0.0,0.0,0.0,-0.2415,-0.9367,-0.3258,0.5946,-0.7890,-0.0435,0.1487
1064,0.0,0.0,0.0,0.0,0.0,0.0,-0.2014,-0.9334,-0.3160,0.5967,-0.7876,-0.0363,0.1494
1065,0.0,0.0,0.0,0.0,0.0,0.0,-0.1897,-0.9194,-0.3092,0.6022,-0.7841,-0.0264,0.1474
1066,0.0,0.0,0.0,0.0,0.0,0.0,-0.2185,-0.9591,-0.3009,0.6116,-0.7786,-0.0127,0.1402
1067,0.0,0.0,0.0,0.0,0.0,0.0,-0.2810,-0.9817,-0.2723,0.6222,-0.7723,0.0059,0.1281
1068,0.0,0.0,0.0,0.0,0.0,0.0,-0.2170,-0.9528,-0.2824,0.6317,-0.7662,0.0237,0.1157
1069,0.0,0.0,0.0,0.0,0.0,0.0,-0.1995,-0.9203,-0.3345,0.6423,-0.7579,0.0384,0.1073
1070,0.0,0.0,0.0,0.0,0.0,0.0,-0.1721,-0.9131,-0.2891,0.6497,-0.7517,0.0500,0.1019
1071,0.0,0.0,0.0,0.0,0.0,0.0,-0.1608,-0.9122,-0.3023,0.6532,-0.7486,0.0584,0.0973
1072,0.0,0.0,0.0,0.0,0.0,0.0,-0.1144,-0.9099,-0.3173,0.6507,-0.7508,0.0598,0.0966
1073,0.0,0.0,0.0,0.0,0.0,0.0,-0.0993,-0.9056,-0.3026,0.6454,-0.7554,0.0567,0.0976
1074,0.0,0.0,0.0,0.0,0.0,0.0,-0.1359,-0.9244,-0.3042,0.6391,-0.7610,0.0521,0.0984
1075,0.0,0.0,0.0,0.0,0.0,0.0,-0.1213,-0.9245,-0.3154,0.6305,-0.7687,0.0454,0.0971
1076,0.0,0.0,0.0,0.0,0.0,0.0,-0.1315,-0.9691,-0.2847,0.6227,-0.7756,0.0366,0.0969
1077,0.0,0.0,0.0,0.0,0.0,0.0,-0.2238,-0.9892,-0.2444,0.6172,-0.7801,0.0314,0.0976
1078,0.0,0.0,0.0,0.0,0.0,0.0,-0.2482,-0.9847,-0.2605,0.6117,-0.7843,0.0284,0.0991
1079,0.0,0.0,0.0,0.0,0.0,0.0,-0.2380,-0.9575,-0.2751,0.6083,-0.7868,0.0274,0.1011
1080,0.0,0.0,0.0,0.0,0.0,0.0,-0.1970,-0.9130,-0.2945,0.6053,-0.7888,0.0261,0.1039
1081,0.0,0.0,0.0,0.0,0.0,0.0,-0.1648,-0.8981,-0.3237,0.6005,-0.7921,0.0228,0.1073
1082,0.0,0.0,0.0,0.0,0.0,0.0,-0.1780,-0.8840,-0.3476,0.5942,-0.7965,0.0193,0.1103
1083,0.0,0.0,0.0,0.0,0.0,0.0,-0.1858,-0.8922,-0.3696,0.5873,-0.8013,0.0150,0.1129
1084,0.0,0.0,0.0,0.0,0.0,0.0,-0.1624,-0.8753,-0.3900,0.5831,-0.8041,0.0087,0.1158
1085,0.0,0.0,0.0,0.0,0.0,0.0,-0.1825,-0.8480,-0.4369,0.5793,-0.8063,0.0005,0.1199
1086,0.0,0.0,0.0,0.0,0.0,0.0,-0.1805,-0.9111,-0.3671,0.5770,-0.8069,-0.0103,0.1256
1087,0.0,0.0,0.0,0.0,0.0,0.0,-0.1990,-0.9242,-0.3179,0.5793,-0.8042,-0.0196,0.1314
1088,0.0,0.0,0.0,0.0,0.0,0.0,-0.2302,-0.9469,-0.3131,0.5836,-0.8000,-0.0268,0.1369
1089,0.0,0.0,0.0,0.0,0.0,0.0,-0.2115,-1.0645,-0.2789,0.5881,-0.7951,-0.0321,0.1444
1090,0.0,0.0,0.0,0.0,0.0,0.0,-0.2443,-1.0090,-0.2483,0.5914,-0.7911,-0.0331,0.1528
1091,0.0,0.0,0.0,0.0,0.0,0.0,-0.2522,-0.9075,-0.3054,0.5926,-0.7892,-0.0318,0.1581
1092,0.0,0.0,0.0,0.0,0.0,0.0,-0.2434,-0.9245,-0.2834,0.5961,-0.7863,-0.0286,0.1602
1093,0.0,0.0,0.0,0.0,0.0,0.0,-0.2200,-0.9498,-0.3087,0.6013,-0.7822,-0.0256,0.1610
1094,0.0,0.0,0.0,0.0,0.0,0.0,-0.1765,-0.9209,-0.3384,0.6044,-0.7799,-0.0238,0.1607
1095,0.0,0.0,0.0,0.0,0.0,0.0,-0.1809,-0.8995,-0.3408,0.6062,-0.7790,-0.0224,0.1586
1096,0.0,0.0,0.0,0.0,0.0,0.0,-0.1882,-0.9359,-0.3111,0.6082,-0.7784,-0.0210,0.1544
1097,0.0,0.0,0.0,0.0,0.0,0.0,-0.2165,-1.0159,-0.2746,0.6138,-0.7752,-0.0174,0.1485
1098,0.0,0.0,0.0,0.0,0.0,0.0,-0.1568,-1.0530,-0.2598,0.6218,-0.7699,-0.0136,0.1427
1099,0.0,0.0,0.0,0.0,0.0,0.0,-0.1715,-0.9510,-0.2862,0.6310,-0.7634,-0.0073,0.1379
1100,0.0,0.0,0.0,0.0,0.0,0.0,-0.2107,-0.8406,-0.2697,0.6358,-0.7602,-0.0015,0.1337
1101,0.0,0.0,0.0,0.0,0.0,0.0,-0.1511,-0.7913,-0.2565,0.6387,-0.7588,0.0002,0.1273
1102,0.0,0.0,0.0,0.0,0.0,0.0,-0.1194,-0.7380,-0.3052,0.6360,-0.7622,-0.0018,0.1208
1103,0.0,0.0,0.0,0.0,0.0,0.0,-0.1487,-0.7869,-0.2774,0.6340,-0.7652,-0.0036,0.1117
1104,0.0,0.0,0.0,0.0,0.0,0.0,-0.3524,-0.8275,-0.2237,0.6383,-0.7637,0.0035,0.0963
1105,0.0,0.0,0.0,0.0,0.0,0.0,-0.2564,-0.9070,-0.0914,0.6508,-0.7558,0.0138,0.0710
1106,0.0,0.0,0.0,0.0,0.0,0.0,0.0115,-1.2406,-0.2449,0.6612,-0.7483,0.0229,0.0486
1107,0.0,0.0,0.0,0.0,0.0,0.0,-0.0810,-1.0572,-0.2290,0.6678,-0.7428,0.0352,0.0329
1108,0.0,0.0,0.0,0.0,0.0,0.0,-0.0219,-0.9549,-0.2211,0.6709,-0.7401,0.0427,0.0189
1109,0.0,0.0,0.0,0.0,0.0,0.0,-0.0111,-1.0433,-0.2313,0.6723,-0.7384,0.0515,0.0094
1110,0.0,0.0,0.0,0.0,0.0,0.0,0.0031,-1.0274,-0.2142,0.6731,-0.7372,0.0597,0.0036
1111,0.0,0.0,0.0,0.0,0.0,0.0,-0.0282,-1.0083,-0.2060,0.6727,-0.7369,0.0668,0.0003
1112,0.0,0.0,0.0,0.0,0.0,0.0,-0.0224,-1.0117,-0.2035,0.6720,-0.7372,0.0711,-0.0016
1113,0.0,0.0,0.0,0.0,0.0,0.0,-0.0174,-1.0273,-0.1860,0.6733,-0.7358,0.0727,-0.0024
1114,0.0,0.0,0.0,0.0,0.0,0.0,-0.0209,-1.0054,-0.1991,0.6746,-0.7344,0.0738,-0.0035
1115,0.0,0.0,0.0,0.0,0.0,0.0,-0.0322,-0.9728,-0.2128,0.6755,-0.7335,0.0749,-0.0038
1116,0.0,0.0,0.0,0.0,0.0,0.0,-0.0747,-0.9644,-0.2017,0.6763,-0.7326,0.0769,-0.0033
1117,0.0,0.0,0.0,0.0,0.0,0.0,-0.0693,-0.9980,-0.1822,0.6772,-0.7316,0.0780,-0.0018
1118,0.0,0.0,0.0,0.0,0.0,0.0,-0.0399,-1.0087,-0.1709,0.6790,-0.7301,0.0773,0.0005
1119,0.0,0.0,0.0,0.0,0.0,0.0,-0.0497,-0.9752,-0.1787,0.6809,-0.7285,0.0752,0.0047
1120,0.0,0.0,0.0,0.0,0.0,0.0,-0.1128,-0.9264,-0.2047,0.6800,-0.7295,0.0731,0.0102
1121,0.0,0.0,0.0,0.0,0.0,0.0,-0.1280,-0.9225,-0.2345,0.6750,-0.7347,0.0651,0.0199
1122,0.0,0.0,0.0,0.0,0.0,0.0,-0.1583,-0.9248,-0.2306,0.6685,-0.7411,0.0534,0.0321
1123,0.0,0.0,0.0,0.0,0.0,0.0,-0.1749,-0.9311,-0.2121,0.6617,-0.7473,0.0422,0.0442
1124,0.0,0.0,0.0,0.0,0.0,0.0,-0.1651,-0.9301,-0.1985,0.6569,-0.7514,0.0339,0.0526
1125,0.0,0.0,0.0,0.0,0.0,0.0,-0.1539,-0.8967,-0.2160,0.6558,-0.7523,0.0284,0.0564
1126,0.0,0.0,0.0,0.0,0.0,0.0,-0.1588,-0.9122,-0.2121,0.6557,-0.7524,0.0255,0.0571
1127,0.0,0.0,0.0,0.0,0.0,0.0,-0.1367,-0.9681,-0.1906,0.6560,-0.7522,0.0239,0.0572
1128,0.0,0.0,0.0,0.0,0.0,0.0,-0.1333,-0.9958,-0.1808,0.6573,-0.7510,0.0233,0.0577
1129,0.0,0.0,0.0,0.0,0.0,0.0,-0.1617,-0.9408,-0.2116,0.6578,-0.7505,0.0246,0.0579
1130,0.0,0.0,0.0,0.0,0.0,0.0,-0.1304,-0.9317,-0.2228,0.6576,-0.7508,0.0252,0.0574
1131,0.0,0.0,0.0,0.0,0.0,0.0,-0.1202,-0.9623,-0.2271,0.6569,-0.7514,0.0260,0.0555
1132,0.0,0.0,0.0,0.0,0.0,0.0,-0.1451,-0.9802,-0.2238,0.6550,-0.7532,0.0285,0.0533
1133,0.0,0.0,0.0,0.0,0.0,0.0,-0.1495,-0.9797,-0.2130,0.6528,-0.7551,0.0313,0.0520
1134,0.0,0.0,0.0,0.0,0.0,0.0,-0.1387,-0.9817,-0.2101,0.6527,-0.7552,0.0340,0.0511
1135,0.0,0.0,0.0,0.0,0.0,0.0,-0.1294,-0.9754,-0.2276,0.6534,-0.7544,0.0382,0.0494
1136,0.0,0.0,0.0,0.0,0.0,0.0,-0.1510,-0.9588,-0.2457,0.6535,-0.7542,0.0438,0.0470
1137,0.0,0.0,0.0,0.0,0.0,0.0,-0.1666,-0.9869,-0.2233,0.6533,-0.7542,0.0516,0.0423
1138,0.0,0.0,0.0,0.0,0.0,0.0,-0.1319,-0.9628,-0.2564,0.6507,-0.7562,0.0576,0.0385
1139,0.0,0.0,0.0,0.0,0.0,0.0,-0.1500,-0.9783,-0.2399,0.6482,-0.7579,0.0653,0.0347
1140,0.0,0.0,0.0,0.0,0.0,0.0,-0.1055,-0.9867,-0.2749,0.6462,-0.7592,0.0707,0.0319
1141,0.0,0.0,0.0,0.0,0.0,0.0,-0.1168,-0.9614,-0.2622,0.6458,-0.7592,0.0748,0.0315
1142,0.0,0.0,0.0,0.0,0.0,0.0,-0.1368,-0.9516,-0.2715,0.6459,-0.7587,0.0784,0.0320
1143,0.0,0.0,0.0,0.0,0.0,0.0,-0.1251,-0.9429,-0.2832,0.6460,-0.7583,0.0805,0.0332
1144,0.0,0.0,0.0,0.0,0.0,0.0,-0.1261,-0.9521,-0.2832,0.6457,-0.7585,0.0817,0.0345
1145,0.0,0.0,0.0,0.0,0.0,0.0,-0.1408,-0.9540,-0.2891,0.6443,-0.7594,0.0833,0.0360
1146,0.0,0.0,0.0,0.0,0.0,0.0,-0.1383,-0.9414,-0.2837,0.6417,-0.7614,0.0837,0.0372
1147,0.0,0.0,0.0,0.0,0.0,0.0,-0.1315,-0.9356,-0.2798,0.6392,-0.7636,0.0825,0.0389
1148,0.0,0.0,0.0,0.0,0.0,0.0,-0.1354,-0.9501,-0.2895,0.6381,-0.7647,0.0806,0.0406
1149,0.0,0.0,0.0,0.0,0.0,0.0,-0.1300,-0.9424,-0.2788,0.6381,-0.7649,0.0771,0.0426
1150,0.0,0.0,0.0,0.0,0.0,0.0,-0.1373,-0.9395,-0.2779,0.6385,-0.7649,0.0713,0.0473
1151,0.0,0.0,0.0,0.0,0.0,0.0,-0.1545,-0.9360,-0.2891,0.6375,-0.7659,0.0668,0.0509
1152,0.0,0.0,0.0,0.0,0.0,0.0,-0.1589,-0.9408,-0.3003,0.6360,-0.7673,0.0616,0.0539
1153,0.0,0.0,0.0,0.0,0.0,0.0,-0.1632,-0.9423,-0.2891,0.6346,-0.7687,0.0562,0.0568
1154,0.0,0.0,0.0,0.0,0.0,0.0,-0.1520,-0.9511,-0.2784,0.6338,-0.7695,0.0518,0.0591
1155,0.0,0.0,0.0,0.0,0.0,0.0,-0.1618,-0.9399,-0.2896,0.6326,-0.7706,0.0492,0.0602
1156,0.0,0.0,0.0,0.0,0.0,0.0,-0.1579,-0.9539,-0.2910,0.6307,-0.7722,0.0467,0.0613
1157,0.0,0.0,0.0,0.0,0.0,0.0,-0.1559,-0.9695,-0.2789,0.6301,-0.7727,0.0445,0.0628
1158,0.0,0.0,0.0,0.0,0.0,0.0,-0.1593,-0.9675,-0.2794,0.6301,-0.7727,0.0433,0.0641
1159,0.0,0.0,0.0,0.0,0.0,0.0,-0.1466,-0.9491,-0.2891,0.6300,-0.7727,0.0422,0.0652
1160,0.0,0.0,0.0,0.0,0.0,0.0,-0.1339,-0.9414,-0.3003,0.6295,-0.7731,0.0406,0.0666
1161,0.0,0.0,0.0,0.0,0.0,0.0,-0.1408,-0.9492,-0.3022,0.6286,-0.7738,0.0389,0.0681
1162,0.0,0.0,0.0,0.0,0.0,0.0,-0.1432,-0.9423,-0.2974,0.6256,-0.7761,0.0371,0.0699
1163,0.0,0.0,0.0,0.0,0.0,0.0,-0.1403,-0.9516,-0.2910,0.6236,-0.7777,0.0344,0.0721
1164,0.0,0.0,0.0,0.0,0.0,0.0,-0.1496,-0.9491,-0.2901,0.6212,-0.7794,0.0325,0.0741
1165,0.0,0.0,0.0,0.0,0.0,0.0,-0.1608,-0.9253,-0.2872,0.6198,-0.7805,0.0313,0.0756
1166,0.0,0.0,0.0,0.0,0.0,0.0,-0.1471,-0.9380,-0.2871,0.6190,-0.7810,0.0295,0.0772
1167,0.0,0.0,0.0,0.0,0.0,0.0,-0.1525,-0.9443,-0.2979,0.6183,-0.7815,0.0283,0.0782
1168,0.0,0.0,0.0,0.0,0.0,0.0,-0.1589,-0.9224,-0.3037,0.6172,-0.7824,0.0269,0.0790
1169,0.0,0.0,0.0,0.0,0.0,0.0,-0.1530,-0.9209,-0.3188,0.6149,-0.7841,0.0254,0.0798
1170,0.0,0.0,0.0,0.0,0.0,0.0,-0.1437,-0.9210,-0.3227,0.6112,-0.7871,0.0240,0.0801
1171,0.0,0.0,0.0,0.0,0.0,0.0,-0.1515,-0.9370,-0.3042,0.6077,-0.7897,0.0230,0.0803
1172,0.0,0.0,0.0,0.0,0.0,0.0,-0.1686,-0.9301,-0.3028,0.6063,-0.7908,0.0222,0.0808
1173,0.0,0.0,0.0,0.0,0.0,0.0,-0.1755,-0.9335,-0.3038,0.6064,-0.7907,0.0214,0.0813
1174,0.0,0.0,0.0,0.0,0.0,0.0,-0.1721,-0.9442,-0.3213,0.6069,-0.7902,0.0207,0.0821
1175,0.0,0.0,0.0,0.0,0.0,0.0,-0.1618,-0.9374,-0.3286,0.6067,-0.7903,0.0196,0.0831
1176,0.0,0.0,0.0,0.0,0.0,0.0,-0.1628,-0.9345,-0.3296,0.6061,-0.7907,0.0185,0.0843
1177,0.0,0.0,0.0,0.0,0.0,0.0,-0.1584,-0.9374,-0.3364,0.6047,-0.7916,0.0167,0.0861
1178,0.0,0.0,0.0,0.0,0.0,0.0,-0.1574,-0.9399,-0.3296,0.6027,-0.7929,0.0144,0.0886
1179,0.0,0.0,0.0,0.0,0.0,0.0,-0.1726,-0.9189,-0.3174,0.6019,-0.7933,0.0128,0.0909
1180,0.0,0.0,0.0,0.0,0.0,0.0,-0.1765,-0.9136,-0.3237,0.6015,-0.7934,0.0116,0.0929
1181,0.0,0.0,0.0,0.0,0.0,0.0,-0.1648,-0.9195,-0.3281,0.6013,-0.7933,0.0100,0.0950
1182,0.0,0.0,0.0,0.0,0.0,0.0,-0.1609,-0.9190,-0.3364,0.6010,-0.7933,0.0081,0.0967
1183,0.0,0.0,0.0,0.0,0.0,0.0,-0.1648,-0.9175,-0.3354,0.6000,-0.7939,0.0062,0.0984
1184,0.0,0.0,0.0,0.0,0.0,0.0,-0.1697,-0.9063,-0.3315,0.5990,-0.7945,0.0046,0.1002
1185,0.0,0.0,0.0,0.0,0.0,0.0,-0.1623,-0.9117,-0.3413,0.5980,-0.7950,0.0027,0.1019
1186,0.0,0.0,0.0,0.0,0.0,0.0,-0.1662,-0.9122,-0.3354,0.5972,-0.7954,0.0007,0.1034
1187,0.0,0.0,0.0,0.0,0.0,0.0,-0.1692,-0.9083,-0.3340,0.5964,-0.7958,-0.0012,0.1050
1188,0.0,0.0,0.0,0.0,0.0,0.0,-0.1638,-0.9088,-0.3408,0.5952,-0.7965,-0.0033,0.1064
1189,0.0,0.0,0.0,0.0,0.0,0.0,-0.1633,-0.9131,-0.3344,0.5943,-0.7969,-0.0059,0.1080
1190,0.0,0.0,0.0,0.0,0.0,0.0,-0.1750,-0.9243,-0.3272,0.5944,-0.7967,-0.0080,0.1095
1191,0.0,0.0,0.0,0.0,0.0,0.0,-0.1804,-0.9378,-0.3281,0.5940,-0.7967,-0.0097,0.1111
1192,0.0,0.0,0.0,0.0,0.0,0.0,-0.1838,-0.9276,-0.3267,0.5937,-0.7966,-0.0109,0.1128
1193,0.0,0.0,0.0,0.0,0.0,0.0,-0.1814,-0.9141,-0.3316,0.5937,-0.7965,-0.0119,0.1143
1194,0.0,0.0,0.0,0.0,0.0,0.0,-0.0431,-0.9053,-0.3484,0.5932,-0.7965,-0.0160,0.1157
1195,0.0,0.0,0.0,0.0,0.0,0.0,-0.1555,-0.8986,-0.3603,0.5922,-0.7970,-0.0175,0.1172
1196,0.0,0.0,0.0,0.0,0.0,0.0,-0.1575,-0.8976,-0.3627,0.5907,-0.7979,-0.0192,0.1188
1197,0.0,0.0,0.0,0.0,0.0,0.0,-0.1726,-0.8927,-0.3598,0.5893,-0.7987,-0.0205,0.1203
1198,0.0,0.0,0.0,0.0,0.0,0.0,-0.1722,-0.8932,-0.3657,0.5877,-0.7996,-0.0218,0.1215
1199,0.0,0.0,0.0,0.0,0.0,0.0,-0.1619,-0.8952,-0.3691,0.5863,-0.8004,-0.0233,0.1225
1200,0.0,0.0,0.0,0.0,0.0,0.0,-0.1536,-0.9064,-0.3778,0.5852,-0.8012,-0.0249,0.1228
1201,0.0,0.0,0.0,0.0,0.0,0.0,-0.1555,-0.9185,-0.3725,0.5839,-0.8020,-0.0266,0.1231
1202,0.0,0.0,0.0,0.0,0.0,0.0,-0.1721,-0.9175,-0.3613,0.5831,-0.8025,-0.0278,0.1231
1203,0.0,0.0,0.0,0.0,0.0,0.0,-0.1716,-0.9175,-0.3637,0.5827,-0.8028,-0.0290,0.1230
1204,0.0,0.0,0.0,0.0,0.0,0.0,-0.1682,-0.9190,-0.3637,0.5821,-0.8031,-0.0303,0.1232
1205,0.0,0.0,0.0,0.0,0.0,0.0,-0.1780,-0.9160,-0.3608,0.5820,-0.8032,-0.0310,0.1234
1206,0.0,0.0,0.0,0.0,0.0,0.0,-0.1795,-0.9233,-0.3627,0.5822,-0.8029,-0.0316,0.1239
1207,0.0,0.0,0.0,0.0,0.0,0.0,-0.1741,-0.9204,-0.3696,0.5821,-0.8029,-0.0324,0.1247
1208,0.0,0.0,0.0,0.0,0.0,0.0,-0.1648,-0.9020,-0.3744,0.5817,-0.8029,-0.0334,0.1257
1209,0.0,0.0,0.0,0.0,0.0,0.0,-0.1570,-0.8952,-0.3783,0.5812,-0.8031,-0.0345,0.1265
1210,0.0,0.0,0.0,0.0,0.0,0.0,-0.1492,-0.9015,-0.3807,0.5809,-0.8032,-0.0355,0.1269
1211,0.0,0.0,0.0,0.0,0.0,0.0,-0.1555,-0.9049,-0.3768,0.5807,-0.8033,-0.0365,0.1271
1212,0.0,0.0,0.0,0.0,0.0,0.0,-0.1653,-0.9112,-0.3764,0.5806,-0.8034,-0.0370,0.1272
1213,0.0,0.0,0.0,0.0,0.0,0.0,-0.1643,-0.9141,-0.3817,0.5804,-0.8035,-0.0373,0.1271
1214,0.0,0.0,0.0,0.0,0.0,0.0,-0.1648,-0.9131,-0.3773,0.5803,-0.8035,-0.0377,0.1269
1215,0.0,0.0,0.0,0.0,0.0,0.0,-0.1643,-0.9141,-0.3710,0.5803,-0.8036,-0.0380,0.1268
1216,0.0,0.0,0.0,0.0,0.0,0.0,-0.1585,-0.9238,-0.3710,0.5806,-0.8033,-0.0381,0.1268
1217,0.0,0.0,0.0,0.0,0.0,0.0,-0.1628,-0.9311,-0.3647,0.5813,-0.8028,-0.0381,0.1268
1218,0.0,0.0,0.0,0.0,0.0,0.0,-0.1702,-0.9335,-0.3622,0.5823,-0.8021,-0.0378,0.1269
1219,0.0,0.0,0.0,0.0,0.0,0.0,-0.1692,-0.9287,-0.3632,0.5833,-0.8013,-0.0372,0.1274
1220,0.0,0.0,0.0,0.0,0.0,0.0,-0.1628,-0.9199,-0.3656,0.5844,-0.8005,-0.0367,0.1278
1221,0.0,0.0,0.0,0.0,0.0,0.0,-0.1614,-0.9127,-0.3647,0.5854,-0.7997,-0.0361,0.1282
1222,0.0,0.0,0.0,0.0,0.0,0.0,-0.1682,-0.9005,-0.3691,0.5861,-0.7991,-0.0353,0.1288
1223,0.0,0.0,0.0,0.0,0.0,0.0,-0.1736,-0.8922,-0.3710,0.5866,-0.7988,-0.0344,0.1294
1224,0.0,0.0,0.0,0.0,0.0,0.0,-0.1702,-0.8913,-0.3735,0.5866,-0.7986,-0.0337,0.1300
1225,0.0,0.0,0.0,0.0,0.0,0.0,-0.1678,-0.8893,-0.3705,0.5865,-0.7986,-0.0332,0.1307
1226,0.0,0.0,0.0,0.0,0.0,0.0,-0.1653,-0.8927,-0.3730,0.5864,-0.7987,-0.0329,0.1309
1227,0.0,0.0,0.0,0.0,0.0,0.0,-0.1707,-0.8864,-0.3754,0.5860,-0.7990,-0.0326,0.1309
1228,0.0,0.0,0.0,0.0,0.0,0.0,-0.1731,-0.8893,-0.3710,0.5857,-0.7993,-0.0324,0.1309
1229,0.0,0.0,0.0,0.0,0.0,0.0,-0.1707,-0.9029,-0.3691,0.5855,-0.7995,-0.0324,0.1306
1230,0.0,0.0,0.0,0.0,0.0,0.0,-0.1746,-0.9073,-0.3681,0.5855,-0.7995,-0.0322,0.1305
1231,0.0,0.0,0.0,0.0,0.0,0.0,-0.1780,-0.9087,-0.3691,0.5858,-0.7993,-0.0320,0.1303
1232,0.0,0.0,0.0,0.0,0.0,0.0,-0.1800,-0.9179,-0.3710,0.5858,-0.7993,-0.0317,0.1302
