,Position_X,Position_Y,Position_Z,Velocity_X,Velocity_Y,Velocity_Z,Acceleration_X,Acceleration_Y,Acceleration_Z,Quaterion_0,Quaterion_1,Quaterion_2,Quaterion_3
207,0.0,0.0,0.0,0.0,0.0,0.0,0.4776,1.6162,1.3307,-0.4261,-0.6579,0.5778,0.2278
208,0.0,0.0,0.0,0.0,0.0,0.0,-0.0942,0.7263,-0.2590,-0.4256,-0.6659,0.5752,0.2111
209,0.0,0.0,0.0,0.0,0.0,0.0,-0.1807,0.7900,-0.2398,-0.4158,-0.6674,0.5786,0.2169
210,0.0,0.0,0.0,0.0,0.0,0.0,-0.1334,0.9345,-0.0526,-0.4119,-0.6605,0.5852,0.2272
211,0.0,0.0,0.0,0.0,0.0,0.0,-0.0182,0.9093,-0.1558,-0.4111,-0.6537,0.5907,0.2341
212,0.0,0.0,0.0,0.0,0.0,0.0,-0.0951,1.0069,-0.1127,-0.4091,-0.6465,0.5972,0.2409
213,0.0,0.0,0.0,0.0,0.0,0.0,-0.1357,1.0825,-0.0635,-0.4071,-0.6395,0.6044,0.2450
214,0.0,0.0,0.0,0.0,0.0,0.0,-0.0861,1.1604,0.0439,-0.4122,-0.6328,0.6102,0.2393
215,0.0,0.0,0.0,0.0,0.0,0.0,0.1076,1.1132,0.0705,-0.4461,-0.6400,0.5933,0.1982
216,0.0,0.0,0.0,0.0,0.0,0.0,0.0467,0.7604,-0.6238,-0.4727,-0.6587,0.5601,0.1702
217,0.0,0.0,0.0,0.0,0.0,0.0,-0.1143,0.9307,-0.2146,-0.4716,-0.6554,0.5640,0.1730
218,0.0,0.0,0.0,0.0,0.0,0.0,-0.0512,0.9647,-0.1137,-0.4740,-0.6518,0.5667,0.1712
219,0.0,0.0,0.0,0.0,0.0,0.0,-0.0504,0.9518,-0.1659,-0.4767,-0.6490,0.5681,0.1694
220,0.0,0.0,0.0,0.0,0.0,0.0,-0.0702,0.9934,-0.1196,-0.4784,-0.6454,0.5712,0.1683
221,0.0,0.0,0.0,0.0,0.0,0.0,-0.0626,1.0004,-0.1166,-0.4802,-0.6419,0.5739,0.1675
222,0.0,0.0,0.0,0.0,0.0,0.0,-0.0563,0.9996,-0.1161,-0.4816,-0.6387,0.5764,0.1671
223,0.0,0.0,0.0,0.0,0.0,0.0,-0.0569,1.0078,-0.1067,-0.4828,-0.6356,0.5789,0.1666
224,0.0,0.0,0.0,0.0,0.0,0.0,-0.0573,1.0107,-0.1043,-0.4838,-0.6328,0.5811,0.1667
225,0.0,0.0,0.0,0.0,0.0,0.0,-0.0557,1.0018,-0.1039,-0.4848,-0.6303,0.5828,0.1674
226,0.0,0.0,0.0,0.0,0.0,0.0,-0.0483,0.9918,-0.1089,-0.4857,-0.6281,0.5841,0.1684
227,0.0,0.0,0.0,0.0,0.0,0.0,-0.0448,0.9796,-0.1164,-0.4865,-0.6262,0.5852,0.1694
228,0.0,0.0,0.0,0.0,0.0,0.0,-0.0470,0.9734,-0.1199,-0.4868,-0.6247,0.5863,0.1705
229,0.0,0.0,0.0,0.0,0.0,0.0,-0.0552,0.9766,-0.1174,-0.4872,-0.6232,0.5873,0.1715
230,0.0,0.0,0.0,0.0,0.0,0.0,-0.0682,0.9689,-0.1210,-0.4872,-0.6220,0.5883,0.1725
231,0.0,0.0,0.0,0.0,0.0,0.0,-0.0719,0.9623,-0.1265,-0.4867,-0.6210,0.5894,0.1736
232,0.0,0.0,0.0,0.0,0.0,0.0,-0.0730,0.9599,-0.1304,-0.4858,-0.6200,0.5908,0.1745
233,0.0,0.0,0.0,0.0,0.0,0.0,-0.0709,0.9633,-0.1318,-0.4846,-0.6191,0.5925,0.1755
234,0.0,0.0,0.0,0.0,0.0,0.0,-0.0572,0.9623,-0.1347,-0.4833,-0.6181,0.5944,0.1764
235,0.0,0.0,0.0,0.0,0.0,0.0,-0.0487,0.9678,-0.1331,-0.4820,-0.6168,0.5965,0.1771
236,0.0,0.0,0.0,0.0,0.0,0.0,-0.0474,0.9765,-0.1286,-0.4809,-0.6153,0.5988,0.1776
237,0.0,0.0,0.0,0.0,0.0,0.0,-0.0511,0.9941,-0.1186,-0.4800,-0.6136,0.6011,0.1781
238,0.0,0.0,0.0,0.0,0.0,0.0,-0.0547,1.0040,-0.1180,-0.4792,-0.6121,0.6031,0.1789
239,0.0,0.0,0.0,0.0,0.0,0.0,-0.0415,1.0026,-0.1214,-0.4784,-0.6106,0.6049,0.1798
240,0.0,0.0,0.0,0.0,0.0,0.0,-0.0275,0.9996,-0.1257,-0.4778,-0.6091,0.6066,0.1809
241,0.0,0.0,0.0,0.0,0.0,0.0,-0.0243,0.9947,-0.1278,-0.4775,-0.6075,0.6082,0.1818
242,0.0,0.0,0.0,0.0,0.0,0.0,-0.0295,0.9987,-0.1253,-0.4773,-0.6060,0.6095,0.1827
243,0.0,0.0,0.0,0.0,0.0,0.0,-0.0319,0.9993,-0.1253,-0.4772,-0.6047,0.6107,0.1835
244,0.0,0.0,0.0,0.0,0.0,0.0,0.0547,0.8558,-0.6131,-0.4558,-0.6061,0.6184,0.2062
245,0.0,0.0,0.0,0.0,0.0,0.0,0.6798,1.3013,0.2560,-0.3652,-0.5643,0.6633,0.3289
246,0.0,0.0,0.0,0.0,0.0,0.0,-0.2385,1.0240,0.7115,-0.3527,-0.5505,0.6762,0.3397
247,0.0,0.0,0.0,0.0,0.0,0.0,-0.0411,0.6445,-0.3151,-0.3486,-0.5517,0.6799,0.3345
248,0.0,0.0,0.0,0.0,0.0,0.0,-0.1105,0.9575,-0.0464,-0.3437,-0.5437,0.6840,0.3441
249,0.0,0.0,0.0,0.0,0.0,0.0,0.0080,0.9912,-0.0582,-0.3487,-0.5343,0.6877,0.3464
250,0.0,0.0,0.0,0.0,0.0,0.0,-0.0301,1.0455,-0.1114,-0.3534,-0.5281,0.6918,0.3430
251,0.0,0.0,0.0,0.0,0.0,0.0,-0.1096,1.0874,-0.0925,-0.3553,-0.5241,0.6940,0.3426
252,0.0,0.0,0.0,0.0,0.0,0.0,-0.0996,1.0550,-0.1100,-0.3533,-0.5214,0.6965,0.3440
253,0.0,0.0,0.0,0.0,0.0,0.0,-0.0697,1.0325,-0.0899,-0.3502,-0.5188,0.6996,0.3446
254,0.0,0.0,0.0,0.0,0.0,0.0,-0.0534,1.0205,-0.0550,-0.3511,-0.5174,0.7025,0.3397
255,0.0,0.0,0.0,0.0,0.0,0.0,-0.0081,0.9919,-0.0363,-0.3659,-0.5201,0.7011,0.3226
256,0.0,0.0,0.0,0.0,0.0,0.0,-0.0009,0.9504,-0.0836,-0.3949,-0.5280,0.6924,0.2930
257,0.0,0.0,0.0,0.0,0.0,0.0,-0.2142,0.8879,-0.2807,-0.4259,-0.5437,0.6729,0.2648
258,0.0,0.0,0.0,0.0,0.0,0.0,-0.1139,0.8786,-0.2820,-0.4218,-0.5470,0.6727,0.2652
259,0.0,0.0,0.0,0.0,0.0,0.0,0.1636,1.0653,-0.0867,-0.4236,-0.5396,0.6784,0.2630
260,0.0,0.0,0.0,0.0,0.0,0.0,-0.0760,1.0087,-0.1141,-0.4269,-0.5378,0.6789,0.2600
261,0.0,0.0,0.0,0.0,0.0,0.0,-0.0732,1.0055,-0.1054,-0.4264,-0.5356,0.6812,0.2595
262,0.0,0.0,0.0,0.0,0.0,0.0,-0.0257,1.0188,-0.1040,-0.4273,-0.5328,0.6829,0.2591
263,0.0,0.0,0.0,0.0,0.0,0.0,-0.0475,0.9998,-0.1161,-0.4279,-0.5309,0.6839,0.2596
264,0.0,0.0,0.0,0.0,0.0,0.0,-0.0425,0.9893,-0.1172,-0.4282,-0.5290,0.6849,0.2603
265,0.0,0.0,0.0,0.0,0.0,0.0,-0.0425,0.9889,-0.1191,-0.4286,-0.5274,0.6856,0.2610
266,0.0,0.0,0.0,0.0,0.0,0.0,-0.0514,0.9868,-0.1192,-0.4287,-0.5262,0.6862,0.2617
267,0.0,0.0,0.0,0.0,0.0,0.0,-0.0452,0.9816,-0.1198,-0.4287,-0.5250,0.6867,0.2626
268,0.0,0.0,0.0,0.0,0.0,0.0,-0.0455,0.9740,-0.1272,-0.4287,-0.5241,0.6871,0.2634
269,0.0,0.0,0.0,0.0,0.0,0.0,-0.0453,0.9667,-0.1307,-0.4284,-0.5233,0.6876,0.2641
270,0.0,0.0,0.0,0.0,0.0,0.0,-0.0426,0.9733,-0.1247,-0.4283,-0.5224,0.6882,0.2646
271,0.0,0.0,0.0,0.0,0.0,0.0,-0.0459,0.9778,-0.1232,-0.4283,-0.5216,0.6887,0.2652
272,0.0,0.0,0.0,0.0,0.0,0.0,-0.0496,0.9823,-0.1207,-0.4280,-0.5208,0.6892,0.2657
273,0.0,0.0,0.0,0.0,0.0,0.0,-0.0476,0.9847,-0.1217,-0.4278,-0.5200,0.6897,0.2662
274,0.0,0.0,0.0,0.0,0.0,0.0,-0.0458,0.9803,-0.1266,-0.4276,-0.5193,0.6902,0.2667
275,0.0,0.0,0.0,0.0,0.0,0.0,-0.0483,0.9780,-0.1271,-0.4274,-0.5185,0.6907,0.2670
276,0.0,0.0,0.0,0.0,0.0,0.0,-0.0537,0.9791,-0.1257,-0.4272,-0.5180,0.6912,0.2673
277,0.0,0.0,0.0,0.0,0.0,0.0,-0.0536,0.9816,-0.1237,-0.4269,-0.5174,0.6917,0.2676
278,0.0,0.0,0.0,0.0,0.0,0.0,-0.0517,0.9926,-0.1162,-0.4265,-0.5167,0.6923,0.2681
279,0.0,0.0,0.0,0.0,0.0,0.0,-0.0538,0.9492,-0.1480,-0.4241,-0.5164,0.6938,0.2685
280,0.0,0.0,0.0,0.0,0.0,0.0,0.2961,0.9680,0.5979,-0.3773,-0.4780,0.7465,0.2683
281,0.0,0.0,0.0,0.0,0.0,0.0,-0.1163,1.3788,0.9907,-0.3690,-0.4566,0.7644,0.2667
282,0.0,0.0,0.0,0.0,0.0,0.0,0.0418,0.6278,-0.5559,-0.3669,-0.4624,0.7636,0.2617
283,0.0,0.0,0.0,0.0,0.0,0.0,-0.0082,0.8799,-0.2277,-0.3616,-0.4608,0.7673,0.2611
284,0.0,0.0,0.0,0.0,0.0,0.0,0.0688,0.9531,-0.2220,-0.3626,-0.4568,0.7694,0.2606
285,0.0,0.0,0.0,0.0,0.0,0.0,0.0783,0.9765,-0.2950,-0.3631,-0.4535,0.7718,0.2583
286,0.0,0.0,0.0,0.0,0.0,0.0,-0.0287,1.0412,-0.2890,-0.3611,-0.4513,0.7746,0.2569
287,0.0,0.0,0.0,0.0,0.0,0.0,-0.0745,1.0314,-0.3000,-0.3572,-0.4498,0.7771,0.2572
288,0.0,0.0,0.0,0.0,0.0,0.0,-0.0090,0.9926,-0.2951,-0.3531,-0.4480,0.7795,0.2588
289,0.0,0.0,0.0,0.0,0.0,0.0,0.0395,0.9700,-0.2850,-0.3496,-0.4463,0.7810,0.2618
290,0.0,0.0,0.0,0.0,0.0,0.0,0.0305,0.9756,-0.2762,-0.3458,-0.4451,0.7814,0.2677
291,0.0,0.0,0.0,0.0,0.0,0.0,0.0063,0.9804,-0.2456,-0.3404,-0.4433,0.7812,0.2783
292,0.0,0.0,0.0,0.0,0.0,0.0,-0.0511,0.9732,-0.1807,-0.3304,-0.4400,0.7817,0.2936
293,0.0,0.0,0.0,0.0,0.0,0.0,-0.1300,0.9600,-0.0625,-0.3231,-0.4361,0.7836,0.3023
294,0.0,0.0,0.0,0.0,0.0,0.0,0.0699,1.1282,-0.2543,-0.3493,-0.4497,0.7657,0.2991
295,0.0,0.0,0.0,0.0,0.0,0.0,0.1545,0.8481,-0.6484,-0.3751,-0.4804,0.7262,0.3181
296,0.0,0.0,0.0,0.0,0.0,0.0,-0.1784,0.7071,-0.2314,-0.3730,-0.4832,0.7243,0.3205
297,0.0,0.0,0.0,0.0,0.0,0.0,-0.0346,1.0189,-0.1498,-0.3736,-0.4801,0.7269,0.3187
298,0.0,0.0,0.0,0.0,0.0,0.0,-0.0302,0.9554,-0.1897,-0.3746,-0.4793,0.7268,0.3190
299,0.0,0.0,0.0,0.0,0.0,0.0,-0.0476,0.9722,-0.1593,-0.3740,-0.4768,0.7292,0.3178
300,0.0,0.0,0.0,0.0,0.0,0.0,-0.0305,0.9857,-0.1615,-0.3740,-0.4743,0.7313,0.3169
301,0.0,0.0,0.0,0.0,0.0,0.0,-0.0284,0.9772,-0.1567,-0.3738,-0.4715,0.7334,0.3163
302,0.0,0.0,0.0,0.0,0.0,0.0,-0.0233,0.9818,-0.1494,-0.3739,-0.4683,0.7358,0.3154
303,0.0,0.0,0.0,0.0,0.0,0.0,-0.0299,0.9884,-0.1464,-0.3743,-0.4653,0.7380,0.3143
304,0.0,0.0,0.0,0.0,0.0,0.0,-0.0473,0.9945,-0.1483,-0.3744,-0.4626,0.7400,0.3134
305,0.0,0.0,0.0,0.0,0.0,0.0,-0.0516,0.9962,-0.1531,-0.3745,-0.4603,0.7417,0.3126
306,0.0,0.0,0.0,0.0,0.0,0.0,-0.0539,0.9871,-0.1591,-0.3745,-0.4585,0.7432,0.3118
307,0.0,0.0,0.0,0.0,0.0,0.0,-0.0503,0.9788,-0.1675,-0.3743,-0.4570,0.7446,0.3109
308,0.0,0.0,0.0,0.0,0.0,0.0,-0.0480,0.9758,-0.1685,-0.3741,-0.4556,0.7459,0.3101
309,0.0,0.0,0.0,0.0,0.0,0.0,-0.0472,0.9713,-0.1686,-0.3738,-0.4544,0.7471,0.3092
310,0.0,0.0,0.0,0.0,0.0,0.0,-0.0509,0.9763,-0.1675,-0.3736,-0.4534,0.7482,0.3083
311,0.0,0.0,0.0,0.0,0.0,0.0,-0.0515,0.9871,-0.1639,-0.3734,-0.4524,0.7493,0.3073
312,0.0,0.0,0.0,0.0,0.0,0.0,-0.0494,0.9914,-0.1639,-0.3734,-0.4514,0.7503,0.3064
313,0.0,0.0,0.0,0.0,0.0,0.0,-0.0401,0.9901,-0.1658,-0.3734,-0.4504,0.7513,0.3056
314,0.0,0.0,0.0,0.0,0.0,0.0,-0.0366,0.9928,-0.1643,-0.3737,-0.4491,0.7522,0.3049
315,0.0,0.0,0.0,0.0,0.0,0.0,-0.0457,0.9975,-0.1599,-0.3741,-0.4478,0.7530,0.3042
316,0.0,0.0,0.0,0.0,0.0,0.0,-0.0517,0.9934,-0.1634,-0.3745,-0.4467,0.7536,0.3038
317,0.0,0.0,0.0,0.0,0.0,0.0,-0.0489,0.9899,-0.1654,-0.3749,-0.4456,0.7541,0.3037
318,0.0,0.0,0.0,0.0,0.0,0.0,-0.0447,0.9854,-0.1688,-0.3752,-0.4445,0.7546,0.3037
319,0.0,0.0,0.0,0.0,0.0,0.0,-0.0471,0.9865,-0.1683,-0.3755,-0.4435,0.7549,0.3038
320,0.0,0.0,0.0,0.0,0.0,0.0,-0.0530,0.9848,-0.1698,-0.3758,-0.4427,0.7552,0.3042
321,0.0,0.0,0.0,0.0,0.0,0.0,-0.0532,0.9795,-0.1767,-0.3756,-0.4422,0.7553,0.3047
322,0.0,0.0,0.0,0.0,0.0,0.0,-0.0477,0.9716,-0.1836,-0.3754,-0.4417,0.7555,0.3053
323,0.0,0.0,0.0,0.0,0.0,0.0,-0.0452,0.9614,-0.1906,-0.3750,-0.4414,0.7558,0.3057
324,0.0,0.0,0.0,0.0,0.0,0.0,-0.0405,0.9568,-0.1945,-0.3744,-0.4411,0.7562,0.3058
325,0.0,0.0,0.0,0.0,0.0,0.0,-0.0323,0.9522,-0.1980,-0.3737,-0.4406,0.7568,0.3058
326,0.0,0.0,0.0,0.0,0.0,0.0,-0.0365,0.9466,-0.2064,-0.3728,-0.4402,0.7576,0.3054
327,0.0,0.0,0.0,0.0,0.0,0.0,-0.0302,0.9435,-0.2074,-0.3718,-0.4397,0.7586,0.3047
328,0.0,0.0,0.0,0.0,0.0,0.0,-0.0171,0.9405,-0.2078,-0.3709,-0.4388,0.7600,0.3038
329,0.0,0.0,0.0,0.0,0.0,0.0,-0.0197,0.9508,-0.2033,-0.3702,-0.4375,0.7616,0.3025
330,0.0,0.0,0.0,0.0,0.0,0.0,-0.0279,0.9652,-0.1949,-0.3696,-0.4362,0.7632,0.3010
331,0.0,0.0,0.0,0.0,0.0,0.0,-0.0285,0.9759,-0.1908,-0.3690,-0.4348,0.7648,0.2997
332,0.0,0.0,0.0,0.0,0.0,0.0,-0.0238,0.9825,-0.1868,-0.3685,-0.4333,0.7664,0.2985
333,0.0,0.0,0.0,0.0,0.0,0.0,-0.0260,0.9908,-0.1833,-0.3682,-0.4318,0.7678,0.2974
334,0.0,0.0,0.0,0.0,0.0,0.0,-0.0209,0.9955,-0.1817,-0.3679,-0.4303,0.7691,0.2966
335,0.0,0.0,0.0,0.0,0.0,0.0,-0.0082,0.9960,-0.1822,-0.3680,-0.4287,0.7702,0.2959
336,0.0,0.0,0.0,0.0,0.0,0.0,-0.0078,0.9931,-0.1876,-0.3683,-0.4273,0.7711,0.2953
337,0.0,0.0,0.0,0.0,0.0,0.0,-0.0125,0.9846,-0.1926,-0.3686,-0.4260,0.7719,0.2948
338,0.0,0.0,0.0,0.0,0.0,0.0,-0.0233,0.9850,-0.1916,-0.3689,-0.4250,0.7724,0.2943
339,0.0,0.0,0.0,0.0,0.0,0.0,-0.0299,0.9896,-0.1901,-0.3689,-0.4244,0.7728,0.2942
340,0.0,0.0,0.0,0.0,0.0,0.0,-0.0210,0.9816,-0.2009,-0.3688,-0.4238,0.7730,0.2945
341,0.0,0.0,0.0,0.0,0.0,0.0,-0.0090,0.9634,-0.2187,-0.3686,-0.4233,0.7733,0.2948
342,0.0,0.0,0.0,0.0,0.0,0.0,-0.0039,0.9565,-0.2299,-0.3682,-0.4229,0.7737,0.2949
343,0.0,0.0,0.0,0.0,0.0,0.0,-0.0111,0.9596,-0.2212,-0.3677,-0.4224,0.7743,0.2947
344,0.0,0.0,0.0,0.0,0.0,0.0,-0.0197,0.9757,-0.2005,-0.3671,-0.4218,0.7750,0.2945
345,0.0,0.0,0.0,0.0,0.0,0.0,-0.0251,1.0000,-0.1812,-0.3666,-0.4210,0.7755,0.2948
346,0.0,0.0,0.0,0.0,0.0,0.0,-0.0175,1.0084,-0.1723,-0.3662,-0.4201,0.7759,0.2956
347,0.0,0.0,0.0,0.0,0.0,0.0,-0.0070,1.0012,-0.1753,-0.3660,-0.4191,0.7760,0.2969
348,0.0,0.0,0.0,0.0,0.0,0.0,0.0039,0.9791,-0.1936,-0.3659,-0.4183,0.7760,0.2983
349,0.0,0.0,0.0,0.0,0.0,0.0,0.0061,0.9607,-0.2094,-0.3658,-0.4176,0.7759,0.2995
350,0.0,0.0,0.0,0.0,0.0,0.0,0.0059,0.9553,-0.2114,-0.3656,-0.4168,0.7761,0.3004
351,0.0,0.0,0.0,0.0,0.0,0.0,0.0049,0.9548,-0.2061,-0.3657,-0.4158,0.7764,0.3011
352,0.0,0.0,0.0,0.0,0.0,0.0,0.0027,0.9485,-0.2038,-0.3657,-0.4146,0.7768,0.3016
353,0.0,0.0,0.0,0.0,0.0,0.0,0.0028,0.9382,-0.2054,-0.3656,-0.4133,0.7775,0.3016
354,0.0,0.0,0.0,0.0,0.0,0.0,-0.0003,0.9336,-0.2108,-0.3652,-0.4119,0.7786,0.3013
355,0.0,0.0,0.0,0.0,0.0,0.0,0.0026,0.9329,-0.2069,-0.3647,-0.4101,0.7801,0.3004
356,0.0,0.0,0.0,0.0,0.0,0.0,-0.0077,0.9460,-0.2053,-0.3641,-0.4084,0.7817,0.2994
357,0.0,0.0,0.0,0.0,0.0,0.0,-0.0205,0.9410,-0.1986,-0.3635,-0.4067,0.7832,0.2985
358,0.0,0.0,0.0,0.0,0.0,0.0,-0.0044,0.9537,-0.2042,-0.3629,-0.4047,0.7847,0.2978
359,0.0,0.0,0.0,0.0,0.0,0.0,0.0010,0.9546,-0.2124,-0.3621,-0.4032,0.7863,0.2967
360,0.0,0.0,0.0,0.0,0.0,0.0,0.0020,0.9953,-0.2225,-0.3614,-0.4012,0.7880,0.2957
361,0.0,0.0,0.0,0.0,0.0,0.0,0.0320,0.9997,-0.2078,-0.3610,-0.3990,0.7896,0.2950
362,0.0,0.0,0.0,0.0,0.0,0.0,0.0194,0.9643,-0.1976,-0.3600,-0.3972,0.7919,0.2924
363,0.0,0.0,0.0,0.0,0.0,0.0,-0.0023,0.9853,-0.2280,-0.3571,-0.3963,0.7953,0.2880
364,0.0,0.0,0.0,0.0,0.0,0.0,0.0095,1.0668,-0.2452,-0.3549,-0.3962,0.7967,0.2869
365,0.0,0.0,0.0,0.0,0.0,0.0,0.0204,0.9934,-0.2410,-0.3543,-0.3962,0.7967,0.2878
366,0.0,0.0,0.0,0.0,0.0,0.0,0.0227,0.9617,-0.2512,-0.3536,-0.3963,0.7966,0.2887
367,0.0,0.0,0.0,0.0,0.0,0.0,0.0262,0.9777,-0.2465,-0.3535,-0.3960,0.7965,0.2895
368,0.0,0.0,0.0,0.0,0.0,0.0,0.0125,0.9761,-0.2369,-0.3539,-0.3959,0.7960,0.2905
369,0.0,0.0,0.0,0.0,0.0,0.0,0.0338,0.9961,-0.2287,-0.3549,-0.3953,0.7953,0.2920
370,0.0,0.0,0.0,0.0,0.0,0.0,0.0390,0.9666,-0.2306,-0.3566,-0.3950,0.7939,0.2940
371,0.0,0.0,0.0,0.0,0.0,0.0,0.0048,0.9153,-0.2403,-0.3579,-0.3957,0.7923,0.2959
372,0.0,0.0,0.0,0.0,0.0,0.0,-0.0020,0.8913,-0.2538,-0.3584,-0.3965,0.7913,0.2968
373,0.0,0.0,0.0,0.0,0.0,0.0,0.0162,0.8950,-0.2542,-0.3587,-0.3969,0.7910,0.2970
374,0.0,0.0,0.0,0.0,0.0,0.0,0.0283,0.9287,-0.2473,-0.3588,-0.3968,0.7912,0.2962
375,0.0,0.0,0.0,0.0,0.0,0.0,0.0488,0.9545,-0.2332,-0.3594,-0.3955,0.7919,0.2954
376,0.0,0.0,0.0,0.0,0.0,0.0,0.0536,0.9909,-0.2253,-0.3604,-0.3936,0.7929,0.2940
377,0.0,0.0,0.0,0.0,0.0,0.0,0.0359,1.0254,-0.2044,-0.3615,-0.3918,0.7938,0.2928
378,0.0,0.0,0.0,0.0,0.0,0.0,0.0153,1.0108,-0.1853,-0.3626,-0.3901,0.7944,0.2921
379,0.0,0.0,0.0,0.0,0.0,0.0,0.0194,1.0032,-0.1839,-0.3636,-0.3886,0.7947,0.2920
380,0.0,0.0,0.0,0.0,0.0,0.0,0.0245,0.9945,-0.1991,-0.3645,-0.3874,0.7947,0.2926
381,0.0,0.0,0.0,0.0,0.0,0.0,0.0331,0.9767,-0.2101,-0.3655,-0.3864,0.7945,0.2931
382,0.0,0.0,0.0,0.0,0.0,0.0,0.0337,0.9676,-0.2194,-0.3664,-0.3857,0.7943,0.2934
383,0.0,0.0,0.0,0.0,0.0,0.0,0.0357,0.9557,-0.2177,-0.3671,-0.3853,0.7941,0.2937
384,0.0,0.0,0.0,0.0,0.0,0.0,0.0370,0.9517,-0.2104,-0.3676,-0.3851,0.7939,0.2937
385,0.0,0.0,0.0,0.0,0.0,0.0,0.0374,0.9488,-0.2144,-0.3679,-0.3850,0.7940,0.2934
386,0.0,0.0,0.0,0.0,0.0,0.0,0.0317,0.9418,-0.2208,-0.3681,-0.3850,0.7940,0.2928
387,0.0,0.0,0.0,0.0,0.0,0.0,0.0363,0.9325,-0.2307,-0.3684,-0.3855,0.7944,0.2910
388,0.0,0.0,0.0,0.0,0.0,0.0,0.0088,0.9556,-0.2357,-0.3686,-0.3862,0.7947,0.2889
389,0.0,0.0,0.0,0.0,0.0,0.0,0.0110,0.9755,-0.2301,-0.3681,-0.3869,0.7951,0.2875
390,0.0,0.0,0.0,0.0,0.0,0.0,0.0194,0.9650,-0.2375,-0.3678,-0.3877,0.7954,0.2860
391,0.0,0.0,0.0,0.0,0.0,0.0,0.0257,0.9522,-0.2445,-0.3674,-0.3888,0.7955,0.2845
392,0.0,0.0,0.0,0.0,0.0,0.0,0.0619,0.9526,-0.2371,-0.3676,-0.3894,0.7958,0.2826
393,0.0,0.0,0.0,0.0,0.0,0.0,0.0902,0.9762,-0.2211,-0.3686,-0.3887,0.7965,0.2805
394,0.0,0.0,0.0,0.0,0.0,0.0,0.1212,0.9946,-0.1993,-0.3708,-0.3869,0.7970,0.2785
395,0.0,0.0,0.0,0.0,0.0,0.0,0.1310,1.0079,-0.1966,-0.3746,-0.3849,0.7970,0.2764
396,0.0,0.0,0.0,0.0,0.0,0.0,0.1149,1.0087,-0.2088,-0.3792,-0.3837,0.7961,0.2743
397,0.0,0.0,0.0,0.0,0.0,0.0,0.0891,0.9867,-0.2326,-0.3839,-0.3838,0.7944,0.2724
398,0.0,0.0,0.0,0.0,0.0,0.0,0.0728,0.9701,-0.2528,-0.3883,-0.3850,0.7924,0.2705
399,0.0,0.0,0.0,0.0,0.0,0.0,0.0647,0.9500,-0.2614,-0.3931,-0.3863,0.7901,0.2682
400,0.0,0.0,0.0,0.0,0.0,0.0,0.0388,0.9378,-0.2627,-0.3977,-0.3880,0.7880,0.2654
401,0.0,0.0,0.0,0.0,0.0,0.0,0.0184,0.9385,-0.2554,-0.4016,-0.3906,0.7857,0.2623
402,0.0,0.0,0.0,0.0,0.0,0.0,0.0066,0.9386,-0.2608,-0.4046,-0.3937,0.7835,0.2597
403,0.0,0.0,0.0,0.0,0.0,0.0,0.0135,0.9124,-0.2646,-0.4069,-0.3960,0.7819,0.2574
404,0.0,0.0,0.0,0.0,0.0,0.0,-0.0003,0.9245,-0.2791,-0.4077,-0.3984,0.7812,0.2545
405,0.0,0.0,0.0,0.0,0.0,0.0,0.0010,0.9582,-0.2814,-0.4075,-0.4001,0.7815,0.2514
406,0.0,0.0,0.0,0.0,0.0,0.0,0.0202,0.9622,-0.2716,-0.4065,-0.3996,0.7827,0.2498
407,0.0,0.0,0.0,0.0,0.0,0.0,0.0478,0.9538,-0.2478,-0.4047,-0.3966,0.7853,0.2494
408,0.0,0.0,0.0,0.0,0.0,0.0,0.0995,0.9643,-0.2315,-0.4026,-0.3918,0.7893,0.2477
409,0.0,0.0,0.0,0.0,0.0,0.0,0.1305,0.9961,-0.2226,-0.4000,-0.3878,0.7940,0.2431
410,0.0,0.0,0.0,0.0,0.0,0.0,0.1213,1.0221,-0.2037,-0.3964,-0.3842,0.7992,0.2378
411,0.0,0.0,0.0,0.0,0.0,0.0,0.1846,1.0043,-0.1931,-0.3932,-0.3805,0.8038,0.2333
412,0.0,0.0,0.0,0.0,0.0,0.0,0.2473,0.9818,-0.1928,-0.3940,-0.3775,0.8059,0.2298
413,0.0,0.0,0.0,0.0,0.0,0.0,0.2027,0.9792,-0.2246,-0.3949,-0.3804,0.8054,0.2252
414,0.0,0.0,0.0,0.0,0.0,0.0,0.0661,0.9369,-0.2709,-0.3820,-0.3848,0.8078,0.2314
415,0.0,0.0,0.0,0.0,0.0,0.0,0.0865,0.9214,-0.2978,-0.3729,-0.3858,0.8088,0.2409
416,0.0,0.0,0.0,0.0,0.0,0.0,0.0739,0.9479,-0.2741,-0.3769,-0.3875,0.8059,0.2415
417,0.0,0.0,0.0,0.0,0.0,0.0,0.0073,0.9941,-0.2522,-0.3780,-0.3890,0.8040,0.2437
418,0.0,0.0,0.0,0.0,0.0,0.0,0.0161,1.1357,-0.2018,-0.3772,-0.3850,0.8056,0.2459
419,0.0,0.0,0.0,0.0,0.0,0.0,0.0732,1.1120,-0.2570,-0.3753,-0.3784,0.8105,0.2431
420,0.0,0.0,0.0,0.0,0.0,0.0,0.0728,0.8323,-0.3435,-0.3660,-0.3715,0.8194,0.2379
421,0.0,0.0,0.0,0.0,0.0,0.0,0.1300,0.6790,-0.4070,-0.3559,-0.3635,0.8287,0.2333
422,0.0,0.0,0.0,0.0,0.0,0.0,0.1373,0.7561,-0.4092,-0.3529,-0.3590,0.8317,0.2343
423,0.0,0.0,0.0,0.0,0.0,0.0,0.1598,0.7035,-0.3934,-0.3563,-0.3628,0.8256,0.2446
424,0.0,0.0,0.0,0.0,0.0,0.0,0.1188,0.6538,-0.3928,-0.3620,-0.3770,0.8090,0.2689
425,0.0,0.0,0.0,0.0,0.0,0.0,0.0345,0.7212,-0.3142,-0.3708,-0.3903,0.7884,0.2977
426,0.0,0.0,0.0,0.0,0.0,0.0,0.0273,0.7549,-0.1561,-0.3809,-0.3935,0.7754,0.3144
427,0.0,0.0,0.0,0.0,0.0,0.0,0.0279,1.1100,-0.1287,-0.3829,-0.3919,0.7762,0.3121
428,0.0,0.0,0.0,0.0,0.0,0.0,0.0545,1.5065,-0.1498,-0.3827,-0.3884,0.7804,0.3060
429,0.0,0.0,0.0,0.0,0.0,0.0,0.0742,1.1158,-0.0891,-0.3815,-0.3859,0.7826,0.3050
430,0.0,0.0,0.0,0.0,0.0,0.0,0.0653,1.1278,-0.1084,-0.3773,-0.3837,0.7857,0.3052
431,0.0,0.0,0.0,0.0,0.0,0.0,0.0418,1.1013,-0.1065,-0.3733,-0.3808,0.7880,0.3076
432,0.0,0.0,0.0,0.0,0.0,0.0,0.0638,1.0351,-0.1215,-0.3717,-0.3774,0.7898,0.3092
433,0.0,0.0,0.0,0.0,0.0,0.0,0.0910,0.9819,-0.1563,-0.3719,-0.3755,0.7901,0.3105
434,0.0,0.0,0.0,0.0,0.0,0.0,0.0828,0.9340,-0.1697,-0.3720,-0.3751,0.7899,0.3115
435,0.0,0.0,0.0,0.0,0.0,0.0,0.0504,0.9808,-0.1472,-0.3717,-0.3753,0.7896,0.3123
436,0.0,0.0,0.0,0.0,0.0,0.0,0.0513,0.8884,-0.1788,-0.3702,-0.3765,0.7892,0.3138
437,0.0,0.0,0.0,0.0,0.0,0.0,0.0319,0.9058,-0.1786,-0.3676,-0.3779,0.7895,0.3141
438,0.0,0.0,0.0,0.0,0.0,0.0,0.0251,0.9332,-0.1932,-0.3650,-0.3801,0.7897,0.3142
439,0.0,0.0,0.0,0.0,0.0,0.0,0.0175,0.9267,-0.1948,-0.3626,-0.3824,0.7898,0.3137
440,0.0,0.0,0.0,0.0,0.0,0.0,0.0131,0.9517,-0.1886,-0.3602,-0.3846,0.7903,0.3127
441,0.0,0.0,0.0,0.0,0.0,0.0,0.0185,0.9650,-0.1772,-0.3577,-0.3862,0.7910,0.3117
442,0.0,0.0,0.0,0.0,0.0,0.0,0.0314,0.9715,-0.1849,-0.3552,-0.3872,0.7921,0.3107
443,0.0,0.0,0.0,0.0,0.0,0.0,0.0428,0.9994,-0.1586,-0.3536,-0.3869,0.7937,0.3088
444,0.0,0.0,0.0,0.0,0.0,0.0,0.0522,1.0166,-0.1573,-0.3531,-0.3865,0.7948,0.3070
445,0.0,0.0,0.0,0.0,0.0,0.0,0.0401,1.0319,-0.1620,-0.3532,-0.3865,0.7953,0.3055
446,0.0,0.0,0.0,0.0,0.0,0.0,0.0160,1.0148,-0.1692,-0.3531,-0.3871,0.7955,0.3042
447,0.0,0.0,0.0,0.0,0.0,0.0,-0.0083,1.0319,-0.1943,-0.3524,-0.3883,0.7961,0.3022
448,0.0,0.0,0.0,0.0,0.0,0.0,-0.0187,1.0566,-0.2416,-0.3519,-0.3895,0.7960,0.3015
449,0.0,0.0,0.0,0.0,0.0,0.0,0.0265,1.1153,-0.2313,-0.3537,-0.3886,0.7948,0.3038
450,0.0,0.0,0.0,0.0,0.0,0.0,-0.0415,1.1137,-0.2393,-0.3575,-0.3891,0.7900,0.3109
451,0.0,0.0,0.0,0.0,0.0,0.0,-0.0484,0.9548,-0.2277,-0.3607,-0.3886,0.7854,0.3195
452,0.0,0.0,0.0,0.0,0.0,0.0,0.0054,0.8908,-0.2105,-0.3617,-0.3871,0.7842,0.3229
453,0.0,0.0,0.0,0.0,0.0,0.0,-0.0343,0.7319,-0.2131,-0.3587,-0.3890,0.7848,0.3228
454,0.0,0.0,0.0,0.0,0.0,0.0,-0.0073,0.7620,-0.2592,-0.3549,-0.3913,0.7847,0.3242
455,0.0,0.0,0.0,0.0,0.0,0.0,0.0107,0.8519,-0.2655,-0.3515,-0.3935,0.7843,0.3264
456,0.0,0.0,0.0,0.0,0.0,0.0,0.0070,0.7781,-0.2618,-0.3479,-0.3964,0.7843,0.3268
457,0.0,0.0,0.0,0.0,0.0,0.0,0.0096,0.8213,-0.2213,-0.3447,-0.3958,0.7868,0.3248
458,0.0,0.0,0.0,0.0,0.0,0.0,0.0728,1.0971,-0.1916,-0.3434,-0.3906,0.7917,0.3205
459,0.0,0.0,0.0,0.0,0.0,0.0,0.0695,1.1251,-0.1615,-0.3435,-0.3862,0.7956,0.3162
460,0.0,0.0,0.0,0.0,0.0,0.0,0.0123,1.1507,-0.1515,-0.3447,-0.3856,0.7967,0.3126
461,0.0,0.0,0.0,0.0,0.0,0.0,0.0200,1.1077,-0.1716,-0.3470,-0.3860,0.7966,0.3097
462,0.0,0.0,0.0,0.0,0.0,0.0,0.0284,1.0741,-0.1988,-0.3492,-0.3865,0.7961,0.3080
463,0.0,0.0,0.0,0.0,0.0,0.0,0.0425,1.0602,-0.2194,-0.3514,-0.3867,0.7947,0.3090
464,0.0,0.0,0.0,0.0,0.0,0.0,0.0355,1.0556,-0.2521,-0.3546,-0.3869,0.7916,0.3129
465,0.0,0.0,0.0,0.0,0.0,0.0,0.0573,1.0509,-0.2531,-0.3593,-0.3866,0.7875,0.3183
466,0.0,0.0,0.0,0.0,0.0,0.0,0.1096,0.8955,-0.2660,-0.3652,-0.3875,0.7825,0.3227
467,0.0,0.0,0.0,0.0,0.0,0.0,0.0987,0.7756,-0.2937,-0.3680,-0.3925,0.7761,0.3289
468,0.0,0.0,0.0,0.0,0.0,0.0,0.0166,0.8097,-0.1888,-0.3677,-0.3977,0.7702,0.3367
469,0.0,0.0,0.0,0.0,0.0,0.0,-0.0345,0.9188,-0.1834,-0.3669,-0.4024,0.7663,0.3408
470,0.0,0.0,0.0,0.0,0.0,0.0,-0.0461,1.0262,-0.1774,-0.3665,-0.4058,0.7634,0.3439
471,0.0,0.0,0.0,0.0,0.0,0.0,-0.0264,1.0413,-0.1314,-0.3669,-0.4067,0.7615,0.3467
472,0.0,0.0,0.0,0.0,0.0,0.0,-0.0362,1.0543,-0.1264,-0.3677,-0.4051,0.7612,0.3483
473,0.0,0.0,0.0,0.0,0.0,0.0,-0.0044,0.9647,-0.1359,-0.3682,-0.4019,0.7628,0.3478
474,0.0,0.0,0.0,0.0,0.0,0.0,0.0218,0.8696,-0.1811,-0.3676,-0.3989,0.7662,0.3446
475,0.0,0.0,0.0,0.0,0.0,0.0,-0.0104,0.9745,-0.1509,-0.3665,-0.3950,0.7705,0.3405
476,0.0,0.0,0.0,0.0,0.0,0.0,-0.0176,1.0277,-0.1301,-0.3654,-0.3900,0.7751,0.3371
477,0.0,0.0,0.0,0.0,0.0,0.0,0.0198,1.0103,-0.1391,-0.3638,-0.3846,0.7798,0.3341
478,0.0,0.0,0.0,0.0,0.0,0.0,0.0466,0.9832,-0.1613,-0.3619,-0.3798,0.7841,0.3316
479,0.0,0.0,0.0,0.0,0.0,0.0,0.0385,0.9637,-0.1757,-0.3598,-0.3765,0.7874,0.3299
480,0.0,0.0,0.0,0.0,0.0,0.0,0.0566,0.9638,-0.1932,-0.3582,-0.3738,0.7901,0.3281
481,0.0,0.0,0.0,0.0,0.0,0.0,0.0448,0.9756,-0.2013,-0.3570,-0.3721,0.7923,0.3262
482,0.0,0.0,0.0,0.0,0.0,0.0,0.0476,0.9616,-0.2161,-0.3555,-0.3711,0.7944,0.3239
483,0.0,0.0,0.0,0.0,0.0,0.0,0.0476,0.9364,-0.2281,-0.3541,-0.3707,0.7961,0.3216
484,0.0,0.0,0.0,0.0,0.0,0.0,0.0343,0.9457,-0.2266,-0.3532,-0.3704,0.7973,0.3200
485,0.0,0.0,0.0,0.0,0.0,0.0,0.0137,0.9693,-0.2180,-0.3525,-0.3699,0.7982,0.3189
486,0.0,0.0,0.0,0.0,0.0,0.0,0.0262,0.9627,-0.2025,-0.3522,-0.3693,0.7988,0.3187
487,0.0,0.0,0.0,0.0,0.0,0.0,0.0342,0.9545,-0.2012,-0.3518,-0.3689,0.7988,0.3194
488,0.0,0.0,0.0,0.0,0.0,0.0,0.0484,0.9180,-0.2119,-0.3508,-0.3697,0.7980,0.3216
489,0.0,0.0,0.0,0.0,0.0,0.0,0.0597,0.8541,-0.2211,-0.3489,-0.3730,0.7956,0.3259
490,0.0,0.0,0.0,0.0,0.0,0.0,0.0506,0.8440,-0.1848,-0.3479,-0.3756,0.7935,0.3290
491,0.0,0.0,0.0,0.0,0.0,0.0,0.0239,0.9133,-0.1702,-0.3481,-0.3766,0.7948,0.3246
492,0.0,0.0,0.0,0.0,0.0,0.0,-0.0154,1.0779,-0.2067,-0.3481,-0.3779,0.7971,0.3172
493,0.0,0.0,0.0,0.0,0.0,0.0,-0.0340,1.1168,-0.2115,-0.3485,-0.3781,0.7990,0.3117
494,0.0,0.0,0.0,0.0,0.0,0.0,-0.0133,1.0429,-0.2252,-0.3478,-0.3779,0.8004,0.3090
495,0.0,0.0,0.0,0.0,0.0,0.0,-0.0043,1.0383,-0.2345,-0.3468,-0.3769,0.8020,0.3074
496,0.0,0.0,0.0,0.0,0.0,0.0,0.0185,1.0176,-0.2197,-0.3465,-0.3750,0.8034,0.3064
497,0.0,0.0,0.0,0.0,0.0,0.0,0.0247,1.0284,-0.2112,-0.3473,-0.3734,0.8041,0.3055
498,0.0,0.0,0.0,0.0,0.0,0.0,0.0034,1.0319,-0.2200,-0.3491,-0.3729,0.8037,0.3053
499,0.0,0.0,0.0,0.0,0.0,0.0,-0.0130,1.0001,-0.2410,-0.3507,-0.3736,0.8024,0.3060
500,0.0,0.0,0.0,0.0,0.0,0.0,-0.0119,0.9519,-0.2524,-0.3513,-0.3749,0.8010,0.3072
501,0.0,0.0,0.0,0.0,0.0,0.0,-0.0225,0.9697,-0.2424,-0.3512,-0.3761,0.8000,0.3086
502,0.0,0.0,0.0,0.0,0.0,0.0,-0.0023,0.9746,-0.2579,-0.3510,-0.3774,0.7987,0.3104
503,0.0,0.0,0.0,0.0,0.0,0.0,0.0028,0.9280,-0.2615,-0.3508,-0.3789,0.7975,0.3120
504,0.0,0.0,0.0,0.0,0.0,0.0,0.0041,0.9210,-0.2300,-0.3510,-0.3796,0.7967,0.3130
505,0.0,0.0,0.0,0.0,0.0,0.0,0.0001,0.9449,-0.2170,-0.3513,-0.3801,0.7959,0.3141
506,0.0,0.0,0.0,0.0,0.0,0.0,0.0142,0.9312,-0.2502,-0.3509,-0.3810,0.7952,0.3153
507,0.0,0.0,0.0,0.0,0.0,0.0,0.0256,0.9228,-0.2688,-0.3494,-0.3819,0.7949,0.3164
508,0.0,0.0,0.0,0.0,0.0,0.0,0.0357,0.9068,-0.2719,-0.3477,-0.3829,0.7951,0.3167
509,0.0,0.0,0.0,0.0,0.0,0.0,0.0490,0.8075,-0.3298,-0.3450,-0.3852,0.7955,0.3159
510,0.0,0.0,0.0,0.0,0.0,0.0,0.0599,0.7073,-0.3270,-0.3414,-0.3878,0.7969,0.3130
511,0.0,0.0,0.0,0.0,0.0,0.0,0.0091,0.7204,-0.2958,-0.3376,-0.3903,0.7998,0.3067
512,0.0,0.0,0.0,0.0,0.0,0.0,-0.0470,1.0074,-0.2444,-0.3352,-0.3897,0.8043,0.2981
513,0.0,0.0,0.0,0.0,0.0,0.0,-0.0378,1.1842,-0.2217,-0.3349,-0.3884,0.8069,0.2932
514,0.0,0.0,0.0,0.0,0.0,0.0,-0.0297,1.1022,-0.2487,-0.3345,-0.3881,0.8076,0.2920
515,0.0,0.0,0.0,0.0,0.0,0.0,-0.0357,1.0865,-0.2611,-0.3333,-0.3876,0.8083,0.2922
516,0.0,0.0,0.0,0.0,0.0,0.0,-0.0273,1.0362,-0.2560,-0.3322,-0.3867,0.8088,0.2933
517,0.0,0.0,0.0,0.0,0.0,0.0,-0.0256,1.0432,-0.2729,-0.3315,-0.3865,0.8084,0.2954
518,0.0,0.0,0.0,0.0,0.0,0.0,-0.0162,1.0215,-0.2830,-0.3309,-0.3869,0.8072,0.2985
519,0.0,0.0,0.0,0.0,0.0,0.0,-0.0224,1.1041,-0.2657,-0.3312,-0.3866,0.8053,0.3039
520,0.0,0.0,0.0,0.0,0.0,0.0,-0.0322,1.1554,-0.2946,-0.3323,-0.3864,0.8013,0.3135
521,0.0,0.0,0.0,0.0,0.0,0.0,-0.0185,1.0904,-0.3009,-0.3337,-0.3861,0.7949,0.3282
522,0.0,0.0,0.0,0.0,0.0,0.0,0.0132,1.0102,-0.2587,-0.3357,-0.3842,0.7883,0.3439
523,0.0,0.0,0.0,0.0,0.0,0.0,0.0147,0.8782,-0.2145,-0.3384,-0.3809,0.7828,0.3572
524,0.0,0.0,0.0,0.0,0.0,0.0,0.0234,0.7408,-0.1218,-0.3422,-0.3768,0.7799,0.3643
525,0.0,0.0,0.0,0.0,0.0,0.0,0.0582,0.8238,-0.1618,-0.3463,-0.3750,0.7786,0.3650
526,0.0,0.0,0.0,0.0,0.0,0.0,0.0561,0.9513,-0.1744,-0.3482,-0.3740,0.7784,0.3646
527,0.0,0.0,0.0,0.0,0.0,0.0,0.0301,0.9098,-0.1766,-0.3477,-0.3743,0.7792,0.3631
528,0.0,0.0,0.0,0.0,0.0,0.0,0.0443,0.9005,-0.2652,-0.3471,-0.3766,0.7805,0.3585
529,0.0,0.0,0.0,0.0,0.0,0.0,0.0079,0.8802,-0.2539,-0.3456,-0.3790,0.7824,0.3533
530,0.0,0.0,0.0,0.0,0.0,0.0,-0.0291,0.9849,-0.1761,-0.3445,-0.3795,0.7841,0.3501
531,0.0,0.0,0.0,0.0,0.0,0.0,0.0197,0.9943,-0.1495,-0.3443,-0.3781,0.7862,0.3469
532,0.0,0.0,0.0,0.0,0.0,0.0,0.0220,0.9532,-0.1837,-0.3428,-0.3782,0.7883,0.3435
533,0.0,0.0,0.0,0.0,0.0,0.0,-0.0071,0.9856,-0.2047,-0.3418,-0.3794,0.7894,0.3406
534,0.0,0.0,0.0,0.0,0.0,0.0,-0.0121,1.0088,-0.2087,-0.3415,-0.3808,0.7894,0.3394
535,0.0,0.0,0.0,0.0,0.0,0.0,-0.0181,0.9420,-0.2078,-0.3407,-0.3823,0.7892,0.3390
536,0.0,0.0,0.0,0.0,0.0,0.0,-0.0364,0.9106,-0.2171,-0.3390,-0.3839,0.7892,0.3389
537,0.0,0.0,0.0,0.0,0.0,0.0,-0.0138,0.8872,-0.2150,-0.3370,-0.3849,0.7895,0.3391
538,0.0,0.0,0.0,0.0,0.0,0.0,0.0272,0.7963,-0.2294,-0.3345,-0.3875,0.7891,0.3396
539,0.0,0.0,0.0,0.0,0.0,0.0,0.0270,0.7645,-0.2260,-0.3306,-0.3915,0.7883,0.3406
540,0.0,0.0,0.0,0.0,0.0,0.0,0.0091,0.8946,-0.1584,-0.3270,-0.3931,0.7905,0.3373
541,0.0,0.0,0.0,0.0,0.0,0.0,-0.0356,1.0572,-0.1526,-0.3255,-0.3933,0.7944,0.3291
542,0.0,0.0,0.0,0.0,0.0,0.0,-0.0661,1.1461,-0.2175,-0.3266,-0.3926,0.7975,0.3213
543,0.0,0.0,0.0,0.0,0.0,0.0,-0.1005,1.2449,-0.1728,-0.3281,-0.3915,0.7996,0.3158
544,0.0,0.0,0.0,0.0,0.0,0.0,-0.1201,1.2535,-0.1163,-0.3306,-0.3908,0.7994,0.3145
545,0.0,0.0,0.0,0.0,0.0,0.0,-0.1157,1.1757,-0.1500,-0.3340,-0.3909,0.7974,0.3160
546,0.0,0.0,0.0,0.0,0.0,0.0,-0.0428,0.9987,-0.2031,-0.3366,-0.3909,0.7957,0.3174
547,0.0,0.0,0.0,0.0,0.0,0.0,-0.0125,1.0113,-0.2131,-0.3394,-0.3899,0.7958,0.3155
548,0.0,0.0,0.0,0.0,0.0,0.0,-0.0059,1.0460,-0.2534,-0.3452,-0.3924,0.7932,0.3125
549,0.0,0.0,0.0,0.0,0.0,0.0,-0.0581,0.9589,-0.2738,-0.3483,-0.3993,0.7890,0.3112
550,0.0,0.0,0.0,0.0,0.0,0.0,-0.0737,0.7643,-0.2715,-0.3392,-0.4058,0.7904,0.3092
551,0.0,0.0,0.0,0.0,0.0,0.0,0.0539,0.7196,-0.4046,-0.3302,-0.4099,0.7938,0.3047
552,0.0,0.0,0.0,0.0,0.0,0.0,0.0453,0.6992,-0.3947,-0.3272,-0.4149,0.7938,0.3010
553,0.0,0.0,0.0,0.0,0.0,0.0,0.0669,0.4565,-0.4363,-0.3229,-0.4219,0.7919,0.3009
554,0.0,0.0,0.0,0.0,0.0,0.0,0.0294,0.4348,-0.4791,-0.3253,-0.4284,0.7837,0.3106
555,0.0,0.0,0.0,0.0,0.0,0.0,-0.0961,0.6610,-0.2693,-0.3343,-0.4246,0.7779,0.3206
556,0.0,0.0,0.0,0.0,0.0,0.0,-0.0670,1.1376,-0.2332,-0.3357,-0.4114,0.7873,0.3134
557,0.0,0.0,0.0,0.0,0.0,0.0,-0.0566,1.6205,-0.1547,-0.3289,-0.4033,0.7952,0.3112
558,0.0,0.0,0.0,0.0,0.0,0.0,-0.0174,1.2567,-0.1339,-0.3232,-0.3989,0.7979,0.3158
559,0.0,0.0,0.0,0.0,0.0,0.0,0.0056,1.1305,-0.1873,-0.3225,-0.3961,0.7988,0.3177
560,0.0,0.0,0.0,0.0,0.0,0.0,-0.0687,1.1295,-0.1866,-0.3229,-0.3960,0.7978,0.3201
561,0.0,0.0,0.0,0.0,0.0,0.0,-0.0609,0.9748,-0.2522,-0.3228,-0.3964,0.7970,0.3216
562,0.0,0.0,0.0,0.0,0.0,0.0,-0.0381,0.8397,-0.2717,-0.3243,-0.3969,0.7974,0.3185
563,0.0,0.0,0.0,0.0,0.0,0.0,-0.0754,0.8896,-0.2691,-0.3269,-0.3973,0.7984,0.3129
564,0.0,0.0,0.0,0.0,0.0,0.0,-0.0362,0.9045,-0.2868,-0.3285,-0.3977,0.7987,0.3098
565,0.0,0.0,0.0,0.0,0.0,0.0,-0.0369,0.9001,-0.2863,-0.3280,-0.3976,0.7994,0.3087
566,0.0,0.0,0.0,0.0,0.0,0.0,-0.0368,0.9042,-0.2970,-0.3265,-0.3968,0.8006,0.3082
567,0.0,0.0,0.0,0.0,0.0,0.0,-0.0273,0.8568,-0.3205,-0.3243,-0.3965,0.8022,0.3069
568,0.0,0.0,0.0,0.0,0.0,0.0,-0.0381,0.8854,-0.3654,-0.3221,-0.3968,0.8039,0.3043
569,0.0,0.0,0.0,0.0,0.0,0.0,-0.0521,1.1071,-0.2847,-0.3221,-0.3944,0.8069,0.2995
570,0.0,0.0,0.0,0.0,0.0,0.0,-0.0581,1.0471,-0.2253,-0.3236,-0.3917,0.8090,0.2955
571,0.0,0.0,0.0,0.0,0.0,0.0,-0.0402,1.0057,-0.2453,-0.3235,-0.3896,0.8104,0.2947
572,0.0,0.0,0.0,0.0,0.0,0.0,-0.0648,1.0639,-0.2207,-0.3217,-0.3874,0.8116,0.2962
573,0.0,0.0,0.0,0.0,0.0,0.0,-0.0647,1.0932,-0.2202,-0.3213,-0.3854,0.8119,0.2986
574,0.0,0.0,0.0,0.0,0.0,0.0,-0.0482,1.0138,-0.2447,-0.3222,-0.3846,0.8109,0.3012
575,0.0,0.0,0.0,0.0,0.0,0.0,-0.0346,0.9354,-0.2673,-0.3226,-0.3851,0.8095,0.3037
576,0.0,0.0,0.0,0.0,0.0,0.0,-0.0291,0.9387,-0.2755,-0.3223,-0.3857,0.8084,0.3064
577,0.0,0.0,0.0,0.0,0.0,0.0,-0.0190,0.9204,-0.2816,-0.3216,-0.3858,0.8076,0.3089
578,0.0,0.0,0.0,0.0,0.0,0.0,-0.0145,0.9360,-0.2916,-0.3208,-0.3859,0.8072,0.3108
579,0.0,0.0,0.0,0.0,0.0,0.0,-0.0200,0.9215,-0.2884,-0.3201,-0.3867,0.8064,0.3126
580,0.0,0.0,0.0,0.0,0.0,0.0,-0.0129,0.9002,-0.2911,-0.3196,-0.3876,0.8060,0.3129
581,0.0,0.0,0.0,0.0,0.0,0.0,-0.0089,0.9432,-0.2973,-0.3191,-0.3883,0.8059,0.3129
582,0.0,0.0,0.0,0.0,0.0,0.0,-0.0095,0.9274,-0.3155,-0.3177,-0.3891,0.8059,0.3133
583,0.0,0.0,0.0,0.0,0.0,0.0,-0.0441,0.9559,-0.2724,-0.3164,-0.3889,0.8064,0.3136
584,0.0,0.0,0.0,0.0,0.0,0.0,-0.0280,0.9415,-0.2672,-0.3159,-0.3888,0.8068,0.3133
585,0.0,0.0,0.0,0.0,0.0,0.0,-0.0110,0.9508,-0.2753,-0.3157,-0.3888,0.8070,0.3128
586,0.0,0.0,0.0,0.0,0.0,0.0,-0.0248,0.9625,-0.2732,-0.3155,-0.3890,0.8070,0.3130
587,0.0,0.0,0.0,0.0,0.0,0.0,-0.0397,0.9305,-0.2839,-0.3148,-0.3893,0.8069,0.3133
588,0.0,0.0,0.0,0.0,0.0,0.0,-0.0256,0.9028,-0.2950,-0.3136,-0.3896,0.8073,0.3133
589,0.0,0.0,0.0,0.0,0.0,0.0,0.0055,0.8454,-0.3031,-0.3124,-0.3900,0.8077,0.3128
590,0.0,0.0,0.0,0.0,0.0,0.0,0.0094,0.7555,-0.3147,-0.3113,-0.3909,0.8088,0.3102
591,0.0,0.0,0.0,0.0,0.0,0.0,-0.0653,0.7829,-0.3466,-0.3086,-0.3930,0.8106,0.3054
592,0.0,0.0,0.0,0.0,0.0,0.0,-0.0709,0.9311,-0.3064,-0.3064,-0.3923,0.8140,0.2994
593,0.0,0.0,0.0,0.0,0.0,0.0,-0.0627,1.0974,-0.2659,-0.3054,-0.3899,0.8174,0.2944
594,0.0,0.0,0.0,0.0,0.0,0.0,-0.0923,1.1293,-0.2611,-0.3044,-0.3881,0.8195,0.2918
595,0.0,0.0,0.0,0.0,0.0,0.0,-0.1001,1.1544,-0.2515,-0.3032,-0.3867,0.8207,0.2914
596,0.0,0.0,0.0,0.0,0.0,0.0,-0.0943,1.1419,-0.2808,-0.3021,-0.3863,0.8200,0.2950
597,0.0,0.0,0.0,0.0,0.0,0.0,-0.0692,1.1071,-0.3032,-0.3024,-0.3853,0.8179,0.3019
598,0.0,0.0,0.0,0.0,0.0,0.0,-0.0361,1.1814,-0.2883,-0.3064,-0.3820,0.8144,0.3115
599,0.0,0.0,0.0,0.0,0.0,0.0,-0.0341,1.1456,-0.3190,-0.3122,-0.3791,0.8077,0.3263
600,0.0,0.0,0.0,0.0,0.0,0.0,0.0079,1.0017,-0.2939,-0.3180,-0.3760,0.7999,0.3431
601,0.0,0.0,0.0,0.0,0.0,0.0,0.0530,0.9262,-0.2711,-0.3236,-0.3736,0.7923,0.3578
602,0.0,0.0,0.0,0.0,0.0,0.0,0.1159,0.7230,-0.2050,-0.3297,-0.3742,0.7851,0.3674
603,0.0,0.0,0.0,0.0,0.0,0.0,-0.0499,0.7043,-0.1926,-0.3289,-0.3794,0.7806,0.3722
604,0.0,0.0,0.0,0.0,0.0,0.0,-0.0099,0.9130,-0.2170,-0.3275,-0.3812,0.7795,0.3738
605,0.0,0.0,0.0,0.0,0.0,0.0,0.0358,0.8910,-0.1788,-0.3286,-0.3832,0.7797,0.3705
606,0.0,0.0,0.0,0.0,0.0,0.0,-0.0069,0.8649,-0.2411,-0.3286,-0.3866,0.7809,0.3644
607,0.0,0.0,0.0,0.0,0.0,0.0,0.0088,0.8810,-0.3050,-0.3276,-0.3892,0.7836,0.3565
608,0.0,0.0,0.0,0.0,0.0,0.0,-0.0174,0.9724,-0.2127,-0.3279,-0.3902,0.7867,0.3483
609,0.0,0.0,0.0,0.0,0.0,0.0,-0.0294,1.0174,-0.1872,-0.3281,-0.3906,0.7884,0.3438
610,0.0,0.0,0.0,0.0,0.0,0.0,-0.0220,0.9678,-0.2181,-0.3273,-0.3905,0.7897,0.3416
611,0.0,0.0,0.0,0.0,0.0,0.0,0.0125,0.9513,-0.2202,-0.3272,-0.3896,0.7911,0.3395
612,0.0,0.0,0.0,0.0,0.0,0.0,0.0123,0.9833,-0.2295,-0.3281,-0.3888,0.7917,0.3384
613,0.0,0.0,0.0,0.0,0.0,0.0,-0.0054,0.9419,-0.2321,-0.3285,-0.3886,0.7916,0.3381
614,0.0,0.0,0.0,0.0,0.0,0.0,-0.0004,0.8809,-0.2481,-0.3287,-0.3886,0.7921,0.3369
615,0.0,0.0,0.0,0.0,0.0,0.0,-0.0020,0.8266,-0.2713,-0.3284,-0.3892,0.7930,0.3344
616,0.0,0.0,0.0,0.0,0.0,0.0,0.0456,0.7274,-0.2737,-0.3285,-0.3889,0.7950,0.3300
617,0.0,0.0,0.0,0.0,0.0,0.0,0.0407,0.7129,-0.2725,-0.3285,-0.3889,0.7969,0.3253
618,0.0,0.0,0.0,0.0,0.0,0.0,-0.0586,0.9955,-0.2091,-0.3231,-0.3851,0.8015,0.3239
619,0.0,0.0,0.0,0.0,0.0,0.0,-0.0051,1.1310,-0.2195,-0.3220,-0.3782,0.8073,0.3187
620,0.0,0.0,0.0,0.0,0.0,0.0,-0.0080,1.2899,-0.2107,-0.3254,-0.3717,0.8119,0.3111
621,0.0,0.0,0.0,0.0,0.0,0.0,-0.0555,1.2573,-0.1690,-0.3311,-0.3688,0.8126,0.3067
622,0.0,0.0,0.0,0.0,0.0,0.0,-0.0407,1.1703,-0.1519,-0.3358,-0.3677,0.8127,0.3024
623,0.0,0.0,0.0,0.0,0.0,0.0,-0.0148,1.2510,-0.2045,-0.3354,-0.3665,0.8142,0.3004
624,0.0,0.0,0.0,0.0,0.0,0.0,0.0082,0.9445,-0.2967,-0.3337,-0.3654,0.8151,0.3012
625,0.0,0.0,0.0,0.0,0.0,0.0,0.0560,0.6283,-0.2805,-0.3300,-0.3650,0.8188,0.2957
626,0.0,0.0,0.0,0.0,0.0,0.0,0.0090,0.8269,-0.3973,-0.3275,-0.3681,0.8217,0.2866
627,0.0,0.0,0.0,0.0,0.0,0.0,0.0132,0.7566,-0.4124,-0.3258,-0.3750,0.8204,0.2832
628,0.0,0.0,0.0,0.0,0.0,0.0,0.0748,0.5755,-0.4316,-0.3236,-0.3836,0.8156,0.2880
629,0.0,0.0,0.0,0.0,0.0,0.0,0.0250,0.6672,-0.4206,-0.3250,-0.3916,0.8062,0.3018
630,0.0,0.0,0.0,0.0,0.0,0.0,-0.0412,0.8339,-0.2387,-0.3305,-0.3932,0.7989,0.3130
631,0.0,0.0,0.0,0.0,0.0,0.0,-0.0565,0.8937,-0.1819,-0.3345,-0.3923,0.7992,0.3091
632,0.0,0.0,0.0,0.0,0.0,0.0,-0.1048,1.3788,-0.2349,-0.3372,-0.3910,0.8028,0.2982
633,0.0,0.0,0.0,0.0,0.0,0.0,-0.0725,1.2113,-0.2107,-0.3381,-0.3901,0.8042,0.2944
634,0.0,0.0,0.0,0.0,0.0,0.0,-0.0758,1.0212,-0.2734,-0.3355,-0.3891,0.8058,0.2946
635,0.0,0.0,0.0,0.0,0.0,0.0,-0.0433,1.0151,-0.2734,-0.3346,-0.3852,0.8082,0.2943
636,0.0,0.0,0.0,0.0,0.0,0.0,0.0068,0.9955,-0.2702,-0.3356,-0.3824,0.8100,0.2917
637,0.0,0.0,0.0,0.0,0.0,0.0,0.0381,0.9574,-0.2872,-0.3375,-0.3819,0.8108,0.2879
638,0.0,0.0,0.0,0.0,0.0,0.0,0.0294,0.9596,-0.2847,-0.3405,-0.3819,0.8104,0.2852
639,0.0,0.0,0.0,0.0,0.0,0.0,0.0236,0.9498,-0.2713,-0.3437,-0.3818,0.8099,0.2833
640,0.0,0.0,0.0,0.0,0.0,0.0,0.0336,0.9429,-0.2869,-0.3445,-0.3819,0.8102,0.2812
641,0.0,0.0,0.0,0.0,0.0,0.0,0.0437,0.9525,-0.3009,-0.3451,-0.3821,0.8102,0.2802
642,0.0,0.0,0.0,0.0,0.0,0.0,0.0438,0.9545,-0.3062,-0.3474,-0.3825,0.8091,0.2799
643,0.0,0.0,0.0,0.0,0.0,0.0,0.0645,0.9449,-0.2790,-0.3517,-0.3824,0.8075,0.2794
644,0.0,0.0,0.0,0.0,0.0,0.0,0.0398,0.9119,-0.2670,-0.3558,-0.3828,0.8057,0.2786
645,0.0,0.0,0.0,0.0,0.0,0.0,-0.0082,0.9094,-0.2637,-0.3583,-0.3840,0.8046,0.2773
646,0.0,0.0,0.0,0.0,0.0,0.0,0.0090,0.9491,-0.2524,-0.3611,-0.3840,0.8038,0.2757
647,0.0,0.0,0.0,0.0,0.0,0.0,0.0193,0.9646,-0.2687,-0.3635,-0.3845,0.8031,0.2738
648,0.0,0.0,0.0,0.0,0.0,0.0,-0.0039,0.9709,-0.2676,-0.3650,-0.3860,0.8024,0.2720
649,0.0,0.0,0.0,0.0,0.0,0.0,0.0151,0.9568,-0.2853,-0.3671,-0.3873,0.8014,0.2703
650,0.0,0.0,0.0,0.0,0.0,0.0,0.0293,0.9217,-0.3252,-0.3687,-0.3888,0.8005,0.2686
651,0.0,0.0,0.0,0.0,0.0,0.0,0.0273,0.8943,-0.3470,-0.3683,-0.3905,0.8003,0.2673
652,0.0,0.0,0.0,0.0,0.0,0.0,0.0205,0.9225,-0.3515,-0.3674,-0.3916,0.8007,0.2655
653,0.0,0.0,0.0,0.0,0.0,0.0,0.0070,0.9657,-0.3304,-0.3670,-0.3924,0.8012,0.2634
654,0.0,0.0,0.0,0.0,0.0,0.0,0.0357,0.9613,-0.3100,-0.3675,-0.3927,0.8013,0.2621
655,0.0,0.0,0.0,0.0,0.0,0.0,0.0543,0.9486,-0.2999,-0.3678,-0.3927,0.8013,0.2615
656,0.0,0.0,0.0,0.0,0.0,0.0,0.0439,0.9453,-0.3102,-0.3672,-0.3928,0.8015,0.2616
657,0.0,0.0,0.0,0.0,0.0,0.0,0.0602,0.9366,-0.3225,-0.3665,-0.3926,0.8018,0.2620
658,0.0,0.0,0.0,0.0,0.0,0.0,0.0621,0.9349,-0.3171,-0.3661,-0.3925,0.8020,0.2620
659,0.0,0.0,0.0,0.0,0.0,0.0,0.0677,0.9409,-0.3092,-0.3665,-0.3926,0.8019,0.2618
660,0.0,0.0,0.0,0.0,0.0,0.0,0.0453,0.9185,-0.3189,-0.3668,-0.3933,0.8015,0.2615
661,0.0,0.0,0.0,0.0,0.0,0.0,0.0324,0.9381,-0.3186,-0.3666,-0.3935,0.8012,0.2624
662,0.0,0.0,0.0,0.0,0.0,0.0,0.0347,0.9336,-0.3197,-0.3652,-0.3932,0.8014,0.2641
663,0.0,0.0,0.0,0.0,0.0,0.0,0.0575,0.9436,-0.3243,-0.3635,-0.3927,0.8018,0.2659
664,0.0,0.0,0.0,0.0,0.0,0.0,0.0748,0.8345,-0.3619,-0.3610,-0.3933,0.8022,0.2673
665,0.0,0.0,0.0,0.0,0.0,0.0,0.0733,0.9095,-0.3399,-0.3586,-0.3938,0.8033,0.2665
666,0.0,0.0,0.0,0.0,0.0,0.0,0.0856,0.8349,-0.3813,-0.3561,-0.3961,0.8035,0.2657
667,0.0,0.0,0.0,0.0,0.0,0.0,0.0639,0.6483,-0.4057,-0.3507,-0.4004,0.8045,0.2634
668,0.0,0.0,0.0,0.0,0.0,0.0,-0.0101,0.7715,-0.3768,-0.3432,-0.4026,0.8089,0.2566
669,0.0,0.0,0.0,0.0,0.0,0.0,-0.0280,1.0474,-0.3123,-0.3381,-0.4017,0.8139,0.2488
670,0.0,0.0,0.0,0.0,0.0,0.0,-0.0201,1.1532,-0.2800,-0.3354,-0.4020,0.8164,0.2437
671,0.0,0.0,0.0,0.0,0.0,0.0,-0.0441,1.1381,-0.3119,-0.3326,-0.4040,0.8169,0.2424
672,0.0,0.0,0.0,0.0,0.0,0.0,-0.0336,1.0679,-0.3236,-0.3289,-0.4054,0.8172,0.2443
673,0.0,0.0,0.0,0.0,0.0,0.0,-0.0123,1.0108,-0.3478,-0.3247,-0.4064,0.8175,0.2470
674,0.0,0.0,0.0,0.0,0.0,0.0,-0.0357,1.0137,-0.3532,-0.3211,-0.4082,0.8171,0.2501
675,0.0,0.0,0.0,0.0,0.0,0.0,-0.0190,1.0019,-0.3577,-0.3186,-0.4106,0.8157,0.2541
676,0.0,0.0,0.0,0.0,0.0,0.0,0.0021,0.9656,-0.3694,-0.3170,-0.4130,0.8141,0.2573
677,0.0,0.0,0.0,0.0,0.0,0.0,-0.0008,0.9288,-0.3826,-0.3157,-0.4156,0.8124,0.2598
678,0.0,0.0,0.0,0.0,0.0,0.0,-0.0294,0.8824,-0.3819,-0.3135,-0.4177,0.8114,0.2624
679,0.0,0.0,0.0,0.0,0.0,0.0,-0.0414,0.9024,-0.3792,-0.3110,-0.4190,0.8109,0.2649
680,0.0,0.0,0.0,0.0,0.0,0.0,-0.0549,0.9058,-0.3753,-0.3089,-0.4199,0.8104,0.2673
681,0.0,0.0,0.0,0.0,0.0,0.0,-0.0646,0.9211,-0.3610,-0.3074,-0.4200,0.8103,0.2691
682,0.0,0.0,0.0,0.0,0.0,0.0,-0.0632,0.9306,-0.3463,-0.3059,-0.4202,0.8101,0.2713
683,0.0,0.0,0.0,0.0,0.0,0.0,-0.0521,0.9282,-0.3472,-0.3046,-0.4200,0.8098,0.2738
684,0.0,0.0,0.0,0.0,0.0,0.0,-0.0606,0.9213,-0.3532,-0.3035,-0.4198,0.8094,0.2767
685,0.0,0.0,0.0,0.0,0.0,0.0,-0.0635,0.9243,-0.3532,-0.3030,-0.4193,0.8089,0.2794
686,0.0,0.0,0.0,0.0,0.0,0.0,-0.0741,0.9646,-0.3360,-0.3032,-0.4182,0.8086,0.2819
687,0.0,0.0,0.0,0.0,0.0,0.0,-0.0922,1.0679,-0.3024,-0.3042,-0.4164,0.8073,0.2868
688,0.0,0.0,0.0,0.0,0.0,0.0,-0.0473,1.1600,-0.3271,-0.3069,-0.4138,0.8041,0.2967
689,0.0,0.0,0.0,0.0,0.0,0.0,-0.0224,1.1588,-0.3441,-0.3118,-0.4113,0.7973,0.3128
690,0.0,0.0,0.0,0.0,0.0,0.0,0.0613,0.9646,-0.3055,-0.3159,-0.4129,0.7875,0.3311
691,0.0,0.0,0.0,0.0,0.0,0.0,0.0694,0.8956,-0.3221,-0.3181,-0.4155,0.7785,0.3466
692,0.0,0.0,0.0,0.0,0.0,0.0,-0.0466,0.8232,-0.2880,-0.3203,-0.4202,0.7699,0.3580
693,0.0,0.0,0.0,0.0,0.0,0.0,-0.1374,0.6394,-0.2265,-0.3167,-0.4259,0.7643,0.3663
694,0.0,0.0,0.0,0.0,0.0,0.0,-0.0295,0.8735,-0.2371,-0.3151,-0.4246,0.7646,0.3685
695,0.0,0.0,0.0,0.0,0.0,0.0,-0.0318,0.9659,-0.1739,-0.3147,-0.4240,0.7658,0.3672
696,0.0,0.0,0.0,0.0,0.0,0.0,-0.0518,0.8376,-0.2008,-0.3129,-0.4245,0.7683,0.3627
697,0.0,0.0,0.0,0.0,0.0,0.0,-0.0493,0.8435,-0.2916,-0.3104,-0.4253,0.7719,0.3563
698,0.0,0.0,0.0,0.0,0.0,0.0,-0.0838,0.9629,-0.2213,-0.3083,-0.4245,0.7761,0.3499
699,0.0,0.0,0.0,0.0,0.0,0.0,-0.1075,0.9917,-0.1932,-0.3062,-0.4232,0.7794,0.3459
700,0.0,0.0,0.0,0.0,0.0,0.0,-0.1017,0.9798,-0.2231,-0.3036,-0.4228,0.7818,0.3432
701,0.0,0.0,0.0,0.0,0.0,0.0,-0.0774,0.9781,-0.2357,-0.3007,-0.4230,0.7835,0.3416
702,0.0,0.0,0.0,0.0,0.0,0.0,-0.1199,0.9505,-0.2406,-0.2970,-0.4243,0.7847,0.3406
703,0.0,0.0,0.0,0.0,0.0,0.0,-0.1341,0.9231,-0.2376,-0.2930,-0.4253,0.7862,0.3394
704,0.0,0.0,0.0,0.0,0.0,0.0,-0.1317,0.8970,-0.2327,-0.2890,-0.4259,0.7877,0.3385
705,0.0,0.0,0.0,0.0,0.0,0.0,-0.0934,0.8499,-0.2523,-0.2859,-0.4263,0.7893,0.3370
706,0.0,0.0,0.0,0.0,0.0,0.0,-0.0440,0.7233,-0.2871,-0.2830,-0.4280,0.7905,0.3344
707,0.0,0.0,0.0,0.0,0.0,0.0,-0.0482,0.6628,-0.2837,-0.2793,-0.4299,0.7926,0.3302
708,0.0,0.0,0.0,0.0,0.0,0.0,-0.1295,0.9414,-0.2033,-0.2758,-0.4269,0.7986,0.3224
709,0.0,0.0,0.0,0.0,0.0,0.0,-0.1582,1.1410,-0.2261,-0.2739,-0.4204,0.8067,0.3122
710,0.0,0.0,0.0,0.0,0.0,0.0,-0.1487,1.3311,-0.2372,-0.2733,-0.4136,0.8135,0.3040
711,0.0,0.0,0.0,0.0,0.0,0.0,-0.2191,1.2720,-0.1698,-0.2713,-0.4104,0.8177,0.2990
712,0.0,0.0,0.0,0.0,0.0,0.0,-0.2452,1.2051,-0.2288,-0.2678,-0.4083,0.8204,0.2975
713,0.0,0.0,0.0,0.0,0.0,0.0,-0.1071,1.2311,-0.2917,-0.2661,-0.4064,0.8217,0.2981
714,0.0,0.0,0.0,0.0,0.0,0.0,-0.0483,0.8976,-0.3423,-0.2620,-0.4104,0.8196,0.3020
715,0.0,0.0,0.0,0.0,0.0,0.0,-0.0186,0.5157,-0.3297,-0.2526,-0.4169,0.8218,0.2950
716,0.0,0.0,0.0,0.0,0.0,0.0,-0.0888,0.7733,-0.4421,-0.2447,-0.4210,0.8255,0.2853
717,0.0,0.0,0.0,0.0,0.0,0.0,-0.0853,0.6707,-0.4281,-0.2395,-0.4260,0.8260,0.2809
718,0.0,0.0,0.0,0.0,0.0,0.0,-0.0208,0.5176,-0.4614,-0.2365,-0.4338,0.8229,0.2807
719,0.0,0.0,0.0,0.0,0.0,0.0,-0.1167,0.6551,-0.4460,-0.2390,-0.4408,0.8162,0.2871
720,0.0,0.0,0.0,0.0,0.0,0.0,-0.2244,0.8646,-0.2996,-0.2476,-0.4370,0.8134,0.2935
721,0.0,0.0,0.0,0.0,0.0,0.0,-0.2379,1.2194,-0.2524,-0.2547,-0.4267,0.8186,0.2880
722,0.0,0.0,0.0,0.0,0.0,0.0,-0.2292,1.3339,-0.2729,-0.2574,-0.4213,0.8221,0.2834
723,0.0,0.0,0.0,0.0,0.0,0.0,-0.2507,1.0878,-0.2787,-0.2577,-0.4182,0.8241,0.2819
724,0.0,0.0,0.0,0.0,0.0,0.0,-0.1630,1.1851,-0.3042,-0.2587,-0.4144,0.8276,0.2766
725,0.0,0.0,0.0,0.0,0.0,0.0,-0.0527,0.8976,-0.3341,-0.2596,-0.4098,0.8301,0.2749
726,0.0,0.0,0.0,0.0,0.0,0.0,-0.0502,0.6279,-0.3796,-0.2578,-0.4087,0.8321,0.2724
727,0.0,0.0,0.0,0.0,0.0,0.0,-0.1176,0.8267,-0.4419,-0.2584,-0.4083,0.8324,0.2712
728,0.0,0.0,0.0,0.0,0.0,0.0,-0.1318,0.8377,-0.4233,-0.2632,-0.4065,0.8306,0.2750
729,0.0,0.0,0.0,0.0,0.0,0.0,-0.0957,0.8485,-0.3938,-0.2687,-0.4043,0.8273,0.2828
730,0.0,0.0,0.0,0.0,0.0,0.0,-0.0721,0.9067,-0.4157,-0.2737,-0.4006,0.8229,0.2955
731,0.0,0.0,0.0,0.0,0.0,0.0,-0.0457,0.9013,-0.3068,-0.2799,-0.3959,0.8192,0.3062
732,0.0,0.0,0.0,0.0,0.0,0.0,-0.0827,0.8393,-0.2894,-0.2848,-0.3923,0.8176,0.3108
733,0.0,0.0,0.0,0.0,0.0,0.0,-0.1273,0.9124,-0.2816,-0.2852,-0.3895,0.8179,0.3130
734,0.0,0.0,0.0,0.0,0.0,0.0,-0.0951,1.0028,-0.2660,-0.2866,-0.3852,0.8202,0.3111
735,0.0,0.0,0.0,0.0,0.0,0.0,-0.1055,1.0754,-0.2576,-0.2904,-0.3818,0.8225,0.3057
736,0.0,0.0,0.0,0.0,0.0,0.0,-0.1203,1.0983,-0.2476,-0.2938,-0.3800,0.8241,0.3001
737,0.0,0.0,0.0,0.0,0.0,0.0,-0.1028,1.0952,-0.2738,-0.2957,-0.3791,0.8247,0.2979
738,0.0,0.0,0.0,0.0,0.0,0.0,-0.0840,0.9604,-0.3021,-0.2965,-0.3784,0.8246,0.2983
739,0.0,0.0,0.0,0.0,0.0,0.0,-0.0638,0.8353,-0.3220,-0.2965,-0.3778,0.8247,0.2986
740,0.0,0.0,0.0,0.0,0.0,0.0,-0.0645,0.8583,-0.3532,-0.2959,-0.3778,0.8253,0.2978
741,0.0,0.0,0.0,0.0,0.0,0.0,-0.0352,0.9096,-0.3587,-0.2956,-0.3777,0.8259,0.2964
742,0.0,0.0,0.0,0.0,0.0,0.0,-0.0250,0.8818,-0.3586,-0.2960,-0.3777,0.8266,0.2940
743,0.0,0.0,0.0,0.0,0.0,0.0,-0.0455,0.8825,-0.3489,-0.2955,-0.3767,0.8281,0.2914
744,0.0,0.0,0.0,0.0,0.0,0.0,-0.0285,0.9430,-0.3251,-0.2945,-0.3748,0.8301,0.2895
745,0.0,0.0,0.0,0.0,0.0,0.0,-0.0250,0.9952,-0.2941,-0.2943,-0.3725,0.8316,0.2881
746,0.0,0.0,0.0,0.0,0.0,0.0,-0.0356,1.0148,-0.3045,-0.2951,-0.3712,0.8322,0.2872
747,0.0,0.0,0.0,0.0,0.0,0.0,-0.0262,1.0032,-0.3027,-0.2960,-0.3700,0.8324,0.2875
748,0.0,0.0,0.0,0.0,0.0,0.0,-0.0076,1.0168,-0.3136,-0.2967,-0.3688,0.8321,0.2891
749,0.0,0.0,0.0,0.0,0.0,0.0,-0.0223,0.9902,-0.3263,-0.2972,-0.3686,0.8311,0.2918
750,0.0,0.0,0.0,0.0,0.0,0.0,-0.0546,0.8869,-0.3279,-0.2968,-0.3703,0.8297,0.2938
751,0.0,0.0,0.0,0.0,0.0,0.0,-0.0116,0.8589,-0.3341,-0.2963,-0.3718,0.8290,0.2944
752,0.0,0.0,0.0,0.0,0.0,0.0,0.0167,0.8606,-0.3588,-0.2959,-0.3731,0.8287,0.2940
753,0.0,0.0,0.0,0.0,0.0,0.0,-0.0015,0.8578,-0.3487,-0.2949,-0.3743,0.8291,0.2924
754,0.0,0.0,0.0,0.0,0.0,0.0,0.0302,0.7784,-0.3824,-0.2932,-0.3762,0.8299,0.2895
755,0.0,0.0,0.0,0.0,0.0,0.0,0.0366,0.7397,-0.3684,-0.2911,-0.3778,0.8316,0.2847
756,0.0,0.0,0.0,0.0,0.0,0.0,-0.0318,0.9582,-0.3190,-0.2898,-0.3785,0.8342,0.2773
757,0.0,0.0,0.0,0.0,0.0,0.0,-0.0937,1.1086,-0.3334,-0.2892,-0.3803,0.8353,0.2720
758,0.0,0.0,0.0,0.0,0.0,0.0,-0.0194,0.9790,-0.3605,-0.2880,-0.3825,0.8348,0.2717
759,0.0,0.0,0.0,0.0,0.0,0.0,-0.0370,0.9531,-0.3488,-0.2840,-0.3853,0.8344,0.2733
760,0.0,0.0,0.0,0.0,0.0,0.0,-0.0991,1.0680,-0.3248,-0.2800,-0.3867,0.8338,0.2773
761,0.0,0.0,0.0,0.0,0.0,0.0,-0.0766,1.0295,-0.3244,-0.2783,-0.3877,0.8321,0.2825
762,0.0,0.0,0.0,0.0,0.0,0.0,-0.0833,1.0070,-0.3359,-0.2784,-0.3898,0.8291,0.2882
763,0.0,0.0,0.0,0.0,0.0,0.0,-0.0774,0.9806,-0.3261,-0.2781,-0.3922,0.8256,0.2954
764,0.0,0.0,0.0,0.0,0.0,0.0,-0.0611,0.9969,-0.2840,-0.2772,-0.3933,0.8221,0.3043
765,0.0,0.0,0.0,0.0,0.0,0.0,-0.0909,1.0355,-0.2703,-0.2777,-0.3939,0.8177,0.3147
766,0.0,0.0,0.0,0.0,0.0,0.0,-0.0591,0.8944,-0.2763,-0.2794,-0.3951,0.8132,0.3232
767,0.0,0.0,0.0,0.0,0.0,0.0,-0.0846,0.8635,-0.2695,-0.2806,-0.3966,0.8100,0.3285
768,0.0,0.0,0.0,0.0,0.0,0.0,-0.0962,0.9081,-0.2738,-0.2821,-0.3972,0.8075,0.3325
769,0.0,0.0,0.0,0.0,0.0,0.0,-0.0875,0.9176,-0.2809,-0.2835,-0.3975,0.8053,0.3363
770,0.0,0.0,0.0,0.0,0.0,0.0,-0.0988,0.9295,-0.2642,-0.2846,-0.3963,0.8037,0.3405
771,0.0,0.0,0.0,0.0,0.0,0.0,-0.0761,0.9332,-0.2446,-0.2860,-0.3944,0.8024,0.3446
772,0.0,0.0,0.0,0.0,0.0,0.0,-0.0771,0.9329,-0.2509,-0.2873,-0.3930,0.8011,0.3481
773,0.0,0.0,0.0,0.0,0.0,0.0,-0.0678,0.9338,-0.2421,-0.2889,-0.3914,0.8001,0.3509
774,0.0,0.0,0.0,0.0,0.0,0.0,-0.0563,0.9133,-0.2449,-0.2903,-0.3897,0.7998,0.3524
775,0.0,0.0,0.0,0.0,0.0,0.0,-0.0600,0.9362,-0.2844,-0.2911,-0.3881,0.8004,0.3523
776,0.0,0.0,0.0,0.0,0.0,0.0,-0.0678,0.9605,-0.2850,-0.2920,-0.3857,0.8016,0.3514
777,0.0,0.0,0.0,0.0,0.0,0.0,-0.1115,0.9913,-0.2146,-0.2935,-0.3822,0.8030,0.3506
778,0.0,0.0,0.0,0.0,0.0,0.0,-0.1292,1.0278,-0.1927,-0.2963,-0.3772,0.8045,0.3503
779,0.0,0.0,0.0,0.0,0.0,0.0,-0.0439,0.9956,-0.2188,-0.3000,-0.3707,0.8055,0.3517
780,0.0,0.0,0.0,0.0,0.0,0.0,0.0135,0.9238,-0.2129,-0.3021,-0.3647,0.8065,0.3538
781,0.0,0.0,0.0,0.0,0.0,0.0,-0.0197,0.9235,-0.2067,-0.3028,-0.3608,0.8080,0.3540
782,0.0,0.0,0.0,0.0,0.0,0.0,0.0128,0.9195,-0.2183,-0.3041,-0.3573,0.8099,0.3521
783,0.0,0.0,0.0,0.0,0.0,0.0,0.0248,0.9269,-0.2201,-0.3060,-0.3559,0.8116,0.3479
784,0.0,0.0,0.0,0.0,0.0,0.0,-0.0006,0.9937,-0.2366,-0.3071,-0.3555,0.8130,0.3441
785,0.0,0.0,0.0,0.0,0.0,0.0,-0.0036,1.0035,-0.2336,-0.3075,-0.3544,0.8139,0.3428
786,0.0,0.0,0.0,0.0,0.0,0.0,-0.0134,0.9622,-0.2274,-0.3074,-0.3534,0.8147,0.3419
787,0.0,0.0,0.0,0.0,0.0,0.0,-0.0100,0.9616,-0.2279,-0.3072,-0.3528,0.8158,0.3399
788,0.0,0.0,0.0,0.0,0.0,0.0,-0.0089,0.9789,-0.2374,-0.3078,-0.3527,0.8169,0.3370
789,0.0,0.0,0.0,0.0,0.0,0.0,-0.0085,1.0049,-0.2462,-0.3088,-0.3528,0.8172,0.3352
790,0.0,0.0,0.0,0.0,0.0,0.0,0.0135,1.0156,-0.2353,-0.3106,-0.3519,0.8170,0.3349
791,0.0,0.0,0.0,0.0,0.0,0.0,-0.0205,0.9827,-0.2330,-0.3115,-0.3519,0.8166,0.3352
792,0.0,0.0,0.0,0.0,0.0,0.0,-0.0204,0.9722,-0.2477,-0.3119,-0.3522,0.8161,0.3357
793,0.0,0.0,0.0,0.0,0.0,0.0,0.0090,0.9616,-0.2439,-0.3125,-0.3522,0.8155,0.3366
794,0.0,0.0,0.0,0.0,0.0,0.0,0.0502,0.9928,-0.2448,-0.3145,-0.3511,0.8147,0.3378
795,0.0,0.0,0.0,0.0,0.0,0.0,0.0541,0.9659,-0.2515,-0.3179,-0.3500,0.8130,0.3397
796,0.0,0.0,0.0,0.0,0.0,0.0,-0.0241,0.9260,-0.2266,-0.3195,-0.3509,0.8112,0.3416
797,0.0,0.0,0.0,0.0,0.0,0.0,-0.0218,0.9471,-0.2097,-0.3209,-0.3516,0.8095,0.3435
798,0.0,0.0,0.0,0.0,0.0,0.0,-0.0349,0.9758,-0.1991,-0.3215,-0.3525,0.8080,0.3458
799,0.0,0.0,0.0,0.0,0.0,0.0,-0.0396,0.9271,-0.2018,-0.3203,-0.3530,0.8072,0.3482
800,0.0,0.0,0.0,0.0,0.0,0.0,-0.0290,0.9360,-0.2041,-0.3178,-0.3521,0.8073,0.3511
801,0.0,0.0,0.0,0.0,0.0,0.0,-0.0056,0.9619,-0.1973,-0.3150,-0.3503,0.8074,0.3551
802,0.0,0.0,0.0,0.0,0.0,0.0,0.0051,0.9731,-0.1922,-0.3122,-0.3486,0.8071,0.3600
803,0.0,0.0,0.0,0.0,0.0,0.0,0.0696,1.0003,-0.2106,-0.3103,-0.3459,0.8064,0.3657
804,0.0,0.0,0.0,0.0,0.0,0.0,0.0418,0.9998,-0.1786,-0.3078,-0.3456,0.8040,0.3733
805,0.0,0.0,0.0,0.0,0.0,0.0,-0.0178,0.9237,-0.1955,-0.3047,-0.3481,0.8009,0.3803
806,0.0,0.0,0.0,0.0,0.0,0.0,-0.0035,0.9410,-0.2088,-0.3023,-0.3499,0.7991,0.3843
807,0.0,0.0,0.0,0.0,0.0,0.0,-0.0457,0.9199,-0.1961,-0.2994,-0.3517,0.7979,0.3873
808,0.0,0.0,0.0,0.0,0.0,0.0,-0.0227,0.9600,-0.1628,-0.2981,-0.3523,0.7982,0.3873
809,0.0,0.0,0.0,0.0,0.0,0.0,0.0142,0.9662,-0.1524,-0.2987,-0.3521,0.7992,0.3849
810,0.0,0.0,0.0,0.0,0.0,0.0,-0.0572,0.9523,-0.1509,-0.2996,-0.3537,0.8003,0.3804
811,0.0,0.0,0.0,0.0,0.0,0.0,-0.0352,1.0047,-0.1719,-0.3009,-0.3543,0.8020,0.3751
812,0.0,0.0,0.0,0.0,0.0,0.0,-0.0046,1.0279,-0.2006,-0.3013,-0.3547,0.8028,0.3727
813,0.0,0.0,0.0,0.0,0.0,0.0,-0.0328,0.9400,-0.2016,-0.3004,-0.3556,0.8038,0.3705
814,0.0,0.0,0.0,0.0,0.0,0.0,-0.0466,0.9090,-0.1885,-0.2996,-0.3555,0.8066,0.3651
815,0.0,0.0,0.0,0.0,0.0,0.0,-0.0220,0.9675,-0.2298,-0.2992,-0.3548,0.8103,0.3577
816,0.0,0.0,0.0,0.0,0.0,0.0,0.0138,0.9873,-0.2683,-0.2992,-0.3540,0.8132,0.3520
817,0.0,0.0,0.0,0.0,0.0,0.0,-0.0173,0.9645,-0.2639,-0.2990,-0.3544,0.8147,0.3483
818,0.0,0.0,0.0,0.0,0.0,0.0,-0.0308,0.9571,-0.2563,-0.2985,-0.3552,0.8158,0.3453
819,0.0,0.0,0.0,0.0,0.0,0.0,-0.0339,0.9532,-0.2534,-0.2980,-0.3559,0.8169,0.3423
820,0.0,0.0,0.0,0.0,0.0,0.0,-0.0406,0.9435,-0.2677,-0.2969,-0.3570,0.8181,0.3392
821,0.0,0.0,0.0,0.0,0.0,0.0,-0.0233,0.9356,-0.2789,-0.2960,-0.3583,0.8195,0.3353
822,0.0,0.0,0.0,0.0,0.0,0.0,-0.0383,0.9657,-0.2849,-0.2960,-0.3597,0.8207,0.3308
823,0.0,0.0,0.0,0.0,0.0,0.0,-0.0499,0.9828,-0.2856,-0.2963,-0.3612,0.8216,0.3267
824,0.0,0.0,0.0,0.0,0.0,0.0,-0.0578,0.9680,-0.2878,-0.2962,-0.3629,0.8222,0.3235
825,0.0,0.0,0.0,0.0,0.0,0.0,-0.0582,0.9710,-0.2950,-0.2959,-0.3643,0.8225,0.3211
826,0.0,0.0,0.0,0.0,0.0,0.0,-0.0628,0.9780,-0.2891,-0.2962,-0.3654,0.8227,0.3193
827,0.0,0.0,0.0,0.0,0.0,0.0,-0.0653,0.9615,-0.2641,-0.2962,-0.3668,0.8226,0.3181
828,0.0,0.0,0.0,0.0,0.0,0.0,-0.0570,0.9229,-0.2593,-0.2956,-0.3686,0.8223,0.3173
829,0.0,0.0,0.0,0.0,0.0,0.0,-0.0357,0.9059,-0.2843,-0.2947,-0.3701,0.8224,0.3160
830,0.0,0.0,0.0,0.0,0.0,0.0,-0.0361,0.9327,-0.2751,-0.2943,-0.3710,0.8228,0.3142
831,0.0,0.0,0.0,0.0,0.0,0.0,-0.0337,0.9334,-0.2931,-0.2939,-0.3722,0.8231,0.3124
832,0.0,0.0,0.0,0.0,0.0,0.0,-0.0512,0.9346,-0.2995,-0.2931,-0.3737,0.8235,0.3104
833,0.0,0.0,0.0,0.0,0.0,0.0,-0.0423,0.9510,-0.3031,-0.2928,-0.3742,0.8240,0.3085
834,0.0,0.0,0.0,0.0,0.0,0.0,-0.0245,0.9205,-0.3307,-0.2922,-0.3750,0.8246,0.3068
835,0.0,0.0,0.0,0.0,0.0,0.0,-0.0497,0.8992,-0.3462,-0.2904,-0.3766,0.8252,0.3047
836,0.0,0.0,0.0,0.0,0.0,0.0,-0.0649,0.8608,-0.3537,-0.2877,-0.3780,0.8264,0.3024
837,0.0,0.0,0.0,0.0,0.0,0.0,-0.0468,0.8344,-0.3404,-0.2853,-0.3770,0.8288,0.2992
838,0.0,0.0,0.0,0.0,0.0,0.0,-0.0351,0.8714,-0.3286,-0.2836,-0.3748,0.8319,0.2951
839,0.0,0.0,0.0,0.0,0.0,0.0,-0.0411,0.9211,-0.3332,-0.2822,-0.3722,0.8349,0.2912
840,0.0,0.0,0.0,0.0,0.0,0.0,-0.0500,0.9446,-0.3373,-0.2807,-0.3696,0.8378,0.2877
841,0.0,0.0,0.0,0.0,0.0,0.0,-0.0603,0.9965,-0.3477,-0.2787,-0.3676,0.8401,0.2853
842,0.0,0.0,0.0,0.0,0.0,0.0,-0.0627,0.9566,-0.3532,-0.2751,-0.3667,0.8416,0.2857
843,0.0,0.0,0.0,0.0,0.0,0.0,-0.0625,0.9640,-0.3594,-0.2708,-0.3657,0.8429,0.2872
844,0.0,0.0,0.0,0.0,0.0,0.0,-0.0610,1.0020,-0.3525,-0.2683,-0.3646,0.8439,0.2881
845,0.0,0.0,0.0,0.0,0.0,0.0,-0.0530,0.9555,-0.3682,-0.2676,-0.3647,0.8439,0.2884
846,0.0,0.0,0.0,0.0,0.0,0.0,-0.0674,0.9371,-0.3763,-0.2675,-0.3649,0.8441,0.2879
847,0.0,0.0,0.0,0.0,0.0,0.0,-0.0678,0.9401,-0.3758,-0.2668,-0.3643,0.8446,0.2879
848,0.0,0.0,0.0,0.0,0.0,0.0,-0.0532,0.9268,-0.3784,-0.2658,-0.3630,0.8453,0.2881
849,0.0,0.0,0.0,0.0,0.0,0.0,-0.0424,0.9273,-0.3740,-0.2653,-0.3616,0.8460,0.2885
850,0.0,0.0,0.0,0.0,0.0,0.0,-0.0409,0.9287,-0.3735,-0.2656,-0.3608,0.8462,0.2886
851,0.0,0.0,0.0,0.0,0.0,0.0,-0.0637,0.9204,-0.3795,-0.2666,-0.3607,0.8461,0.2881
852,0.0,0.0,0.0,0.0,0.0,0.0,-0.0634,0.9130,-0.3781,-0.2674,-0.3605,0.8463,0.2870
853,0.0,0.0,0.0,0.0,0.0,0.0,-0.0787,0.9491,-0.3645,-0.2670,-0.3600,0.8466,0.2870
854,0.0,0.0,0.0,0.0,0.0,0.0,-0.0688,1.1205,-0.3409,-0.2668,-0.3584,0.8468,0.2885
855,0.0,0.0,0.0,0.0,0.0,0.0,-0.0555,1.0059,-0.3383,-0.2671,-0.3581,0.8463,0.2902
856,0.0,0.0,0.0,0.0,0.0,0.0,-0.0751,1.0026,-0.3257,-0.2687,-0.3585,0.8451,0.2915
857,0.0,0.0,0.0,0.0,0.0,0.0,-0.0885,0.9991,-0.3492,-0.2705,-0.3594,0.8435,0.2936
858,0.0,0.0,0.0,0.0,0.0,0.0,-0.0804,1.0084,-0.3709,-0.2719,-0.3598,0.8416,0.2973
859,0.0,0.0,0.0,0.0,0.0,0.0,-0.0657,0.9947,-0.3745,-0.2734,-0.3602,0.8391,0.3023
860,0.0,0.0,0.0,0.0,0.0,0.0,-0.0389,0.9422,-0.3679,-0.2755,-0.3612,0.8366,0.3063
861,0.0,0.0,0.0,0.0,0.0,0.0,-0.0012,0.9159,-0.3483,-0.2798,-0.3616,0.8339,0.3091
862,0.0,0.0,0.0,0.0,0.0,0.0,-0.0025,0.8553,-0.3487,-0.2835,-0.3634,0.8310,0.3115
863,0.0,0.0,0.0,0.0,0.0,0.0,-0.0267,0.8229,-0.3386,-0.2850,-0.3663,0.8285,0.3135
864,0.0,0.0,0.0,0.0,0.0,0.0,-0.0441,0.8540,-0.3493,-0.2863,-0.3695,0.8264,0.3140
865,0.0,0.0,0.0,0.0,0.0,0.0,-0.0168,0.8662,-0.3491,-0.2872,-0.3719,0.8250,0.3138
866,0.0,0.0,0.0,0.0,0.0,0.0,-0.0284,0.8926,-0.3258,-0.2887,-0.3736,0.8243,0.3125
867,0.0,0.0,0.0,0.0,0.0,0.0,-0.0551,0.9138,-0.3572,-0.2896,-0.3758,0.8235,0.3110
868,0.0,0.0,0.0,0.0,0.0,0.0,-0.0253,0.8356,-0.3729,-0.2898,-0.3781,0.8229,0.3098
869,0.0,0.0,0.0,0.0,0.0,0.0,-0.0511,0.8990,-0.3010,-0.2908,-0.3784,0.8237,0.3061
870,0.0,0.0,0.0,0.0,0.0,0.0,-0.0446,0.9676,-0.2683,-0.2926,-0.3783,0.8243,0.3030
871,0.0,0.0,0.0,0.0,0.0,0.0,-0.1943,0.8872,-0.3152,-0.2908,-0.3826,0.8237,0.3010
872,0.0,0.0,0.0,0.0,0.0,0.0,-0.0800,0.7333,-0.3839,-0.2885,-0.3855,0.8251,0.2956
873,0.0,0.0,0.0,0.0,0.0,0.0,-0.0738,0.7400,-0.3648,-0.2863,-0.3859,0.8292,0.2854
874,0.0,0.0,0.0,0.0,0.0,0.0,-0.0569,0.9279,-0.3210,-0.2839,-0.3847,0.8341,0.2752
875,0.0,0.0,0.0,0.0,0.0,0.0,-0.0731,1.2381,-0.3158,-0.2844,-0.3833,0.8374,0.2664
876,0.0,0.0,0.0,0.0,0.0,0.0,-0.0830,1.3272,-0.2994,-0.2891,-0.3839,0.8371,0.2613
877,0.0,0.0,0.0,0.0,0.0,0.0,-0.1937,1.3320,-0.3259,-0.2976,-0.3860,0.8313,0.2670
878,0.0,0.0,0.0,0.0,0.0,0.0,-0.1531,1.1543,-0.3557,-0.3042,-0.3861,0.8245,0.2803
879,0.0,0.0,0.0,0.0,0.0,0.0,0.0362,1.0279,-0.3192,-0.3069,-0.3815,0.8229,0.2881
880,0.0,0.0,0.0,0.0,0.0,0.0,0.0528,0.6607,-0.3044,-0.3067,-0.3799,0.8242,0.2869
881,0.0,0.0,0.0,0.0,0.0,0.0,0.0606,0.6231,-0.3550,-0.3080,-0.3821,0.8225,0.2875
882,0.0,0.0,0.0,0.0,0.0,0.0,-0.0277,0.8337,-0.3384,-0.3092,-0.3857,0.8184,0.2930
883,0.0,0.0,0.0,0.0,0.0,0.0,-0.0654,0.7553,-0.3319,-0.3081,-0.3907,0.8134,0.3014
884,0.0,0.0,0.0,0.0,0.0,0.0,-0.0262,0.7687,-0.3195,-0.3068,-0.3925,0.8090,0.3119
885,0.0,0.0,0.0,0.0,0.0,0.0,-0.0442,0.8075,-0.2625,-0.3047,-0.3910,0.8076,0.3196
886,0.0,0.0,0.0,0.0,0.0,0.0,-0.0348,0.9140,-0.2166,-0.3022,-0.3878,0.8107,0.3178
887,0.0,0.0,0.0,0.0,0.0,0.0,-0.0567,1.1904,-0.2562,-0.3012,-0.3857,0.8148,0.3107
888,0.0,0.0,0.0,0.0,0.0,0.0,-0.0629,1.0814,-0.3016,-0.3005,-0.3858,0.8167,0.3063
889,0.0,0.0,0.0,0.0,0.0,0.0,-0.0821,0.9734,-0.3194,-0.2987,-0.3846,0.8185,0.3046
890,0.0,0.0,0.0,0.0,0.0,0.0,-0.0637,0.9685,-0.3063,-0.2971,-0.3816,0.8205,0.3048
891,0.0,0.0,0.0,0.0,0.0,0.0,-0.0296,0.9016,-0.3340,-0.2958,-0.3797,0.8218,0.3050
892,0.0,0.0,0.0,0.0,0.0,0.0,-0.0267,0.8765,-0.3562,-0.2943,-0.3797,0.8233,0.3024
893,0.0,0.0,0.0,0.0,0.0,0.0,-0.0296,0.8512,-0.3591,-0.2918,-0.3802,0.8248,0.3000
894,0.0,0.0,0.0,0.0,0.0,0.0,-0.0512,0.8494,-0.3728,-0.2867,-0.3805,0.8276,0.2967
895,0.0,0.0,0.0,0.0,0.0,0.0,-0.0857,1.0202,-0.3313,-0.2802,-0.3799,0.8314,0.2932
896,0.0,0.0,0.0,0.0,0.0,0.0,-0.0738,1.1565,-0.3487,-0.2770,-0.3784,0.8329,0.2939
897,0.0,0.0,0.0,0.0,0.0,0.0,-0.0439,1.2370,-0.3186,-0.2789,-0.3761,0.8322,0.2970
898,0.0,0.0,0.0,0.0,0.0,0.0,0.0041,0.9939,-0.3407,-0.2839,-0.3724,0.8301,0.3026
899,0.0,0.0,0.0,0.0,0.0,0.0,0.0219,0.8808,-0.3215,-0.2870,-0.3672,0.8299,0.3066
900,0.0,0.0,0.0,0.0,0.0,0.0,0.1296,0.8187,-0.3129,-0.2884,-0.3607,0.8336,0.3030
901,0.0,0.0,0.0,0.0,0.0,0.0,0.1200,0.8249,-0.3080,-0.2887,-0.3570,0.8369,0.2980
902,0.0,0.0,0.0,0.0,0.0,0.0,0.0360,0.9304,-0.3061,-0.2893,-0.3573,0.8378,0.2945
903,0.0,0.0,0.0,0.0,0.0,0.0,-0.0609,0.9263,-0.3303,-0.2889,-0.3610,0.8377,0.2908
904,0.0,0.0,0.0,0.0,0.0,0.0,-0.0786,0.8853,-0.3514,-0.2880,-0.3646,0.8369,0.2894
905,0.0,0.0,0.0,0.0,0.0,0.0,-0.0664,0.8578,-0.3454,-0.2867,-0.3672,0.8356,0.2910
906,0.0,0.0,0.0,0.0,0.0,0.0,-0.0509,0.8417,-0.3262,-0.2856,-0.3697,0.8331,0.2960
907,0.0,0.0,0.0,0.0,0.0,0.0,-0.0231,0.8137,-0.3251,-0.2852,-0.3718,0.8305,0.3012
908,0.0,0.0,0.0,0.0,0.0,0.0,-0.0611,0.7761,-0.3010,-0.2836,-0.3751,0.8278,0.3059
909,0.0,0.0,0.0,0.0,0.0,0.0,-0.0707,0.9097,-0.2532,-0.2826,-0.3752,0.8291,0.3032
910,0.0,0.0,0.0,0.0,0.0,0.0,-0.0650,1.0911,-0.3219,-0.2818,-0.3739,0.8341,0.2918
911,0.0,0.0,0.0,0.0,0.0,0.0,-0.1386,1.3433,-0.3416,-0.2810,-0.3734,0.8377,0.2826
912,0.0,0.0,0.0,0.0,0.0,0.0,-0.1612,1.2863,-0.3036,-0.2802,-0.3734,0.8394,0.2783
913,0.0,0.0,0.0,0.0,0.0,0.0,-0.1258,1.1891,-0.3371,-0.2785,-0.3736,0.8405,0.2763
914,0.0,0.0,0.0,0.0,0.0,0.0,-0.0965,0.9557,-0.3693,-0.2752,-0.3732,0.8415,0.2772
915,0.0,0.0,0.0,0.0,0.0,0.0,0.0241,0.5260,-0.3989,-0.2692,-0.3772,0.8419,0.2767
916,0.0,0.0,0.0,0.0,0.0,0.0,0.0002,0.6988,-0.4673,-0.2656,-0.3839,0.8397,0.2774
917,0.0,0.0,0.0,0.0,0.0,0.0,-0.0391,0.6917,-0.4442,-0.2698,-0.3912,0.8315,0.2876
918,0.0,0.0,0.0,0.0,0.0,0.0,-0.0583,0.7529,-0.4098,-0.2776,-0.3956,0.8204,0.3055
919,0.0,0.0,0.0,0.0,0.0,0.0,-0.0812,0.8792,-0.3063,-0.2858,-0.3937,0.8130,0.3200
920,0.0,0.0,0.0,0.0,0.0,0.0,-0.0946,1.0137,-0.2463,-0.2919,-0.3905,0.8100,0.3258
921,0.0,0.0,0.0,0.0,0.0,0.0,-0.0608,1.0669,-0.2342,-0.2947,-0.3887,0.8100,0.3257
922,0.0,0.0,0.0,0.0,0.0,0.0,-0.0740,1.0030,-0.2669,-0.2953,-0.3877,0.8112,0.3231
923,0.0,0.0,0.0,0.0,0.0,0.0,-0.0653,0.9522,-0.3226,-0.2934,-0.3885,0.8132,0.3189
924,0.0,0.0,0.0,0.0,0.0,0.0,-0.0183,0.8525,-0.3736,-0.2909,-0.3900,0.8150,0.3148
925,0.0,0.0,0.0,0.0,0.0,0.0,-0.0321,0.7857,-0.3859,-0.2895,-0.3925,0.8168,0.3082
926,0.0,0.0,0.0,0.0,0.0,0.0,-0.0640,0.8703,-0.3652,-0.2906,-0.3954,0.8192,0.2969
927,0.0,0.0,0.0,0.0,0.0,0.0,-0.0796,1.0637,-0.2874,-0.2902,-0.3939,0.8223,0.2907
928,0.0,0.0,0.0,0.0,0.0,0.0,-0.0372,1.1129,-0.2855,-0.2915,-0.3911,0.8247,0.2864
929,0.0,0.0,0.0,0.0,0.0,0.0,-0.0573,0.9674,-0.2859,-0.2945,-0.3898,0.8263,0.2802
930,0.0,0.0,0.0,0.0,0.0,0.0,-0.0652,0.9012,-0.2864,-0.2963,-0.3906,0.8273,0.2741
931,0.0,0.0,0.0,0.0,0.0,0.0,-0.1025,0.9635,-0.3220,-0.2948,-0.3920,0.8295,0.2671
932,0.0,0.0,0.0,0.0,0.0,0.0,-0.0641,0.9216,-0.3625,-0.2909,-0.3912,0.8344,0.2570
933,0.0,0.0,0.0,0.0,0.0,0.0,-0.0602,0.9216,-0.4028,-0.2838,-0.3855,0.8430,0.2453
934,0.0,0.0,0.0,0.0,0.0,0.0,-0.0177,0.8588,-0.4285,-0.2763,-0.3776,0.8522,0.2341
935,0.0,0.0,0.0,0.0,0.0,0.0,-0.0436,0.8614,-0.4893,-0.2708,-0.3745,0.8576,0.2259
936,0.0,0.0,0.0,0.0,0.0,0.0,-0.0461,0.6895,-0.4988,-0.2684,-0.3755,0.8586,0.2232
937,0.0,0.0,0.0,0.0,0.0,0.0,0.0030,0.5706,-0.5500,-0.2708,-0.3803,0.8546,0.2273
938,0.0,0.0,0.0,0.0,0.0,0.0,-0.0009,0.5456,-0.5704,-0.2789,-0.3922,0.8425,0.2420
939,0.0,0.0,0.0,0.0,0.0,0.0,-0.0480,0.6536,-0.5144,-0.2921,-0.4046,0.8244,0.2672
940,0.0,0.0,0.0,0.0,0.0,0.0,-0.0815,0.7914,-0.2906,-0.3032,-0.4078,0.8118,0.2876
941,0.0,0.0,0.0,0.0,0.0,0.0,-0.0489,0.8112,-0.2090,-0.3071,-0.4033,0.8127,0.2872
942,0.0,0.0,0.0,0.0,0.0,0.0,-0.0685,1.5830,-0.3323,-0.3062,-0.3974,0.8201,0.2752
943,0.0,0.0,0.0,0.0,0.0,0.0,-0.0809,1.1983,-0.2649,-0.3054,-0.3947,0.8230,0.2713
944,0.0,0.0,0.0,0.0,0.0,0.0,-0.0562,1.0247,-0.3195,-0.3043,-0.3922,0.8258,0.2676
945,0.0,0.0,0.0,0.0,0.0,0.0,-0.0607,1.1288,-0.3344,-0.3046,-0.3886,0.8277,0.2666
946,0.0,0.0,0.0,0.0,0.0,0.0,-0.0488,0.9628,-0.3457,-0.3055,-0.3855,0.8291,0.2658
947,0.0,0.0,0.0,0.0,0.0,0.0,-0.0350,0.9543,-0.3667,-0.3074,-0.3823,0.8308,0.2630
948,0.0,0.0,0.0,0.0,0.0,0.0,-0.0208,0.9542,-0.3657,-0.3094,-0.3802,0.8315,0.2613
949,0.0,0.0,0.0,0.0,0.0,0.0,-0.0089,0.9852,-0.3467,-0.3109,-0.3789,0.8314,0.2618
950,0.0,0.0,0.0,0.0,0.0,0.0,-0.0010,0.9994,-0.3397,-0.3126,-0.3777,0.8307,0.2637
951,0.0,0.0,0.0,0.0,0.0,0.0,0.0007,0.9937,-0.3266,-0.3154,-0.3761,0.8299,0.2654
952,0.0,0.0,0.0,0.0,0.0,0.0,-0.0057,1.0166,-0.3312,-0.3184,-0.3749,0.8285,0.2675
953,0.0,0.0,0.0,0.0,0.0,0.0,-0.0243,1.0032,-0.3377,-0.3205,-0.3749,0.8262,0.2722
954,0.0,0.0,0.0,0.0,0.0,0.0,-0.0489,0.9730,-0.3174,-0.3217,-0.3757,0.8232,0.2787
955,0.0,0.0,0.0,0.0,0.0,0.0,-0.0350,0.8739,-0.3047,-0.3222,-0.3771,0.8203,0.2849
956,0.0,0.0,0.0,0.0,0.0,0.0,0.0488,0.8644,-0.2818,-0.3233,-0.3764,0.8186,0.2895
957,0.0,0.0,0.0,0.0,0.0,0.0,0.0669,0.8794,-0.2878,-0.3240,-0.3757,0.8170,0.2938
958,0.0,0.0,0.0,0.0,0.0,0.0,0.0236,0.8718,-0.2876,-0.3245,-0.3763,0.8155,0.2967
959,0.0,0.0,0.0,0.0,0.0,0.0,0.0317,0.9303,-0.2920,-0.3256,-0.3768,0.8144,0.2979
960,0.0,0.0,0.0,0.0,0.0,0.0,0.0264,0.9343,-0.2861,-0.3264,-0.3774,0.8133,0.2992
961,0.0,0.0,0.0,0.0,0.0,0.0,0.0251,0.9371,-0.2739,-0.3263,-0.3776,0.8126,0.3011
962,0.0,0.0,0.0,0.0,0.0,0.0,0.0101,0.9534,-0.2757,-0.3265,-0.3778,0.8116,0.3032
963,0.0,0.0,0.0,0.0,0.0,0.0,-0.0006,0.9311,-0.2926,-0.3268,-0.3789,0.8103,0.3049
964,0.0,0.0,0.0,0.0,0.0,0.0,0.0157,0.9232,-0.2980,-0.3267,-0.3801,0.8093,0.3062
965,0.0,0.0,0.0,0.0,0.0,0.0,0.0274,0.9354,-0.2949,-0.3263,-0.3807,0.8088,0.3074
966,0.0,0.0,0.0,0.0,0.0,0.0,0.0178,0.9270,-0.2974,-0.3249,-0.3810,0.8086,0.3088
967,0.0,0.0,0.0,0.0,0.0,0.0,0.0234,0.9316,-0.2896,-0.3239,-0.3808,0.8088,0.3097
968,0.0,0.0,0.0,0.0,0.0,0.0,0.0190,0.9429,-0.2826,-0.3234,-0.3803,0.8089,0.3105
969,0.0,0.0,0.0,0.0,0.0,0.0,0.0200,0.9579,-0.2790,-0.3229,-0.3793,0.8093,0.3113
970,0.0,0.0,0.0,0.0,0.0,0.0,0.0142,0.9708,-0.2778,-0.3222,-0.3788,0.8095,0.3121
971,0.0,0.0,0.0,0.0,0.0,0.0,-0.0057,0.9618,-0.2736,-0.3213,-0.3790,0.8095,0.3127
972,0.0,0.0,0.0,0.0,0.0,0.0,-0.0149,0.9377,-0.2774,-0.3202,-0.3791,0.8097,0.3133
973,0.0,0.0,0.0,0.0,0.0,0.0,0.0066,0.9273,-0.2877,-0.3189,-0.3787,0.8103,0.3136
974,0.0,0.0,0.0,0.0,0.0,0.0,0.0244,0.9444,-0.2709,-0.3182,-0.3778,0.8110,0.3136
975,0.0,0.0,0.0,0.0,0.0,0.0,0.0192,0.9489,-0.2645,-0.3179,-0.3771,0.8115,0.3134
976,0.0,0.0,0.0,0.0,0.0,0.0,0.0063,0.9573,-0.2717,-0.3176,-0.3770,0.8119,0.3129
977,0.0,0.0,0.0,0.0,0.0,0.0,0.0026,0.9370,-0.2720,-0.3170,-0.3768,0.8123,0.3126
978,0.0,0.0,0.0,0.0,0.0,0.0,0.0050,0.9223,-0.2766,-0.3166,-0.3766,0.8129,0.3118
979,0.0,0.0,0.0,0.0,0.0,0.0,-0.0086,0.9376,-0.2842,-0.3158,-0.3769,0.8135,0.3106
980,0.0,0.0,0.0,0.0,0.0,0.0,-0.0174,0.8988,-0.2853,-0.3148,-0.3773,0.8143,0.3090
981,0.0,0.0,0.0,0.0,0.0,0.0,0.0025,0.8705,-0.3008,-0.3140,-0.3765,0.8158,0.3068
982,0.0,0.0,0.0,0.0,0.0,0.0,0.0265,0.8450,-0.2958,-0.3137,-0.3741,0.8184,0.3031
983,0.0,0.0,0.0,0.0,0.0,0.0,0.0152,0.8570,-0.2878,-0.3135,-0.3713,0.8218,0.2975
984,0.0,0.0,0.0,0.0,0.0,0.0,0.0221,0.9092,-0.2953,-0.3129,-0.3695,0.8249,0.2918
985,0.0,0.0,0.0,0.0,0.0,0.0,0.0247,0.9288,-0.3027,-0.3103,-0.3735,0.8256,0.2873
986,0.0,0.0,0.0,0.0,0.0,0.0,-0.0401,1.0233,-0.3005,-0.3092,-0.3762,0.8264,0.2828
987,0.0,0.0,0.0,0.0,0.0,0.0,-0.0583,1.0589,-0.3127,-0.3084,-0.3772,0.8279,0.2779
988,0.0,0.0,0.0,0.0,0.0,0.0,-0.0384,1.0954,-0.3169,-0.3080,-0.3780,0.8298,0.2715
989,0.0,0.0,0.0,0.0,0.0,0.0,-0.0682,1.0833,-0.3133,-0.3067,-0.3805,0.8306,0.2668
990,0.0,0.0,0.0,0.0,0.0,0.0,-0.0804,1.0824,-0.2929,-0.3047,-0.3831,0.8318,0.2619
991,0.0,0.0,0.0,0.0,0.0,0.0,-0.1037,1.0746,-0.2965,-0.3026,-0.3861,0.8335,0.2543
992,0.0,0.0,0.0,0.0,0.0,0.0,-0.1217,1.0783,-0.3271,-0.2979,-0.3885,0.8374,0.2432
993,0.0,0.0,0.0,0.0,0.0,0.0,-0.1320,1.0907,-0.3732,-0.2867,-0.3901,0.8429,0.2347
994,0.0,0.0,0.0,0.0,0.0,0.0,-0.1047,0.8700,-0.4276,-0.2643,-0.3926,0.8505,0.2294
995,0.0,0.0,0.0,0.0,0.0,0.0,-0.0356,0.7109,-0.4887,-0.2454,-0.3915,0.8577,0.2255
996,0.0,0.0,0.0,0.0,0.0,0.0,0.0183,0.6485,-0.5113,-0.2361,-0.3897,0.8611,0.2257
997,0.0,0.0,0.0,0.0,0.0,0.0,0.0046,0.5703,-0.5131,-0.2330,-0.3948,0.8597,0.2255
998,0.0,0.0,0.0,0.0,0.0,0.0,0.0030,0.5036,-0.5229,-0.2346,-0.4060,0.8526,0.2309
999,0.0,0.0,0.0,0.0,0.0,0.0,-0.0114,0.4708,-0.5472,-0.2448,-0.4228,0.8353,0.2519
1000,0.0,0.0,0.0,0.0,0.0,0.0,-0.0889,0.5810,-0.5224,-0.2627,-0.4313,0.8159,0.2816
1001,0.0,0.0,0.0,0.0,0.0,0.0,-0.0734,0.7592,-0.2872,-0.2869,-0.4165,0.8105,0.2956
1002,0.0,0.0,0.0,0.0,0.0,0.0,-0.0858,1.0114,-0.2172,-0.3057,-0.3924,0.8199,0.2834
1003,0.0,0.0,0.0,0.0,0.0,0.0,0.0353,1.7448,-0.2765,-0.3091,-0.3782,0.8292,0.2718
1004,0.0,0.0,0.0,0.0,0.0,0.0,0.0589,1.4569,-0.1778,-0.3059,-0.3731,0.8300,0.2798
1005,0.0,0.0,0.0,0.0,0.0,0.0,0.0027,1.1333,-0.2544,-0.3058,-0.3732,0.8277,0.2868
1006,0.0,0.0,0.0,0.0,0.0,0.0,0.0006,1.0406,-0.3186,-0.3089,-0.3745,0.8243,0.2913
1007,0.0,0.0,0.0,0.0,0.0,0.0,0.0392,0.6399,-0.3451,-0.3094,-0.3778,0.8216,0.2941
1008,0.0,0.0,0.0,0.0,0.0,0.0,-0.0004,0.6788,-0.3816,-0.3094,-0.3808,0.8206,0.2930
1009,0.0,0.0,0.0,0.0,0.0,0.0,0.0877,0.7618,-0.4005,-0.3091,-0.3809,0.8220,0.2894
1010,0.0,0.0,0.0,0.0,0.0,0.0,0.0481,0.7377,-0.4199,-0.3082,-0.3822,0.8229,0.2859
1011,0.0,0.0,0.0,0.0,0.0,0.0,0.1052,0.4278,-0.5602,-0.3032,-0.3845,0.8263,0.2784
1012,0.0,0.0,0.0,0.0,0.0,0.0,0.0546,0.8159,-0.3477,-0.3016,-0.3785,0.8351,0.2616
1013,0.0,0.0,0.0,0.0,0.0,0.0,-0.0451,1.2388,-0.2549,-0.3019,-0.3727,0.8407,0.2512
1014,0.0,0.0,0.0,0.0,0.0,0.0,-0.0521,1.3500,-0.1914,-0.2985,-0.3728,0.8415,0.2525
1015,0.0,0.0,0.0,0.0,0.0,0.0,-0.0672,1.3372,-0.1518,-0.2960,-0.3723,0.8410,0.2579
1016,0.0,0.0,0.0,0.0,0.0,0.0,-0.0269,1.1246,-0.2493,-0.3000,-0.3704,0.8393,0.2616
1017,0.0,0.0,0.0,0.0,0.0,0.0,-0.0016,1.0100,-0.3278,-0.3046,-0.3687,0.8373,0.2650
1018,0.0,0.0,0.0,0.0,0.0,0.0,0.0198,0.9820,-0.3681,-0.3067,-0.3688,0.8350,0.2698
1019,0.0,0.0,0.0,0.0,0.0,0.0,-0.0131,0.9402,-0.3664,-0.3096,-0.3711,0.8316,0.2738
1020,0.0,0.0,0.0,0.0,0.0,0.0,-0.0046,0.9041,-0.3348,-0.3156,-0.3730,0.8285,0.2736
1021,0.0,0.0,0.0,0.0,0.0,0.0,0.0198,0.8379,-0.3538,-0.3204,-0.3770,0.8252,0.2727
1022,0.0,0.0,0.0,0.0,0.0,0.0,-0.0211,0.8428,-0.3465,-0.3202,-0.3807,0.8238,0.2718
1023,0.0,0.0,0.0,0.0,0.0,0.0,-0.0419,0.8484,-0.3655,-0.3194,-0.3832,0.8237,0.2695
1024,0.0,0.0,0.0,0.0,0.0,0.0,-0.0532,0.8077,-0.3914,-0.3186,-0.3870,0.8243,0.2631
1025,0.0,0.0,0.0,0.0,0.0,0.0,0.0022,0.9562,-0.3656,-0.3196,-0.3895,0.8254,0.2547
1026,0.0,0.0,0.0,0.0,0.0,0.0,-0.0910,1.3328,-0.2978,-0.3228,-0.3946,0.8239,0.2475
1027,0.0,0.0,0.0,0.0,0.0,0.0,-0.0980,1.1490,-0.3440,-0.3275,-0.4006,0.8193,0.2471
1028,0.0,0.0,0.0,0.0,0.0,0.0,-0.0556,0.8576,-0.3021,-0.3269,-0.4018,0.8198,0.2442
1029,0.0,0.0,0.0,0.0,0.0,0.0,0.0032,0.5763,-0.3189,-0.3194,-0.4022,0.8240,0.2391
1030,0.0,0.0,0.0,0.0,0.0,0.0,0.0184,0.7257,-0.3964,-0.3138,-0.4045,0.8256,0.2372
1031,0.0,0.0,0.0,0.0,0.0,0.0,-0.0169,0.7615,-0.4037,-0.3122,-0.4080,0.8244,0.2377
1032,0.0,0.0,0.0,0.0,0.0,0.0,-0.0225,0.7954,-0.4003,-0.3129,-0.4110,0.8217,0.2409
1033,0.0,0.0,0.0,0.0,0.0,0.0,-0.0707,0.9282,-0.3599,-0.3127,-0.4114,0.8204,0.2448
1034,0.0,0.0,0.0,0.0,0.0,0.0,-0.0667,1.0975,-0.3184,-0.3112,-0.4087,0.8218,0.2464
1035,0.0,0.0,0.0,0.0,0.0,0.0,0.0013,1.1532,-0.3295,-0.3124,-0.4052,0.8227,0.2478
1036,0.0,0.0,0.0,0.0,0.0,0.0,-0.0621,0.9986,-0.3248,-0.3131,-0.4053,0.8218,0.2498
1037,0.0,0.0,0.0,0.0,0.0,0.0,-0.0592,0.9979,-0.3486,-0.3137,-0.4063,0.8205,0.2517
1038,0.0,0.0,0.0,0.0,0.0,0.0,-0.0266,0.9020,-0.3330,-0.3137,-0.4064,0.8195,0.2546
1039,0.0,0.0,0.0,0.0,0.0,0.0,0.0556,0.8659,-0.3275,-0.3132,-0.4059,0.8188,0.2582
1040,0.0,0.0,0.0,0.0,0.0,0.0,-0.0141,0.8855,-0.3410,-0.3120,-0.4079,0.8175,0.2607
1041,0.0,0.0,0.0,0.0,0.0,0.0,-0.0930,0.8270,-0.3416,-0.3100,-0.4118,0.8156,0.2629
1042,0.0,0.0,0.0,0.0,0.0,0.0,-0.0857,0.8122,-0.3506,-0.3084,-0.4151,0.8134,0.2665
1043,0.0,0.0,0.0,0.0,0.0,0.0,-0.0870,0.8167,-0.3539,-0.3060,-0.4158,0.8119,0.2725
1044,0.0,0.0,0.0,0.0,0.0,0.0,-0.0576,0.8588,-0.3415,-0.3037,-0.4135,0.8118,0.2790
1045,0.0,0.0,0.0,0.0,0.0,0.0,-0.0403,0.9660,-0.2999,-0.3034,-0.4094,0.8122,0.2840
1046,0.0,0.0,0.0,0.0,0.0,0.0,-0.0182,0.9957,-0.2819,-0.3052,-0.4052,0.8128,0.2864
1047,0.0,0.0,0.0,0.0,0.0,0.0,-0.0233,1.0926,-0.2751,-0.3080,-0.4024,0.8129,0.2870
1048,0.0,0.0,0.0,0.0,0.0,0.0,-0.0181,1.0740,-0.2617,-0.3108,-0.4003,0.8123,0.2887
1049,0.0,0.0,0.0,0.0,0.0,0.0,-0.0287,1.0126,-0.2481,-0.3127,-0.3988,0.8110,0.2924
1050,0.0,0.0,0.0,0.0,0.0,0.0,-0.0354,1.0273,-0.2372,-0.3150,-0.3975,0.8084,0.2989
1051,0.0,0.0,0.0,0.0,0.0,0.0,-0.0425,1.0093,-0.2244,-0.3195,-0.3966,0.8041,0.3066
1052,0.0,0.0,0.0,0.0,0.0,0.0,-0.0141,0.8913,-0.2242,-0.3259,-0.3958,0.8005,0.3102
1053,0.0,0.0,0.0,0.0,0.0,0.0,-0.0343,0.8774,-0.2522,-0.3283,-0.3956,0.7991,0.3116
1054,0.0,0.0,0.0,0.0,0.0,0.0,-0.0280,0.7872,-0.3357,-0.3250,-0.3972,0.7994,0.3123
1055,0.0,0.0,0.0,0.0,0.0,0.0,0.0441,0.7965,-0.3602,-0.3191,-0.4003,0.8016,0.3089
1056,0.0,0.0,0.0,0.0,0.0,0.0,0.0102,0.8096,-0.4462,-0.3128,-0.4042,0.8041,0.3038
1057,0.0,0.0,0.0,0.0,0.0,0.0,0.0505,0.6850,-0.4334,-0.3075,-0.4058,0.8078,0.2969
1058,0.0,0.0,0.0,0.0,0.0,0.0,0.0519,0.8459,-0.3244,-0.3053,-0.4030,0.8145,0.2843
1059,0.0,0.0,0.0,0.0,0.0,0.0,-0.0371,1.1285,-0.2551,-0.3062,-0.3996,0.8207,0.2701
1060,0.0,0.0,0.0,0.0,0.0,0.0,-0.1420,1.3497,-0.1975,-0.3088,-0.3970,0.8238,0.2616
1061,0.0,0.0,0.0,0.0,0.0,0.0,-0.0569,1.1221,-0.2650,-0.3121,-0.3956,0.8240,0.2592
1062,0.0,0.0,0.0,0.0,0.0,0.0,-0.0051,0.9565,-0.3365,-0.3134,-0.3954,0.8239,0.2583
1063,0.0,0.0,0.0,0.0,0.0,0.0,-0.0520,0.9963,-0.3540,-0.3130,-0.3948,0.8238,0.2598
1064,0.0,0.0,0.0,0.0,0.0,0.0,-0.0605,0.9519,-0.3678,-0.3152,-0.3935,0.8232,0.2610
1065,0.0,0.0,0.0,0.0,0.0,0.0,-0.0225,0.9754,-0.3722,-0.3209,-0.3910,0.8221,0.2611
1066,0.0,0.0,0.0,0.0,0.0,0.0,0.0451,1.0441,-0.3685,-0.3279,-0.3887,0.8191,0.2655
1067,0.0,0.0,0.0,0.0,0.0,0.0,0.0587,1.0140,-0.3261,-0.3327,-0.3858,0.8153,0.2752
1068,0.0,0.0,0.0,0.0,0.0,0.0,0.1174,0.9238,-0.3074,-0.3371,-0.3821,0.8116,0.2856
1069,0.0,0.0,0.0,0.0,0.0,0.0,0.0805,0.8495,-0.2571,-0.3424,-0.3797,0.8081,0.2926
1070,0.0,0.0,0.0,0.0,0.0,0.0,0.0463,0.8891,-0.2629,-0.3476,-0.3800,0.8044,0.2961
1071,0.0,0.0,0.0,0.0,0.0,0.0,0.0528,0.9077,-0.2767,-0.3522,-0.3826,0.8011,0.2963
1072,0.0,0.0,0.0,0.0,0.0,0.0,0.0204,0.8892,-0.2669,-0.3563,-0.3864,0.7998,0.2899
1073,0.0,0.0,0.0,0.0,0.0,0.0,-0.0262,0.8595,-0.3079,-0.3569,-0.3908,0.8004,0.2814
1074,0.0,0.0,0.0,0.0,0.0,0.0,0.0158,0.8514,-0.3896,-0.3543,-0.3942,0.8024,0.2742
1075,0.0,0.0,0.0,0.0,0.0,0.0,-0.0011,0.9320,-0.3169,-0.3522,-0.3946,0.8052,0.2682
1076,0.0,0.0,0.0,0.0,0.0,0.0,0.0186,1.0211,-0.2260,-0.3534,-0.3926,0.8075,0.2626
1077,0.0,0.0,0.0,0.0,0.0,0.0,0.0518,1.0197,-0.2181,-0.3559,-0.3909,0.8087,0.2578
1078,0.0,0.0,0.0,0.0,0.0,0.0,0.0155,1.0065,-0.2476,-0.3560,-0.3917,0.8088,0.2562
1079,0.0,0.0,0.0,0.0,0.0,0.0,-0.0020,0.9715,-0.2798,-0.3554,-0.3931,0.8083,0.2565
1080,0.0,0.0,0.0,0.0,0.0,0.0,-0.0023,0.9118,-0.3026,-0.3553,-0.3938,0.8080,0.2567
1081,0.0,0.0,0.0,0.0,0.0,0.0,0.0469,0.8820,-0.3340,-0.3544,-0.3947,0.8078,0.2570
1082,0.0,0.0,0.0,0.0,0.0,0.0,0.0479,0.8447,-0.3259,-0.3534,-0.3971,0.8067,0.2582
1083,0.0,0.0,0.0,0.0,0.0,0.0,0.0059,0.7658,-0.3077,-0.3525,-0.4004,0.8052,0.2591
1084,0.0,0.0,0.0,0.0,0.0,0.0,0.0150,0.6968,-0.3253,-0.3517,-0.4047,0.8029,0.2604
1085,0.0,0.0,0.0,0.0,0.0,0.0,-0.0253,0.8311,-0.2845,-0.3499,-0.4067,0.8022,0.2620
1086,0.0,0.0,0.0,0.0,0.0,0.0,0.0291,0.9894,-0.2512,-0.3495,-0.4032,0.8048,0.2601
1087,0.0,0.0,0.0,0.0,0.0,0.0,0.0507,1.1778,-0.2818,-0.3505,-0.3982,0.8088,0.2538
1088,0.0,0.0,0.0,0.0,0.0,0.0,-0.0179,1.4310,-0.2295,-0.3517,-0.3949,0.8112,0.2496
1089,0.0,0.0,0.0,0.0,0.0,0.0,-0.0461,1.3158,-0.2343,-0.3549,-0.3943,0.8091,0.2528
1090,0.0,0.0,0.0,0.0,0.0,0.0,-0.0475,0.9435,-0.3115,-0.3565,-0.3951,0.8060,0.2592
1091,0.0,0.0,0.0,0.0,0.0,0.0,-0.0098,0.8269,-0.2733,-0.3562,-0.3945,0.8054,0.2624
1092,0.0,0.0,0.0,0.0,0.0,0.0,-0.0282,0.8713,-0.3091,-0.3551,-0.3963,0.8043,0.2644
1093,0.0,0.0,0.0,0.0,0.0,0.0,-0.0016,0.8783,-0.3221,-0.3548,-0.3986,0.8029,0.2657
1094,0.0,0.0,0.0,0.0,0.0,0.0,0.0017,0.8501,-0.3352,-0.3537,-0.4031,0.8015,0.2645
1095,0.0,0.0,0.0,0.0,0.0,0.0,-0.0272,0.9358,-0.2799,-0.3523,-0.4057,0.8026,0.2591
1096,0.0,0.0,0.0,0.0,0.0,0.0,-0.0979,1.1860,-0.2466,-0.3497,-0.4067,0.8049,0.2537
1097,0.0,0.0,0.0,0.0,0.0,0.0,-0.1335,1.2033,-0.2893,-0.3448,-0.4078,0.8058,0.2559
1098,0.0,0.0,0.0,0.0,0.0,0.0,-0.0223,0.9388,-0.3246,-0.3380,-0.4080,0.8069,0.2612
1099,0.0,0.0,0.0,0.0,0.0,0.0,0.0532,0.5957,-0.3632,-0.3278,-0.4084,0.8112,0.2602
1100,0.0,0.0,0.0,0.0,0.0,0.0,0.0596,0.6667,-0.4662,-0.3188,-0.4102,0.8146,0.2579
1101,0.0,0.0,0.0,0.0,0.0,0.0,0.1214,0.5448,-0.4893,-0.3118,-0.4141,0.8156,0.2570
1102,0.0,0.0,0.0,0.0,0.0,0.0,0.0797,0.4894,-0.4976,-0.3065,-0.4225,0.8130,0.2582
1103,0.0,0.0,0.0,0.0,0.0,0.0,0.0042,0.6602,-0.4198,-0.3074,-0.4281,0.8081,0.2632
1104,0.0,0.0,0.0,0.0,0.0,0.0,-0.1278,1.1568,-0.2438,-0.3084,-0.4204,0.8122,0.2618
1105,0.0,0.0,0.0,0.0,0.0,0.0,-0.1112,1.5871,-0.2458,-0.3088,-0.4141,0.8169,0.2567
1106,0.0,0.0,0.0,0.0,0.0,0.0,-0.0969,1.1649,-0.3311,-0.3094,-0.4125,0.8157,0.2621
1107,0.0,0.0,0.0,0.0,0.0,0.0,-0.0480,0.9977,-0.3350,-0.3078,-0.4068,0.8164,0.2709
1108,0.0,0.0,0.0,0.0,0.0,0.0,0.0457,0.9899,-0.2638,-0.3057,-0.3967,0.8208,0.2747
1109,0.0,0.0,0.0,0.0,0.0,0.0,0.0248,0.9433,-0.2918,-0.3029,-0.3901,0.8248,0.2752
1110,0.0,0.0,0.0,0.0,0.0,0.0,0.0047,0.9541,-0.3082,-0.2993,-0.3869,0.8279,0.2744
1111,0.0,0.0,0.0,0.0,0.0,0.0,-0.0134,0.9414,-0.3231,-0.2966,-0.3860,0.8298,0.2730
1112,0.0,0.0,0.0,0.0,0.0,0.0,-0.0857,0.9281,-0.3225,-0.2952,-0.3866,0.8304,0.2719
1113,0.0,0.0,0.0,0.0,0.0,0.0,-0.0778,0.9190,-0.3518,-0.2937,-0.3871,0.8302,0.2733
1114,0.0,0.0,0.0,0.0,0.0,0.0,-0.0178,0.9184,-0.3697,-0.2923,-0.3877,0.8281,0.2802
1115,0.0,0.0,0.0,0.0,0.0,0.0,0.0234,0.9328,-0.3348,-0.2923,-0.3874,0.8258,0.2872
1116,0.0,0.0,0.0,0.0,0.0,0.0,-0.0019,0.9612,-0.3062,-0.2948,-0.3878,0.8229,0.2924
1117,0.0,0.0,0.0,0.0,0.0,0.0,-0.0225,0.9850,-0.2782,-0.2989,-0.3892,0.8183,0.2992
1118,0.0,0.0,0.0,0.0,0.0,0.0,-0.0165,0.9349,-0.2546,-0.3031,-0.3913,0.8122,0.3088
1119,0.0,0.0,0.0,0.0,0.0,0.0,0.0106,0.8217,-0.2427,-0.3072,-0.3933,0.8061,0.3180
1120,0.0,0.0,0.0,0.0,0.0,0.0,0.0493,0.7470,-0.2247,-0.3127,-0.3956,0.8017,0.3209
1121,0.0,0.0,0.0,0.0,0.0,0.0,-0.0166,0.7875,-0.2428,-0.3165,-0.3985,0.8009,0.3154
1122,0.0,0.0,0.0,0.0,0.0,0.0,-0.0620,0.9074,-0.2863,-0.3176,-0.4008,0.8041,0.3033
1123,0.0,0.0,0.0,0.0,0.0,0.0,-0.0615,1.0266,-0.3064,-0.3173,-0.4011,0.8088,0.2905
1124,0.0,0.0,0.0,0.0,0.0,0.0,-0.0462,0.9147,-0.3421,-0.3147,-0.4004,0.8134,0.2811
1125,0.0,0.0,0.0,0.0,0.0,0.0,-0.0099,0.8909,-0.3224,-0.3124,-0.3975,0.8187,0.2722
1126,0.0,0.0,0.0,0.0,0.0,0.0,0.0043,1.0092,-0.3225,-0.3121,-0.3936,0.8237,0.2632
1127,0.0,0.0,0.0,0.0,0.0,0.0,-0.0017,1.1102,-0.2942,-0.3133,-0.3906,0.8270,0.2554
1128,0.0,0.0,0.0,0.0,0.0,0.0,0.0113,1.0020,-0.3474,-0.3148,-0.3894,0.8287,0.2502
1129,0.0,0.0,0.0,0.0,0.0,0.0,0.0086,0.9300,-0.3636,-0.3151,-0.3882,0.8303,0.2460
1130,0.0,0.0,0.0,0.0,0.0,0.0,0.0221,0.9508,-0.3525,-0.3153,-0.3869,0.8327,0.2398
1131,0.0,0.0,0.0,0.0,0.0,0.0,0.0418,0.9569,-0.3548,-0.3173,-0.3855,0.8340,0.2350
1132,0.0,0.0,0.0,0.0,0.0,0.0,0.0058,0.9466,-0.3575,-0.3192,-0.3853,0.8343,0.2316
1133,0.0,0.0,0.0,0.0,0.0,0.0,-0.0408,0.9418,-0.3679,-0.3199,-0.3863,0.8337,0.2311
1134,0.0,0.0,0.0,0.0,0.0,0.0,-0.0033,0.9524,-0.3594,-0.3211,-0.3860,0.8327,0.2333
1135,0.0,0.0,0.0,0.0,0.0,0.0,0.0422,0.9403,-0.3536,-0.3228,-0.3848,0.8320,0.2356
1136,0.0,0.0,0.0,0.0,0.0,0.0,0.0338,0.9906,-0.3592,-0.3246,-0.3838,0.8309,0.2386
1137,0.0,0.0,0.0,0.0,0.0,0.0,0.0622,1.0048,-0.3384,-0.3279,-0.3822,0.8290,0.2435
1138,0.0,0.0,0.0,0.0,0.0,0.0,0.0278,0.9853,-0.3233,-0.3310,-0.3807,0.8263,0.2503
1139,0.0,0.0,0.0,0.0,0.0,0.0,0.0382,0.9749,-0.3107,-0.3344,-0.3790,0.8235,0.2577
1140,0.0,0.0,0.0,0.0,0.0,0.0,0.0422,0.9518,-0.3116,-0.3369,-0.3782,0.8204,0.2653
1141,0.0,0.0,0.0,0.0,0.0,0.0,0.0458,0.9290,-0.3041,-0.3387,-0.3783,0.8172,0.2727
1142,0.0,0.0,0.0,0.0,0.0,0.0,0.0455,0.8952,-0.3037,-0.3396,-0.3786,0.8143,0.2795
1143,0.0,0.0,0.0,0.0,0.0,0.0,0.0566,0.9300,-0.2720,-0.3407,-0.3778,0.8125,0.2848
1144,0.0,0.0,0.0,0.0,0.0,0.0,0.0534,0.9237,-0.2711,-0.3420,-0.3775,0.8109,0.2882
1145,0.0,0.0,0.0,0.0,0.0,0.0,0.0559,0.9098,-0.2674,-0.3432,-0.3776,0.8101,0.2888
1146,0.0,0.0,0.0,0.0,0.0,0.0,0.0247,0.8989,-0.2721,-0.3434,-0.3792,0.8097,0.2875
1147,0.0,0.0,0.0,0.0,0.0,0.0,0.0312,0.8899,-0.2761,-0.3429,-0.3811,0.8096,0.2859
1148,0.0,0.0,0.0,0.0,0.0,0.0,0.0355,0.9268,-0.2677,-0.3430,-0.3818,0.8102,0.2833
1149,0.0,0.0,0.0,0.0,0.0,0.0,0.0395,0.9416,-0.2558,-0.3442,-0.3812,0.8110,0.2803
1150,0.0,0.0,0.0,0.0,0.0,0.0,0.0482,0.9270,-0.2550,-0.3457,-0.3802,0.8124,0.2757
1151,0.0,0.0,0.0,0.0,0.0,0.0,0.0654,0.9169,-0.2741,-0.3473,-0.3789,0.8145,0.2690
1152,0.0,0.0,0.0,0.0,0.0,0.0,0.0595,0.9571,-0.2939,-0.3489,-0.3779,0.8168,0.2614
1153,0.0,0.0,0.0,0.0,0.0,0.0,0.0460,0.9879,-0.3198,-0.3494,-0.3781,0.8185,0.2552
1154,0.0,0.0,0.0,0.0,0.0,0.0,0.0684,0.9480,-0.3227,-0.3487,-0.3791,0.8197,0.2507
1155,0.0,0.0,0.0,0.0,0.0,0.0,0.0699,0.9733,-0.3214,-0.3486,-0.3797,0.8208,0.2463
1156,0.0,0.0,0.0,0.0,0.0,0.0,0.0511,1.0078,-0.3185,-0.3492,-0.3804,0.8212,0.2428
1157,0.0,0.0,0.0,0.0,0.0,0.0,0.0400,0.9965,-0.3206,-0.3497,-0.3818,0.8210,0.2407
1158,0.0,0.0,0.0,0.0,0.0,0.0,0.0394,0.9435,-0.3341,-0.3498,-0.3839,0.8204,0.2392
1159,0.0,0.0,0.0,0.0,0.0,0.0,0.0518,0.9361,-0.3303,-0.3499,-0.3856,0.8201,0.2374
1160,0.0,0.0,0.0,0.0,0.0,0.0,0.0536,0.9442,-0.3267,-0.3499,-0.3871,0.8198,0.2360
1161,0.0,0.0,0.0,0.0,0.0,0.0,0.0564,0.9280,-0.3275,-0.3501,-0.3884,0.8194,0.2347
1162,0.0,0.0,0.0,0.0,0.0,0.0,0.0429,0.9309,-0.3245,-0.3505,-0.3896,0.8191,0.2335
1163,0.0,0.0,0.0,0.0,0.0,0.0,0.0413,0.9415,-0.3113,-0.3508,-0.3908,0.8186,0.2324
1164,0.0,0.0,0.0,0.0,0.0,0.0,0.0394,0.9284,-0.3124,-0.3510,-0.3921,0.8183,0.2312
1165,0.0,0.0,0.0,0.0,0.0,0.0,0.0247,0.9397,-0.3079,-0.3512,-0.3935,0.8178,0.2302
1166,0.0,0.0,0.0,0.0,0.0,0.0,0.0231,0.9368,-0.3094,-0.3511,-0.3951,0.8173,0.2296
1167,0.0,0.0,0.0,0.0,0.0,0.0,0.0411,0.9231,-0.3213,-0.3512,-0.3965,0.8167,0.2287
1168,0.0,0.0,0.0,0.0,0.0,0.0,0.0495,0.9118,-0.3345,-0.3515,-0.3980,0.8163,0.2272
1169,0.0,0.0,0.0,0.0,0.0,0.0,0.0568,0.9260,-0.3290,-0.3518,-0.3993,0.8162,0.2249
1170,0.0,0.0,0.0,0.0,0.0,0.0,0.0340,0.9561,-0.3188,-0.3524,-0.4008,0.8160,0.2222
1171,0.0,0.0,0.0,0.0,0.0,0.0,0.0010,0.9479,-0.3045,-0.3530,-0.4024,0.8154,0.2203
1172,0.0,0.0,0.0,0.0,0.0,0.0,-0.0014,0.9493,-0.3006,-0.3534,-0.4038,0.8149,0.2189
1173,0.0,0.0,0.0,0.0,0.0,0.0,0.0097,0.9568,-0.3062,-0.3539,-0.4049,0.8145,0.2176
1174,0.0,0.0,0.0,0.0,0.0,0.0,0.0281,0.9523,-0.3116,-0.3549,-0.4056,0.8140,0.2165
1175,0.0,0.0,0.0,0.0,0.0,0.0,0.0336,0.9566,-0.3159,-0.3564,-0.4060,0.8135,0.2154
1176,0.0,0.0,0.0,0.0,0.0,0.0,0.0319,0.9509,-0.3218,-0.3581,-0.4068,0.8126,0.2144
1177,0.0,0.0,0.0,0.0,0.0,0.0,0.0213,0.9429,-0.3176,-0.3595,-0.4082,0.8115,0.2137
1178,0.0,0.0,0.0,0.0,0.0,0.0,0.0167,0.9357,-0.3134,-0.3606,-0.4096,0.8104,0.2131
1179,0.0,0.0,0.0,0.0,0.0,0.0,0.0256,0.9387,-0.3118,-0.3618,-0.4108,0.8094,0.2124
1180,0.0,0.0,0.0,0.0,0.0,0.0,0.0257,0.9416,-0.3123,-0.3630,-0.4122,0.8084,0.2118
1181,0.0,0.0,0.0,0.0,0.0,0.0,0.0230,0.9358,-0.3099,-0.3644,-0.4136,0.8072,0.2109
1182,0.0,0.0,0.0,0.0,0.0,0.0,0.0259,0.9343,-0.3100,-0.3645,-0.4143,0.8068,0.2111
1183,0.0,0.0,0.0,0.0,0.0,0.0,0.0182,0.9253,-0.3130,-0.3625,-0.4149,0.8067,0.2136
1184,0.0,0.0,0.0,0.0,0.0,0.0,0.0226,0.9251,-0.3111,-0.3614,-0.4153,0.8066,0.2150
1185,0.0,0.0,0.0,0.0,0.0,0.0,0.0302,0.9306,-0.3056,-0.3631,-0.4157,0.8060,0.2136
1186,0.0,0.0,0.0,0.0,0.0,0.0,0.0291,0.9278,-0.3091,-0.3660,-0.4173,0.8046,0.2109
1187,0.0,0.0,0.0,0.0,0.0,0.0,0.0179,0.9302,-0.3105,-0.3680,-0.4194,0.8030,0.2092
1188,0.0,0.0,0.0,0.0,0.0,0.0,0.0000,0.9337,-0.3052,-0.3687,-0.4212,0.8021,0.2082
1189,0.0,0.0,0.0,0.0,0.0,0.0,0.0080,0.9503,-0.2932,-0.3698,-0.4216,0.8016,0.2070
1190,0.0,0.0,0.0,0.0,0.0,0.0,0.0158,0.9627,-0.2891,-0.3717,-0.4218,0.8010,0.2056
1191,0.0,0.0,0.0,0.0,0.0,0.0,0.0083,0.9595,-0.2897,-0.3736,-0.4233,0.7997,0.2044
1192,0.0,0.0,0.0,0.0,0.0,0.0,0.0179,0.9548,-0.2931,-0.3757,-0.4247,0.7983,0.2031
1193,0.0,0.0,0.0,0.0,0.0,0.0,0.0192,0.9373,-0.3036,-0.3775,-0.4258,0.7971,0.2020
1194,0.0,0.0,0.0,0.0,0.0,0.0,0.0239,0.9193,-0.3180,-0.3786,-0.4268,0.7962,0.2015
1195,0.0,0.0,0.0,0.0,0.0,0.0,0.0337,0.9214,-0.3169,-0.3797,-0.4276,0.7954,0.2009
1196,0.0,0.0,0.0,0.0,0.0,0.0,0.0415,0.9332,-0.3138,-0.3816,-0.4282,0.7946,0.1994
1197,0.0,0.0,0.0,0.0,0.0,0.0,0.0409,0.9299,-0.3173,-0.3837,-0.4288,0.7937,0.1975
1198,0.0,0.0,0.0,0.0,0.0,0.0,0.0318,0.9221,-0.3276,-0.3851,-0.4298,0.7929,0.1958
1199,0.0,0.0,0.0,0.0,0.0,0.0,0.0298,0.9228,-0.3320,-0.3859,-0.4306,0.7924,0.1943
1200,0.0,0.0,0.0,0.0,0.0,0.0,0.0254,0.9356,-0.3270,-0.3867,-0.4312,0.7921,0.1926
1201,0.0,0.0,0.0,0.0,0.0,0.0,0.0269,0.9476,-0.3190,-0.3878,-0.4317,0.7918,0.1907
1202,0.0,0.0,0.0,0.0,0.0,0.0,0.0258,0.9441,-0.3137,-0.3890,-0.4324,0.7912,0.1887
1203,0.0,0.0,0.0,0.0,0.0,0.0,0.0254,0.9475,-0.3127,-0.3899,-0.4332,0.7907,0.1871
1204,0.0,0.0,0.0,0.0,0.0,0.0,0.0321,0.9550,-0.3077,-0.3908,-0.4338,0.7903,0.1860
1205,0.0,0.0,0.0,0.0,0.0,0.0,0.0341,0.9559,-0.3062,-0.3919,-0.4344,0.7897,0.1849
1206,0.0,0.0,0.0,0.0,0.0,0.0,0.0349,0.9516,-0.3140,-0.3930,-0.4353,0.7888,0.1839
1207,0.0,0.0,0.0,0.0,0.0,0.0,0.0376,0.9345,-0.3235,-0.3937,-0.4366,0.7880,0.1830
1208,0.0,0.0,0.0,0.0,0.0,0.0,0.0432,0.9262,-0.3334,-0.3942,-0.4378,0.7873,0.1821
1209,0.0,0.0,0.0,0.0,0.0,0.0,0.0343,0.9236,-0.3339,-0.3947,-0.4391,0.7865,0.1810
1210,0.0,0.0,0.0,0.0,0.0,0.0,0.0316,0.9310,-0.3324,-0.3952,-0.4402,0.7859,0.1798
1211,0.0,0.0,0.0,0.0,0.0,0.0,0.0379,0.9425,-0.3302,-0.3957,-0.4413,0.7853,0.1788
1212,0.0,0.0,0.0,0.0,0.0,0.0,0.0394,0.9424,-0.3317,-0.3961,-0.4422,0.7848,0.1778
1213,0.0,0.0,0.0,0.0,0.0,0.0,0.0420,0.9461,-0.3253,-0.3967,-0.4427,0.7845,0.1768
1214,0.0,0.0,0.0,0.0,0.0,0.0,0.0361,0.9468,-0.3233,-0.3972,-0.4434,0.7840,0.1760
1215,0.0,0.0,0.0,0.0,0.0,0.0,0.0244,0.9459,-0.3258,-0.3975,-0.4444,0.7834,0.1753
1216,0.0,0.0,0.0,0.0,0.0,0.0,0.0213,0.9542,-0.3228,-0.3976,-0.4455,0.7829,0.1748
1217,0.0,0.0,0.0,0.0,0.0,0.0,0.0235,0.9614,-0.3168,-0.3976,-0.4466,0.7823,0.1748
1218,0.0,0.0,0.0,0.0,0.0,0.0,0.0209,0.9571,-0.3189,-0.3977,-0.4476,0.7815,0.1751
1219,0.0,0.0,0.0,0.0,0.0,0.0,0.0269,0.9491,-0.3224,-0.3978,-0.4488,0.7807,0.1756
1220,0.0,0.0,0.0,0.0,0.0,0.0,0.0302,0.9441,-0.3254,-0.3979,-0.4500,0.7798,0.1763
1221,0.0,0.0,0.0,0.0,0.0,0.0,0.0365,0.9312,-0.3246,-0.3979,-0.4510,0.7791,0.1770
1222,0.0,0.0,0.0,0.0,0.0,0.0,0.0477,0.9307,-0.3240,-0.3981,-0.4516,0.7784,0.1776
1223,0.0,0.0,0.0,0.0,0.0,0.0,0.0515,0.9267,-0.3270,-0.3984,-0.4522,0.7779,0.1780
1224,0.0,0.0,0.0,0.0,0.0,0.0,0.0493,0.9200,-0.3296,-0.3988,-0.4528,0.7773,0.1781
1225,0.0,0.0,0.0,0.0,0.0,0.0,0.0420,0.9213,-0.3330,-0.3992,-0.4535,0.7767,0.1779
1226,0.0,0.0,0.0,0.0,0.0,0.0,0.0487,0.9171,-0.3311,-0.3997,-0.4540,0.7763,0.1776
1227,0.0,0.0,0.0,0.0,0.0,0.0,0.0546,0.9193,-0.3286,-0.4001,-0.4542,0.7761,0.1772
1228,0.0,0.0,0.0,0.0,0.0,0.0,0.0412,0.9272,-0.3295,-0.4003,-0.4546,0.7758,0.1766
1229,0.0,0.0,0.0,0.0,0.0,0.0,0.0370,0.9302,-0.3275,-0.4006,-0.4551,0.7756,0.1758
1230,0.0,0.0,0.0,0.0,0.0,0.0,0.0427,0.9387,-0.3235,-0.4009,-0.4554,0.7754,0.1748
1231,0.0,0.0,0.0,0.0,0.0,0.0,0.0390,0.9447,-0.3229,-0.4010,-0.4559,0.7753,0.1739
1232,0.0,0.0,0.0,0.0,0.0,0.0,0.0403,0.9525,-0.3208,-0.4012,-0.4562,0.7752,0.1732
