,Position_X,Position_Y,Position_Z,Velocity_X,Velocity_Y,Velocity_Z,Acceleration_X,Acceleration_Y,Acceleration_Z,Quaterion_0,Quaterion_1,Quaterion_2,Quaterion_3
51.0,0.0,0.0,0.0,0.0,0.0,0.0,-0.0066149188205599785,0.012768402695655823,-0.003940041176974773,1.0,0.0,0.0,0.0
52.0,0.0,0.0,0.0,0.0,0.0,0.0,-0.004185959231108427,0.009669902734458447,-0.0031168798450380564,1.0,1.3552527156068805e-20,-5.421010862427522e-20,-8.970608307015075e-20
53.0,0.0,0.0,0.0,0.0,0.0,0.0,-0.0045206304639577866,0.007118684239685535,-0.0002644699125085026,1.0,0.0,0.0,-3.4796903430691646e-20
54.0,0.0,0.0,0.0,0.0,0.0,0.0,-0.0016981613589450717,0.00475651491433382,0.0024821318220347166,1.0,1.3552527156068805e-20,1.0842021724855044e-19,5.818057556452975e-20
55.0,0.0,0.0,0.0,0.0,0.0,0.0,-0.0008486750884912908,0.0004842019407078624,0.004069359507411718,1.0,2.710505431213761e-20,-2.168404344971009e-19,-2.2552252220645747e-20
56.0,0.0,0.0,0.0,0.0,0.0,0.0,0.011269144713878632,-0.015029193833470345,0.012094419449567795,1.0,5.421010862427522e-20,-4.336808689942018e-19,-2.8904999325053e-19
57.0,0.0,0.0,0.0,0.0,0.0,0.0,0.02397916279733181,-0.03236841782927513,0.013493945822119713,1.0,-1.0842021724855044e-19,-1.0842021724855044e-19,2.9603801506537797e-19
58.0,0.0,0.0,0.0,0.0,0.0,0.0,0.002032090211287141,-0.003773550968617201,0.004665612243115902,1.0,0.0,0.0,-1.011145580784821e-19
59.0,0.0,0.0,0.0,0.0,0.0,0.0,0.0026108126621693373,-0.012849433347582817,-0.0011815506732091308,1.0,2.168404344971009e-19,0.0,-1.5151301844011297e-19
60.0,0.0,0.0,0.0,0.0,0.0,0.0,-0.006946116220206022,-0.0009956087451428175,-0.001948416349478066,1.0,-2.168404344971009e-19,-1.0842021724855044e-19,1.8634724839594607e-20
61.0,0.0,0.0,0.0,0.0,0.0,0.0,-0.0072339242324233055,0.004796414636075497,-4.993945549358614e-05,1.0,2.168404344971009e-19,0.0,1.5966571055743561e-19
62.0,0.0,0.0,0.0,0.0,0.0,0.0,-0.0042556230910122395,0.007080649491399527,-0.0003929669037461281,1.0,0.0,-2.168404344971009e-19,-2.0074680849926918e-19
63.0,0.0,0.0,0.0,0.0,0.0,0.0,-0.003882193937897682,0.016604183241724968,-0.003897168440744281,1.0,-2.168404344971009e-19,-5.421010862427522e-20,1.1434944787933055e-19
64.0,0.0,0.0,0.0,0.0,0.0,0.0,-0.003142860485240817,0.023407893255352974,-0.003396544838324189,1.0,-2.168404344971009e-19,5.421010862427522e-20,-5.738648217647885e-20
65.0,0.0,0.0,0.0,0.0,0.0,0.0,-0.0008693456184118986,0.02416255511343479,-0.0006010684301145375,1.0,2.168404344971009e-19,1.0842021724855044e-19,-4.559154838596272e-19
66.0,0.0,0.0,0.0,0.0,0.0,0.0,0.003297907765954733,0.02153349295258522,0.0021581018809229136,1.0,-2.168404344971009e-19,0.0,-2.710505431213761e-19
67.0,0.0,0.0,0.0,0.0,0.0,0.0,0.008799901232123375,0.014457067474722862,0.004798360168933868,1.0,1.0842021724855044e-19,0.0,-1.5161889755851976e-19
68.0,0.0,0.0,0.0,0.0,0.0,0.0,0.011291624046862125,0.008467481471598148,0.005954280029982328,1.0,0.0,0.0,1.4801900753268898e-19
69.0,0.0,0.0,0.0,0.0,0.0,0.0,0.014850308187305927,0.0031520184129476547,0.005662495270371437,1.0,5.421010862427522e-20,2.168404344971009e-19,2.7740329022578336e-20
70.0,0.0,0.0,0.0,0.0,0.0,0.0,0.01571360044181347,0.0003088474622927606,0.0042021614499390125,1.0,-5.421010862427522e-20,-2.168404344971009e-19,4.235164736271502e-21
71.0,0.0,0.0,0.0,0.0,0.0,0.0,0.012147308327257633,-0.0018805412109941244,0.00042955693788826466,1.0,0.0,0.0,6.776263578034403e-21
72.0,0.0,0.0,0.0,0.0,0.0,0.0,0.008221791125833988,0.0004556013736873865,-0.0041078669019043446,1.0,1.0842021724855044e-19,8.673617379884035e-19,2.456395547037471e-20
73.0,0.0,0.0,0.0,0.0,0.0,0.0,0.002248561941087246,0.006522482261061668,-0.007758917286992073,1.0,-1.0842021724855044e-19,0.0,-2.1260526976082939e-19
74.0,0.0,0.0,0.0,0.0,0.0,0.0,2.3335985588346375e-06,0.00869299191981554,-0.008668861351907253,1.0,0.0,-4.336808689942018e-19,2.371692252312041e-19
75.0,0.0,0.0,0.0,0.0,0.0,0.0,-0.0010197414085268974,0.011472010053694248,-0.008602031506597996,1.0,2.168404344971009e-19,8.673617379884035e-19,7.030373462210693e-20
76.0,0.0,0.0,0.0,0.0,0.0,0.0,-0.00025483648641966283,0.014005579054355621,-0.0036093094386160374,1.0,-2.168404344971009e-19,4.336808689942018e-19,1.9735867671025198e-19
77.0,0.0,0.0,0.0,0.0,0.0,0.0,0.0010780913289636374,0.015486097894608974,0.0017179552232846618,1.0,0.0,0.0,-1.122318655111948e-19
78.0,0.0,0.0,0.0,0.0,0.0,0.0,0.0008994130184873939,0.017314640805125237,0.004068991169333458,1.0,-6.776263578034403e-21,4.336808689942018e-19,-1.198551620364835e-19
79.0,0.0,0.0,0.0,0.0,0.0,0.0,0.0008228019578382373,0.016400394961237907,0.0019970086868852377,1.0,5.421010862427522e-20,-4.336808689942018e-19,-5.463362509790237e-20
80.0,0.0,0.0,0.0,0.0,0.0,0.0,0.0009702131501398981,0.016464166343212128,0.0012368321185931563,1.0,-1.0842021724855044e-19,4.336808689942018e-19,-5.082197683525802e-21
81.0,0.0,0.0,0.0,0.0,0.0,0.0,0.0026230495423078537,0.014810482040047646,0.005715989042073488,1.0,1.0842021724855044e-19,-4.336808689942018e-19,2.795208725939191e-20
82.0,0.0,0.0,0.0,0.0,0.0,0.0,0.0021949096117168665,0.014945534989237785,0.005237316247075796,1.0,-2.168404344971009e-19,-4.336808689942018e-19,2.371692252312041e-20
83.0,0.0,0.0,0.0,0.0,0.0,0.0,0.001602857024408877,0.01504941750317812,0.0016528923297300935,1.0,4.336808689942018e-19,0.0,-4.2351647362715017e-20
84.0,0.0,0.0,0.0,0.0,0.0,0.0,0.0029025855474174023,0.014778617769479752,0.001871034619398415,1.0,2.168404344971009e-19,0.0,8.470329472543003e-21
85.0,0.0,0.0,0.0,0.0,0.0,0.0,0.0023931723553687334,0.014376976527273655,0.002587365685030818,1.0,-4.336808689942018e-19,2.168404344971009e-19,-6.945670167485263e-20
86.0,0.0,0.0,0.0,0.0,0.0,0.0,0.0005605991464108229,0.015199340879917145,0.0006345689762383699,1.0,0.0,-2.168404344971009e-19,1.3552527156068805e-20
87.0,0.0,0.0,0.0,0.0,0.0,0.0,-0.0015104651683941483,0.014376647770404816,-0.003836707677692175,1.0,0.0,-2.168404344971009e-19,1.3213713977167085e-19
88.0,0.0,0.0,0.0,0.0,0.0,0.0,-0.0022324540186673403,0.012667565606534481,-0.003576066577807069,1.0,6.505213034913027e-19,-2.168404344971009e-19,-4.743384504624082e-20
89.0,0.0,0.0,0.0,0.0,0.0,0.0,0.0012133731506764889,0.010268491692841053,0.0011866192799061537,1.0,0.0,2.168404344971009e-19,2.1006417091906648e-19
90.0,0.0,0.0,0.0,0.0,0.0,0.0,0.02523171529173851,-0.024239705875515938,0.0132769625633955,1.0,0.0,4.336808689942018e-19,-4.573977915173222e-20
91.0,0.0,0.0,0.0,0.0,0.0,0.0,0.006297568790614605,0.003329556668177247,0.008758805692195892,1.0,-2.168404344971009e-19,4.336808689942018e-19,-1.4907779871675686e-19
92.0,0.0,0.0,0.0,0.0,0.0,0.0,0.0015131779946386814,-0.0008915167418308556,-0.0052685788832604885,1.0,-2.168404344971009e-19,-4.336808689942018e-19,2.0328790734103208e-20
93.0,0.0,0.0,0.0,0.0,0.0,0.0,-0.0005891905748285353,-0.0038131296169012785,-0.005297473166137934,1.0,0.0,0.0,-2.710505431213761e-20
94.0,0.0,0.0,0.0,0.0,0.0,0.0,-0.008323132991790771,0.009438675828278065,-0.0075791748240590096,1.0,-1.0842021724855044e-19,0.0,-1.7618285302889447e-19
95.0,0.0,0.0,0.0,0.0,0.0,0.0,-0.00823013111948967,0.01267169788479805,-0.008486519567668438,1.0,1.0842021724855044e-19,-8.673617379884035e-19,-2.439454888092385e-19
96.0,0.0,0.0,0.0,0.0,0.0,0.0,-0.007622286211699247,0.01789715327322483,-0.0053319502621889114,1.0,-1.0842021724855044e-19,-8.673617379884035e-19,5.082197683525802e-21
97.0,0.0,0.0,0.0,0.0,0.0,0.0,-0.005042583681643009,0.019130568951368332,-0.002310565672814846,1.0,-2.168404344971009e-19,0.0,1.9820570965750628e-19
98.0,0.0,0.0,0.0,0.0,0.0,0.0,-0.004119688645005226,0.01760302670300007,-0.003657158464193344,1.0,-2.168404344971009e-19,0.0,4.743384504624082e-20
99.0,0.0,0.0,0.0,0.0,0.0,0.0,0.0037457665894180536,0.008925690315663815,0.005210036877542734,1.0,4.336808689942018e-19,-2.168404344971009e-19,-5.72594272343907e-19
100.0,0.0,0.0,0.0,0.0,0.0,0.0,0.010555507615208626,-0.0012648976407945156,0.00921470858156681,1.0,0.0,2.168404344971009e-19,1.0503208545953324e-18
101.0,0.0,0.0,0.0,0.0,0.0,0.0,0.011625480838119984,-0.009411794133484364,0.003640734124928713,1.0,-2.168404344971009e-19,-2.168404344971009e-19,1.3552527156068805e-20
102.0,0.0,0.0,0.0,0.0,0.0,0.0,0.009692071937024593,-0.006532413884997368,0.0015904692700132728,1.0,2.168404344971009e-19,0.0,-6.06475590234079e-19
103.0,0.0,0.0,0.0,0.0,0.0,0.0,0.006729045417159796,-0.005166988354176283,-5.87441936659161e-05,1.0,0.0,-2.168404344971009e-19,-1.3383120566617945e-19
104.0,0.0,0.0,0.0,0.0,0.0,0.0,0.0009311831090599298,0.0011983963195234537,-0.0036696281749755144,1.0,2.168404344971009e-19,-2.168404344971009e-19,1.4738373282224826e-19
105.0,0.0,0.0,0.0,0.0,0.0,0.0,-0.0025144636165350676,0.009003475308418274,-0.003061187220737338,1.0,-2.168404344971009e-19,-4.336808689942018e-19,-6.606856988583543e-20
106.0,0.0,0.0,0.0,0.0,0.0,0.0,-0.0029299461748450994,0.012693431228399277,-0.002137854229658842,1.0,2.168404344971009e-19,2.168404344971009e-19,-5.8106460181645e-19
107.0,0.0,0.0,0.0,0.0,0.0,0.0,-0.0028021351899951696,0.013999765738844872,-0.0015904007013887167,1.0,-4.336808689942018e-19,2.168404344971009e-19,-2.354751593366955e-19
108.0,0.0,0.0,0.0,0.0,0.0,0.0,-0.0013396916911005974,0.013065106235444546,-0.00040909837116487324,1.0,-2.168404344971009e-19,0.0,2.862971361719535e-19
109.0,0.0,0.0,0.0,0.0,0.0,0.0,-0.0005951718194410205,0.010527728125452995,-0.0017615245888009667,1.0,4.336808689942018e-19,2.168404344971009e-19,-2.846030702774449e-19
110.0,0.0,0.0,0.0,0.0,0.0,0.0,-0.0016967430710792542,0.00862284004688263,-0.0022709164768457413,1.0,-2.168404344971009e-19,2.168404344971009e-19,1.1011428314305904e-19
111.0,0.0,0.0,0.0,0.0,0.0,0.0,0.0005043608252890408,0.007760499604046345,-0.0006852333899587393,1.0,0.0,0.0,-1.4907779871675686e-19
112.0,0.0,0.0,0.0,0.0,0.0,0.0,0.0003312031622044742,0.005908353254199028,0.0013483690563589334,1.0,0.0,4.336808689942018e-19,8.385626177817573e-19
113.0,0.0,0.0,0.0,0.0,0.0,0.0,-0.0003294606867711991,0.00554064754396677,0.002003996865823865,1.0,-4.336808689942018e-19,0.0,-5.13301966036106e-19
114.0,0.0,0.0,0.0,0.0,0.0,0.0,1.3440519978757948e-05,0.006251167971640825,0.003277991898357868,1.0,0.0,2.168404344971009e-19,-5.912289971835016e-19
115.0,0.0,0.0,0.0,0.0,0.0,0.0,-6.417967142624548e-06,0.0032688600476831198,0.0026049616280943155,1.0,-8.673617379884035e-19,0.0,4.811147140404426e-19
116.0,0.0,0.0,0.0,0.0,0.0,0.0,-0.0033198590390384197,0.0031675496138632298,0.002241545356810093,1.0,0.0,0.0,4.658681209898652e-19
117.0,0.0,0.0,0.0,0.0,0.0,0.0,-0.005218333099037409,0.0009587040985934436,-0.0010474203154444695,1.0,4.336808689942018e-19,-2.168404344971009e-19,-1.8143445730187113e-18
118.0,0.0,0.0,0.0,0.0,0.0,0.0,-0.005852311849594116,0.003643312957137823,-0.004494226537644863,1.0,4.336808689942018e-19,2.168404344971009e-19,-3.032377951170395e-19
119.0,0.0,0.0,0.0,0.0,0.0,0.0,-0.006027136463671923,0.004618797916918993,-0.005745836067944765,1.0,2.168404344971009e-19,2.168404344971009e-19,1.5415999640028266e-19
120.0,0.0,0.0,0.0,0.0,0.0,0.0,-0.00600008899345994,0.0046478998847305775,-0.0016704545123502612,1.0,-4.336808689942018e-19,2.168404344971009e-19,1.506024580218146e-18
121.0,0.0,0.0,0.0,0.0,0.0,0.0,-0.0022173498291522264,0.002659775549545884,0.0024536200799047947,1.0,2.168404344971009e-19,0.0,-5.929230630780102e-19
122.0,0.0,0.0,0.0,0.0,0.0,0.0,0.017924927175045013,-0.023287082090973854,0.013586150482296944,1.0,0.0,-4.336808689942018e-19,4.946672411965114e-19
123.0,0.0,0.0,0.0,0.0,0.0,0.0,0.026039808988571167,-0.046279892325401306,0.009192563593387604,1.0,2.168404344971009e-19,0.0,-5.912289971835016e-19
124.0,0.0,0.0,0.0,0.0,0.0,0.0,-0.0033234693109989166,-8.605329639976844e-05,-0.008810793049633503,1.0,0.0,0.0,1.285796013932028e-18
125.0,0.0,0.0,0.0,0.0,0.0,0.0,0.008996931836009026,-0.03040916845202446,-0.004437170457094908,1.0,0.0,0.0,-9.656175598699024e-20
126.0,0.0,0.0,0.0,0.0,0.0,0.0,-0.0046484204940497875,-0.01410912536084652,-0.007704602554440498,1.0,-2.168404344971009e-19,0.0,1.9820570965750628e-19
127.0,0.0,0.0,0.0,0.0,0.0,0.0,-0.007752962410449982,-0.009071829728782177,-0.009951841086149216,1.0,0.0,-4.336808689942018e-19,-2.456395547037471e-19
128.0,0.0,0.0,0.0,0.0,0.0,0.0,-0.0061613451689481735,-0.0055542197078466415,-0.008841746486723423,1.0,-1.3552527156068805e-20,4.336808689942018e-19,-3.3171927796846537e-19
129.0,0.0,0.0,0.0,0.0,0.0,0.0,-0.005095331929624081,-0.005087450612336397,-0.007114437408745289,1.0,-2.710505431213761e-20,0.0,-9.183954730604751e-19
130.0,0.0,0.0,0.0,0.0,0.0,0.0,0.0013290822971612215,-0.00835930835455656,-0.001412371639162302,1.0,5.421010862427522e-20,-4.336808689942018e-19,-2.329340604949326e-20
131.0,0.0,0.0,0.0,0.0,0.0,0.0,0.007957392372190952,-0.01825595460832119,0.003442576853558421,1.0,0.0,0.0,-3.9810548520952116e-19
132.0,0.0,0.0,0.0,0.0,0.0,0.0,0.006126049440354109,-0.024042226374149323,-0.0007680870476178825,1.0,-1.0842021724855044e-19,4.336808689942018e-19,6.564505341220828e-19
133.0,0.0,0.0,0.0,0.0,0.0,0.0,0.006413616240024567,-0.024772223085165024,-0.0031006913632154465,1.0,-1.0842021724855044e-19,-4.336808689942018e-19,5.421010862427522e-20
134.0,0.0,0.0,0.0,0.0,0.0,0.0,0.005557823460549116,-0.027051623910665512,-0.0035054089967161417,1.0,-4.336808689942018e-19,-4.336808689942018e-19,-2.0837010502455788e-19
135.0,0.0,0.0,0.0,0.0,0.0,0.0,0.00013879119069315493,-0.017104443162679672,-0.009072759188711643,1.0,0.0,4.336808689942018e-19,-5.116079001415974e-19
136.0,0.0,0.0,0.0,0.0,0.0,0.0,-0.0036689001135528088,-0.0069071268662810326,-0.005507522262632847,1.0,-2.168404344971009e-19,-8.673617379884035e-19,-3.8963515573697816e-19
137.0,0.0,0.0,0.0,0.0,0.0,0.0,-0.005836291704326868,-0.0013422922929748893,-0.007021971512585878,1.0,-2.168404344971009e-19,-8.673617379884035e-19,5.421010862427522e-20
138.0,0.0,0.0,0.0,0.0,0.0,0.0,-0.0062759858556091785,0.006565230432897806,-0.008365126326680183,1.0,4.336808689942018e-19,-4.336808689942018e-19,-1.0503208545953324e-19
139.0,0.0,0.0,0.0,0.0,0.0,0.0,-0.0035542419645935297,0.01330393087118864,-0.0004335898847784847,1.0,8.673617379884035e-19,4.336808689942018e-19,4.0996394647108136e-19
140.0,0.0,0.0,0.0,0.0,0.0,0.0,0.0010108421556651592,0.013698327355086803,0.0064482674933969975,1.0,0.0,4.336808689942018e-19,-1.0537089863843496e-18
141.0,0.0,0.0,0.0,0.0,0.0,0.0,0.0033400550018996,0.011523398570716381,0.006204632110893726,1.0,-4.336808689942018e-19,4.336808689942018e-19,3.7269449679189215e-20
142.0,0.0,0.0,0.0,0.0,0.0,0.0,-0.00030554053955711424,0.007902541197836399,-0.0009369330364279449,1.0,4.336808689942018e-19,4.336808689942018e-19,2.303929616531697e-19
143.0,0.0,0.0,0.0,0.0,0.0,0.0,-0.0026770897675305605,0.003836773568764329,-0.003787955967709422,1.0,-8.673617379884035e-19,0.0,-4.743384504624082e-20
144.0,0.0,0.0,0.0,0.0,0.0,0.0,-0.0022314623929560184,0.006193819921463728,-0.0010719755664467812,1.0,4.336808689942018e-19,-8.673617379884035e-19,8.809142651444724e-20
145.0,0.0,0.0,0.0,0.0,0.0,0.0,-0.0033211244735866785,0.006278081331402063,-0.0031709454488009214,1.0,-8.673617379884035e-19,0.0,4.0657581468206416e-20
146.0,0.0,0.0,0.0,0.0,0.0,0.0,0.0013391883112490177,0.006791546009480953,-0.0014205325860530138,1.0,-8.673617379884035e-19,-4.336808689942018e-19,3.3881317890172014e-20
147.0,0.0,0.0,0.0,0.0,0.0,0.0,4.545476986095309e-05,0.010001588612794876,-0.0033344156108796597,1.0,-8.673617379884035e-19,8.673617379884035e-19,-8.131516293641283e-20
148.0,0.0,0.0,0.0,0.0,0.0,0.0,-0.001645276672206819,0.011354071088135242,-0.00011622020974755287,1.0,0.0,0.0,2.710505431213761e-20
149.0,0.0,0.0,0.0,0.0,0.0,0.0,-0.002738808048889041,0.014268494211137295,0.0029543312266469,1.0,0.0,0.0,-4.0657581468206416e-20
150.0,0.0,0.0,0.0,0.0,0.0,0.0,-0.0025707189925014973,0.008611571043729782,0.004961200524121523,1.0,-2.6020852139652106e-18,0.0,-2.168404344971009e-19
151.0,0.0,0.0,0.0,0.0,0.0,0.0,-0.005633368622511625,0.004458607640117407,-0.0014794099843129516,1.0,0.0,-8.673617379884035e-19,3.2526065174565133e-19
152.0,0.0,0.0,0.0,0.0,0.0,0.0,-0.008397537283599377,0.015661505982279778,-0.0021875363308936357,1.0,0.0,-1.734723475976807e-18,8.131516293641283e-20
153.0,0.0,0.0,0.0,0.0,0.0,0.0,-0.016124239191412926,0.029124967753887177,-0.0003896014823112637,1.0,0.0,8.673617379884035e-19,6.776263578034403e-19
154.0,0.0,0.0,0.0,0.0,0.0,0.0,-0.02516394667327404,0.039066340774297714,-0.0023146753665059805,1.0,1.734723475976807e-18,-8.673617379884035e-19,-1.6263032587282567e-19
155.0,0.0,0.0,0.0,0.0,0.0,0.0,-0.019830185920000076,0.030926669016480446,-0.002062474610283971,1.0,0.0,8.673617379884035e-19,8.131516293641283e-20
156.0,0.0,0.0,0.0,0.0,0.0,0.0,-0.017520753666758537,0.027753112837672234,-0.0022707395255565643,1.0,0.0,8.673617379884035e-19,-8.131516293641283e-20
157.0,0.0,0.0,0.0,0.0,0.0,0.0,-0.016719799488782883,0.033297810703516006,0.005262944381684065,1.0,3.469446951953614e-18,0.0,4.607859233063394e-19
158.0,0.0,0.0,0.0,0.0,0.0,0.0,-0.012231067754328251,0.03967903554439545,0.009952417574822903,1.0,-1.734723475976807e-18,-8.673617379884035e-19,-1.2197274440461925e-18
159.0,0.0,0.0,0.0,0.0,0.0,0.0,0.0021256583277136087,0.01381768099963665,0.005571564193814993,1.0,0.0,0.0,-7.318364664277155e-19
160.0,0.0,0.0,0.0,0.0,0.0,0.0,0.00949852541089058,-0.009725462645292282,-0.0017918921075761318,1.0,0.0,0.0,1.5449880957918438e-18
161.0,0.0,0.0,0.0,0.0,0.0,0.0,0.011179291643202305,-0.01318231038749218,0.0039705983363091946,1.0,-5.204170427930421e-18,-8.673617379884035e-19,1.3552527156068805e-19
162.0,0.0,0.0,0.0,0.0,0.0,0.0,0.020064091309905052,-0.024870380759239197,0.007166884373873472,1.0,0.0,-4.336808689942018e-19,2.656295322589486e-18
163.0,0.0,0.0,0.0,0.0,0.0,0.0,0.019771264865994453,-0.02667117677628994,0.008498777635395527,1.0,1.734723475976807e-18,0.0,2.032879073410321e-18
164.0,0.0,0.0,0.0,0.0,0.0,0.0,0.0195330698043108,-0.02953697368502617,0.01809927262365818,1.0,1.734723475976807e-18,0.0,-4.0657581468206416e-19
165.0,0.0,0.0,0.0,0.0,0.0,0.0,0.011419008485972881,-0.03989693894982338,0.014723800122737885,1.0,0.0,-8.673617379884035e-19,2.710505431213761e-20
166.0,0.0,0.0,0.0,0.0,0.0,0.0,0.0043702260591089725,-0.0437423475086689,0.013662979006767273,1.0,-1.734723475976807e-18,-4.336808689942018e-19,2.222614453595284e-18
167.0,0.0,0.0,0.0,0.0,0.0,0.0,0.005406594835221767,-0.04829009994864464,0.008218585513532162,1.0,0.0,4.336808689942018e-19,-4.038653092508504e-18
168.0,0.0,0.0,0.0,0.0,0.0,0.0,0.009311535395681858,-0.056294992566108704,-0.002354608615860343,1.0,0.0,0.0,-9.75781955236954e-19
169.0,0.0,0.0,0.0,0.0,0.0,0.0,0.014706233516335487,-0.051437973976135254,-0.005812755320221186,1.0,0.0,-8.673617379884035e-19,5.421010862427522e-19
170.0,0.0,0.0,0.0,0.0,0.0,0.0,0.014582151547074318,-0.036214061081409454,-0.006487258244305849,1.0,-3.469446951953614e-18,0.0,-2.710505431213761e-19
171.0,0.0,0.0,0.0,0.0,0.0,0.0,0.015159264206886292,-0.031797297298908234,-0.0099013801664114,1.0,0.0,8.673617379884035e-19,1.463672932855431e-18
172.0,0.0,0.0,0.0,0.0,0.0,0.0,0.01622146926820278,-0.0317111611366272,-0.005114485509693623,1.0,-1.734723475976807e-18,-8.673617379884035e-19,4.87890977618477e-19
173.0,0.0,0.0,0.0,0.0,0.0,0.0,0.014002451673150063,-0.025935325771570206,0.00035746462526731193,1.0,1.734723475976807e-18,8.673617379884035e-19,-1.3552527156068805e-18
174.0,0.0,0.0,0.0,0.0,0.0,0.0,0.008982887491583824,-0.021760931238532066,-0.0007590377354063094,1.0,0.0,0.0,-1.8431436932253575e-18
175.0,0.0,0.0,0.0,0.0,0.0,0.0,0.0023038291838020086,-0.02023736760020256,0.0008943124557845294,1.0,1.734723475976807e-18,0.0,1.734723475976807e-18
176.0,0.0,0.0,0.0,0.0,0.0,0.0,-0.006066602189093828,-0.01936172880232334,0.0027740502264350653,1.0,0.0,-1.734723475976807e-18,1.3010426069826053e-18
177.0,0.0,0.0,0.0,0.0,0.0,0.0,-0.010789417661726475,-0.02526247501373291,0.007593134883791208,1.0,1.734723475976807e-18,-1.734723475976807e-18,-9.75781955236954e-19
178.0,0.0,0.0,0.0,0.0,0.0,0.0,-0.015906069427728653,-0.024949703365564346,0.0015651866560801864,1.0,-1.734723475976807e-18,0.0,-2.168404344971009e-19
179.0,0.0,0.0,0.0,0.0,0.0,0.0,-0.017816724255681038,-0.020039008930325508,0.0019210546743124723,1.0,0.0,1.734723475976807e-18,-4.336808689942018e-19
180.0,0.0,0.0,0.0,0.0,0.0,0.0,-0.01604137010872364,-0.014030377380549908,0.005256044678390026,1.0,0.0,3.469446951953614e-18,-6.505213034913027e-19
181.0,0.0,0.0,0.0,0.0,0.0,0.0,-0.015067607164382935,-0.008061631582677364,0.002090304624289274,1.0,0.0,-3.469446951953614e-18,-1.5178830414797062e-18
182.0,0.0,0.0,0.0,0.0,0.0,0.0,-0.012647559866309166,-0.011378375813364983,-0.005791048053652048,1.0,-3.469446951953614e-18,0.0,-4.336808689942018e-19
183.0,0.0,0.0,0.0,0.0,0.0,0.0,-0.010012139566242695,-0.010937838815152645,-0.01117592491209507,1.0,-3.469446951953614e-18,6.938893903907228e-18,-8.673617379884035e-19
184.0,0.0,0.0,0.0,0.0,0.0,0.0,-0.009213238023221493,-0.013451277278363705,-0.01669693924486637,1.0,3.469446951953614e-18,3.469446951953614e-18,0.0
185.0,0.0,0.0,0.0,0.0,0.0,0.0,-0.0026641087606549263,-0.01715361699461937,-0.01934976689517498,1.0,0.0,0.0,2.168404344971009e-19
186.0,0.0,0.0,0.0,0.0,0.0,0.0,0.0012293299660086632,-0.020922333002090454,-0.01629996858537197,1.0,3.469446951953614e-18,0.0,0.0
187.0,0.0,0.0,0.0,0.0,0.0,0.0,0.004081585444509983,-0.03245200961828232,0.0018998642917722464,1.0,-3.469446951953614e-18,0.0,0.0
188.0,0.0,0.0,0.0,0.0,0.0,0.0,-0.001151224714703858,-0.03144722431898117,0.015013848431408405,1.0,3.469446951953614e-18,0.0,0.0
189.0,0.0,0.0,0.0,0.0,0.0,0.0,-0.007043894380331039,-0.02324388548731804,0.013154854066669941,1.0,3.469446951953614e-18,0.0,-4.336808689942018e-19
190.0,0.0,0.0,0.0,0.0,0.0,0.0,-0.015816250815987587,-0.013976377435028553,0.0016543868696317077,1.0,-6.938893903907228e-18,6.938893903907228e-18,-4.336808689942018e-19
191.0,0.0,0.0,0.0,0.0,0.0,0.0,-0.029037976637482643,0.00019979669013991952,-0.008120112121105194,1.0,0.0,0.0,4.336808689942018e-19
192.0,0.0,0.0,0.0,0.0,0.0,0.0,-0.025763705372810364,-0.008537892252206802,-0.006394814234226942,1.0,-1.3877787807814457e-17,-6.938893903907228e-18,-4.336808689942018e-19
193.0,0.0,0.0,0.0,0.0,0.0,0.0,-0.0175907202064991,-0.0147335734218359,0.0026665860787034035,1.0,3.469446951953614e-18,3.469446951953614e-18,0.0
194.0,0.0,0.0,0.0,0.0,0.0,0.0,-0.02176222950220108,-0.012936330400407314,-0.01640934869647026,1.0,0.0,3.469446951953614e-18,-4.336808689942018e-19
195.0,0.0,0.0,0.0,0.0,0.0,0.0,-0.02626570500433445,-0.006163533311337233,-0.0036046449095010757,1.0,3.469446951953614e-18,6.938893903907228e-18,0.0
196.0,0.0,0.0,0.0,0.0,0.0,0.0,-0.026042845100164413,-0.009003928862512112,-0.019983438774943352,1.0,3.469446951953614e-18,-3.469446951953614e-18,4.336808689942018e-19
197.0,0.0,0.0,0.0,0.0,0.0,0.0,0.0011355594033375382,-0.03658859059214592,-0.009494439698755741,1.0,-3.469446951953614e-18,3.469446951953614e-18,-4.336808689942018e-19
198.0,0.0,0.0,0.0,0.0,0.0,0.0,0.013854051008820534,-0.047661472111940384,0.02076117880642414,1.0,6.938893903907228e-18,6.938893903907228e-18,0.0
199.0,0.0,0.0,0.0,0.0,0.0,0.0,0.0020666003692895174,-0.03945784270763397,-0.0002485717704985291,1.0,-3.469446951953614e-18,0.0,-4.336808689942018e-19
200.0,0.0,0.0,0.0,0.0,0.0,0.0,0.0008811246952973306,-0.03619273379445076,-0.005814358126372099,1.0,0.0,0.0,-8.673617379884035e-19
201.0,0.0,0.0,0.0,0.0,0.0,0.0,-0.00817049015313387,-0.017814382910728455,-0.02037019096314907,1.0,0.0,3.469446951953614e-18,-4.336808689942018e-19
202.0,0.0,0.0,0.0,0.0,0.0,0.0,-0.013890272006392479,-0.0062537360936403275,-0.028620894998311996,1.0,0.0,3.469446951953614e-18,0.0
203.0,0.0,0.0,0.0,0.0,0.0,0.0,-0.008160915225744247,-0.009968237020075321,-0.0274592824280262,1.0,6.938893903907228e-18,-1.3877787807814457e-17,1.3010426069826053e-18
204.0,0.0,0.0,0.0,0.0,0.0,0.0,0.003733256831765175,-0.010915720835328102,-0.020686673000454903,1.0,-3.469446951953614e-18,-3.469446951953614e-18,-8.673617379884035e-19
205.0,0.0,0.0,0.0,0.0,0.0,0.0,0.024647090584039688,-0.026330433785915375,-0.014865842647850513,1.0,-6.938893903907228e-18,-3.469446951953614e-18,-1.734723475976807e-18
206.0,0.0,0.0,0.0,0.0,0.0,0.0,0.03386957198381424,-0.04075708985328674,-0.002764021046459675,1.0,-3.469446951953614e-18,-3.469446951953614e-18,-4.336808689942018e-19
207.0,0.0,0.0,0.0,0.0,0.0,0.0,0.02357543259859085,-0.03584533929824829,-9.557804332871456e-06,1.0,-6.938893903907228e-18,0.0,4.336808689942018e-19
208.0,0.0,0.0,0.0,0.0,0.0,0.0,0.028422009199857712,-0.04473552480340004,0.014141527004539967,1.0,-3.469446951953614e-18,0.0,-1.3010426069826053e-18
209.0,0.0,0.0,0.0,0.0,0.0,0.0,0.032491788268089294,-0.0533834770321846,0.02991345524787903,1.0,6.938893903907228e-18,0.0,-3.0357660829594124e-18
210.0,0.0,0.0,0.0,0.0,0.0,0.0,0.0315382182598114,-0.05138370022177696,0.03209033980965614,1.0,-3.469446951953614e-18,0.0,-4.336808689942018e-19
211.0,0.0,0.0,0.0,0.0,0.0,0.0,0.02931232564151287,-0.04783244803547859,0.029883213341236115,1.0,-3.469446951953614e-18,-3.469446951953614e-18,2.168404344971009e-18
212.0,0.0,0.0,0.0,0.0,0.0,0.0,0.02553865686058998,-0.04154032841324806,0.02757267653942108,1.0,0.0,6.938893903907228e-18,2.6020852139652106e-18
213.0,0.0,0.0,0.0,0.0,0.0,0.0,0.018564853817224503,-0.026844581589102745,0.022435082122683525,1.0,0.0,0.0,2.168404344971009e-18
214.0,0.0,0.0,0.0,0.0,0.0,0.0,0.031003842130303383,-0.020282914862036705,0.039790909737348557,1.0,-3.469446951953614e-18,-3.469446951953614e-18,1.3010426069826053e-18
215.0,0.0,0.0,0.0,0.0,0.0,0.0,0.044012028723955154,-0.05017681047320366,0.03697454184293747,1.0,-6.938893903907228e-18,0.0,4.336808689942018e-18
216.0,0.0,0.0,0.0,0.0,0.0,0.0,0.022131269797682762,-0.049603935331106186,0.004188813269138336,1.0,6.938893903907228e-18,3.469446951953614e-18,-1.734723475976807e-18
217.0,0.0,0.0,0.0,0.0,0.0,0.0,0.0017175282118842006,-0.020161651074886322,-0.012542390264570713,1.0,3.469446951953614e-18,-3.469446951953614e-18,-8.673617379884035e-19
218.0,0.0,0.0,0.0,0.0,0.0,0.0,-0.005512641277164221,-0.00019508208788465708,-0.00910225324332714,1.0,-6.938893903907228e-18,0.0,-2.6020852139652106e-18
219.0,0.0,0.0,0.0,0.0,0.0,0.0,-0.003878074698150158,0.007364735938608646,0.0049825687892735004,1.0,0.0,0.0,-4.336808689942018e-18
220.0,0.0,0.0,0.0,0.0,0.0,0.0,0.015479933470487595,-0.016702348366379738,0.01312155183404684,1.0,3.469446951953614e-18,0.0,-1.5178830414797062e-18
221.0,0.0,0.0,0.0,0.0,0.0,0.0,0.027631035074591637,-0.02932857722043991,0.019279204308986664,1.0,-3.469446951953614e-18,-3.469446951953614e-18,2.8189256484623115e-18
222.0,0.0,0.0,0.0,0.0,0.0,0.0,0.011752898804843426,-0.01725982129573822,0.010645080357789993,1.0,-6.938893903907228e-18,-3.469446951953614e-18,2.3852447794681098e-18
223.0,0.0,0.0,0.0,0.0,0.0,0.0,-0.009487335570156574,0.0006728173466399312,-0.010687625035643578,1.0,-3.469446951953614e-18,-3.469446951953614e-18,3.469446951953614e-18
224.0,0.0,0.0,0.0,0.0,0.0,0.0,-0.0074258530512452126,-0.004150770138949156,-0.008905568160116673,1.0,3.469446951953614e-18,0.0,-3.469446951953614e-18
225.0,0.0,0.0,0.0,0.0,0.0,0.0,-0.01078313309699297,-0.0015219508204609156,-0.014693071134388447,1.0,0.0,0.0,1.951563910473908e-18
226.0,0.0,0.0,0.0,0.0,0.0,0.0,-0.006718006916344166,-0.005773594602942467,-0.00951333623379469,1.0,0.0,3.469446951953614e-18,-3.0357660829594124e-18
227.0,0.0,0.0,0.0,0.0,0.0,0.0,-0.0060121179558336735,1.8657357941265218e-05,-0.005623794160783291,1.0,1.0408340855860843e-17,3.469446951953614e-18,-2.8189256484623115e-18
228.0,0.0,0.0,0.0,0.0,0.0,0.0,-0.0012155490694567561,0.004299812950193882,-0.0028802247252315283,1.0,3.469446951953614e-18,3.469446951953614e-18,1.0842021724855044e-18
229.0,0.0,0.0,0.0,0.0,0.0,0.0,0.003273456357419491,0.0025109685957431793,0.002883706707507372,1.0,0.0,0.0,4.336808689942018e-19
230.0,0.0,0.0,0.0,0.0,0.0,0.0,-0.0020404928363859653,0.010396411642432213,-0.0026215340476483107,1.0,-3.469446951953614e-18,-3.469446951953614e-18,3.903127820947816e-18
231.0,0.0,0.0,0.0,0.0,0.0,0.0,-0.002843528753146529,0.013605750165879726,-0.006100872065871954,1.0,-6.938893903907228e-18,-3.469446951953614e-18,-4.336808689942018e-19
232.0,0.0,0.0,0.0,0.0,0.0,0.0,-0.00930180586874485,0.019213592633605003,-0.015220338478684425,1.0,-3.469446951953614e-18,-3.469446951953614e-18,1.951563910473908e-18
233.0,0.0,0.0,0.0,0.0,0.0,0.0,-0.012106879614293575,0.016162335872650146,-0.01837198995053768,1.0,3.469446951953614e-18,3.469446951953614e-18,8.673617379884035e-19
234.0,0.0,0.0,0.0,0.0,0.0,0.0,-0.006891628727316856,0.006440015975385904,-0.00757872499525547,1.0,-3.469446951953614e-18,0.0,2.8189256484623115e-18
235.0,0.0,0.0,0.0,0.0,0.0,0.0,-0.0025234424974769354,0.0007326792110688984,7.364794873865321e-05,1.0,-3.469446951953614e-18,0.0,6.505213034913027e-19
236.0,0.0,0.0,0.0,0.0,0.0,0.0,-0.0018460830906406045,0.001062574447132647,0.0037037255242466927,1.0,3.469446951953614e-18,0.0,2.3852447794681098e-18
237.0,0.0,0.0,0.0,0.0,0.0,0.0,5.234433774603531e-05,0.004893419798463583,0.011538596823811531,1.0,3.469446951953614e-18,0.0,1.5178830414797062e-18
238.0,0.0,0.0,0.0,0.0,0.0,0.0,-0.003145345486700535,0.006816931534558535,0.008833368308842182,1.0,0.0,-3.469446951953614e-18,-1.0842021724855044e-18
239.0,0.0,0.0,0.0,0.0,0.0,0.0,-0.01260168757289648,0.008747108280658722,-0.0072461278177797794,1.0,6.938893903907228e-18,3.469446951953614e-18,-1.0842021724855044e-18
240.0,0.0,0.0,0.0,0.0,0.0,0.0,-0.010137615725398064,0.003840912599116564,-0.0038523494731634855,1.0,3.469446951953614e-18,-3.469446951953614e-18,6.505213034913027e-19
241.0,0.0,0.0,0.0,0.0,0.0,0.0,-0.009664058685302734,0.0017200587317347527,-0.01201132033020258,1.0,0.0,0.0,4.336808689942018e-19
242.0,0.0,0.0,0.0,0.0,0.0,0.0,-0.012609204277396202,0.013904978521168232,-0.01372026652097702,1.0,-3.469446951953614e-18,3.469446951953614e-18,6.505213034913027e-19
243.0,0.0,0.0,0.0,0.0,0.0,0.0,-0.006631124299019575,0.00805237703025341,-0.0026539454702287912,1.0,1.0408340855860843e-17,-3.469446951953614e-18,4.336808689942018e-19
244.0,0.0,0.0,0.0,0.0,0.0,0.0,-0.005484435241669416,0.001883805263787508,0.003598045324906707,1.0,3.469446951953614e-18,-3.469446951953614e-18,0.0
245.0,0.0,0.0,0.0,0.0,0.0,0.0,-0.005459693726152182,-0.0069678062573075294,0.008323028683662415,1.0,-3.469446951953614e-18,3.469446951953614e-18,-8.673617379884035e-19
246.0,0.0,0.0,0.0,0.0,0.0,0.0,-0.009777198545634747,-0.011685713194310665,0.011100891046226025,1.0,6.938893903907228e-18,0.0,-4.336808689942018e-19
247.0,0.0,0.0,0.0,0.0,0.0,0.0,-0.009467191994190216,-0.010411365889012814,0.010559971444308758,1.0,6.938893903907228e-18,0.0,4.336808689942018e-19
248.0,0.0,0.0,0.0,0.0,0.0,0.0,-0.0014212217647582293,-0.015979204326868057,0.019999738782644272,1.0,0.0,0.0,0.0
249.0,0.0,0.0,0.0,0.0,0.0,0.0,-0.0009109426173381507,-0.018998559564352036,0.023667553439736366,1.0,0.0,0.0,0.0
250.0,0.0,0.0,0.0,0.0,0.0,0.0,-0.016261719167232513,-0.006856977939605713,0.002163317520171404,1.0,0.0,-6.938893903907228e-18,4.336808689942018e-19
251.0,0.0,0.0,0.0,0.0,0.0,0.0,-0.01991923339664936,-0.0031995815224945545,-0.00682821637019515,1.0,0.0,0.0,0.0
252.0,0.0,0.0,0.0,0.0,0.0,0.0,-0.015776334330439568,0.0035751922987401485,-0.004587845876812935,1.0,0.0,0.0,-4.336808689942018e-19
253.0,0.0,0.0,0.0,0.0,0.0,0.0,-0.0060742381028831005,-0.0005034290952607989,-0.0003526796936057508,1.0,3.469446951953614e-18,-3.469446951953614e-18,4.336808689942018e-19
254.0,0.0,0.0,0.0,0.0,0.0,0.0,-0.0008734915754757822,-0.012610585428774357,0.000504662690218538,1.0,3.469446951953614e-18,3.469446951953614e-18,0.0
255.0,0.0,0.0,0.0,0.0,0.0,0.0,0.0001596205693203956,-0.021210022270679474,-0.0004932276788167655,1.0,0.0,0.0,4.336808689942018e-19
256.0,0.0,0.0,0.0,0.0,0.0,0.0,-0.004959939979016781,-0.016142135486006737,-0.006165436469018459,1.0,1.0408340855860843e-17,3.469446951953614e-18,-4.336808689942018e-19
257.0,0.0,0.0,0.0,0.0,0.0,0.0,0.004196136724203825,-0.01734842360019684,0.006452976725995541,1.0,6.938893903907228e-18,0.0,0.0
258.0,0.0,0.0,0.0,0.0,0.0,0.0,0.0030640652403235435,-0.019527271389961243,0.006781405303627253,1.0,-6.938893903907228e-18,-3.469446951953614e-18,4.336808689942018e-19
259.0,0.0,0.0,0.0,0.0,0.0,0.0,0.0036288544069975615,-0.01865297369658947,0.0037344610318541527,1.0,3.469446951953614e-18,-3.469446951953614e-18,0.0
260.0,0.0,0.0,0.0,0.0,0.0,0.0,0.00744255818426609,-0.01889173872768879,0.0007393021951429546,1.0,1.0408340855860843e-17,0.0,1.734723475976807e-18
261.0,0.0,0.0,0.0,0.0,0.0,0.0,0.006291868630796671,-0.017824260517954826,0.0006252467865124345,1.0,3.469446951953614e-18,-3.469446951953614e-18,-1.3010426069826053e-18
262.0,0.0,0.0,0.0,0.0,0.0,0.0,0.0008120878483168781,-0.012152529321610928,0.002003756584599614,1.0,1.0408340855860843e-17,0.0,3.0357660829594124e-18
263.0,0.0,0.0,0.0,0.0,0.0,0.0,0.0021124323830008507,-0.013481059111654758,-0.00471271900460124,1.0,0.0,3.469446951953614e-18,0.0
264.0,0.0,0.0,0.0,0.0,0.0,0.0,0.010371116921305656,-0.02117018587887287,0.007204791065305471,1.0,6.938893903907228e-18,-3.469446951953614e-18,-8.673617379884035e-19
265.0,0.0,0.0,0.0,0.0,0.0,0.0,0.01079695113003254,-0.02035476453602314,0.00842010322958231,1.0,-3.469446951953614e-18,3.469446951953614e-18,-1.734723475976807e-18
266.0,0.0,0.0,0.0,0.0,0.0,0.0,0.0067855119705200195,-0.015406230464577675,0.003621053183451295,1.0,3.469446951953614e-18,-3.469446951953614e-18,2.168404344971009e-18
267.0,0.0,0.0,0.0,0.0,0.0,0.0,-0.0005671167746186256,-0.004575689323246479,-0.0044088298454880714,1.0,6.938893903907228e-18,0.0,4.336808689942018e-19
268.0,0.0,0.0,0.0,0.0,0.0,0.0,0.005326603073626757,-0.007233012467622757,-0.002612635726109147,1.0,3.469446951953614e-18,3.469446951953614e-18,4.336808689942018e-19
269.0,0.0,0.0,0.0,0.0,0.0,0.0,0.01057457085698843,-0.009578467346727848,0.006282281130552292,1.0,0.0,0.0,1.734723475976807e-18
270.0,0.0,0.0,0.0,0.0,0.0,0.0,0.011033430695533752,-0.0069123199209570885,0.006738778203725815,1.0,3.469446951953614e-18,0.0,-2.168404344971009e-18
271.0,0.0,0.0,0.0,0.0,0.0,0.0,0.011440773494541645,-0.011236075311899185,0.00240922044031322,1.0,0.0,-6.938893903907228e-18,-1.3010426069826053e-18
272.0,0.0,0.0,0.0,0.0,0.0,0.0,0.01066743116825819,-0.012992427684366703,-0.00023823863011784852,1.0,6.938893903907228e-18,3.469446951953614e-18,-2.6020852139652106e-18
273.0,0.0,0.0,0.0,0.0,0.0,0.0,0.007349703460931778,-0.01118438970297575,0.0006538722664117813,1.0,3.469446951953614e-18,-3.469446951953614e-18,2.168404344971009e-18
274.0,0.0,0.0,0.0,0.0,0.0,0.0,0.004712603520601988,-0.006278756074607372,0.0008695095893926919,1.0,0.0,-6.938893903907228e-18,2.168404344971009e-18
275.0,0.0,0.0,0.0,0.0,0.0,0.0,0.0029962302651256323,-0.001954582054167986,0.0008994188392534852,1.0,3.469446951953614e-18,3.469446951953614e-18,2.6020852139652106e-18
276.0,0.0,0.0,0.0,0.0,0.0,0.0,-0.0016272105276584625,0.0027339812368154526,0.0004375499556772411,1.0,0.0,3.469446951953614e-18,-8.673617379884035e-19
277.0,0.0,0.0,0.0,0.0,0.0,0.0,0.0017893057083711028,0.0010719529818743467,0.0008225743658840656,1.0,-6.938893903907228e-18,6.938893903907228e-18,-8.673617379884035e-19
278.0,0.0,0.0,0.0,0.0,0.0,0.0,0.0053527262061834335,-0.005246683955192566,0.0021283640526235104,1.0,-3.469446951953614e-18,0.0,-4.336808689942018e-19
279.0,0.0,0.0,0.0,0.0,0.0,0.0,0.0038792192935943604,-0.0067598153837025166,-0.0018750493181869388,1.0,0.0,0.0,1.3010426069826053e-18
280.0,0.0,0.0,0.0,0.0,0.0,0.0,0.005704557988792658,-0.005641203373670578,0.0003377718385308981,1.0,-3.469446951953614e-18,3.469446951953614e-18,1.734723475976807e-18
281.0,0.0,0.0,0.0,0.0,0.0,0.0,0.009479089640080929,-0.009476951323449612,0.0074173626489937305,1.0,3.469446951953614e-18,-3.469446951953614e-18,8.673617379884035e-19
282.0,0.0,0.0,0.0,0.0,0.0,0.0,0.009943987242877483,-0.01062491163611412,0.009373197332024574,1.0,3.469446951953614e-18,3.469446951953614e-18,-1.3010426069826053e-18
283.0,0.0,0.0,0.0,0.0,0.0,0.0,0.00573487626388669,-0.008504237048327923,0.009014636278152466,1.0,3.469446951953614e-18,0.0,2.6020852139652106e-18
284.0,0.0,0.0,0.0,0.0,0.0,0.0,0.00493630301207304,-0.00831025093793869,0.003986843395978212,1.0,3.469446951953614e-18,0.0,2.168404344971009e-18
285.0,0.0,0.0,0.0,0.0,0.0,0.0,0.0021660220809280872,-0.004317800514400005,0.000670200795866549,1.0,6.938893903907228e-18,3.469446951953614e-18,2.168404344971009e-18
286.0,0.0,0.0,0.0,0.0,0.0,0.0,-0.006090058479458094,0.00731265265494585,-0.00792173482477665,1.0,-3.469446951953614e-18,-3.469446951953614e-18,1.951563910473908e-18
287.0,0.0,0.0,0.0,0.0,0.0,0.0,-0.01805293746292591,0.027149738743901253,-0.016072502359747887,1.0,0.0,0.0,-6.505213034913027e-19
288.0,0.0,0.0,0.0,0.0,0.0,0.0,-0.027904510498046875,0.042586084455251694,-0.025063855573534966,1.0,3.469446951953614e-18,3.469446951953614e-18,2.168404344971009e-18
289.0,0.0,0.0,0.0,0.0,0.0,0.0,-0.017560211941599846,0.03637152537703514,-0.013462903909385204,1.0,0.0,-3.469446951953614e-18,3.469446951953614e-18
290.0,0.0,0.0,0.0,0.0,0.0,0.0,0.0016663185087963939,0.01250338926911354,-0.00514505710452795,1.0,0.0,0.0,-4.336808689942018e-19
291.0,0.0,0.0,0.0,0.0,0.0,0.0,0.01864284835755825,-0.0058217342011630535,0.007263177074491978,1.0,-6.938893903907228e-18,3.469446951953614e-18,1.0842021724855044e-18
292.0,0.0,0.0,0.0,0.0,0.0,0.0,-0.002277953317388892,0.01865232363343239,-0.0010622087866067886,1.0,0.0,1.734723475976807e-18,-4.336808689942018e-19
293.0,0.0,0.0,0.0,0.0,0.0,0.0,-0.015014002099633217,0.029034089297056198,-0.010625550523400307,1.0,-3.469446951953614e-18,-1.734723475976807e-18,-8.673617379884035e-19
294.0,0.0,0.0,0.0,0.0,0.0,0.0,-0.0002587296476121992,0.024615205824375153,0.006202161777764559,1.0,-1.0408340855860843e-17,-3.469446951953614e-18,2.8189256484623115e-18
295.0,0.0,0.0,0.0,0.0,0.0,0.0,0.013259803876280785,0.015524979680776596,0.00899724755436182,1.0,0.0,1.734723475976807e-18,-3.2526065174565133e-18
296.0,0.0,0.0,0.0,0.0,0.0,0.0,0.02495022863149643,-0.003306078026071191,0.015271276235580444,1.0,6.938893903907228e-18,1.734723475976807e-18,1.5178830414797062e-18
297.0,0.0,0.0,0.0,0.0,0.0,0.0,0.027701806277036667,-0.0013946773251518607,0.023218009620904922,1.0,-6.938893903907228e-18,-1.734723475976807e-18,3.3610267347050637e-18
298.0,0.0,0.0,0.0,0.0,0.0,0.0,0.0262557715177536,0.005715745966881514,0.020517898723483086,1.0,0.0,-1.734723475976807e-18,-4.445228907190568e-18
299.0,0.0,0.0,0.0,0.0,0.0,0.0,0.02528979443013668,0.00033687299583107233,0.008478442206978798,1.0,-3.469446951953614e-18,0.0,1.0842021724855044e-19
300.0,0.0,0.0,0.0,0.0,0.0,0.0,0.02180030196905136,0.0006726808496750891,-9.614162263460457e-05,1.0,-3.469446951953614e-18,-1.734723475976807e-18,-4.336808689942018e-18
301.0,0.0,0.0,0.0,0.0,0.0,0.0,0.019407156854867935,0.005618763621896505,0.0054697636514902115,1.0,0.0,0.0,4.7704895589362195e-18
302.0,0.0,0.0,0.0,0.0,0.0,0.0,0.013932310044765472,0.0129241356626153,0.00493320357054472,1.0,0.0,1.734723475976807e-18,-1.1926223897340549e-18
303.0,0.0,0.0,0.0,0.0,0.0,0.0,0.010042507201433182,0.017406297847628593,0.0024061589501798153,1.0,0.0,0.0,6.830473686658678e-18
304.0,0.0,0.0,0.0,0.0,0.0,0.0,0.016020845621824265,0.015800226479768753,0.0053652869537472725,1.0,6.938893903907228e-18,1.734723475976807e-18,-5.095750210681871e-18
305.0,0.0,0.0,0.0,0.0,0.0,0.0,0.019983958452939987,0.01859130524098873,0.008981607854366302,1.0,3.469446951953614e-18,-8.673617379884035e-19,4.174178364069192e-18
306.0,0.0,0.0,0.0,0.0,0.0,0.0,0.021685201674699783,0.016156084835529327,0.010315346531569958,1.0,0.0,0.0,1.0299920638612292e-18
307.0,0.0,0.0,0.0,0.0,0.0,0.0,0.02211645431816578,0.00905364379286766,0.006932222284376621,1.0,-3.469446951953614e-18,8.673617379884035e-19,-1.0842021724855044e-18
308.0,0.0,0.0,0.0,0.0,0.0,0.0,0.019988292828202248,0.01093992404639721,0.007002437021583319,1.0,0.0,-8.673617379884035e-19,1.5178830414797062e-18
309.0,0.0,0.0,0.0,0.0,0.0,0.0,0.01575271598994732,0.012436053715646267,0.0032363159116357565,1.0,1.734723475976807e-18,-8.673617379884035e-19,2.927345865710862e-18
310.0,0.0,0.0,0.0,0.0,0.0,0.0,0.0019507177639752626,0.02275862731039524,-0.005616608541458845,1.0,0.0,-8.673617379884035e-19,2.0057740190981832e-18
311.0,0.0,0.0,0.0,0.0,0.0,0.0,-0.004214596003293991,0.033432647585868835,-0.0034213829785585403,1.0,0.0,-8.673617379884035e-19,2.2768245622195593e-18
312.0,0.0,0.0,0.0,0.0,0.0,0.0,-0.001605864381417632,0.0314016118645668,-0.0025075403973460197,1.0,3.469446951953614e-18,0.0,-1.1384122811097797e-18
313.0,0.0,0.0,0.0,0.0,0.0,0.0,0.0048496718518435955,0.02574392408132553,0.001346242381259799,1.0,3.469446951953614e-18,8.673617379884035e-19,4.824699667560495e-18
314.0,0.0,0.0,0.0,0.0,0.0,0.0,-0.004490249324589968,0.040127482265233994,0.004803654737770557,1.0,0.0,0.0,4.2825985813177425e-18
315.0,0.0,0.0,0.0,0.0,0.0,0.0,-0.011764606460928917,0.04455644637346268,-0.008411762304604053,1.0,0.0,8.673617379884035e-19,-2.222614453595284e-18
316.0,0.0,0.0,0.0,0.0,0.0,0.0,-0.011237473227083683,0.04479498416185379,-0.006838552188128233,1.0,-3.469446951953614e-18,-8.673617379884035e-19,1.2468324983583301e-18
317.0,0.0,0.0,0.0,0.0,0.0,0.0,-0.011197824962437153,0.0452730767428875,-0.00092083535855636,1.0,-1.734723475976807e-18,-8.673617379884035e-19,-3.415236843329339e-18
318.0,0.0,0.0,0.0,0.0,0.0,0.0,-0.013098292984068394,0.04181259498000145,-0.00447456631809473,1.0,-1.734723475976807e-18,-1.734723475976807e-18,-1.463672932855431e-18
319.0,0.0,0.0,0.0,0.0,0.0,0.0,-0.014649655669927597,0.03905900940299034,-0.004187350627034903,1.0,1.734723475976807e-18,-8.673617379884035e-19,-1.8973538018496328e-18
320.0,0.0,0.0,0.0,0.0,0.0,0.0,-0.019627273082733154,0.050207626074552536,-0.006863235495984554,1.0,-3.469446951953614e-18,0.0,3.2526065174565133e-19
321.0,0.0,0.0,0.0,0.0,0.0,0.0,-0.008606787770986557,0.035803020000457764,-0.008502212353050709,1.0,1.734723475976807e-18,0.0,2.656295322589486e-18
322.0,0.0,0.0,0.0,0.0,0.0,0.0,-0.0020494882483035326,0.03028007782995701,0.007685140706598759,1.0,-1.734723475976807e-18,0.0,2.1141942363467336e-18
323.0,0.0,0.0,0.0,0.0,0.0,0.0,-0.006072798743844032,0.03330506384372711,0.005420150235295296,1.0,-5.204170427930421e-18,0.0,1.6263032587282567e-18
324.0,0.0,0.0,0.0,0.0,0.0,0.0,-0.006307592615485191,0.03180550038814545,0.005966419354081154,1.0,-1.734723475976807e-18,-3.469446951953614e-18,5.963111948670274e-19
325.0,0.0,0.0,0.0,0.0,0.0,0.0,-0.008376405574381351,0.03142492100596428,0.0006868357304483652,1.0,-1.734723475976807e-18,0.0,4.336808689942018e-19
326.0,0.0,0.0,0.0,0.0,0.0,0.0,-0.009216954931616783,0.03526818007230759,0.00137264933437109,1.0,-1.734723475976807e-18,-1.734723475976807e-18,1.2468324983583301e-18
327.0,0.0,0.0,0.0,0.0,0.0,0.0,-0.00569757679477334,0.028084730729460716,0.0015998968156054616,1.0,1.734723475976807e-18,-1.734723475976807e-18,-1.0842021724855044e-19
328.0,0.0,0.0,0.0,0.0,0.0,0.0,-0.0036504347808659077,0.020246097818017006,-0.003738709492608905,1.0,3.469446951953614e-18,1.734723475976807e-18,-4.336808689942018e-19
329.0,0.0,0.0,0.0,0.0,0.0,0.0,-0.0028482761699706316,0.02124597318470478,0.0001911137078423053,1.0,0.0,-1.734723475976807e-18,-5.421010862427522e-19
330.0,0.0,0.0,0.0,0.0,0.0,0.0,-0.0045448108576238155,0.026372993364930153,-0.0014318929752334952,1.0,1.734723475976807e-18,3.469446951953614e-18,-4.336808689942018e-19
331.0,0.0,0.0,0.0,0.0,0.0,0.0,0.006060650572180748,0.005356378387659788,-0.0011668812949210405,1.0,-1.734723475976807e-18,-5.204170427930421e-18,1.6263032587282567e-18
332.0,0.0,0.0,0.0,0.0,0.0,0.0,0.016532178968191147,-0.011216714978218079,0.01159907691180706,1.0,-1.734723475976807e-18,1.734723475976807e-18,-1.1926223897340549e-18
333.0,0.0,0.0,0.0,0.0,0.0,0.0,0.015177521854639053,-0.016338249668478966,0.018436387181282043,1.0,0.0,-1.734723475976807e-18,2.168404344971009e-18
334.0,0.0,0.0,0.0,0.0,0.0,0.0,-0.011738821864128113,0.012354033067822456,0.004131586290895939,1.0,0.0,1.734723475976807e-18,4.336808689942018e-19
335.0,0.0,0.0,0.0,0.0,0.0,0.0,-0.012806713581085205,0.00641702301800251,-0.003696407424286008,1.0,0.0,-3.469446951953614e-18,2.168404344971009e-18
336.0,0.0,0.0,0.0,0.0,0.0,0.0,-0.009185501374304295,0.0025476401206105947,-0.0031545262318104506,1.0,3.469446951953614e-18,-3.469446951953614e-18,4.336808689942018e-19
337.0,0.0,0.0,0.0,0.0,0.0,0.0,-0.009658326394855976,0.011514730751514435,-0.003955206833779812,1.0,6.938893903907228e-18,3.469446951953614e-18,-6.505213034913027e-19
338.0,0.0,0.0,0.0,0.0,0.0,0.0,-0.011437640525400639,0.00830000452697277,-0.013704337179660797,1.0,0.0,0.0,8.673617379884035e-19
339.0,0.0,0.0,0.0,0.0,0.0,0.0,-0.01787031814455986,0.012606929987668991,-0.012731632217764854,1.0,0.0,0.0,-2.168404344971009e-19
340.0,0.0,0.0,0.0,0.0,0.0,0.0,0.006640333216637373,-0.014894314110279083,0.0009659165516495705,1.0,-6.938893903907228e-18,-3.469446951953614e-18,1.0842021724855044e-18
341.0,0.0,0.0,0.0,0.0,0.0,0.0,0.012638389132916927,-0.022005317732691765,0.015138340182602406,1.0,0.0,-3.469446951953614e-18,-2.168404344971009e-19
342.0,0.0,0.0,0.0,0.0,0.0,0.0,-0.010653099045157433,-0.004964541643857956,-0.0034138911869376898,1.0,-3.469446951953614e-18,0.0,-1.0842021724855044e-18
343.0,0.0,0.0,0.0,0.0,0.0,0.0,-0.013451187871396542,-0.004418183583766222,-0.0073800464160740376,1.0,-1.0408340855860843e-17,-3.469446951953614e-18,1.734723475976807e-18
344.0,0.0,0.0,0.0,0.0,0.0,0.0,-0.006678442470729351,0.0005277525633573532,0.001045562094077468,1.0,0.0,3.469446951953614e-18,-4.336808689942018e-19
345.0,0.0,0.0,0.0,0.0,0.0,0.0,-0.0064375256188213825,0.0023296428844332695,0.005030632019042969,1.0,3.469446951953614e-18,0.0,-2.168404344971009e-18
346.0,0.0,0.0,0.0,0.0,0.0,0.0,-0.008983607403934002,0.0009894456015899777,0.006768489722162485,1.0,-3.469446951953614e-18,-6.938893903907228e-18,3.0357660829594124e-18
347.0,0.0,0.0,0.0,0.0,0.0,0.0,-0.03196929395198822,0.019369669258594513,-0.013533305376768112,1.0,-6.938893903907228e-18,-6.938893903907228e-18,2.168404344971009e-18
348.0,0.0,0.0,0.0,0.0,0.0,0.0,-0.03829063102602959,0.03667585551738739,-0.015128446742892265,1.0,-3.469446951953614e-18,-3.469446951953614e-18,-4.336808689942018e-19
349.0,0.0,0.0,0.0,0.0,0.0,0.0,-0.024689465761184692,0.022610008716583252,-0.003147117095068097,1.0,-3.469446951953614e-18,-3.469446951953614e-18,8.673617379884035e-19
350.0,0.0,0.0,0.0,0.0,0.0,0.0,-0.023493465036153793,0.018589822575449944,-0.007168545387685299,1.0,0.0,3.469446951953614e-18,2.168404344971009e-18
351.0,0.0,0.0,0.0,0.0,0.0,0.0,-0.011106625199317932,-0.007605342660099268,-0.015588149428367615,1.0,-3.469446951953614e-18,-3.469446951953614e-18,0.0
352.0,0.0,0.0,0.0,0.0,0.0,0.0,-0.00387902045622468,-0.027127312496304512,-0.010990521870553493,1.0,6.938893903907228e-18,0.0,-3.0357660829594124e-18
353.0,0.0,0.0,0.0,0.0,0.0,0.0,-0.007575861643999815,-0.0216244887560606,-0.006189136765897274,1.0,0.0,-3.469446951953614e-18,1.3010426069826053e-18
354.0,0.0,0.0,0.0,0.0,0.0,0.0,-0.0005754209123551846,-0.03480715677142143,0.007294509094208479,1.0,0.0,-6.938893903907228e-18,3.469446951953614e-18
355.0,0.0,0.0,0.0,0.0,0.0,0.0,0.0015438315458595753,-0.03762137517333031,0.018019260838627815,1.0,1.3877787807814457e-17,0.0,1.3010426069826053e-18
356.0,0.0,0.0,0.0,0.0,0.0,0.0,0.008467104285955429,-0.04446279630064964,0.032144300639629364,1.0,-6.938893903907228e-18,0.0,8.673617379884035e-19
357.0,0.0,0.0,0.0,0.0,0.0,0.0,-0.002804923104122281,-0.031930189579725266,0.03424045816063881,1.0,-6.938893903907228e-18,3.469446951953614e-18,-2.168404344971009e-18
358.0,0.0,0.0,0.0,0.0,0.0,0.0,-0.0033812420442700386,-0.02742088958621025,0.03989024460315704,1.0,0.0,0.0,-2.168404344971009e-18
359.0,0.0,0.0,0.0,0.0,0.0,0.0,0.007969771511852741,-0.05356646701693535,0.0416223406791687,1.0,-6.938893903907228e-18,3.469446951953614e-18,2.168404344971009e-18
360.0,0.0,0.0,0.0,0.0,0.0,0.0,0.0008130292990244925,-0.05825035646557808,0.016289178282022476,1.0,0.0,-6.938893903907228e-18,6.938893903907228e-18
361.0,0.0,0.0,0.0,0.0,0.0,0.0,-0.006019847001880407,-0.036192748695611954,0.007621182128787041,1.0,-6.938893903907228e-18,3.469446951953614e-18,-8.673617379884035e-19
362.0,0.0,0.0,0.0,0.0,0.0,0.0,-0.01232457160949707,-0.015135995112359524,0.01005464792251587,1.0,0.0,0.0,3.469446951953614e-18
363.0,0.0,0.0,0.0,0.0,0.0,0.0,-0.013109280727803707,-0.019698098301887512,0.007904394529759884,1.0,0.0,-3.469446951953614e-18,4.336808689942018e-19
364.0,0.0,0.0,0.0,0.0,0.0,0.0,-0.010676796548068523,-0.026477651670575142,0.010637770406901836,1.0,-6.938893903907228e-18,-6.938893903907228e-18,8.673617379884035e-19
365.0,0.0,0.0,0.0,0.0,0.0,0.0,-0.018881622701883316,-0.01565432734787464,0.006730407942086458,1.0,-6.938893903907228e-18,3.469446951953614e-18,-8.673617379884035e-19
366.0,0.0,0.0,0.0,0.0,0.0,0.0,-0.02078494057059288,-0.011252687312662601,0.0003425125905778259,1.0,3.469446951953614e-18,3.469446951953614e-18,8.673617379884035e-19
367.0,0.0,0.0,0.0,0.0,0.0,0.0,-0.023248575627803802,-0.00872241985052824,0.0027883872389793396,1.0,0.0,-3.469446951953614e-18,-8.673617379884035e-19
368.0,0.0,0.0,0.0,0.0,0.0,0.0,-0.031152211129665375,0.004785466473549604,-0.004401837009936571,1.0,3.469446951953614e-18,-3.469446951953614e-18,-1.734723475976807e-18
369.0,0.0,0.0,0.0,0.0,0.0,0.0,-0.034074436873197556,0.01737278141081333,-0.00566637609153986,1.0,-3.469446951953614e-18,-3.469446951953614e-18,2.168404344971009e-19
370.0,0.0,0.0,0.0,0.0,0.0,0.0,-0.03161761164665222,0.024641254916787148,-0.006618553772568703,1.0,3.469446951953614e-18,3.469446951953614e-18,-4.336808689942018e-19
371.0,0.0,0.0,0.0,0.0,0.0,0.0,-0.02416350692510605,0.02731720358133316,-0.010229026898741722,1.0,0.0,-1.734723475976807e-18,-2.168404344971009e-19
372.0,0.0,0.0,0.0,0.0,0.0,0.0,-0.018257439136505127,0.027686843648552895,-0.019824538379907608,1.0,-3.469446951953614e-18,-1.734723475976807e-18,-1.5178830414797062e-18
373.0,0.0,0.0,0.0,0.0,0.0,0.0,-0.014334717765450478,0.02673347108066082,-0.022745894268155098,1.0,1.734723475976807e-18,0.0,5.421010862427522e-19
374.0,0.0,0.0,0.0,0.0,0.0,0.0,-0.007295085117220879,0.02014617994427681,-0.018319791182875633,1.0,0.0,0.0,9.75781955236954e-19
375.0,0.0,0.0,0.0,0.0,0.0,0.0,0.0005527546745724976,0.016989411786198616,-0.009848297573626041,1.0,1.734723475976807e-18,3.469446951953614e-18,3.577867169202165e-18
376.0,0.0,0.0,0.0,0.0,0.0,0.0,0.01274053379893303,0.01604488305747509,0.004797184839844704,1.0,0.0,-3.469446951953614e-18,-7.589415207398531e-19
377.0,0.0,0.0,0.0,0.0,0.0,0.0,0.01624341867864132,0.01657409593462944,0.005920222960412502,1.0,1.734723475976807e-18,0.0,1.0842021724855044e-19
378.0,0.0,0.0,0.0,0.0,0.0,0.0,0.01682758331298828,0.017439454793930054,0.002641556551679969,1.0,1.734723475976807e-18,-3.469446951953614e-18,1.6263032587282567e-18
379.0,0.0,0.0,0.0,0.0,0.0,0.0,0.012367712333798409,0.01547443587332964,0.005339299328625202,1.0,-1.734723475976807e-18,-3.469446951953614e-18,-3.2526065174565133e-19
380.0,0.0,0.0,0.0,0.0,0.0,0.0,4.654965960071422e-05,0.023065373301506042,-0.0012270266888663173,1.0,3.469446951953614e-18,3.469446951953614e-18,1.0842021724855044e-18
381.0,0.0,0.0,0.0,0.0,0.0,0.0,-0.007437513209879398,0.02644890360534191,-0.00759284570813179,1.0,-3.469446951953614e-18,3.469446951953614e-18,-4.336808689942018e-18
382.0,0.0,0.0,0.0,0.0,0.0,0.0,-0.01036026794463396,0.02639993280172348,-0.01491188071668148,1.0,-6.938893903907228e-18,-6.938893903907228e-18,-1.0842021724855044e-18
383.0,0.0,0.0,0.0,0.0,0.0,0.0,-0.00685008242726326,0.018774354830384254,-0.02186705358326435,1.0,0.0,-3.469446951953614e-18,4.336808689942018e-19
384.0,0.0,0.0,0.0,0.0,0.0,0.0,-0.002908421214669943,0.013010353781282902,-0.022117365151643753,1.0,3.469446951953614e-18,0.0,-6.505213034913027e-19
385.0,0.0,0.0,0.0,0.0,0.0,0.0,-0.005197134334594011,0.013222981244325638,-0.021993042901158333,1.0,-3.469446951953614e-18,-6.938893903907228e-18,-1.734723475976807e-18
386.0,0.0,0.0,0.0,0.0,0.0,0.0,-0.003923031035810709,0.006565940100699663,-0.014429998584091663,1.0,3.469446951953614e-18,0.0,-4.336808689942018e-19
387.0,0.0,0.0,0.0,0.0,0.0,0.0,-0.0036598241422325373,0.0005666729412041605,-0.014073056168854237,1.0,0.0,0.0,8.673617379884035e-19
388.0,0.0,0.0,0.0,0.0,0.0,0.0,-0.003037454327568412,-0.010609974153339863,-0.014371233060956001,1.0,-3.469446951953614e-18,-3.469446951953614e-18,-4.336808689942018e-19
389.0,0.0,0.0,0.0,0.0,0.0,0.0,0.006439416203647852,-0.024249322712421417,-0.005990787874907255,1.0,-1.0408340855860843e-17,-3.469446951953614e-18,4.336808689942018e-19
390.0,0.0,0.0,0.0,0.0,0.0,0.0,0.01095760241150856,-0.03487114980816841,0.0028752866201102734,1.0,-3.469446951953614e-18,-3.469446951953614e-18,0.0
391.0,0.0,0.0,0.0,0.0,0.0,0.0,0.015030907467007637,-0.04152946546673775,0.005584599915891886,1.0,6.938893903907228e-18,0.0,8.673617379884035e-19
392.0,0.0,0.0,0.0,0.0,0.0,0.0,0.019497491419315338,-0.05038107559084892,0.009875773452222347,1.0,-6.938893903907228e-18,0.0,0.0
393.0,0.0,0.0,0.0,0.0,0.0,0.0,0.008444350212812424,-0.03735010325908661,0.015469656325876713,1.0,-6.938893903907228e-18,0.0,1.734723475976807e-18
394.0,0.0,0.0,0.0,0.0,0.0,0.0,0.00481794960796833,-0.034258075058460236,0.025868676602840424,1.0,0.0,3.469446951953614e-18,1.734723475976807e-18
395.0,0.0,0.0,0.0,0.0,0.0,0.0,0.00413122633472085,-0.029155569151043892,0.03570287674665451,1.0,6.938893903907228e-18,1.0408340855860843e-17,-8.673617379884035e-19
396.0,0.0,0.0,0.0,0.0,0.0,0.0,0.007942266762256622,-0.03120066598057747,0.0428156852722168,1.0,-1.3877787807814457e-17,-3.469446951953614e-18,-8.673617379884035e-19
397.0,0.0,0.0,0.0,0.0,0.0,0.0,0.012152892537415028,-0.04587458074092865,0.03901086002588272,1.0,-6.938893903907228e-18,6.938893903907228e-18,-1.734723475976807e-18
398.0,0.0,0.0,0.0,0.0,0.0,0.0,0.00988840777426958,-0.04415817931294441,0.03189362213015556,1.0,0.0,3.469446951953614e-18,8.673617379884035e-19
399.0,0.0,0.0,0.0,0.0,0.0,0.0,-0.047462038695812225,0.04040295630693436,-0.05598771572113037,1.0,6.938893903907228e-18,3.469446951953614e-18,3.469446951953614e-18
400.0,0.0,0.0,0.0,0.0,0.0,0.0,0.0022143861278891563,-0.021294893696904182,0.012193799950182438,1.0,0.0,-6.938893903907228e-18,1.734723475976807e-18
401.0,0.0,0.0,0.0,0.0,0.0,0.0,0.0012820444535464048,-0.01839449815452099,0.010602016933262348,1.0,0.0,0.0,8.673617379884035e-19
402.0,0.0,0.0,0.0,0.0,0.0,0.0,0.0009099123999476433,-0.017716657370328903,0.012043379247188568,1.0,6.938893903907228e-18,6.938893903907228e-18,1.734723475976807e-18
403.0,0.0,0.0,0.0,0.0,0.0,0.0,0.005494916345924139,-0.023193342611193657,0.011996649205684662,1.0,0.0,-6.938893903907228e-18,3.469446951953614e-18
404.0,0.0,0.0,0.0,0.0,0.0,0.0,0.005171050783246756,-0.02415320836007595,0.009970730170607567,1.0,6.938893903907228e-18,-3.469446951953614e-18,1.734723475976807e-18
405.0,0.0,0.0,0.0,0.0,0.0,0.0,0.0038211788050830364,-0.02369140461087227,0.004513049032539129,1.0,1.3877787807814457e-17,0.0,0.0
406.0,0.0,0.0,0.0,0.0,0.0,0.0,0.005514788441359997,-0.026260407641530037,0.0043488419614732265,1.0,-6.938893903907228e-18,0.0,-1.734723475976807e-18
407.0,0.0,0.0,0.0,0.0,0.0,0.0,0.0037668333388864994,-0.024406801909208298,0.0013144690310582519,1.0,-6.938893903907228e-18,-6.938893903907228e-18,-1.734723475976807e-18
408.0,0.0,0.0,0.0,0.0,0.0,0.0,-0.0007183434208855033,-0.019361792132258415,0.0015099775046110153,1.0,-1.3877787807814457e-17,-6.938893903907228e-18,8.673617379884035e-19
409.0,0.0,0.0,0.0,0.0,0.0,0.0,0.0003162769426126033,-0.0160137377679348,0.0021633198484778404,1.0,0.0,6.938893903907228e-18,1.734723475976807e-18
410.0,0.0,0.0,0.0,0.0,0.0,0.0,0.0024291742593050003,-0.0173509418964386,0.002109748777002096,1.0,1.3877787807814457e-17,6.938893903907228e-18,-2.6020852139652106e-18
411.0,0.0,0.0,0.0,0.0,0.0,0.0,-0.0018115323036909103,-0.014327376149594784,-0.006874763872474432,1.0,-6.938893903907228e-18,-6.938893903907228e-18,8.673617379884035e-19
412.0,0.0,0.0,0.0,0.0,0.0,0.0,0.0012899065623059869,-0.016400275751948357,-0.006077184341847897,1.0,0.0,6.938893903907228e-18,-8.673617379884035e-19
413.0,0.0,0.0,0.0,0.0,0.0,0.0,-0.000744388613384217,-0.014791050925850868,-0.003998747561126947,1.0,0.0,0.0,-2.6020852139652106e-18
414.0,0.0,0.0,0.0,0.0,0.0,0.0,-0.0055006761103868484,-0.009816795587539673,-0.004618518054485321,1.0,-6.938893903907228e-18,0.0,-1.734723475976807e-18
415.0,0.0,0.0,0.0,0.0,0.0,0.0,-0.010917719453573227,-0.0022929757833480835,-0.011006027460098267,1.0,0.0,-6.938893903907228e-18,1.734723475976807e-18
416.0,0.0,0.0,0.0,0.0,0.0,0.0,-0.015385492704808712,0.0027338452637195587,-0.01982521265745163,1.0,6.938893903907228e-18,3.469446951953614e-18,2.6020852139652106e-18
417.0,0.0,0.0,0.0,0.0,0.0,0.0,-0.011708931997418404,0.0037415483966469765,-0.015717661008238792,1.0,0.0,0.0,-3.0357660829594124e-18
418.0,0.0,0.0,0.0,0.0,0.0,0.0,-0.009132472798228264,0.001438442966900766,-0.012256327085196972,1.0,-6.938893903907228e-18,0.0,-3.0357660829594124e-18
419.0,0.0,0.0,0.0,0.0,0.0,0.0,-0.006757820025086403,0.0003175442398060113,-0.0077711739577353,1.0,-1.0408340855860843e-17,0.0,-8.673617379884035e-19
420.0,0.0,0.0,0.0,0.0,0.0,0.0,-0.0025823183823376894,-0.0038634107913821936,-0.0031319635454565287,1.0,6.938893903907228e-18,0.0,4.336808689942018e-19
421.0,0.0,0.0,0.0,0.0,0.0,0.0,0.003342335345223546,-0.008037716150283813,0.002913146512582898,1.0,-3.469446951953614e-18,-3.469446951953614e-18,3.469446951953614e-18
422.0,0.0,0.0,0.0,0.0,0.0,0.0,0.007399083115160465,-0.013063536956906319,0.010743016377091408,1.0,-3.469446951953614e-18,-3.469446951953614e-18,-8.673617379884035e-19
423.0,0.0,0.0,0.0,0.0,0.0,0.0,0.01257360726594925,-0.017152870073914528,0.017440609633922577,1.0,0.0,-3.469446951953614e-18,-4.336808689942018e-19
424.0,0.0,0.0,0.0,0.0,0.0,0.0,0.008659313432872295,-0.01137801818549633,0.015552666038274765,1.0,-3.469446951953614e-18,3.469446951953614e-18,0.0
425.0,0.0,0.0,0.0,0.0,0.0,0.0,0.004202609416097403,-0.0035589956678450108,0.0073278918862342834,1.0,3.469446951953614e-18,0.0,-8.673617379884035e-19
426.0,0.0,0.0,0.0,0.0,0.0,0.0,0.002387263812124729,0.0005244207568466663,0.0024005714803934097,1.0,0.0,3.469446951953614e-18,-3.469446951953614e-18
427.0,0.0,0.0,0.0,0.0,0.0,0.0,0.0024047468323260546,0.003821705933660269,-0.0013958021299913526,1.0,0.0,3.469446951953614e-18,-8.673617379884035e-19
428.0,0.0,0.0,0.0,0.0,0.0,0.0,0.002617885125800967,0.009311034344136715,0.0005499618127942085,1.0,0.0,3.469446951953614e-18,-8.673617379884035e-19
429.0,0.0,0.0,0.0,0.0,0.0,0.0,0.0029846355319023132,0.014303063973784447,0.003187248483300209,1.0,-3.469446951953614e-18,0.0,-4.336808689942018e-19
430.0,0.0,0.0,0.0,0.0,0.0,0.0,0.005324529949575663,0.015075637958943844,0.0008106320165097713,1.0,3.469446951953614e-18,0.0,8.673617379884035e-19
431.0,0.0,0.0,0.0,0.0,0.0,0.0,0.0067992182448506355,0.021056436002254486,0.005051747430115938,1.0,3.469446951953614e-18,0.0,-3.903127820947816e-18
432.0,0.0,0.0,0.0,0.0,0.0,0.0,0.006233768071979284,0.019028618931770325,0.002595149911940098,1.0,6.938893903907228e-18,0.0,-2.168404344971009e-18
433.0,0.0,0.0,0.0,0.0,0.0,0.0,0.0033456759992986917,0.021342050284147263,-0.002194188302382827,1.0,-3.469446951953614e-18,0.0,-8.673617379884035e-19
434.0,0.0,0.0,0.0,0.0,0.0,0.0,0.003060542978346348,0.024657880887389183,-0.0033712030854076147,1.0,-3.469446951953614e-18,-3.469446951953614e-18,1.5178830414797062e-18
435.0,0.0,0.0,0.0,0.0,0.0,0.0,0.0009328504092991352,0.02060980163514614,-0.0018340221140533686,1.0,0.0,0.0,2.8189256484623115e-18
436.0,0.0,0.0,0.0,0.0,0.0,0.0,-0.0018836656818166375,0.022774849086999893,-0.002480308525264263,1.0,6.938893903907228e-18,-1.734723475976807e-18,-3.903127820947816e-18
437.0,0.0,0.0,0.0,0.0,0.0,0.0,-0.0034216430503875017,0.028847692534327507,-0.004317452199757099,1.0,-3.469446951953614e-18,-1.734723475976807e-18,8.673617379884035e-19
438.0,0.0,0.0,0.0,0.0,0.0,0.0,-0.002341852057725191,0.024818917736411095,-0.004080433864146471,1.0,-3.469446951953614e-18,-1.734723475976807e-18,1.3010426069826053e-18
439.0,0.0,0.0,0.0,0.0,0.0,0.0,0.0013170241145417094,0.023300442844629288,0.003708699718117714,1.0,6.938893903907228e-18,1.734723475976807e-18,4.336808689942018e-19
440.0,0.0,0.0,0.0,0.0,0.0,0.0,-0.0030310561414808035,0.02781507931649685,0.0030760958325117826,1.0,-6.938893903907228e-18,-1.734723475976807e-18,3.903127820947816e-18
441.0,0.0,0.0,0.0,0.0,0.0,0.0,-0.006256163585931063,0.0290597602725029,-0.0031821595039218664,1.0,1.0408340855860843e-17,1.734723475976807e-18,-4.336808689942018e-18
442.0,0.0,0.0,0.0,0.0,0.0,0.0,-0.006488569546490908,0.02948939986526966,-0.006668101996183395,1.0,3.469446951953614e-18,-1.734723475976807e-18,-2.8189256484623115e-18
443.0,0.0,0.0,0.0,0.0,0.0,0.0,-0.005278851371258497,0.0327279232442379,-0.0023940622340887785,1.0,3.469446951953614e-18,1.734723475976807e-18,-3.686287386450715e-18
444.0,0.0,0.0,0.0,0.0,0.0,0.0,-0.006136737763881683,0.034818921238183975,-0.001520722173154354,1.0,-1.0408340855860843e-17,1.734723475976807e-18,-2.168404344971009e-19
445.0,0.0,0.0,0.0,0.0,0.0,0.0,-0.009272566065192223,0.038093533366918564,-0.00590725289657712,1.0,-3.469446951953614e-18,-3.469446951953614e-18,2.8189256484623115e-18
446.0,0.0,0.0,0.0,0.0,0.0,0.0,-0.009555221535265446,0.04014504328370094,-0.005820799618959427,1.0,0.0,0.0,3.7947076036992655e-18
447.0,0.0,0.0,0.0,0.0,0.0,0.0,-0.008069468662142754,0.043161679059267044,-0.002518151653930545,1.0,0.0,0.0,-2.168404344971009e-18
448.0,0.0,0.0,0.0,0.0,0.0,0.0,-0.0043196044862270355,0.04358501732349396,-0.0028189753647893667,1.0,-3.469446951953614e-18,1.734723475976807e-18,-2.168404344971009e-19
449.0,0.0,0.0,0.0,0.0,0.0,0.0,-0.003365137381479144,0.047957200556993484,-0.008084052242338657,1.0,-3.469446951953614e-18,0.0,-3.0357660829594124e-18
450.0,0.0,0.0,0.0,0.0,0.0,0.0,-0.003231162205338478,0.05773792415857315,-0.005497091915458441,1.0,-3.469446951953614e-18,1.734723475976807e-18,-1.1926223897340549e-18
451.0,0.0,0.0,0.0,0.0,0.0,0.0,-0.0009324714774265885,0.05767551809549332,-0.006411736365407705,1.0,3.469446951953614e-18,1.734723475976807e-18,-2.0599841277224584e-18
452.0,0.0,0.0,0.0,0.0,0.0,0.0,-0.0020663542672991753,0.050865836441516876,-0.015371542423963547,1.0,6.938893903907228e-18,-1.734723475976807e-18,1.734723475976807e-18
453.0,0.0,0.0,0.0,0.0,0.0,0.0,-0.003378137480467558,0.03440982475876808,-0.025341114029288292,1.0,0.0,1.734723475976807e-18,-2.168404344971009e-18
454.0,0.0,0.0,0.0,0.0,0.0,0.0,0.00034797476837411523,0.022910956293344498,-0.021833501756191254,1.0,0.0,-2.6020852139652106e-18,-2.4936649967166602e-18
455.0,0.0,0.0,0.0,0.0,0.0,0.0,0.010569829493761063,0.01733999513089657,-0.0021691909059882164,1.0,-3.469446951953614e-18,-8.673617379884035e-19,5.421010862427522e-20
456.0,0.0,0.0,0.0,0.0,0.0,0.0,0.017777403816580772,0.0033280623611062765,0.0029646987095475197,1.0,-3.469446951953614e-18,0.0,2.710505431213761e-18
457.0,0.0,0.0,0.0,0.0,0.0,0.0,0.027020372450351715,-0.004720292054116726,0.015432671643793583,1.0,0.0,8.673617379884035e-19,-7.589415207398531e-19
458.0,0.0,0.0,0.0,0.0,0.0,0.0,-0.045975252985954285,0.07933586835861206,-0.04291379451751709,1.0,0.0,4.336808689942018e-19,-4.1470733097570545e-18
459.0,0.0,0.0,0.0,0.0,0.0,0.0,0.018630782142281532,0.006498929113149643,0.02041114680469036,1.0,-3.469446951953614e-18,-8.673617379884035e-19,-1.951563910473908e-18
460.0,0.0,0.0,0.0,0.0,0.0,0.0,0.015833308920264244,0.005263605620712042,0.020831171423196793,1.0,-3.469446951953614e-18,0.0,2.4123498337802474e-18
461.0,0.0,0.0,0.0,0.0,0.0,0.0,0.015727506950497627,-0.0043060025200247765,0.020636091008782387,1.0,-3.469446951953614e-18,4.336808689942018e-19,-3.0086610286472748e-18
462.0,0.0,0.0,0.0,0.0,0.0,0.0,0.0115142110735178,-0.002867469796910882,0.024372827261686325,1.0,6.938893903907228e-18,-4.336808689942018e-19,-3.903127820947816e-18
463.0,0.0,0.0,0.0,0.0,0.0,0.0,0.006234866566956043,-0.0018409278709441423,0.020302139222621918,1.0,0.0,4.336808689942018e-19,-1.0842021724855044e-18
464.0,0.0,0.0,0.0,0.0,0.0,0.0,0.004245161544531584,0.006728486157953739,0.01584881916642189,1.0,0.0,0.0,4.0657581468206416e-19
465.0,0.0,0.0,0.0,0.0,0.0,0.0,0.0001206215747515671,0.009062492288649082,0.014724770560860634,1.0,3.469446951953614e-18,0.0,3.5236570605778894e-18
466.0,0.0,0.0,0.0,0.0,0.0,0.0,-0.007311268709599972,0.009423291310667992,0.00472272140905261,1.0,3.469446951953614e-18,0.0,-3.2526065174565133e-19
467.0,0.0,0.0,0.0,0.0,0.0,0.0,-0.0060755591839551926,0.008907685987651348,0.002153622917830944,1.0,3.469446951953614e-18,2.168404344971009e-19,2.0057740190981832e-18
468.0,0.0,0.0,0.0,0.0,0.0,0.0,0.00026756516308523715,0.00573436776176095,0.005854127928614616,1.0,3.469446951953614e-18,6.505213034913027e-19,8.673617379884035e-19
469.0,0.0,0.0,0.0,0.0,0.0,0.0,3.468084105406888e-05,0.003289298852905631,0.0012425174936652184,1.0,3.469446951953614e-18,0.0,9.215718466126788e-19
470.0,0.0,0.0,0.0,0.0,0.0,0.0,-0.00034047546796500683,0.013177515007555485,0.0011252774856984615,1.0,-6.938893903907228e-18,-2.168404344971009e-19,2.710505431213761e-19
471.0,0.0,0.0,0.0,0.0,0.0,0.0,0.004012336488813162,0.014812079258263111,0.01132967695593834,1.0,-6.938893903907228e-18,0.0,3.2526065174565133e-19
472.0,0.0,0.0,0.0,0.0,0.0,0.0,-0.002614579861983657,0.017706410959362984,0.006395258940756321,1.0,6.938893903907228e-18,2.168404344971009e-19,-7.318364664277155e-19
473.0,0.0,0.0,0.0,0.0,0.0,0.0,-0.002720822812989354,0.029398983344435692,0.0031780230347067118,1.0,-3.469446951953614e-18,0.0,-1.3552527156068805e-20
474.0,0.0,0.0,0.0,0.0,0.0,0.0,-0.004212373401969671,0.04384544491767883,-0.004927768371999264,1.0,0.0,1.0842021724855044e-19,-1.599198204416119e-18
475.0,0.0,0.0,0.0,0.0,0.0,0.0,-0.0027294594328850508,0.03871912881731987,-0.008221231400966644,1.0,-3.469446951953614e-18,-1.0842021724855044e-19,3.2864878353466853e-19
476.0,0.0,0.0,0.0,0.0,0.0,0.0,-0.006847176235169172,0.030250050127506256,-0.009457484818994999,1.0,0.0,-5.421010862427522e-20,2.710505431213761e-19
477.0,0.0,0.0,0.0,0.0,0.0,0.0,-0.015110911801457405,0.03734821081161499,-0.013255366124212742,1.0,-3.469446951953614e-18,2.168404344971009e-19,6.776263578034403e-20
478.0,0.0,0.0,0.0,0.0,0.0,0.0,-0.009808739647269249,0.039211731404066086,-0.009600200690329075,1.0,0.0,2.168404344971009e-19,-3.1170812458958252e-19
479.0,0.0,0.0,0.0,0.0,0.0,0.0,0.0025389965157955885,0.028288787230849266,-0.0028494333382695913,1.0,0.0,4.336808689942018e-19,1.81603863891322e-18
480.0,0.0,0.0,0.0,0.0,0.0,0.0,0.014140317216515541,0.017020251601934433,0.007464002352207899,1.0,5.204170427930421e-18,0.0,-9.75781955236954e-19
481.0,0.0,0.0,0.0,0.0,0.0,0.0,0.01300216093659401,0.020554358139634132,0.009300071746110916,1.0,3.469446951953614e-18,0.0,-3.2526065174565133e-19
482.0,0.0,0.0,0.0,0.0,0.0,0.0,0.012167251668870449,0.0162612646818161,0.000336230150423944,1.0,-1.734723475976807e-18,-8.673617379884035e-19,5.963111948670274e-19
483.0,0.0,0.0,0.0,0.0,0.0,0.0,0.026308245956897736,-0.0017438275972381234,0.00019158267241436988,1.0,0.0,-8.673617379884035e-19,-1.9786689647860456e-18
484.0,0.0,0.0,0.0,0.0,0.0,0.0,0.025994624942541122,-0.0028762277215719223,-0.0010108189890161157,1.0,8.673617379884035e-19,-1.734723475976807e-18,-1.2197274440461925e-18
485.0,0.0,0.0,0.0,0.0,0.0,0.0,0.006217214744538069,0.02460368722677231,-0.0034313583746552467,1.0,-1.734723475976807e-18,0.0,-1.0842021724855044e-19
486.0,0.0,0.0,0.0,0.0,0.0,0.0,0.005275938659906387,0.02907327190041542,-0.004347032867372036,1.0,-8.673617379884035e-19,8.673617379884035e-19,2.8731357570865868e-18
487.0,0.0,0.0,0.0,0.0,0.0,0.0,0.006088190712034702,0.023759810253977776,-0.0018532340181991458,1.0,1.734723475976807e-18,-8.673617379884035e-19,1.9244588561617704e-18
488.0,0.0,0.0,0.0,0.0,0.0,0.0,0.009892170317471027,0.02177652157843113,0.0008195782429538667,1.0,8.673617379884035e-19,0.0,-2.3310346708438345e-18
489.0,0.0,0.0,0.0,0.0,0.0,0.0,0.019724514335393906,0.010244776494801044,0.002941206796094775,1.0,0.0,-1.734723475976807e-18,-3.5236570605778894e-18
490.0,0.0,0.0,0.0,0.0,0.0,0.0,0.011191580444574356,0.012626048177480698,8.587488991906866e-05,1.0,-8.673617379884035e-19,-4.336808689942018e-19,2.4936649967166602e-18
491.0,0.0,0.0,0.0,0.0,0.0,0.0,0.0019537638872861862,0.0232810340821743,-0.0015621668426319957,1.0,0.0,4.336808689942018e-19,-2.3987973066241786e-18
492.0,0.0,0.0,0.0,0.0,0.0,0.0,-0.004920203238725662,0.03101309761404991,-0.002613714197650552,1.0,6.938893903907228e-18,8.673617379884035e-19,4.87890977618477e-19
493.0,0.0,0.0,0.0,0.0,0.0,0.0,-0.008575152605772018,0.0340145118534565,-0.0038863830268383026,1.0,0.0,2.168404344971009e-19,1.0706496453294356e-18
494.0,0.0,0.0,0.0,0.0,0.0,0.0,-0.009484676644206047,0.030501749366521835,-0.0038152935449033976,1.0,3.469446951953614e-18,-1.0842021724855044e-19,5.353248226647178e-19
495.0,0.0,0.0,0.0,0.0,0.0,0.0,-0.007860141806304455,0.02693522721529007,0.003666080068796873,1.0,1.734723475976807e-18,2.710505431213761e-20,7.851995421047364e-19
496.0,0.0,0.0,0.0,0.0,0.0,0.0,-0.00883684866130352,0.021274670958518982,0.0028260578401386738,1.0,1.734723475976807e-18,0.0,-1.4602848010664138e-18
497.0,0.0,0.0,0.0,0.0,0.0,0.0,-0.008808070793747902,0.01727413944900036,-6.419576675398275e-05,1.0,0.0,0.0,-1.7618285302889447e-19
498.0,0.0,0.0,0.0,0.0,0.0,0.0,-0.004784872289747,0.013757050037384033,0.0034263385459780693,1.0,1.734723475976807e-18,0.0,4.0657581468206416e-19
499.0,0.0,0.0,0.0,0.0,0.0,0.0,0.0007217350648716092,0.004539872519671917,0.008115863427519798,1.0,0.0,-4.336808689942018e-19,-8.131516293641283e-20
500.0,0.0,0.0,0.0,0.0,0.0,0.0,-0.007488041650503874,0.012273631058633327,0.00975378043949604,1.0,0.0,0.0,1.0842021724855044e-19
501.0,0.0,0.0,0.0,0.0,0.0,0.0,-0.017404647544026375,0.02516423538327217,0.007855460047721863,1.0,0.0,0.0,3.7947076036992655e-19
502.0,0.0,0.0,0.0,0.0,0.0,0.0,-0.026021424680948257,0.033798906952142715,-0.0003725760034285486,1.0,3.469446951953614e-18,0.0,2.168404344971009e-19
503.0,0.0,0.0,0.0,0.0,0.0,0.0,-0.02129938453435898,0.02452046610414982,-0.009769875556230545,1.0,0.0,8.673617379884035e-19,-5.963111948670274e-19
504.0,0.0,0.0,0.0,0.0,0.0,0.0,-0.011173107661306858,0.0172929298132658,-0.004379211459308863,1.0,0.0,0.0,-1.6263032587282567e-19
505.0,0.0,0.0,0.0,0.0,0.0,0.0,-0.010319421999156475,0.02089693769812584,0.009935332462191582,1.0,-6.938893903907228e-18,-8.673617379884035e-19,5.421010862427522e-19
506.0,0.0,0.0,0.0,0.0,0.0,0.0,-0.013740304857492447,0.025965798646211624,0.00952111929655075,1.0,-3.469446951953614e-18,1.734723475976807e-18,3.2526065174565133e-19
507.0,0.0,0.0,0.0,0.0,0.0,0.0,-0.020762396976351738,0.03184095025062561,0.0020874522160738707,1.0,6.938893903907228e-18,0.0,-8.673617379884035e-19
508.0,0.0,0.0,0.0,0.0,0.0,0.0,-0.015191677026450634,0.01943187229335308,-0.006344792433083057,1.0,3.469446951953614e-18,3.469446951953614e-18,-1.0842021724855044e-18
509.0,0.0,0.0,0.0,0.0,0.0,0.0,-0.010852769948542118,0.008411322720348835,-0.010937536135315895,1.0,-6.938893903907228e-18,0.0,0.0
510.0,0.0,0.0,0.0,0.0,0.0,0.0,-0.0050711180083453655,0.008033239282667637,-0.0011859440710395575,1.0,3.469446951953614e-18,1.734723475976807e-18,-1.0842021724855044e-19
511.0,0.0,0.0,0.0,0.0,0.0,0.0,0.0005922949058003724,0.0008802789379842579,0.005376527085900307,1.0,-3.469446951953614e-18,1.734723475976807e-18,-1.0842021724855044e-18
512.0,0.0,0.0,0.0,0.0,0.0,0.0,0.006130308378487825,-0.007130615878850222,0.010600809007883072,1.0,-3.469446951953614e-18,1.734723475976807e-18,-1.4094628242311558e-18
513.0,0.0,0.0,0.0,0.0,0.0,0.0,0.0009649538551457226,-0.0028905661311000586,0.004321986343711615,1.0,6.938893903907228e-18,3.469446951953614e-18,-7.589415207398531e-19
514.0,0.0,0.0,0.0,0.0,0.0,0.0,-0.00308830663561821,-0.0011475575156509876,-0.004754704423248768,1.0,-1.734723475976807e-18,-1.734723475976807e-18,6.505213034913027e-19
515.0,0.0,0.0,0.0,0.0,0.0,0.0,-0.0017851920565590262,-0.002001326996833086,-0.0036775909829884768,1.0,0.0,1.734723475976807e-18,3.2526065174565133e-19
516.0,0.0,0.0,0.0,0.0,0.0,0.0,-0.0010894441511482,-0.0032210813369601965,-0.002529438119381666,1.0,0.0,0.0,5.421010862427522e-19
517.0,0.0,0.0,0.0,0.0,0.0,0.0,-0.003516830736771226,0.0010205417638644576,-0.005648701451718807,1.0,6.938893903907228e-18,1.734723475976807e-18,5.421010862427522e-19
518.0,0.0,0.0,0.0,0.0,0.0,0.0,-0.004883696790784597,0.004046473652124405,-0.008395833894610405,1.0,-3.469446951953614e-18,1.734723475976807e-18,3.2526065174565133e-19
519.0,0.0,0.0,0.0,0.0,0.0,0.0,-0.013962446711957455,0.009663629345595837,-0.008673389442265034,1.0,0.0,3.469446951953614e-18,-4.336808689942018e-19
520.0,0.0,0.0,0.0,0.0,0.0,0.0,-0.014547262340784073,0.01326149981468916,-0.009181862697005272,1.0,3.469446951953614e-18,1.734723475976807e-18,0.0
521.0,0.0,0.0,0.0,0.0,0.0,0.0,0.004728641826659441,-0.018988456577062607,-0.0027539662551134825,1.0,5.204170427930421e-18,0.0,-9.75781955236954e-19
522.0,0.0,0.0,0.0,0.0,0.0,0.0,-0.0022304083686321974,-0.011224044486880302,-0.0015084892511367798,1.0,0.0,3.469446951953614e-18,3.2526065174565133e-19
523.0,0.0,0.0,0.0,0.0,0.0,0.0,-0.006400537211447954,-0.0009916534181684256,-0.0008775029564276338,1.0,-3.469446951953614e-18,1.734723475976807e-18,-1.0842021724855044e-19
524.0,0.0,0.0,0.0,0.0,0.0,0.0,-0.00013364314509090036,-0.010646695271134377,0.0030822663102298975,1.0,3.469446951953614e-18,0.0,6.505213034913027e-19
525.0,0.0,0.0,0.0,0.0,0.0,0.0,-0.011364343576133251,0.003098550485447049,-0.0016497588949277997,1.0,-3.469446951953614e-18,0.0,1.951563910473908e-18
526.0,0.0,0.0,0.0,0.0,0.0,0.0,-0.007635524496436119,-0.00014992662181612104,-0.007924008183181286,1.0,0.0,0.0,-6.505213034913027e-19
527.0,0.0,0.0,0.0,0.0,0.0,0.0,0.0049895537085831165,-0.019983939826488495,0.005763707682490349,1.0,3.469446951953614e-18,0.0,-3.2526065174565133e-19
528.0,0.0,0.0,0.0,0.0,0.0,0.0,0.0019361842423677444,-0.014731413684785366,0.004903812892735004,1.0,0.0,3.469446951953614e-18,-1.6263032587282567e-18
529.0,0.0,0.0,0.0,0.0,0.0,0.0,0.005034444388002157,-0.01608593575656414,0.006613318808376789,1.0,6.938893903907228e-18,-1.734723475976807e-18,1.0842021724855044e-19
530.0,0.0,0.0,0.0,0.0,0.0,0.0,0.0017129966290667653,-0.011972390115261078,0.0061131808906793594,1.0,6.938893903907228e-18,0.0,-1.1926223897340549e-18
531.0,0.0,0.0,0.0,0.0,0.0,0.0,-0.0015384561847895384,-0.007518530357629061,-0.001515227952040732,1.0,3.469446951953614e-18,3.469446951953614e-18,-1.8431436932253575e-18
532.0,0.0,0.0,0.0,0.0,0.0,0.0,-0.006180621217936277,-0.005472003016620874,-0.0010728483321145177,1.0,-6.938893903907228e-18,-1.734723475976807e-18,-6.505213034913027e-19
533.0,0.0,0.0,0.0,0.0,0.0,0.0,-0.00784291047602892,-0.006138979457318783,-0.0015663809608668089,1.0,-3.469446951953614e-18,-1.734723475976807e-18,0.0
534.0,0.0,0.0,0.0,0.0,0.0,0.0,-0.0018730288138613105,-0.011479482986032963,-0.002418736694380641,1.0,0.0,-1.734723475976807e-18,1.0842021724855044e-19
535.0,0.0,0.0,0.0,0.0,0.0,0.0,-0.0067852637730538845,-0.005854950752109289,-0.0029300067108124495,1.0,-6.938893903907228e-18,0.0,5.421010862427522e-19
536.0,0.0,0.0,0.0,0.0,0.0,0.0,-0.006826051510870457,-0.0008055996731854975,0.00025091395946219563,1.0,0.0,0.0,-7.589415207398531e-19
537.0,0.0,0.0,0.0,0.0,0.0,0.0,-0.007577437441796064,-0.0023934885393828154,-0.0011796241160482168,1.0,0.0,0.0,-4.336808689942018e-19
538.0,0.0,0.0,0.0,0.0,0.0,0.0,-0.014502937905490398,0.0050913747400045395,-0.003996421117335558,1.0,0.0,1.734723475976807e-18,-9.75781955236954e-19
539.0,0.0,0.0,0.0,0.0,0.0,0.0,-0.019136693328619003,0.01315419003367424,-0.003938601352274418,1.0,6.938893903907228e-18,1.734723475976807e-18,4.336808689942018e-19
540.0,0.0,0.0,0.0,0.0,0.0,0.0,-0.014117155224084854,0.00413902522996068,-0.005554646253585815,1.0,6.938893903907228e-18,5.204170427930421e-18,-3.2526065174565133e-19
541.0,0.0,0.0,0.0,0.0,0.0,0.0,-0.00287820165976882,-0.005101087037473917,0.0016226699808612466,1.0,-3.469446951953614e-18,-3.469446951953614e-18,4.336808689942018e-19
542.0,0.0,0.0,0.0,0.0,0.0,0.0,-0.005681449547410011,-0.001175449462607503,-0.008430869318544865,1.0,-3.469446951953614e-18,-1.734723475976807e-18,2.168404344971009e-19
543.0,0.0,0.0,0.0,0.0,0.0,0.0,-0.01285951491445303,0.010180401615798473,-0.015679452568292618,1.0,-3.469446951953614e-18,1.734723475976807e-18,3.2526065174565133e-19
544.0,0.0,0.0,0.0,0.0,0.0,0.0,-0.010412722826004028,0.004690923262387514,-0.013053813949227333,1.0,0.0,0.0,3.2526065174565133e-19
545.0,0.0,0.0,0.0,0.0,0.0,0.0,0.0040373788215219975,-0.0022949737031012774,0.00013721712457481772,1.0,0.0,-1.734723475976807e-18,1.1926223897340549e-18
546.0,0.0,0.0,0.0,0.0,0.0,0.0,0.013693002052605152,-0.012214498594403267,0.012191454879939556,1.0,0.0,1.734723475976807e-18,-9.75781955236954e-19
547.0,0.0,0.0,0.0,0.0,0.0,0.0,0.019451478496193886,-0.020501578226685524,0.01671273075044155,1.0,-3.469446951953614e-18,-1.734723475976807e-18,5.421010862427522e-19
548.0,0.0,0.0,0.0,0.0,0.0,0.0,0.020933661609888077,-0.022029438987374306,0.01582101546227932,1.0,6.938893903907228e-18,0.0,-3.2526065174565133e-19
549.0,0.0,0.0,0.0,0.0,0.0,0.0,0.022653818130493164,-0.01692008599638939,0.01643766276538372,1.0,6.938893903907228e-18,0.0,-3.469446951953614e-18
550.0,0.0,0.0,0.0,0.0,0.0,0.0,0.02229113131761551,-0.019262580201029778,0.01722813956439495,1.0,3.469446951953614e-18,0.0,3.3610267347050637e-18
551.0,0.0,0.0,0.0,0.0,0.0,0.0,0.012758086435496807,-0.018212731927633286,0.009413940832018852,1.0,0.0,3.469446951953614e-18,1.5178830414797062e-18
552.0,0.0,0.0,0.0,0.0,0.0,0.0,0.007825902663171291,-0.015943262726068497,0.006837349850684404,1.0,0.0,1.734723475976807e-18,-1.4094628242311558e-18
553.0,0.0,0.0,0.0,0.0,0.0,0.0,0.00814984180033207,-0.011006229557096958,0.008789618499577045,1.0,-6.938893903907228e-18,0.0,4.336808689942018e-18
554.0,0.0,0.0,0.0,0.0,0.0,0.0,0.0070890095084905624,-0.0070118894800543785,0.008302011527121067,1.0,6.938893903907228e-18,0.0,1.0842021724855044e-18
555.0,0.0,0.0,0.0,0.0,0.0,0.0,0.006318578962236643,-0.011899913661181927,-0.0013948442647233605,1.0,3.469446951953614e-18,-1.734723475976807e-18,1.0842021724855044e-19
556.0,0.0,0.0,0.0,0.0,0.0,0.0,0.010976780205965042,-0.01686262898147106,-0.0008664999040775001,1.0,-6.938893903907228e-18,-3.469446951953614e-18,1.4094628242311558e-18
557.0,0.0,0.0,0.0,0.0,0.0,0.0,0.013127106241881847,-0.010936273261904716,0.002919768448919058,1.0,3.469446951953614e-18,1.734723475976807e-18,-3.0357660829594124e-18
558.0,0.0,0.0,0.0,0.0,0.0,0.0,0.008240027353167534,-0.00720258941873908,0.0037768555339425802,1.0,3.469446951953614e-18,0.0,6.505213034913027e-19
559.0,0.0,0.0,0.0,0.0,0.0,0.0,0.011972587555646896,-0.013934360817074776,0.011849320493638515,1.0,-6.938893903907228e-18,0.0,-2.168404344971009e-18
560.0,0.0,0.0,0.0,0.0,0.0,0.0,0.008895940147340298,-0.017240282148122787,0.00357698742300272,1.0,3.469446951953614e-18,-1.734723475976807e-18,-2.8189256484623115e-18
561.0,0.0,0.0,0.0,0.0,0.0,0.0,0.005563636310398579,-0.02232966758310795,-0.007893924601376057,1.0,0.0,0.0,5.204170427930421e-18
562.0,0.0,0.0,0.0,0.0,0.0,0.0,0.009073346853256226,-0.030873829498887062,-0.007486594375222921,1.0,3.469446951953614e-18,3.469446951953614e-18,-3.469446951953614e-18
563.0,0.0,0.0,0.0,0.0,0.0,0.0,0.04815778136253357,-0.07256898283958435,0.013679131865501404,1.0,3.469446951953614e-18,-1.734723475976807e-18,2.0599841277224584e-18
564.0,0.0,0.0,0.0,0.0,0.0,0.0,0.061073195189237595,-0.08737224340438843,0.026699235662817955,1.0,0.0,0.0,3.2526065174565133e-18
565.0,0.0,0.0,0.0,0.0,0.0,0.0,0.041801467537879944,-0.06885397434234619,0.01579420641064644,1.0,-3.469446951953614e-18,0.0,3.686287386450715e-18
566.0,0.0,0.0,0.0,0.0,0.0,0.0,0.033415403217077255,-0.06933583319187164,-0.0017136738169938326,1.0,3.469446951953614e-18,-3.469446951953614e-18,3.686287386450715e-18
567.0,0.0,0.0,0.0,0.0,0.0,0.0,0.0277881883084774,-0.06173890456557274,-0.008481075055897236,1.0,-3.469446951953614e-18,3.469446951953614e-18,-2.168404344971009e-19
568.0,0.0,0.0,0.0,0.0,0.0,0.0,0.01904347538948059,-0.05730700120329857,-0.010175192728638649,1.0,3.469446951953614e-18,3.469446951953614e-18,-1.951563910473908e-18
569.0,0.0,0.0,0.0,0.0,0.0,0.0,0.00963648036122322,-0.042463675141334534,-0.009963690303266048,1.0,-3.469446951953614e-18,-3.469446951953614e-18,1.951563910473908e-18
570.0,0.0,0.0,0.0,0.0,0.0,0.0,-0.0019268918549641967,-0.022992271929979324,-0.007867549546062946,1.0,0.0,1.0408340855860843e-17,-6.505213034913027e-19
571.0,0.0,0.0,0.0,0.0,0.0,0.0,-0.0115202059969306,-0.009465282782912254,-0.007050422485917807,1.0,-6.938893903907228e-18,-6.938893903907228e-18,0.0
572.0,0.0,0.0,0.0,0.0,0.0,0.0,-0.01753847859799862,-0.010948640294373035,-0.004345395136624575,1.0,0.0,0.0,-2.168404344971009e-19
573.0,0.0,0.0,0.0,0.0,0.0,0.0,-0.02121604233980179,-0.0073302388191223145,0.0011685333447530866,1.0,3.469446951953614e-18,0.0,4.336808689942018e-19
574.0,0.0,0.0,0.0,0.0,0.0,0.0,-0.02519073151051998,-0.0038781145121902227,-0.0052027394995093346,1.0,3.469446951953614e-18,0.0,0.0
575.0,0.0,0.0,0.0,0.0,0.0,0.0,-0.028680184856057167,0.00929791759699583,0.005581690464168787,1.0,6.938893903907228e-18,0.0,6.505213034913027e-19
576.0,0.0,0.0,0.0,0.0,0.0,0.0,-0.03082192875444889,0.01566297374665737,0.00509094912558794,1.0,0.0,0.0,-6.505213034913027e-19
577.0,0.0,0.0,0.0,0.0,0.0,0.0,-0.032995324581861496,0.02433907799422741,0.0013544273097068071,1.0,-3.469446951953614e-18,3.469446951953614e-18,2.168404344971009e-19
578.0,0.0,0.0,0.0,0.0,0.0,0.0,-0.02851124107837677,0.022820759564638138,0.005631881766021252,1.0,-3.469446951953614e-18,6.938893903907228e-18,-6.505213034913027e-19
579.0,0.0,0.0,0.0,0.0,0.0,0.0,-0.027680110186338425,0.02767239883542061,-0.002799412002786994,1.0,-3.469446951953614e-18,0.0,-2.168404344971009e-19
580.0,0.0,0.0,0.0,0.0,0.0,0.0,-0.027277644723653793,0.03318515047430992,-0.01093197986483574,1.0,6.938893903907228e-18,3.469446951953614e-18,8.673617379884035e-19
581.0,0.0,0.0,0.0,0.0,0.0,0.0,-0.020571431145071983,0.030122781172394753,-0.009644174948334694,1.0,-3.469446951953614e-18,3.469446951953614e-18,-2.168404344971009e-19
582.0,0.0,0.0,0.0,0.0,0.0,0.0,-0.01988384500145912,0.028295230120420456,-0.015409625135362148,1.0,0.0,0.0,0.0
583.0,0.0,0.0,0.0,0.0,0.0,0.0,-0.02179977297782898,0.027535412460565567,-0.013582183979451656,1.0,1.734723475976807e-18,-3.469446951953614e-18,0.0
584.0,0.0,0.0,0.0,0.0,0.0,0.0,-0.020265772938728333,0.022296270355582237,-0.010055662132799625,1.0,-3.469446951953614e-18,-1.0408340855860843e-17,0.0
585.0,0.0,0.0,0.0,0.0,0.0,0.0,-0.0125580420717597,0.017126539722085,-0.0022958668414503336,1.0,0.0,3.469446951953614e-18,1.0842021724855044e-19
586.0,0.0,0.0,0.0,0.0,0.0,0.0,-0.003067383775487542,0.0075050657615065575,0.0013239294057711959,1.0,-1.734723475976807e-18,3.469446951953614e-18,2.168404344971009e-19
587.0,0.0,0.0,0.0,0.0,0.0,0.0,0.003242865204811096,-0.0004670337657444179,0.0023384434171020985,1.0,-1.734723475976807e-18,0.0,-1.0842021724855044e-18
588.0,0.0,0.0,0.0,0.0,0.0,0.0,0.0014574386877939105,0.00653526745736599,0.004942955914884806,1.0,3.469446951953614e-18,1.734723475976807e-18,5.421010862427522e-19
589.0,0.0,0.0,0.0,0.0,0.0,0.0,0.005960975307971239,0.0008451620815321803,0.00016428761591669172,1.0,-1.734723475976807e-18,-1.734723475976807e-18,7.589415207398531e-19
590.0,0.0,0.0,0.0,0.0,0.0,0.0,0.005123782902956009,-0.0010334645630791783,0.0013525605900213122,1.0,0.0,0.0,-1.0842021724855044e-18
591.0,0.0,0.0,0.0,0.0,0.0,0.0,0.007475180551409721,0.00012710303417406976,0.0013723175507038832,1.0,-1.734723475976807e-18,3.469446951953614e-18,9.75781955236954e-19
592.0,0.0,0.0,0.0,0.0,0.0,0.0,0.01053925696760416,-0.0009573388961143792,0.004548278637230396,1.0,3.469446951953614e-18,1.734723475976807e-18,-2.8189256484623115e-18
593.0,0.0,0.0,0.0,0.0,0.0,0.0,0.011308202520012856,-0.003519198391586542,0.003426673822104931,1.0,3.469446951953614e-18,-1.734723475976807e-18,1.6263032587282567e-18
594.0,0.0,0.0,0.0,0.0,0.0,0.0,0.014157508499920368,-0.005694060120731592,0.005587110761553049,1.0,5.204170427930421e-18,-1.734723475976807e-18,-1.951563910473908e-18
595.0,0.0,0.0,0.0,0.0,0.0,0.0,0.011325848288834095,0.0013130720471963286,0.007332461420446634,1.0,-1.734723475976807e-18,0.0,-1.4094628242311558e-18
596.0,0.0,0.0,0.0,0.0,0.0,0.0,0.008541391231119633,0.005497620441019535,0.00042522596777416766,1.0,1.734723475976807e-18,0.0,1.0842021724855044e-19
597.0,0.0,0.0,0.0,0.0,0.0,0.0,0.004932653624564409,0.009343825280666351,-0.005742212291806936,1.0,-5.204170427930421e-18,1.734723475976807e-18,-2.6020852139652106e-18
598.0,0.0,0.0,0.0,0.0,0.0,0.0,0.0016453650314360857,0.01210937462747097,-0.0064162518829107285,1.0,1.734723475976807e-18,1.734723475976807e-18,-4.0115480381963664e-18
599.0,0.0,0.0,0.0,0.0,0.0,0.0,0.003705478273332119,0.014804278500378132,0.0007210453622974455,1.0,0.0,-1.734723475976807e-18,1.6263032587282567e-18
600.0,0.0,0.0,0.0,0.0,0.0,0.0,0.0024188796523958445,0.013723923824727535,-0.00027060581487603486,1.0,-1.734723475976807e-18,1.734723475976807e-18,2.0599841277224584e-18
601.0,0.0,0.0,0.0,0.0,0.0,0.0,0.00580341462045908,0.010705806314945221,-0.0030733589082956314,1.0,-5.204170427930421e-18,-3.469446951953614e-18,6.071532165918825e-18
602.0,0.0,0.0,0.0,0.0,0.0,0.0,0.014285094104707241,0.008158260025084019,0.0012009654892608523,1.0,0.0,0.0,-6.505213034913027e-19
603.0,0.0,0.0,0.0,0.0,0.0,0.0,0.019672594964504242,0.0034826917108148336,0.004709716886281967,1.0,1.734723475976807e-18,0.0,-5.312590645178972e-18
604.0,0.0,0.0,0.0,0.0,0.0,0.0,0.018761686980724335,-0.002712528221309185,0.0002209082304034382,1.0,-5.204170427930421e-18,-3.469446951953614e-18,0.0
605.0,0.0,0.0,0.0,0.0,0.0,0.0,0.011731190606951714,0.004683958366513252,-0.00742393359541893,1.0,1.734723475976807e-18,0.0,-7.26415455565288e-18
606.0,0.0,0.0,0.0,0.0,0.0,0.0,0.005584187339991331,0.018431980162858963,-0.0060938624665141106,1.0,0.0,0.0,7.589415207398531e-19
607.0,0.0,0.0,0.0,0.0,0.0,0.0,0.0038368324749171734,0.02902810089290142,0.002008263021707535,1.0,0.0,0.0,0.0
608.0,0.0,0.0,0.0,0.0,0.0,0.0,-0.005314236041158438,0.03826497122645378,0.0019339072750881314,1.0,1.734723475976807e-18,1.734723475976807e-18,1.4094628242311558e-18
609.0,0.0,0.0,0.0,0.0,0.0,0.0,0.009771572425961494,0.01769973151385784,0.0019412823021411896,1.0,-1.734723475976807e-18,-3.469446951953614e-18,4.0115480381963664e-18
610.0,0.0,0.0,0.0,0.0,0.0,0.0,0.010952462442219257,0.013057846575975418,0.004012011922895908,1.0,1.734723475976807e-18,0.0,-1.0299920638612292e-18
611.0,0.0,0.0,0.0,0.0,0.0,0.0,-0.0036585864145308733,0.024881595745682716,-0.007009356748312712,1.0,1.734723475976807e-18,0.0,-5.908901840045999e-18
612.0,0.0,0.0,0.0,0.0,0.0,0.0,-0.010829431936144829,0.031368765980005264,-0.007196475751698017,1.0,-1.734723475976807e-18,-8.673617379884035e-19,6.7220534694101275e-18
613.0,0.0,0.0,0.0,0.0,0.0,0.0,-0.009531901217997074,0.031480930745601654,-0.011574219912290573,1.0,3.469446951953614e-18,0.0,3.2526065174565133e-18
614.0,0.0,0.0,0.0,0.0,0.0,0.0,0.008122483268380165,0.02227076143026352,0.003817957593128085,1.0,3.469446951953614e-18,0.0,2.2768245622195593e-18
615.0,0.0,0.0,0.0,0.0,0.0,0.0,0.011221576482057571,0.023833483457565308,0.013484146445989609,1.0,-1.734723475976807e-18,0.0,4.607859233063394e-19
616.0,0.0,0.0,0.0,0.0,0.0,0.0,-0.00409702118486166,0.031387511640787125,-0.002047609770670533,1.0,3.469446951953614e-18,2.168404344971009e-19,-4.065758146820642e-18
617.0,0.0,0.0,0.0,0.0,0.0,0.0,0.00272254622541368,0.028312386944890022,0.00204074801877141,1.0,1.734723475976807e-18,-7.115076756936123e-20,-5.025022959586137e-19
618.0,0.0,0.0,0.0,0.0,0.0,0.0,0.017642788589000702,0.018180863931775093,0.009701081551611423,1.0,-3.469446951953614e-18,4.336808689942018e-19,-2.7308342219478643e-18
619.0,0.0,0.0,0.0,0.0,0.0,0.0,0.011824137531220913,0.021122146397829056,0.007563767489045858,1.0,0.0,-8.673617379884035e-19,-1.1058862159352145e-17
620.0,0.0,0.0,0.0,0.0,0.0,0.0,0.006328929215669632,0.02841895818710327,0.003757157828658819,1.0,-8.673617379884035e-19,0.0,-5.719166459861036e-18
621.0,0.0,0.0,0.0,0.0,0.0,0.0,0.012808135710656643,0.01798046939074993,-0.009018640965223312,1.0,-1.734723475976807e-18,0.0,-9.215718466126788e-19
622.0,0.0,0.0,0.0,0.0,0.0,0.0,0.020115235820412636,0.019807538017630577,0.009837630204856396,1.0,0.0,0.0,6.505213034913027e-19
623.0,0.0,0.0,0.0,0.0,0.0,0.0,0.023974483832716942,0.02322579175233841,0.010653489269316196,1.0,8.673617379884035e-19,0.0,-3.3610267347050637e-18
624.0,0.0,0.0,0.0,0.0,0.0,0.0,0.019717218354344368,0.031472742557525635,0.01199339609593153,1.0,8.673617379884035e-19,-8.673617379884035e-19,-4.960224939121183e-18
625.0,0.0,0.0,0.0,0.0,0.0,0.0,0.015957413241267204,0.037145208567380905,0.0022540942300111055,1.0,0.0,-8.673617379884035e-19,-1.009663273127126e-17
626.0,0.0,0.0,0.0,0.0,0.0,0.0,0.02161986567080021,0.02326863445341587,-0.0030953867826610804,1.0,0.0,-8.673617379884035e-19,-1.6805133673525319e-18
627.0,0.0,0.0,0.0,0.0,0.0,0.0,0.016053639352321625,0.029912056401371956,0.0015007961774244905,1.0,-1.3010426069826053e-18,8.673617379884035e-19,-1.883801274693564e-18
628.0,0.0,0.0,0.0,0.0,0.0,0.0,0.004936599638313055,0.039865005761384964,-0.001538252574391663,1.0,0.0,1.734723475976807e-18,-3.74049749507499e-18
629.0,0.0,0.0,0.0,0.0,0.0,0.0,0.0004063803644385189,0.038740865886211395,-0.010422814637422562,1.0,0.0,-1.734723475976807e-18,6.098637220230962e-19
630.0,0.0,0.0,0.0,0.0,0.0,0.0,0.009824564680457115,0.03805951401591301,0.016237128525972366,1.0,-4.336808689942018e-19,8.673617379884035e-19,-1.4907779871675686e-18
631.0,0.0,0.0,0.0,0.0,0.0,0.0,-0.0114308912307024,0.0574776753783226,-0.00023160707496572286,1.0,2.168404344971009e-19,-8.673617379884035e-19,4.953448675543148e-18
632.0,0.0,0.0,0.0,0.0,0.0,0.0,0.003610588377341628,0.03127557784318924,-0.010882144793868065,1.0,-2.168404344971009e-19,1.734723475976807e-18,-2.8409485050909233e-18
633.0,0.0,0.0,0.0,0.0,0.0,0.0,0.016613146290183067,0.009457923471927643,-0.0028100567869842052,1.0,-2.574980159653073e-19,1.734723475976807e-18,-4.3742898978580205e-18
634.0,0.0,0.0,0.0,0.0,0.0,0.0,0.025371860712766647,0.001565108192153275,0.0072731273248791695,1.0,1.0842021724855044e-19,-1.734723475976807e-18,4.013242104090875e-18
635.0,0.0,0.0,0.0,0.0,0.0,0.0,0.02332647703588009,0.00689821457490325,0.016999877989292145,1.0,1.0842021724855044e-19,8.673617379884035e-19,2.4919709308221516e-18
636.0,0.0,0.0,0.0,0.0,0.0,0.0,0.00695550162345171,0.018652334809303284,0.010015462525188923,1.0,0.0,1.734723475976807e-18,-2.0142443485707262e-18
637.0,0.0,0.0,0.0,0.0,0.0,0.0,0.004494955763220787,0.007720374967902899,-0.001055669505149126,1.0,-1.6263032587282567e-19,0.0,-3.5914196963582334e-18
638.0,0.0,0.0,0.0,0.0,0.0,0.0,0.010472186841070652,0.01528446190059185,0.01202823780477047,1.0,5.421010862427522e-20,8.673617379884035e-19,-1.8126505071242027e-19
639.0,0.0,0.0,0.0,0.0,0.0,0.0,0.002411934779956937,0.028857102617621422,0.023414481431245804,1.0,-8.131516293641283e-20,1.734723475976807e-18,-9.70276241079801e-19
640.0,0.0,0.0,0.0,0.0,0.0,0.0,-0.014158738777041435,0.03770611062645912,-0.005725401919335127,1.0,0.0,0.0,2.5792153243893445e-19
641.0,0.0,0.0,0.0,0.0,0.0,0.0,-0.024750953540205956,0.04429521784186363,-0.0125875324010849,1.0,0.0,-8.673617379884035e-19,6.479802046495398e-19
642.0,0.0,0.0,0.0,0.0,0.0,0.0,-0.01717464067041874,0.03515949472784996,-0.001424385467544198,1.0,0.0,8.673617379884035e-19,1.9820570965750628e-19
643.0,0.0,0.0,0.0,0.0,0.0,0.0,0.006537188310176134,-0.0027413279749453068,6.577199383173138e-05,1.0,5.421010862427522e-20,8.673617379884035e-19,-1.0503208545953324e-19
644.0,0.0,0.0,0.0,0.0,0.0,0.0,-0.006775984074920416,0.022583479061722755,0.006806456483900547,1.0,0.0,8.673617379884035e-19,-6.776263578034403e-20
645.0,0.0,0.0,0.0,0.0,0.0,0.0,-0.0042747436091303825,0.015848863869905472,-0.003151513868942857,1.0,0.0,0.0,1.0926725019580474e-19
646.0,0.0,0.0,0.0,0.0,0.0,0.0,-0.0017562869470566511,0.01712636835873127,0.0023867283016443253,1.0,1.0842021724855044e-19,-8.673617379884035e-19,2.769797737521562e-19
647.0,0.0,0.0,0.0,0.0,0.0,0.0,-0.009879587218165398,0.02941478043794632,0.006657975260168314,1.0,2.710505431213761e-20,-4.336808689942018e-19,2.3738098346801767e-19
648.0,0.0,0.0,0.0,0.0,0.0,0.0,-0.012606646865606308,0.02545415237545967,-0.004059939179569483,1.0,-8.470329472543003e-21,-4.336808689942018e-19,-9.17442560994814e-19
649.0,0.0,0.0,0.0,0.0,0.0,0.0,0.0003508599183987826,0.007240526378154755,-9.111029794439673e-05,1.0,5.421010862427522e-20,4.336808689942018e-19,-2.583450489125616e-20
650.0,0.0,0.0,0.0,0.0,0.0,0.0,-0.004075050354003906,0.007186606526374817,-0.0033639308530837297,1.0,1.0842021724855044e-19,-2.168404344971009e-19,-3.2441361879839703e-19
651.0,0.0,0.0,0.0,0.0,0.0,0.0,-0.015704253688454628,0.018647698685526848,-0.005331002175807953,1.0,2.168404344971009e-19,0.0,1.9566461081574338e-19
652.0,0.0,0.0,0.0,0.0,0.0,0.0,-0.011539274826645851,0.008972691372036934,-0.003963070921599865,1.0,-4.336808689942018e-19,0.0,6.416274575451325e-19
653.0,0.0,0.0,0.0,0.0,0.0,0.0,-0.008498105220496655,0.0013746059266850352,-0.00010456444579176605,1.0,0.0,1.0842021724855044e-19,-2.947674656444965e-19
654.0,0.0,0.0,0.0,0.0,0.0,0.0,-0.007759741507470608,0.00043419277062639594,0.005119242239743471,1.0,-4.336808689942018e-19,-1.0842021724855044e-19,1.7618285302889447e-19
655.0,0.0,0.0,0.0,0.0,0.0,0.0,-0.009692739695310593,-0.0022943904623389244,-0.0020011283922940493,1.0,1.734723475976807e-18,2.168404344971009e-19,9.24959978401696e-19
656.0,0.0,0.0,0.0,0.0,0.0,0.0,-0.011315315030515194,-0.0018012620275840163,-0.001507519860751927,1.0,1.734723475976807e-18,0.0,-3.9979955110402976e-19
657.0,0.0,0.0,0.0,0.0,0.0,0.0,-0.010740719735622406,-0.00024505986948497593,0.0019373743562027812,1.0,-1.734723475976807e-18,0.0,-1.951563910473908e-18
658.0,0.0,0.0,0.0,0.0,0.0,0.0,-0.01206641923636198,0.004592574667185545,-0.0005782053922303021,1.0,-8.673617379884035e-19,-4.336808689942018e-19,-3.9302328752599536e-19
659.0,0.0,0.0,0.0,0.0,0.0,0.0,-0.010137922130525112,0.0002923040301539004,-0.00012925828923471272,1.0,0.0,8.673617379884035e-19,2.168404344971009e-19
660.0,0.0,0.0,0.0,0.0,0.0,0.0,-0.00948345847427845,-0.008979548700153828,-0.000601590727455914,1.0,-1.734723475976807e-18,-4.336808689942018e-19,-1.3417001884508117e-18
661.0,0.0,0.0,0.0,0.0,0.0,0.0,-0.005759097635746002,-0.012652643956243992,-0.00038001127541065216,1.0,-8.673617379884035e-19,0.0,-8.538092108323347e-19
662.0,0.0,0.0,0.0,0.0,0.0,0.0,-0.005610540043562651,-0.011389857158064842,-0.0003470882656984031,1.0,0.0,8.673617379884035e-19,8.131516293641283e-19
663.0,0.0,0.0,0.0,0.0,0.0,0.0,-0.006992160342633724,-0.008897731080651283,-0.00028140092035755515,1.0,-1.734723475976807e-18,0.0,-2.710505431213761e-20
664.0,0.0,0.0,0.0,0.0,0.0,0.0,-0.0023667390923947096,-0.011091306805610657,-0.002009554533287883,1.0,0.0,0.0,-1.0842021724855044e-19
665.0,0.0,0.0,0.0,0.0,0.0,0.0,0.00011531019845278934,-0.016123251989483833,-0.0005884640268050134,1.0,0.0,0.0,-3.2526065174565133e-19
666.0,0.0,0.0,0.0,0.0,0.0,0.0,0.0025493777357041836,-0.021369148045778275,0.0018937848508358002,1.0,0.0,1.734723475976807e-18,0.0
667.0,0.0,0.0,0.0,0.0,0.0,0.0,0.0019255512161180377,-0.02181265875697136,0.002409912645816803,1.0,0.0,0.0,-5.421010862427522e-20
668.0,0.0,0.0,0.0,0.0,0.0,0.0,0.0032472519669681787,-0.023550646379590034,0.002865491434931755,1.0,1.734723475976807e-18,8.673617379884035e-19,1.0842021724855044e-19
669.0,0.0,0.0,0.0,0.0,0.0,0.0,0.0057236687280237675,-0.028057236224412918,0.0022001236211508512,1.0,-3.469446951953614e-18,-8.673617379884035e-19,1.0842021724855044e-19
670.0,0.0,0.0,0.0,0.0,0.0,0.0,0.00632130540907383,-0.02942756935954094,0.0006241638329811394,1.0,1.734723475976807e-18,1.734723475976807e-18,4.87890977618477e-19
671.0,0.0,0.0,0.0,0.0,0.0,0.0,0.004151749424636364,-0.024767253547906876,0.0017596818506717682,1.0,1.734723475976807e-18,0.0,-6.505213034913027e-19
672.0,0.0,0.0,0.0,0.0,0.0,0.0,0.0015940378652885556,-0.020717687904834747,0.0015755404019728303,1.0,0.0,-1.734723475976807e-18,4.336808689942018e-19
673.0,0.0,0.0,0.0,0.0,0.0,0.0,0.00281387846916914,-0.022662123665213585,0.00047027936670929193,1.0,-3.469446951953614e-18,0.0,-2.168404344971009e-19
674.0,0.0,0.0,0.0,0.0,0.0,0.0,0.007433030288666487,-0.028114095330238342,0.001108516938984394,1.0,0.0,0.0,3.2526065174565133e-19
675.0,0.0,0.0,0.0,0.0,0.0,0.0,0.004541650414466858,-0.023506658151745796,0.003921517636626959,1.0,1.734723475976807e-18,1.734723475976807e-18,-1.0842021724855044e-19
676.0,0.0,0.0,0.0,0.0,0.0,0.0,-0.0029870313592255116,-0.01181974820792675,-0.0011784466914832592,1.0,3.469446951953614e-18,1.734723475976807e-18,-8.673617379884035e-19
677.0,0.0,0.0,0.0,0.0,0.0,0.0,6.212642620084807e-05,-0.01261475495994091,-0.005409464240074158,1.0,0.0,-1.734723475976807e-18,-1.0842021724855044e-19
678.0,0.0,0.0,0.0,0.0,0.0,0.0,0.0009311192552559078,-0.014679910615086555,-0.002550909062847495,1.0,-3.469446951953614e-18,-1.734723475976807e-18,-3.577867169202165e-18
679.0,0.0,0.0,0.0,0.0,0.0,0.0,-0.0001904904202092439,-0.014178723096847534,0.007317016366869211,1.0,-6.938893903907228e-18,-1.734723475976807e-18,-2.0599841277224584e-18
680.0,0.0,0.0,0.0,0.0,0.0,0.0,-0.008373108692467213,-0.00024101309827528894,0.01139779668301344,1.0,0.0,0.0,-3.2526065174565133e-19
681.0,0.0,0.0,0.0,0.0,0.0,0.0,-0.011336480267345905,-0.005232393275946379,-0.01624513790011406,1.0,0.0,-1.734723475976807e-18,9.75781955236954e-19
682.0,0.0,0.0,0.0,0.0,0.0,0.0,-0.00434314226731658,-0.011498707346618176,-0.004052422009408474,1.0,0.0,1.734723475976807e-18,-1.1926223897340549e-18
683.0,0.0,0.0,0.0,0.0,0.0,0.0,1.0570172889856622e-05,-0.013737495988607407,0.0008447269792668521,1.0,6.938893903907228e-18,3.469446951953614e-18,-4.662069341687669e-18
684.0,0.0,0.0,0.0,0.0,0.0,0.0,0.00785099994391203,-0.017697570845484734,0.0062393127009272575,1.0,-1.734723475976807e-18,-1.734723475976807e-18,-5.421010862427522e-19
685.0,0.0,0.0,0.0,0.0,0.0,0.0,0.006338690873235464,-0.015949232503771782,0.0036153991241008043,1.0,0.0,-1.734723475976807e-18,-1.3010426069826053e-18
686.0,0.0,0.0,0.0,0.0,0.0,0.0,0.005620947573333979,-0.016571691259741783,-0.005885789170861244,1.0,0.0,-1.734723475976807e-18,1.0842021724855044e-18
687.0,0.0,0.0,0.0,0.0,0.0,0.0,0.013908034190535545,-0.02782454527914524,-0.0009588218526914716,1.0,1.734723475976807e-18,0.0,-3.2526065174565133e-19
688.0,0.0,0.0,0.0,0.0,0.0,0.0,-0.05430840328335762,0.05939512327313423,-0.061094991862773895,1.0,1.734723475976807e-18,0.0,1.6263032587282567e-18
689.0,0.0,0.0,0.0,0.0,0.0,0.0,0.005915133748203516,-0.017142122611403465,-0.0043985918164253235,1.0,1.734723475976807e-18,1.734723475976807e-18,-4.119968255444917e-18
690.0,0.0,0.0,0.0,0.0,0.0,0.0,0.012929338030517101,-0.022098444402217865,0.0008881971589289606,1.0,0.0,1.734723475976807e-18,-1.5178830414797062e-18
691.0,0.0,0.0,0.0,0.0,0.0,0.0,0.01952674426138401,-0.030306976288557053,0.00470360554754734,1.0,1.734723475976807e-18,-3.469446951953614e-18,1.1926223897340549e-18
692.0,0.0,0.0,0.0,0.0,0.0,0.0,0.017176300287246704,-0.02605428732931614,0.0018875255482271314,1.0,-1.734723475976807e-18,-1.734723475976807e-18,-1.463672932855431e-18
693.0,0.0,0.0,0.0,0.0,0.0,0.0,0.014756531454622746,-0.023658014833927155,0.0004765116609632969,1.0,0.0,-1.734723475976807e-18,-2.0057740190981832e-18
694.0,0.0,0.0,0.0,0.0,0.0,0.0,0.018488314002752304,-0.021709183230996132,0.007623795885592699,1.0,-1.734723475976807e-18,-1.734723475976807e-18,-7.047314121155779e-19
695.0,0.0,0.0,0.0,0.0,0.0,0.0,0.017312273383140564,-0.02384580299258232,0.0026113649364560843,1.0,1.734723475976807e-18,-1.734723475976807e-18,1.1926223897340549e-18
696.0,0.0,0.0,0.0,0.0,0.0,0.0,0.00667377607896924,-0.015479749999940395,-0.003062732284888625,1.0,3.469446951953614e-18,0.0,3.7947076036992655e-19
697.0,0.0,0.0,0.0,0.0,0.0,0.0,0.008208109997212887,-0.015389596112072468,0.002369815018028021,1.0,3.469446951953614e-18,0.0,-1.6263032587282567e-19
698.0,0.0,0.0,0.0,0.0,0.0,0.0,0.011880445294082165,-0.0144594581797719,0.0009534615674056113,1.0,-1.734723475976807e-18,-8.673617379884035e-19,8.673617379884035e-19
699.0,0.0,0.0,0.0,0.0,0.0,0.0,0.008112793788313866,-0.013816364109516144,-0.0003255278570577502,1.0,1.734723475976807e-18,0.0,2.710505431213761e-19
700.0,0.0,0.0,0.0,0.0,0.0,0.0,-0.0012994440039619803,-0.006968277506530285,-0.005767745431512594,1.0,-1.734723475976807e-18,-2.6020852139652106e-18,8.131516293641283e-19
701.0,0.0,0.0,0.0,0.0,0.0,0.0,-0.004061988554894924,0.0006893969257362187,-0.012034093961119652,1.0,1.734723475976807e-18,-8.673617379884035e-19,-2.3852447794681098e-18
702.0,0.0,0.0,0.0,0.0,0.0,0.0,0.007345304358750582,-0.0052386377938091755,0.0007959564100019634,1.0,0.0,8.673617379884035e-19,-1.0842021724855044e-18
703.0,0.0,0.0,0.0,0.0,0.0,0.0,-0.0024005197919905186,-0.001813380280509591,-0.0030723270028829575,1.0,1.734723475976807e-18,0.0,-7.589415207398531e-19
704.0,0.0,0.0,0.0,0.0,0.0,0.0,-0.01135315839201212,0.007875073701143265,-0.009335518814623356,1.0,0.0,8.673617379884035e-19,-1.0299920638612292e-18
705.0,0.0,0.0,0.0,0.0,0.0,0.0,-0.013382569886744022,0.013581978157162666,-0.00827675312757492,1.0,1.734723475976807e-18,8.673617379884035e-19,-2.3852447794681098e-18
706.0,0.0,0.0,0.0,0.0,0.0,0.0,-0.00940545555204153,0.016012391075491905,-0.008345402777194977,1.0,0.0,0.0,6.776263578034403e-19
707.0,0.0,0.0,0.0,0.0,0.0,0.0,-0.0002965936146210879,0.0028204559348523617,-0.0009219601633958519,1.0,-1.734723475976807e-18,0.0,-1.0299920638612292e-18
708.0,0.0,0.0,0.0,0.0,0.0,0.0,0.006571154575794935,-0.011312704533338547,0.001051233266480267,1.0,3.469446951953614e-18,1.734723475976807e-18,3.7947076036992655e-19
709.0,0.0,0.0,0.0,0.0,0.0,0.0,0.0029016106855124235,-0.006086947862058878,-1.2119443226765725e-06,1.0,-3.469446951953614e-18,0.0,5.963111948670274e-19
710.0,0.0,0.0,0.0,0.0,0.0,0.0,0.0032543493434786797,-0.005517985206097364,0.006573866121470928,1.0,3.469446951953614e-18,-1.734723475976807e-18,-5.421010862427522e-20
711.0,0.0,0.0,0.0,0.0,0.0,0.0,-1.784284359018784e-05,-0.006029175128787756,0.003019880736246705,1.0,1.734723475976807e-18,0.0,-1.0299920638612292e-18
712.0,0.0,0.0,0.0,0.0,0.0,0.0,0.007278836332261562,-0.010544994845986366,0.00793432630598545,1.0,-1.734723475976807e-18,-1.734723475976807e-18,-4.336808689942018e-19
713.0,0.0,0.0,0.0,0.0,0.0,0.0,0.011221624910831451,-0.019564451649785042,0.0022213056217879057,1.0,0.0,-1.734723475976807e-18,-1.3552527156068805e-18
714.0,0.0,0.0,0.0,0.0,0.0,0.0,0.006210982799530029,-0.02198970504105091,-0.012192543596029282,1.0,-1.734723475976807e-18,-1.734723475976807e-18,-8.673617379884035e-19
715.0,0.0,0.0,0.0,0.0,0.0,0.0,0.013139086775481701,-0.026900917291641235,0.001598850591108203,1.0,-1.734723475976807e-18,-3.469446951953614e-18,3.2526065174565133e-19
716.0,0.0,0.0,0.0,0.0,0.0,0.0,0.016118377447128296,-0.02874698117375374,0.008566332049667835,1.0,-1.734723475976807e-18,-1.734723475976807e-18,5.421010862427522e-19
717.0,0.0,0.0,0.0,0.0,0.0,0.0,0.00655714888125658,-0.020779501646757126,-0.00030791552853770554,1.0,0.0,0.0,1.734723475976807e-18
718.0,0.0,0.0,0.0,0.0,0.0,0.0,0.006158003117889166,-0.02279859408736229,0.0009805354056879878,1.0,0.0,1.734723475976807e-18,-2.168404344971009e-19
719.0,0.0,0.0,0.0,0.0,0.0,0.0,0.01228026021271944,-0.02394638955593109,0.008774148300290108,1.0,3.469446951953614e-18,3.469446951953614e-18,7.589415207398531e-19
720.0,0.0,0.0,0.0,0.0,0.0,0.0,0.006647412199527025,-0.02641041949391365,0.0012704274849966168,1.0,0.0,-1.734723475976807e-18,2.168404344971009e-19
721.0,0.0,0.0,0.0,0.0,0.0,0.0,-0.002167672151699662,-0.013633226975798607,-0.00021522631868720055,1.0,-1.734723475976807e-18,-1.734723475976807e-18,-9.75781955236954e-19
722.0,0.0,0.0,0.0,0.0,0.0,0.0,-0.008717434480786324,-0.008758854120969772,-0.013341149315237999,1.0,3.469446951953614e-18,3.469446951953614e-18,3.2526065174565133e-19
723.0,0.0,0.0,0.0,0.0,0.0,0.0,0.0026191023644059896,-0.022434357553720474,0.004114445764571428,1.0,-1.734723475976807e-18,-3.469446951953614e-18,4.336808689942018e-19
724.0,0.0,0.0,0.0,0.0,0.0,0.0,0.00042146435589529574,-0.014134431257843971,0.007697635795921087,1.0,0.0,0.0,2.168404344971009e-19
725.0,0.0,0.0,0.0,0.0,0.0,0.0,-0.002593604614958167,-0.005877671297639608,0.005991574376821518,1.0,3.469446951953614e-18,-3.469446951953614e-18,-1.1926223897340549e-18
726.0,0.0,0.0,0.0,0.0,0.0,0.0,-0.008341503329575062,-0.0008838212233968079,-0.00478653097525239,1.0,6.938893903907228e-18,-1.734723475976807e-18,-4.336808689942018e-19
727.0,0.0,0.0,0.0,0.0,0.0,0.0,0.0017326094675809145,-0.020015735179185867,-0.0025119029451161623,1.0,-3.469446951953614e-18,1.734723475976807e-18,4.336808689942018e-19
728.0,0.0,0.0,0.0,0.0,0.0,0.0,0.005896915681660175,-0.02484068274497986,-0.007131093181669712,1.0,-6.938893903907228e-18,1.734723475976807e-18,-1.1926223897340549e-18
729.0,0.0,0.0,0.0,0.0,0.0,0.0,0.007241400424391031,-0.02287839725613594,-0.003607524558901787,1.0,3.469446951953614e-18,0.0,-7.589415207398531e-19
730.0,0.0,0.0,0.0,0.0,0.0,0.0,0.007790628354996443,-0.01914546638727188,0.006920720916241407,1.0,-1.0408340855860843e-17,-1.734723475976807e-18,-1.0842021724855044e-19
731.0,0.0,0.0,0.0,0.0,0.0,0.0,0.003295549424365163,-0.015487008728086948,0.007291655987501144,1.0,0.0,-3.469446951953614e-18,6.505213034913027e-19
732.0,0.0,0.0,0.0,0.0,0.0,0.0,-0.0017823876114562154,-0.009447460062801838,0.0040160175412893295,1.0,-1.0408340855860843e-17,-3.469446951953614e-18,2.0599841277224584e-18
733.0,0.0,0.0,0.0,0.0,0.0,0.0,-0.003084826050326228,-0.008942602202296257,0.0038195110391825438,1.0,-3.469446951953614e-18,0.0,2.168404344971009e-18
734.0,0.0,0.0,0.0,0.0,0.0,0.0,-0.0014669946394860744,-0.013576751574873924,0.0013626916334033012,1.0,0.0,0.0,0.0
735.0,0.0,0.0,0.0,0.0,0.0,0.0,-0.002133919158950448,-0.01458069495856762,-0.005504453554749489,1.0,0.0,0.0,0.0
736.0,0.0,0.0,0.0,0.0,0.0,0.0,0.0018006733153015375,-0.01366685051470995,-0.001513708382844925,1.0,-3.469446951953614e-18,-3.469446951953614e-18,-1.0842021724855044e-18
737.0,0.0,0.0,0.0,0.0,0.0,0.0,0.0009440822759643197,-0.013703788630664349,-0.003485532943159342,1.0,-3.469446951953614e-18,-5.204170427930421e-18,2.6020852139652106e-18
738.0,0.0,0.0,0.0,0.0,0.0,0.0,-0.003813074203208089,-0.005500631872564554,-0.00809040479362011,1.0,-3.469446951953614e-18,1.734723475976807e-18,-2.3852447794681098e-18
739.0,0.0,0.0,0.0,0.0,0.0,0.0,-0.001749070012010634,-0.0055455961264669895,-0.005535520147532225,1.0,3.469446951953614e-18,1.734723475976807e-18,-6.505213034913027e-19
740.0,0.0,0.0,0.0,0.0,0.0,0.0,-0.001381031353957951,-0.012877045199275017,-0.0038058399222791195,1.0,0.0,3.469446951953614e-18,1.3010426069826053e-18
741.0,0.0,0.0,0.0,0.0,0.0,0.0,-0.0021527393255382776,-0.012732015922665596,-0.004629137925803661,1.0,0.0,0.0,0.0
742.0,0.0,0.0,0.0,0.0,0.0,0.0,-0.0021968823857605457,-0.01192373875528574,-0.004926404915750027,1.0,0.0,-1.734723475976807e-18,2.3852447794681098e-18
743.0,0.0,0.0,0.0,0.0,0.0,0.0,-0.003092618193477392,-0.007422435097396374,-0.0017033243784680963,1.0,-3.469446951953614e-18,3.469446951953614e-18,-1.951563910473908e-18
744.0,0.0,0.0,0.0,0.0,0.0,0.0,-0.005469673313200474,-0.0018293067114427686,0.000969558721408248,1.0,3.469446951953614e-18,-3.469446951953614e-18,2.168404344971009e-18
745.0,0.0,0.0,0.0,0.0,0.0,0.0,-0.004427122883498669,-0.0029855198226869106,0.0026343336794525385,1.0,3.469446951953614e-18,-1.734723475976807e-18,1.0842021724855044e-18
746.0,0.0,0.0,0.0,0.0,0.0,0.0,0.001445918926037848,-0.00871951598674059,0.010775794275105,1.0,3.469446951953614e-18,-1.734723475976807e-18,1.3010426069826053e-18
747.0,0.0,0.0,0.0,0.0,0.0,0.0,-0.0032983990386128426,-0.0055426680482923985,0.011126790195703506,1.0,-3.469446951953614e-18,0.0,1.734723475976807e-18
748.0,0.0,0.0,0.0,0.0,0.0,0.0,-0.011228957213461399,0.01079713273793459,0.004474235232919455,1.0,6.938893903907228e-18,-1.734723475976807e-18,-1.0842021724855044e-18
749.0,0.0,0.0,0.0,0.0,0.0,0.0,-0.0069093406200408936,0.006645317655056715,0.002419873606413603,1.0,-3.469446951953614e-18,0.0,0.0
750.0,0.0,0.0,0.0,0.0,0.0,0.0,-0.0057267481461167336,0.0005168037605471909,0.00297908834181726,1.0,0.0,3.469446951953614e-18,-1.734723475976807e-18
751.0,0.0,0.0,0.0,0.0,0.0,0.0,-0.013254090212285519,0.00926914531737566,0.001853608526289463,1.0,-1.0408340855860843e-17,0.0,-6.505213034913027e-19
752.0,0.0,0.0,0.0,0.0,0.0,0.0,-0.015086561441421509,0.01399057824164629,-0.0033049958292394876,1.0,3.469446951953614e-18,-3.469446951953614e-18,-2.168404344971009e-18
753.0,0.0,0.0,0.0,0.0,0.0,0.0,0.00043079801253043115,-0.0011077966773882508,0.004708038177341223,1.0,0.0,0.0,-3.0357660829594124e-18
754.0,0.0,0.0,0.0,0.0,0.0,0.0,0.0006984893698245287,-0.005798644851893187,0.003650420345366001,1.0,3.469446951953614e-18,0.0,-1.3010426069826053e-18
755.0,0.0,0.0,0.0,0.0,0.0,0.0,-0.007857516407966614,0.010335396975278854,-0.001517640077508986,1.0,0.0,-3.469446951953614e-18,-4.336808689942018e-18
756.0,0.0,0.0,0.0,0.0,0.0,0.0,-0.0005182828172110021,0.014638533815741539,0.0018449955387040973,1.0,0.0,0.0,3.469446951953614e-18
757.0,0.0,0.0,0.0,0.0,0.0,0.0,0.007116793189197779,0.007202193606644869,0.007010263856500387,1.0,-3.469446951953614e-18,-1.734723475976807e-18,-7.806255641895632e-18
758.0,0.0,0.0,0.0,0.0,0.0,0.0,0.015378621406853199,-0.0024684923700988293,0.00947490893304348,1.0,6.938893903907228e-18,1.734723475976807e-18,-4.662069341687669e-18
759.0,0.0,0.0,0.0,0.0,0.0,0.0,0.013101654127240181,-0.00289355986751616,0.00667536212131381,1.0,-3.469446951953614e-18,0.0,-8.673617379884035e-19
760.0,0.0,0.0,0.0,0.0,0.0,0.0,0.019327890127897263,-0.012997889891266823,0.0028625347185879946,1.0,0.0,-3.469446951953614e-18,1.6263032587282567e-18
761.0,0.0,0.0,0.0,0.0,0.0,0.0,0.018781008198857307,-0.013689127750694752,0.0017380041535943747,1.0,-3.469446951953614e-18,0.0,1.5178830414797062e-18
762.0,0.0,0.0,0.0,0.0,0.0,0.0,0.014894039370119572,-0.005056653171777725,-0.0005375019973143935,1.0,0.0,1.734723475976807e-18,-2.6020852139652106e-18
763.0,0.0,0.0,0.0,0.0,0.0,0.0,0.019485363736748695,-0.007935821078717709,0.0024275188334286213,1.0,3.469446951953614e-18,-1.734723475976807e-18,-1.951563910473908e-18
764.0,0.0,0.0,0.0,0.0,0.0,0.0,0.01779952272772789,-0.005089759826660156,0.0026262204628437757,1.0,3.469446951953614e-18,0.0,2.168404344971009e-19
765.0,0.0,0.0,0.0,0.0,0.0,0.0,0.015343799255788326,-0.0024943160824477673,0.0028560077771544456,1.0,3.469446951953614e-18,1.734723475976807e-18,-2.168404344971009e-19
766.0,0.0,0.0,0.0,0.0,0.0,0.0,0.015831949189305305,-0.009269672445952892,0.002628902206197381,1.0,3.469446951953614e-18,-1.734723475976807e-18,3.0357660829594124e-18
767.0,0.0,0.0,0.0,0.0,0.0,0.0,0.010216251946985722,-0.008636118844151497,0.0038471028674393892,1.0,-3.469446951953614e-18,-3.469446951953614e-18,-5.095750210681871e-18
768.0,0.0,0.0,0.0,0.0,0.0,0.0,0.008087909780442715,-0.009247377514839172,-0.00017932923219632357,1.0,0.0,-3.469446951953614e-18,-4.336808689942018e-19
769.0,0.0,0.0,0.0,0.0,0.0,0.0,0.00375549984164536,0.001213348237797618,-0.0037148958072066307,1.0,-3.469446951953614e-18,1.734723475976807e-18,-7.589415207398531e-18
770.0,0.0,0.0,0.0,0.0,0.0,0.0,0.0007737835985608399,0.0005817733472213149,-0.0022683844435960054,1.0,0.0,1.734723475976807e-18,1.734723475976807e-18
771.0,0.0,0.0,0.0,0.0,0.0,0.0,-0.0017663170583546162,0.00214109243825078,0.0016354771796613932,1.0,3.469446951953614e-18,3.469446951953614e-18,8.673617379884035e-19
772.0,0.0,0.0,0.0,0.0,0.0,0.0,-0.003675891784951091,-0.001584013574756682,-0.0007930420688353479,1.0,0.0,3.469446951953614e-18,-4.119968255444917e-18
773.0,0.0,0.0,0.0,0.0,0.0,0.0,-0.005098879802972078,-0.003923728596419096,-0.0005854237824678421,1.0,6.938893903907228e-18,6.938893903907228e-18,5.421010862427522e-18
774.0,0.0,0.0,0.0,0.0,0.0,0.0,-0.003723487490788102,-0.008853700943291187,-0.0016751958755776286,1.0,0.0,-6.938893903907228e-18,4.336808689942018e-18
775.0,0.0,0.0,0.0,0.0,0.0,0.0,-0.013867294415831566,0.0058778030797839165,-0.014087308198213577,1.0,6.938893903907228e-18,6.938893903907228e-18,-2.168404344971009e-18
776.0,0.0,0.0,0.0,0.0,0.0,0.0,-0.0027306245174258947,0.0007487396942451596,-0.002859637374058366,1.0,0.0,-3.469446951953614e-18,1.734723475976807e-18
777.0,0.0,0.0,0.0,0.0,0.0,0.0,-0.019027484580874443,0.005247458815574646,-0.014076883904635906,1.0,6.938893903907228e-18,0.0,-6.938893903907228e-18
778.0,0.0,0.0,0.0,0.0,0.0,0.0,-0.031889088451862335,0.01792241632938385,-0.026560408994555473,1.0,0.0,0.0,2.168404344971009e-19
779.0,0.0,0.0,0.0,0.0,0.0,0.0,-0.035352084785699844,0.02968514710664749,-0.032852623611688614,1.0,-3.469446951953614e-18,-3.469446951953614e-18,3.2526065174565133e-18
780.0,0.0,0.0,0.0,0.0,0.0,0.0,-0.03688151016831398,0.039854101836681366,-0.0387524776160717,1.0,3.469446951953614e-18,3.469446951953614e-18,-2.168404344971009e-18
781.0,0.0,0.0,0.0,0.0,0.0,0.0,-0.01889258809387684,0.028925171121954918,-0.03321297839283943,1.0,3.469446951953614e-18,0.0,6.505213034913027e-19
782.0,0.0,0.0,0.0,0.0,0.0,0.0,0.005453820340335369,0.008669883012771606,-0.01802947372198105,1.0,0.0,-3.469446951953614e-18,3.686287386450715e-18
783.0,0.0,0.0,0.0,0.0,0.0,0.0,0.029436921700835228,-0.01148331817239523,0.0011796486796811223,1.0,6.938893903907228e-18,3.469446951953614e-18,-5.854691731421724e-18
784.0,0.0,0.0,0.0,0.0,0.0,0.0,0.047575660049915314,-0.03522053360939026,0.00997726246714592,1.0,0.0,0.0,-8.673617379884035e-19
785.0,0.0,0.0,0.0,0.0,0.0,0.0,0.041421305388212204,-0.04097447171807289,0.010921967215836048,1.0,0.0,1.734723475976807e-18,-3.469446951953614e-18
786.0,0.0,0.0,0.0,0.0,0.0,0.0,0.052675049751996994,-0.041855864226818085,0.025836510583758354,1.0,3.469446951953614e-18,-1.734723475976807e-18,-6.7220534694101275e-18
787.0,0.0,0.0,0.0,0.0,0.0,0.0,0.061906199902296066,-0.04582489654421806,0.04945877566933632,1.0,-1.0408340855860843e-17,0.0,6.505213034913027e-19
788.0,0.0,0.0,0.0,0.0,0.0,0.0,0.036897674202919006,-0.03189472854137421,0.04088127613067627,1.0,-6.938893903907228e-18,0.0,-2.6020852139652106e-18
789.0,0.0,0.0,0.0,0.0,0.0,0.0,-0.010542170144617558,0.000815747887827456,0.013981180265545845,1.0,-6.938893903907228e-18,-1.734723475976807e-18,5.637851296924623e-18
790.0,0.0,0.0,0.0,0.0,0.0,0.0,-0.01132380124181509,0.004030458629131317,0.017183810472488403,1.0,0.0,-3.469446951953614e-18,2.6020852139652106e-18
791.0,0.0,0.0,0.0,0.0,0.0,0.0,0.004135009832680225,-0.005898832343518734,0.02972867339849472,1.0,6.938893903907228e-18,1.734723475976807e-18,-6.505213034913027e-19
792.0,0.0,0.0,0.0,0.0,0.0,0.0,-0.006755123846232891,-0.007798542734235525,0.011614195071160793,1.0,6.938893903907228e-18,1.734723475976807e-18,-2.168404344971009e-18
793.0,0.0,0.0,0.0,0.0,0.0,0.0,-0.006608701776713133,-0.010715271346271038,0.013869326561689377,1.0,6.938893903907228e-18,0.0,-2.6020852139652106e-18
794.0,0.0,0.0,0.0,0.0,0.0,0.0,-0.015529493801295757,-0.0002995106333401054,0.004312909673899412,1.0,-6.938893903907228e-18,1.734723475976807e-18,-7.589415207398531e-18
795.0,0.0,0.0,0.0,0.0,0.0,0.0,-0.02716393582522869,0.027328573167324066,0.0027291246224194765,1.0,-6.938893903907228e-18,1.734723475976807e-18,-4.119968255444917e-18
796.0,0.0,0.0,0.0,0.0,0.0,0.0,-0.02404032088816166,0.0329134576022625,0.003907460253685713,1.0,0.0,0.0,-2.168404344971009e-19
797.0,0.0,0.0,0.0,0.0,0.0,0.0,-0.013975631445646286,0.022972743958234787,0.01598958484828472,1.0,-6.938893903907228e-18,1.734723475976807e-18,2.3852447794681098e-18
798.0,0.0,0.0,0.0,0.0,0.0,0.0,-0.022604797035455704,0.027252303436398506,0.0022484685759991407,1.0,6.938893903907228e-18,-5.204170427930421e-18,3.2526065174565133e-18
799.0,0.0,0.0,0.0,0.0,0.0,0.0,-0.02812926471233368,0.026310164481401443,-8.101049752440304e-05,1.0,-1.3877787807814457e-17,1.734723475976807e-18,-6.505213034913027e-19
800.0,0.0,0.0,0.0,0.0,0.0,0.0,-0.026032662019133568,0.028965847566723824,-0.00032918175566010177,1.0,0.0,0.0,-2.3852447794681098e-18
801.0,0.0,0.0,0.0,0.0,0.0,0.0,-0.015501387417316437,0.015954306349158287,0.0015784107381477952,1.0,3.469446951953614e-18,3.469446951953614e-18,-4.7704895589362195e-18
802.0,0.0,0.0,0.0,0.0,0.0,0.0,-0.005608654581010342,-0.0006008533528074622,0.002115159295499325,1.0,-3.469446951953614e-18,-3.469446951953614e-18,-3.469446951953614e-18
803.0,0.0,0.0,0.0,0.0,0.0,0.0,-0.011897590942680836,0.005581426899880171,-0.006526760756969452,1.0,-3.469446951953614e-18,0.0,-1.0842021724855044e-18
804.0,0.0,0.0,0.0,0.0,0.0,0.0,-0.012357398867607117,0.0052489317022264,-0.004608676768839359,1.0,3.469446951953614e-18,1.734723475976807e-18,6.505213034913027e-19
805.0,0.0,0.0,0.0,0.0,0.0,0.0,-0.02010253816843033,0.01254204846918583,-0.011569663882255554,1.0,-3.469446951953614e-18,0.0,-2.168404344971009e-19
806.0,0.0,0.0,0.0,0.0,0.0,0.0,-0.017727958038449287,0.014111925847828388,-0.014356358908116817,1.0,0.0,0.0,1.734723475976807e-18
807.0,0.0,0.0,0.0,0.0,0.0,0.0,-0.006094748619943857,0.008697993122041225,-0.005220253020524979,1.0,-1.0408340855860843e-17,1.734723475976807e-18,6.505213034913027e-19
808.0,0.0,0.0,0.0,0.0,0.0,0.0,0.00031203264370560646,0.009169881232082844,-0.0024766745045781136,1.0,-3.469446951953614e-18,0.0,-1.0842021724855044e-18
809.0,0.0,0.0,0.0,0.0,0.0,0.0,0.0066536301746964455,0.006034540478140116,-0.0007876883610151708,1.0,-6.938893903907228e-18,-1.734723475976807e-18,-6.505213034913027e-19
810.0,0.0,0.0,0.0,0.0,0.0,0.0,0.01036062091588974,0.0002874715137295425,-0.005847575608640909,1.0,0.0,3.469446951953614e-18,-1.1926223897340549e-18
811.0,0.0,0.0,0.0,0.0,0.0,0.0,0.012878444977104664,-0.00486343028023839,0.0007254374213516712,1.0,-3.469446951953614e-18,-1.734723475976807e-18,-1.5178830414797062e-18
812.0,0.0,0.0,0.0,0.0,0.0,0.0,0.008639140985906124,0.0023337334860116243,0.008890718221664429,1.0,-3.469446951953614e-18,-3.469446951953614e-18,1.6263032587282567e-18
813.0,0.0,0.0,0.0,0.0,0.0,0.0,0.005197243764996529,0.0035129834432154894,0.0038977316580712795,1.0,-3.469446951953614e-18,-1.734723475976807e-18,6.505213034913027e-19
814.0,0.0,0.0,0.0,0.0,0.0,0.0,0.0041455854661762714,-0.0037070915568619967,-0.0010166560532525182,1.0,3.469446951953614e-18,0.0,-1.8431436932253575e-18
815.0,0.0,0.0,0.0,0.0,0.0,0.0,0.009454882703721523,-0.014020778238773346,-0.0016271388158202171,1.0,3.469446951953614e-18,-3.469446951953614e-18,5.421010862427522e-19
816.0,0.0,0.0,0.0,0.0,0.0,0.0,0.01017701905220747,-0.00993042066693306,0.0019082396756857634,1.0,3.469446951953614e-18,1.734723475976807e-18,-7.589415207398531e-19
817.0,0.0,0.0,0.0,0.0,0.0,0.0,0.009331167675554752,-0.005815362557768822,0.004080776125192642,1.0,-6.938893903907228e-18,-3.469446951953614e-18,4.119968255444917e-18
818.0,0.0,0.0,0.0,0.0,0.0,0.0,0.005000501871109009,-0.003782824147492647,-0.001575502217747271,1.0,0.0,-1.734723475976807e-18,2.0599841277224584e-18
819.0,0.0,0.0,0.0,0.0,0.0,0.0,0.005469505209475756,-0.0041077760979533195,-0.0016521805664524436,1.0,-3.469446951953614e-18,1.734723475976807e-18,-3.7947076036992655e-18
820.0,0.0,0.0,0.0,0.0,0.0,0.0,0.010835643857717514,-0.01108154933899641,-0.0013070038985460997,1.0,-6.938893903907228e-18,-1.734723475976807e-18,-1.3010426069826053e-18
821.0,0.0,0.0,0.0,0.0,0.0,0.0,0.007894201204180717,-0.013096760958433151,-0.005693139508366585,1.0,-3.469446951953614e-18,1.734723475976807e-18,-2.2768245622195593e-18
822.0,0.0,0.0,0.0,0.0,0.0,0.0,0.01023604441434145,-0.019130762666463852,-0.0010153079638257623,1.0,6.938893903907228e-18,1.734723475976807e-18,2.4936649967166602e-18
823.0,0.0,0.0,0.0,0.0,0.0,0.0,0.0157600287348032,-0.026651201769709587,0.001938365981914103,1.0,3.469446951953614e-18,1.734723475976807e-18,-1.4094628242311558e-18
824.0,0.0,0.0,0.0,0.0,0.0,0.0,0.02634809911251068,-0.03780028223991394,0.014510458335280418,1.0,-3.469446951953614e-18,1.734723475976807e-18,-7.589415207398531e-19
