,Position_X,Position_Y,Position_Z,Velocity_X,Velocity_Y,Velocity_Z,Acceleration_X,Acceleration_Y,Acceleration_Z,Quaterion_0,Quaterion_1,Quaterion_2,Quaterion_3
51.0,0.0,0.0,0.0,0.0,0.0,0.0,-0.020025357604026794,-0.03235508129000664,0.007142344489693642,1.0,-1.734723475976807e-17,-6.938893903907228e-18,-3.469446951953614e-17
52.0,0.0,0.0,0.0,0.0,0.0,0.0,-0.021012384444475174,-0.03078990802168846,0.003766461741179228,0.9999990463256836,-0.00019729876657947898,0.000544510898180306,-0.0012756172800436616
53.0,0.0,0.0,0.0,0.0,0.0,0.0,-0.020647626370191574,-0.027142345905303955,-0.003152999794110656,0.9999975562095642,0.00011918724339921027,0.0014421911910176277,-0.0016659974353387952
54.0,0.0,0.0,0.0,0.0,0.0,0.0,-0.018313942477107048,-0.023741139099001884,-0.010139415971934795,0.9999943375587463,0.000478370173368603,0.002690594643354416,-0.0019496653694659472
55.0,0.0,0.0,0.0,0.0,0.0,0.0,-0.015862248837947845,-0.020124413073062897,-0.01448510680347681,0.9999893307685852,0.0008805936085991561,0.003915349952876568,-0.002300927648320794
56.0,0.0,0.0,0.0,0.0,0.0,0.0,-0.01393223274499178,-0.014262630604207516,-0.014244175516068935,0.9999814033508301,0.0013410468818619847,0.005280539859086275,-0.0027431058697402477
57.0,0.0,0.0,0.0,0.0,0.0,0.0,-0.011747997254133224,-0.008168854750692844,-0.01214681752026081,0.9999653100967407,0.001988483127206564,0.007458813954144716,-0.0031283956486731768
58.0,0.0,0.0,0.0,0.0,0.0,0.0,-0.00919359177350998,-0.006794285029172897,-0.012001436203718185,0.9999533295631409,0.0023234172258526087,0.009075581096112728,-0.0023610354401171207
59.0,0.0,0.0,0.0,0.0,0.0,0.0,-0.006746549159288406,-0.004871641285717487,-0.012866429053246975,0.9999402165412903,0.0025788997299969196,0.010507237166166306,-0.0015834580408409238
60.0,0.0,0.0,0.0,0.0,0.0,0.0,0.004726302344352007,-0.011560903862118721,-0.04922977834939957,0.9999338984489441,0.002447867300361395,0.011203369125723839,-0.0008511567139066756
61.0,0.0,0.0,0.0,0.0,0.0,0.0,0.003452642820775509,-0.01683284156024456,-0.027354510501027107,0.9999346137046814,0.001938131172209978,0.011271228082478046,-8.020443783607334e-05
62.0,0.0,0.0,0.0,0.0,0.0,0.0,0.007882487028837204,0.000734665256459266,0.002124045742675662,0.9999427795410156,0.001241051941178739,0.010616710409522057,0.00047986427671276033
63.0,0.0,0.0,0.0,0.0,0.0,0.0,0.005138875916600227,-0.012400617823004723,0.0012270011939108372,0.9999532103538513,0.0005846125422976911,0.009556406177580357,0.00138392997905612
64.0,0.0,0.0,0.0,0.0,0.0,0.0,0.0034645702689886093,-0.011111284606158733,0.027102921158075333,0.9999591708183289,-0.00011354562593623996,0.008788649924099445,0.0020995503291487694
65.0,0.0,0.0,0.0,0.0,0.0,0.0,0.001860489253886044,-0.01778208278119564,0.023343315348029137,0.9999615550041199,-0.0006167708779685199,0.00846927147358656,0.0021969645749777555
66.0,0.0,0.0,0.0,0.0,0.0,0.0,-0.0017138278344646096,-0.025517581030726433,0.015963464975357056,0.9999640583992004,-0.0012876316905021667,0.008204841986298561,0.001688112155534327
67.0,0.0,0.0,0.0,0.0,0.0,0.0,-0.005750848446041346,-0.029569806531071663,0.01254836656153202,0.999962568283081,-0.002072386210784316,0.008380493149161339,0.0005560995195992291
68.0,0.0,0.0,0.0,0.0,0.0,0.0,-0.00568494014441967,-0.028677131980657578,0.008293948136270046,0.9999527335166931,-0.002579078543931246,0.009334927424788475,-0.0008358684717677534
69.0,0.0,0.0,0.0,0.0,0.0,0.0,-0.004139554221183062,-0.023225774988532066,0.003282718127593398,0.9999398589134216,-0.003003695048391819,0.010333486832678318,-0.0021152207627892494
70.0,0.0,0.0,0.0,0.0,0.0,0.0,0.0002407197462162003,-0.011600814759731293,-0.0010526770493015647,0.999925971031189,-0.002897722879424691,0.01152684073895216,-0.002599970204755664
71.0,0.0,0.0,0.0,0.0,0.0,0.0,0.005296282470226288,-0.0025842622853815556,-0.006946885026991367,0.9999144673347473,-0.0022394172847270966,0.012632918544113636,-0.0025361115112900734
72.0,0.0,0.0,0.0,0.0,0.0,0.0,0.008841753005981445,-0.0007305642357096076,-0.009884524159133434,0.9999077916145325,-0.0014828980201855302,0.013307309709489346,-0.002274263883009553
73.0,0.0,0.0,0.0,0.0,0.0,0.0,0.014863613992929459,0.002926463959738612,-0.012373613193631172,0.9999083876609802,-0.001016045454889536,0.013418243266642094,-0.0014618890127167106
74.0,0.0,0.0,0.0,0.0,0.0,0.0,0.01759154349565506,0.004625083412975073,-0.011259406805038452,0.9999178051948547,-0.0005812979652546346,0.012792091816663742,-0.0006734938360750675
75.0,0.0,0.0,0.0,0.0,0.0,0.0,0.018422115594148636,0.007723780814558268,-0.0012956102145835757,0.9999278783798218,-0.000483651936519891,0.01200115866959095,4.8230765969492495e-05
76.0,0.0,0.0,0.0,0.0,0.0,0.0,0.017502127215266228,0.010718025267124176,0.009022507816553116,0.9999396800994873,-0.0006907230708748102,0.01091263722628355,0.0010306860785931349
77.0,0.0,0.0,0.0,0.0,0.0,0.0,0.015082286670804024,0.010780208744108677,0.018483109772205353,0.999948263168335,-0.0009855666430667043,0.009929407387971878,0.001972612924873829
78.0,0.0,0.0,0.0,0.0,0.0,0.0,0.01285493467003107,0.009133427403867245,0.018579231575131416,0.9999533295631409,-0.0014151333598420024,0.009278631769120693,0.0022785139735788107
79.0,0.0,0.0,0.0,0.0,0.0,0.0,0.008663627319037914,0.007062770891934633,0.015980351716279984,0.9999606609344482,-0.0020608273334801197,0.008233274333178997,0.0025851058308035135
80.0,0.0,0.0,0.0,0.0,0.0,0.0,0.00521536311134696,0.004021715372800827,0.014666466042399406,0.9999616146087646,-0.002094706054776907,0.007965587079524994,0.002995937131345272
81.0,0.0,0.0,0.0,0.0,0.0,0.0,0.004067382775247097,0.0012497005518525839,0.012334374710917473,0.9999561905860901,-0.0020436448976397514,0.008546426892280579,0.0032187988981604576
82.0,0.0,0.0,0.0,0.0,0.0,0.0,-0.0005348055856302381,0.0023076198995113373,0.004003392066806555,0.9999569058418274,-0.0023834698367863894,0.008426504209637642,0.0030897355172783136
83.0,0.0,0.0,0.0,0.0,0.0,0.0,-0.00032838471815921366,0.008599012158811092,0.003907057922333479,0.9999530911445618,-0.0021618783939629793,0.008560813032090664,0.00398293836042285
84.0,0.0,0.0,0.0,0.0,0.0,0.0,-0.0015952984103932977,0.0063116466626524925,-0.002025530207902193,0.9999483227729797,-0.0015054101822897792,0.009038364514708519,0.004397107753902674
85.0,0.0,0.0,0.0,0.0,0.0,0.0,-0.0037251857575029135,0.004682943690568209,-0.004761509597301483,0.9999428987503052,-0.0010081097716465592,0.009591960348188877,0.004599511623382568
86.0,0.0,0.0,0.0,0.0,0.0,0.0,-0.00254091271199286,0.003331253305077553,-0.009195634163916111,0.9999344348907471,-0.0005225748755037785,0.010070716962218285,0.005424628034234047
87.0,0.0,0.0,0.0,0.0,0.0,0.0,-0.002014477737247944,0.0032765662763267756,-0.01119913812726736,0.9999305605888367,-0.0003596728201955557,0.010319397784769535,0.00567691121250391
88.0,0.0,0.0,0.0,0.0,0.0,0.0,-0.0017261035973206162,0.004113212693482637,-0.011226925067603588,0.9999263882637024,-5.544970917981118e-05,0.010573390871286392,0.005951910745352507
89.0,0.0,0.0,0.0,0.0,0.0,0.0,-0.003179779276251793,0.0025735797826200724,-0.010693660005927086,0.9999257326126099,-0.00023018066713120788,0.010492874309420586,0.0061969333328306675
90.0,0.0,0.0,0.0,0.0,0.0,0.0,-0.002210155827924609,0.001639347756281495,-0.005910999607294798,0.9999201893806458,6.719350494677201e-05,0.01129077561199665,0.005671247374266386
91.0,0.0,0.0,0.0,0.0,0.0,0.0,-0.0012104829074814916,0.0018389469478279352,-0.0015099028823897243,0.9999006390571594,0.00047913898015394807,0.012536098249256611,0.006424490362405777
92.0,0.0,0.0,0.0,0.0,0.0,0.0,0.00019282019638922065,0.0013721822760999203,0.0016190028982236981,0.9998878836631775,0.0006175187299959362,0.01323639415204525,0.006975418422371149
93.0,0.0,0.0,0.0,0.0,0.0,0.0,0.009889768436551094,-0.0013905538944527507,-0.02087235637009144,0.9998790621757507,0.0006590507109649479,0.013367487117648125,0.0079204635694623
94.0,0.0,0.0,0.0,0.0,0.0,0.0,0.009320367127656937,-0.02058427967131138,-0.04272665083408356,0.9998789429664612,-0.0002686622319743037,0.012957037426531315,0.008608871139585972
95.0,0.0,0.0,0.0,0.0,0.0,0.0,0.01340103056281805,0.0050443196669220924,0.021115440875291824,0.9998893737792969,-0.00017817023035604507,0.011437665671110153,0.009507655166089535
96.0,0.0,0.0,0.0,0.0,0.0,0.0,0.012942994013428688,-0.007218401413410902,0.00614112988114357,0.9998959302902222,-0.000438419432612136,0.009999595582485199,0.010390009731054306
97.0,0.0,0.0,0.0,0.0,0.0,0.0,0.008505755104124546,-0.008023880422115326,0.028135763481259346,0.9999036192893982,-0.0017775639425963163,0.008706631138920784,0.010669128969311714
98.0,0.0,0.0,0.0,0.0,0.0,0.0,0.003983364440500736,-0.010360456071794033,0.03264765068888664,0.99991375207901,-0.0024430390913039446,0.008094520308077335,0.010052713565528393
99.0,0.0,0.0,0.0,0.0,0.0,0.0,0.0011284422362223268,-0.013100964948534966,0.024355456233024597,0.9999157786369324,-0.0028052092529833317,0.008069544099271297,0.009768923744559288
100.0,0.0,0.0,0.0,0.0,0.0,0.0,-0.0015897108241915703,-0.01427537016570568,0.016523398458957672,0.9999221563339233,-0.003350738435983658,0.008019071072340012,0.008950685150921345
101.0,0.0,0.0,0.0,0.0,0.0,0.0,-0.002959642792120576,-0.010794602334499359,0.008832545019686222,0.9999262690544128,-0.0034644941333681345,0.008561072871088982,0.007881722413003445
102.0,0.0,0.0,0.0,0.0,0.0,0.0,-0.002830793848261237,-0.0076655736193060875,0.0007739062421023846,0.9999204277992249,-0.003270635614171624,0.0095632029697299,0.007548281457275152
103.0,0.0,0.0,0.0,0.0,0.0,0.0,0.0014646173221990466,-0.0001292975794058293,-0.010050267912447453,0.999909520149231,-0.0027047705370932817,0.010736670345067978,0.007640590891242027
104.0,0.0,0.0,0.0,0.0,0.0,0.0,0.005005653016269207,0.004446804989129305,-0.02019580453634262,0.9999059438705444,-0.0023442585952579975,0.010919183492660522,0.007963587529957294
105.0,0.0,0.0,0.0,0.0,0.0,0.0,0.003899309551343322,0.005770738702267408,-0.019092286005616188,0.9999032020568848,-0.0022540055215358734,0.010556964203715324,0.008775404654443264
106.0,0.0,0.0,0.0,0.0,0.0,0.0,0.006729167886078358,0.008578125387430191,-0.012799514457583427,0.9998947978019714,-0.0019655784126371145,0.010892601683735847,0.009376093745231628
107.0,0.0,0.0,0.0,0.0,0.0,0.0,0.005770282819867134,0.00859351921826601,-0.004693746101111174,0.9998931884765625,-0.0020496572833508253,0.010692550800740719,0.009751035831868649
108.0,0.0,0.0,0.0,0.0,0.0,0.0,0.002166944555938244,0.006862554233521223,0.005103630479425192,0.9998968243598938,-0.002567925723269582,0.010305358096957207,0.009671240113675594
109.0,0.0,0.0,0.0,0.0,0.0,0.0,0.00042084799497388303,0.00479091377928853,0.00878141075372696,0.9998999834060669,-0.0028458063025027514,0.010166944935917854,0.009407587349414825
110.0,0.0,0.0,0.0,0.0,0.0,0.0,-0.00016952103760559112,0.0019606512505561113,0.008238126523792744,0.9998976588249207,-0.0030662924982607365,0.010051632300019264,0.009707617573440075
111.0,0.0,0.0,0.0,0.0,0.0,0.0,8.78216014825739e-05,0.0003550800902303308,0.005344636272639036,0.9998952150344849,-0.003423333168029785,0.009271249175071716,0.010578379966318607
112.0,0.0,0.0,0.0,0.0,0.0,0.0,-0.0017971626948565245,-0.0012050995137542486,0.0007035501766949892,0.9998957514762878,-0.0036139371804893017,0.009286364540457726,0.010450363159179688
113.0,0.0,0.0,0.0,0.0,0.0,0.0,-0.0038084243424236774,-0.00026294460985809565,-0.0012118479935452342,0.9998956918716431,-0.0038589956238865852,0.009583055973052979,0.010091211646795273
114.0,0.0,0.0,0.0,0.0,0.0,0.0,-0.004229799844324589,0.0007602518307976425,-0.003259440418332815,0.9998915791511536,-0.003961395006626844,0.009391470812261105,0.010626483708620071
115.0,0.0,0.0,0.0,0.0,0.0,0.0,-0.004096504300832748,0.0016658863751217723,-0.00402990635484457,0.9998863339424133,-0.004212672356516123,0.009663542732596397,0.0107793677598238
116.0,0.0,0.0,0.0,0.0,0.0,0.0,-0.003157512517645955,0.00580158457159996,-0.0027246882673352957,0.9998890161514282,-0.0044784992933273315,0.009760911576449871,0.010325943119823933
117.0,0.0,0.0,0.0,0.0,0.0,0.0,-0.005398839712142944,-0.0009889788925647736,-0.008279943838715553,0.9998914003372192,-0.004626149777323008,0.009697536937892437,0.010090319439768791
118.0,0.0,0.0,0.0,0.0,0.0,0.0,-0.005146840587258339,-0.0004716213443316519,-0.00781869888305664,0.9998927116394043,-0.004777018446475267,0.009734646417200565,0.00984979048371315
119.0,0.0,0.0,0.0,0.0,0.0,0.0,-0.0037570942658931017,-0.002027277136221528,-0.00224695005454123,0.9998926520347595,-0.004762016702443361,0.009802198968827724,0.009794904850423336
120.0,0.0,0.0,0.0,0.0,0.0,0.0,-0.003598511219024658,-0.004494653083384037,0.0005160155706107616,0.9998930096626282,-0.00489534018561244,0.009447990916669369,0.010038239881396294
121.0,0.0,0.0,0.0,0.0,0.0,0.0,-0.0036513491068035364,-0.006437214557081461,0.0018347192090004683,0.9998945593833923,-0.005223133601248264,0.009259832091629505,0.009892136789858341
122.0,0.0,0.0,0.0,0.0,0.0,0.0,-0.0024279337376356125,-0.006980814505368471,0.0018167090602219105,0.9999037981033325,-0.0054684169590473175,0.009935769252479076,0.007985739037394524
123.0,0.0,0.0,0.0,0.0,0.0,0.0,-0.0027370182797312737,-0.008378610946238041,0.003732297569513321,0.9998992681503296,-0.005284439772367477,0.011253703385591507,0.006851201876997948
124.0,0.0,0.0,0.0,0.0,0.0,0.0,-0.0018605152145028114,-0.008788365870714188,0.008816353976726532,0.9998916387557983,-0.005359843838959932,0.011770528741180897,0.007029959466308355
125.0,0.0,0.0,0.0,0.0,0.0,0.0,0.0010348482755944133,-0.006855104584246874,0.005570458713918924,0.9998831152915955,-0.005069399252533913,0.01288034487515688,0.006493421737104654
126.0,0.0,0.0,0.0,0.0,0.0,0.0,0.019803952425718307,-0.011922684498131275,-0.05206634849309921,0.9998844861984253,-0.005340058822184801,0.01243454311043024,0.006919676437973976
127.0,0.0,0.0,0.0,0.0,0.0,0.0,0.00927821733057499,-0.014930295757949352,0.00574991200119257,0.9998928308486938,-0.005728243384510279,0.011098993942141533,0.007635375950485468
128.0,0.0,0.0,0.0,0.0,0.0,0.0,0.017279058694839478,0.007207139395177364,0.006470162887126207,0.9999034404754639,-0.005633823573589325,0.010198777541518211,0.007574248593300581
129.0,0.0,0.0,0.0,0.0,0.0,0.0,0.014574261382222176,-0.007850848138332367,0.00041607258026488125,0.9999098777770996,-0.005974247585982084,0.009403030388057232,0.00749129056930542
130.0,0.0,0.0,0.0,0.0,0.0,0.0,0.008361692540347576,-0.007704689633101225,0.024101033806800842,0.9999151229858398,-0.00655573233962059,0.008204180747270584,0.007712014485150576
131.0,0.0,0.0,0.0,0.0,0.0,0.0,0.0054224333725869656,-0.009115737862884998,0.02083572745323181,0.9999164938926697,-0.007064244244247675,0.008088747970759869,0.007192783057689667
132.0,0.0,0.0,0.0,0.0,0.0,0.0,0.003272603964433074,-0.01354717556387186,0.016992418095469475,0.9999127984046936,-0.007181824184954166,0.008619210682809353,0.006964418571442366
133.0,0.0,0.0,0.0,0.0,0.0,0.0,0.002714318921789527,-0.010814888402819633,0.011568649671971798,0.9999127984046936,-0.006891841534525156,0.00877769198268652,0.007064195815473795
134.0,0.0,0.0,0.0,0.0,0.0,0.0,0.008207131177186966,-0.0050294711254537106,0.00247522396966815,0.9999133944511414,-0.006366347428411245,0.008921165950596333,0.007288472261279821
135.0,0.0,0.0,0.0,0.0,0.0,0.0,0.009036459028720856,-0.003844664664939046,-0.004632279742509127,0.9999152421951294,-0.006002591457217932,0.008884882554411888,0.007382746785879135
136.0,0.0,0.0,0.0,0.0,0.0,0.0,0.007020600605756044,-0.007159870583564043,0.0015858163824304938,0.9999158978462219,-0.005686436779797077,0.008793383836746216,0.0076525406911969185
137.0,0.0,0.0,0.0,0.0,0.0,0.0,0.008194158785045147,-0.008672253228724003,-0.005437702406197786,0.9999203085899353,-0.005831758491694927,0.008023759350180626,0.007806285284459591
138.0,0.0,0.0,0.0,0.0,0.0,0.0,0.009446421638131142,-0.008028806187212467,-0.0034424648620188236,0.999925971031189,-0.005912769120186567,0.007253532763570547,0.007776972372084856
139.0,0.0,0.0,0.0,0.0,0.0,0.0,0.00511239655315876,-0.010743462480604649,0.006490250583738089,0.9999291896820068,-0.0061090667732059956,0.006883765570819378,0.007542820647358894
140.0,0.0,0.0,0.0,0.0,0.0,0.0,0.0033094524405896664,-0.00858834758400917,0.013770652934908867,0.9999328851699829,-0.006567121017724276,0.006609293632209301,0.006881579756736755
141.0,0.0,0.0,0.0,0.0,0.0,0.0,0.00025195840862579644,-0.009755653329193592,0.013437836430966854,0.9999296069145203,-0.0071647316217422485,0.007095223292708397,0.006257880013436079
142.0,0.0,0.0,0.0,0.0,0.0,0.0,-0.001852949964813888,-0.007407121825963259,0.013658400624990463,0.9999234676361084,-0.007650706917047501,0.007828752510249615,0.00576722901314497
143.0,0.0,0.0,0.0,0.0,0.0,0.0,-0.003053748980164528,-0.005389833357185125,0.0038390946574509144,0.9999204874038696,-0.007713038474321365,0.008339221589267254,0.00547844497486949
144.0,0.0,0.0,0.0,0.0,0.0,0.0,-0.003539471421390772,-0.00140701315831393,-0.0036120633594691753,0.9999123811721802,-0.007435504347085953,0.009055099450051785,0.006163230165839195
145.0,0.0,0.0,0.0,0.0,0.0,0.0,-0.004014536272734404,0.004025670699775219,-0.012371617369353771,0.9999029636383057,-0.007017971482127905,0.01006685197353363,0.006597216706722975
146.0,0.0,0.0,0.0,0.0,0.0,0.0,-0.0026684675831347704,0.007267387118190527,-0.01316310465335846,0.9998928308486938,-0.006166920065879822,0.011456187814474106,0.006714692804962397
147.0,0.0,0.0,0.0,0.0,0.0,0.0,-0.0006438177078962326,0.01624005287885666,-0.011268445290625095,0.9998788833618164,-0.004917549900710583,0.012882323004305363,0.007217071950435638
148.0,0.0,0.0,0.0,0.0,0.0,0.0,-0.0014097768580541015,0.015331091359257698,-0.009041990153491497,0.9998641014099121,-0.003855090821161866,0.014013849198818207,0.007782947272062302
149.0,0.0,0.0,0.0,0.0,0.0,0.0,-1.4191355148795992e-05,0.01150466501712799,-0.018986323848366737,0.999843180179596,-0.0028564459644258022,0.015322087332606316,0.008408580906689167
150.0,0.0,0.0,0.0,0.0,0.0,0.0,0.0027255460154265165,0.01209881529211998,-0.020610155537724495,0.9998195767402649,-0.0021553440019488335,0.016856836155056953,0.008485140278935432
151.0,0.0,0.0,0.0,0.0,0.0,0.0,0.004248742945492268,0.016403643414378166,-0.016992885619401932,0.999809741973877,-0.0017061315011233091,0.01741580292582512,0.008618101477622986
152.0,0.0,0.0,0.0,0.0,0.0,0.0,0.004294957499951124,0.01666242629289627,-0.01039845310151577,0.9997913837432861,-0.001139446860179305,0.018077977001667023,0.009439582005143166
153.0,0.0,0.0,0.0,0.0,0.0,0.0,0.005294883158057928,0.014960825443267822,-0.006295160856097937,0.9997800588607788,-0.001270430046133697,0.018272727727890015,0.010212459601461887
154.0,0.0,0.0,0.0,0.0,0.0,0.0,0.007790837902575731,0.01618221402168274,-0.003396011423319578,0.9997867345809937,-0.0016659392276778817,0.017518477514386177,0.010807082988321781
155.0,0.0,0.0,0.0,0.0,0.0,0.0,0.006997252348810434,0.012400574050843716,0.0022761139553040266,0.9997982382774353,-0.002560822293162346,0.016418496146798134,0.011283373460173607
156.0,0.0,0.0,0.0,0.0,0.0,0.0,0.005328366532921791,0.014746775850653648,0.016477612778544426,0.9998050332069397,-0.003131778445094824,0.015576016157865524,0.011726398952305317
157.0,0.0,0.0,0.0,0.0,0.0,0.0,0.0003378096444066614,0.018728353083133698,0.03647229075431824,0.9998137354850769,-0.0038715237751603127,0.0146633954718709,0.011932315304875374
158.0,0.0,0.0,0.0,0.0,0.0,0.0,-0.0007259579724632204,0.019809024408459663,0.037919119000434875,0.9998186230659485,-0.004477634560316801,0.013769116252660751,0.012372276745736599
159.0,0.0,0.0,0.0,0.0,0.0,0.0,0.0018009941559284925,0.018033813685178757,0.023604365065693855,0.9998282194137573,-0.004522879607975483,0.013473297469317913,0.011892559006810188
160.0,0.0,0.0,0.0,0.0,0.0,0.0,-0.0006987139349803329,0.02012362889945507,0.030317233875393867,0.9998378157615662,-0.003970214165747166,0.013560494408011436,0.0111688282340765
161.0,0.0,0.0,0.0,0.0,0.0,0.0,-0.003700216766446829,0.019984466955065727,0.04267168045043945,0.9998349547386169,-0.002762078307569027,0.01400141604244709,0.011248409748077393
162.0,0.0,0.0,0.0,0.0,0.0,0.0,0.0042122784070670605,0.019038628786802292,0.027384724467992783,0.9998270869255066,-0.0010005729272961617,0.014432276599109173,0.011687738820910454
163.0,0.0,0.0,0.0,0.0,0.0,0.0,0.015174626372754574,0.009944800287485123,-0.01924487203359604,0.9998050928115845,0.0008364352979697287,0.015391760505735874,0.012336915358901024
164.0,0.0,0.0,0.0,0.0,0.0,0.0,0.019459882751107216,0.0027418858371675014,0.009419070556759834,0.9997868537902832,0.002292305463925004,0.016387231647968292,0.012349598109722137
165.0,0.0,0.0,0.0,0.0,0.0,0.0,0.026198992505669594,-0.0035634669475257397,0.010555896908044815,0.9997734427452087,0.003711104393005371,0.016839638352394104,0.012480275705456734
166.0,0.0,0.0,0.0,0.0,0.0,0.0,0.029585575684905052,-0.013045747764408588,-0.0008690654649399221,0.9997504353523254,0.005035066977143288,0.016993945464491844,0.013597848825156689
167.0,0.0,0.0,0.0,0.0,0.0,0.0,0.029024509713053703,-0.016274766996502876,0.0019496539607644081,0.9997232556343079,0.00650583952665329,0.01705104671418667,0.014846442267298698
168.0,0.0,0.0,0.0,0.0,0.0,0.0,0.02773107960820198,-0.009284614585340023,-0.009793153963983059,0.999692440032959,0.00850890576839447,0.01712578348815441,0.015795718878507614
169.0,0.0,0.0,0.0,0.0,0.0,0.0,0.021867910400032997,-0.01142457127571106,-0.0018990131793543696,0.9996454119682312,0.010175416246056557,0.01760372333228588,0.01719623990356922
170.0,0.0,0.0,0.0,0.0,0.0,0.0,0.017773620784282684,-0.009482626803219318,0.009152722544968128,0.99958735704422,0.011689654551446438,0.01811465062201023,0.018985813483595848
171.0,0.0,0.0,0.0,0.0,0.0,0.0,0.016120703890919685,-0.01429695263504982,-0.002696256386116147,0.9995311498641968,0.01292207557708025,0.01900789700448513,0.020231381058692932
172.0,0.0,0.0,0.0,0.0,0.0,0.0,0.017444804310798645,-0.017463641241192818,-0.03371168300509453,0.999478280544281,0.014038221910595894,0.01998649351298809,0.0211365707218647
173.0,0.0,0.0,0.0,0.0,0.0,0.0,0.012673858553171158,-0.02105659805238247,-0.04852040112018585,0.9994428157806396,0.01459850836545229,0.02103414200246334,0.021411268040537834
174.0,0.0,0.0,0.0,0.0,0.0,0.0,0.009505845606327057,-0.028154440224170685,-0.06228463351726532,0.999393105506897,0.015141936019062996,0.022367212921380997,0.02200007438659668
175.0,0.0,0.0,0.0,0.0,0.0,0.0,0.009598254226148129,-0.02786753512918949,-0.06643618643283844,0.9993150234222412,0.015780776739120483,0.024079283699393272,0.02325301617383957
176.0,0.0,0.0,0.0,0.0,0.0,0.0,0.011430288664996624,-0.017235616222023964,-0.06181679293513298,0.9992809295654297,0.015776587650179863,0.024831097573041916,0.02391860820353031
177.0,0.0,0.0,0.0,0.0,0.0,0.0,0.011970986612141132,-0.00923518929630518,-0.05146022140979767,0.9992814064025879,0.015629639849066734,0.024880900979042053,0.02394644170999527
178.0,0.0,0.0,0.0,0.0,0.0,0.0,0.012476732954382896,0.001928722020238638,-0.037888266146183014,0.9992804527282715,0.015430815517902374,0.024788901209831238,0.02420642599463463
179.0,0.0,0.0,0.0,0.0,0.0,0.0,0.00873917993158102,0.006948797032237053,-0.021354246884584427,0.9992880821228027,0.014887921512126923,0.024362362921237946,0.02466089278459549
180.0,0.0,0.0,0.0,0.0,0.0,0.0,0.0038869238924235106,0.011820449493825436,-0.006997851654887199,0.9992980360984802,0.014227672480046749,0.023757681250572205,0.025231488049030304
181.0,0.0,0.0,0.0,0.0,0.0,0.0,-0.00020775810116901994,0.01727311685681343,0.0016498075565323234,0.99931401014328,0.012924956157803535,0.02310667559504509,0.025894852355122566
182.0,0.0,0.0,0.0,0.0,0.0,0.0,0.0015518903965130448,0.019081993028521538,-0.0006578220054507256,0.9993613362312317,0.011516636237502098,0.022615136578679085,0.025158697739243507
183.0,0.0,0.0,0.0,0.0,0.0,0.0,0.001362249138765037,0.013836526311933994,0.004279488231986761,0.9994181990623474,0.009653323329985142,0.02201741375029087,0.024193240329623222
184.0,0.0,0.0,0.0,0.0,0.0,0.0,-0.0009493641555309296,0.0005817418568767607,0.02518356218934059,0.9994855523109436,0.007815039716660976,0.02142144925892353,0.022560039535164833
185.0,0.0,0.0,0.0,0.0,0.0,0.0,0.002589205279946327,-0.012551337480545044,0.0343560054898262,0.9995412826538086,0.006245134864002466,0.021694254130125046,0.020186832174658775
186.0,0.0,0.0,0.0,0.0,0.0,0.0,0.007711279205977917,-0.010744350031018257,0.013323565945029259,0.9995957016944885,0.004766808822751045,0.021598754450678825,0.01786866970360279
187.0,0.0,0.0,0.0,0.0,0.0,0.0,0.0063619473949074745,-0.018749088048934937,0.017295630648732185,0.9996390342712402,0.003042563796043396,0.022466888651251793,0.014421536587178707
188.0,0.0,0.0,0.0,0.0,0.0,0.0,0.017262864857912064,-0.018642976880073547,-0.006746607832610607,0.9996616244316101,0.001277218572795391,0.022978946566581726,0.012126708403229713
189.0,0.0,0.0,0.0,0.0,0.0,0.0,0.03367329016327858,-0.019508525729179382,-0.04239026457071304,0.9996675252914429,-0.0001448858092771843,0.02337806485593319,0.010890718549489975
190.0,0.0,0.0,0.0,0.0,0.0,0.0,0.03980404511094093,-0.020855164155364037,-0.041641976684331894,0.9996699690818787,-0.001783541520126164,0.0238084327429533,0.00949084386229515
191.0,0.0,0.0,0.0,0.0,0.0,0.0,0.03834286332130432,-0.016964158043265343,-0.038404013961553574,0.9996890425682068,-0.003881844924762845,0.022944871336221695,0.008974290452897549
192.0,0.0,0.0,0.0,0.0,0.0,0.0,0.02700888365507126,-0.0033254981972277164,-0.013992823660373688,0.9997135996818542,-0.006152324844151735,0.02148222178220749,0.008591762743890285
193.0,0.0,0.0,0.0,0.0,0.0,0.0,0.021751930937170982,0.0038925972767174244,0.0007763063185848296,0.9997400045394897,-0.008276981301605701,0.019870009273290634,0.00753045454621315
194.0,0.0,0.0,0.0,0.0,0.0,0.0,0.01652342826128006,0.018902335315942764,0.022074420005083084,0.9997621178627014,-0.010036016814410686,0.018066639080643654,0.006990516092628241
195.0,0.0,0.0,0.0,0.0,0.0,0.0,0.005498314276337624,0.01338821928948164,0.04977009445428848,0.9997912645339966,-0.01187041960656643,0.015475721098482609,0.006101625505834818
196.0,0.0,0.0,0.0,0.0,0.0,0.0,-0.0010582132963463664,-0.014302515424787998,0.04288425296545029,0.9997973442077637,-0.014584081247448921,0.012889225967228413,0.005150427110493183
197.0,0.0,0.0,0.0,0.0,0.0,0.0,-0.002574650337919593,-0.01732610911130905,0.06529010832309723,0.999798059463501,-0.016873756423592567,0.010464063845574856,0.003106531919911504
198.0,0.0,0.0,0.0,0.0,0.0,0.0,-0.006697412114590406,-0.01258028019219637,0.0723874419927597,0.9997826218605042,-0.018915370106697083,0.008799351751804352,0.000648212677333504
199.0,0.0,0.0,0.0,0.0,0.0,0.0,-0.008688055910170078,-0.0017311469418928027,0.10271439701318741,0.9997753500938416,-0.01983942650258541,0.00743411760777235,-0.0005104998708702624
200.0,0.0,0.0,0.0,0.0,0.0,0.0,0.004732550121843815,-0.01521892100572586,0.0682678297162056,0.9997693300247192,-0.020452089607715607,0.00636429525911808,-0.0017283431952819228
201.0,0.0,0.0,0.0,0.0,0.0,0.0,0.029613109305500984,-0.026100559160113335,0.000491015671286732,0.9997660517692566,-0.02098078280687332,0.0048026591539382935,-0.0021631838753819466
202.0,0.0,0.0,0.0,0.0,0.0,0.0,0.026524731889367104,-0.010146940127015114,0.017275387421250343,0.9997667074203491,-0.02127930149435997,0.0027376478537917137,-0.002580526052042842
203.0,0.0,0.0,0.0,0.0,0.0,0.0,0.01960715651512146,-0.004689371678978205,0.030112775042653084,0.9997566938400269,-0.02179107442498207,2.5556792024872266e-05,-0.003423535032197833
204.0,0.0,0.0,0.0,0.0,0.0,0.0,0.01801123097538948,-0.005153738893568516,0.033262044191360474,0.9997520446777344,-0.02169109508395195,-0.002518607769161463,-0.004391742404550314
205.0,0.0,0.0,0.0,0.0,0.0,0.0,0.00928796362131834,-0.003464893903583288,0.06268645077943802,0.9997580647468567,-0.020927343517541885,-0.004168199375271797,-0.005326378624886274
206.0,0.0,0.0,0.0,0.0,0.0,0.0,0.011797811836004257,0.0020914108026772738,0.07348344475030899,0.9997795820236206,-0.01931995339691639,-0.005310928914695978,-0.006247237790375948
207.0,0.0,0.0,0.0,0.0,0.0,0.0,0.016780171543359756,0.0024669975973665714,0.06516538560390472,0.9998053312301636,-0.017215033993124962,-0.005988304503262043,-0.007559018675237894
208.0,0.0,0.0,0.0,0.0,0.0,0.0,0.025928083807229996,0.002641502534970641,0.06076939404010773,0.9998154640197754,-0.014956156723201275,-0.00622028112411499,-0.010308917611837387
209.0,0.0,0.0,0.0,0.0,0.0,0.0,0.03681311011314392,-0.027848990634083748,0.03557775542140007,0.99981290102005,-0.013089640066027641,-0.006216472014784813,-0.012831960804760456
210.0,0.0,0.0,0.0,0.0,0.0,0.0,0.03850037604570389,-0.027007225900888443,0.04234873875975609,0.9998091459274292,-0.011732676066458225,-0.005441092886030674,-0.01462967973202467
211.0,0.0,0.0,0.0,0.0,0.0,0.0,0.042287930846214294,-0.0003752096963580698,0.04347618669271469,0.9998270273208618,-0.00930552277714014,-0.004125033039599657,-0.01555512472987175
212.0,0.0,0.0,0.0,0.0,0.0,0.0,0.045800548046827316,-0.0038851932622492313,0.003070458071306348,0.9998567700386047,-0.006587245035916567,-0.0026154692750424147,-0.015377317555248737
213.0,0.0,0.0,0.0,0.0,0.0,0.0,0.036723341792821884,-0.009777115657925606,-0.007162387948483229,0.9998679757118225,-0.004330518189817667,-0.0008592584636062384,-0.015646960586309433
214.0,0.0,0.0,0.0,0.0,0.0,0.0,0.031885962933301926,-0.010469680652022362,-0.017156794667243958,0.999870240688324,-0.0024137389846146107,0.0018022498115897179,-0.01581992395222187
215.0,0.0,0.0,0.0,0.0,0.0,0.0,0.027203857898712158,-0.013677441515028477,-0.05408203974366188,0.9998714327812195,-0.0012863550800830126,0.004483721684664488,-0.015346560627222061
216.0,0.0,0.0,0.0,0.0,0.0,0.0,0.021219102665781975,-0.011629718355834484,-0.06937948614358902,0.9998857975006104,-0.0006014152313582599,0.006387349683791399,-0.013688263483345509
217.0,0.0,0.0,0.0,0.0,0.0,0.0,0.019016996026039124,0.015896376222372055,-0.046127162873744965,0.9999125003814697,0.0007065945537760854,0.007533931639045477,-0.01085014920681715
218.0,0.0,0.0,0.0,0.0,0.0,0.0,0.03295941650867462,0.03859385848045349,-0.042194340378046036,0.9999414086341858,0.0025297333486378193,0.007166847586631775,-0.007728783879429102
219.0,0.0,0.0,0.0,0.0,0.0,0.0,0.03766993060708046,0.015539096668362617,-0.04560563340783119,0.999958336353302,0.0035773990675807,0.005495989695191383,-0.006349655333906412
220.0,0.0,0.0,0.0,0.0,0.0,0.0,0.022348664700984955,-0.009381572715938091,-0.036128271371126175,0.9999570846557617,0.003427293384447694,0.004992558620870113,-0.00699278712272644
221.0,0.0,0.0,0.0,0.0,0.0,0.0,0.008235960267484188,-0.009714034385979176,-0.014065485447645187,0.9999502301216125,0.002807188080623746,0.005488049238920212,-0.007863722741603851
222.0,0.0,0.0,0.0,0.0,0.0,0.0,-0.010216847062110901,-0.003909963183104992,0.019811049103736877,0.9999548196792603,0.0017086726147681475,0.0065955366007983685,-0.006645569112151861
223.0,0.0,0.0,0.0,0.0,0.0,0.0,-0.006907008588314056,0.006393869873136282,0.017221547663211823,0.9999657869338989,0.0005374287720769644,0.0061818393878638744,-0.005489308387041092
224.0,0.0,0.0,0.0,0.0,0.0,0.0,0.0072056301869452,-0.013636482879519463,-0.01805836893618107,0.999972403049469,-0.0010195112554356456,0.005153049249202013,-0.005256271921098232
225.0,0.0,0.0,0.0,0.0,0.0,0.0,0.008104464039206505,-0.01066359132528305,-0.023101290687918663,0.9999780058860779,-0.003022567369043827,0.0037873254623264074,-0.004551704507321119
226.0,0.0,0.0,0.0,0.0,0.0,0.0,-0.007250208407640457,-0.0035017516929656267,0.018834471702575684,0.9999815821647644,-0.004141086712479591,0.0022933550644665956,-0.0038487326819449663
227.0,0.0,0.0,0.0,0.0,0.0,0.0,-0.01135309599339962,0.00259633781388402,0.02622845768928528,0.9999820590019226,-0.005149985663592815,0.00026659262948669493,-0.003086127107962966
228.0,0.0,0.0,0.0,0.0,0.0,0.0,-0.01014000829309225,0.004941863939166069,0.033420760184526443,0.9999768733978271,-0.006020565517246723,-0.0013811836251989007,-0.002886397996917367
229.0,0.0,0.0,0.0,0.0,0.0,0.0,-0.01268452312797308,0.005361815448850393,0.0372924879193306,0.9999752044677734,-0.006076480727642775,-0.0019019113387912512,-0.00303659331984818
230.0,0.0,0.0,0.0,0.0,0.0,0.0,-0.016330087557435036,0.005047254730015993,0.025272242724895477,0.9999786019325256,-0.005624157376587391,-0.002326858462765813,-0.002527813659980893
231.0,0.0,0.0,0.0,0.0,0.0,0.0,-0.01633412204682827,0.004411997739225626,0.007969691418111324,0.9999836683273315,-0.004849459044635296,-0.0025035038124769926,-0.0017478098161518574
232.0,0.0,0.0,0.0,0.0,0.0,0.0,-0.012841962277889252,0.004561721812933683,-0.02168705314397812,0.9999886155128479,-0.003976901527494192,-0.0022164329420775175,-0.0014165772590786219
233.0,0.0,0.0,0.0,0.0,0.0,0.0,-0.017529025673866272,0.002815596992149949,-0.02214287780225277,0.9999915361404419,-0.003377645742148161,-0.0021278944332152605,-0.0011106278980150819
234.0,0.0,0.0,0.0,0.0,0.0,0.0,-0.021362990140914917,0.0030927802436053753,-0.013508010655641556,0.9999932646751404,-0.002729021245613694,-0.0023933839984238148,-0.0004878573527093977
235.0,0.0,0.0,0.0,0.0,0.0,0.0,-0.022493675351142883,-8.919870742829517e-05,-0.013910114765167236,0.9999971985816956,-0.0017095805378630757,-0.0016770865768194199,-1.3216772458690684e-05
236.0,0.0,0.0,0.0,0.0,0.0,0.0,-0.019103743135929108,0.007137785200029612,-0.029679950326681137,0.9999990463256836,-0.0006701056263409555,-0.0010645324364304543,0.000619197846390307
237.0,0.0,0.0,0.0,0.0,0.0,0.0,-0.018566159531474113,0.008681125938892365,-0.0386987030506134,0.9999992847442627,0.00033814850030466914,-0.0002365643304074183,0.001086727250367403
238.0,0.0,0.0,0.0,0.0,0.0,0.0,-0.01695800945162773,0.0076705715619027615,-0.035200681537389755,0.999998152256012,0.0006521998438984156,0.0011073900386691093,0.00150690705049783
239.0,0.0,0.0,0.0,0.0,0.0,0.0,-0.017543360590934753,0.0003666325646918267,-0.028209932148456573,0.9999946355819702,0.000613336160313338,0.00220516137778759,0.002351658884435892
240.0,0.0,0.0,0.0,0.0,0.0,0.0,-0.015205741859972477,0.0047353641130030155,-0.03238258138298988,0.9999887347221375,0.0003850090433843434,0.0028348593041300774,0.0038223019801080227
241.0,0.0,0.0,0.0,0.0,0.0,0.0,-0.010937007144093513,0.019246121868491173,-0.022460799664258957,0.999983549118042,0.0009405071032233536,0.0031885248608887196,0.0046839783899486065
242.0,0.0,0.0,0.0,0.0,0.0,0.0,-0.014773881062865257,0.018342366442084312,-0.013820604421198368,0.9999810457229614,0.0011605452746152878,0.0031747883185744286,0.005154910497367382
243.0,0.0,0.0,0.0,0.0,0.0,0.0,-0.016981564462184906,0.00958968698978424,-0.014054016210138798,0.9999814629554749,0.0011878622462972999,0.003826197236776352,0.00458260253071785
244.0,0.0,0.0,0.0,0.0,0.0,0.0,-0.009974488988518715,0.004478117451071739,-0.021123403683304787,0.9999818205833435,0.0011355449678376317,0.004803002346307039,0.0035437040496617556
245.0,0.0,0.0,0.0,0.0,0.0,0.0,-0.009326972998678684,-0.004839717876166105,-0.010420926846563816,0.9999812245368958,0.0009782438864931464,0.005302095785737038,0.0028093575965613127
246.0,0.0,0.0,0.0,0.0,0.0,0.0,-0.006480000447481871,-0.011372538283467293,-0.001648083096370101,0.9999789595603943,0.0006787464371882379,0.0061322171241045,0.0020595171954482794
247.0,0.0,0.0,0.0,0.0,0.0,0.0,-0.0023324708454310894,-0.01069649402052164,-0.006041444838047028,0.9999781250953674,0.00018697323685046285,0.006486545782536268,0.0014344376977533102
248.0,0.0,0.0,0.0,0.0,0.0,0.0,-0.0016212101327255368,-0.013861139304935932,-0.012027589604258537,0.9999760389328003,-0.00041858258191496134,0.006949941627681255,0.0004086730186827481
249.0,0.0,0.0,0.0,0.0,0.0,0.0,0.003443456022068858,-0.013003802858293056,-0.012294119223952293,0.999967634677887,-0.001121304463595152,0.007968926802277565,-0.0008720266632735729
250.0,0.0,0.0,0.0,0.0,0.0,0.0,-2.6810612325789407e-05,-0.010562481358647346,0.019372547045350075,0.9999595880508423,-0.002175949513912201,0.008528036065399647,-0.0020246566273272038
251.0,0.0,0.0,0.0,0.0,0.0,0.0,0.001966011244803667,-0.019268356263637543,0.026065906509757042,0.9999544024467468,-0.003508580382913351,0.00852566584944725,-0.0025441600009799004
252.0,0.0,0.0,0.0,0.0,0.0,0.0,0.01992267742753029,-0.010523738339543343,-0.007258318830281496,0.9999558925628662,-0.004760631360113621,0.007563767954707146,-0.002919425256550312
253.0,0.0,0.0,0.0,0.0,0.0,0.0,0.009996273554861546,-0.002087321598082781,0.022327756509184837,0.9999595880508423,-0.005857216194272041,0.00579496705904603,-0.0036627361550927162
254.0,0.0,0.0,0.0,0.0,0.0,0.0,-0.012627363204956055,-0.007021073251962662,0.09385750442743301,0.9999557137489319,-0.0071547445841133595,0.004211877007037401,-0.0044693723320961
255.0,0.0,0.0,0.0,0.0,0.0,0.0,-0.016454022377729416,-0.018240738660097122,0.11524898558855057,0.999947726726532,-0.008235486224293709,0.0028464188799262047,-0.00537814712151885
256.0,0.0,0.0,0.0,0.0,0.0,0.0,0.002129936357960105,-0.010797044262290001,0.07919424027204514,0.9999508261680603,-0.008697151206433773,0.0009910853113979101,-0.0047478098422288895
257.0,0.0,0.0,0.0,0.0,0.0,0.0,0.028387028723955154,-0.008937658742070198,0.013671068474650383,0.9999497532844543,-0.009011824615299702,-0.0005560642457567155,-0.0044110906310379505
258.0,0.0,0.0,0.0,0.0,0.0,0.0,0.03524595871567726,0.003272072644904256,-0.014349081553518772,0.9999496340751648,-0.008964226581156254,-0.0019551811274141073,-0.004120916593819857
259.0,0.0,0.0,0.0,0.0,0.0,0.0,0.03004072792828083,0.011845653876662254,-0.009523400105535984,0.9999498724937439,-0.008824583142995834,-0.003454078221693635,-0.0033403486013412476
260.0,0.0,0.0,0.0,0.0,0.0,0.0,0.030596403405070305,0.014482105150818825,-0.015426301397383213,0.9999536871910095,-0.008103524334728718,-0.004096595570445061,-0.0032035524491220713
261.0,0.0,0.0,0.0,0.0,0.0,0.0,0.028940292075276375,0.010963930748403072,-0.02554180659353733,0.9999613761901855,-0.007006816565990448,-0.004038449376821518,-0.0034048696979880333
262.0,0.0,0.0,0.0,0.0,0.0,0.0,0.030211031436920166,0.0038499925285577774,-0.023417558521032333,0.9999677538871765,-0.0057349433191120625,-0.004288597032427788,-0.0037495186552405357
263.0,0.0,0.0,0.0,0.0,0.0,0.0,0.030313070863485336,-0.006717924028635025,-0.031866852194070816,0.9999747276306152,-0.004637322388589382,-0.0035062057431787252,-0.004040463827550411
264.0,0.0,0.0,0.0,0.0,0.0,0.0,-0.0009514465346001089,-0.0057540410198271275,-0.0012832448119297624,0.9999777674674988,-0.004398934077471495,-0.0029439025092869997,-0.004056968726217747
265.0,0.0,0.0,0.0,0.0,0.0,0.0,-0.013196255080401897,-0.003330883337184787,0.016665346920490265,0.9999756217002869,-0.005073439795523882,-0.0032348078675568104,-0.003658508649095893
266.0,0.0,0.0,0.0,0.0,0.0,0.0,-0.012446173466742039,0.004084120038896799,0.04062609747052193,0.999973714351654,-0.005679912865161896,-0.003821389749646187,-0.0023051700554788113
267.0,0.0,0.0,0.0,0.0,0.0,0.0,-0.00387944676913321,0.006891127675771713,0.001871227053925395,0.9999711513519287,-0.006021598819643259,-0.004426701460033655,-0.0013809595257043839
268.0,0.0,0.0,0.0,0.0,0.0,0.0,0.003342563286423683,0.003996952436864376,-0.005619145929813385,0.9999713897705078,-0.005866861902177334,-0.004692539107054472,-0.0011794904712587595
269.0,0.0,0.0,0.0,0.0,0.0,0.0,0.00635298527777195,0.005977652966976166,-0.002763682045042515,0.9999706149101257,-0.005695867817848921,-0.005037370137870312,-0.0011759035987779498
270.0,0.0,0.0,0.0,0.0,0.0,0.0,0.001947935321368277,0.005817208904772997,-0.003110232762992382,0.9999702572822571,-0.005653138738125563,-0.004945389926433563,-0.0016705611487850547
271.0,0.0,0.0,0.0,0.0,0.0,0.0,-0.002222000388428569,0.0062674954533576965,0.012159008532762527,0.9999706745147705,-0.005653343629091978,-0.004721370059996843,-0.001999005675315857
272.0,0.0,0.0,0.0,0.0,0.0,0.0,0.004266093485057354,-0.0038850316777825356,-0.012840522453188896,0.9999727010726929,-0.005385467316955328,-0.00428782170638442,-0.00263506849296391
273.0,0.0,0.0,0.0,0.0,0.0,0.0,0.004339737351983786,-0.0036571433302015066,-0.010016461834311485,0.99997478723526,-0.005175442434847355,-0.003944959491491318,-0.002865671878680587
274.0,0.0,0.0,0.0,0.0,0.0,0.0,0.0057684979401528835,-0.0010831351391971111,0.0007464723312295973,0.9999769926071167,-0.004955777432769537,-0.004079211503267288,-0.0023542081471532583
275.0,0.0,0.0,0.0,0.0,0.0,0.0,0.008384909480810165,-0.0008346894173882902,-0.000537883723154664,0.9999743103981018,-0.005255317781120539,-0.004503258503973484,-0.0019423264311626554
276.0,0.0,0.0,0.0,0.0,0.0,0.0,0.008626842871308327,0.001135797705501318,-0.001851581735536456,0.9999715089797974,-0.005532256327569485,-0.004725406877696514,-0.0021091157104820013
277.0,0.0,0.0,0.0,0.0,0.0,0.0,0.004940076731145382,0.004817749373614788,0.010772721841931343,0.9999651908874512,-0.005943314637988806,-0.005440660752356052,-0.002235711319372058
278.0,0.0,0.0,0.0,0.0,0.0,0.0,0.0019598023500293493,0.0033520986326038837,0.012316401116549969,0.9999563097953796,-0.0064080930314958096,-0.006439402233809233,-0.0022857384756207466
279.0,0.0,0.0,0.0,0.0,0.0,0.0,-0.0058422330766916275,0.004874302074313164,0.029306167736649513,0.9999505877494812,-0.006406756117939949,-0.007264114450663328,-0.0022408708464354277
280.0,0.0,0.0,0.0,0.0,0.0,0.0,-0.005061114206910133,0.0032903440296649933,0.027708210051059723,0.9999485015869141,-0.0062376633286476135,-0.007676256820559502,-0.002281307242810726
281.0,0.0,0.0,0.0,0.0,0.0,0.0,-0.004292706493288279,-0.0012212588917464018,0.021557653322815895,0.9999446868896484,-0.006079290062189102,-0.008159509859979153,-0.00273462594486773
282.0,0.0,0.0,0.0,0.0,0.0,0.0,0.0014175584074109793,-0.0006867799675092101,0.0016572227468714118,0.9999427199363708,-0.005801130551844835,-0.008432082831859589,-0.0031398662831634283
283.0,0.0,0.0,0.0,0.0,0.0,0.0,0.0009641528595238924,0.0012048588832840323,0.010882619768381119,0.9999451041221619,-0.005388190969824791,-0.008269064128398895,-0.0035454982426017523
284.0,0.0,0.0,0.0,0.0,0.0,0.0,0.0030891725327819586,-0.00420723482966423,0.0031334441155195236,0.9999455809593201,-0.005243399180471897,-0.00806945376098156,-0.004028113558888435
285.0,0.0,0.0,0.0,0.0,0.0,0.0,0.002135814167559147,-0.007613563444465399,-0.0014341151108965278,0.9999463558197021,-0.005240299738943577,-0.007755488157272339,-0.004451067186892033
286.0,0.0,0.0,0.0,0.0,0.0,0.0,0.005088065285235643,-0.008208611980080605,-0.0045188372023403645,0.9999443292617798,-0.005576516967266798,-0.007641870062798262,-0.004644863773137331
287.0,0.0,0.0,0.0,0.0,0.0,0.0,0.0017811210127547383,-0.004630708135664463,0.009230648167431355,0.9999394416809082,-0.006095568183809519,-0.007917494513094425,-0.004684627987444401
288.0,0.0,0.0,0.0,0.0,0.0,0.0,0.0030128899961709976,-0.012277702800929546,-0.004714854061603546,0.9999253749847412,-0.007025683764368296,-0.008678139187395573,-0.004928694572299719
289.0,0.0,0.0,0.0,0.0,0.0,0.0,-0.005553564056754112,-0.009424743242561817,0.004248716402798891,0.9999040961265564,-0.008034298196434975,-0.009451223537325859,-0.0061665065586566925
290.0,0.0,0.0,0.0,0.0,0.0,0.0,-0.015787264332175255,-0.00503799831494689,0.011371695436537266,0.9998840093612671,-0.008931536227464676,-0.009953485801815987,-0.007315916009247303
291.0,0.0,0.0,0.0,0.0,0.0,0.0,-0.028127381578087807,-0.0031853136606514454,0.05782473459839821,0.9998776316642761,-0.00888750609010458,-0.009299146011471748,-0.008920823223888874
292.0,0.0,0.0,0.0,0.0,0.0,0.0,-0.028339596465229988,-0.0072160265408456326,0.0712970718741417,0.9998834133148193,-0.00798803847283125,-0.008117971010506153,-0.010187136009335518
293.0,0.0,0.0,0.0,0.0,0.0,0.0,-0.016341622918844223,-0.0019127316772937775,0.034425411373376846,0.9998904466629028,-0.0065261623822152615,-0.00807441957294941,-0.010537164285779
294.0,0.0,0.0,0.0,0.0,0.0,0.0,-0.0019319691928103566,-0.017936844378709793,-0.007630608975887299,0.9998958110809326,-0.005092232953757048,-0.008102805353701115,-0.010803530924022198
295.0,0.0,0.0,0.0,0.0,0.0,0.0,0.0002611447125673294,-0.021083533763885498,-0.03170540928840637,0.9998970031738281,-0.004192969296127558,-0.007621448487043381,-0.01142366137355566
296.0,0.0,0.0,0.0,0.0,0.0,0.0,-0.00703022675588727,0.016893509775400162,0.03463887423276901,0.9999035596847534,-0.002494496526196599,-0.007564113941043615,-0.011383590288460255
297.0,0.0,0.0,0.0,0.0,0.0,0.0,-0.0056547196581959724,-0.0027893097139894962,0.026448015123605728,0.9999204874038696,-0.0008977950783446431,-0.006331536453217268,-0.010881010442972183
298.0,0.0,0.0,0.0,0.0,0.0,0.0,-0.0026374557055532932,-0.005516497418284416,0.023066164925694466,0.9999397993087769,0.0003661943192128092,-0.003919052425771952,-0.010242010466754436
299.0,0.0,0.0,0.0,0.0,0.0,0.0,0.0070868246257305145,0.005156239960342646,-0.00394657626748085,0.9999526739120483,0.0020817448385059834,-0.00220796512439847,-0.00922746304422617
300.0,0.0,0.0,0.0,0.0,0.0,0.0,0.010425899177789688,-0.0074987877160310745,-0.02654099278151989,0.9999606609344482,0.0029629943892359734,-0.000998188159428537,-0.008307967334985733
301.0,0.0,0.0,0.0,0.0,0.0,0.0,0.010111257433891296,-0.004664682317525148,-0.01328563317656517,0.9999688863754272,0.0033813819754868746,0.00010779804142657667,-0.0071368226781487465
302.0,0.0,0.0,0.0,0.0,0.0,0.0,0.010613041929900646,0.0021943198516964912,0.004210536368191242,0.9999770522117615,0.0038183867000043392,0.0006261779344640672,-0.00554216792806983
303.0,0.0,0.0,0.0,0.0,0.0,0.0,0.012220407836139202,0.0020124393049627542,0.0014944898430258036,0.9999842643737793,0.004348250571638346,0.0007097728084772825,-0.003505699336528778
304.0,0.0,0.0,0.0,0.0,0.0,0.0,0.011162261478602886,0.014021432027220726,-0.010258249938488007,0.999984860420227,0.00519576296210289,0.0008144407765939832,-0.0016997363418340683
305.0,0.0,0.0,0.0,0.0,0.0,0.0,0.004500716459006071,0.016474300995469093,-0.0037714641075581312,0.9999777674674988,0.006509293802082539,0.001441014464944601,-0.0004804782220162451
306.0,0.0,0.0,0.0,0.0,0.0,0.0,0.00196456303820014,0.01680474914610386,0.000180993796675466,0.9999623894691467,0.008268089033663273,0.002594997640699148,0.0003253720933571458
307.0,0.0,0.0,0.0,0.0,0.0,0.0,-0.0015487363561987877,0.007625128608196974,-0.007259126286953688,0.9999433159828186,0.009840990416705608,0.003981406334787607,0.000943914579693228
308.0,0.0,0.0,0.0,0.0,0.0,0.0,-0.006085751112550497,0.0002116527030011639,-0.008603249676525593,0.9999217391014099,0.011257113888859749,0.005244042258709669,0.0014755012234672904
309.0,0.0,0.0,0.0,0.0,0.0,0.0,-0.006580709479749203,0.0016807867214083672,-0.01921546831727028,0.9998905658721924,0.012995487079024315,0.006551304366439581,0.0026473787147551775
310.0,0.0,0.0,0.0,0.0,0.0,0.0,-0.005163183901458979,0.0018330789171159267,-0.043746914714574814,0.9998473525047302,0.015015211887657642,0.007723337039351463,0.0045242588967084885
311.0,0.0,0.0,0.0,0.0,0.0,0.0,-0.007290068548172712,0.0029452326707541943,-0.041198164224624634,0.9998037219047546,0.016501177102327347,0.008639750070869923,0.006766326725482941
312.0,0.0,0.0,0.0,0.0,0.0,0.0,-0.009939656592905521,0.005590221844613552,-0.045405421406030655,0.9997620582580566,0.017818598076701164,0.009088384918868542,0.008717247284948826
313.0,0.0,0.0,0.0,0.0,0.0,0.0,-0.018691131845116615,0.010407372377812862,-0.042532872408628464,0.9997183680534363,0.018818562850356102,0.010318908840417862,0.010135253891348839
314.0,0.0,0.0,0.0,0.0,0.0,0.0,-0.024560274556279182,0.013439580798149109,-0.033964477479457855,0.9996854662895203,0.01935986988246441,0.011338106356561184,0.011208239942789078
315.0,0.0,0.0,0.0,0.0,0.0,0.0,-0.024598753079771996,0.010686964727938175,-0.021630438044667244,0.999662458896637,0.019516149535775185,0.01172078587114811,0.01251940242946148
316.0,0.0,0.0,0.0,0.0,0.0,0.0,-0.020013144239783287,0.006207551807165146,-0.0401490218937397,0.9996508359909058,0.01949402689933777,0.011793142184615135,0.013383629731833935
317.0,0.0,0.0,0.0,0.0,0.0,0.0,-0.02458263747394085,0.0006454623071476817,-0.025431374087929726,0.9996511936187744,0.019053855910897255,0.0117041552439332,0.01405664999037981
318.0,0.0,0.0,0.0,0.0,0.0,0.0,-0.025720139965415,0.0023392944131046534,-0.002507576486095786,0.9996474981307983,0.01885099522769451,0.01154785230755806,0.014705204404890537
319.0,0.0,0.0,0.0,0.0,0.0,0.0,-0.023584287613630295,0.001955948071554303,-0.004399500787258148,0.9996374249458313,0.018943144008517265,0.011768952943384647,0.01509296428412199
320.0,0.0,0.0,0.0,0.0,0.0,0.0,-0.0240602008998394,-0.0015257825143635273,-0.0010636304505169392,0.9996349215507507,0.018665291368961334,0.01108501572161913,0.016083724796772003
321.0,0.0,0.0,0.0,0.0,0.0,0.0,-0.02427567169070244,0.003924416843801737,0.006018543615937233,0.9996404051780701,0.018512489274144173,0.010518401861190796,0.016296103596687317
322.0,0.0,0.0,0.0,0.0,0.0,0.0,-0.022722234949469566,0.003984931390732527,0.003561565186828375,0.9996269345283508,0.018838820978999138,0.010518769733607769,0.016746826469898224
323.0,0.0,0.0,0.0,0.0,0.0,0.0,-0.026877792552113533,0.0036952937953174114,0.025074679404497147,0.9996146559715271,0.018805332481861115,0.011021859012544155,0.017190249636769295
324.0,0.0,0.0,0.0,0.0,0.0,0.0,-0.024300923570990562,0.006907226517796516,0.010223204270005226,0.999591052532196,0.019217008724808693,0.012056971900165081,0.017410025000572205
325.0,0.0,0.0,0.0,0.0,0.0,0.0,-0.020259248092770576,-0.001995729748159647,-0.029934028163552284,0.9995628595352173,0.019427761435508728,0.013212965801358223,0.01794692873954773
326.0,0.0,0.0,0.0,0.0,0.0,0.0,-0.022681577131152153,-0.0007739702705293894,-0.01679418608546257,0.9995514154434204,0.019123835489153862,0.014488460496068,0.01792718656361103
327.0,0.0,0.0,0.0,0.0,0.0,0.0,-0.022518329322338104,0.004044176544994116,-0.018420429900288582,0.9995384812355042,0.018970489501953125,0.015816474333405495,0.017686761915683746
328.0,0.0,0.0,0.0,0.0,0.0,0.0,-0.019534414634108543,0.0030522507149726152,-0.022901302203536034,0.9995322823524475,0.018877828493714333,0.017195209860801697,0.016832346096634865
329.0,0.0,0.0,0.0,0.0,0.0,0.0,-0.01895892433822155,0.003133910009637475,-0.010596727021038532,0.9995160698890686,0.018866291269659996,0.018301639705896378,0.016636351123452187
330.0,0.0,0.0,0.0,0.0,0.0,0.0,-0.015250461176037788,0.004043156746774912,-0.009908967651426792,0.9995005130767822,0.018595019355416298,0.019390493631362915,0.016641680151224136
331.0,0.0,0.0,0.0,0.0,0.0,0.0,-0.00782147515565157,0.0005049912142567337,-0.015103839337825775,0.9994950890541077,0.018688779324293137,0.020670555531978607,0.015268304385244846
332.0,0.0,0.0,0.0,0.0,0.0,0.0,-0.0023141722194850445,-0.005111999809741974,-0.02992253564298153,0.9994891881942749,0.01870838738977909,0.022087177261710167,0.013548227958381176
333.0,0.0,0.0,0.0,0.0,0.0,0.0,-0.0018385089933872223,-0.0036828857846558094,-0.007499214727431536,0.9994585514068604,0.018806476145982742,0.023624926805496216,0.013074354268610477
334.0,0.0,0.0,0.0,0.0,0.0,0.0,0.008840305730700493,-0.002728355349972844,-0.005884375888854265,0.9994298219680786,0.018607312813401222,0.024440303444862366,0.014018076471984386
335.0,0.0,0.0,0.0,0.0,0.0,0.0,0.02102099545300007,-0.014798419550061226,-0.020256604999303818,0.9994608163833618,0.01773652248084545,0.024110039696097374,0.013503016903996468
336.0,0.0,0.0,0.0,0.0,0.0,0.0,0.026774192228913307,-0.006937969010323286,-0.029786741361021996,0.9994946122169495,0.017024409025907516,0.023652201518416405,0.012695780955255032
337.0,0.0,0.0,0.0,0.0,0.0,0.0,0.0180409736931324,-0.002282975474372506,0.00281436531804502,0.9995368123054504,0.016181034967303276,0.022526690736413002,0.012536070309579372
338.0,0.0,0.0,0.0,0.0,0.0,0.0,0.012858967296779156,0.0016324672615155578,0.04896898940205574,0.9995778203010559,0.015907099470496178,0.021127762272953987,0.012030116282403469
339.0,0.0,0.0,0.0,0.0,0.0,0.0,0.012080864980816841,-0.02345397137105465,0.025614487007260323,0.9996351599693298,0.014702972024679184,0.01914537325501442,0.012114805169403553
340.0,0.0,0.0,0.0,0.0,0.0,0.0,0.011561046354472637,-0.03067433089017868,0.03650641068816185,0.9996830224990845,0.013640696182847023,0.01783176325261593,0.011391409672796726
341.0,0.0,0.0,0.0,0.0,0.0,0.0,0.0125998230651021,-0.016971144825220108,0.04237188771367073,0.9996916055679321,0.013605750165879726,0.017693061381578445,0.010884602554142475
342.0,0.0,0.0,0.0,0.0,0.0,0.0,0.005621685646474361,-0.00634570699185133,0.017696421593427658,0.9996944069862366,0.013706647790968418,0.017205554991960526,0.011278806254267693
343.0,0.0,0.0,0.0,0.0,0.0,0.0,0.008318309672176838,0.002726961625739932,0.027233142405748367,0.9996844530105591,0.0144949397072196,0.017265379428863525,0.011095640249550343
344.0,0.0,0.0,0.0,0.0,0.0,0.0,0.021533256396651268,-0.015097478404641151,-0.03190654516220093,0.9996920824050903,0.01444756519049406,0.017125016078352928,0.010680029168725014
345.0,0.0,0.0,0.0,0.0,0.0,0.0,0.014792123809456825,0.004158653784543276,-0.008805667981505394,0.9996891021728516,0.014950566925108433,0.01694478653371334,0.010531009174883366
346.0,0.0,0.0,0.0,0.0,0.0,0.0,0.0053236824460327625,-0.001208525151014328,-0.005653684958815575,0.9996790885925293,0.015377096831798553,0.017464039847254753,0.010003338567912579
347.0,0.0,0.0,0.0,0.0,0.0,0.0,0.006340405438095331,-0.012766421772539616,-0.01884482428431511,0.9996724724769592,0.015488293953239918,0.017685048282146454,0.010111990384757519
348.0,0.0,0.0,0.0,0.0,0.0,0.0,0.009971681982278824,-0.009031170979142189,-0.02220703475177288,0.9996846318244934,0.015095853246748447,0.017517680302262306,0.009802233427762985
349.0,0.0,0.0,0.0,0.0,0.0,0.0,0.009591516107320786,-0.012132766656577587,-0.01771998032927513,0.9997196197509766,0.014379230327904224,0.01685141958296299,0.008370978757739067
350.0,0.0,0.0,0.0,0.0,0.0,0.0,0.0008250872488133609,-0.012401255778968334,-0.0025481125339865685,0.9997496008872986,0.013875864446163177,0.01604560576379299,0.007119018118828535
351.0,0.0,0.0,0.0,0.0,0.0,0.0,-0.0160708986222744,-0.015403403900563717,0.06227432191371918,0.9997742176055908,0.013346974737942219,0.015654683113098145,0.005377908702939749
352.0,0.0,0.0,0.0,0.0,0.0,0.0,-0.0118557745590806,-0.006610607262700796,0.061282236129045486,0.9997747540473938,0.013811357319355011,0.01566217839717865,0.0037834104150533676
353.0,0.0,0.0,0.0,0.0,0.0,0.0,-0.0011758634354919195,-0.009914036840200424,0.022245274856686592,0.999769389629364,0.014448082074522972,0.015576363541185856,0.003121389774605632
354.0,0.0,0.0,0.0,0.0,0.0,0.0,0.011303097940981388,0.002461632015183568,0.011358198709785938,0.9997479915618896,0.015477161854505539,0.01606469228863716,0.0025712875649333
355.0,0.0,0.0,0.0,0.0,0.0,0.0,0.03150748834013939,-0.010428252629935741,-0.031540609896183014,0.9997357130050659,0.01598227582871914,0.016376957297325134,0.002258468884974718
356.0,0.0,0.0,0.0,0.0,0.0,0.0,0.03157811984419823,-0.003362397663295269,-0.012450764887034893,0.9997419118881226,0.015425678342580795,0.016545137390494347,0.00221792864613235
357.0,0.0,0.0,0.0,0.0,0.0,0.0,0.031672991812229156,0.017786148935556412,-0.0026205992326140404,0.9997531175613403,0.014617029577493668,0.016427841037511826,0.0032532101031392813
358.0,0.0,0.0,0.0,0.0,0.0,0.0,0.03263947740197182,0.008746704086661339,-0.008002587594091892,0.9997783899307251,0.012826009653508663,0.01617303304374218,0.004145468585193157
359.0,0.0,0.0,0.0,0.0,0.0,0.0,0.03819557651877403,0.004638304002583027,-0.008235282264649868,0.9998200535774231,0.009879997000098228,0.015392294153571129,0.0050854915753006935
360.0,0.0,0.0,0.0,0.0,0.0,0.0,0.039096392691135406,0.010194474831223488,-0.00560241611674428,0.9998570084571838,0.00691392133012414,0.014020645059645176,0.006451804656535387
361.0,0.0,0.0,0.0,0.0,0.0,0.0,0.02893393114209175,0.043925605714321136,0.04267913103103638,0.9998762011528015,0.00461571617051959,0.012195589020848274,0.008794978260993958
362.0,0.0,0.0,0.0,0.0,0.0,0.0,0.033773910254240036,0.04917600005865097,0.04729095846414566,0.9998791813850403,0.0032794137950986624,0.009314627386629581,0.012004237622022629
363.0,0.0,0.0,0.0,0.0,0.0,0.0,0.03823647275567055,0.022872641682624817,0.0484364815056324,0.999889075756073,0.0011956184171140194,0.006250293459743261,0.013463323004543781
364.0,0.0,0.0,0.0,0.0,0.0,0.0,0.028977567330002785,-9.391562343807891e-05,0.04859961196780205,0.999902069568634,-0.0016451029805466533,0.003999511245638132,0.01332019828259945
365.0,0.0,0.0,0.0,0.0,0.0,0.0,0.016225626692175865,-0.0031103568617254496,0.04118393734097481,0.9998918175697327,-0.004408671986311674,0.002003474859520793,0.013885537162423134
366.0,0.0,0.0,0.0,0.0,0.0,0.0,0.005633414722979069,0.0019176480127498507,0.026692496612668037,0.9998663067817688,-0.006808253470808268,0.00026285380590707064,0.014869329519569874
367.0,0.0,0.0,0.0,0.0,0.0,0.0,0.0003470760420896113,0.00028285622829571366,0.012561336159706116,0.9998320937156677,-0.008881029672920704,-0.0015173029387369752,0.015959814190864563
368.0,0.0,0.0,0.0,0.0,0.0,0.0,-0.010480626486241817,-0.0013038844335824251,0.0024392304476350546,0.9997897148132324,-0.011089103296399117,-0.0037507612723857164,0.01684187352657318
369.0,0.0,0.0,0.0,0.0,0.0,0.0,-0.020727600902318954,0.009649439714848995,0.016703367233276367,0.9997414350509644,-0.012746510095894337,-0.0057373507879674435,0.017943590879440308
370.0,0.0,0.0,0.0,0.0,0.0,0.0,-0.020021159201860428,0.003577130613848567,-0.0122591657564044,0.999702513217926,-0.014006328769028187,-0.007368383463472128,0.018551282584667206
371.0,0.0,0.0,0.0,0.0,0.0,0.0,-0.02961144782602787,0.0009618710028007627,-0.004406403284519911,0.9996780157089233,-0.015150140970945358,-0.008875822648406029,0.018326658755540848
372.0,0.0,0.0,0.0,0.0,0.0,0.0,-0.04094526916742325,-0.0035739822778850794,0.0044716717675328255,0.9996703267097473,-0.016206596046686172,-0.009921448305249214,0.01726299710571766
373.0,0.0,0.0,0.0,0.0,0.0,0.0,-0.04648816958069801,-0.0023278763983398676,0.0041964855045080185,0.9996823072433472,-0.01663690246641636,-0.01036980003118515,0.015840472653508186
374.0,0.0,0.0,0.0,0.0,0.0,0.0,-0.047847580164670944,-0.00895273219794035,-0.0038479275535792112,0.9997156858444214,-0.01669861376285553,-0.01008700206875801,0.013700297102332115
375.0,0.0,0.0,0.0,0.0,0.0,0.0,-0.04473283514380455,-0.018633076921105385,-0.020597580820322037,0.9997594356536865,-0.016322575509548187,-0.008912012912333012,0.01163202989846468
376.0,0.0,0.0,0.0,0.0,0.0,0.0,-0.04323138669133186,-0.018552523106336594,-0.03187640383839607,0.999800443649292,-0.015787947922945023,-0.007548569235950708,0.009629248641431332
377.0,0.0,0.0,0.0,0.0,0.0,0.0,-0.03956505283713341,-0.014180713333189487,-0.039790984243154526,0.9998429417610168,-0.015094599686563015,-0.0053399852477014065,0.007601362653076649
378.0,0.0,0.0,0.0,0.0,0.0,0.0,-0.03521411120891571,-0.014969524927437305,-0.04823274537920952,0.999888002872467,-0.013953473418951035,-0.0020617875270545483,0.005018710624426603
379.0,0.0,0.0,0.0,0.0,0.0,0.0,-0.03137614205479622,-0.014956638216972351,-0.06011774390935898,0.999914288520813,-0.01284182071685791,0.0010755553375929594,0.0023566384334117174
380.0,0.0,0.0,0.0,0.0,0.0,0.0,-0.02692362666130066,-0.017437471076846123,-0.06752341240644455,0.9999183416366577,-0.01219258550554514,0.0037816124968230724,0.0004229746700730175
381.0,0.0,0.0,0.0,0.0,0.0,0.0,-0.02179618366062641,-0.025998692959547043,-0.0733310729265213,0.9999105930328369,-0.011530056595802307,0.0064576249569654465,-0.002088508801534772
382.0,0.0,0.0,0.0,0.0,0.0,0.0,-0.014029690064489841,-0.021853890269994736,-0.07042206823825836,0.999901533126831,-0.011215477250516415,0.007667831610888243,-0.003531638765707612
383.0,0.0,0.0,0.0,0.0,0.0,0.0,-0.01386992260813713,-0.006416401360183954,-0.04211974889039993,0.9998971819877625,-0.010799406096339226,0.008229169063270092,-0.004680304788053036
384.0,0.0,0.0,0.0,0.0,0.0,0.0,-0.01959645189344883,-0.0007960837101563811,-0.011664945632219315,0.9998917579650879,-0.010446641594171524,0.008531580679118633,-0.005899356212466955
385.0,0.0,0.0,0.0,0.0,0.0,0.0,-0.0178928691893816,0.006607090588659048,0.01907488703727722,0.9998915791511536,-0.009759731590747833,0.008201361633837223,-0.007367721758782864
386.0,0.0,0.0,0.0,0.0,0.0,0.0,-0.008968411944806576,0.009052031673491001,0.03133109211921692,0.9998959302902222,-0.008685278706252575,0.007270133122801781,-0.008911730721592903
387.0,0.0,0.0,0.0,0.0,0.0,0.0,0.00022081182396505028,0.003273025853559375,0.025228839367628098,0.9998988509178162,-0.007349009159952402,0.00650787865743041,-0.010305960662662983
388.0,0.0,0.0,0.0,0.0,0.0,0.0,0.0009230459108948708,0.007511719595640898,0.04093950241804123,0.9999017715454102,-0.005882245488464832,0.005495517980307341,-0.011471008881926537
389.0,0.0,0.0,0.0,0.0,0.0,0.0,0.0007129955338314176,0.015283916145563126,0.051670875400304794,0.9999088644981384,-0.003962237853556871,0.005172363482415676,-0.011832584626972675
390.0,0.0,0.0,0.0,0.0,0.0,0.0,0.00463399663567543,0.022501584142446518,0.054032888263463974,0.9999182224273682,-0.0016183502739295363,0.005608948413282633,-0.011379413306713104
391.0,0.0,0.0,0.0,0.0,0.0,0.0,0.02160598523914814,0.037661273032426834,0.01586984656751156,0.9999208450317383,0.000778048881329596,0.005925108678638935,-0.01109595037996769
392.0,0.0,0.0,0.0,0.0,0.0,0.0,0.02906457521021366,0.04046318307518959,0.00865978840738535,0.9999293684959412,0.003266950137913227,0.005827540531754494,-0.009853501804172993
393.0,0.0,0.0,0.0,0.0,0.0,0.0,0.036692481487989426,0.03210259974002838,-0.006333968136459589,0.9999376535415649,0.004890636540949345,0.005743969231843948,-0.008255841210484505
394.0,0.0,0.0,0.0,0.0,0.0,0.0,0.03337888792157173,0.034342121332883835,0.03152177482843399,0.9999493956565857,0.005848695989698172,0.004911275114864111,-0.006602405104786158
395.0,0.0,0.0,0.0,0.0,0.0,0.0,0.056095000356435776,0.03296582028269768,-0.0052239247597754,0.9999600052833557,0.006801968906074762,0.0038990566972643137,-0.00431732228025794
396.0,0.0,0.0,0.0,0.0,0.0,0.0,0.056298039853572845,0.028905704617500305,-0.012265408411622047,0.9999635219573975,0.006926972419023514,0.0038063402753323317,-0.003290758701041341
397.0,0.0,0.0,0.0,0.0,0.0,0.0,0.04251258447766304,0.03275546059012413,0.024075210094451904,0.999969482421875,0.00636599725112319,0.0034331376664340496,-0.002731542568653822
398.0,0.0,0.0,0.0,0.0,0.0,0.0,0.03954698145389557,0.028543028980493546,0.01630755141377449,0.999981164932251,0.005529040936380625,0.0025440894532948732,-0.001310629420913756
399.0,0.0,0.0,0.0,0.0,0.0,0.0,0.03383972868323326,0.03566080331802368,0.022560525685548782,0.9999895095825195,0.004259407985955477,0.001167353242635727,0.0013760302681475878
400.0,0.0,0.0,0.0,0.0,0.0,0.0,0.03577902913093567,0.030930854380130768,0.023360641673207283,0.999988317489624,0.003906914498656988,0.001068454934284091,0.002519536530598998
401.0,0.0,0.0,0.0,0.0,0.0,0.0,0.03944343701004982,0.0092674745246768,0.005404222756624222,0.9999889135360718,0.0033444250002503395,0.0007957537309266627,0.003359024878591299
402.0,0.0,0.0,0.0,0.0,0.0,0.0,0.03695939853787422,0.006495610345155001,-0.005079722963273525,0.9999915361404419,0.002670775633305311,0.00033950083889067173,0.0031391894444823265
403.0,0.0,0.0,0.0,0.0,0.0,0.0,0.023481320589780807,0.0028577300254255533,-0.0024930788204073906,0.9999963045120239,0.0015374603681266308,0.00012467890337575227,0.002221549628302455
404.0,0.0,0.0,0.0,0.0,0.0,0.0,0.012537593953311443,-0.006235666573047638,0.003055690322071314,0.9999986886978149,6.532840052386746e-05,0.0003968237724620849,0.0017395023023709655
405.0,0.0,0.0,0.0,0.0,0.0,0.0,0.006996093317866325,0.007577277719974518,0.009235172532498837,0.9999986886978149,-0.0010630562901496887,0.000852103519719094,0.001481164013966918
406.0,0.0,0.0,0.0,0.0,0.0,0.0,0.007708981167525053,0.0007199383107945323,-0.000579188228584826,0.9999973773956299,-0.0022524611558765173,0.000782353978138417,0.0005389108555391431
407.0,0.0,0.0,0.0,0.0,0.0,0.0,0.010534407570958138,-0.0026565492153167725,-0.012142011895775795,0.9999942183494568,-0.0034070531837642193,0.0004656572127714753,0.00022059933689888567
408.0,0.0,0.0,0.0,0.0,0.0,0.0,0.008798436261713505,0.002766689518466592,-0.006861659698188305,0.9999914765357971,-0.00416029617190361,-0.00014946851297281682,6.018496787874028e-05
409.0,0.0,0.0,0.0,0.0,0.0,0.0,0.009509137831628323,0.0012649940326809883,-0.004222708288580179,0.9999851584434509,-0.005293588619679213,-0.0011833689641207457,-0.00032755648135207593
410.0,0.0,0.0,0.0,0.0,0.0,0.0,0.007471204269677401,0.0018310173181816936,0.0031044227071106434,0.999974250793457,-0.006525559350848198,-0.002788982819765806,-0.00014033888874109834
411.0,0.0,0.0,0.0,0.0,0.0,0.0,0.005717678461223841,0.004178207367658615,0.007024101447314024,0.999959409236908,-0.007849790155887604,-0.004371485207229853,-0.00039461106644012034
412.0,0.0,0.0,0.0,0.0,0.0,0.0,0.0008104819571599364,0.008814076893031597,0.02272123657166958,0.9999451637268066,-0.008833922445774078,-0.005465166177600622,-0.0013318718411028385
413.0,0.0,0.0,0.0,0.0,0.0,0.0,0.003666563658043742,0.005931703373789787,0.014804932288825512,0.99992835521698,-0.009738733060657978,-0.0067024133168160915,-0.0018885649042204022
414.0,0.0,0.0,0.0,0.0,0.0,0.0,0.0004977572243660688,0.007504057604819536,0.02095119096338749,0.9999093413352966,-0.010602498427033424,-0.007818090729415417,-0.0026577759999781847
415.0,0.0,0.0,0.0,0.0,0.0,0.0,-0.002574392594397068,0.005614846479147673,0.0218923669308424,0.999886155128479,-0.0114428186789155,-0.009238510392606258,-0.0033974475227296352
416.0,0.0,0.0,0.0,0.0,0.0,0.0,-0.0003033205575775355,0.000857025443110615,0.010488223284482956,0.9998606443405151,-0.012127503752708435,-0.010988505557179451,-0.0033214231953024864
417.0,0.0,0.0,0.0,0.0,0.0,0.0,-0.008805707097053528,0.008076375350356102,0.02522728405892849,0.9998228549957275,-0.0129050612449646,-0.013321870006620884,-0.0032383520156145096
418.0,0.0,0.0,0.0,0.0,0.0,0.0,-0.014328530989587307,0.011135739274322987,0.031385596841573715,0.9997719526290894,-0.013841365464031696,-0.015894073992967606,-0.0035556103102862835
419.0,0.0,0.0,0.0,0.0,0.0,0.0,-0.026491986587643623,0.012493131682276726,0.05048075690865517,0.9997334480285645,-0.013925646431744099,-0.017971361055970192,-0.0040865130722522736
420.0,0.0,0.0,0.0,0.0,0.0,0.0,-0.024560464546084404,0.01555123645812273,0.04983507841825485,0.999716579914093,-0.013517088256776333,-0.018984176218509674,-0.004873630125075579
421.0,0.0,0.0,0.0,0.0,0.0,0.0,-0.016135672107338905,0.008226709440350533,0.02628788910806179,0.9997103214263916,-0.012557609006762505,-0.01973803900182247,-0.0056946962140500546
422.0,0.0,0.0,0.0,0.0,0.0,0.0,-0.014810229651629925,0.0014744984218850732,0.017809411510825157,0.9997062683105469,-0.011838892474770546,-0.020017575472593307,-0.006831435952335596
423.0,0.0,0.0,0.0,0.0,0.0,0.0,-0.012953812256455421,0.001515706186182797,0.013204558752477169,0.9997063875198364,-0.010975385084748268,-0.020000360906124115,-0.008197049610316753
424.0,0.0,0.0,0.0,0.0,0.0,0.0,-0.007250788621604443,-0.0010053502628579736,0.0021234124433249235,0.9997141361236572,-0.010230842046439648,-0.019678745418787003,-0.008937465958297253
425.0,0.0,0.0,0.0,0.0,0.0,0.0,-0.0028327549807727337,-0.004261770751327276,-0.006604983005672693,0.9997101426124573,-0.010085473768413067,-0.019680457189679146,-0.009535415098071098
426.0,0.0,0.0,0.0,0.0,0.0,0.0,-0.0015852610813453794,-0.00896266009658575,-0.00731909554451704,0.9996923208236694,-0.010334697552025318,-0.020085489377379417,-0.010262278839945793
427.0,0.0,0.0,0.0,0.0,0.0,0.0,-0.0036088996566832066,-0.012229667976498604,0.0030944726895540953,0.999675989151001,-0.010749055072665215,-0.02018352970480919,-0.011179882101714611
428.0,0.0,0.0,0.0,0.0,0.0,0.0,-0.007182161323726177,-0.008788635022938251,0.013962846249341965,0.9996660351753235,-0.010612036101520061,-0.02041580155491829,-0.011776580475270748
429.0,0.0,0.0,0.0,0.0,0.0,0.0,-0.010533696971833706,-0.00843958742916584,0.01535501703619957,0.9996564984321594,-0.010838234797120094,-0.020493006333708763,-0.012221531942486763
430.0,0.0,0.0,0.0,0.0,0.0,0.0,-0.009762944653630257,-0.010493263602256775,0.004415031056851149,0.9996612668037415,-0.010359163396060467,-0.019799647852778435,-0.013346721418201923
431.0,0.0,0.0,0.0,0.0,0.0,0.0,-0.01426312793046236,-0.009287383407354355,-0.004941468592733145,0.9996768236160278,-0.00997053924947977,-0.01876450702548027,-0.013979422859847546
432.0,0.0,0.0,0.0,0.0,0.0,0.0,-0.018949415534734726,-0.007949125953018665,-0.007768214680254459,0.9996870160102844,-0.009592781774699688,-0.017718952149152756,-0.014825636520981789
433.0,0.0,0.0,0.0,0.0,0.0,0.0,-0.019700007513165474,-0.004816803149878979,-0.01347341574728489,0.9997075796127319,-0.009135295636951923,-0.016435114666819572,-0.015227146446704865
434.0,0.0,0.0,0.0,0.0,0.0,0.0,-0.02049369178712368,-0.00243449117988348,-0.018254850059747696,0.9997360706329346,-0.008363868109881878,-0.014978723600506783,-0.015277573838829994
435.0,0.0,0.0,0.0,0.0,0.0,0.0,-0.020810382440686226,-0.0028915242291986942,-0.02376408688724041,0.9997589588165283,-0.0077072069980204105,-0.01363465841859579,-0.015386782586574554
436.0,0.0,0.0,0.0,0.0,0.0,0.0,-0.021501364186406136,0.002512433333322406,-0.019865788519382477,0.9997832775115967,-0.00690578343346715,-0.01257171481847763,-0.015089206397533417
437.0,0.0,0.0,0.0,0.0,0.0,0.0,-0.019666112959384918,0.004332466516643763,-0.022875741124153137,0.9998112916946411,-0.006316621322184801,-0.011476155370473862,-0.014336122199892998
438.0,0.0,0.0,0.0,0.0,0.0,0.0,-0.019366580992937088,0.010118923150002956,-0.023426827043294907,0.9998324513435364,-0.005474183242768049,-0.010472430847585201,-0.013971846550703049
439.0,0.0,0.0,0.0,0.0,0.0,0.0,-0.021569015458226204,0.015563172288239002,-0.015627192333340645,0.9998564720153809,-0.004831486381590366,-0.009704647585749626,-0.013018010184168816
440.0,0.0,0.0,0.0,0.0,0.0,0.0,-0.02253272570669651,0.02155241370201111,-0.009658939205110073,0.9998789429664612,-0.004356920253485441,-0.009154521860182285,-0.011811847798526287
441.0,0.0,0.0,0.0,0.0,0.0,0.0,-0.020393986254930496,0.02453693188726902,-0.007532753981649876,0.9999036192893982,-0.003397141583263874,-0.00837684702128172,-0.010546506382524967
442.0,0.0,0.0,0.0,0.0,0.0,0.0,-0.01790345460176468,0.02271850034594536,-0.017430996522307396,0.9999245405197144,-0.0024710316210985184,-0.007762655150145292,-0.009209356270730495
443.0,0.0,0.0,0.0,0.0,0.0,0.0,-0.018091561272740364,0.02460947446525097,-0.013273834250867367,0.9999362230300903,-0.0017408099956810474,-0.007283697370439768,-0.008444856852293015
444.0,0.0,0.0,0.0,0.0,0.0,0.0,-0.0193494725972414,0.025125974789261818,-0.0019837492145597935,0.9999477863311768,-0.0014253896661102772,-0.007058131508529186,-0.0072541446425020695
445.0,0.0,0.0,0.0,0.0,0.0,0.0,-0.020238839089870453,0.023058036342263222,-0.0008747854153625667,0.9999574422836304,-0.0008619786240160465,-0.007196655031293631,-0.005702645052224398
446.0,0.0,0.0,0.0,0.0,0.0,0.0,-0.017802847549319267,0.02123422920703888,-0.004769419319927692,0.9999676942825317,-0.00026506706490181386,-0.007048340048640966,-0.003873364767059684
447.0,0.0,0.0,0.0,0.0,0.0,0.0,-0.019117193296551704,0.018654542043805122,-0.005640842951834202,0.9999717473983765,0.00024329805455636233,-0.007054112385958433,-0.0025742033030837774
448.0,0.0,0.0,0.0,0.0,0.0,0.0,-0.02242516167461872,0.01644289866089821,-0.001850123517215252,0.9999743103981018,0.0006671523442491889,-0.006954146083444357,-0.0016799288569018245
449.0,0.0,0.0,0.0,0.0,0.0,0.0,-0.0229461919516325,0.011582032777369022,0.004943464882671833,0.9999796748161316,0.0007931462023407221,-0.006263025104999542,-0.0009461809531785548
450.0,0.0,0.0,0.0,0.0,0.0,0.0,-0.021753793582320213,0.01017650868743658,0.009184562601149082,0.9999842047691345,0.0009480483131483197,-0.005552604328840971,8.154945589922136e-07
451.0,0.0,0.0,0.0,0.0,0.0,0.0,-0.01929307170212269,0.00857293140143156,0.008461846970021725,0.9999853372573853,0.0017750634578987956,-0.004966311622411013,0.0013076902832835913
452.0,0.0,0.0,0.0,0.0,0.0,0.0,-0.016394371166825294,0.0041767931543290615,0.007227013818919659,0.9999822974205017,0.0029441246297210455,-0.004390127025544643,0.002720901044085622
453.0,0.0,0.0,0.0,0.0,0.0,0.0,-0.015303915366530418,0.006194517947733402,0.012679710984230042,0.9999709129333496,0.004220177419483662,-0.004537498112767935,0.004454075358808041
454.0,0.0,0.0,0.0,0.0,0.0,0.0,-0.014532665722072124,0.010470706038177013,0.019898006692528725,0.9999507069587708,0.0063048359006643295,-0.00485221017152071,0.005946757737547159
455.0,0.0,0.0,0.0,0.0,0.0,0.0,-0.008446572348475456,0.02309386245906353,0.013759303838014603,0.9999235272407532,0.008839593268930912,-0.00452822633087635,0.007380126975476742
456.0,0.0,0.0,0.0,0.0,0.0,0.0,-0.0024295197799801826,0.03528899326920509,0.009198564104735851,0.9998775124549866,0.012427104637026787,-0.0040841675363481045,0.00859026424586773
457.0,0.0,0.0,0.0,0.0,0.0,0.0,0.0003521778853610158,0.03972824662923813,0.0005675434949807823,0.999813437461853,0.01623176969587803,-0.0028807728085666895,0.010071394965052605
458.0,0.0,0.0,0.0,0.0,0.0,0.0,-0.0018798958044499159,0.03837287798523903,-0.006142266560345888,0.9997290968894958,0.01925274357199669,-0.002374477917328477,0.012860528193414211
459.0,0.0,0.0,0.0,0.0,0.0,0.0,0.0008632849203422666,0.027352042496204376,-0.014197027310729027,0.9996530413627625,0.022513065487146378,-0.0004584873968269676,0.013665342703461647
460.0,0.0,0.0,0.0,0.0,0.0,0.0,0.005429407116025686,0.013706361874938011,-0.0388028509914875,0.9995794296264648,0.024837039411067963,0.0011988156475126743,0.014923819340765476
461.0,0.0,0.0,0.0,0.0,0.0,0.0,0.005256285425275564,0.002130689099431038,-0.04326104745268822,0.999524712562561,0.02642025426030159,0.002985694445669651,0.015600536949932575
462.0,0.0,0.0,0.0,0.0,0.0,0.0,-0.0011434464249759912,-0.010261302813887596,-0.02786904387176037,0.9994996190071106,0.02706134133040905,0.004818469751626253,0.015651751309633255
463.0,0.0,0.0,0.0,0.0,0.0,0.0,-0.0030662280041724443,-0.02293498069047928,-0.02539835497736931,0.9994979500770569,0.026780741289258003,0.0067893341183662415,0.015514740720391273
464.0,0.0,0.0,0.0,0.0,0.0,0.0,-0.002988748950883746,-0.034624677151441574,-0.0217150766402483,0.9995090365409851,0.025967443361878395,0.008185002952814102,0.015504675917327404
465.0,0.0,0.0,0.0,0.0,0.0,0.0,-0.00122380955144763,-0.03454485908150673,-0.018598739057779312,0.9995324015617371,0.02449974976480007,0.008972816169261932,0.015946637839078903
466.0,0.0,0.0,0.0,0.0,0.0,0.0,0.001123701804317534,-0.02837451919913292,-0.0071679879911243916,0.9995478987693787,0.023153159767389297,0.00930557306855917,0.01678149215877056
467.0,0.0,0.0,0.0,0.0,0.0,0.0,-0.00024240706989075989,-0.03039688803255558,0.008859232999384403,0.999565839767456,0.021800756454467773,0.009023147635161877,0.01764744706451893
468.0,0.0,0.0,0.0,0.0,0.0,0.0,-0.0016869032988324761,-0.03126715123653412,0.013869115151464939,0.999617338180542,0.019855113700032234,0.008384388871490955,0.01734388992190361
469.0,0.0,0.0,0.0,0.0,0.0,0.0,-0.001245536026544869,-0.030381977558135986,0.02207951806485653,0.9996654391288757,0.0184036698192358,0.007884575985372066,0.01637815497815609
470.0,0.0,0.0,0.0,0.0,0.0,0.0,0.00017643584578763694,-0.03644068166613579,0.016869259998202324,0.9997000694274902,0.017069704830646515,0.008214684203267097,0.015520414337515831
471.0,0.0,0.0,0.0,0.0,0.0,0.0,0.003451347816735506,-0.036642078310251236,0.0156296044588089,0.9997378587722778,0.015422720462083817,0.007984927855432034,0.014921742491424084
472.0,0.0,0.0,0.0,0.0,0.0,0.0,0.002519808942452073,-0.03283756226301193,0.0009105447097681463,0.9997646808624268,0.0137172881513834,0.0076733860187232494,0.014956193044781685
473.0,0.0,0.0,0.0,0.0,0.0,0.0,-0.0024548859801143408,-0.03142185136675835,0.0003025803016498685,0.9997837543487549,0.012230259366333485,0.007732432801276445,0.014938131906092167
474.0,0.0,0.0,0.0,0.0,0.0,0.0,-0.004282102454453707,-0.0223627220839262,0.0009445153409615159,0.9998084306716919,0.010147899389266968,0.007438023108989,0.014991950243711472
475.0,0.0,0.0,0.0,0.0,0.0,0.0,-0.006222473923116922,-0.017188919708132744,-0.0008311393903568387,0.9998351335525513,0.008146888576447964,0.006936749443411827,0.014665395952761173
476.0,0.0,0.0,0.0,0.0,0.0,0.0,-0.007469091564416885,-0.01827845349907875,0.009964333847165108,0.9998596906661987,0.006545037031173706,0.006087129469960928,0.014169478788971901
477.0,0.0,0.0,0.0,0.0,0.0,0.0,-0.006484372541308403,-0.015179520472884178,0.018775086849927902,0.9998728036880493,0.005198224913328886,0.004504912532866001,0.014391493052244186
478.0,0.0,0.0,0.0,0.0,0.0,0.0,-0.004913084674626589,-0.009198075160384178,0.02169267274439335,0.9998847842216492,0.004752444103360176,0.0030722140800207853,0.014084461145102978
479.0,0.0,0.0,0.0,0.0,0.0,0.0,-0.006670412141829729,-0.006408564746379852,0.002589417854323983,0.9999042749404907,0.004544353112578392,0.002203751355409622,0.01288282684981823
480.0,0.0,0.0,0.0,0.0,0.0,0.0,-0.011009449139237404,-0.0018719796789810061,0.0322280190885067,0.9999116659164429,0.004842997994273901,0.0015845622401684523,0.01227777823805809
481.0,0.0,0.0,0.0,0.0,0.0,0.0,-0.01021548267453909,-0.0010706537868827581,0.041818439960479736,0.999914288520813,0.005112927872687578,0.0012802545679733157,0.011985043995082378
482.0,0.0,0.0,0.0,0.0,0.0,0.0,-0.005281834397464991,-0.00028120321803726256,0.04034702107310295,0.9999198317527771,0.005811004899442196,0.0014828419080004096,0.011151280254125595
483.0,0.0,0.0,0.0,0.0,0.0,0.0,-0.0010213640052825212,-0.004023049026727676,0.011371944099664688,0.9999167323112488,0.007222952786833048,0.0024620455224066973,0.010404002852737904
484.0,0.0,0.0,0.0,0.0,0.0,0.0,-0.0045486437156796455,-0.0033746466506272554,0.002629449125379324,0.9999028444290161,0.009049802087247372,0.003965828102082014,0.00983703788369894
485.0,0.0,0.0,0.0,0.0,0.0,0.0,-0.0038859976921230555,0.002339225495234132,0.008459266275167465,0.9998673796653748,0.011374685913324356,0.005411699414253235,0.01032403577119112
486.0,0.0,0.0,0.0,0.0,0.0,0.0,-0.0031474230345338583,0.0018247305415570736,-0.009460496716201305,0.9998226761817932,0.013822584412992,0.006362511310726404,0.011095266789197922
487.0,0.0,0.0,0.0,0.0,0.0,0.0,-0.002826159819960594,-0.00612590741366148,-0.05273931100964546,0.999782919883728,0.015505285002291203,0.007293684408068657,0.011853836476802826
488.0,0.0,0.0,0.0,0.0,0.0,0.0,-0.01037425547838211,-0.006296964827924967,-0.03109813667833805,0.999748170375824,0.016782503575086594,0.009221953339874744,0.011699095368385315
489.0,0.0,0.0,0.0,0.0,0.0,0.0,-0.013770325109362602,0.0015549000818282366,-0.009375938214361668,0.999694287776947,0.01845216378569603,0.01152995228767395,0.011740276589989662
490.0,0.0,0.0,0.0,0.0,0.0,0.0,-0.014727175235748291,0.004552918951958418,-0.03141368553042412,0.9996270537376404,0.0202026404440403,0.013937536627054214,0.011974843218922615
491.0,0.0,0.0,0.0,0.0,0.0,0.0,-0.01684662513434887,-0.00055536167928949,-0.029325250536203384,0.999545156955719,0.021874157711863518,0.01622459851205349,0.01295566651970148
492.0,0.0,0.0,0.0,0.0,0.0,0.0,-0.015060199424624443,0.0063493261113762856,-0.054830025881528854,0.9994571208953857,0.02339388057589531,0.018154233694076538,0.014448212459683418
493.0,0.0,0.0,0.0,0.0,0.0,0.0,-0.015732020139694214,0.010813300497829914,-0.062247905880212784,0.9993858933448792,0.02427111566066742,0.019471971318125725,0.01611236110329628
494.0,0.0,0.0,0.0,0.0,0.0,0.0,-0.016622252762317657,0.007067588157951832,-0.04616101458668709,0.9993309378623962,0.02480440028011799,0.020517703145742416,0.017362702637910843
495.0,0.0,0.0,0.0,0.0,0.0,0.0,-0.01548681315034628,0.007046821527183056,-0.031139088794589043,0.9992955923080444,0.024792330339550972,0.021433956921100616,0.01828145794570446
496.0,0.0,0.0,0.0,0.0,0.0,0.0,-0.01574769988656044,0.007832150906324387,-0.01702849194407463,0.999269962310791,0.02434699423611164,0.022130249068140984,0.019415393471717834
497.0,0.0,0.0,0.0,0.0,0.0,0.0,-0.013882692903280258,0.011371866799890995,-0.014914114959537983,0.9992321133613586,0.024326786398887634,0.02264617383480072,0.020747562870383263
498.0,0.0,0.0,0.0,0.0,0.0,0.0,-0.0124584399163723,0.015482179820537567,-0.009366558864712715,0.9992019534111023,0.024414924904704094,0.02324320562183857,0.02142777107656002
499.0,0.0,0.0,0.0,0.0,0.0,0.0,-0.010982241481542587,0.011859212070703506,-0.006771531887352467,0.9991852641105652,0.024196680635213852,0.024405382573604584,0.021158738061785698
500.0,0.0,0.0,0.0,0.0,0.0,0.0,-0.007795373909175396,0.00734925689175725,-0.013089229352772236,0.999168336391449,0.023543717339634895,0.025381429120898247,0.02154577150940895
501.0,0.0,0.0,0.0,0.0,0.0,0.0,-0.004166219383478165,0.004606081638485193,-0.013014818541705608,0.9991541504859924,0.022791359573602676,0.025598770007491112,0.02272157371044159
502.0,0.0,0.0,0.0,0.0,0.0,0.0,-1.9744891687878408e-05,0.0015464031603187323,-0.022019734606146812,0.9991613030433655,0.021359959617257118,0.025438502430915833,0.023944547399878502
503.0,0.0,0.0,0.0,0.0,0.0,0.0,-0.0011210751254111528,-0.0027481496799737215,-0.02870699018239975,0.9992004036903381,0.019342297688126564,0.025027843192219734,0.024453530088067055
504.0,0.0,0.0,0.0,0.0,0.0,0.0,-0.0024285113904625177,0.0027145440690219402,0.0005123880691826344,0.9992366433143616,0.01725982315838337,0.02455403469502926,0.025007152929902077
505.0,0.0,0.0,0.0,0.0,0.0,0.0,-0.006410603877156973,0.0036837372463196516,0.020835675299167633,0.9992578029632568,0.015314147807657719,0.02443152479827404,0.025543343275785446
506.0,0.0,0.0,0.0,0.0,0.0,0.0,-0.0016550497384741902,0.0002878086525015533,0.03216192498803139,0.9992935657501221,0.01316891610622406,0.02399035356938839,0.025761151686310768
507.0,0.0,0.0,0.0,0.0,0.0,0.0,0.0035775492433458567,-0.006132498849183321,0.009610213339328766,0.9993383288383484,0.010499257594347,0.02297237329185009,0.026168106123805046
508.0,0.0,0.0,0.0,0.0,0.0,0.0,0.0033489209599792957,0.002915887162089348,0.002464041579514742,0.9994001984596252,0.007717634551227093,0.021680381149053574,0.02587519772350788
509.0,0.0,0.0,0.0,0.0,0.0,0.0,0.0032138258684426546,0.010176435112953186,0.0172237828373909,0.9994655251502991,0.005199852399528027,0.0203029066324234,0.025087464600801468
510.0,0.0,0.0,0.0,0.0,0.0,0.0,0.00016638395027257502,0.018472418189048767,0.03535470739006996,0.9995013475418091,0.003463498316705227,0.019355611875653267,0.024708852171897888
511.0,0.0,0.0,0.0,0.0,0.0,0.0,-0.00020542224228847772,0.01858498714864254,0.03770658001303673,0.999525249004364,0.0024094204418361187,0.018797649070620537,0.0242934487760067
512.0,0.0,0.0,0.0,0.0,0.0,0.0,0.006655767094343901,0.013568115420639515,0.012652464210987091,0.9995493292808533,0.001729772426187992,0.018281949684023857,0.02374943532049656
513.0,0.0,0.0,0.0,0.0,0.0,0.0,0.007553238421678543,0.008473547175526619,0.004560789093375206,0.9995537400245667,0.0013307530898600817,0.018367940559983253,0.023523030802607536
514.0,0.0,0.0,0.0,0.0,0.0,0.0,0.007275916635990143,0.005554031580686569,0.0002485951117705554,0.9995633959770203,0.0009894159156829119,0.018192365765571594,0.02326076477766037
515.0,0.0,0.0,0.0,0.0,0.0,0.0,0.010772976092994213,0.0015080388402566314,-0.013276109471917152,0.9995824694633484,0.0007613698253408074,0.017892327159643173,0.022673051804304123
516.0,0.0,0.0,0.0,0.0,0.0,0.0,0.014088543131947517,0.0034311916679143906,-0.008229932747781277,0.9995976090431213,0.0007594761555083096,0.01800374500453472,0.02190917544066906
517.0,0.0,0.0,0.0,0.0,0.0,0.0,0.014054511673748493,-0.001977427862584591,0.0027612524572759867,0.9996316432952881,8.481078839395195e-05,0.017309140413999557,0.020900791510939598
518.0,0.0,0.0,0.0,0.0,0.0,0.0,0.015352314338088036,-0.004638935439288616,0.0029299859888851643,0.999669075012207,-0.0007544702384620905,0.01637810282409191,0.019818900153040886
519.0,0.0,0.0,0.0,0.0,0.0,0.0,0.016888542100787163,-0.004056729841977358,0.00590526033192873,0.9997011423110962,-0.0014968629693612456,0.015276502817869186,0.019028911367058754
520.0,0.0,0.0,0.0,0.0,0.0,0.0,0.014564904384315014,-0.005471730604767799,0.008516455069184303,0.9997372627258301,-0.002795946318656206,0.013697554357349873,0.01816793717443943
521.0,0.0,0.0,0.0,0.0,0.0,0.0,0.01239920873194933,-0.004117744043469429,0.01732906699180603,0.9997777342796326,-0.0038474672473967075,0.012123172171413898,0.01681540720164776
522.0,0.0,0.0,0.0,0.0,0.0,0.0,0.00942487083375454,-0.0038914710748940706,0.02114626206457615,0.9998016953468323,-0.004502677358686924,0.011061207391321659,0.015939148142933846
523.0,0.0,0.0,0.0,0.0,0.0,0.0,0.0038340429309755564,-0.0030767815187573433,0.05219519883394241,0.9998205900192261,-0.005027472972869873,0.010235567577183247,0.015125072561204433
524.0,0.0,0.0,0.0,0.0,0.0,0.0,0.011068512685596943,-0.0020969603210687637,0.028087826445698738,0.9998409152030945,-0.005280123557895422,0.009070144034922123,0.014420208521187305
525.0,0.0,0.0,0.0,0.0,0.0,0.0,0.011775009334087372,-0.012630329467356205,-0.008014264516532421,0.9998477697372437,-0.005727105773985386,0.00799325667321682,0.01441656518727541
526.0,0.0,0.0,0.0,0.0,0.0,0.0,0.005689565557986498,-0.003829046618193388,0.02713673934340477,0.9998486638069153,-0.005955101922154427,0.007293181959539652,0.014633635058999062
527.0,0.0,0.0,0.0,0.0,0.0,0.0,0.007607901003211737,0.005704337265342474,0.013941772282123566,0.9998512864112854,-0.005514188669621944,0.006956887897104025,0.014787494204938412
528.0,0.0,0.0,0.0,0.0,0.0,0.0,0.0036672642454504967,-0.0053769443184137344,-0.0001500103680882603,0.9998518228530884,-0.005319430027157068,0.007149750366806984,0.014730534516274929
529.0,0.0,0.0,0.0,0.0,0.0,0.0,-0.001963579561561346,0.008057250641286373,0.03478574752807617,0.9998478889465332,-0.004610622767359018,0.007460076827555895,0.015072879381477833
530.0,0.0,0.0,0.0,0.0,0.0,0.0,0.006458116229623556,0.005444667302072048,-0.013646275736391544,0.999837338924408,-0.00403814809396863,0.007580869365483522,0.015848545357584953
531.0,0.0,0.0,0.0,0.0,0.0,0.0,0.003934379667043686,-0.0024166784714907408,-0.011167310178279877,0.9998275637626648,-0.0037469216622412205,0.007739772088825703,0.01645493321120739
532.0,0.0,0.0,0.0,0.0,0.0,0.0,0.003662344766780734,-0.0018424412701278925,-0.008220561780035496,0.999820351600647,-0.003426185343414545,0.008025282062590122,0.01682671159505844
533.0,0.0,0.0,0.0,0.0,0.0,0.0,0.0067245871759951115,-0.004409655928611755,-0.01674153096973896,0.9998249411582947,-0.003182356245815754,0.007806698326021433,0.016709089279174805
534.0,0.0,0.0,0.0,0.0,0.0,0.0,0.0047765630297362804,-0.0053664157167077065,-0.016123095527291298,0.9998294711112976,-0.0027225464582443237,0.007462796289473772,0.01666896604001522
535.0,0.0,0.0,0.0,0.0,0.0,0.0,0.0013958915369585156,-0.0036331459414213896,-0.014956671744585037,0.9998326301574707,-0.0025960244238376617,0.0075571127235889435,0.016464097425341606
536.0,0.0,0.0,0.0,0.0,0.0,0.0,8.32690202514641e-05,-0.002469721483066678,0.00026098513626493514,0.9998399615287781,-0.0024469958152621984,0.007966062054038048,0.01584050990641117
537.0,0.0,0.0,0.0,0.0,0.0,0.0,0.00264966138638556,-0.007497438229620457,-0.002976374700665474,0.9998449683189392,-0.0025267424061894417,0.007772325538098812,0.01560158096253872
538.0,0.0,0.0,0.0,0.0,0.0,0.0,0.0021256778854876757,-0.0076263840310275555,-0.011254671961069107,0.9998392462730408,-0.002889154711738229,0.007574537768959999,0.01598993130028248
539.0,0.0,0.0,0.0,0.0,0.0,0.0,-0.001339132897555828,-0.003855814691632986,0.0018439210252836347,0.9998354911804199,-0.0036593384575098753,0.006900452077388763,0.01636521890759468
540.0,0.0,0.0,0.0,0.0,0.0,0.0,-0.0023633036762475967,-6.376767851179466e-05,-0.0004841609625145793,0.9998356103897095,-0.00471510598435998,0.005715180654078722,0.016554953530430794
541.0,0.0,0.0,0.0,0.0,0.0,0.0,-0.005730447359383106,0.0007475688471458852,-0.0026571324560791254,0.9998314380645752,-0.0056405626237392426,0.005129507277160883,0.016709154471755028
542.0,0.0,0.0,0.0,0.0,0.0,0.0,-0.009137197397649288,0.007564435247331858,0.023118866607546806,0.9998159408569336,-0.006565581541508436,0.004727903753519058,0.017398208379745483
543.0,0.0,0.0,0.0,0.0,0.0,0.0,-0.005451095290482044,0.014141285791993141,0.029280157759785652,0.9998114109039307,-0.007112425751984119,0.0034763978328555822,0.017741475254297256
544.0,0.0,0.0,0.0,0.0,0.0,0.0,-0.0033198099117726088,0.008005551062524319,0.01968362182378769,0.9998140335083008,-0.00731563800945878,0.001978933112695813,0.017728770151734352
545.0,0.0,0.0,0.0,0.0,0.0,0.0,0.003208815585821867,-0.006782541051506996,0.01778263971209526,0.9998201131820679,-0.0075581613928079605,0.0006232055020518601,0.017381034791469574
546.0,0.0,0.0,0.0,0.0,0.0,0.0,0.0022917836904525757,-0.005450259894132614,0.04429769515991211,0.9998447299003601,-0.007304116152226925,-0.0001701632427284494,0.01603689044713974
547.0,0.0,0.0,0.0,0.0,0.0,0.0,0.003955083433538675,-0.0031539699994027615,0.04762962833046913,0.9998670816421509,-0.006157547701150179,-0.00035068896249867976,0.015094084665179253
548.0,0.0,0.0,0.0,0.0,0.0,0.0,0.006154161412268877,-0.0097426762804389,0.036217138171195984,0.9998792409896851,-0.004514188040047884,0.00047931799781508744,0.01486362237483263
549.0,0.0,0.0,0.0,0.0,0.0,0.0,0.008427170105278492,-0.006719985045492649,0.0007773591205477715,0.9998936057090759,-0.0028055377770215273,0.0021718060597777367,0.014153475873172283
550.0,0.0,0.0,0.0,0.0,0.0,0.0,0.0057516805827617645,-0.00996040366590023,-0.02058265544474125,0.9999041557312012,-0.0013531037839129567,0.004257872235029936,0.013109338469803333
551.0,0.0,0.0,0.0,0.0,0.0,0.0,0.007317882962524891,-0.012281889095902443,-0.04393253102898598,0.9999041557312012,-0.0005675108404830098,0.0064130439423024654,0.012259447015821934
552.0,0.0,0.0,0.0,0.0,0.0,0.0,0.0068479678593575954,-0.014253181405365467,-0.041328392922878265,0.999895453453064,2.613605283841025e-05,0.008121371269226074,0.011973036453127861
553.0,0.0,0.0,0.0,0.0,0.0,0.0,0.011026782914996147,-0.016122333705425262,-0.04870304837822914,0.9998795390129089,0.00016032530402299017,0.009741558693349361,0.012096477672457695
554.0,0.0,0.0,0.0,0.0,0.0,0.0,0.011946705169975758,-0.01105238776654005,-0.0333322212100029,0.999869704246521,0.0002027174923568964,0.010249589569866657,0.012460234574973583
555.0,0.0,0.0,0.0,0.0,0.0,0.0,0.012536183930933475,-0.00829986110329628,-0.019874488934874535,0.9998559355735779,0.0007213751086965203,0.012408604845404625,0.011557835154235363
556.0,0.0,0.0,0.0,0.0,0.0,0.0,0.01384277269244194,-0.0026665320619940758,-0.00241242372430861,0.9998659491539001,0.00011453403567429632,0.01242136675864458,0.010662025772035122
557.0,0.0,0.0,0.0,0.0,0.0,0.0,0.016070814803242683,-0.0027908680494874716,0.0036291112191975117,0.9998781681060791,-0.000490351696498692,0.012362326495349407,0.009529519826173782
558.0,0.0,0.0,0.0,0.0,0.0,0.0,0.019794747233390808,-0.0019771987572312355,0.025761708617210388,0.9998863339424133,-0.0009506853530183434,0.011896170675754547,0.00922007579356432
559.0,0.0,0.0,0.0,0.0,0.0,0.0,0.020265432074666023,-0.008288510143756866,0.023882750421762466,0.9998977184295654,-0.0016392591642215848,0.01125905942171812,0.00866848323494196
560.0,0.0,0.0,0.0,0.0,0.0,0.0,0.01928890310227871,-0.014680329710245132,0.009414233267307281,0.9999063014984131,-0.002698469441384077,0.010459717363119125,0.008412064984440804
561.0,0.0,0.0,0.0,0.0,0.0,0.0,0.01369395013898611,-0.007238371763378382,0.01688658818602562,0.9999134540557861,-0.003824343206360936,0.009038087911903858,0.00877472385764122
562.0,0.0,0.0,0.0,0.0,0.0,0.0,0.010655803605914116,-0.002242485759779811,0.04538029432296753,0.9999221563339233,-0.004649854265153408,0.007293687202036381,0.009019955061376095
563.0,0.0,0.0,0.0,0.0,0.0,0.0,0.013747572898864746,-0.00047692956286482513,0.05416974052786827,0.9999341368675232,-0.004537178669124842,0.006078559439629316,0.008614042773842812
564.0,0.0,0.0,0.0,0.0,0.0,0.0,0.01814064383506775,0.004868806339800358,0.05579672381281853,0.999931275844574,-0.0029417630285024643,0.006962744053453207,0.00896267406642437
565.0,0.0,0.0,0.0,0.0,0.0,0.0,0.01522193755954504,0.01422523707151413,0.08099464327096939,0.9999055862426758,-0.0002670485118869692,0.008687639608979225,0.010639118030667305
566.0,0.0,0.0,0.0,0.0,0.0,0.0,0.027201859280467033,0.012513567693531513,0.023318130522966385,0.999864935874939,0.0034652859903872013,0.010264316573739052,0.012374848127365112
567.0,0.0,0.0,0.0,0.0,0.0,0.0,0.05165889486670494,-0.011165565811097622,-0.11573231220245361,0.9998234510421753,0.006093062460422516,0.011351861990988255,0.013672573491930962
568.0,0.0,0.0,0.0,0.0,0.0,0.0,0.043293680995702744,-0.00296029238961637,-0.0969996303319931,0.999777615070343,0.007817540317773819,0.012306882999837399,0.015239392407238483
569.0,0.0,0.0,0.0,0.0,0.0,0.0,0.03904566913843155,0.0029477260541170835,-0.07746478170156479,0.9997453689575195,0.008957036770880222,0.01245191041380167,0.016556864604353905
570.0,0.0,0.0,0.0,0.0,0.0,0.0,0.03905852884054184,-0.011863856576383114,-0.08996771275997162,0.9997384548187256,0.008648292161524296,0.01186458021402359,0.017535770311951637
571.0,0.0,0.0,0.0,0.0,0.0,0.0,0.031134599819779396,-0.01579509861767292,-0.06428827345371246,0.9997372031211853,0.007596385199576616,0.011266907677054405,0.018470842391252518
572.0,0.0,0.0,0.0,0.0,0.0,0.0,0.02306867018342018,-0.02319488674402237,-0.047640662640333176,0.9997646808624268,0.0055499691516160965,0.009382487274706364,0.01876085437834263
573.0,0.0,0.0,0.0,0.0,0.0,0.0,0.01549938041716814,-0.029348164796829224,-0.03514248505234718,0.9998009204864502,0.0029355469159781933,0.007343093398958445,0.018324868753552437
574.0,0.0,0.0,0.0,0.0,0.0,0.0,0.00397877162322402,-0.025310372933745384,1.6345480617019348e-05,0.9998247623443604,0.00011002716200891882,0.005406287498772144,0.017917804419994354
575.0,0.0,0.0,0.0,0.0,0.0,0.0,-0.0044644856825470924,-0.022569997236132622,0.01708374358713627,0.9998418688774109,-0.0027166164945811033,0.00342980632558465,0.017235225066542625
576.0,0.0,0.0,0.0,0.0,0.0,0.0,-0.016658218577504158,-0.020065804943442345,0.046986173838377,0.9998535513877869,-0.005371246952563524,0.001216285047121346,0.016191920265555382
577.0,0.0,0.0,0.0,0.0,0.0,0.0,-0.020961232483386993,-0.018274227157235146,0.053304869681596756,0.9998529553413391,-0.00855798739939928,-0.0012222103541716933,0.014816289767622948
578.0,0.0,0.0,0.0,0.0,0.0,0.0,-0.029004203155636787,-0.01422245055437088,0.0485512875020504,0.9998433589935303,-0.011664209887385368,-0.0036822038237005472,0.012789405882358551
579.0,0.0,0.0,0.0,0.0,0.0,0.0,-0.0359468087553978,-0.006590328179299831,0.06319400668144226,0.9998184442520142,-0.01437067799270153,-0.005946580320596695,0.011017538607120514
580.0,0.0,0.0,0.0,0.0,0.0,0.0,-0.03911246731877327,-0.007198798935860395,0.0676160380244255,0.9997897744178772,-0.016599519178271294,-0.007851465605199337,0.009128487668931484
581.0,0.0,0.0,0.0,0.0,0.0,0.0,-0.04141493886709213,0.001053682528436184,0.06239521503448486,0.9997491836547852,-0.018788399174809456,-0.009745467454195023,0.007320878095924854
582.0,0.0,0.0,0.0,0.0,0.0,0.0,-0.04177211597561836,0.007557401899248362,0.0591522678732872,0.9997074604034424,-0.020531065762043,-0.011797355487942696,0.004976026713848114
583.0,0.0,0.0,0.0,0.0,0.0,0.0,-0.04129025340080261,0.007120706140995026,0.051913127303123474,0.9996848106384277,-0.021410634741187096,-0.01279066689312458,0.0029131227638572454
584.0,0.0,0.0,0.0,0.0,0.0,0.0,-0.03936120495200157,0.005424779374152422,0.030312009155750275,0.9996594786643982,-0.022142451256513596,-0.013768653385341167,0.0011702529154717922
585.0,0.0,0.0,0.0,0.0,0.0,0.0,-0.03552994132041931,0.01343394722789526,0.019430380314588547,0.9996479153633118,-0.022242585197091103,-0.014472471550107002,-7.082360752974637e-06
586.0,0.0,0.0,0.0,0.0,0.0,0.0,-0.03549933806061745,0.025437306612730026,0.017091304063796997,0.9996549487113953,-0.021630283445119858,-0.014861293137073517,-0.0012755992356687784
587.0,0.0,0.0,0.0,0.0,0.0,0.0,-0.03497984632849693,0.02904209867119789,0.01959601230919361,0.9996852278709412,-0.020441051572561264,-0.014344359748065472,-0.0024326650891453028
588.0,0.0,0.0,0.0,0.0,0.0,0.0,-0.030748646706342697,0.028422677889466286,0.01046025287359953,0.9997305274009705,-0.01885630562901497,-0.012911482714116573,-0.00406319135800004
589.0,0.0,0.0,0.0,0.0,0.0,0.0,-0.026479821652173996,0.023995650932192802,-0.006239928770810366,0.9997687339782715,-0.01738312840461731,-0.011524043045938015,-0.005221514496952295
590.0,0.0,0.0,0.0,0.0,0.0,0.0,-0.019562527537345886,0.023341892287135124,-0.02521446719765663,0.9998113512992859,-0.015457085333764553,-0.010125425644218922,-0.0059857782907783985
591.0,0.0,0.0,0.0,0.0,0.0,0.0,-0.016105899587273598,0.017458248883485794,-0.03448362275958061,0.9998384118080139,-0.014021561481058598,-0.008968519978225231,-0.00680968165397644
592.0,0.0,0.0,0.0,0.0,0.0,0.0,-0.012433250434696674,0.015789080411195755,-0.02490309812128544,0.9998638033866882,-0.012642317451536655,-0.007837404496967793,-0.007129613310098648
593.0,0.0,0.0,0.0,0.0,0.0,0.0,-0.009334107860922813,0.013196052052080631,-0.024458425119519234,0.9999048709869385,-0.009690365754067898,-0.00516628660261631,-0.008343943394720554
594.0,0.0,0.0,0.0,0.0,0.0,0.0,-0.008125752210617065,0.008342633955180645,-0.0212533101439476,0.9999080300331116,-0.00835230853408575,-0.0035831467248499393,-0.010075761936604977
595.0,0.0,0.0,0.0,0.0,0.0,0.0,-0.0022764645982533693,0.006798349786549807,-0.012146594934165478,0.9999066591262817,-0.007215152028948069,-0.002114512026309967,-0.011410919949412346
596.0,0.0,0.0,0.0,0.0,0.0,0.0,0.001448491238988936,0.005140610504895449,-0.01046215370297432,0.9999074935913086,-0.0062814620323479176,-0.0012535580899566412,-0.011997805908322334
597.0,0.0,0.0,0.0,0.0,0.0,0.0,0.006232913583517075,-0.004003125708550215,-0.015848105773329735,0.9999079704284668,-0.005429078824818134,-0.00042857625521719456,-0.012422707863152027
598.0,0.0,0.0,0.0,0.0,0.0,0.0,0.008281802758574486,-0.002575470833107829,-0.006097410339862108,0.9998992681503296,-0.005244195461273193,0.0001131816825363785,-0.013193363323807716
599.0,0.0,0.0,0.0,0.0,0.0,0.0,0.00914067029953003,0.0006487550563178957,0.005463962443172932,0.9998882412910461,-0.004808100406080484,0.00016773281095083803,-0.014153796248137951
600.0,0.0,0.0,0.0,0.0,0.0,0.0,0.010375890880823135,0.0025726843159645796,0.01120193675160408,0.9998797178268433,-0.004582487512379885,-1.0772019777505193e-05,-0.014818771742284298
601.0,0.0,0.0,0.0,0.0,0.0,0.0,0.00853800680488348,0.0036878495011478662,0.01743316277861595,0.9998819231987,-0.004167916253209114,-0.0002887419832404703,-0.014792222529649734
602.0,0.0,0.0,0.0,0.0,0.0,0.0,0.008387508802115917,0.00163525459356606,0.025255367159843445,0.9998748302459717,-0.003868008963763714,-0.0006813696818426251,-0.015312868170440197
603.0,0.0,0.0,0.0,0.0,0.0,0.0,0.008986448869109154,0.004463111516088247,0.030774643644690514,0.9998639225959778,-0.0035816787276417017,-0.0003620327333919704,-0.016090212389826775
604.0,0.0,0.0,0.0,0.0,0.0,0.0,0.01029953919351101,0.006149075459688902,0.025172289460897446,0.9998725652694702,-0.002744616474956274,0.00047818818711675704,-0.01573372632265091
605.0,0.0,0.0,0.0,0.0,0.0,0.0,0.01309727318584919,0.0073512643575668335,0.01555503997951746,0.9998955726623535,-0.00149446667637676,0.0006109131500124931,-0.014369604177772999
606.0,0.0,0.0,0.0,0.0,0.0,0.0,0.015395130030810833,0.013874961994588375,0.003899703733623028,0.9999154210090637,-0.00013627421867568046,0.00034396370756439865,-0.013001563958823681
607.0,0.0,0.0,0.0,0.0,0.0,0.0,0.01721958816051483,0.014295482076704502,-0.0012787554878741503,0.9999285936355591,0.0008986498578451574,7.606141298310831e-05,-0.011937863193452358
608.0,0.0,0.0,0.0,0.0,0.0,0.0,0.01702757366001606,0.001002353266812861,-0.0005232688272371888,0.9999405145645142,0.001548071508295834,-0.0007188872550614178,-0.010749312117695808
609.0,0.0,0.0,0.0,0.0,0.0,0.0,0.016009394079446793,-0.005118640139698982,0.010891075246036053,0.9999421238899231,0.0016213059425354004,-0.0009037560666911304,-0.010614394210278988
610.0,0.0,0.0,0.0,0.0,0.0,0.0,0.011912701651453972,-0.005435984116047621,0.01849861815571785,0.999944806098938,0.0018798033706843853,-0.0007059267954900861,-0.010320100001990795
611.0,0.0,0.0,0.0,0.0,0.0,0.0,0.004383458755910397,0.0008799053030088544,0.03262276202440262,0.999955952167511,0.002433489542454481,-0.0008468911983072758,-0.009007836692035198
612.0,0.0,0.0,0.0,0.0,0.0,0.0,0.0022155684418976307,0.009667978622019291,0.027748282998800278,0.9999707937240601,0.003559262491762638,-0.0012518377043306828,-0.0066679720766842365
613.0,0.0,0.0,0.0,0.0,0.0,0.0,0.0067040217109024525,-0.0005086105666123331,-0.011351617984473705,0.9999774694442749,0.004508250392973423,-0.0016631789039820433,-0.004714349750429392
614.0,0.0,0.0,0.0,0.0,0.0,0.0,0.0008772340370342135,0.006959096994251013,0.004598246421664953,0.999980092048645,0.005114997737109661,-0.0016916132299229503,-0.003305535763502121
615.0,0.0,0.0,0.0,0.0,0.0,0.0,-0.0037762646097689867,0.010852438397705555,0.02081078290939331,0.9999811053276062,0.005686629563570023,-0.0014461189275607467,-0.0018735742196440697
616.0,0.0,0.0,0.0,0.0,0.0,0.0,-0.003192920470610261,0.005812359042465687,0.034919172525405884,0.9999776482582092,0.006548678036779165,-0.0013501669745892286,-5.555905954679474e-05
617.0,0.0,0.0,0.0,0.0,0.0,0.0,-0.004143534693866968,0.007537044119089842,3.384605952305719e-05,0.9999682307243347,0.007644898258149624,-0.0011021038517355919,0.002062302315607667
618.0,0.0,0.0,0.0,0.0,0.0,0.0,-0.004806813783943653,0.003310195868834853,-0.011236621998250484,0.9999542236328125,0.008834682404994965,-0.0006579592009074986,0.003582906676456332
619.0,0.0,0.0,0.0,0.0,0.0,0.0,-0.01155479159206152,0.006291431374847889,0.006031535100191832,0.9999322891235352,0.01016349345445633,-0.0003498387522995472,0.005656383465975523
620.0,0.0,0.0,0.0,0.0,0.0,0.0,-0.039295122027397156,-0.0038462623488157988,-0.10356512665748596,0.9999013543128967,0.011428529396653175,0.0005548844346776605,0.008166264742612839
621.0,0.0,0.0,0.0,0.0,0.0,0.0,-0.007305632811039686,0.001612472115084529,-0.002008290495723486,0.9998523592948914,0.013306342996656895,0.0006075774435885251,0.010840704664587975
622.0,0.0,0.0,0.0,0.0,0.0,0.0,-0.007249876391142607,0.01568441092967987,-0.033344876021146774,0.9997802972793579,0.01553976908326149,0.0015828075120225549,0.01398224662989378
623.0,0.0,0.0,0.0,0.0,0.0,0.0,-0.012037442065775394,0.01711108535528183,-0.01021087821573019,0.9997080564498901,0.017650818452239037,0.002866460243239999,0.0162487979978323
624.0,0.0,0.0,0.0,0.0,0.0,0.0,-0.01171783171594143,0.012820160947740078,-0.017501486465334892,0.9996335506439209,0.01937299780547619,0.003924001008272171,0.018495801836252213
625.0,0.0,0.0,0.0,0.0,0.0,0.0,-0.010105984285473824,0.0037077495362609625,-0.03966234251856804,0.9995694160461426,0.020752377808094025,0.0055275955237448215,0.019992770627141
626.0,0.0,0.0,0.0,0.0,0.0,0.0,-0.00984936859458685,0.0024728719145059586,-0.028069952502846718,0.9995100498199463,0.021846793591976166,0.006987337954342365,0.021294552832841873
627.0,0.0,0.0,0.0,0.0,0.0,0.0,-0.011114638298749924,-0.0009426396572962403,-0.0301006231456995,0.999437153339386,0.022930413484573364,0.008136613294482231,0.023107310757040977
628.0,0.0,0.0,0.0,0.0,0.0,0.0,-0.007723844610154629,-0.005982254631817341,-0.012665445916354656,0.9993725419044495,0.023360788822174072,0.009459610097110271,0.024893751367926598
629.0,0.0,0.0,0.0,0.0,0.0,0.0,-0.002030146773904562,-0.003054720116779208,-0.0276498906314373,0.9993124604225159,0.024129129946231842,0.009972021915018559,0.026334330439567566
630.0,0.0,0.0,0.0,0.0,0.0,0.0,-0.004098437260836363,-0.009154046885669231,-0.02453405223786831,0.9992798566818237,0.0244283489882946,0.01066433172672987,0.027004403993487358
631.0,0.0,0.0,0.0,0.0,0.0,0.0,-0.004602502565830946,-0.008699135854840279,-0.006608050316572189,0.9992619752883911,0.02398323453962803,0.010319516994059086,0.028169263154268265
632.0,0.0,0.0,0.0,0.0,0.0,0.0,-0.004172168672084808,-0.008689300157129765,0.015783753246068954,0.9992700219154358,0.023767981678247452,0.010622300207614899,0.02796144038438797
633.0,0.0,0.0,0.0,0.0,0.0,0.0,-0.010891113430261612,-0.008958529680967331,-0.02480912208557129,0.999313473701477,0.023599956184625626,0.011295346543192863,0.026229476556181908
634.0,0.0,0.0,0.0,0.0,0.0,0.0,-0.007703350856900215,-0.01796536147594452,0.04320085793733597,0.9993441104888916,0.023859985172748566,0.012274889275431633,0.024315662682056427
635.0,0.0,0.0,0.0,0.0,0.0,0.0,-0.003063269890844822,-0.01413234043866396,0.01944422908127308,0.9992994070053101,0.024916253983974457,0.014183741994202137,0.02405885048210621
636.0,0.0,0.0,0.0,0.0,0.0,0.0,-0.0018327083671465516,-0.027429018169641495,-0.022014062851667404,0.9992283582687378,0.025973336771130562,0.01572538912296295,0.02491486817598343
637.0,0.0,0.0,0.0,0.0,0.0,0.0,-0.004419345874339342,-0.026191076263785362,-0.048977140337228775,0.9991831183433533,0.02653389796614647,0.017310895025730133,0.025087596848607063
638.0,0.0,0.0,0.0,0.0,0.0,0.0,-0.009658664464950562,-0.01498369313776493,-0.05712340027093887,0.9991154670715332,0.026732496917247772,0.0193211380392313,0.02608308009803295
639.0,0.0,0.0,0.0,0.0,0.0,0.0,-0.010600248351693153,-0.011998055502772331,-0.023593999445438385,0.9990713000297546,0.026700854301452637,0.020478472113609314,0.026916678994894028
640.0,0.0,0.0,0.0,0.0,0.0,0.0,-0.013794703409075737,-0.02390279620885849,-0.028929851949214935,0.9990577101707458,0.025970397517085075,0.02070111595094204,0.02793954312801361
641.0,0.0,0.0,0.0,0.0,0.0,0.0,-0.017053568735718727,-0.050013698637485504,-0.049936555325984955,0.9990747570991516,0.02425595186650753,0.020818660035729408,0.028774738311767578
642.0,0.0,0.0,0.0,0.0,0.0,0.0,-0.011513886041939259,-0.047320298850536346,-0.02295699343085289,0.9991347193717957,0.021651193499565125,0.020014045760035515,0.02933313511312008
643.0,0.0,0.0,0.0,0.0,0.0,0.0,-0.00450999615713954,-0.04603298753499985,0.017675217241048813,0.9992004632949829,0.019384043291211128,0.018931379541754723,0.029398908838629723
644.0,0.0,0.0,0.0,0.0,0.0,0.0,-0.008348164148628712,-0.03597249463200569,0.011395033448934555,0.9992138743400574,0.017516085878014565,0.01850423589348793,0.03037293069064617
645.0,0.0,0.0,0.0,0.0,0.0,0.0,-0.012132332660257816,-0.014384690672159195,0.030281545594334602,0.999204695224762,0.01657024957239628,0.018167546018958092,0.03138924390077591
646.0,0.0,0.0,0.0,0.0,0.0,0.0,-0.005547116044908762,-0.004509102087467909,-0.011027994565665722,0.9991995692253113,0.016290295869112015,0.017684331163764,0.03197314962744713
647.0,0.0,0.0,0.0,0.0,0.0,0.0,-0.010086028836667538,-0.02304886095225811,-0.0107402503490448,0.9992137551307678,0.015458471141755581,0.017820198088884354,0.03186506778001785
648.0,0.0,0.0,0.0,0.0,0.0,0.0,-0.008240588940680027,-0.01364012248814106,0.011931433342397213,0.9992414116859436,0.01487637497484684,0.017780452966690063,0.03129161521792412
649.0,0.0,0.0,0.0,0.0,0.0,0.0,-0.011147793382406235,-0.024779830127954483,-0.023181673139333725,0.9992732405662537,0.013976688496768475,0.018167009577155113,0.030456533655524254
650.0,0.0,0.0,0.0,0.0,0.0,0.0,-0.015184728428721428,-0.018870718777179718,-0.007968639954924583,0.9992591142654419,0.013688966631889343,0.01881801337003708,0.030653908848762512
651.0,0.0,0.0,0.0,0.0,0.0,0.0,-0.014579466544091702,-0.007846198976039886,0.010813044384121895,0.9992269277572632,0.01373328734189272,0.018904468044638634,0.031617503613233566
652.0,0.0,0.0,0.0,0.0,0.0,0.0,-0.01190993096679449,-0.0073618050664663315,-0.016074731945991516,0.9992192387580872,0.01362628024071455,0.018976937979459763,0.03186109662055969
653.0,0.0,0.0,0.0,0.0,0.0,0.0,-0.00883021205663681,-0.006979963276535273,-0.035951633006334305,0.9992254376411438,0.013242671266198158,0.01934032514691353,0.031607385724782944
654.0,0.0,0.0,0.0,0.0,0.0,0.0,-0.009652539156377316,-0.0031704565044492483,-0.007242855150252581,0.9992288947105408,0.012873596511781216,0.019330183044075966,0.03165721520781517
655.0,0.0,0.0,0.0,0.0,0.0,0.0,-0.007160964887589216,0.0031449845992028713,0.00851685181260109,0.9992305040359497,0.012593444436788559,0.01949055679142475,0.03162183612585068
656.0,0.0,0.0,0.0,0.0,0.0,0.0,-0.0042468407191336155,0.001824114704504609,-0.004970841109752655,0.9992312788963318,0.012036590836942196,0.019173722714185715,0.032005056738853455
657.0,0.0,0.0,0.0,0.0,0.0,0.0,-0.0031512079294770956,0.0005172064993530512,0.0019735468085855246,0.9992320537567139,0.011241835542023182,0.018818357959389687,0.032478418201208115
658.0,0.0,0.0,0.0,0.0,0.0,0.0,-0.0028909763786941767,0.0005481740226969123,0.004835117608308792,0.999233067035675,0.010276959277689457,0.018353072926402092,0.03302914649248123
659.0,0.0,0.0,0.0,0.0,0.0,0.0,-0.0013697427930310369,-0.0024988518562167883,0.0013131877640262246,0.9992517828941345,0.008972419425845146,0.017804548144340515,0.03314264118671417
660.0,0.0,0.0,0.0,0.0,0.0,0.0,0.0006763976998627186,-2.049439171969425e-05,0.009011915884912014,0.9993004202842712,0.007545641157776117,0.017549267038702965,0.032153625041246414
661.0,0.0,0.0,0.0,0.0,0.0,0.0,0.00015202890790533274,-0.004397805780172348,0.01998475007712841,0.9993458986282349,0.0066764564253389835,0.017001500353217125,0.031211061403155327
662.0,0.0,0.0,0.0,0.0,0.0,0.0,5.1220937166363e-05,-0.008800356648862362,0.020495235919952393,0.9993693232536316,0.006068569608032703,0.016592001542448997,0.030804358422756195
663.0,0.0,0.0,0.0,0.0,0.0,0.0,0.0016874505672603846,-0.012086010538041592,0.012284384109079838,0.9993917942047119,0.005516022443771362,0.016635864973068237,0.030147332698106766
664.0,0.0,0.0,0.0,0.0,0.0,0.0,0.0015953435795381665,-0.015243643894791603,0.006038144696503878,0.9994182586669922,0.004779376555234194,0.016522344201803207,0.029448429122567177
665.0,0.0,0.0,0.0,0.0,0.0,0.0,0.004350464325398207,-0.013011098839342594,0.004211333114653826,0.9994441866874695,0.004130363464355469,0.01617809757590294,0.02885320968925953
666.0,0.0,0.0,0.0,0.0,0.0,0.0,0.007369681727141142,-0.013338995166122913,0.012030730955302715,0.9994755983352661,0.003962633665651083,0.016236770898103714,0.027733245864510536
667.0,0.0,0.0,0.0,0.0,0.0,0.0,0.008030303753912449,-0.014363535679876804,0.011505226604640484,0.9994954466819763,0.0039132446981966496,0.016490792855620384,0.026863737031817436
668.0,0.0,0.0,0.0,0.0,0.0,0.0,0.00998957920819521,-0.01404563058167696,0.004741667304188013,0.9995219111442566,0.003402130678296089,0.016674932092428207,0.025814853608608246
669.0,0.0,0.0,0.0,0.0,0.0,0.0,0.011655614711344242,-0.014667978510260582,0.001360313850454986,0.9995296597480774,0.003328596008941531,0.01723279431462288,0.02514694631099701
670.0,0.0,0.0,0.0,0.0,0.0,0.0,0.015350431203842163,-0.010392953641712666,-0.002138127340003848,0.999541163444519,0.0030143246985971928,0.01777312532067299,0.024339614436030388
671.0,0.0,0.0,0.0,0.0,0.0,0.0,0.01585223153233528,-0.006597473751753569,-0.0010776396375149488,0.9995541572570801,0.0027819136157631874,0.01830589957535267,0.023426491767168045
672.0,0.0,0.0,0.0,0.0,0.0,0.0,0.018936965614557266,-0.003755200421437621,-0.0020485767163336277,0.9995694756507874,0.002328637056052685,0.018460799008607864,0.02269008941948414
673.0,0.0,0.0,0.0,0.0,0.0,0.0,0.02067461423575878,-0.00471291271969676,-0.003337693167850375,0.9995875954627991,0.0018774062627926469,0.018243899568915367,0.02209927700459957
674.0,0.0,0.0,0.0,0.0,0.0,0.0,0.022106878459453583,-0.0050400844775140285,0.0009880049619823694,0.9995999336242676,0.0012643232475966215,0.018246939405798912,0.021572139114141464
675.0,0.0,0.0,0.0,0.0,0.0,0.0,0.020236723124980927,0.008401854895055294,0.014153363183140755,0.9996129274368286,0.0011467519216239452,0.01788445934653282,0.021283699199557304
676.0,0.0,0.0,0.0,0.0,0.0,0.0,0.017492033541202545,0.008495095185935497,0.006177286151796579,0.9996145963668823,0.000818573113065213,0.017502715811133385,0.021530741825699806
677.0,0.0,0.0,0.0,0.0,0.0,0.0,0.017535455524921417,0.011963477358222008,-0.008031638339161873,0.9996204972267151,0.0002052242634817958,0.017424937337636948,0.021339377388358116
678.0,0.0,0.0,0.0,0.0,0.0,0.0,0.015065995045006275,0.015786323696374893,-0.009297022596001625,0.9996193647384644,-0.00048739431076683104,0.016558364033699036,0.02206222340464592
679.0,0.0,0.0,0.0,0.0,0.0,0.0,0.010226701386272907,0.022386789321899414,0.011858142912387848,0.9996157288551331,-0.0010856901062652469,0.015565215609967709,0.022915799170732498
680.0,0.0,0.0,0.0,0.0,0.0,0.0,0.010902445763349533,0.022069483995437622,0.010272507555782795,0.9996010065078735,-0.001806724234484136,0.01483355462551117,0.023968461900949478
681.0,0.0,0.0,0.0,0.0,0.0,0.0,0.011306360363960266,0.017551934346556664,0.0014540277188643813,0.9995927214622498,-0.0032100894022732973,0.013190056197345257,0.02510809525847435
682.0,0.0,0.0,0.0,0.0,0.0,0.0,0.008322703652083874,0.02036675438284874,0.003887306898832321,0.9995748996734619,-0.004457868169993162,0.011749600060284138,0.026317821815609932
683.0,0.0,0.0,0.0,0.0,0.0,0.0,0.002761019393801689,0.022440385073423386,0.01943485252559185,0.9995694160461426,-0.00581448944285512,0.010355731472373009,0.026836087927222252
684.0,0.0,0.0,0.0,0.0,0.0,0.0,0.00013217396917752922,0.029444782063364983,0.05242334306240082,0.9995614886283875,-0.006507806945592165,0.008796721696853638,0.027513233944773674
685.0,0.0,0.0,0.0,0.0,0.0,0.0,0.005603721830993891,0.02339675836265087,0.02049078606069088,0.9995504021644592,-0.006956910714507103,0.00829195138067007,0.02796332724392414
686.0,0.0,0.0,0.0,0.0,0.0,0.0,0.007161966525018215,0.021158039569854736,0.028863536193966866,0.9995821714401245,-0.0072230990044772625,0.007887404412031174,0.026854179799556732
687.0,0.0,0.0,0.0,0.0,0.0,0.0,0.008281032554805279,0.01212789211422205,0.021266654133796692,0.9996029138565063,-0.0069832513108849525,0.007283021230250597,0.02630959078669548
688.0,0.0,0.0,0.0,0.0,0.0,0.0,0.010563082061707973,0.004761862102895975,0.01290078554302454,0.9995728135108948,-0.007370086386799812,0.005153288133442402,0.027802441269159317
689.0,0.0,0.0,0.0,0.0,0.0,0.0,0.009300472214818,0.00028173584723845124,0.019798574969172478,0.9995989799499512,-0.007418969180434942,0.004723069258034229,0.026917273178696632
690.0,0.0,0.0,0.0,0.0,0.0,0.0,0.014093794859945774,-0.005591674707829952,0.0010923071531578898,0.9996412992477417,-0.007598192896693945,0.003790457732975483,0.025397364050149918
691.0,0.0,0.0,0.0,0.0,0.0,0.0,0.0143820159137249,-0.005252229981124401,-0.0006088842055760324,0.9996666312217712,-0.007875227369368076,0.0028192338068038225,0.02442416362464428
692.0,0.0,0.0,0.0,0.0,0.0,0.0,0.006671664770692587,-0.0030415463261306286,0.024393536150455475,0.9996726512908936,-0.007922748103737831,0.0017671645618975163,0.024267321452498436
693.0,0.0,0.0,0.0,0.0,0.0,0.0,0.008546016179025173,-0.0024262373335659504,0.022936010733246803,0.9996713399887085,-0.007727386429905891,0.0009914307156577706,0.024422818794846535
694.0,0.0,0.0,0.0,0.0,0.0,0.0,0.01131948921829462,-0.002520082052797079,-0.0006079095765016973,0.9996729493141174,-0.0070136538706719875,0.000628194073215127,0.024580474942922592
695.0,0.0,0.0,0.0,0.0,0.0,0.0,0.006989666726440191,-0.00521766347810626,0.002600202802568674,0.9996753334999084,-0.0065404814667999744,0.00043503224151208997,0.02462233230471611
696.0,0.0,0.0,0.0,0.0,0.0,0.0,0.004973176866769791,-0.003160456893965602,-0.002211893443018198,0.9996692538261414,-0.00619555963203311,-0.0003332750347908586,0.02496287040412426
697.0,0.0,0.0,0.0,0.0,0.0,0.0,3.6635476135415956e-05,-0.005368860904127359,0.0005347892292775214,0.9996711015701294,-0.005967150442302227,-0.0008145111496560276,0.024927658960223198
698.0,0.0,0.0,0.0,0.0,0.0,0.0,-0.0026203037705272436,-0.0024466614704579115,-0.01550472341477871,0.99966961145401,-0.005563175771385431,-0.0005250585963949561,0.025088796392083168
699.0,0.0,0.0,0.0,0.0,0.0,0.0,-0.006037780083715916,0.005086518358439207,-0.010694455355405807,0.9996615648269653,-0.005008680745959282,-0.0001335822744295001,0.025528667494654655
700.0,0.0,0.0,0.0,0.0,0.0,0.0,-0.009918753989040852,0.008635185658931732,0.00028438636218197644,0.9996643662452698,-0.004653992597013712,0.00022629796876572073,0.025483720004558563
701.0,0.0,0.0,0.0,0.0,0.0,0.0,-0.00891687162220478,0.009013249538838863,-0.01121346652507782,0.9996532797813416,-0.00418433640152216,0.0007044347003102303,0.025986138731241226
702.0,0.0,0.0,0.0,0.0,0.0,0.0,-0.010390769690275192,0.007077808957546949,-0.024686530232429504,0.9996412992477417,-0.0036200012546032667,0.0008100300328806043,0.026522692292928696
703.0,0.0,0.0,0.0,0.0,0.0,0.0,-0.018083130940794945,0.0026280328165739775,-0.022224046289920807,0.9996431469917297,-0.003703430760651827,0.0008139876881614327,0.026443013921380043
704.0,0.0,0.0,0.0,0.0,0.0,0.0,-0.022689254954457283,-0.0037083085626363754,-0.010305731557309628,0.9996417760848999,-0.003902801778167486,0.0006475597037933767,0.02646915428340435
705.0,0.0,0.0,0.0,0.0,0.0,0.0,-0.020082561299204826,-0.003900810144841671,-0.021996451541781425,0.9996309280395508,-0.00417888630181551,0.0004946908447891474,0.02684003859758377
706.0,0.0,0.0,0.0,0.0,0.0,0.0,-0.0173651110380888,0.0031336676329374313,-0.02435462363064289,0.9996219277381897,-0.004264025948941708,0.0005133849335834384,0.027157651260495186
707.0,0.0,0.0,0.0,0.0,0.0,0.0,-0.022943977266550064,0.0011911098845303059,0.00035448389826342463,0.9996429085731506,-0.0027375726494938135,0.0022462650667876005,0.02648424357175827
708.0,0.0,0.0,0.0,0.0,0.0,0.0,-0.025631556287407875,0.0009258913923986256,0.004015667829662561,0.9996578097343445,-0.0026708042714744806,0.0027716094627976418,0.02587338723242283
709.0,0.0,0.0,0.0,0.0,0.0,0.0,-0.028134198859333992,0.005370441358536482,0.019767777994275093,0.9996618032455444,-0.0024113841354846954,0.0032991014886647463,0.025683453306555748
710.0,0.0,0.0,0.0,0.0,0.0,0.0,-0.023328056558966637,0.008322407491505146,-0.0014447494177147746,0.9996576905250549,-0.0017227946082130075,0.0037565079983323812,0.0258353091776371
711.0,0.0,0.0,0.0,0.0,0.0,0.0,-0.012560845352709293,0.006993314251303673,-0.026012826710939407,0.999657928943634,-0.0009775524958968163,0.0045743524096906185,0.025731852278113365
712.0,0.0,0.0,0.0,0.0,0.0,0.0,-0.009618623182177544,0.00921694003045559,-0.02439248003065586,0.9996529221534729,-0.00032417045440524817,0.004375878255814314,0.025973768904805183
713.0,0.0,0.0,0.0,0.0,0.0,0.0,-0.011411407962441444,0.009652700275182724,-0.004116072319447994,0.9996496438980103,0.0005789945716969669,0.004943558946251869,0.025997774675488472
714.0,0.0,0.0,0.0,0.0,0.0,0.0,-0.008704866282641888,0.006807457655668259,-0.003918999806046486,0.9996495842933655,0.0013571195304393768,0.005649068392813206,0.025826292112469673
715.0,0.0,0.0,0.0,0.0,0.0,0.0,-0.007685002870857716,0.008351706899702549,-0.004465577658265829,0.9996518492698669,0.001635560649447143,0.006147028878331184,0.02560858055949211
716.0,0.0,0.0,0.0,0.0,0.0,0.0,0.0013345383340492845,0.015468490310013294,-0.004658388439565897,0.9996456503868103,0.001995360478758812,0.006645174231380224,0.025697672739624977
717.0,0.0,0.0,0.0,0.0,0.0,0.0,0.005576816853135824,0.007496536243706942,-0.01544664241373539,0.9996362924575806,0.0021270860452204943,0.006982312072068453,0.025963813066482544
718.0,0.0,0.0,0.0,0.0,0.0,0.0,0.007303870748728514,0.0006217403570190072,-0.010706889443099499,0.9996322989463806,0.0020349733531475067,0.0069685704074800014,0.026123594492673874
719.0,0.0,0.0,0.0,0.0,0.0,0.0,0.01213899441063404,-0.003358169924467802,-0.012535873800516129,0.9996466636657715,0.0014682126929983497,0.006992531009018421,0.02560364082455635
720.0,0.0,0.0,0.0,0.0,0.0,0.0,0.009893476963043213,-0.007342678494751453,0.003124991664662957,0.9996668696403503,0.0007326020277105272,0.0070255594328045845,0.024825861677527428
721.0,0.0,0.0,0.0,0.0,0.0,0.0,0.007758637890219688,-0.009076219983398914,0.006062551401555538,0.9996856451034546,-8.274430729215965e-05,0.006711701862514019,0.02415844425559044
