,Position_X,Position_Y,Position_Z,Velocity_X,Velocity_Y,Velocity_Z,Acceleration_X,Acceleration_Y,Acceleration_Z,Quaterion_0,Quaterion_1,Quaterion_2,Quaterion_3
51.0,0.0,0.0,0.0,0.0,0.0,0.0,-0.01273549348115921,-0.008039351552724838,0.009267005138099194,1.0,-6.938893903907228e-18,-1.3877787807814457e-17,-2.7755575615628914e-17
52.0,0.0,0.0,0.0,0.0,0.0,0.0,-0.008901485241949558,-0.008973031304776669,0.0024392136838287115,0.999997079372406,-0.0005968997720628977,0.0011909279273822904,-0.002025953261181712
53.0,0.0,0.0,0.0,0.0,0.0,0.0,-0.006755440961569548,-0.008386602625250816,0.0002790811413433403,0.999997079372406,6.719198427163064e-05,0.0013713736552745104,-0.001989565324038267
54.0,0.0,0.0,0.0,0.0,0.0,0.0,-0.007964856922626495,-0.00853616651147604,-0.0023619960993528366,0.9999973177909851,0.0010978869395330548,0.0011869787704199553,-0.0016689395997673273
55.0,0.0,0.0,0.0,0.0,0.0,0.0,-0.006183160934597254,-0.004931445699185133,-0.010268245823681355,0.9999939799308777,0.001403311500325799,0.0019462347263470292,-0.0025073476135730743
56.0,0.0,0.0,0.0,0.0,0.0,0.0,-0.005478431936353445,0.0018892467487603426,-0.012463296763598919,0.9999881386756897,0.0012242118827998638,0.003449364798143506,-0.003206969704478979
57.0,0.0,0.0,0.0,0.0,0.0,0.0,-0.005892646498978138,0.0075418297201395035,-0.009327108971774578,0.999975323677063,0.0017366817919537425,0.005570818204432726,-0.003915892448276281
58.0,0.0,0.0,0.0,0.0,0.0,0.0,-0.005136513151228428,0.014772177673876286,-0.008594531565904617,0.9999666810035706,0.002202503615990281,0.00723143108189106,-0.0030806073918938637
59.0,0.0,0.0,0.0,0.0,0.0,0.0,-0.004926706664264202,0.01752641797065735,-0.009876303374767303,0.9999639987945557,0.003245180007070303,0.007646196521818638,-0.001749123795889318
60.0,0.0,0.0,0.0,0.0,0.0,0.0,0.002402073238044977,0.012878280133008957,-0.01611696183681488,0.9999574422836304,0.003424266818910837,0.008541052229702473,-0.0006849599303677678
61.0,0.0,0.0,0.0,0.0,0.0,0.0,0.022411983460187912,-0.007525196764618158,-0.0486302375793457,0.999954104423523,0.0026758494786918163,0.00919585581868887,0.00011649512453004718
62.0,0.0,0.0,0.0,0.0,0.0,0.0,-0.0014851014129817486,0.023538798093795776,-0.013864043168723583,0.9999753832817078,0.0029264939948916435,0.006248383782804012,0.0012890179641544819
63.0,0.0,0.0,0.0,0.0,0.0,0.0,-0.00038725294871255755,0.014020858332514763,-0.0008124818559736013,0.9999769330024719,0.002803830662742257,0.0052276006899774075,0.003303533885627985
64.0,0.0,0.0,0.0,0.0,0.0,0.0,-0.00602757791057229,0.004199245944619179,0.03263310343027115,0.9999838471412659,0.0023840204812586308,0.0036182694602757692,0.003684721887111664
65.0,0.0,0.0,0.0,0.0,0.0,0.0,-0.0012087461072951555,0.009742237627506256,0.003154715057462454,0.9999817609786987,0.0008827821584418416,0.0050015076994895935,0.0032660961151123047
66.0,0.0,0.0,0.0,0.0,0.0,0.0,-0.0033454596996307373,-0.0005781800136901438,0.01864592172205448,0.9999899864196777,0.0004795696586370468,0.0038374513387680054,0.0022449034731835127
67.0,0.0,0.0,0.0,0.0,0.0,0.0,-0.0020171860232949257,-0.004739929456263781,0.00642652902752161,0.9999877214431763,-5.093280560686253e-05,0.004751179367303848,0.0014261084143072367
68.0,0.0,0.0,0.0,0.0,0.0,0.0,-0.0053167324513196945,-0.008953825570642948,0.0037125633098185062,0.9999882578849792,-0.0006477581337094307,0.004802666138857603,-0.00023353082360699773
69.0,0.0,0.0,0.0,0.0,0.0,0.0,-0.0008696908480487764,-0.0036823174450546503,0.0015971575630828738,0.9999797344207764,-0.0008946911548264325,0.006157189141958952,-0.001350790960714221
70.0,0.0,0.0,0.0,0.0,0.0,0.0,0.0008397173951379955,0.0005331423599272966,0.0004126415587961674,0.999975860118866,-0.0006083539919927716,0.006674009375274181,-0.0018441509455442429
71.0,0.0,0.0,0.0,0.0,0.0,0.0,0.006225041579455137,0.009809814393520355,-0.005237262230366468,0.9999656677246094,-0.0003721062676049769,0.008060934953391552,-0.0018919823924079537
72.0,0.0,0.0,0.0,0.0,0.0,0.0,0.008157267235219479,0.016180504113435745,-0.007759492844343185,0.999958336353302,-0.00017101425328291953,0.008958267979323864,-0.0017505877185612917
73.0,0.0,0.0,0.0,0.0,0.0,0.0,0.012262584641575813,0.0193153228610754,-0.011381874792277813,0.9999629855155945,0.0007590485620312393,0.00853094644844532,-0.0007981205126270652
74.0,0.0,0.0,0.0,0.0,0.0,0.0,0.01276597660034895,0.01863340474665165,-0.007643487770110369,0.999971330165863,0.001547720399685204,0.007407947909086943,0.00024891053908504546
75.0,0.0,0.0,0.0,0.0,0.0,0.0,0.011476077139377594,0.018950628116726875,-0.00411068182438612,0.9999784231185913,0.0017565120942890644,0.006209520623087883,0.001245394698344171
76.0,0.0,0.0,0.0,0.0,0.0,0.0,0.007219175808131695,0.024057283997535706,0.0046022674068808556,0.9999853372573853,0.0014199316501617432,0.004947113338857889,0.0016979567008093
77.0,0.0,0.0,0.0,0.0,0.0,0.0,0.0036845793947577477,0.028911607339978218,0.019636789336800575,0.9999871253967285,0.0002889055176638067,0.004704703111201525,0.0018794697243720293
78.0,0.0,0.0,0.0,0.0,0.0,0.0,0.0017901138635352254,0.03247163072228432,0.020617874339222908,0.9999872446060181,-0.00021773054322693497,0.004515896085649729,0.002246664371341467
79.0,0.0,0.0,0.0,0.0,0.0,0.0,0.002574399346485734,0.03128838911652565,0.0130157470703125,0.9999879002571106,-0.0008151006768457592,0.004361171741038561,0.002138299634680152
80.0,0.0,0.0,0.0,0.0,0.0,0.0,0.0020470665767788887,0.028009455651044846,0.010818264447152615,0.9999880194664001,-0.0008337372564710677,0.003863296005874872,0.002885958179831505
81.0,0.0,0.0,0.0,0.0,0.0,0.0,-0.0015022828010842204,0.02566031739115715,0.010036122985184193,0.9999876022338867,-0.0005289666005410254,0.003294644644483924,0.003688744269311428
82.0,0.0,0.0,0.0,0.0,0.0,0.0,-0.002594767138361931,0.01641356199979782,0.0046753427013754845,0.9999864101409912,-0.000949131092056632,0.0034620393998920918,0.0037789051420986652
83.0,0.0,0.0,0.0,0.0,0.0,0.0,-0.0017533901846036315,0.026201214641332626,-0.0003810140478890389,0.9999800324440002,-0.0007366497884504497,0.0037326181773096323,0.0050502666272223
84.0,0.0,0.0,0.0,0.0,0.0,0.0,-0.00436068419367075,0.03253864869475365,-0.0010893497383221984,0.9999768137931824,0.0001475673052482307,0.003439356107264757,0.00587496068328619
85.0,0.0,0.0,0.0,0.0,0.0,0.0,-0.006505955476313829,0.020372433587908745,-0.0009186119423247874,0.9999731183052063,0.0007965668337419629,0.0032614918891340494,0.0065161013044416904
86.0,0.0,0.0,0.0,0.0,0.0,0.0,-0.005152307916432619,0.019666753709316254,-0.0032609489280730486,0.9999662637710571,0.0014138368424028158,0.0036908509209752083,0.0071997144259512424
87.0,0.0,0.0,0.0,0.0,0.0,0.0,-0.003443371271714568,0.018214944750070572,-0.009238711558282375,0.9999638795852661,0.0020294811110943556,0.003895670175552368,0.007275451440364122
88.0,0.0,0.0,0.0,0.0,0.0,0.0,-0.00477741239592433,0.017442788928747177,-0.009061889722943306,0.9999589323997498,0.0024409436155110598,0.004305562004446983,0.007594203110784292
89.0,0.0,0.0,0.0,0.0,0.0,0.0,-0.0038826337549835443,0.015992550179362297,-0.008682796731591225,0.9999553561210632,0.002988651627674699,0.0039635319262743,0.008036738261580467
90.0,0.0,0.0,0.0,0.0,0.0,0.0,-0.0052767908200621605,0.01182166300714016,-0.006281258072704077,0.999951958656311,0.00404633954167366,0.004026859998703003,0.007967802695930004
91.0,0.0,0.0,0.0,0.0,0.0,0.0,-0.007812031544744968,0.01056157611310482,-0.0020621928852051497,0.9999343156814575,0.004900520201772451,0.004275232087820768,0.009440952911973
92.0,0.0,0.0,0.0,0.0,0.0,0.0,-0.01150360144674778,0.01219817716628313,0.002814702456817031,0.9999227523803711,0.005222999956458807,0.004347882233560085,0.010408718138933182
93.0,0.0,0.0,0.0,0.0,0.0,0.0,-0.010049671865999699,0.013072733767330647,0.000993348308838904,0.9999105930328369,0.005335026886314154,0.0050326017662882805,0.011180849745869637
94.0,0.0,0.0,0.0,0.0,0.0,0.0,0.010893354192376137,-0.009145655669271946,-0.030845630913972855,0.9999029040336609,0.004489519167691469,0.005736473947763443,0.011880607344210148
95.0,0.0,0.0,0.0,0.0,0.0,0.0,0.008418325334787369,0.00034921307815238833,-0.026613779366016388,0.9998994469642639,0.0037356445100158453,0.003323339158669114,0.013268431648612022
96.0,0.0,0.0,0.0,0.0,0.0,0.0,-0.009429456666111946,0.024883797392249107,0.002697433577850461,0.999888002872467,0.003215274540707469,0.001918384456075728,0.014489707536995411
97.0,0.0,0.0,0.0,0.0,0.0,0.0,-0.0041285315528512,-0.0022527005057781935,0.04157520830631256,0.9999060034751892,0.0022939168848097324,1.1455294043116737e-05,0.013516209088265896
98.0,0.0,0.0,0.0,0.0,0.0,0.0,-0.009166011586785316,0.003818279830738902,0.014974629506468773,0.9999130964279175,0.0007820851751603186,0.0012912082020193338,0.013097132556140423
99.0,0.0,0.0,0.0,0.0,0.0,0.0,-0.008031382225453854,0.0014386214315891266,0.023417294025421143,0.9999254941940308,5.843948201800231e-06,-0.0005178365972824395,0.012196640484035015
100.0,0.0,0.0,0.0,0.0,0.0,0.0,-0.014318611472845078,-0.001646525925025344,0.025782248005270958,0.9999242424964905,-0.00044823845382779837,0.00017855192709248513,0.012301662936806679
101.0,0.0,0.0,0.0,0.0,0.0,0.0,-0.009288845583796501,0.0004859155451413244,0.0030801822431385517,0.999933123588562,-0.0002846194547601044,-0.00024615362053737044,0.011561363935470581
102.0,0.0,0.0,0.0,0.0,0.0,0.0,-0.013283142820000648,0.0010043812217190862,0.004678564146161079,0.9999284744262695,-0.00018991374236065894,0.0009404753800481558,0.011921781115233898
103.0,0.0,0.0,0.0,0.0,0.0,0.0,-0.008077701553702354,0.00891178846359253,-0.005937810521572828,0.9999191761016846,0.0009930772939696908,0.0011489527532830834,0.01262161135673523
104.0,0.0,0.0,0.0,0.0,0.0,0.0,-0.004235439468175173,0.011938700452446938,-0.01250618789345026,0.9999150633811951,0.001181030529551208,0.002334889490157366,0.012765759602189064
105.0,0.0,0.0,0.0,0.0,0.0,0.0,-0.003232366871088743,0.014990580268204212,-0.01970513164997101,0.9999107718467712,0.0009647779515944421,0.002537693362683058,0.013079497963190079
106.0,0.0,0.0,0.0,0.0,0.0,0.0,-0.0031240798998624086,0.014920913614332676,-0.013372095301747322,0.9998995661735535,0.0009148154058493674,0.0026091746985912323,0.01389833353459835
107.0,0.0,0.0,0.0,0.0,0.0,0.0,-0.007023532409220934,0.018058685585856438,-0.0061935982666909695,0.9998884797096252,0.0010132770985364914,0.0017642610473558307,0.014793171547353268
108.0,0.0,0.0,0.0,0.0,0.0,0.0,-0.01107110921293497,0.021568017080426216,0.003564851125702262,0.9998883008956909,0.000654948060400784,0.0014895055210217834,0.014858871698379517
109.0,0.0,0.0,0.0,0.0,0.0,0.0,-0.011533412151038647,0.021275479346513748,0.008699891157448292,0.9998928308486938,-0.00036884183646179736,0.0017319695325568318,0.014534058049321175
110.0,0.0,0.0,0.0,0.0,0.0,0.0,-0.0116361603140831,0.019891951233148575,0.0058401948772370815,0.9998874664306641,-0.0005849116714671254,0.0016091745346784592,0.014903917908668518
111.0,0.0,0.0,0.0,0.0,0.0,0.0,-0.011633175425231457,0.017884448170661926,0.004632978700101376,0.9998765587806702,-0.0007560299127362669,0.001233943970873952,0.01564471423625946
112.0,0.0,0.0,0.0,0.0,0.0,0.0,-0.010293758474290371,0.015289686620235443,0.0016183559782803059,0.9998765587806702,-0.0010715469252318144,0.001773806638084352,0.015573536045849323
113.0,0.0,0.0,0.0,0.0,0.0,0.0,-0.007549973204731941,0.01474690344184637,-0.0016780549194663763,0.9998818039894104,-0.001494235941208899,0.0024324285332113504,0.01510663889348507
114.0,0.0,0.0,0.0,0.0,0.0,0.0,-0.008931509219110012,0.015026679262518883,-0.002439431380480528,0.9998688101768494,-0.001189119997434318,0.002195589942857623,0.016005011275410652
115.0,0.0,0.0,0.0,0.0,0.0,0.0,-0.009125620126724243,0.015093612484633923,-0.0034420557785779238,0.9998605847358704,-0.0011845390545204282,0.002483073389157653,0.016469642519950867
116.0,0.0,0.0,0.0,0.0,0.0,0.0,-0.008121967315673828,0.019687026739120483,-0.005442306865006685,0.9998703598976135,-0.002047470072284341,0.0033476015087217093,0.01561453752219677
117.0,0.0,0.0,0.0,0.0,0.0,0.0,-0.011384793557226658,0.01801673322916031,-0.00013773253886029124,0.9998656511306763,-0.0012273938627913594,0.002477744361385703,0.016155771911144257
118.0,0.0,0.0,0.0,0.0,0.0,0.0,-0.008979463949799538,0.008984504267573357,-0.012109908275306225,0.99985671043396,-0.0009616586030460894,0.0022762047592550516,0.0167479757219553
119.0,0.0,0.0,0.0,0.0,0.0,0.0,-0.010251764208078384,0.011827371083199978,-0.0072595952078700066,0.9998531341552734,-0.001329856226220727,0.002142434474080801,0.016950145363807678
120.0,0.0,0.0,0.0,0.0,0.0,0.0,-0.012587527744472027,0.008994705975055695,-8.480921678710729e-05,0.9998347759246826,-0.0005094747175462544,0.0006669576978310943,0.018158812075853348
121.0,0.0,0.0,0.0,0.0,0.0,0.0,-0.014270298182964325,0.0036381029058247805,0.000425630685640499,0.9998274445533752,-0.00011882822582265362,-0.0004999464727006853,0.018567785620689392
122.0,0.0,0.0,0.0,0.0,0.0,0.0,-0.01121005229651928,0.0033246746752411127,0.00022583917598240077,0.9998647570610046,-0.0011070549953728914,0.0007831351831555367,0.016390981152653694
123.0,0.0,0.0,0.0,0.0,0.0,0.0,-0.012680774554610252,0.00042830363963730633,0.0009109719539992511,0.9998798370361328,-0.001039075548760593,0.00205425638705492,0.015330706723034382
124.0,0.0,0.0,0.0,0.0,0.0,0.0,-0.01358445081859827,-0.0009599325130693614,0.004539474379271269,0.9998684525489807,-0.0007689626072533429,0.0023253231775015593,0.016035249456763268
125.0,0.0,0.0,0.0,0.0,0.0,0.0,-0.01211218349635601,0.0014547209721058607,0.00685762008652091,0.9998709559440613,-0.0006082549807615578,0.003095209365710616,0.015750955790281296
126.0,0.0,0.0,0.0,0.0,0.0,0.0,0.0009527775109745562,0.0006451686494983733,-0.0031257127411663532,0.9998677372932434,-0.0009226175025105476,0.00450453907251358,0.01559936348348856
127.0,0.0,0.0,0.0,0.0,0.0,0.0,0.024071702733635902,-0.022798344492912292,-0.055926620960235596,0.9998576641082764,-0.0015829820185899734,0.004574230406433344,0.01616400107741356
128.0,0.0,0.0,0.0,0.0,0.0,0.0,-0.016378292813897133,0.018929509446024895,0.011384186334908009,0.9998554587364197,-0.0006335766520351171,0.0007757487474009395,0.016971636563539505
129.0,0.0,0.0,0.0,0.0,0.0,0.0,0.0033090724609792233,0.012239410541951656,0.0008709168178029358,0.9998438358306885,-0.00045459368266165257,0.000191941115190275,0.01766406185925007
130.0,0.0,0.0,0.0,0.0,0.0,0.0,-0.015430973842740059,-0.0035912515595555305,0.0391581654548645,0.9998620748519897,-0.0008440053788945079,-0.0014616500120609999,0.01652379147708416
131.0,0.0,0.0,0.0,0.0,0.0,0.0,-0.003743011737242341,0.0035592287313193083,-0.007680574897676706,0.9998679757118225,-0.0018307160353288054,5.6778360885800794e-05,0.01614539884030819
132.0,0.0,0.0,0.0,0.0,0.0,0.0,-0.020536763593554497,-0.0025368945207446814,0.024943701922893524,0.9998727440834045,-0.0016011387342587113,-0.0019171852618455887,0.015756938606500626
133.0,0.0,0.0,0.0,0.0,0.0,0.0,-0.010724157094955444,0.0033723304513841867,0.0038713987451046705,0.9998652935028076,-0.0016551330918446183,-0.0004360552702564746,0.01632317528128624
134.0,0.0,0.0,0.0,0.0,0.0,0.0,-0.01372094638645649,0.0026706152129918337,0.0021139325108379126,0.9998589158058167,-0.0006006017210893333,-0.0008146330364979804,0.016766615211963654
135.0,0.0,0.0,0.0,0.0,0.0,0.0,-0.004912305623292923,0.005026193801313639,-0.006372824776917696,0.9998366832733154,0.0005781956133432686,-0.0010755689581856132,0.01802961342036724
136.0,0.0,0.0,0.0,0.0,0.0,0.0,-0.010210748761892319,-0.002267895732074976,-0.006388083100318909,0.9998205900192261,0.0015368300955742598,-0.0021003354340791702,0.01876049116253853
137.0,0.0,0.0,0.0,0.0,0.0,0.0,-0.008324392139911652,-0.006412978284060955,-0.0047642928548157215,0.999805748462677,0.0016610585153102875,-0.0025974756572395563,0.01946653425693512
138.0,0.0,0.0,0.0,0.0,0.0,0.0,-0.009921824559569359,-0.00424257991835475,-0.005900355987250805,0.9997856616973877,0.0021247812546789646,-0.0039456794038414955,0.02021181210875511
139.0,0.0,0.0,0.0,0.0,0.0,0.0,-0.012715283781290054,-0.006295479368418455,0.0014042087132111192,0.9997962713241577,0.0013125949772074819,-0.003713606158271432,0.019795365631580353
140.0,0.0,0.0,0.0,0.0,0.0,0.0,-0.014306431636214256,-0.0028922876808792353,0.009063263423740864,0.9998101592063904,0.0006964495987631381,-0.0036912981886416674,0.019120080396533012
141.0,0.0,0.0,0.0,0.0,0.0,0.0,-0.01692550629377365,-0.0048859985545277596,0.011367615312337875,0.9998134970664978,0.000661958591081202,-0.0038365935906767845,0.018915832042694092
142.0,0.0,0.0,0.0,0.0,0.0,0.0,-0.017228227108716965,-0.0023844726383686066,0.011723640374839306,0.9998356699943542,-0.000645262305624783,-0.0023811752907931805,0.017958858981728554
143.0,0.0,0.0,0.0,0.0,0.0,0.0,-0.014688764698803425,0.005665459670126438,0.006898046936839819,0.9998459815979004,-0.0013963697711005807,-0.0008956218953244388,0.01747259311378002
144.0,0.0,0.0,0.0,0.0,0.0,0.0,-0.013212048448622227,0.006986839231103659,-0.005907335318624973,0.9998174905776978,-0.00030027690809220076,-0.0009109448292292655,0.01907934434711933
145.0,0.0,0.0,0.0,0.0,0.0,0.0,-0.013396765105426311,0.00520239258185029,-0.010988002642989159,0.9997778534889221,0.0011853333562612534,-0.0015063125174492598,0.02098993957042694
146.0,0.0,0.0,0.0,0.0,0.0,0.0,-0.013241840526461601,0.004271233920007944,-0.012139486148953438,0.9997406601905823,0.002953468356281519,-0.0015390515327453613,0.022527795284986496
147.0,0.0,0.0,0.0,0.0,0.0,0.0,-0.016215398907661438,0.009477779269218445,-0.010451015084981918,0.9996927380561829,0.004581937100738287,-0.0012781142722815275,0.024326512590050697
148.0,0.0,0.0,0.0,0.0,0.0,0.0,-0.018690280616283417,0.013940858654677868,-0.008503895252943039,0.9996306300163269,0.005760285537689924,-0.0005536641692742705,0.026553478091955185
149.0,0.0,0.0,0.0,0.0,0.0,0.0,-0.014906704425811768,0.007916698232293129,-0.005646100267767906,0.9995772838592529,0.006106757093220949,0.0014376832405105233,0.02838781848549843
150.0,0.0,0.0,0.0,0.0,0.0,0.0,-0.01100911758840084,0.009373784996569157,-0.017090963199734688,0.9995368719100952,0.005688766948878765,0.004761367104947567,0.029512396082282066
151.0,0.0,0.0,0.0,0.0,0.0,0.0,-0.008193811401724815,0.01466125063598156,-0.018986469134688377,0.9994867444038391,0.0055520543828606606,0.007797309197485447,0.030571216717362404
152.0,0.0,0.0,0.0,0.0,0.0,0.0,-0.009237478487193584,0.020603330805897713,-0.011720933951437473,0.9994401931762695,0.005367550998926163,0.00982761476188898,0.031526342034339905
153.0,0.0,0.0,0.0,0.0,0.0,0.0,-0.011912574991583824,0.019791655242443085,-0.006119747180491686,0.9993733763694763,0.005616790149360895,0.010164424777030945,0.033437684178352356
154.0,0.0,0.0,0.0,0.0,0.0,0.0,-0.01020925771445036,0.01707439310848713,-0.006025660317391157,0.999328076839447,0.005382045172154903,0.00983317568898201,0.03489622846245766
155.0,0.0,0.0,0.0,0.0,0.0,0.0,-0.01196017861366272,0.017332905903458595,-0.00067876186221838,0.9993042945861816,0.004525633994489908,0.009169933386147022,0.03586599603295326
156.0,0.0,0.0,0.0,0.0,0.0,0.0,-0.013204964809119701,0.01843271590769291,0.0035027412232011557,0.9992586374282837,0.004226606339216232,0.007781737484037876,0.03746546432375908
157.0,0.0,0.0,0.0,0.0,0.0,0.0,-0.018082527443766594,0.022236445918679237,0.013292022980749607,0.9992320537567139,0.004114544950425625,0.00568454060703516,0.03855040669441223
158.0,0.0,0.0,0.0,0.0,0.0,0.0,-0.030303502455353737,0.02957983687520027,0.029770219698548317,0.999184250831604,0.004133584443479776,0.004100672900676727,0.03996143490076065
159.0,0.0,0.0,0.0,0.0,0.0,0.0,-0.02644648402929306,0.02528606727719307,0.023508472368121147,0.9991488456726074,0.004321720916777849,0.0033411586191505194,0.04088792949914932
160.0,0.0,0.0,0.0,0.0,0.0,0.0,-0.025081196799874306,0.021412039175629616,0.012155745178461075,0.999115526676178,0.004750443622469902,0.00343448668718338,0.041639793664216995
161.0,0.0,0.0,0.0,0.0,0.0,0.0,-0.026935767382383347,0.027077503502368927,0.020483417436480522,0.9990489482879639,0.006114412564784288,0.0034065376967191696,0.04303719103336334
162.0,0.0,0.0,0.0,0.0,0.0,0.0,-0.027407975867390633,0.0300857312977314,0.026483889669179916,0.9989656209945679,0.008036840707063675,0.0037253929767757654,0.04460101202130318
163.0,0.0,0.0,0.0,0.0,0.0,0.0,-0.01318172737956047,0.01661904715001583,0.002122039906680584,0.9988723397254944,0.009123237803578377,0.0065260413102805614,0.046133872121572495
164.0,0.0,0.0,0.0,0.0,0.0,0.0,0.007404682692140341,0.0045663733035326,-0.021779736503958702,0.9988336563110352,0.00967097096145153,0.00869918055832386,0.046501267701387405
165.0,0.0,0.0,0.0,0.0,0.0,0.0,0.0002242618502350524,0.0067096613347530365,0.005972898565232754,0.9988074898719788,0.010078966617584229,0.009319648146629333,0.04685123637318611
166.0,0.0,0.0,0.0,0.0,0.0,0.0,0.00984745379537344,0.0028860894963145256,-0.0023330978583544493,0.9987694621086121,0.010572289116680622,0.010579557158052921,0.047285474836826324
167.0,0.0,0.0,0.0,0.0,0.0,0.0,0.0136586157605052,-0.0046655768528580666,-0.010924415662884712,0.998704195022583,0.011682238429784775,0.010607925243675709,0.04838627949357033
168.0,0.0,0.0,0.0,0.0,0.0,0.0,0.01316898874938488,-0.003980599343776703,-0.012186038307845592,0.9985908269882202,0.013716425746679306,0.009485282003879547,0.05038117989897728
169.0,0.0,0.0,0.0,0.0,0.0,0.0,0.002335533034056425,-0.012329769320786,0.001123912981711328,0.9984810948371887,0.015580783598124981,0.008236667141318321,0.05219799280166626
170.0,0.0,0.0,0.0,0.0,0.0,0.0,-0.002944865031167865,-0.007981039583683014,0.015278120525181293,0.9983733296394348,0.016624564304947853,0.008554750122129917,0.053861696273088455
171.0,0.0,0.0,0.0,0.0,0.0,0.0,-0.010250198654830456,-0.011026117019355297,0.011245752684772015,0.9982516169548035,0.01820114254951477,0.008522002957761288,0.055586110800504684
172.0,0.0,0.0,0.0,0.0,0.0,0.0,-0.0032948923762887716,-0.01776261255145073,-0.010899700224399567,0.9981808662414551,0.0191756933927536,0.010309835895895958,0.0562206506729126
173.0,0.0,0.0,0.0,0.0,0.0,0.0,0.0029281158931553364,-0.019172267988324165,-0.036478009074926376,0.998187780380249,0.019309507682919502,0.012424125336110592,0.0556236207485199
174.0,0.0,0.0,0.0,0.0,0.0,0.0,0.0036238774191588163,-0.02277732454240322,-0.04283556714653969,0.9981417059898376,0.019792037084698677,0.014370190910995007,0.0558101087808609
175.0,0.0,0.0,0.0,0.0,0.0,0.0,0.007814276963472366,-0.03140631318092346,-0.05772968381643295,0.9979960322380066,0.020823029801249504,0.015287214890122414,0.05776307359337807
176.0,0.0,0.0,0.0,0.0,0.0,0.0,0.006935602519661188,-0.024154528975486755,-0.05558403208851814,0.9979093670845032,0.021114952862262726,0.01576831005513668,0.059012386947870255
177.0,0.0,0.0,0.0,0.0,0.0,0.0,0.005326199810951948,-0.012136233039200306,-0.048297859728336334,0.9979562759399414,0.020525269210338593,0.016232304275035858,0.05829906091094017
178.0,0.0,0.0,0.0,0.0,0.0,0.0,0.0011499550892040133,-0.0041062477976083755,-0.02850079908967018,0.9979729056358337,0.02020278386771679,0.0160638689994812,0.05817117169499397
179.0,0.0,0.0,0.0,0.0,0.0,0.0,-0.003897974034771323,0.005882681347429752,-0.021956568583846092,0.9979979395866394,0.019671393558382988,0.015897346660494804,0.05796978622674942
180.0,0.0,0.0,0.0,0.0,0.0,0.0,-0.01265367679297924,0.015021858736872673,-0.006060940213501453,0.9980254173278809,0.018782706931233406,0.015535795129835606,0.05788949131965637
181.0,0.0,0.0,0.0,0.0,0.0,0.0,-0.015929272398352623,0.01592838205397129,0.0002639729354996234,0.9980409741401672,0.01764330081641674,0.014913051389157772,0.05814207345247269
182.0,0.0,0.0,0.0,0.0,0.0,0.0,-0.024271845817565918,0.019946634769439697,0.009156537242233753,0.9981075525283813,0.016295969486236572,0.014338512904942036,0.05753431096673012
183.0,0.0,0.0,0.0,0.0,0.0,0.0,-0.020724747329950333,0.018899209797382355,0.004820290021598339,0.9982037544250488,0.014074476435780525,0.015001213178038597,0.05626826733350754
184.0,0.0,0.0,0.0,0.0,0.0,0.0,-0.01719236746430397,0.013995368964970112,0.007494549732655287,0.9982969164848328,0.012231919914484024,0.01468819472938776,0.05511673539876938
185.0,0.0,0.0,0.0,0.0,0.0,0.0,-0.014345521107316017,0.003379964269697666,0.012093464843928814,0.9984149932861328,0.010268911719322205,0.015420272015035152,0.053144313395023346
186.0,0.0,0.0,0.0,0.0,0.0,0.0,-0.0019319056300446391,0.0010846912628039718,-0.0006329604075290263,0.9985507130622864,0.007884307764470577,0.017026662826538086,0.05044164881110191
187.0,0.0,0.0,0.0,0.0,0.0,0.0,0.0006530676619149745,-0.0067089637741446495,-0.00464644655585289,0.9986798763275146,0.005866152234375477,0.018463745713233948,0.04757676646113396
188.0,0.0,0.0,0.0,0.0,0.0,0.0,0.00774969020858407,-0.009685710072517395,-0.009958421811461449,0.9987406134605408,0.0044914958998560905,0.019281873479485512,0.04610089957714081
189.0,0.0,0.0,0.0,0.0,0.0,0.0,0.012323788367211819,-0.01686260476708412,-0.013485624454915524,0.9987338781356812,0.0035990255419164896,0.019679708406329155,0.04615709185600281
190.0,0.0,0.0,0.0,0.0,0.0,0.0,0.01777004636824131,-0.0211300328373909,-0.01997125893831253,0.998748779296875,0.002269003540277481,0.020248668268322945,0.04567161574959755
191.0,0.0,0.0,0.0,0.0,0.0,0.0,0.02693461999297142,-0.024185465648770332,-0.022357622161507607,0.9987803101539612,-0.000863719149492681,0.021276375278830528,0.044550005346536636
192.0,0.0,0.0,0.0,0.0,0.0,0.0,0.01560045126825571,-0.011719826608896255,-0.0020897507201880217,0.9988232851028442,-0.0035371549893170595,0.0201758723706007,0.04396531730890274
193.0,0.0,0.0,0.0,0.0,0.0,0.0,0.002044893568381667,0.006799745839089155,0.020258896052837372,0.9989538192749023,-0.00692558940500021,0.021562539041042328,0.03973027318716049
194.0,0.0,0.0,0.0,0.0,0.0,0.0,0.00334025826305151,0.021226530894637108,0.00887737050652504,0.9990833401679993,-0.010760257951915264,0.02489224448800087,0.0331258662045002
195.0,0.0,0.0,0.0,0.0,0.0,0.0,-0.011122005060315132,0.04004210606217384,0.03834252059459686,0.9992210268974304,-0.011697203852236271,0.023241478949785233,0.029666272923350334
196.0,0.0,0.0,0.0,0.0,0.0,0.0,-0.006421801168471575,0.0075019346550107,0.04080331325531006,0.9992793798446655,-0.013540553860366344,0.023208918049931526,0.026814604178071022
197.0,0.0,0.0,0.0,0.0,0.0,0.0,0.015674451366066933,-0.012180592864751816,0.018235528841614723,0.9993650317192078,-0.015534183010458946,0.022270862013101578,0.02307453192770481
198.0,0.0,0.0,0.0,0.0,0.0,0.0,-0.000633911055047065,-0.008487063460052013,0.040074460208415985,0.9994498491287231,-0.01666095107793808,0.021412374451756477,0.01908908784389496
199.0,0.0,0.0,0.0,0.0,0.0,0.0,-0.00562443258240819,0.008126026950776577,0.04825940728187561,0.9994665384292603,-0.017865212634205818,0.02191249094903469,0.016327695921063423
200.0,0.0,0.0,0.0,0.0,0.0,0.0,-0.011510114185512066,0.005092262756079435,0.07845576852560043,0.9994955062866211,-0.018367579206824303,0.02201080694794655,0.013680838979780674
201.0,0.0,0.0,0.0,0.0,0.0,0.0,0.02809947170317173,-0.01985875703394413,0.014048135839402676,0.9994737505912781,-0.018678709864616394,0.02303413115441799,0.013153484091162682
202.0,0.0,0.0,0.0,0.0,0.0,0.0,0.05178048834204674,-0.022651758044958115,-0.03062870167195797,0.9995375871658325,-0.019103774800896645,0.02006717212498188,0.012540046125650406
203.0,0.0,0.0,0.0,0.0,0.0,0.0,0.01345883496105671,-0.0028131993021816015,0.028888311237096786,0.9996427893638611,-0.01903483085334301,0.014899694360792637,0.011417401023209095
204.0,0.0,0.0,0.0,0.0,0.0,0.0,0.01620839349925518,0.007167614996433258,0.01898999698460102,0.9997033476829529,-0.019041236490011215,0.011448100209236145,0.009992479346692562
205.0,0.0,0.0,0.0,0.0,0.0,0.0,0.02052861452102661,0.016276974231004715,0.02481100521981716,0.9997873902320862,-0.01684841699898243,0.005430318880826235,0.010593202896416187
206.0,0.0,0.0,0.0,0.0,0.0,0.0,-0.003040456911548972,0.012045427225530148,0.02730712853372097,0.9998301267623901,-0.011589216068387032,-0.0035115948412567377,0.0138784134760499
207.0,0.0,0.0,0.0,0.0,0.0,0.0,-0.011878804303705692,-0.011158925481140614,0.03978029638528824,0.999798059463501,-0.009197007864713669,-0.00826218631118536,0.01584436558187008
208.0,0.0,0.0,0.0,0.0,0.0,0.0,-0.010215186513960361,-0.0029342705383896828,0.042921729385852814,0.9997287392616272,-0.006955933757126331,-0.01330945547670126,0.017796611413359642
209.0,0.0,0.0,0.0,0.0,0.0,0.0,-0.0031530209816992283,-0.04659252613782883,0.052611514925956726,0.9996335506439209,-0.00484462408348918,-0.0172805804759264,0.020285600796341896
210.0,0.0,0.0,0.0,0.0,0.0,0.0,0.04090256989002228,-0.06299663335084915,0.03202127292752266,0.9995754957199097,-0.003854136448353529,-0.015691841021180153,0.024242738261818886
211.0,0.0,0.0,0.0,0.0,0.0,0.0,0.02969587780535221,-0.004767865873873234,0.027505192905664444,0.9994908571243286,-0.0015362389385700226,-0.015750156715512276,0.027708791196346283
212.0,0.0,0.0,0.0,0.0,0.0,0.0,0.01987576112151146,0.0038208418991416693,0.0315077044069767,0.9994602799415588,0.0009728664881549776,-0.01436688657850027,0.029530242085456848
213.0,0.0,0.0,0.0,0.0,0.0,0.0,0.02953578531742096,-0.015040126629173756,-0.0012079774169251323,0.9994581937789917,0.0038276268169283867,-0.013232396915555,0.029894117265939713
214.0,0.0,0.0,0.0,0.0,0.0,0.0,0.021403895691037178,-0.01805344969034195,-0.0009815519442781806,0.9994622468948364,0.00626944936811924,-0.011733368039131165,0.029966268688440323
215.0,0.0,0.0,0.0,0.0,0.0,0.0,0.013443699106574059,-0.021567609161138535,-0.01370368991047144,0.9995027780532837,0.0076501090079545975,-0.009667943231761456,0.02902788482606411
216.0,0.0,0.0,0.0,0.0,0.0,0.0,0.013707994483411312,-0.024614984169602394,-0.03834919631481171,0.9995667338371277,0.008632495068013668,-0.008176218718290329,0.026923073455691338
217.0,0.0,0.0,0.0,0.0,0.0,0.0,0.0034576153848320246,-0.010206038132309914,-0.030395925045013428,0.9996200799942017,0.009920913726091385,-0.007125203963369131,0.02470887266099453
218.0,0.0,0.0,0.0,0.0,0.0,0.0,0.005044401157647371,0.040133967995643616,-0.029324498027563095,0.9996792078018188,0.011059758253395557,-0.004906291142106056,0.022250402718782425
219.0,0.0,0.0,0.0,0.0,0.0,0.0,0.015192907303571701,0.03573834151029587,-0.03406349569559097,0.9997439384460449,0.012533796019852161,-0.004358659964054823,0.018331049010157585
220.0,0.0,0.0,0.0,0.0,0.0,0.0,0.01899692416191101,-0.01728036440908909,-0.02684696577489376,0.9998189210891724,0.012381487525999546,-0.003982591442763805,0.013892465271055698
221.0,0.0,0.0,0.0,0.0,0.0,0.0,0.00641165254637599,-0.01430828683078289,-0.00044504282413981855,0.999880850315094,0.01149662584066391,-0.004057728685438633,0.009464927949011326
222.0,0.0,0.0,0.0,0.0,0.0,0.0,-0.00794956274330616,-0.004974886309355497,0.0075947134755551815,0.9999224543571472,0.009342662058770657,-0.00149657076690346,0.008122418075799942
223.0,0.0,0.0,0.0,0.0,0.0,0.0,-0.007667467929422855,0.018755542114377022,0.0009300723904743791,0.9999406933784485,0.007636029273271561,-1.2111217984056566e-05,0.007767690345644951
224.0,0.0,0.0,0.0,0.0,0.0,0.0,0.00455325935035944,-0.0017218108987435699,-0.012862242758274078,0.9999517798423767,0.006183830555528402,0.0016653933562338352,0.007466860115528107
225.0,0.0,0.0,0.0,0.0,0.0,0.0,0.02725043334066868,-0.012097702361643314,-0.03256772458553314,0.9999570250511169,0.004256340209394693,0.001336350804194808,0.008144923485815525
226.0,0.0,0.0,0.0,0.0,0.0,0.0,0.0041159577667713165,-0.00025832102983258665,-0.029209451749920845,0.9999553561210632,0.002745268400758505,-0.0004040636704303324,0.009050380438566208
227.0,0.0,0.0,0.0,0.0,0.0,0.0,-0.022449709475040436,0.011430454440414906,0.00514342961832881,0.9999350905418396,0.002401942852884531,-0.003058849833905697,0.010725623928010464
228.0,0.0,0.0,0.0,0.0,0.0,0.0,-0.02478168159723282,0.013740001246333122,0.013341672718524933,0.9999271631240845,0.0017953745555132627,-0.003985757939517498,0.011264010332524776
229.0,0.0,0.0,0.0,0.0,0.0,0.0,-0.024513868615031242,0.01053677685558796,0.024160606786608696,0.999923050403595,0.002103080041706562,-0.004857188556343317,0.011229477822780609
230.0,0.0,0.0,0.0,0.0,0.0,0.0,-0.02388017624616623,0.0073409304022789,0.02283543162047863,0.9999229907989502,0.002525318181142211,-0.004022206645458937,0.011471879668533802
231.0,0.0,0.0,0.0,0.0,0.0,0.0,-0.014866498298943043,0.006215889472514391,0.012014842592179775,0.999940037727356,0.0026961362455040216,-0.002069655107334256,0.010413305833935738
232.0,0.0,0.0,0.0,0.0,0.0,0.0,-0.012276547029614449,0.003079046495258808,0.0028522773645818233,0.9999505281448364,0.0029259028378874063,-0.00018537657160777599,0.009506698697805405
233.0,0.0,0.0,0.0,0.0,0.0,0.0,-0.001581439282745123,0.00015030398208182305,-0.022347362712025642,0.9999528527259827,0.0033114219550043344,0.0014943884452804923,0.009003948420286179
234.0,0.0,0.0,0.0,0.0,0.0,0.0,-0.008350721560418606,0.001537531497888267,-0.0069618853740394115,0.9999492764472961,0.0044100405648350716,0.0018694918835535645,0.008863089606165886
235.0,0.0,0.0,0.0,0.0,0.0,0.0,-0.005244196858257055,0.004578903317451477,-0.0157467033714056,0.9999445676803589,0.004943135194480419,0.003555246163159609,0.008582362905144691
236.0,0.0,0.0,0.0,0.0,0.0,0.0,-0.008198636583983898,0.005028108600527048,-0.025118600577116013,0.9999385476112366,0.005820068530738354,0.004262110218405724,0.008435741998255253
237.0,0.0,0.0,0.0,0.0,0.0,0.0,-0.01576114073395729,0.005077076610177755,-0.014361957088112831,0.9999166131019592,0.007267566863447428,0.004630021285265684,0.00961602758616209
238.0,0.0,0.0,0.0,0.0,0.0,0.0,-0.0113852359354496,0.005064075812697411,-0.015802601352334023,0.9998931884765625,0.00798287708312273,0.005806481000036001,0.010783939622342587
239.0,0.0,0.0,0.0,0.0,0.0,0.0,-0.002457844791933894,0.002761871088296175,-0.024167541414499283,0.9998565316200256,0.008775224909186363,0.006334182806313038,0.013034239411354065
240.0,0.0,0.0,0.0,0.0,0.0,0.0,0.001622449024580419,-0.0016022146446630359,-0.024971723556518555,0.9997760653495789,0.010369081981480122,0.005177783779799938,0.0177103690803051
241.0,0.0,0.0,0.0,0.0,0.0,0.0,-0.0020776025485247374,0.014927471056580544,-0.024096738547086716,0.9996655583381653,0.012075585313141346,0.004283057991415262,0.022461213171482086
242.0,0.0,0.0,0.0,0.0,0.0,0.0,-0.010112064890563488,0.019704638049006462,-0.02587272971868515,0.9995824098587036,0.012489572167396545,0.0051108840852975845,0.025550127029418945
243.0,0.0,0.0,0.0,0.0,0.0,0.0,-0.011272457428276539,0.009968345984816551,-0.02202107198536396,0.9995143413543701,0.012815394438803196,0.004862109199166298,0.02799055725336075
244.0,0.0,0.0,0.0,0.0,0.0,0.0,-0.013891483657062054,0.0038159594405442476,-0.012842083349823952,0.999441921710968,0.012791727669537067,0.005256752949208021,0.03041430376470089
245.0,0.0,0.0,0.0,0.0,0.0,0.0,-0.008391295559704304,-0.004880743101239204,-0.006652802228927612,0.9994189739227295,0.011756659485399723,0.0066584451124072075,0.0312860831618309
246.0,0.0,0.0,0.0,0.0,0.0,0.0,-0.004324780311435461,-0.007045839447528124,-0.004956149961799383,0.9994186758995056,0.010015510953962803,0.008528032340109348,0.03146025538444519
247.0,0.0,0.0,0.0,0.0,0.0,0.0,0.005412662401795387,-0.005821153987199068,-0.006306731142103672,0.9994118213653564,0.008484926074743271,0.009760703891515732,0.031764037907123566
248.0,0.0,0.0,0.0,0.0,0.0,0.0,0.009090662933886051,-0.011452272534370422,-0.0027812421321868896,0.9994034171104431,0.007787737995386124,0.010413570329546928,0.03199963644146919
249.0,0.0,0.0,0.0,0.0,0.0,0.0,0.01443182211369276,-0.01659548468887806,-0.006828845012933016,0.999397337436676,0.006666706409305334,0.011555230244994164,0.03205043449997902
250.0,0.0,0.0,0.0,0.0,0.0,0.0,0.006793868727982044,-0.007136214058846235,0.004777489695698023,0.9994003176689148,0.005933144595474005,0.01092713326215744,0.03232481703162193
251.0,0.0,0.0,0.0,0.0,0.0,0.0,0.005723924376070499,-0.013530510477721691,0.016011754050850868,0.9994163513183594,0.004640472121536732,0.010353651829063892,0.03222312405705452
252.0,0.0,0.0,0.0,0.0,0.0,0.0,0.019088590517640114,-0.016205282881855965,0.009822406806051731,0.9994794726371765,0.0029551666229963303,0.0103609012439847,0.03040945716202259
253.0,0.0,0.0,0.0,0.0,0.0,0.0,0.020847829058766365,-0.007499970030039549,0.00017501892580185086,0.9995943307876587,0.0021295370534062386,0.008644338697195053,0.027066925540566444
254.0,0.0,0.0,0.0,0.0,0.0,0.0,-0.0035682073794305325,-0.002646596636623144,0.03445267677307129,0.9997119307518005,0.002513581421226263,0.005304244812577963,0.023282064124941826
255.0,0.0,0.0,0.0,0.0,0.0,0.0,-0.00836317241191864,-0.0092085562646389,0.06687279045581818,0.9998050332069397,0.0028238706290721893,0.003404986346140504,0.019252434372901917
256.0,0.0,0.0,0.0,0.0,0.0,0.0,0.0033745388500392437,-0.01352157536894083,0.0650586187839508,0.9998512268066406,0.0031641190871596336,0.0023946461733430624,0.016800101846456528
257.0,0.0,0.0,0.0,0.0,0.0,0.0,0.021145284175872803,-0.01188896968960762,0.02997387759387493,0.9998657703399658,0.003954274579882622,0.001953033497557044,0.015781652182340622
258.0,0.0,0.0,0.0,0.0,0.0,0.0,0.026230718940496445,-0.010235480964183807,0.01094687357544899,0.9998622536659241,0.005173400975763798,-1.62198757607257e-05,0.01577199622988701
259.0,0.0,0.0,0.0,0.0,0.0,0.0,0.01895924285054207,-0.002695140428841114,0.014150166884064674,0.9998655915260315,0.005855743773281574,-0.0012966206995770335,0.015270400792360306
260.0,0.0,0.0,0.0,0.0,0.0,0.0,0.008533401414752007,0.003121394896879792,0.024613896384835243,0.9998617172241211,0.007068771403282881,-0.002549761673435569,0.014852199703454971
261.0,0.0,0.0,0.0,0.0,0.0,0.0,0.01335478387773037,0.002017447492107749,0.006864338181912899,0.9998725056648254,0.007809328846633434,-0.0020099524408578873,0.013805277645587921
262.0,0.0,0.0,0.0,0.0,0.0,0.0,0.019131537526845932,-0.0002809758298099041,0.0004745537298731506,0.9999086260795593,0.007661232724785805,-0.0014211947564035654,0.011068006977438927
263.0,0.0,0.0,0.0,0.0,0.0,0.0,0.015184896998107433,-0.010716606862843037,0.006898192688822746,0.9999401569366455,0.006843273062258959,-0.00021157214359845966,0.008520948700606823
264.0,0.0,0.0,0.0,0.0,0.0,0.0,0.027993498370051384,-0.012986669316887856,-0.008087816648185253,0.9999629855155945,0.006129858084022999,0.0013075685128569603,0.005904943682253361
265.0,0.0,0.0,0.0,0.0,0.0,0.0,0.018263062462210655,-0.01392956729978323,-0.004747121129184961,0.9999731779098511,0.005538570694625378,0.0017803842201828957,0.0044692037627100945
266.0,0.0,0.0,0.0,0.0,0.0,0.0,0.014376021921634674,-0.005661428906023502,-0.0007211742922663689,0.9999713897705078,0.005428725387901068,0.0018968888325616717,0.004909425508230925
267.0,0.0,0.0,0.0,0.0,0.0,0.0,0.0015295498305931687,0.003048525657504797,0.014169723726809025,0.9999687075614929,0.005694606341421604,0.0021970649249851704,0.00504172733053565
268.0,0.0,0.0,0.0,0.0,0.0,0.0,0.017524803057312965,-0.004889500793069601,-0.025007206946611404,0.999966561794281,0.005225118715316057,0.004724879749119282,0.004226531833410263
269.0,0.0,0.0,0.0,0.0,0.0,0.0,0.014714231714606285,6.645725079579279e-05,-0.005388881545513868,0.9999675750732422,0.005366982892155647,0.005039725452661514,0.003271352732554078
270.0,0.0,0.0,0.0,0.0,0.0,0.0,0.01219597365707159,-0.0008801114745438099,-0.007296305149793625,0.9999588131904602,0.005512278527021408,0.006659307982772589,0.002701888093724847
271.0,0.0,0.0,0.0,0.0,0.0,0.0,0.0078032007440924644,-0.0006900381413288414,-0.011860739439725876,0.9999570250511169,0.006179793272167444,0.0063606444746255875,0.002705666935071349
272.0,0.0,0.0,0.0,0.0,0.0,0.0,0.0018977903528138995,-0.004071027506142855,0.010011623613536358,0.999948263168335,0.006856799591332674,0.007078819442540407,0.002492340048775077
273.0,0.0,0.0,0.0,0.0,0.0,0.0,0.018358390778303146,-0.011595912277698517,-0.01650352217257023,0.9999377727508545,0.006935183424502611,0.008537045679986477,0.00186357949860394
274.0,0.0,0.0,0.0,0.0,0.0,0.0,0.012321055866777897,-0.008710513822734356,-0.007335434202104807,0.9999364614486694,0.0069845025427639484,0.008706067688763142,0.0017893777694553137
275.0,0.0,0.0,0.0,0.0,0.0,0.0,0.01864122413098812,-0.00939879473298788,-0.00564994290471077,0.9999346137046814,0.0066803800873458385,0.009081026539206505,0.001934341387823224
276.0,0.0,0.0,0.0,0.0,0.0,0.0,0.018963342532515526,-0.009228608570992947,-0.003740184009075165,0.9999450445175171,0.006041698157787323,0.00845339149236679,0.0014599293936043978
277.0,0.0,0.0,0.0,0.0,0.0,0.0,0.014047900214791298,-0.004481535870581865,0.00663534551858902,0.9999569058418274,0.005206056404858828,0.007675132714211941,0.0006251864833757281
278.0,0.0,0.0,0.0,0.0,0.0,0.0,0.00833718478679657,-0.002871281933039427,0.012042010203003883,0.999965488910675,0.0049209436401724815,0.006708479952067137,0.00036243931390345097
279.0,0.0,0.0,0.0,0.0,0.0,0.0,0.0067049600183963776,-0.00024182918423321098,0.015070844441652298,0.9999697804450989,0.005680575501173735,0.005121842958033085,0.0013950469437986612
280.0,0.0,0.0,0.0,0.0,0.0,0.0,0.0023245338816195726,0.00029303025803528726,0.020492032170295715,0.9999682903289795,0.006572175770998001,0.0036088593769818544,0.0027121608145534992
281.0,0.0,0.0,0.0,0.0,0.0,0.0,0.004072107840329409,-0.005902536679059267,0.012242176569998264,0.9999659657478333,0.007314078044146299,0.002397817326709628,0.003024511970579624
282.0,0.0,0.0,0.0,0.0,0.0,0.0,0.008671954274177551,-0.011471194215118885,0.009192297235131264,0.9999627470970154,0.007965438067913055,0.001853278954513371,0.0027858028188347816
283.0,0.0,0.0,0.0,0.0,0.0,0.0,0.005425968207418919,-0.009854118339717388,0.012449872680008411,0.9999681711196899,0.007944620214402676,0.0007735909312032163,0.0002824308758135885
284.0,0.0,0.0,0.0,0.0,0.0,0.0,0.0019474213477224112,-0.012344772927463055,0.01437054481357336,0.999965250492096,0.00831584818661213,0.0006546794320456684,2.1497527995961718e-05
285.0,0.0,0.0,0.0,0.0,0.0,0.0,0.012026190757751465,-0.01748168095946312,-0.0026878979988396168,0.9999629855155945,0.008581182919442654,0.0007726042531430721,-0.00033084096503444016
286.0,0.0,0.0,0.0,0.0,0.0,0.0,0.011351537890732288,-0.02141623944044113,-0.004000083077698946,0.9999648332595825,0.008375369943678379,0.0003224777465220541,-0.00048134379903785884
287.0,0.0,0.0,0.0,0.0,0.0,0.0,0.005202055908739567,-0.019881034269928932,0.009744997136294842,0.9999634623527527,0.008491656742990017,-0.0011400972725823522,2.286232302139979e-05
288.0,0.0,0.0,0.0,0.0,0.0,0.0,0.00032497738720849156,-0.020700037479400635,0.01633831113576889,0.9999686479568481,0.00758622121065855,-0.002230131532996893,-0.00041930621955543756
289.0,0.0,0.0,0.0,0.0,0.0,0.0,0.007132081780582666,-0.021169617772102356,-0.008434738032519817,0.9999766945838928,0.005887489765882492,-0.002838362706825137,-0.002022156259045005
290.0,0.0,0.0,0.0,0.0,0.0,0.0,-0.010739076882600784,-0.01393757201731205,0.012328099459409714,0.9999741315841675,0.004781357478350401,-0.004352671559900045,-0.00317661021836102
291.0,0.0,0.0,0.0,0.0,0.0,0.0,-0.01277940347790718,-0.009026655927300453,0.013375047594308853,0.9999756813049316,0.0038949402514845133,-0.0037356684915721416,-0.004394089337438345
292.0,0.0,0.0,0.0,0.0,0.0,0.0,-0.026851030066609383,0.008448825217783451,0.03662281110882759,0.9999655485153198,0.005443624220788479,-0.005471000913530588,-0.0031143054366111755
293.0,0.0,0.0,0.0,0.0,0.0,0.0,-0.018764430657029152,0.0014236237620934844,0.02787930704653263,0.9999268054962158,0.009039494208991528,-0.00788572896271944,0.0016703063156455755
294.0,0.0,0.0,0.0,0.0,0.0,0.0,-0.01982799358665943,-0.021054718643426895,0.003238626755774021,0.999910295009613,0.010716641321778297,-0.006790416315197945,0.00430230563506484
295.0,0.0,0.0,0.0,0.0,0.0,0.0,0.02140842378139496,-0.04083072766661644,-0.03781469538807869,0.999930202960968,0.010227651335299015,-0.004861516412347555,0.003361022798344493
296.0,0.0,0.0,0.0,0.0,0.0,0.0,-0.00834625493735075,-0.014337832108139992,0.016223523765802383,0.9998825192451477,0.01232464425265789,-0.008610310964286327,0.0030306035187095404
297.0,0.0,0.0,0.0,0.0,0.0,0.0,-0.03231367468833923,5.461723048938438e-05,0.07323592901229858,0.9998815655708313,0.013582550920546055,-0.006547538563609123,0.003093237057328224
298.0,0.0,0.0,0.0,0.0,0.0,0.0,0.005963569972664118,-0.013564981520175934,0.0036751898005604744,0.9999021291732788,0.01352730393409729,-0.0028089405968785286,0.002168043749406934
299.0,0.0,0.0,0.0,0.0,0.0,0.0,0.0009149122051894665,0.0023950592149049044,-0.0035221197176724672,0.9998835325241089,0.014928868040442467,-0.00216001202352345,0.002328126458451152
300.0,0.0,0.0,0.0,0.0,0.0,0.0,0.011275572702288628,-0.008328279480338097,-0.005079629365354776,0.999873161315918,0.0156717412173748,-3.344537617522292e-05,0.0028432251419872046
301.0,0.0,0.0,0.0,0.0,0.0,0.0,0.021604012697935104,-0.009604659862816334,-0.025521229952573776,0.999859094619751,0.01634596474468708,0.00020901969401165843,0.0038230179343372583
302.0,0.0,0.0,0.0,0.0,0.0,0.0,0.008116328157484531,-0.0021628723479807377,-0.011085431091487408,0.9998286366462708,0.017492173239588737,-0.00042381425737403333,0.006046588998287916
303.0,0.0,0.0,0.0,0.0,0.0,0.0,0.00998017005622387,0.0034887935034930706,-0.011373212561011314,0.9997913837432861,0.01872454397380352,-0.0008642337052151561,0.008124221116304398
304.0,0.0,0.0,0.0,0.0,0.0,0.0,0.0068783084861934185,0.007733081467449665,-0.01159297488629818,0.999767541885376,0.01938609592616558,-0.0012650672579184175,0.00936104729771614
305.0,0.0,0.0,0.0,0.0,0.0,0.0,-0.0022180122323334217,0.014524160884320736,-0.00896060187369585,0.999735951423645,0.02048298344016075,-0.0010658580577000976,0.010377844795584679
306.0,0.0,0.0,0.0,0.0,0.0,0.0,-0.0032435217872262,0.014198237098753452,0.0002488410100340843,0.9997074604034424,0.02172953262925148,-0.0005913602071814239,0.01059526577591896
307.0,0.0,0.0,0.0,0.0,0.0,0.0,-0.006842737086117268,0.011278687976300716,0.008571329526603222,0.9996688365936279,0.023418135941028595,0.0001583436969667673,0.010675634257495403
308.0,0.0,0.0,0.0,0.0,0.0,0.0,0.0018501942977309227,0.0031097731553018093,-0.008661812171339989,0.999639630317688,0.024741632863879204,0.001718084909953177,0.010265829041600227
309.0,0.0,0.0,0.0,0.0,0.0,0.0,0.0020449680741876364,0.001001649652607739,-0.017752978950738907,0.9995649456977844,0.027051616460084915,0.0024756721686571836,0.011476319283246994
310.0,0.0,0.0,0.0,0.0,0.0,0.0,0.0036788114812225103,-0.007004784885793924,-0.02144339121878147,0.999445378780365,0.030001845210790634,0.002584638074040413,0.014224989339709282
311.0,0.0,0.0,0.0,0.0,0.0,0.0,0.007366109173744917,-0.00844402052462101,-0.028398457914590836,0.9993879199028015,0.031122833490371704,0.0033569931983947754,0.015621606260538101
312.0,0.0,0.0,0.0,0.0,0.0,0.0,-0.000161962685524486,-0.002601203741505742,-0.029589466750621796,0.9993391633033752,0.03210126608610153,0.003671345068141818,0.016655562445521355
313.0,0.0,0.0,0.0,0.0,0.0,0.0,-0.0038016869220882654,-0.0017111493507400155,-0.038220763206481934,0.9992425441741943,0.03395121544599533,0.003146813018247485,0.018757309764623642
314.0,0.0,0.0,0.0,0.0,0.0,0.0,-0.021662075072526932,0.002971857087686658,-0.02060934156179428,0.9991495609283447,0.03575478121638298,0.0016627407167106867,0.020472902804613113
315.0,0.0,0.0,0.0,0.0,0.0,0.0,-0.024193132296204567,0.004310679156333208,-0.01383991539478302,0.9991188049316406,0.03595627844333649,0.0023955386132001877,0.02152213081717491
316.0,0.0,0.0,0.0,0.0,0.0,0.0,-0.019108846783638,0.002921063918620348,-0.01818358711898327,0.9990476369857788,0.0369674488902092,0.0017057729419320822,0.023113824427127838
317.0,0.0,0.0,0.0,0.0,0.0,0.0,-0.010172378271818161,-0.01036415621638298,-0.032777827233076096,0.9990041851997375,0.03725269064307213,0.0014989328337833285,0.024513186886906624
318.0,0.0,0.0,0.0,0.0,0.0,0.0,-0.019584614783525467,-0.00449100136756897,-0.0114575931802392,0.9989829063415527,0.037130001932382584,0.00046744136488996446,0.025582950562238693
319.0,0.0,0.0,0.0,0.0,0.0,0.0,-0.023253370076417923,-0.0006850542267784476,-0.002782409777864814,0.9989750385284424,0.03664737567305565,0.00020895394845865667,0.02656940557062626
320.0,0.0,0.0,0.0,0.0,0.0,0.0,-0.023253994062542915,-0.00732087530195713,-0.0018024551682174206,0.9989369511604309,0.03643568977713585,-0.0005549059715121984,0.028233688324689865
321.0,0.0,0.0,0.0,0.0,0.0,0.0,-0.021026063710451126,-0.004565025679767132,0.0028691652696579695,0.9989176988601685,0.036056842654943466,-0.0005333635490387678,0.029378607869148254
322.0,0.0,0.0,0.0,0.0,0.0,0.0,-0.021265726536512375,-0.0016553440364077687,0.012357947416603565,0.9989170432090759,0.03564984351396561,8.352985605597496e-05,0.029897011816501617
323.0,0.0,0.0,0.0,0.0,0.0,0.0,-0.019938508048653603,-0.0027300643268972635,0.005350489169359207,0.9988986849784851,0.03546321019530296,0.0012683214154094458,0.030695583671331406
324.0,0.0,0.0,0.0,0.0,0.0,0.0,-0.030086016282439232,0.003882139455527067,0.033259276300668716,0.9988499879837036,0.036099229007959366,0.0012097051367163658,0.031528327614068985
325.0,0.0,0.0,0.0,0.0,0.0,0.0,-0.01859978213906288,-0.00451086787506938,-0.011986765079200268,0.998812198638916,0.03598036617040634,0.004309230949729681,0.032573405653238297
326.0,0.0,0.0,0.0,0.0,0.0,0.0,-0.00653995992615819,-0.011551163159310818,-0.03286825865507126,0.9988225102424622,0.03555850684642792,0.005824608262628317,0.0324862040579319
327.0,0.0,0.0,0.0,0.0,0.0,0.0,-0.015288875438272953,-0.006115174386650324,-0.009138550609350204,0.9988194108009338,0.034942008554935455,0.007668402511626482,0.03286335617303848
328.0,0.0,0.0,0.0,0.0,0.0,0.0,-0.01127305906265974,-0.003097574459388852,-0.021163005381822586,0.9987931847572327,0.03494047746062279,0.00863979384303093,0.03341727703809738
329.0,0.0,0.0,0.0,0.0,0.0,0.0,-0.013865462504327297,-0.0015265772817656398,-0.01393743883818388,0.9987809062004089,0.03416178748011589,0.010463826358318329,0.03406341001391411
330.0,0.0,0.0,0.0,0.0,0.0,0.0,-0.008843803778290749,0.0040645357221364975,-0.014360155910253525,0.9987701177597046,0.03286495432257652,0.012582839466631413,0.03492778167128563
331.0,0.0,0.0,0.0,0.0,0.0,0.0,-0.003618810558691621,0.0033611056860536337,-0.016420725733041763,0.9987799525260925,0.03169244900345802,0.014764352701604366,0.03487543389201164
332.0,0.0,0.0,0.0,0.0,0.0,0.0,-0.0022272036876529455,-0.008152682334184647,-0.013042590580880642,0.9987701177597046,0.03126193583011627,0.015947116538882256,0.03502308949828148
333.0,0.0,0.0,0.0,0.0,0.0,0.0,0.003388484939932823,-0.01314439158886671,-0.024431293830275536,0.9987009763717651,0.03115299716591835,0.016589391976594925,0.036752160638570786
334.0,0.0,0.0,0.0,0.0,0.0,0.0,-0.0048765395767986774,-0.004515253938734531,0.007029165513813496,0.9986399412155151,0.030701782554388046,0.016047438606619835,0.03896529972553253
335.0,0.0,0.0,0.0,0.0,0.0,0.0,0.010669942013919353,-0.016712965443730354,-0.0044207023456692696,0.9986600279808044,0.02963976189494133,0.016460232436656952,0.03909987583756447
336.0,0.0,0.0,0.0,0.0,0.0,0.0,0.025752119719982147,-0.023150859400629997,-0.02176615037024021,0.9988145232200623,0.027358295395970345,0.017665864899754524,0.036179933696985245
337.0,0.0,0.0,0.0,0.0,0.0,0.0,0.023300915956497192,-0.012706185691058636,-0.01058764848858118,0.9989889860153198,0.02585293911397457,0.017465105280280113,0.032370056957006454
338.0,0.0,0.0,0.0,0.0,0.0,0.0,-0.008058525621891022,-0.0044995560310781,0.035183411091566086,0.9990792274475098,0.02757292613387108,0.01212393119931221,0.030552195385098457
339.0,0.0,0.0,0.0,0.0,0.0,0.0,-0.016050321981310844,-0.015994399785995483,0.0515127032995224,0.9991785287857056,0.026791078969836235,0.012429799884557724,0.02774689719080925
340.0,0.0,0.0,0.0,0.0,0.0,0.0,0.014874114654958248,-0.02761525847017765,0.01122712530195713,0.9993262887001038,0.025298193097114563,0.013978574424982071,0.02261841483414173
341.0,0.0,0.0,0.0,0.0,0.0,0.0,0.013532893732190132,-0.022266430780291557,0.025027209892868996,0.9993824362754822,0.02462410181760788,0.015918543562293053,0.019363045692443848
342.0,0.0,0.0,0.0,0.0,0.0,0.0,0.012936454266309738,-0.008661380037665367,0.0055761937983334064,0.9993777871131897,0.024795226752758026,0.016985340043902397,0.018459737300872803
343.0,0.0,0.0,0.0,0.0,0.0,0.0,-0.00031877763103693724,0.008586936630308628,0.011809480376541615,0.9993888735771179,0.024167198687791824,0.019076921045780182,0.01655654050409794
344.0,0.0,0.0,0.0,0.0,0.0,0.0,0.026730449870228767,-0.012582612223923206,0.00469010416418314,0.9993788003921509,0.023103350773453712,0.022058067843317986,0.014899104833602905
345.0,0.0,0.0,0.0,0.0,0.0,0.0,0.04597717896103859,-0.008879993110895157,-0.03959505259990692,0.9993529915809631,0.023582909256219864,0.022581784054636955,0.015084819868206978
346.0,0.0,0.0,0.0,0.0,0.0,0.0,0.0018362760310992599,0.00031568045960739255,-0.0017971991328522563,0.9993689060211182,0.02472919411957264,0.020556973293423653,0.01508357748389244
347.0,0.0,0.0,0.0,0.0,0.0,0.0,0.006459688767790794,-0.009591399691998959,0.008919212967157364,0.9993699193000793,0.023913757875561714,0.02170848473906517,0.014725416898727417
348.0,0.0,0.0,0.0,0.0,0.0,0.0,0.0165041983127594,-0.006884428672492504,-0.007975209504365921,0.9993847012519836,0.023102497681975365,0.022419558838009834,0.013927062973380089
349.0,0.0,0.0,0.0,0.0,0.0,0.0,0.02255214937031269,-0.008576814085245132,-0.01626509614288807,0.9994078874588013,0.022999165579676628,0.022213144227862358,0.012716853059828281
350.0,0.0,0.0,0.0,0.0,0.0,0.0,0.023267928510904312,-0.0117869321256876,-0.02444065921008587,0.9994426369667053,0.02259794995188713,0.02162558026611805,0.011654435656964779
351.0,0.0,0.0,0.0,0.0,0.0,0.0,0.004745161160826683,-0.00898499321192503,0.016069602221250534,0.9994912147521973,0.022213662043213844,0.019556937739253044,0.011915892362594604
352.0,0.0,0.0,0.0,0.0,0.0,0.0,-0.0171099454164505,0.001835224567912519,0.05375051125884056,0.9994508028030396,0.022904830053448677,0.019264694303274155,0.014221707358956337
353.0,0.0,0.0,0.0,0.0,0.0,0.0,0.01128094270825386,-0.0006352221826091409,-0.0014919235836714506,0.9993659257888794,0.02339586801826954,0.020518135279417038,0.017309220507740974
354.0,0.0,0.0,0.0,0.0,0.0,0.0,0.0005387141136452556,-0.006297620944678783,-0.005571824498474598,0.9993064403533936,0.023887574672698975,0.01794472150504589,0.022233303636312485
355.0,0.0,0.0,0.0,0.0,0.0,0.0,-0.0013397480361163616,-0.0009625384700484574,0.02075333520770073,0.9992049932479858,0.023293210193514824,0.017275869846343994,0.02734910137951374
356.0,0.0,0.0,0.0,0.0,0.0,0.0,0.027512455359101295,-0.017556700855493546,-0.01044392865151167,0.9991553425788879,0.02176862396299839,0.017106708139181137,0.03037315234541893
357.0,0.0,0.0,0.0,0.0,0.0,0.0,0.007316334173083305,0.01672191545367241,0.002220163121819496,0.9991327524185181,0.02024586871266365,0.01559100765734911,0.03288435935974121
358.0,0.0,0.0,0.0,0.0,0.0,0.0,0.004257948137819767,0.018728507682681084,0.026749538257718086,0.9991247653961182,0.01856798306107521,0.014758303761482239,0.034459393471479416
359.0,0.0,0.0,0.0,0.0,0.0,0.0,0.020827636122703552,0.0047976793721318245,0.006070144474506378,0.9991971850395203,0.015386631712317467,0.015693679451942444,0.03350270166993141
360.0,0.0,0.0,0.0,0.0,0.0,0.0,0.028969256207346916,0.006201837211847305,-0.026348892599344254,0.9993225932121277,0.01245818380266428,0.014389409683644772,0.03150832653045654
361.0,0.0,0.0,0.0,0.0,0.0,0.0,0.0053848265670239925,0.03612695634365082,0.01454966515302658,0.999420702457428,0.010647301562130451,0.011598409153521061,0.03016829490661621
362.0,0.0,0.0,0.0,0.0,0.0,0.0,-0.009803214110434055,0.06350521743297577,0.03833061829209328,0.9994709491729736,0.00948308128863573,0.009517520666122437,0.029615560546517372
363.0,0.0,0.0,0.0,0.0,0.0,0.0,0.01974944956600666,0.043926965445280075,0.018740346655249596,0.9995313286781311,0.008600656874477863,0.007487479131668806,0.028407521545886993
364.0,0.0,0.0,0.0,0.0,0.0,0.0,0.02073824591934681,0.005771287716925144,0.03644382581114769,0.9996268153190613,0.006566553842276335,0.005087107885628939,0.02603032812476158
365.0,0.0,0.0,0.0,0.0,0.0,0.0,0.017270533367991447,0.0064673107117414474,0.017349423840641975,0.9996650815010071,0.004129657056182623,0.004154030699282885,0.0252081248909235
366.0,0.0,0.0,0.0,0.0,0.0,0.0,0.006300564389675856,0.009359665215015411,0.004318909253925085,0.9996658563613892,0.0023511380422860384,0.0027762053068727255,0.02559623494744301
367.0,0.0,0.0,0.0,0.0,0.0,0.0,-0.0003411268990021199,0.013878229074180126,-0.0008515912340953946,0.9996669292449951,-0.0003577485622372478,0.002746929181739688,0.02566632069647312
368.0,0.0,0.0,0.0,0.0,0.0,0.0,-0.0018294552573934197,0.004336445592343807,-0.008539991453289986,0.9996452331542969,-0.002398076932877302,0.0017681674798950553,0.02647237293422222
369.0,0.0,0.0,0.0,0.0,0.0,0.0,-0.008066318929195404,0.012628531083464622,-0.018838370218873024,0.9995936751365662,-0.003232682589441538,-0.0003779750259127468,0.028319736942648888
370.0,0.0,0.0,0.0,0.0,0.0,0.0,-0.028349125757813454,0.014238780364394188,0.0010574563639238477,0.9995595812797546,-0.004485902842134237,-0.0018532190006226301,0.029273109510540962
371.0,0.0,0.0,0.0,0.0,0.0,0.0,-0.01608094573020935,0.009123016148805618,-0.012358591891825199,0.9995630979537964,-0.006141467485576868,-0.001566181774251163,0.028872238472104073
372.0,0.0,0.0,0.0,0.0,0.0,0.0,-0.0333528071641922,0.0024507695343345404,0.010807154700160027,0.9995964169502258,-0.007358076050877571,-0.0017048068111762404,0.027385329827666283
373.0,0.0,0.0,0.0,0.0,0.0,0.0,-0.030758880078792572,0.0018546446226537228,0.0014669066295027733,0.9996291995048523,-0.008327306248247623,-0.00032973496126942337,0.025922808796167374
374.0,0.0,0.0,0.0,0.0,0.0,0.0,-0.03986062481999397,-0.0024451452773064375,0.007246462162584066,0.9996858239173889,-0.008371461182832718,0.0006944346823729575,0.02361438237130642
375.0,0.0,0.0,0.0,0.0,0.0,0.0,-0.027158822864294052,-0.015729455277323723,0.0050238813273608685,0.9997309446334839,-0.008352435193955898,0.0034130846615880728,0.021372735500335693
376.0,0.0,0.0,0.0,0.0,0.0,0.0,-0.020598893985152245,-0.02076297253370285,-0.01575029455125332,0.9997743368148804,-0.008403678424656391,0.007359609007835388,0.01807091198861599
377.0,0.0,0.0,0.0,0.0,0.0,0.0,-0.019221171736717224,-0.017153993248939514,-0.021818483248353004,0.9997863173484802,-0.007537802215665579,0.011824057437479496,0.015197446569800377
378.0,0.0,0.0,0.0,0.0,0.0,0.0,-0.012662312015891075,-0.02024666778743267,-0.030005063861608505,0.9997531771659851,-0.00615780521184206,0.016628090292215347,0.013387816958129406
379.0,0.0,0.0,0.0,0.0,0.0,0.0,0.00033785379491746426,-0.024076178669929504,-0.04743073135614395,0.9996941089630127,-0.005230380687862635,0.021626947447657585,0.010803901590406895
380.0,0.0,0.0,0.0,0.0,0.0,0.0,0.001107352552935481,-0.02358207106590271,-0.032777171581983566,0.9995977878570557,-0.004665290471166372,0.026827454566955566,0.007931356318295002
381.0,0.0,0.0,0.0,0.0,0.0,0.0,0.015456238761544228,-0.03397800400853157,-0.045398078858852386,0.9994295239448547,-0.004624154884368181,0.03314013406634331,0.004602220840752125
382.0,0.0,0.0,0.0,0.0,0.0,0.0,0.02791670523583889,-0.03692703694105148,-0.07018345594406128,0.9993585348129272,-0.0038620601408183575,0.035465437918901443,0.003128180978819728
383.0,0.0,0.0,0.0,0.0,0.0,0.0,0.022547749802470207,-0.025711925700306892,-0.050490736961364746,0.9993544220924377,-0.0031357689294964075,0.035763125866651535,0.0015031269285827875
384.0,0.0,0.0,0.0,0.0,0.0,0.0,5.7258315791841596e-05,-0.008442924357950687,0.0003378052788320929,0.9994056224822998,-0.0018308676080778241,0.034419335424900055,0.0007454272708855569
385.0,0.0,0.0,0.0,0.0,0.0,0.0,0.007045922800898552,-0.004502462223172188,-0.003892774460837245,0.9994797110557556,0.0003709604497998953,0.032182324677705765,0.0021590807009488344
386.0,0.0,0.0,0.0,0.0,0.0,0.0,-0.00866279099136591,0.002454514382407069,0.009655899368226528,0.9996351599693298,0.002858611522242427,0.026676395907998085,0.003130934899672866
387.0,0.0,0.0,0.0,0.0,0.0,0.0,-0.007780617102980614,-0.004167082719504833,0.031203126534819603,0.9996635317802429,0.004302670247852802,0.025254782289266586,0.004104109015315771
388.0,0.0,0.0,0.0,0.0,0.0,0.0,0.0038962888065725565,-0.011263453401625156,0.022154102101922035,0.9997155070304871,0.005761895794421434,0.022634245455265045,0.004854714497923851
389.0,0.0,0.0,0.0,0.0,0.0,0.0,-0.006445023696869612,0.0016959338681772351,0.045521099120378494,0.9997230172157288,0.0075410823337733746,0.021323231980204582,0.006515304557979107
390.0,0.0,0.0,0.0,0.0,0.0,0.0,0.0014121228596195579,0.008382626809179783,0.03858928009867668,0.9997121095657349,0.009897848591208458,0.020148813724517822,0.008489338681101799
391.0,0.0,0.0,0.0,0.0,0.0,0.0,0.0010066787945106626,0.017752094194293022,0.030512792989611626,0.9996874928474426,0.012516715563833714,0.018843920901417732,0.0106784887611866
392.0,0.0,0.0,0.0,0.0,0.0,0.0,0.004347359295934439,0.023286262527108192,0.023909296840429306,0.9996331334114075,0.014873859472572803,0.018467960879206657,0.01310267485678196
393.0,0.0,0.0,0.0,0.0,0.0,0.0,0.018293224275112152,0.0154061708599329,0.00030546062043868005,0.99958735704422,0.016069354489445686,0.018345359712839127,0.015185116790235043
394.0,0.0,0.0,0.0,0.0,0.0,0.0,0.02822594903409481,0.014429893344640732,-0.006164392922073603,0.9995545744895935,0.017430907115340233,0.016626862809062004,0.017660241574048996
395.0,0.0,0.0,0.0,0.0,0.0,0.0,0.020829765126109123,0.016183825209736824,0.015736082568764687,0.9995272755622864,0.018010783940553665,0.01472107321023941,0.020109163597226143
396.0,0.0,0.0,0.0,0.0,0.0,0.0,0.027337398380041122,0.010506399907171726,0.006737220101058483,0.9995392560958862,0.017761804163455963,0.013094605877995491,0.02084605023264885
397.0,0.0,0.0,0.0,0.0,0.0,0.0,0.019671062007546425,0.013875490985810757,0.018645374104380608,0.999563455581665,0.01734255813062191,0.012180531397461891,0.02056419663131237
398.0,0.0,0.0,0.0,0.0,0.0,0.0,0.01867746189236641,0.017414428293704987,0.017172720283269882,0.9995983839035034,0.017165090888738632,0.011123346164822578,0.01964101940393448
399.0,0.0,0.0,0.0,0.0,0.0,0.0,0.010036597028374672,0.01721074804663658,0.021649859845638275,0.9996218681335449,0.016245143488049507,0.009336354210972786,0.02013769932091236
400.0,0.0,0.0,0.0,0.0,0.0,0.0,0.013411874882876873,0.024160640314221382,0.021699581295251846,0.9996591806411743,0.015909703448414803,0.009787173010408878,0.018222054466605186
401.0,0.0,0.0,0.0,0.0,0.0,0.0,0.02820214256644249,0.004709565546363592,0.014046280644834042,0.9997034072875977,0.015299035236239433,0.010323033668100834,0.015897197648882866
402.0,0.0,0.0,0.0,0.0,0.0,0.0,-0.059588752686977386,-0.06664212793111801,0.02890084497630596,0.9997526407241821,0.012946105562150478,0.012034359388053417,0.01351586077362299
403.0,0.0,0.0,0.0,0.0,0.0,0.0,0.02958614006638527,-0.005525841377675533,-0.004034882411360741,0.9998005628585815,0.011886000633239746,0.012025432661175728,0.01062588207423687
404.0,0.0,0.0,0.0,0.0,0.0,0.0,0.024804137647151947,-0.014279210940003395,0.002423730678856373,0.9998248219490051,0.011073754169046879,0.011762898415327072,0.009440536610782146
405.0,0.0,0.0,0.0,0.0,0.0,0.0,0.02309928461909294,-0.009294732473790646,-0.0013734044041484594,0.9998379349708557,0.01052435114979744,0.011510145850479603,0.009076508693397045
406.0,0.0,0.0,0.0,0.0,0.0,0.0,0.014878252521157265,-0.0031887467484921217,-0.005169370211660862,0.9998518228530884,0.009649157524108887,0.011866199783980846,0.007887685671448708
407.0,0.0,0.0,0.0,0.0,0.0,0.0,0.02837301231920719,-0.017463374882936478,-0.017548372969031334,0.9998578429222107,0.009342110715806484,0.011392641812562943,0.008213394321501255
408.0,0.0,0.0,0.0,0.0,0.0,0.0,0.015708323568105698,-0.010801874101161957,-0.01093301922082901,0.9998711347579956,0.009237447753548622,0.009328137151896954,0.009267505258321762
409.0,0.0,0.0,0.0,0.0,0.0,0.0,0.014263369143009186,-0.01079360768198967,0.0035513960756361485,0.9998877048492432,0.007753720972687006,0.009151115082204342,0.00901514571160078
410.0,0.0,0.0,0.0,0.0,0.0,0.0,0.019711123779416084,-0.011919229291379452,-0.0087246960029006,0.9998959898948669,0.0072696940042078495,0.007643532939255238,0.009827577508985996
411.0,0.0,0.0,0.0,0.0,0.0,0.0,0.016366196796298027,-0.014184854924678802,-0.005306479521095753,0.9999004006385803,0.007139841094613075,0.005029689986258745,0.011109321378171444
412.0,0.0,0.0,0.0,0.0,0.0,0.0,0.003029211889952421,-0.008531088009476662,0.011120031587779522,0.999914288520813,0.006525321863591671,0.0024238135665655136,0.011104367673397064
413.0,0.0,0.0,0.0,0.0,0.0,0.0,-0.0023850270081311464,-0.006753983907401562,0.026592014357447624,0.9999259114265442,0.0057827471755445,0.0014372466830536723,0.010634197853505611
414.0,0.0,0.0,0.0,0.0,0.0,0.0,0.010769502259790897,-0.010469176806509495,0.010867664590477943,0.9999334216117859,0.00523204542696476,0.00018870053463615477,0.010291947051882744
415.0,0.0,0.0,0.0,0.0,0.0,0.0,0.0008569441270083189,-0.012425429187715054,0.015567720867693424,0.9999256730079651,0.00532077020034194,-0.002293274039402604,0.010755885392427444
416.0,0.0,0.0,0.0,0.0,0.0,0.0,0.002055036136880517,-0.020587680861353874,0.015537111088633537,0.9999061822891235,0.005209962371736765,-0.004343744833022356,0.011897292919456959
417.0,0.0,0.0,0.0,0.0,0.0,0.0,0.006033279467374086,-0.016078714281320572,0.009216108359396458,0.999906599521637,0.003987087868154049,-0.005843238439410925,0.011679008603096008
418.0,0.0,0.0,0.0,0.0,0.0,0.0,-0.004194962792098522,-0.004177771974354982,0.021102527156472206,0.9999099373817444,0.002873636083677411,-0.007668419741094112,0.010658088140189648
419.0,0.0,0.0,0.0,0.0,0.0,0.0,-0.010355817154049873,-0.0016027212841436267,0.02798984944820404,0.9998977184295654,0.002514710882678628,-0.009434825740754604,0.01043772604316473
420.0,0.0,0.0,0.0,0.0,0.0,0.0,-0.02063228189945221,0.0018252272857353091,0.03889680653810501,0.9998727440834045,0.003127631265670061,-0.011079278774559498,0.011055964976549149
421.0,0.0,0.0,0.0,0.0,0.0,0.0,-0.013282410800457,-0.004456789698451757,0.03037041425704956,0.9998474717140198,0.004259634297341108,-0.011860144324600697,0.012083396315574646
422.0,0.0,0.0,0.0,0.0,0.0,0.0,-0.009121453389525414,-0.015325927175581455,0.022758977487683296,0.9998502731323242,0.004791745450347662,-0.01177113875746727,0.011759022250771523
423.0,0.0,0.0,0.0,0.0,0.0,0.0,-0.006510420236736536,-0.01453304011374712,0.02228509820997715,0.9998703598976135,0.005043011624366045,-0.010890987701714039,0.010727472603321075
424.0,0.0,0.0,0.0,0.0,0.0,0.0,0.0001463421795051545,-0.015524583868682384,0.015111198648810387,0.9998958110809326,0.004874799400568008,-0.009466603398323059,0.009778176434338093
425.0,0.0,0.0,0.0,0.0,0.0,0.0,0.008695011027157307,-0.016947487369179726,0.0021278809290379286,0.9999123811721802,0.004367361310869455,-0.008768708445131779,0.00890413299202919
426.0,0.0,0.0,0.0,0.0,0.0,0.0,0.008412012830376625,-0.01673663780093193,0.0030173086561262608,0.9999179840087891,0.004228129051625729,-0.008893389254808426,0.008227326907217503
427.0,0.0,0.0,0.0,0.0,0.0,0.0,0.01598086580634117,-0.022698380053043365,0.004806606564670801,0.9999330043792725,0.003610088489949703,-0.008578075096011162,0.006905968766659498
428.0,0.0,0.0,0.0,0.0,0.0,0.0,0.011929217725992203,-0.01961369812488556,0.00801068264991045,0.999935507774353,0.0034270400647073984,-0.00921913143247366,0.00569683313369751
429.0,0.0,0.0,0.0,0.0,0.0,0.0,0.004285231698304415,-0.014357015490531921,0.018056070432066917,0.9999380111694336,0.003397752298042178,-0.009388856589794159,0.004957934841513634
430.0,0.0,0.0,0.0,0.0,0.0,0.0,0.005321873351931572,-0.014550291933119297,0.013601167127490044,0.9999523162841797,0.0030975902918726206,-0.008607552386820316,0.003393913619220257
431.0,0.0,0.0,0.0,0.0,0.0,0.0,0.006538885645568371,-0.015830116346478462,-0.0025797418784350157,0.9999681115150452,0.0030095004476606846,-0.007228591479361057,0.0016250419430434704
432.0,0.0,0.0,0.0,0.0,0.0,0.0,0.0030351155437529087,-0.017136137932538986,-0.0018394857179373503,0.999968409538269,0.00398053415119648,-0.006878935731947422,0.0005106016178615391
433.0,0.0,0.0,0.0,0.0,0.0,0.0,0.002280893735587597,-0.011756197549402714,-0.0020076679065823555,0.9999724626541138,0.004530368838459253,-0.005848027765750885,-0.0008597529376856983
434.0,0.0,0.0,0.0,0.0,0.0,0.0,0.0053398204036056995,-0.009535107761621475,-0.009588874876499176,0.9999753832817078,0.00495414761826396,-0.004290419165045023,-0.002554967300966382
435.0,0.0,0.0,0.0,0.0,0.0,0.0,0.004635443910956383,-0.010717910714447498,-0.016101522371172905,0.9999688863754272,0.0060294619761407375,-0.0038747566286474466,-0.003308680607005954
436.0,0.0,0.0,0.0,0.0,0.0,0.0,0.004584438167512417,-0.008220687508583069,-0.019084421917796135,0.9999672174453735,0.006148676387965679,-0.0028087925165891647,-0.004479793831706047
437.0,0.0,0.0,0.0,0.0,0.0,0.0,0.0029091390315443277,0.00549815921112895,-0.018030863255262375,0.9999634623527527,0.006608005613088608,-0.0018856116803362966,-0.005089085083454847
438.0,0.0,0.0,0.0,0.0,0.0,0.0,0.0033287853002548218,0.0024498766288161278,-0.019852792844176292,0.9999536871910095,0.007705930154770613,-0.0015846204478293657,-0.005541106220334768
439.0,0.0,0.0,0.0,0.0,0.0,0.0,-0.0006735113565810025,0.006211576517671347,-0.016591964289546013,0.9999489784240723,0.008231649175286293,-0.001260538469068706,-0.005719079170376062
440.0,0.0,0.0,0.0,0.0,0.0,0.0,-0.006049851421266794,0.013876543380320072,-0.00471461983397603,0.9999454021453857,0.009333805181086063,-0.0013376802671700716,-0.004505486227571964
441.0,0.0,0.0,0.0,0.0,0.0,0.0,-0.008196418173611164,0.020064638927578926,-0.0050606499426066875,0.999937891960144,0.010531910695135593,-0.0011292791459709406,-0.0034881317988038063
442.0,0.0,0.0,0.0,0.0,0.0,0.0,-0.005640436429530382,0.020388036966323853,-0.011308158747851849,0.9999346733093262,0.011103641241788864,-0.00040960038313642144,-0.002749726176261902
443.0,0.0,0.0,0.0,0.0,0.0,0.0,-0.0017470052698627114,0.016976328566670418,-0.01411681342869997,0.999921441078186,0.012399792671203613,-0.0006802117568440735,-0.0016466056695207953
444.0,0.0,0.0,0.0,0.0,0.0,0.0,-0.008990570902824402,0.019614871591329575,-0.0021055482793599367,0.9999045133590698,0.013729922473430634,-0.00162517128046602,5.6359469454037026e-05
445.0,0.0,0.0,0.0,0.0,0.0,0.0,-0.009991267696022987,0.015040835365653038,-0.0016154280165210366,0.9998801946640015,0.01517319492995739,-0.002412899862974882,0.001914329594001174
446.0,0.0,0.0,0.0,0.0,0.0,0.0,-0.012466107495129108,0.015965748578310013,-0.0012908665230497718,0.9998646378517151,0.01587769202888012,-0.0027982054743915796,0.0033121469896286726
447.0,0.0,0.0,0.0,0.0,0.0,0.0,-0.00896492414176464,0.012452137656509876,-1.0619823115121108e-05,0.9998612403869629,0.015958335250616074,-0.0024506745394319296,0.004113688599318266
448.0,0.0,0.0,0.0,0.0,0.0,0.0,-0.006292242556810379,0.011343018151819706,-0.004727473016828299,0.999847948551178,0.016495635733008385,-0.0025806198827922344,0.005035527516156435
449.0,0.0,0.0,0.0,0.0,0.0,0.0,-0.008989093825221062,0.009175911545753479,0.000897670688573271,0.9998460412025452,0.016629565507173538,-0.0020488218870013952,0.005222773179411888
450.0,0.0,0.0,0.0,0.0,0.0,0.0,-0.006886346731334925,0.0092610539868474,0.005739816930145025,0.9998341202735901,0.016878265887498856,-0.0017687836661934853,0.0066048274748027325
451.0,0.0,0.0,0.0,0.0,0.0,0.0,-0.00785298552364111,0.0058739366941154,0.011366453021764755,0.9998041391372681,0.017792508006095886,-0.0016636991640552878,0.00850545335561037
452.0,0.0,0.0,0.0,0.0,0.0,0.0,-0.0033137171994894743,0.0028817125130444765,0.0046470980159938335,0.9997768402099609,0.018659519031643867,-0.0007101845112629235,0.009886343963444233
453.0,0.0,0.0,0.0,0.0,0.0,0.0,0.0019887532107532024,0.0012678263010457158,0.0028090716805309057,0.999739944934845,0.01993536204099655,-0.001223411993123591,0.011006633751094341
454.0,0.0,0.0,0.0,0.0,0.0,0.0,0.0007319228607229888,0.009127973578870296,0.0060026999562978745,0.9996791481971741,0.021929599344730377,-0.0017698182491585612,0.012556628324091434
455.0,0.0,0.0,0.0,0.0,0.0,0.0,0.004781466443091631,0.01650335267186165,0.01370236650109291,0.9996024966239929,0.02419474720954895,-0.0017302436754107475,0.014378190040588379
456.0,0.0,0.0,0.0,0.0,0.0,0.0,0.004887512885034084,0.025309717282652855,0.015541949309408665,0.999510645866394,0.026944147422909737,-0.001121373614296317,0.015850495547056198
457.0,0.0,0.0,0.0,0.0,0.0,0.0,-0.0014322510687634349,0.03047436848282814,0.01875689998269081,0.9993969798088074,0.030158191919326782,-0.0001480375649407506,0.017216283828020096
458.0,0.0,0.0,0.0,0.0,0.0,0.0,0.004632595460861921,0.027760524302721024,0.011104041710495949,0.9992555379867554,0.032777607440948486,0.0006144416402094066,0.020339567214250565
459.0,0.0,0.0,0.0,0.0,0.0,0.0,0.01086410228163004,0.02425515651702881,0.003137249266728759,0.9991281032562256,0.03583435341715813,0.0028247348964214325,0.02123948745429516
460.0,0.0,0.0,0.0,0.0,0.0,0.0,0.017455697059631348,0.012542223557829857,-0.010091505013406277,0.9990240931510925,0.03772112354636192,0.0056415642611682415,0.022278938442468643
461.0,0.0,0.0,0.0,0.0,0.0,0.0,0.024789800867438316,0.00011307177919661626,-0.026878049597144127,0.9989883303642273,0.038007672876119614,0.009130662307143211,0.022235644981265068
462.0,0.0,0.0,0.0,0.0,0.0,0.0,0.02460819110274315,-0.003401679452508688,-0.02705158106982708,0.9990245699882507,0.037915755063295364,0.010128169320523739,0.020241722464561462
463.0,0.0,0.0,0.0,0.0,0.0,0.0,0.01674370840191841,-0.0117127550765872,-0.019223475828766823,0.9990355372428894,0.03720347583293915,0.011811766773462296,0.020113211125135422
464.0,0.0,0.0,0.0,0.0,0.0,0.0,0.020820971578359604,-0.0168771930038929,-0.03096342645585537,0.9990565180778503,0.03611144423484802,0.013419832102954388,0.020048940554261208
465.0,0.0,0.0,0.0,0.0,0.0,0.0,0.018025031313300133,-0.024065205827355385,-0.025402212515473366,0.999078631401062,0.03500782325863838,0.013612514361739159,0.020765064284205437
466.0,0.0,0.0,0.0,0.0,0.0,0.0,0.016202254220843315,-0.018450496718287468,-0.0179597120732069,0.9991311430931091,0.032960496842861176,0.014008622616529465,0.021320464089512825
467.0,0.0,0.0,0.0,0.0,0.0,0.0,0.012056875042617321,-0.013086380437016487,0.000933793664444238,0.9992036819458008,0.03053009696304798,0.01411965861916542,0.021461239084601402
468.0,0.0,0.0,0.0,0.0,0.0,0.0,0.014148150570690632,-0.012151041068136692,-0.0017972266068682075,0.9992790818214417,0.028788572177290916,0.013692198321223259,0.02061896026134491
469.0,0.0,0.0,0.0,0.0,0.0,0.0,0.00988568365573883,-0.015641316771507263,0.005050957202911377,0.9993576407432556,0.027459682896733284,0.012435982935130596,0.019378667697310448
470.0,0.0,0.0,0.0,0.0,0.0,0.0,0.007889319211244583,-0.020411260426044464,0.02363794855773449,0.9994648694992065,0.025109369307756424,0.01239730603992939,0.016907257959246635
471.0,0.0,0.0,0.0,0.0,0.0,0.0,0.014853411354124546,-0.02176901325583458,0.01774127595126629,0.9995754957199097,0.022204848006367683,0.013147396966814995,0.013527674600481987
472.0,0.0,0.0,0.0,0.0,0.0,0.0,0.021109215915203094,-0.021181698888540268,0.006940862629562616,0.9996312856674194,0.020592648535966873,0.013099327683448792,0.01190957147628069
473.0,0.0,0.0,0.0,0.0,0.0,0.0,0.019436080008745193,-0.01867028698325157,-0.004363842308521271,0.9996843338012695,0.01877703331410885,0.013004966080188751,0.010465694591403008
474.0,0.0,0.0,0.0,0.0,0.0,0.0,0.01411847211420536,-0.010249802842736244,-0.004126822110265493,0.9997367858886719,0.016824960708618164,0.012391327880322933,0.00947668869048357
475.0,0.0,0.0,0.0,0.0,0.0,0.0,0.010064536705613136,-0.0020101091358810663,-0.009174367412924767,0.9997709393501282,0.01580704376101494,0.01066261064261198,0.009723445400595665
476.0,0.0,0.0,0.0,0.0,0.0,0.0,0.004822388757020235,-0.001869038213044405,-0.004327795002609491,0.9998135566711426,0.014330033212900162,0.008846684359014034,0.009450465440750122
477.0,0.0,0.0,0.0,0.0,0.0,0.0,0.0064276703633368015,0.004370827227830887,0.004225173965096474,0.9998432397842407,0.012918097898364067,0.0073726302944123745,0.009607115760445595
478.0,0.0,0.0,0.0,0.0,0.0,0.0,0.007116043008863926,0.011827278882265091,-0.0010480897035449743,0.999849259853363,0.013286375440657139,0.0042195068672299385,0.010351894423365593
479.0,0.0,0.0,0.0,0.0,0.0,0.0,0.0007680603303015232,0.006893206387758255,0.00256138201802969,0.9998499155044556,0.01377782691270113,0.0014569330960512161,0.010402858257293701
480.0,0.0,0.0,0.0,0.0,0.0,0.0,-0.0015240797074511647,0.0035058213397860527,0.008334879763424397,0.9998427033424377,0.014172288589179516,-0.0003153669531457126,0.010658970102667809
481.0,0.0,0.0,0.0,0.0,0.0,0.0,-0.011068914085626602,0.004983049817383289,0.04923033341765404,0.9998344779014587,0.015061933547258377,-0.0019559399224817753,0.01001833751797676
482.0,0.0,0.0,0.0,0.0,0.0,0.0,-0.003936993423849344,0.01094811875373125,0.03676967695355415,0.9998590350151062,0.014867802150547504,-0.0008230457897298038,0.0077646286226809025
483.0,0.0,0.0,0.0,0.0,0.0,0.0,0.0028477520681917667,0.010162773542106152,0.02070097252726555,0.9998646974563599,0.015357536263763905,0.0006140752229839563,0.005864243488758802
484.0,0.0,0.0,0.0,0.0,0.0,0.0,0.013031716458499432,0.003357364097610116,-0.0020373105071485043,0.9998494982719421,0.01662585884332657,0.002269462449476123,0.004411748610436916
485.0,0.0,0.0,0.0,0.0,0.0,0.0,0.005803381092846394,0.005919951479882002,0.009838017635047436,0.9998188018798828,0.018356697633862495,0.003001478733494878,0.004050552845001221
486.0,0.0,0.0,0.0,0.0,0.0,0.0,0.0025924791116267443,0.013567335903644562,0.010117001831531525,0.9997646808624268,0.020796554163098335,0.004132101312279701,0.004589841701090336
487.0,0.0,0.0,0.0,0.0,0.0,0.0,0.010945666581392288,0.001828861190006137,-0.01643156260251999,0.9997141361236572,0.02279093861579895,0.005392943974584341,0.004819032736122608
488.0,0.0,0.0,0.0,0.0,0.0,0.0,0.018350156024098396,-0.009784823283553123,-0.04169759526848793,0.9996762871742249,0.02424614131450653,0.006323594134300947,0.004417325835675001
489.0,0.0,0.0,0.0,0.0,0.0,0.0,-0.005929274950176477,-0.0004893584991805255,-0.005086309742182493,0.9996082186698914,0.02682308666408062,0.006033650133758783,0.005244437605142593
490.0,0.0,0.0,0.0,0.0,0.0,0.0,-0.010678666643798351,0.011449355632066727,-0.014089025557041168,0.9995255470275879,0.02909928560256958,0.007580331061035395,0.006673616357147694
491.0,0.0,0.0,0.0,0.0,0.0,0.0,-0.009326601400971413,0.005313814617693424,-0.023559950292110443,0.9994370341300964,0.03125322237610817,0.008571086451411247,0.008683503605425358
492.0,0.0,0.0,0.0,0.0,0.0,0.0,-0.0071137435734272,0.0025315447710454464,-0.03002237156033516,0.9993215203285217,0.03312496468424797,0.010437611490488052,0.012259557843208313
493.0,0.0,0.0,0.0,0.0,0.0,0.0,-0.005631344858556986,0.014863687567412853,-0.056790921837091446,0.9992162585258484,0.034307315945625305,0.011792263947427273,0.015838302671909332
494.0,0.0,0.0,0.0,0.0,0.0,0.0,-0.008247178979218006,0.007317764684557915,-0.036923084408044815,0.9991236925125122,0.03484725207090378,0.012853394262492657,0.019293930381536484
495.0,0.0,0.0,0.0,0.0,0.0,0.0,-0.011469961144030094,0.011213894002139568,-0.02286560833454132,0.9990577697753906,0.03458235040307045,0.014273823238909245,0.021998578682541847
496.0,0.0,0.0,0.0,0.0,0.0,0.0,-0.01572994887828827,0.015929481014609337,-0.027710529044270515,0.998970091342926,0.03426790237426758,0.015401758253574371,0.025444507598876953
497.0,0.0,0.0,0.0,0.0,0.0,0.0,-0.018560433760285378,0.019328635185956955,-0.020504027605056763,0.9988718628883362,0.03433331474661827,0.01491279061883688,0.029219992458820343
498.0,0.0,0.0,0.0,0.0,0.0,0.0,-0.02138976939022541,0.02173936553299427,-0.0015820658300071955,0.9988284111022949,0.03369748219847679,0.015010111965239048,0.031321246176958084
499.0,0.0,0.0,0.0,0.0,0.0,0.0,-0.018611928448081017,0.023435430601239204,0.0008317264728248119,0.9987746477127075,0.033063434064388275,0.016581954434514046,0.03288046270608902
500.0,0.0,0.0,0.0,0.0,0.0,0.0,-0.013821910135447979,0.017272483557462692,-0.012029727920889854,0.9987089037895203,0.03260159492492676,0.01719784364104271,0.034958526492118835
501.0,0.0,0.0,0.0,0.0,0.0,0.0,-0.014231246896088123,0.009017499163746834,0.0008431770838797092,0.9986210465431213,0.03230960667133331,0.016782354563474655,0.037820447236299515
502.0,0.0,0.0,0.0,0.0,0.0,0.0,-0.0074556740000844,0.004788581747561693,0.0031454379204660654,0.9986149072647095,0.030473889783024788,0.017565282061696053,0.0391283854842186
503.0,0.0,0.0,0.0,0.0,0.0,0.0,0.0007333061075769365,-0.002273427089676261,-0.027624163776636124,0.9986945390701294,0.028323788195848465,0.017621541395783424,0.038685042411088943
504.0,0.0,0.0,0.0,0.0,0.0,0.0,-0.004398230463266373,0.0014119703555479646,-0.008435680530965328,0.9988099336624146,0.026193076744675636,0.016070595011115074,0.03787270933389664
505.0,0.0,0.0,0.0,0.0,0.0,0.0,-0.013470531441271305,0.008076388388872147,0.015586993657052517,0.9989097714424133,0.024273168295621872,0.01540409680455923,0.03678252920508385
506.0,0.0,0.0,0.0,0.0,0.0,0.0,-0.018863005563616753,0.015210727229714394,0.021244527772068977,0.9990013837814331,0.022083507850766182,0.015358761884272099,0.035677097737789154
507.0,0.0,0.0,0.0,0.0,0.0,0.0,-0.008021107874810696,0.01295481901615858,0.01770973578095436,0.9991114139556885,0.018821872770786285,0.015886027365922928,0.034200236201286316
508.0,0.0,0.0,0.0,0.0,0.0,0.0,-0.0020144337322562933,0.008076303638517857,-0.017056066542863846,0.9991651177406311,0.016561610624194145,0.01571791246533394,0.033877696841955185
509.0,0.0,0.0,0.0,0.0,0.0,0.0,-0.0009106185170821846,0.017383871600031853,-0.01616862788796425,0.9992231726646423,0.014756469056010246,0.013824463821947575,0.0338284969329834
510.0,0.0,0.0,0.0,0.0,0.0,0.0,-0.0089608458802104,0.026757584884762764,0.023664167150855064,0.9992648363113403,0.0129801444709301,0.012017125263810158,0.03401481732726097
511.0,0.0,0.0,0.0,0.0,0.0,0.0,-0.017872432246804237,0.035511571913957596,0.025253238156437874,0.999284565448761,0.011828240938484669,0.01125189196318388,0.0341147780418396
512.0,0.0,0.0,0.0,0.0,0.0,0.0,-0.008196522481739521,0.0321083702147007,0.012581841088831425,0.9993115663528442,0.010677889920771122,0.012258630245923996,0.03334915265440941
513.0,0.0,0.0,0.0,0.0,0.0,0.0,-0.0015972134424373507,0.020101051777601242,-0.0020528691820800304,0.9992988109588623,0.010461523197591305,0.0126145975664258,0.033665820956230164
514.0,0.0,0.0,0.0,0.0,0.0,0.0,0.0004970505833625793,0.012407016009092331,-0.007827931083738804,0.999305248260498,0.009956752881407738,0.013348979875445366,0.03334284946322441
515.0,0.0,0.0,0.0,0.0,0.0,0.0,0.0033783537801355124,0.008049438707530499,-0.0038419803604483604,0.9993173480033875,0.009568079374730587,0.013235218822956085,0.03313656523823738
516.0,0.0,0.0,0.0,0.0,0.0,0.0,0.009477570652961731,0.0022866178769618273,-0.005181208718568087,0.9992982745170593,0.009665977209806442,0.012895803898572922,0.033813368529081345
517.0,0.0,0.0,0.0,0.0,0.0,0.0,0.0064089251682162285,0.003645185148343444,0.0008944717701524496,0.9993597269058228,0.008682741783559322,0.012607627548277378,0.0323399156332016
518.0,0.0,0.0,0.0,0.0,0.0,0.0,0.009423337876796722,0.0027405661530792713,0.005746749695390463,0.9994287490844727,0.006555578205734491,0.013632762245833874,0.03022126667201519
519.0,0.0,0.0,0.0,0.0,0.0,0.0,0.012230309657752514,0.0028197551146149635,0.0012395215453580022,0.9994588494300842,0.005854295566678047,0.01288024615496397,0.029696475714445114
520.0,0.0,0.0,0.0,0.0,0.0,0.0,0.00978416483849287,-0.0009016249096021056,0.009371725842356682,0.9995040893554688,0.004520791582763195,0.011495748534798622,0.028966769576072693
521.0,0.0,0.0,0.0,0.0,0.0,0.0,0.00944713968783617,0.005132016260176897,0.012720230035483837,0.9995718002319336,0.002947316039353609,0.010709117166697979,0.027070332318544388
522.0,0.0,0.0,0.0,0.0,0.0,0.0,0.00784420408308506,0.007707216776907444,0.013800032436847687,0.9995880722999573,0.002066641813144088,0.009665404446423054,0.02694462426006794
523.0,0.0,0.0,0.0,0.0,0.0,0.0,-3.126235606032424e-05,0.008295547217130661,0.01865045353770256,0.9995906352996826,0.0017672671237960458,0.008551587350666523,0.027245188131928444
524.0,0.0,0.0,0.0,0.0,0.0,0.0,-0.005940199363976717,0.013516186736524105,0.03807525709271431,0.9995840191841125,0.0015464616008102894,0.008028523065149784,0.02765733376145363
525.0,0.0,0.0,0.0,0.0,0.0,0.0,0.010173121467232704,-0.006227715872228146,-0.0064297947101294994,0.9995660781860352,0.0014775507152080536,0.007922432385385036,0.028333453461527824
526.0,0.0,0.0,0.0,0.0,0.0,0.0,0.006067922338843346,-0.007093013729900122,0.0026622454170137644,0.9995907545089722,0.0014153127558529377,0.005785755813121796,0.027980275452136993
527.0,0.0,0.0,0.0,0.0,0.0,0.0,-0.007349385414272547,0.013550542294979095,0.03052038513123989,0.9996188282966614,0.002109523629769683,0.005054498091340065,0.02705812081694603
528.0,0.0,0.0,0.0,0.0,0.0,0.0,-0.0003492505056783557,0.001493483898229897,-2.0377387045300566e-05,0.9996587634086609,0.0024573616683483124,0.005416429601609707,0.025435669347643852
529.0,0.0,0.0,0.0,0.0,0.0,0.0,0.000609985610935837,0.009291330352425575,0.006661536637693644,0.9996669888496399,0.0032711313106119633,0.005256713833659887,0.025051767006516457
530.0,0.0,0.0,0.0,0.0,0.0,0.0,-0.013675717636942863,0.02276783250272274,0.022941142320632935,0.9996718764305115,0.003516122465953231,0.006966505665332079,0.02439851313829422
531.0,0.0,0.0,0.0,0.0,0.0,0.0,0.015540363267064095,0.00484234606847167,-0.028646890074014664,0.9996671676635742,0.003586729057133198,0.009367302060127258,0.023768847808241844
532.0,0.0,0.0,0.0,0.0,0.0,0.0,0.0065962099470198154,0.0025843235198408365,-0.01141231507062912,0.9996870756149292,0.004060657694935799,0.008813498541712761,0.023056957870721817
533.0,0.0,0.0,0.0,0.0,0.0,0.0,0.007362475618720055,0.003420760855078697,-0.013111565262079239,0.9996877908706665,0.004178521689027548,0.00951983593404293,0.022725123912096024
534.0,0.0,0.0,0.0,0.0,0.0,0.0,0.004309443756937981,-0.002201021183282137,-0.014039130881428719,0.9997048377990723,0.004969112575054169,0.00833926722407341,0.02227429300546646
535.0,0.0,0.0,0.0,0.0,0.0,0.0,-0.00030316709307953715,-0.0022383814211934805,-0.005724234972149134,0.9997074604034424,0.005465601570904255,0.007750052493065596,0.02225569449365139
536.0,0.0,0.0,0.0,0.0,0.0,0.0,-0.002198457485064864,0.00029062447720207274,-0.0015716265188530087,0.9997254014015198,0.005496670957654715,0.007690251339226961,0.021444424986839294
537.0,0.0,0.0,0.0,0.0,0.0,0.0,-0.004574435297399759,-0.0015478013083338737,0.007839339785277843,0.9997352957725525,0.0054918439127504826,0.007319983094930649,0.021108129993081093
538.0,0.0,0.0,0.0,0.0,0.0,0.0,0.002964548533782363,-0.006083615589886904,-0.009969113394618034,0.9997467994689941,0.004544253461062908,0.008504143916070461,0.02032856084406376
539.0,0.0,0.0,0.0,0.0,0.0,0.0,0.0017309219110757113,-0.003156611230224371,-0.010093159973621368,0.9997686147689819,0.003674014937132597,0.008448260836303234,0.019438087940216064
540.0,0.0,0.0,0.0,0.0,0.0,0.0,-0.001394133549183607,0.002964871237054467,0.004116191994398832,0.9997869729995728,0.0027324394322931767,0.0075032394379377365,0.019032493233680725
541.0,0.0,0.0,0.0,0.0,0.0,0.0,-0.003035543952137232,0.003634552238509059,-0.0029423991218209267,0.9997918605804443,0.0021576271392405033,0.006503944750875235,0.019217725843191147
542.0,0.0,0.0,0.0,0.0,0.0,0.0,-0.00764745706692338,0.010758844204246998,0.0021311044692993164,0.9997664093971252,0.0017735955771058798,0.005008948501199484,0.020952196791768074
543.0,0.0,0.0,0.0,0.0,0.0,0.0,-0.014796365052461624,0.021838240325450897,0.015320846810936928,0.9997405409812927,0.0018326368881389499,0.0026725903153419495,0.02255118452012539
544.0,0.0,0.0,0.0,0.0,0.0,0.0,-0.011296393349766731,0.01769803650677204,0.0015846864553168416,0.9996960759162903,0.0023434350732713938,0.00025710370391607285,0.024539967998862267
545.0,0.0,0.0,0.0,0.0,0.0,0.0,-0.0057129994966089725,0.005537425167858601,0.011243540793657303,0.9996345639228821,0.003062101313844323,-0.0025292104110121727,0.026741301640868187
546.0,0.0,0.0,0.0,0.0,0.0,0.0,-0.003468721406534314,-0.004399801604449749,0.019057566300034523,0.9995970129966736,0.0035357712768018246,-0.0036915356758981943,0.027925116941332817
547.0,0.0,0.0,0.0,0.0,0.0,0.0,-0.013176939450204372,0.002086243825033307,0.03597792983055115,0.9995851516723633,0.004532953258603811,-0.003984607290476561,0.02816004864871502
548.0,0.0,0.0,0.0,0.0,0.0,0.0,-0.0045214686542749405,-0.004202032927423716,0.03178077191114426,0.9995465278625488,0.006210280116647482,-0.0026582125574350357,0.029350178316235542
549.0,0.0,0.0,0.0,0.0,0.0,0.0,0.0025286334566771984,-0.007134221028536558,0.024931160733103752,0.9995312094688416,0.007693006657063961,-0.0005418813670985401,0.029629824683070183
550.0,0.0,0.0,0.0,0.0,0.0,0.0,0.011654580011963844,-0.011743718758225441,-0.008261230774223804,0.9995351433753967,0.00875451322644949,0.0023353479336947203,0.029111461713910103
551.0,0.0,0.0,0.0,0.0,0.0,0.0,0.011513466015458107,-0.013828709721565247,-0.017727376893162727,0.9995409846305847,0.00941935833543539,0.004585537128150463,0.028426380828022957
552.0,0.0,0.0,0.0,0.0,0.0,0.0,0.017252858728170395,-0.014856461435556412,-0.03718157485127449,0.9995452165603638,0.010059662163257599,0.006215615198016167,0.02774336375296116
553.0,0.0,0.0,0.0,0.0,0.0,0.0,0.013637891970574856,-0.014262535609304905,-0.03236941620707512,0.9995452165603638,0.010094870813190937,0.007903932593762875,0.02730073221027851
554.0,0.0,0.0,0.0,0.0,0.0,0.0,0.022640390321612358,-0.013676043599843979,-0.04224366694688797,0.9995394349098206,0.009991826489567757,0.009089021943509579,0.02717151865363121
555.0,0.0,0.0,0.0,0.0,0.0,0.0,0.0086631178855896,-0.006135681644082069,-0.020854655653238297,0.9995879530906677,0.009410824626684189,0.009057695977389812,0.02555793710052967
556.0,0.0,0.0,0.0,0.0,0.0,0.0,0.007664896547794342,0.0006041210144758224,-0.00853603333234787,0.9996548891067505,0.008285652846097946,0.009744364768266678,0.022944079712033272
557.0,0.0,0.0,0.0,0.0,0.0,0.0,0.004369350150227547,0.005246598739176989,0.005921111907809973,0.9997396469116211,0.00682541448622942,0.010728721506893635,0.018942944705486298
558.0,0.0,0.0,0.0,0.0,0.0,0.0,0.01384519413113594,0.007524138316512108,0.0026456573978066444,0.9997902512550354,0.005398775450885296,0.011808829382061958,0.015844713896512985
559.0,0.0,0.0,0.0,0.0,0.0,0.0,0.009041152894496918,0.004111886024475098,0.023596266284585,0.9998332858085632,0.005249005742371082,0.01088165957480669,0.013694298453629017
560.0,0.0,0.0,0.0,0.0,0.0,0.0,0.020883934572339058,-0.009605241939425468,0.008850958198308945,0.9998471736907959,0.004315465223044157,0.01158110611140728,0.012364600785076618
561.0,0.0,0.0,0.0,0.0,0.0,0.0,0.02097562700510025,-0.005967294331640005,0.0005080276168882847,0.9998713135719299,0.0042074634693562984,0.00958575215190649,0.012172019109129906
562.0,0.0,0.0,0.0,0.0,0.0,0.0,0.009753135964274406,0.004578700289130211,0.007731899153441191,0.9998781681060791,0.003991600126028061,0.007760218810290098,0.01295442320406437
563.0,0.0,0.0,0.0,0.0,0.0,0.0,0.01036864798516035,0.010923314839601517,0.018384024500846863,0.9998920559883118,0.003963224124163389,0.006785363424569368,0.012427006848156452
564.0,0.0,0.0,0.0,0.0,0.0,0.0,0.010974295437335968,0.015781255438923836,0.028114136308431625,0.9998618960380554,0.006114065181463957,0.006054706405848265,0.014224279671907425
565.0,0.0,0.0,0.0,0.0,0.0,0.0,0.005490244831889868,0.017663290724158287,0.03234400600194931,0.999736487865448,0.009356647729873657,0.006009187549352646,0.02008257806301117
566.0,0.0,0.0,0.0,0.0,0.0,0.0,-0.013122249394655228,0.02828199788928032,0.034949637949466705,0.9995603561401367,0.012607132084667683,0.0070713721215724945,0.02589331567287445
567.0,0.0,0.0,0.0,0.0,0.0,0.0,0.03334546089172363,-0.018940357491374016,-0.03153431415557861,0.9993768334388733,0.014253760688006878,0.012613937258720398,0.0297247227281332
568.0,0.0,0.0,0.0,0.0,0.0,0.0,0.058348771184682846,-0.04090907424688339,-0.08374494314193726,0.999289870262146,0.015726465731859207,0.012319281697273254,0.031949806958436966
569.0,0.0,0.0,0.0,0.0,0.0,0.0,0.01801329478621483,-0.010092216543853283,-0.018730109557509422,0.9992210865020752,0.016508039087057114,0.011750434525310993,0.03386474400758743
570.0,0.0,0.0,0.0,0.0,0.0,0.0,0.031084377318620682,-0.020496899262070656,-0.0513141006231308,0.9991967678070068,0.015918048098683357,0.013068415224552155,0.03437414765357971
571.0,0.0,0.0,0.0,0.0,0.0,0.0,0.027918076142668724,-0.024257434532046318,-0.056263990700244904,0.9992256164550781,0.014815202914178371,0.012273947708308697,0.03432345390319824
572.0,0.0,0.0,0.0,0.0,0.0,0.0,0.020819678902626038,-0.029059046879410744,-0.03409060463309288,0.9993159174919128,0.012949218973517418,0.011233917437493801,0.032771915197372437
573.0,0.0,0.0,0.0,0.0,0.0,0.0,0.015114868059754372,-0.029325492680072784,-0.02400382235646248,0.9994614124298096,0.010432394221425056,0.010276807472109795,0.02937440387904644
574.0,0.0,0.0,0.0,0.0,0.0,0.0,0.00960939098149538,-0.026198767125606537,-0.013674654066562653,0.9996009469032288,0.007128415163606405,0.009334519505500793,0.02569039911031723
575.0,0.0,0.0,0.0,0.0,0.0,0.0,-0.0030873646028339863,-0.0182048287242651,0.010903400368988514,0.9997086524963379,0.004551457706838846,0.006496804300695658,0.022796476259827614
576.0,0.0,0.0,0.0,0.0,0.0,0.0,-0.004469406325370073,-0.017001839354634285,0.019053271040320396,0.9997838735580444,0.0016736931866034865,0.004778594709932804,0.02016504295170307
577.0,0.0,0.0,0.0,0.0,0.0,0.0,-0.008644522167742252,-0.013514062389731407,0.032431140542030334,0.9998428225517273,-0.001483825733885169,0.0027760264929383993,0.0174507275223732
578.0,0.0,0.0,0.0,0.0,0.0,0.0,-0.014993304386734962,-0.015691284090280533,0.02776791900396347,0.9998725056648254,-0.0042121452279388905,0.00018887843179982156,0.015409504063427448
579.0,0.0,0.0,0.0,0.0,0.0,0.0,-0.025635063648223877,-0.005730369593948126,0.037283677607774734,0.9998822808265686,-0.006582297850400209,-0.0027042573783546686,0.013601554557681084
580.0,0.0,0.0,0.0,0.0,0.0,0.0,-0.03123333677649498,-0.005821814760565758,0.05605404078960419,0.9998762607574463,-0.008879445493221283,-0.004777756053954363,0.012066556140780449
581.0,0.0,0.0,0.0,0.0,0.0,0.0,-0.031013187021017075,-0.0022301767021417618,0.05196518078446388,0.9998613595962524,-0.010720992460846901,-0.006764366757124662,0.010806713253259659
582.0,0.0,0.0,0.0,0.0,0.0,0.0,-0.03323481231927872,0.004624193999916315,0.04284948855638504,0.9998523592948914,-0.012202149257063866,-0.008291684091091156,0.008830150589346886
583.0,0.0,0.0,0.0,0.0,0.0,0.0,-0.03133366256952286,0.004369444213807583,0.04602370783686638,0.9998338222503662,-0.013013790361583233,-0.01033434271812439,0.007505122572183609
584.0,0.0,0.0,0.0,0.0,0.0,0.0,-0.033668167889118195,0.004132140427827835,0.03532223030924797,0.9998147487640381,-0.012622554786503315,-0.012369053438305855,0.007628331892192364
585.0,0.0,0.0,0.0,0.0,0.0,0.0,-0.021346479654312134,0.00668486999347806,0.012206148356199265,0.9997942447662354,-0.012042632326483727,-0.014165883883833885,0.008106067776679993
586.0,0.0,0.0,0.0,0.0,0.0,0.0,-0.028472669422626495,0.018067143857479095,0.006235701497644186,0.999772310256958,-0.010703199543058872,-0.015854330733418465,0.009469250217080116
587.0,0.0,0.0,0.0,0.0,0.0,0.0,-0.03209499642252922,0.0230996236205101,0.01544144470244646,0.9997609257698059,-0.009158561937510967,-0.016027959063649178,0.01171908713877201
588.0,0.0,0.0,0.0,0.0,0.0,0.0,-0.040618814527988434,0.02268943563103676,0.013635934330523014,0.999783456325531,-0.007913079112768173,-0.014542907476425171,0.012609337456524372
589.0,0.0,0.0,0.0,0.0,0.0,0.0,-0.020817268639802933,0.016586216166615486,-0.0042623789049685,0.9998095035552979,-0.006907618138939142,-0.01237612497061491,0.0134196225553751
590.0,0.0,0.0,0.0,0.0,0.0,0.0,-0.021030692383646965,0.01593477837741375,-0.009305876679718494,0.9998177886009216,-0.0053526111878454685,-0.011383970268070698,0.014360685832798481
591.0,0.0,0.0,0.0,0.0,0.0,0.0,-0.011510507203638554,0.006292828358709812,-0.025602392852306366,0.9998258948326111,-0.003922178875654936,-0.009884035214781761,0.015337800607085228
592.0,0.0,0.0,0.0,0.0,0.0,0.0,-0.011055102571845055,0.005834675393998623,-0.024622982367873192,0.9998140931129456,-0.0026146199088543653,-0.009986942633986473,0.016287079080939293
593.0,0.0,0.0,0.0,0.0,0.0,0.0,-0.011755751445889473,0.006584830582141876,-0.01774764247238636,0.9998385310173035,0.0001537062635179609,-0.007461564615368843,0.016350409016013145
594.0,0.0,0.0,0.0,0.0,0.0,0.0,-0.007150876801460981,-0.00019728203187696636,-0.014732717536389828,0.999850332736969,0.0014524642610922456,-0.006813486106693745,0.01583864912390709
595.0,0.0,0.0,0.0,0.0,0.0,0.0,-0.005035873968154192,0.0001001359851215966,-0.011781821958720684,0.9998728632926941,0.002360560931265354,-0.005721635650843382,0.01469875406473875
596.0,0.0,0.0,0.0,0.0,0.0,0.0,-0.0008050983888097107,0.0017432288732379675,-0.012898963876068592,0.999876081943512,0.0033899194095283747,-0.00528130866587162,0.014443540014326572
597.0,0.0,0.0,0.0,0.0,0.0,0.0,0.0035338124725967646,-0.008485806174576283,-0.011835494078695774,0.9998729228973389,0.004142778925597668,-0.00496853468939662,0.014572988264262676
598.0,0.0,0.0,0.0,0.0,0.0,0.0,0.009497459977865219,-0.01583169214427471,-0.009671073406934738,0.999872088432312,0.004757955204695463,-0.005369072314351797,0.014300019480288029
599.0,0.0,0.0,0.0,0.0,0.0,0.0,0.004265512339770794,-0.007268525660037994,0.0012893016682937741,0.9998674392700195,0.0057098837569355965,-0.006322923116385937,0.013875315897166729
600.0,0.0,0.0,0.0,0.0,0.0,0.0,0.0009180720080621541,-0.0077137998305261135,0.008518803864717484,0.999853253364563,0.006505577825009823,-0.007427318021655083,0.013997793197631836
601.0,0.0,0.0,0.0,0.0,0.0,0.0,-0.0018886395264416933,-0.005902503617107868,0.011523444205522537,0.9998345375061035,0.007272062357515097,-0.008545013144612312,0.014319004490971565
602.0,0.0,0.0,0.0,0.0,0.0,0.0,-0.0015558269806206226,-0.0037511789705604315,0.012720937840640545,0.9998565912246704,0.007215097546577454,-0.008239376358687878,0.012918650172650814
603.0,0.0,0.0,0.0,0.0,0.0,0.0,-0.0005779102211818099,-0.0013197925873100758,0.016831064596772194,0.9998656511306763,0.007710857316851616,-0.008365613408386707,0.011800006963312626
604.0,0.0,0.0,0.0,0.0,0.0,0.0,-0.00259455107152462,-0.0005436790524981916,0.024913476780056953,0.9998612403869629,0.008454862050712109,-0.007901711389422417,0.011989516206085682
605.0,0.0,0.0,0.0,0.0,0.0,0.0,0.0016053174622356892,-0.0012331221951171756,0.0132643086835742,0.9998463988304138,0.00947027187794447,-0.007456878665834665,0.012731474824249744
606.0,0.0,0.0,0.0,0.0,0.0,0.0,0.005188440904021263,0.0016642031259834766,0.007011081092059612,0.9998235702514648,0.011261716485023499,-0.007764216046780348,0.012872512452304363
607.0,0.0,0.0,0.0,0.0,0.0,0.0,0.005003647413104773,0.003367680823430419,0.001540557248517871,0.9998284578323364,0.012435391545295715,-0.007597486022859812,0.011450509540736675
608.0,0.0,0.0,0.0,0.0,0.0,0.0,0.008498955518007278,-0.006651046685874462,0.0058355191722512245,0.9998249411582947,0.013500294648110867,-0.008280660025775433,0.009948436170816422
609.0,0.0,0.0,0.0,0.0,0.0,0.0,0.009988485835492611,-0.01777486875653267,0.006849065888673067,0.9998239278793335,0.014417773112654686,-0.009032966569066048,0.007944476790726185
610.0,0.0,0.0,0.0,0.0,0.0,0.0,0.0042343526147305965,-0.013859648257493973,0.012837364338338375,0.999832272529602,0.014868506230413914,-0.008685831911861897,0.00625145947560668
611.0,0.0,0.0,0.0,0.0,0.0,0.0,0.0029225207399576902,-0.005483757238835096,0.005361845251172781,0.9998301863670349,0.015304148197174072,-0.008198302239179611,0.0061577679589390755
612.0,0.0,0.0,0.0,0.0,0.0,0.0,-0.013705826364457607,0.004667244385927916,0.01485443115234375,0.9997875094413757,0.017012039199471474,-0.008796451613307,0.007640194613486528
613.0,0.0,0.0,0.0,0.0,0.0,0.0,-0.005833584349602461,-0.0037738254759460688,0.003154858946800232,0.9997662305831909,0.017909381538629532,-0.00822084303945303,0.008876672014594078
614.0,0.0,0.0,0.0,0.0,0.0,0.0,0.003971923608332872,-0.005687955766916275,-0.015951482579112053,0.9997423887252808,0.018817411735653877,-0.00871994812041521,0.009229258634150028
615.0,0.0,0.0,0.0,0.0,0.0,0.0,-0.015765225514769554,0.0009193021105602384,0.007116764783859253,0.9997249245643616,0.01929926499724388,-0.008581615053117275,0.010212905704975128
616.0,0.0,0.0,0.0,0.0,0.0,0.0,-0.013747379183769226,0.0016629323363304138,0.015057085081934929,0.9996933341026306,0.019971078261733055,-0.008835711516439915,0.011675188317894936
617.0,0.0,0.0,0.0,0.0,0.0,0.0,-0.017611172050237656,0.0023444558028131723,0.01978946477174759,0.9996190667152405,0.021746454760432243,-0.009183128364384174,0.014306798577308655
618.0,0.0,0.0,0.0,0.0,0.0,0.0,-0.009457306936383247,-0.0014968793839216232,-0.015848612412810326,0.999567985534668,0.022858085110783577,-0.008181538432836533,0.01655871979892254
619.0,0.0,0.0,0.0,0.0,0.0,0.0,-0.0092927860096097,-0.0029357983730733395,-0.007760265842080116,0.9995150566101074,0.02387537620961666,-0.007718175183981657,0.018438387662172318
620.0,0.0,0.0,0.0,0.0,0.0,0.0,-0.017859304323792458,0.0036962535232305527,0.0064986031502485275,0.9994184374809265,0.02581794746220112,-0.00785777997225523,0.020850375294685364
621.0,0.0,0.0,0.0,0.0,0.0,0.0,-0.015545225702226162,-9.139466419583187e-05,-0.004708290100097656,0.9993324875831604,0.02760736458003521,-0.006794877350330353,0.022936182096600533
622.0,0.0,0.0,0.0,0.0,0.0,0.0,-0.002698993543162942,0.003747118404135108,-0.009840371087193489,0.999248743057251,0.02884950488805771,-0.00584301957860589,0.025208791717886925
623.0,0.0,0.0,0.0,0.0,0.0,0.0,-0.011542734690010548,0.0041370694525539875,-0.01632690615952015,0.9991539120674133,0.030804239213466644,-0.005421617068350315,0.026704009622335434
624.0,0.0,0.0,0.0,0.0,0.0,0.0,-0.019424932077527046,0.008072411641478539,0.007569229695945978,0.9990149140357971,0.033331722021102905,-0.005991289392113686,0.028676440939307213
625.0,0.0,0.0,0.0,0.0,0.0,0.0,-0.01261651050299406,-0.004446185659617186,-0.017048725858330727,0.9989647269248962,0.03445763140916824,-0.0037617641501128674,0.029458746314048767
626.0,0.0,0.0,0.0,0.0,0.0,0.0,0.0016204824205487967,-0.004529981408268213,-0.03571280092000961,0.9989179372787476,0.0354498028755188,-0.002829824574291706,0.029971173033118248
627.0,0.0,0.0,0.0,0.0,0.0,0.0,-0.002242883201688528,-0.010206984356045723,-0.015598656609654427,0.9987955689430237,0.03711431100964546,-0.0030276791658252478,0.03195272758603096
628.0,0.0,0.0,0.0,0.0,0.0,0.0,1.5341338439611718e-05,-0.007728260941803455,-0.02197359688580036,0.9986575841903687,0.038269881159067154,-0.0035761420149356127,0.034723520278930664
629.0,0.0,0.0,0.0,0.0,0.0,0.0,-0.004327081143856049,-0.004354733508080244,-0.01351565308868885,0.9985197186470032,0.03948219120502472,-0.004525263328105211,0.03714306280016899
630.0,0.0,0.0,0.0,0.0,0.0,0.0,0.004599148873239756,-0.012323602102696896,-0.03461909666657448,0.9984616637229919,0.03899678215384483,-0.003048761049285531,0.0392981581389904
631.0,0.0,0.0,0.0,0.0,0.0,0.0,0.006332799792289734,-0.007058992981910706,-0.017560767009854317,0.9984050989151001,0.03753069043159485,-0.003043514909222722,0.04206670820713043
632.0,0.0,0.0,0.0,0.0,0.0,0.0,-0.0015151980333030224,0.00024417694658041,-0.008704110980033875,0.9983489513397217,0.03584355488419533,-0.0018790827598422766,0.044843532145023346
633.0,0.0,0.0,0.0,0.0,0.0,0.0,-0.009439636021852493,-0.003681899979710579,0.005308694206178188,0.9983179569244385,0.03468367084860802,-0.001276143011637032,0.046440284699201584
634.0,0.0,0.0,0.0,0.0,0.0,0.0,0.0006607330869883299,-0.01393035240471363,-0.012877973727881908,0.9982690811157227,0.03323505073785782,0.0005360227660275996,0.04851732775568962
635.0,0.0,0.0,0.0,0.0,0.0,0.0,-0.012877649627625942,-0.00635144766420126,0.06304468959569931,0.9980910420417786,0.033776022493839264,0.0009400856797583401,0.05169796943664551
636.0,0.0,0.0,0.0,0.0,0.0,0.0,0.003543033031746745,-0.012119858525693417,-0.005167746916413307,0.9979138374328613,0.03325016051530838,0.00514307850971818,0.05509788170456886
637.0,0.0,0.0,0.0,0.0,0.0,0.0,0.009693172760307789,-0.029172027483582497,-0.0394197478890419,0.9978666305541992,0.03312303498387337,0.007196832913905382,0.05579342320561409
638.0,0.0,0.0,0.0,0.0,0.0,0.0,0.016519442200660706,-0.028012460097670555,-0.03195083141326904,0.9979384541511536,0.03235049173235893,0.010088165290653706,0.05450256168842316
639.0,0.0,0.0,0.0,0.0,0.0,0.0,0.0070699164643883705,-0.014690053649246693,-0.019528863951563835,0.9980665445327759,0.03212759643793106,0.01115470752120018,0.052022114396095276
640.0,0.0,0.0,0.0,0.0,0.0,0.0,-0.006471246015280485,-0.01096185203641653,-0.00492699583992362,0.9981831908226013,0.031918708235025406,0.012131394818425179,0.0496412068605423
641.0,0.0,0.0,0.0,0.0,0.0,0.0,-0.0017569639021530747,-0.03807408735156059,-0.03114980459213257,0.9983803033828735,0.030862992629408836,0.012219266965985298,0.04620593786239624
642.0,0.0,0.0,0.0,0.0,0.0,0.0,0.012815115042030811,-0.04640750214457512,-0.036969106644392014,0.9986308217048645,0.028356924653053284,0.012501508928835392,0.042143888771533966
643.0,0.0,0.0,0.0,0.0,0.0,0.0,0.01094977930188179,-0.026028411462903023,-0.01640682853758335,0.9988303184509277,0.026802249252796173,0.01101102214306593,0.0387079082429409
644.0,0.0,0.0,0.0,0.0,0.0,0.0,0.003251362591981888,-0.025305844843387604,0.0036781535018235445,0.9989123940467834,0.025621682405471802,0.010126961395144463,0.03761550039052963
645.0,0.0,0.0,0.0,0.0,0.0,0.0,-0.011078286916017532,-0.004923407454043627,-0.005344046745449305,0.9988908767700195,0.026908300817012787,0.007825139909982681,0.03783849999308586
646.0,0.0,0.0,0.0,0.0,0.0,0.0,-0.017564021050930023,0.00910833477973938,0.025460222736001015,0.9989032745361328,0.02759581431746483,0.007182394620031118,0.037135668098926544
647.0,0.0,0.0,0.0,0.0,0.0,0.0,0.006959665101021528,-0.022065743803977966,-0.014357304200530052,0.9989575147628784,0.026114562526345253,0.009746796451508999,0.036151282489299774
648.0,0.0,0.0,0.0,0.0,0.0,0.0,0.0013241596752777696,-0.014159448444843292,-0.0007122227107174695,0.9990235567092896,0.025806672871112823,0.008717875927686691,0.03478516638278961
649.0,0.0,0.0,0.0,0.0,0.0,0.0,-0.0044695003889501095,-0.016326135024428368,-0.006626548711210489,0.9990274906158447,0.025462450459599495,0.010225760750472546,0.03451273590326309
650.0,0.0,0.0,0.0,0.0,0.0,0.0,0.005664448719471693,-0.028199464082717896,-0.026293963193893433,0.9989923238754272,0.026588425040245056,0.008319569751620293,0.03518832474946976
651.0,0.0,0.0,0.0,0.0,0.0,0.0,-0.012383738532662392,-0.015641486272215843,0.008297356776893139,0.9988927245140076,0.02743414416909218,0.007185247726738453,0.03753751888871193
652.0,0.0,0.0,0.0,0.0,0.0,0.0,-0.013280128128826618,-0.010857795365154743,0.015166448429226875,0.9988386034965515,0.028230732306838036,0.006017119623720646,0.0385783426463604
653.0,0.0,0.0,0.0,0.0,0.0,0.0,0.0017162071308121085,-0.017198102548718452,-0.027012459933757782,0.998842716217041,0.02767270803451538,0.0075801159255206585,0.038600556552410126
654.0,0.0,0.0,0.0,0.0,0.0,0.0,0.001017980044707656,-0.013450024649500847,-0.034361645579338074,0.9988340139389038,0.027703261002898216,0.006223303731530905,0.03904375061392784
655.0,0.0,0.0,0.0,0.0,0.0,0.0,-0.014906598255038261,-0.005378183908760548,0.008477085269987583,0.9987590312957764,0.028439586982131004,0.004047312308102846,0.040684156119823456
656.0,0.0,0.0,0.0,0.0,0.0,0.0,-0.015843598172068596,-0.005586060229688883,0.013828099705278873,0.9987110495567322,0.028403697535395622,0.0037795216776430607,0.041896019130945206
657.0,0.0,0.0,0.0,0.0,0.0,0.0,-0.004567767959088087,-0.007045011036098003,-0.008928553201258183,0.9987147450447083,0.027222532778978348,0.00451450701802969,0.0425141416490078
658.0,0.0,0.0,0.0,0.0,0.0,0.0,-0.006622173823416233,-0.003628542646765709,0.0004251603386364877,0.9986931681632996,0.02640877291560173,0.003806901630014181,0.04358918219804764
659.0,0.0,0.0,0.0,0.0,0.0,0.0,-0.0049238428473472595,-0.008447795175015926,0.0033207549713552,0.9987072944641113,0.025006119161844254,0.0039692409336566925,0.04407505691051483
660.0,0.0,0.0,0.0,0.0,0.0,0.0,-0.002593032317236066,-0.005999858491122723,0.0031938953325152397,0.9987842440605164,0.023294761776924133,0.003826133906841278,0.043276116251945496
661.0,0.0,0.0,0.0,0.0,0.0,0.0,-0.0031331018544733524,-0.006159973796457052,0.011166614480316639,0.9988004565238953,0.022628121078014374,0.003266673069447279,0.04330046474933624
662.0,0.0,0.0,0.0,0.0,0.0,0.0,-0.0037175954785197973,-0.008569651283323765,0.016441335901618004,0.9988369345664978,0.021631015464663506,0.00366808008402586,0.0429355762898922
663.0,0.0,0.0,0.0,0.0,0.0,0.0,-0.002907747635617852,-0.010628738440573215,0.003675021231174469,0.9988561868667603,0.02108420990407467,0.003999978769570589,0.04272953420877457
664.0,0.0,0.0,0.0,0.0,0.0,0.0,0.00033025641459971666,-0.01677015982568264,-0.002806276548653841,0.998847484588623,0.020797261968255043,0.0037152820732444525,0.04309805482625961
665.0,0.0,0.0,0.0,0.0,0.0,0.0,0.003752664662897587,-0.02167762629687786,0.00464648986235261,0.9988727569580078,0.020104827359318733,0.003643609117716551,0.042844951152801514
666.0,0.0,0.0,0.0,0.0,0.0,0.0,0.0014565130695700645,-0.018833452835679054,0.00638227304443717,0.9989074468612671,0.0197643730789423,0.0036345371045172215,0.04219070449471474
667.0,0.0,0.0,0.0,0.0,0.0,0.0,0.0038457277696579695,-0.018424248322844505,0.010410789400339127,0.9989469647407532,0.018977485597133636,0.004333082586526871,0.04154684767127037
668.0,0.0,0.0,0.0,0.0,0.0,0.0,0.008741476573050022,-0.017716795206069946,0.008792866952717304,0.9990143179893494,0.01789470575749874,0.005659759044647217,0.04022790864109993
669.0,0.0,0.0,0.0,0.0,0.0,0.0,0.010205687955021858,-0.018270093947649002,-0.0029823435470461845,0.998996913433075,0.018388623371720314,0.00532756932079792,0.0404815711081028
670.0,0.0,0.0,0.0,0.0,0.0,0.0,0.01077248901128769,-0.02066381275653839,9.917325951391831e-05,0.998982310295105,0.018640395253896713,0.005153139121830463,0.04074670746922493
671.0,0.0,0.0,0.0,0.0,0.0,0.0,0.00880006980150938,-0.01597573794424534,-0.002793758176267147,0.998988151550293,0.018618471920490265,0.005221849773079157,0.040604304522275925
672.0,0.0,0.0,0.0,0.0,0.0,0.0,0.008603664115071297,-0.010791145265102386,0.0022872474510222673,0.9990293383598328,0.01791224628686905,0.005197341553866863,0.039908863604068756
673.0,0.0,0.0,0.0,0.0,0.0,0.0,0.010333270765841007,-0.011633038520812988,-0.001734192599542439,0.9990577697753906,0.01737232506275177,0.0047574290074408054,0.039487309753894806
674.0,0.0,0.0,0.0,0.0,0.0,0.0,0.011684942059218884,-0.021277237683534622,-0.0007919776835478842,0.999065101146698,0.01689806580543518,0.004580199718475342,0.039526574313640594
675.0,0.0,0.0,0.0,0.0,0.0,0.0,0.008363822475075722,0.001004750025458634,0.0050905984826385975,0.9990810751914978,0.01598411425948143,0.004998252727091312,0.03945327550172806
676.0,0.0,0.0,0.0,0.0,0.0,0.0,0.003268561093136668,0.0030315727926790714,0.013812636956572533,0.9990816116333008,0.015859127044677734,0.004657430108636618,0.03953171521425247
677.0,0.0,0.0,0.0,0.0,0.0,0.0,0.0034190560691058636,-0.0009184899972751737,0.0001251073699677363,0.9991344213485718,0.014644053764641285,0.005495578050613403,0.03854641690850258
678.0,0.0,0.0,0.0,0.0,0.0,0.0,0.006140677258372307,0.008428690023720264,-0.00829436257481575,0.9991847276687622,0.013403083197772503,0.005944861099123955,0.037617068737745285
679.0,0.0,0.0,0.0,0.0,0.0,0.0,0.004177923779934645,0.010687488131225109,-0.00020605625468306243,0.9992169141769409,0.012340763583779335,0.005305730737745762,0.037219855934381485
680.0,0.0,0.0,0.0,0.0,0.0,0.0,-0.0067724622786045074,0.01595962606370449,0.013986239209771156,0.9992061257362366,0.011736219748854637,0.004139990080147982,0.037845347076654434
681.0,0.0,0.0,0.0,0.0,0.0,0.0,-0.0006754541536793113,0.01610684022307396,0.00035562884295359254,0.9991775155067444,0.011054090224206448,0.002652471186593175,0.038928743451833725
682.0,0.0,0.0,0.0,0.0,0.0,0.0,-0.0017120634438470006,0.012970764189958572,-0.004646433051675558,0.9991384744644165,0.010285446420311928,0.0007068767445161939,0.04019952565431595
683.0,0.0,0.0,0.0,0.0,0.0,0.0,-0.003982369787991047,0.014922947622835636,-0.003919464536011219,0.9991351962089539,0.009144224226474762,-0.0006961343460716307,0.04055962711572647
684.0,0.0,0.0,0.0,0.0,0.0,0.0,-0.012932127341628075,0.026652561500668526,0.02203807607293129,0.9991295337677002,0.00827083457261324,-0.002805339405313134,0.04078955203294754
685.0,0.0,0.0,0.0,0.0,0.0,0.0,-0.022600430995225906,0.02159326709806919,0.025833887979388237,0.9990912079811096,0.007733914535492659,-0.0031967086251825094,0.04179423302412033
686.0,0.0,0.0,0.0,0.0,0.0,0.0,-0.00697309011593461,0.02007206901907921,0.006768905557692051,0.9991145730018616,0.006651746574789286,-0.0024837094824761152,0.041469041258096695
687.0,0.0,0.0,0.0,0.0,0.0,0.0,-0.003091671736910939,0.013028779998421669,0.019152579829096794,0.9991308450698853,0.005729034077376127,-0.001582913100719452,0.04126053303480148
688.0,0.0,0.0,0.0,0.0,0.0,0.0,0.003710564225912094,0.005165133625268936,0.00119609828107059,0.9989989995956421,0.004845357965677977,-0.003119339235126972,0.04436168447136879
689.0,0.0,0.0,0.0,0.0,0.0,0.0,0.0004373831325210631,-0.0022497123572975397,0.01341305673122406,0.9989335536956787,0.004670428112149239,-0.004361170809715986,0.04572908952832222
690.0,0.0,0.0,0.0,0.0,0.0,0.0,0.002833350794389844,-0.005818279460072517,0.019144225865602493,0.998961329460144,0.0037842646706849337,-0.004166744649410248,0.04521863907575607
691.0,0.0,0.0,0.0,0.0,0.0,0.0,0.012732138857245445,-0.008913659490644932,-0.0029416403267532587,0.9990448355674744,0.002054715994745493,-0.003114602994173765,0.0435369536280632
692.0,0.0,0.0,0.0,0.0,0.0,0.0,0.0067886668257415295,-0.005477033089846373,0.010634634643793106,0.9991160035133362,0.001194451004266739,-0.0034886891953647137,0.04187638312578201
693.0,0.0,0.0,0.0,0.0,0.0,0.0,0.00016915950982365757,-0.004737840034067631,0.028353124856948853,0.9991509914398193,0.0013203411363065243,-0.003650628263130784,0.0410163551568985
694.0,0.0,0.0,0.0,0.0,0.0,0.0,0.0061311679892241955,-0.00010187336010858417,0.011772983707487583,0.9992138147354126,0.001794628449715674,-0.0037484096828848124,0.03942688927054405
695.0,0.0,0.0,0.0,0.0,0.0,0.0,0.011441655457019806,-0.007699189707636833,-0.0030607739463448524,0.9993229508399963,0.0014614060055464506,-0.003271762514486909,0.036615125834941864
696.0,0.0,0.0,0.0,0.0,0.0,0.0,0.005816739052534103,-0.001480061560869217,0.006769095081835985,0.9994134902954102,0.001601012540049851,-0.0033601836767047644,0.03404121473431587
697.0,0.0,0.0,0.0,0.0,0.0,0.0,0.005579042714089155,-0.0017458803486078978,-0.005652233026921749,0.9994911551475525,0.0018343846313655376,-0.0030208639800548553,0.03169958293437958
698.0,0.0,0.0,0.0,0.0,0.0,0.0,0.003298812545835972,-0.0033609254751354456,9.029330249177292e-05,0.9995506405830383,0.00228591775521636,-0.0030752108432352543,0.029728876426815987
699.0,0.0,0.0,0.0,0.0,0.0,0.0,0.006183022167533636,0.002665472449734807,-0.016793670132756233,0.9996089339256287,0.0021723418030887842,-0.0019521265057846904,0.027809564024209976
700.0,0.0,0.0,0.0,0.0,0.0,0.0,-0.005511681083589792,0.01348167471587658,-0.006480158306658268,0.9996640682220459,0.0023125039879232645,-0.0020889551378786564,0.025729576125741005
701.0,0.0,0.0,0.0,0.0,0.0,0.0,-0.006020682863891125,0.0141774732619524,0.0028679389506578445,0.9996916055679321,0.0022909650579094887,-0.0011854404583573341,0.0246986486017704
702.0,0.0,0.0,0.0,0.0,0.0,0.0,-0.0019318889826536179,0.011637430638074875,-0.014066575095057487,0.9997119307518005,0.002373399678617716,-0.0001160148240160197,0.02388213947415352
703.0,0.0,0.0,0.0,0.0,0.0,0.0,-0.0028170589357614517,0.005300816614180803,-0.02767563797533512,0.9997107982635498,0.00306877214461565,-0.0002116437826771289,0.023850489407777786
704.0,0.0,0.0,0.0,0.0,0.0,0.0,-0.01066412404179573,0.0012039818102493882,-0.01571238413453102,0.9997161030769348,0.003133184276521206,-0.0007723105954937637,0.02360769547522068
705.0,0.0,0.0,0.0,0.0,0.0,0.0,-0.012805315665900707,-0.0005386762786656618,0.0004231985949445516,0.9997097849845886,0.003168608760461211,-0.0013935825554654002,0.023842865601181984
706.0,0.0,0.0,0.0,0.0,0.0,0.0,-0.0042837332002818584,0.0041830153204500675,-0.02812092937529087,0.9996871948242188,0.0031940736807882786,-0.0013910435372963548,0.024767553433775902
707.0,0.0,0.0,0.0,0.0,0.0,0.0,-0.008951064199209213,0.006363118998706341,-0.02149253524839878,0.9996950030326843,0.004627535119652748,-0.0005236035794951022,0.0242527537047863
708.0,0.0,0.0,0.0,0.0,0.0,0.0,-0.019174635410308838,0.00780114671215415,0.012434572912752628,0.999653697013855,0.005527992267161608,-0.0011336107272654772,0.02570127509534359
709.0,0.0,0.0,0.0,0.0,0.0,0.0,-0.017278634011745453,0.010339915752410889,-0.0003458071732893586,0.99954754114151,0.0074918270111083984,-0.002212642692029476,0.02904592640697956
710.0,0.0,0.0,0.0,0.0,0.0,0.0,-0.030167970806360245,0.014947794377803802,0.00833924114704132,0.9994178414344788,0.008895639330148697,-0.002366580069065094,0.03285148739814758
711.0,0.0,0.0,0.0,0.0,0.0,0.0,-0.017266247421503067,0.0042152865789830685,-0.01447200309485197,0.9993717074394226,0.008850819431245327,0.0006527374498546124,0.034314461052417755
712.0,0.0,0.0,0.0,0.0,0.0,0.0,0.0009437598055228591,0.0040522110648453236,-0.02573000080883503,0.999346137046814,0.009424745105206966,0.00101791403722018,0.0348922498524189
713.0,0.0,0.0,0.0,0.0,0.0,0.0,-0.00826792698353529,0.0076539297588169575,0.0027236922178417444,0.999364972114563,0.009595769457519054,0.0019695470109581947,0.03425933048129082
714.0,0.0,0.0,0.0,0.0,0.0,0.0,-0.005401209462434053,0.0052718427032232285,0.011821313761174679,0.9994106888771057,0.009538615122437477,0.003929293714463711,0.03273903205990791
715.0,0.0,0.0,0.0,0.0,0.0,0.0,4.986029307474382e-05,0.004863175563514233,-0.003315419889986515,0.99945068359375,0.009604964405298233,0.005021116696298122,0.031319018453359604
716.0,0.0,0.0,0.0,0.0,0.0,0.0,0.001490372116677463,0.013289161957800388,0.00375001085922122,0.999488353729248,0.009878439828753471,0.005935911554843187,0.029839474707841873
717.0,0.0,0.0,0.0,0.0,0.0,0.0,0.0072290729731321335,0.01027915719896555,9.215556201525033e-05,0.9995248913764954,0.009981498122215271,0.00658485759049654,0.028408730402588844
718.0,0.0,0.0,0.0,0.0,0.0,0.0,0.00786800030618906,0.0033977110870182514,-0.013420441187918186,0.9995781183242798,0.009406854398548603,0.0074988724663853645,0.02643546462059021
719.0,0.0,0.0,0.0,0.0,0.0,0.0,0.01695513352751732,0.00044431633432395756,-0.008829745464026928,0.9996188879013062,0.009074303321540356,0.008080127649009228,0.02478981204330921
720.0,0.0,0.0,0.0,0.0,0.0,0.0,0.02132166363298893,-0.004754104185849428,-0.011256433092057705,0.9996557831764221,0.008724646642804146,0.008109664544463158,0.023379987105727196
721.0,0.0,0.0,0.0,0.0,0.0,0.0,0.012350275181233883,-0.0038617339450865984,0.0008914104546420276,0.9996923804283142,0.007983841001987457,0.007028017658740282,0.02240762859582901
722.0,0.0,0.0,0.0,0.0,0.0,0.0,0.01014399528503418,-0.008596442639827728,-0.0019535289611667395,0.9997146725654602,0.006966612301766872,0.006224706303328276,0.021985232830047607
723.0,0.0,0.0,0.0,0.0,0.0,0.0,0.018170339986681938,-0.011360958218574524,0.009559853933751583,0.9997601509094238,0.005688800010830164,0.005899779498577118,0.020310020074248314
724.0,0.0,0.0,0.0,0.0,0.0,0.0,0.021622125059366226,-0.010830060578882694,0.00861305184662342,0.9998114705085754,0.0036997159477323294,0.006580190733075142,0.01789415441453457
