,Position_X,Position_Y,Position_Z,Velocity_X,Velocity_Y,Velocity_Z,Acceleration_X,Acceleration_Y,Acceleration_Z,Quaterion_0,Quaterion_1,Quaterion_2,Quaterion_3
51.0,0.0,0.0,0.0,0.0,0.0,0.0,-0.03887152671813965,0.0032095536589622498,-0.013609511777758598,1.0,-1.734723475976807e-17,-4.81482486096809e-35,-1.3877787807814457e-17
52.0,0.0,0.0,0.0,0.0,0.0,0.0,-0.035027481615543365,0.005180950742214918,-0.018427932634949684,0.9999988675117493,0.000207073288038373,0.0010484124068170786,-0.0010823672637343407
53.0,0.0,0.0,0.0,0.0,0.0,0.0,-0.02972882054746151,0.008952626027166843,-0.01790597476065159,0.999997079372406,0.0006966882501728833,0.0020425766706466675,-0.0011114170774817467
54.0,0.0,0.0,0.0,0.0,0.0,0.0,-0.024432603269815445,0.01273168995976448,-0.01645178720355034,0.9999943375587463,0.0011783725349232554,0.0029043364338576794,-0.0012470841174945235
55.0,0.0,0.0,0.0,0.0,0.0,0.0,-0.019868362694978714,0.015707070007920265,-0.01475212350487709,0.9999904036521912,0.0017275133868679404,0.003806121414527297,-0.001309721264988184
56.0,0.0,0.0,0.0,0.0,0.0,0.0,-0.014936958439648151,0.013892236165702343,-0.01714296080172062,0.9999843835830688,0.0022227992303669453,0.004832831211388111,-0.001729677664116025
57.0,0.0,0.0,0.0,0.0,0.0,0.0,-0.001304284785874188,0.0023279625456780195,-0.05710117146372795,0.9999771118164062,0.0024743916001170874,0.006007200572639704,-0.0018972278339788318
58.0,0.0,0.0,0.0,0.0,0.0,0.0,4.538978464552201e-05,0.008772410452365875,-0.021158229559659958,0.9999764561653137,0.0022653345949947834,0.006415320094674826,-0.0008894079364836216
59.0,0.0,0.0,0.0,0.0,0.0,0.0,0.0014683572808280587,0.0128374844789505,-0.001954113831743598,0.999975323677063,0.0024940466973930597,0.006565191317349672,-0.00013177722576074302
60.0,0.0,0.0,0.0,0.0,0.0,0.0,-0.0032801900524646044,0.003719172440469265,-0.0014542096760123968,0.9999766945838928,0.0022109337151050568,0.006383415311574936,0.0009618518524803221
61.0,0.0,0.0,0.0,0.0,0.0,0.0,-0.005812541116029024,0.00504839513450861,0.02594751864671707,0.9999766945838928,0.0022524180822074413,0.006165358237922192,0.0018784342100843787
62.0,0.0,0.0,0.0,0.0,0.0,0.0,-0.008197148330509663,0.0002448258164804429,0.019944850355386734,0.9999772310256958,0.0017927346052601933,0.006072721444070339,0.0023237906862050295
63.0,0.0,0.0,0.0,0.0,0.0,0.0,-0.014292411506175995,-0.006821772549301386,0.012799276039004326,0.9999745488166809,0.0014760623453184962,0.006085427477955818,0.003417035099118948
64.0,0.0,0.0,0.0,0.0,0.0,0.0,-0.021862659603357315,-0.008120658807456493,0.009036216884851456,0.9999707937240601,0.0010603893315419555,0.0062614488415420055,0.004249689634889364
65.0,0.0,0.0,0.0,0.0,0.0,0.0,-0.02359071373939514,-0.00629329401999712,0.006069574970752001,0.9999651908874512,0.0009717870852909982,0.006743994541466236,0.00482093496248126
66.0,0.0,0.0,0.0,0.0,0.0,0.0,-0.01922001503407955,1.545282793813385e-05,0.001324785640463233,0.9999593496322632,0.0009201148641295731,0.007422786671668291,0.00503486068919301
67.0,0.0,0.0,0.0,0.0,0.0,0.0,-0.011397172696888447,0.006090099923312664,-0.00435853935778141,0.9999574422836304,0.0010901275090873241,0.007895881310105324,0.004644261673092842
68.0,0.0,0.0,0.0,0.0,0.0,0.0,-0.0023017043713480234,0.01250517275184393,-0.010009677149355412,0.9999518394470215,0.0012434525415301323,0.008700178936123848,0.004366941750049591
69.0,0.0,0.0,0.0,0.0,0.0,0.0,0.005084032192826271,0.015149774961173534,-0.012885105796158314,0.9999448657035828,0.001489484217017889,0.009602284990251064,0.003979908302426338
70.0,0.0,0.0,0.0,0.0,0.0,0.0,0.011882735416293144,0.016949985176324844,-0.01675473339855671,0.9999381899833679,0.0020426588598638773,0.010054858401417732,0.004280228167772293
71.0,0.0,0.0,0.0,0.0,0.0,0.0,0.014606242999434471,0.017731761559844017,-0.017016885802149773,0.9999294281005859,0.002660208148881793,0.010427176021039486,0.005035125184804201
72.0,0.0,0.0,0.0,0.0,0.0,0.0,0.0174259040504694,0.019733460620045662,-0.007112988270819187,0.9999226331710815,0.0031309130135923624,0.01048800628632307,0.005909942556172609
73.0,0.0,0.0,0.0,0.0,0.0,0.0,0.017152637243270874,0.02240356244146824,0.0034190251026302576,0.9999160766601562,0.0036470270715653896,0.010219908319413662,0.0070799291133880615
74.0,0.0,0.0,0.0,0.0,0.0,0.0,0.014387041330337524,0.021405430510640144,0.011021305806934834,0.9999116063117981,0.003911355044692755,0.00996424350887537,0.007882894016802311
75.0,0.0,0.0,0.0,0.0,0.0,0.0,0.012748428620398045,0.019393950700759888,0.013811388052999973,0.9999087452888489,0.00396885396912694,0.009750325232744217,0.008465896360576153
76.0,0.0,0.0,0.0,0.0,0.0,0.0,0.009622138924896717,0.017483092844486237,0.012915217317640781,0.9999046325683594,0.004001316148787737,0.009472185745835304,0.009219443425536156
77.0,0.0,0.0,0.0,0.0,0.0,0.0,0.006723012775182724,0.016272425651550293,0.013451171107590199,0.9999004006385803,0.0043009426444768906,0.009275073185563087,0.009729993529617786
78.0,0.0,0.0,0.0,0.0,0.0,0.0,0.0027279513888061047,0.015896636992692947,0.011488155461847782,0.9998987317085266,0.004262679722160101,0.00930996984243393,0.009886297397315502
79.0,0.0,0.0,0.0,0.0,0.0,0.0,-0.0013628737069666386,0.015511042438447475,0.004182975739240646,0.9999012351036072,0.004318489693105221,0.009240100160241127,0.009670582599937916
80.0,0.0,0.0,0.0,0.0,0.0,0.0,-0.0005174094112589955,0.018593529239296913,-0.0017067298758774996,0.9998971223831177,0.004843348171561956,0.00908910296857357,0.009980768896639347
81.0,0.0,0.0,0.0,0.0,0.0,0.0,-0.0025871361140161753,0.018864376470446587,-0.0063700489699840546,0.9998946785926819,0.005135385785251856,0.009155943058431149,0.010023612529039383
82.0,0.0,0.0,0.0,0.0,0.0,0.0,-0.005452573765069246,0.01668870821595192,-0.00899947714060545,0.9998973608016968,0.005187146831303835,0.009174849838018417,0.009702121838927269
83.0,0.0,0.0,0.0,0.0,0.0,0.0,-0.0049446951597929,0.016728149726986885,-0.014719334430992603,0.9998910427093506,0.0054162475280463696,0.00914149358868599,0.010249429382383823
84.0,0.0,0.0,0.0,0.0,0.0,0.0,-0.005062608513981104,0.01582537591457367,-0.01630699448287487,0.9998831748962402,0.005764801986515522,0.009159127250313759,0.010795226320624352
85.0,0.0,0.0,0.0,0.0,0.0,0.0,-0.004642246291041374,0.015231254510581493,-0.016745302826166153,0.9998757243156433,0.0058874692767858505,0.009381077252328396,0.011218275874853134
86.0,0.0,0.0,0.0,0.0,0.0,0.0,-0.0055007911287248135,0.014252007007598877,-0.01651032082736492,0.9998660683631897,0.006098391488194466,0.00945428665727377,0.011883803643286228
87.0,0.0,0.0,0.0,0.0,0.0,0.0,-0.005541273392736912,0.012088864110410213,-0.011070194654166698,0.99986332654953,0.006065782625228167,0.009477250277996063,0.012113306671380997
88.0,0.0,0.0,0.0,0.0,0.0,0.0,-0.004619013052433729,0.012487085536122322,-0.0075116828083992004,0.9998586177825928,0.006086057052016258,0.00973881408572197,0.01228247582912445
89.0,0.0,0.0,0.0,0.0,0.0,0.0,-0.003807642264291644,0.009994502179324627,-0.0049694739282131195,0.9998577833175659,0.006085177883505821,0.009985563345253468,0.012150032445788383
90.0,0.0,0.0,0.0,0.0,0.0,0.0,0.0017879718216136098,0.001862885314039886,-0.030687684193253517,0.9998584389686584,0.006220799870789051,0.010539716109633446,0.011543829925358295
91.0,0.0,0.0,0.0,0.0,0.0,0.0,0.01012265682220459,-0.001913839136250317,-0.03472388908267021,0.9998416900634766,0.005632946267724037,0.010782396420836449,0.012985438108444214
92.0,0.0,0.0,0.0,0.0,0.0,0.0,0.01098159234970808,0.008938110433518887,0.014507303945720196,0.9998307228088379,0.005392258986830711,0.01068568229675293,0.013972551561892033
93.0,0.0,0.0,0.0,0.0,0.0,0.0,0.011608920991420746,0.0005661530303768814,-0.005615634843707085,0.9998210072517395,0.005269619170576334,0.010259236209094524,0.014999517239630222
94.0,0.0,0.0,0.0,0.0,0.0,0.0,0.002613585442304611,-0.0020149212796241045,0.021824754774570465,0.9998179078102112,0.00466838339343667,0.009425638243556023,0.015922708436846733
95.0,0.0,0.0,0.0,0.0,0.0,0.0,-0.0014301086775958538,-0.002680534264072776,0.030847342684864998,0.9998062252998352,0.004126089159399271,0.008767037652432919,0.017136910930275917
96.0,0.0,0.0,0.0,0.0,0.0,0.0,-0.007570152170956135,-0.004306324757635593,0.020004061982035637,0.9997942447662354,0.00400686776265502,0.008166536688804626,0.018131857737898827
97.0,0.0,0.0,0.0,0.0,0.0,0.0,-0.011001517064869404,-0.003571097506210208,0.013723342679440975,0.9997982978820801,0.003640238894149661,0.007977812550961971,0.018069341778755188
98.0,0.0,0.0,0.0,0.0,0.0,0.0,-0.013151228427886963,-0.0017770309932529926,0.006392909213900566,0.9998108744621277,0.0034511173143982887,0.008111986331641674,0.01733427867293358
99.0,0.0,0.0,0.0,0.0,0.0,0.0,-0.01139120478183031,0.0023088082671165466,-0.0030264677479863167,0.9998104572296143,0.003541709389537573,0.008274051360785961,0.017263224348425865
100.0,0.0,0.0,0.0,0.0,0.0,0.0,-0.004027754534035921,0.007420678157359362,-0.011700375936925411,0.9998176097869873,0.003604989033192396,0.008611985482275486,0.0166609063744545
101.0,0.0,0.0,0.0,0.0,0.0,0.0,0.003547736443579197,0.013296221382915974,-0.023273786529898643,0.9998255968093872,0.0036791942548006773,0.00885274913161993,0.016025761142373085
102.0,0.0,0.0,0.0,0.0,0.0,0.0,0.004394375253468752,0.013831134885549545,-0.024166995659470558,0.9998224377632141,0.0037459549494087696,0.008897272869944572,0.016184141859412193
103.0,0.0,0.0,0.0,0.0,0.0,0.0,0.004569493234157562,0.014714475721120834,-0.01947031542658806,0.99981689453125,0.004114114213734865,0.008908698335289955,0.016427522525191307
104.0,0.0,0.0,0.0,0.0,0.0,0.0,0.003636755282059312,0.01599004678428173,-0.009806993417441845,0.9998149871826172,0.004044559318572283,0.008931864984333515,0.016548654064536095
105.0,0.0,0.0,0.0,0.0,0.0,0.0,0.0008160567376762629,0.015270206145942211,-5.232607509242371e-05,0.9998096227645874,0.003987930249422789,0.008597854524850845,0.01705448143184185
106.0,0.0,0.0,0.0,0.0,0.0,0.0,-0.0036990863736718893,0.012914166785776615,0.003760928986594081,0.9998031258583069,0.0038165126461535692,0.0084231561049819,0.01755429618060589
107.0,0.0,0.0,0.0,0.0,0.0,0.0,-0.005516557954251766,0.012039748020470142,0.005038890987634659,0.9998011589050293,0.003714298363775015,0.008333531208336353,0.017730100080370903
108.0,0.0,0.0,0.0,0.0,0.0,0.0,-0.007541893515735865,0.010549796745181084,0.0018488563364371657,0.9998055696487427,0.0036188943777233362,0.008354416117072105,0.017492152750492096
109.0,0.0,0.0,0.0,0.0,0.0,0.0,-0.008753589354455471,0.008572498336434364,-0.0035800400655716658,0.9998102784156799,0.003328355960547924,0.00820484571158886,0.01734825037419796
110.0,0.0,0.0,0.0,0.0,0.0,0.0,-0.009612483903765678,0.008773221634328365,-0.005904288496822119,0.9998047947883606,0.0033582295291125774,0.008045640774071217,0.017731063067913055
111.0,0.0,0.0,0.0,0.0,0.0,0.0,-0.009547606110572815,0.009945373050868511,-0.008148705586791039,0.9997951984405518,0.0032204824965447187,0.007817934267222881,0.01838662475347519
112.0,0.0,0.0,0.0,0.0,0.0,0.0,-0.009489416144788265,0.010382935404777527,-0.008522449992597103,0.9997947812080383,0.003228897927328944,0.007964304648339748,0.01834632270038128
113.0,0.0,0.0,0.0,0.0,0.0,0.0,-0.007986842654645443,0.01197449304163456,-0.007261176593601704,0.9997994899749756,0.002837337553501129,0.008210710249841213,0.018041811883449554
114.0,0.0,0.0,0.0,0.0,0.0,0.0,-0.012823394499719143,0.007147269789129496,-0.010771065950393677,0.9997971057891846,0.0026358396280556917,0.00804367195814848,0.018278416246175766
115.0,0.0,0.0,0.0,0.0,0.0,0.0,-0.010757779702544212,0.008532104082405567,-0.009678632952272892,0.9997920989990234,0.0022990123834460974,0.008075215853750706,0.018580583855509758
116.0,0.0,0.0,0.0,0.0,0.0,0.0,-0.012491080909967422,0.00616610050201416,-0.006351356394588947,0.9997999668121338,0.0019077489851042628,0.008190423250198364,0.01814664527773857
117.0,0.0,0.0,0.0,0.0,0.0,0.0,-0.01337603572756052,0.004050388466566801,-0.003825830528512597,0.9998012185096741,0.0016253950307145715,0.008176501840353012,0.01811034232378006
118.0,0.0,0.0,0.0,0.0,0.0,0.0,-0.013862482272088528,0.0017642703605815768,-0.003484623972326517,0.9998021721839905,0.001275938586331904,0.008025914430618286,0.018155865371227264
119.0,0.0,0.0,0.0,0.0,0.0,0.0,-0.01370260864496231,-0.0010971842566505075,-0.0027750672306865454,0.9998003840446472,0.0008502189884893596,0.00790851004421711,0.01832691580057144
120.0,0.0,0.0,0.0,0.0,0.0,0.0,-0.014740522019565105,-0.002790464088320732,0.0012230419088155031,0.9997970461845398,0.0005827081622555852,0.007613625843077898,0.018642419949173927
121.0,0.0,0.0,0.0,0.0,0.0,0.0,-0.013918844051659107,-0.001497023506090045,0.005369506776332855,0.9997949004173279,0.00016927384422160685,0.007558668963611126,0.018787456676363945
122.0,0.0,0.0,0.0,0.0,0.0,0.0,-0.0102221155539155,-0.0024607882369309664,0.0016920622438192368,0.9998151063919067,-0.00010777852003229782,0.008278357796370983,0.01735605113208294
123.0,0.0,0.0,0.0,0.0,0.0,0.0,0.011017232201993465,-0.009918524883687496,-0.06836152821779251,0.9998131990432739,-0.0003806182066909969,0.008883673697710037,0.017162417992949486
124.0,0.0,0.0,0.0,0.0,0.0,0.0,0.004160371143370867,0.00059549167053774,0.008181805722415447,0.9997989535331726,-0.001142967026680708,0.008686315268278122,0.018035272136330605
125.0,0.0,0.0,0.0,0.0,0.0,0.0,0.013113840483129025,0.006501731928437948,0.0008683201158419251,0.9998021721839905,-0.0011342993238940835,0.008436278440058231,0.01797652244567871
126.0,0.0,0.0,0.0,0.0,0.0,0.0,0.009716678410768509,-0.0018390698824077845,-0.007376851048320532,0.9997956156730652,-0.00164244684856385,0.007865328341722488,0.018553202971816063
127.0,0.0,0.0,0.0,0.0,0.0,0.0,0.0009275601478293538,-0.0016184627311304212,0.02054782770574093,0.9997922778129578,-0.0017631830414757133,0.007231954950839281,0.018974337726831436
128.0,0.0,0.0,0.0,0.0,0.0,0.0,-0.0036767274141311646,-0.0021079452708363533,0.015759656205773354,0.9997971057891846,-0.002122691832482815,0.006801133509725332,0.018842453137040138
129.0,0.0,0.0,0.0,0.0,0.0,0.0,-0.007220244966447353,-0.004224136937409639,0.010742010548710823,0.9998010396957397,-0.0023932047188282013,0.0066243247129023075,0.018662886694073677
130.0,0.0,0.0,0.0,0.0,0.0,0.0,-0.00623357854783535,-0.0017120525008067489,0.008642877452075481,0.9998059868812561,-0.002538244007155299,0.006410650908946991,0.018452538177371025
131.0,0.0,0.0,0.0,0.0,0.0,0.0,-0.0001316933339694515,0.0023051125463098288,0.0015687727136537433,0.999815046787262,-0.0023838074412196875,0.0065176296047866344,0.01793788932263851
132.0,0.0,0.0,0.0,0.0,0.0,0.0,0.002099121455103159,0.0020833832677453756,-0.00917722750455141,0.9998144507408142,-0.002142205135896802,0.006450397428125143,0.018024031072854996
133.0,0.0,0.0,0.0,0.0,0.0,0.0,0.0016410633688792586,-0.0007867846870794892,-0.007819512858986855,0.9998157024383545,-0.001851209090091288,0.00646832725033164,0.017981067299842834
134.0,0.0,0.0,0.0,0.0,0.0,0.0,0.002907152520492673,-0.0019994834437966347,-0.013123705983161926,0.9998148083686829,-0.0016085287788882852,0.00653439573943615,0.01802937313914299
135.0,0.0,0.0,0.0,0.0,0.0,0.0,0.002066699555143714,-0.0019724126905202866,-0.01123675238341093,0.9998134970664978,-0.0017179796705022454,0.006381705868989229,0.018146123737096786
136.0,0.0,0.0,0.0,0.0,0.0,0.0,-0.004013373050838709,-0.0019929090049117804,0.00034805480390787125,0.9998078346252441,-0.0016322076553478837,0.006457602139562368,0.018437160179018974
137.0,0.0,0.0,0.0,0.0,0.0,0.0,-0.00813630223274231,-0.00033741260995157063,0.009366774931550026,0.9998073577880859,-0.001851242734119296,0.006405920255929232,0.018460851162672043
138.0,0.0,0.0,0.0,0.0,0.0,0.0,-0.012037509121000767,-0.0014299501199275255,0.009016510099172592,0.9998065233230591,-0.001907485886476934,0.006495086010545492,0.01846829056739807
139.0,0.0,0.0,0.0,0.0,0.0,0.0,-0.015153249725699425,0.0003981941263191402,0.009315107017755508,0.9998045563697815,-0.0018740514060482383,0.006992815062403679,0.018397625535726547
140.0,0.0,0.0,0.0,0.0,0.0,0.0,-0.016296327114105225,0.003933427389711142,0.005907269194722176,0.9998089075088501,-0.0017485801363363862,0.0076115913689136505,0.017921296879649162
141.0,0.0,0.0,0.0,0.0,0.0,0.0,-0.013797485269606113,0.0077486406080424786,-0.003697435138747096,0.9998061060905457,-0.00143246550578624,0.008759560994803905,0.017577767372131348
142.0,0.0,0.0,0.0,0.0,0.0,0.0,-0.010870054364204407,0.011272753588855267,-0.012390727177262306,0.9998020529747009,-0.0010374467819929123,0.009683520533144474,0.01734895631670952
143.0,0.0,0.0,0.0,0.0,0.0,0.0,-0.01005746889859438,0.013773474842309952,-0.015982339158654213,0.9997978210449219,-0.00031818373827263713,0.010325909592211246,0.01725197769701481
144.0,0.0,0.0,0.0,0.0,0.0,0.0,-0.006538206711411476,0.017798958346247673,-0.01460321806371212,0.9997760057449341,0.0005542558501474559,0.011064775288105011,0.01803326979279518
145.0,0.0,0.0,0.0,0.0,0.0,0.0,-0.007157220039516687,0.017791684716939926,-0.01473002228885889,0.999754786491394,0.0012787221930921078,0.011849334463477135,0.018662914633750916
146.0,0.0,0.0,0.0,0.0,0.0,0.0,-0.00607290118932724,0.015422146767377853,-0.023932447656989098,0.9997337460517883,0.0022682580165565014,0.013106990605592728,0.018854182213544846
147.0,0.0,0.0,0.0,0.0,0.0,0.0,-0.002141928533092141,0.016493475064635277,-0.02492733858525753,0.9996967315673828,0.0030378601513803005,0.014250000938773155,0.01985478214919567
148.0,0.0,0.0,0.0,0.0,0.0,0.0,0.0006687685963697731,0.01832650974392891,-0.0183469969779253,0.9996540546417236,0.003865863662213087,0.015353657305240631,0.021003440022468567
149.0,0.0,0.0,0.0,0.0,0.0,0.0,0.0012387702008709311,0.01875649392604828,-0.012636027298867702,0.999606192111969,0.004773183725774288,0.01622754894196987,0.022391507402062416
150.0,0.0,0.0,0.0,0.0,0.0,0.0,0.0024585085920989513,0.01703142561018467,-0.009155694395303726,0.9995671510696411,0.005521743558347225,0.017147254198789597,0.02326057478785515
151.0,0.0,0.0,0.0,0.0,0.0,0.0,0.00828949362039566,0.017997602000832558,-0.007284640800207853,0.9995370507240295,0.0061442069709300995,0.017731182277202606,0.023950224742293358
152.0,0.0,0.0,0.0,0.0,0.0,0.0,0.008041661232709885,0.014524312689900398,-0.0010460336925461888,0.9994916915893555,0.006840330548584461,0.018230406567454338,0.02524454891681671
153.0,0.0,0.0,0.0,0.0,0.0,0.0,0.00467252591624856,0.01571062207221985,0.01613590121269226,0.9994555711746216,0.007081255782395601,0.018456747755408287,0.026415588334202766
154.0,0.0,0.0,0.0,0.0,0.0,0.0,-0.0007571217720396817,0.020683690905570984,0.03998341038823128,0.9994305968284607,0.007430193014442921,0.018464066088199615,0.02724691852927208
155.0,0.0,0.0,0.0,0.0,0.0,0.0,-0.0015957001596689224,0.019009839743375778,0.03848249837756157,0.99941086769104,0.008141366764903069,0.01844179630279541,0.027776459231972694
156.0,0.0,0.0,0.0,0.0,0.0,0.0,0.002739867428317666,0.018349664285779,0.023309389129281044,0.9993841648101807,0.009106778539717197,0.01845088228583336,0.02842537872493267
157.0,0.0,0.0,0.0,0.0,0.0,0.0,0.0030415726359933615,0.020777584984898567,0.028234200552105904,0.9993806481361389,0.00978988129645586,0.018197951838374138,0.028485003858804703
158.0,0.0,0.0,0.0,0.0,0.0,0.0,0.00018924121104646474,0.02304084785282612,0.04351133108139038,0.9993664622306824,0.010696303099393845,0.018437659367918968,0.028502659872174263
159.0,0.0,0.0,0.0,0.0,0.0,0.0,0.007882737554609776,0.01571255922317505,0.02541433274745941,0.9993633031845093,0.012216978706419468,0.018480056896805763,0.027967197820544243
160.0,0.0,0.0,0.0,0.0,0.0,0.0,0.02101634442806244,0.008915916085243225,-0.017667653039097786,0.9993555545806885,0.013837813399732113,0.01839228719472885,0.027546172961592674
161.0,0.0,0.0,0.0,0.0,0.0,0.0,0.02660549432039261,0.0035147718153893948,0.007691702805459499,0.9993276000022888,0.01552488561719656,0.01832502894103527,0.027705591171979904
162.0,0.0,0.0,0.0,0.0,0.0,0.0,0.032348837703466415,-0.006126313470304012,0.004500690847635269,0.9992944002151489,0.017395203933119774,0.018057838082313538,0.027966275811195374
163.0,0.0,0.0,0.0,0.0,0.0,0.0,0.0364113412797451,-0.01014853734523058,-0.003763364627957344,0.9992476105690002,0.018945805728435516,0.018005654215812683,0.02865484543144703
164.0,0.0,0.0,0.0,0.0,0.0,0.0,0.035483695566654205,-0.012539498507976532,0.0020029789302498102,0.9992182850837708,0.020330606028437614,0.017932839691638947,0.028775660321116447
165.0,0.0,0.0,0.0,0.0,0.0,0.0,0.033648781478405,-0.010641700588166714,-0.004218351561576128,0.9991932511329651,0.02174566686153412,0.017391862347722054,0.02894117869436741
166.0,0.0,0.0,0.0,0.0,0.0,0.0,0.027533147484064102,-0.01498620118945837,-0.0009851529030129313,0.9991493821144104,0.02339799888432026,0.01657172292470932,0.02963864989578724
167.0,0.0,0.0,0.0,0.0,0.0,0.0,0.02514924854040146,-0.012327883392572403,0.0036677150055766106,0.999108612537384,0.025087328627705574,0.015557014383375645,0.03017738088965416
168.0,0.0,0.0,0.0,0.0,0.0,0.0,0.023503443226218224,-0.01389302033931017,-0.01254547294229269,0.9990773797035217,0.02654634788632393,0.014554090797901154,0.030463166534900665
169.0,0.0,0.0,0.0,0.0,0.0,0.0,0.02153477631509304,-0.017387380823493004,-0.04226909577846527,0.9990348219871521,0.02752760425209999,0.013776285573840141,0.03133575990796089
170.0,0.0,0.0,0.0,0.0,0.0,0.0,0.012905673123896122,-0.020340096205472946,-0.053715191781520844,0.998986542224884,0.028086001053452492,0.013521358370780945,0.03246872499585152
171.0,0.0,0.0,0.0,0.0,0.0,0.0,0.006088274996727705,-0.023500017821788788,-0.06742440909147263,0.9989622235298157,0.028127506375312805,0.013523142784833908,0.03317560628056526
172.0,0.0,0.0,0.0,0.0,0.0,0.0,0.004317582119256258,-0.021685024723410606,-0.07610918581485748,0.9989336133003235,0.028027260676026344,0.013570031151175499,0.0340886190533638
173.0,0.0,0.0,0.0,0.0,0.0,0.0,0.006451481021940708,-0.012079836800694466,-0.06974942237138748,0.9989190101623535,0.02757357992231846,0.013973603025078773,0.03471560776233673
174.0,0.0,0.0,0.0,0.0,0.0,0.0,0.00832133274525404,-0.005269436631351709,-0.05613377317786217,0.9988763928413391,0.02711847424507141,0.014183875173330307,0.036183349788188934
175.0,0.0,0.0,0.0,0.0,0.0,0.0,0.010507876984775066,0.00017067122098524123,-0.04668227583169937,0.9988013505935669,0.02669566310942173,0.013774791732430458,0.038646042346954346
176.0,0.0,0.0,0.0,0.0,0.0,0.0,0.009152616374194622,0.006243124138563871,-0.03147149831056595,0.9987563490867615,0.02586428076028824,0.013041533529758453,0.0405791737139225
177.0,0.0,0.0,0.0,0.0,0.0,0.0,0.007523940876126289,0.011506631039083004,-0.01992124505341053,0.9987511038780212,0.024929821491241455,0.012236151844263077,0.041534435003995895
178.0,0.0,0.0,0.0,0.0,0.0,0.0,0.0057322490029037,0.014489639550447464,-0.009757671505212784,0.998738706111908,0.024112537503242493,0.011232770048081875,0.04258561506867409
179.0,0.0,0.0,0.0,0.0,0.0,0.0,0.002336404286324978,0.009359708987176418,-0.007194790057837963,0.9987346529960632,0.02300330623984337,0.010291269980370998,0.04352238401770592
180.0,0.0,0.0,0.0,0.0,0.0,0.0,0.0006609546253457665,0.004930131137371063,0.0010634985519573092,0.9987215399742126,0.021966256201267242,0.00923524983227253,0.04458199813961983
181.0,0.0,0.0,0.0,0.0,0.0,0.0,-0.0018264628015458584,-0.003956321161240339,0.020311793312430382,0.9987236261367798,0.020534388720989227,0.008236116729676723,0.045404620468616486
182.0,0.0,0.0,0.0,0.0,0.0,0.0,-0.0032599654514342546,-0.008821113035082817,0.02892313338816166,0.9987474083900452,0.019504880532622337,0.007268232759088278,0.04550072178244591
183.0,0.0,0.0,0.0,0.0,0.0,0.0,-0.001576035050675273,-0.016565853729844093,0.013196716085076332,0.9987561106681824,0.01910615898668766,0.006314864382147789,0.04562177509069443
184.0,0.0,0.0,0.0,0.0,0.0,0.0,-0.003848167834803462,-0.027427008375525475,0.0008307803655043244,0.9987753033638,0.018673310056328773,0.00524575961753726,0.045517705380916595
185.0,0.0,0.0,0.0,0.0,0.0,0.0,-0.00012904091272503138,-0.028987636789679527,-0.012194576673209667,0.9988309144973755,0.017883077263832092,0.004259543027728796,0.04470838978886604
186.0,0.0,0.0,0.0,0.0,0.0,0.0,0.004770197439938784,-0.03218020498752594,-0.03406313434243202,0.9988754391670227,0.01680128462612629,0.0035421475768089294,0.04419439285993576
187.0,0.0,0.0,0.0,0.0,0.0,0.0,0.009739313274621964,-0.036073122173547745,-0.03991595283150673,0.9989334344863892,0.015332178212702274,0.002874614903703332,0.04346225783228874
188.0,0.0,0.0,0.0,0.0,0.0,0.0,0.012362991459667683,-0.02875457890331745,-0.031028898432850838,0.9989574551582336,0.013461114838719368,0.0020578796975314617,0.043574366718530655
189.0,0.0,0.0,0.0,0.0,0.0,0.0,0.004988948814570904,-0.018534362316131592,-0.010009011253714561,0.998948335647583,0.011471751146018505,0.0014106555609032512,0.044371068477630615
190.0,0.0,0.0,0.0,0.0,0.0,0.0,0.0017876338679343462,-0.008458233438432217,0.005040580406785011,0.9989529848098755,0.009109070524573326,0.0008980092825368047,0.04482691362500191
191.0,0.0,0.0,0.0,0.0,0.0,0.0,-0.005888594780117273,0.008273953571915627,0.04057088866829872,0.9989237785339355,0.007042430806905031,-9.378079994348809e-05,0.04584832489490509
192.0,0.0,0.0,0.0,0.0,0.0,0.0,-0.020306754857301712,-0.008828742429614067,0.04670519381761551,0.9989279508590698,0.004933648277074099,-0.0009761715191416442,0.04601992294192314
193.0,0.0,0.0,0.0,0.0,0.0,0.0,-0.02139427699148655,-0.02898864634335041,0.031443528831005096,0.9989699125289917,0.0022182806860655546,-0.0011905558640137315,0.04530639201402664
194.0,0.0,0.0,0.0,0.0,0.0,0.0,-0.018792442977428436,-0.024355551227927208,0.06353466212749481,0.9989808201789856,-0.0005698718596249819,-0.0017762118950486183,0.04510421305894852
195.0,0.0,0.0,0.0,0.0,0.0,0.0,-0.025753112509846687,-0.01973584108054638,0.06971196085214615,0.9990089535713196,-0.002811676124110818,-0.0027119326405227184,0.04434092342853546
196.0,0.0,0.0,0.0,0.0,0.0,0.0,-0.030209515243768692,-0.01351478323340416,0.10435422509908676,0.9990348815917969,-0.004426457453519106,-0.0037820900324732065,0.043536119163036346
197.0,0.0,0.0,0.0,0.0,0.0,0.0,-0.02227434702217579,-0.027436936274170876,0.07168148458003998,0.9991157054901123,-0.005399500019848347,-0.004482296761125326,0.0414515919983387
198.0,0.0,0.0,0.0,0.0,0.0,0.0,0.013248475268483162,-0.033075422048568726,0.0039530107751488686,0.9991944432258606,-0.006346416659653187,-0.004855109378695488,0.039330609142780304
199.0,0.0,0.0,0.0,0.0,0.0,0.0,0.011886302381753922,-0.021465269848704338,0.019771961495280266,0.9992262125015259,-0.006973678711801767,-0.005674189887940884,0.03828975558280945
200.0,0.0,0.0,0.0,0.0,0.0,0.0,0.0012469044886529446,-0.017607802525162697,0.02810961753129959,0.9992693066596985,-0.007465459872037172,-0.005991743411868811,0.03700704127550125
201.0,0.0,0.0,0.0,0.0,0.0,0.0,-0.00424372311681509,-0.016651785001158714,0.04017242416739464,0.9992902278900146,-0.007676971610635519,-0.006375775672495365,0.03632824867963791
202.0,0.0,0.0,0.0,0.0,0.0,0.0,-0.020559683442115784,-0.015504473820328712,0.07177015393972397,0.9993113875389099,-0.007697780150920153,-0.0066768410615623,0.03569132089614868
203.0,0.0,0.0,0.0,0.0,0.0,0.0,-0.017302952706813812,-0.006369654554873705,0.08643610030412674,0.9993596076965332,-0.006924555171281099,-0.0071212733164429665,0.03438522294163704
204.0,0.0,0.0,0.0,0.0,0.0,0.0,-0.008739173412322998,-0.0083908187225461,0.07352906465530396,0.9994013905525208,-0.00570288859307766,-0.007279416546225548,0.03334460034966469
205.0,0.0,0.0,0.0,0.0,0.0,0.0,0.0044218008406460285,-0.014119693078100681,0.058027613908052444,0.9994630217552185,-0.0038977726362645626,-0.006626281887292862,0.031853631138801575
206.0,0.0,0.0,0.0,0.0,0.0,0.0,0.0321727991104126,-0.023285629227757454,0.020290059968829155,0.9995036721229553,-0.0020630862563848495,-0.0062881591729819775,0.030788876116275787
207.0,0.0,0.0,0.0,0.0,0.0,0.0,0.030579838901758194,-0.013520825654268265,0.036719758063554764,0.999528706073761,-0.00034515385050326586,-0.006081047002226114,0.03008940815925598
208.0,0.0,0.0,0.0,0.0,0.0,0.0,0.024639517068862915,-0.012472795322537422,0.043522000312805176,0.9996059536933899,0.0016226303996518254,-0.005679577589035034,0.027434689924120903
209.0,0.0,0.0,0.0,0.0,0.0,0.0,0.0364251509308815,-0.011712047271430492,0.007448973599821329,0.9996623396873474,0.004343259613960981,-0.005272238980978727,0.025075051933526993
210.0,0.0,0.0,0.0,0.0,0.0,0.0,0.030262788757681847,-0.011976635083556175,-0.00583235127851367,0.9997043609619141,0.006905502639710903,-0.004599446896463633,0.022849412634968758
211.0,0.0,0.0,0.0,0.0,0.0,0.0,0.017393186688423157,-0.013297228142619133,-0.014602886512875557,0.9997286796569824,0.009327451698482037,-0.00366455246694386,0.0210273340344429
212.0,0.0,0.0,0.0,0.0,0.0,0.0,0.013880926184356213,-0.014679818414151669,-0.049606095999479294,0.9997327327728271,0.01131725125014782,-0.0023384345695376396,0.02002313919365406
213.0,0.0,0.0,0.0,0.0,0.0,0.0,0.009121001698076725,-0.007260286249220371,-0.06462765485048294,0.9997447729110718,0.012764709070324898,-0.0010921948123723269,0.01860937476158142
214.0,0.0,0.0,0.0,0.0,0.0,0.0,0.006836362183094025,0.01795436069369316,-0.028820078819990158,0.9997532963752747,0.013658346608281136,0.0004019054176751524,0.01751101389527321
215.0,0.0,0.0,0.0,0.0,0.0,0.0,0.03402985632419586,0.03339327126741409,-0.022944040596485138,0.9997788071632385,0.014864918775856495,0.0003934249689336866,0.014880779199302197
216.0,0.0,0.0,0.0,0.0,0.0,0.0,0.03350631892681122,0.009952626191079617,-0.04577402025461197,0.9997738599777222,0.01496474165469408,-0.00047448810073547065,0.015120000578463078
217.0,0.0,0.0,0.0,0.0,0.0,0.0,0.00043095453293062747,-0.009218627586960793,-0.0331118069589138,0.9997792840003967,0.01453170645982027,-0.001149147399701178,0.015134645625948906
218.0,0.0,0.0,0.0,0.0,0.0,0.0,-0.018464215099811554,-0.007602374069392681,-0.008871008642017841,0.9997992515563965,0.013287336565554142,-0.0011380506912246346,0.014956642873585224
219.0,0.0,0.0,0.0,0.0,0.0,0.0,-0.02535710297524929,0.004175184760242701,0.018226727843284607,0.9998283386230469,0.011721951887011528,-0.001251033740118146,0.014297942630946636
220.0,0.0,0.0,0.0,0.0,0.0,0.0,-0.011538391001522541,0.010803230106830597,0.01834496296942234,0.999857485294342,0.010633048601448536,-0.0015763293486088514,0.013035385869443417
221.0,0.0,0.0,0.0,0.0,0.0,0.0,0.0022034395951777697,-0.002306201960891485,-0.02011014148592949,0.9998887181282043,0.009204637259244919,-0.0016753078671172261,0.011622811667621136
222.0,0.0,0.0,0.0,0.0,0.0,0.0,0.004694326315075159,0.003793387208133936,-0.023427138105034828,0.9998970627784729,0.007526789791882038,-0.00224223081022501,0.012027820572257042
223.0,0.0,0.0,0.0,0.0,0.0,0.0,-0.019074248149991035,0.008504839614033699,0.017953326925635338,0.9999032616615295,0.006186711136251688,-0.003204610198736191,0.01203964278101921
224.0,0.0,0.0,0.0,0.0,0.0,0.0,-0.02136968821287155,0.011766226962208748,0.022382760420441628,0.9999141097068787,0.005284836981445551,-0.0040853084065020084,0.011275512166321278
225.0,0.0,0.0,0.0,0.0,0.0,0.0,-0.019262997433543205,0.012030597776174545,0.029616961255669594,0.9999167919158936,0.004123112186789513,-0.005433693993836641,0.010967562906444073
226.0,0.0,0.0,0.0,0.0,0.0,0.0,-0.021547837182879448,0.011118477210402489,0.03100704587996006,0.9999094605445862,0.0038998587988317013,-0.006840439047664404,0.010924090631306171
227.0,0.0,0.0,0.0,0.0,0.0,0.0,-0.025328537449240685,0.010377409867942333,0.015424252487719059,0.9999097585678101,0.003765016095712781,-0.007912502624094486,0.010203486308455467
228.0,0.0,0.0,0.0,0.0,0.0,0.0,-0.029646504670381546,0.007885226048529148,0.004527738317847252,0.999921441078186,0.0032605293672531843,-0.00829381588846445,0.008833585307002068
229.0,0.0,0.0,0.0,0.0,0.0,0.0,-0.026363300159573555,0.00817282497882843,-0.02282942645251751,0.9999312162399292,0.0030494059901684523,-0.008321679197251797,0.007679268717765808
230.0,0.0,0.0,0.0,0.0,0.0,0.0,-0.028724199160933495,0.00915567297488451,-0.02603895217180252,0.9999333024024963,0.0029735532589256763,-0.008413543924689293,0.007358886767178774
231.0,0.0,0.0,0.0,0.0,0.0,0.0,-0.03450729697942734,0.007748088333755732,-0.023843824863433838,0.9999375343322754,0.0031138502527028322,-0.008154315873980522,0.007001920137554407
232.0,0.0,0.0,0.0,0.0,0.0,0.0,-0.036378663033246994,0.009044074453413486,-0.027960453182458878,0.9999414682388306,0.0030999830923974514,-0.00792075227946043,0.006693184841424227
233.0,0.0,0.0,0.0,0.0,0.0,0.0,-0.04105697572231293,0.008682271465659142,-0.030131686478853226,0.9999452233314514,0.0032358504831790924,-0.007624195888638496,0.006398926954716444
234.0,0.0,0.0,0.0,0.0,0.0,0.0,-0.03709886968135834,0.00698899244889617,-0.03723821043968201,0.9999455809593201,0.003540556877851486,-0.0074471039697527885,0.006413410417735577
235.0,0.0,0.0,0.0,0.0,0.0,0.0,-0.03100081905722618,0.007652361877262592,-0.037714846432209015,0.999945878982544,0.004025968257337809,-0.006957418285310268,0.006589584052562714
236.0,0.0,0.0,0.0,0.0,0.0,0.0,-0.03009406290948391,0.001976335421204567,-0.0346832275390625,0.9999504089355469,0.004083564039319754,-0.006290902849286795,0.006569857709109783
237.0,0.0,0.0,0.0,0.0,0.0,0.0,-0.026822121813893318,0.005489099770784378,-0.027479445561766624,0.9999531507492065,0.0040168361738324165,-0.005491467658430338,0.006898075342178345
238.0,0.0,0.0,0.0,0.0,0.0,0.0,-0.019930534064769745,0.015616146847605705,-0.012117240577936172,0.9999514222145081,0.003999280743300915,-0.004899105057120323,0.0075749596580863
239.0,0.0,0.0,0.0,0.0,0.0,0.0,-0.02244771271944046,0.01236953865736723,-0.007761503104120493,0.9999437928199768,0.004140419419854879,-0.0046004559844732285,0.008618955500423908
240.0,0.0,0.0,0.0,0.0,0.0,0.0,-0.028151502832770348,0.004593635909259319,-0.014366060495376587,0.9999324083328247,0.0044715614058077335,-0.004296788480132818,0.009840017184615135
241.0,0.0,0.0,0.0,0.0,0.0,0.0,-0.020038606598973274,0.0008101555285975337,-0.02015998773276806,0.9999193549156189,0.005204917397350073,-0.004535614047199488,0.010655485093593597
242.0,0.0,0.0,0.0,0.0,0.0,0.0,-0.02631651982665062,-0.006339633837342262,-0.00854082778096199,0.9999071955680847,0.005638536531478167,-0.00458729499951005,0.0115206278860569
243.0,0.0,0.0,0.0,0.0,0.0,0.0,-0.027544787153601646,-0.01113671250641346,0.003118423279374838,0.9998981356620789,0.005962709430605173,-0.004293365869671106,0.012244339101016521
244.0,0.0,0.0,0.0,0.0,0.0,0.0,-0.017562566325068474,-0.010001042857766151,-0.002611613366752863,0.999890923500061,0.0061949207447469234,-0.003799385391175747,0.012875827960669994
245.0,0.0,0.0,0.0,0.0,0.0,0.0,-0.01719527877867222,-0.015595954842865467,-0.011840957216918468,0.999879777431488,0.006501780357211828,-0.0036552450619637966,0.013595297932624817
246.0,0.0,0.0,0.0,0.0,0.0,0.0,-0.011858664453029633,-0.015121344476938248,-0.0062923794612288475,0.9998645186424255,0.006531860679388046,-0.003270152024924755,0.014773842878639698
247.0,0.0,0.0,0.0,0.0,0.0,0.0,-0.013359315693378448,-0.014868013560771942,0.015751611441373825,0.9998574256896973,0.006186314858496189,-0.003069918369874358,0.015423469245433807
248.0,0.0,0.0,0.0,0.0,0.0,0.0,-0.011947534047067165,-0.019962141290307045,0.019833210855722427,0.9998576641082764,0.0058120302855968475,-0.0024217974860221148,0.0156709011644125
249.0,0.0,0.0,0.0,0.0,0.0,0.0,0.007896137423813343,-0.011427365243434906,0.006795321125537157,0.9998538494110107,0.005347894970327616,-0.0021334413904696703,0.01610901951789856
250.0,0.0,0.0,0.0,0.0,0.0,0.0,0.0029690368101000786,-2.964311534014996e-05,0.03100399486720562,0.9998440146446228,0.005141573026776314,-0.0025258406531065702,0.01672222465276718
251.0,0.0,0.0,0.0,0.0,0.0,0.0,-0.019077926874160767,-0.0031359281856566668,0.0797453224658966,0.999841570854187,0.00519102718681097,-0.0023609218187630177,0.016875969246029854
252.0,0.0,0.0,0.0,0.0,0.0,0.0,-0.030591610819101334,-0.007133022882044315,0.12112753838300705,0.9998399615287781,0.006165714003145695,-0.0010651306947693229,0.016767529770731926
253.0,0.0,0.0,0.0,0.0,0.0,0.0,-0.02078627422451973,-0.014067805372178555,0.09540031850337982,0.99983811378479,0.00808889139443636,0.0006820469279773533,0.01607535406947136
254.0,0.0,0.0,0.0,0.0,0.0,0.0,0.0055997613817453384,-0.019917543977499008,0.03012547455728054,0.9998331069946289,0.010317564010620117,0.0013715489767491817,0.015038733370602131
255.0,0.0,0.0,0.0,0.0,0.0,0.0,0.015545263886451721,-0.02066628821194172,-0.006036460865288973,0.9998328685760498,0.011976783163845539,0.0015571401454508305,0.013733558356761932
256.0,0.0,0.0,0.0,0.0,0.0,0.0,0.01229702215641737,-0.009588702581822872,-0.004166285507380962,0.9998148679733276,0.013567189686000347,0.0009935621637851,0.013622350059449673
257.0,0.0,0.0,0.0,0.0,0.0,0.0,0.01086078118532896,-0.005681252107024193,-0.005224152933806181,0.9997963905334473,0.01464846171438694,0.0006981948390603065,0.013876166194677353
258.0,0.0,0.0,0.0,0.0,0.0,0.0,0.016789324581623077,-0.005706775467842817,-0.01744883507490158,0.9997816681861877,0.015257498249411583,-7.124640978872776e-05,0.014277850277721882
259.0,0.0,0.0,0.0,0.0,0.0,0.0,0.00758696161210537,-0.009104677475988865,-0.010715238749980927,0.9997760653495789,0.01506855059415102,-0.0006259590736590326,0.014861222356557846
260.0,0.0,0.0,0.0,0.0,0.0,0.0,0.0039100139401853085,-0.014422307722270489,-0.013401325792074203,0.999786913394928,0.014525019563734531,-0.0012749170418828726,0.014637903310358524
261.0,0.0,0.0,0.0,0.0,0.0,0.0,0.0006580420304089785,-0.013013139367103577,-0.007114608306437731,0.9998228549957275,0.012929865159094334,-0.001492125098593533,0.013607305474579334
262.0,0.0,0.0,0.0,0.0,0.0,0.0,-0.0012198506155982614,0.0008978131809271872,0.009805355221033096,0.999866783618927,0.010721179656684399,-0.0017116160597652197,0.01220980565994978
263.0,0.0,0.0,0.0,0.0,0.0,0.0,0.0008582426817156374,0.012292193248867989,0.036954447627067566,0.9998928904533386,0.008972940035164356,-0.0020739813335239887,0.011357388459146023
264.0,0.0,0.0,0.0,0.0,0.0,0.0,0.007177852559834719,0.008279536850750446,0.0015907974448055029,0.9999144673347473,0.007862086407840252,-0.002507581375539303,0.010153454728424549
265.0,0.0,0.0,0.0,0.0,0.0,0.0,0.007639255374670029,0.007034344132989645,-0.00462137209251523,0.9999274611473083,0.006892095319926739,-0.003037857124581933,0.009400933980941772
266.0,0.0,0.0,0.0,0.0,0.0,0.0,0.008156589232385159,0.0073487116023898125,-0.001274062437005341,0.9999260306358337,0.006155332084745169,-0.0034262933768332005,0.00991309154778719
267.0,0.0,0.0,0.0,0.0,0.0,0.0,0.0018457870464771986,0.00913156196475029,0.0015714771579951048,0.9999251365661621,0.005538782570511103,-0.00395493907853961,0.010168610140681267
268.0,0.0,0.0,0.0,0.0,0.0,0.0,-0.0063136848621070385,0.005880372598767281,0.011201580986380577,0.9999305009841919,0.005292410962283611,-0.004056774079799652,0.009743807837367058
269.0,0.0,0.0,0.0,0.0,0.0,0.0,0.0010421967599540949,-0.0033970207441598177,-0.013524341396987438,0.9999384880065918,0.004760965704917908,-0.004032129421830177,0.009175830520689487
270.0,0.0,0.0,0.0,0.0,0.0,0.0,0.0008715142030268908,0.00018991810793522745,-0.006219079717993736,0.999946117401123,0.004471819847822189,-0.003981053363531828,0.00847096648067236
271.0,0.0,0.0,0.0,0.0,0.0,0.0,0.002779274480417371,0.0006631856667809188,-0.000612366187851876,0.9999518990516663,0.004035285208374262,-0.0038565662689507008,0.008079013787209988
272.0,0.0,0.0,0.0,0.0,0.0,0.0,0.004875393118709326,-0.0019693970680236816,-0.0026141731068491936,0.9999579191207886,0.0036142414901405573,-0.0035975787322968245,0.00763162923976779
273.0,0.0,0.0,0.0,0.0,0.0,0.0,0.006207115016877651,0.0007950474391691387,0.0024580261670053005,0.9999592900276184,0.003370152320712805,-0.003585872007533908,0.007581029552966356
274.0,0.0,0.0,0.0,0.0,0.0,0.0,0.002874193713068962,0.003423489863052964,0.01178125198930502,0.9999551177024841,0.003290537279099226,-0.003630739403888583,0.008135223761200905
275.0,0.0,0.0,0.0,0.0,0.0,0.0,-0.000790980935562402,0.0035306999925523996,0.014123481698334217,0.9999538660049438,0.002945251762866974,-0.0036561214365065098,0.008373556658625603
276.0,0.0,0.0,0.0,0.0,0.0,0.0,-0.005743890535086393,0.0071098715998232365,0.02848544716835022,0.9999569654464722,0.0027631064876914024,-0.003712044795975089,0.008065739646553993
277.0,0.0,0.0,0.0,0.0,0.0,0.0,-0.006862239446491003,0.0058808582834899426,0.0297657772898674,0.9999611973762512,0.0026293459814041853,-0.0037772157229483128,0.007535786367952824
278.0,0.0,0.0,0.0,0.0,0.0,0.0,-0.006434215232729912,0.000771646446082741,0.021536026149988174,0.9999653100967407,0.0026544437278062105,-0.003759487299248576,0.006961924489587545
279.0,0.0,0.0,0.0,0.0,0.0,0.0,-0.0010676771635189652,-0.0013586509739980102,0.006692355964332819,0.9999666213989258,0.002984970575198531,-0.003829101100564003,0.006569704040884972
280.0,0.0,0.0,0.0,0.0,0.0,0.0,-0.0014311035629361868,-0.003151968587189913,0.009068689309060574,0.9999690055847168,0.003179808845743537,-0.003697067266330123,0.006176725961267948
281.0,0.0,0.0,0.0,0.0,0.0,0.0,0.0002520608832128346,-0.00541289197281003,0.0027257963083684444,0.9999761581420898,0.0029526471626013517,-0.003671608166769147,0.005095493979752064
282.0,0.0,0.0,0.0,0.0,0.0,0.0,-0.0004595610953401774,-0.006839171051979065,0.001147570088505745,0.9999815225601196,0.0029999040998518467,-0.0034162402153015137,0.004025699570775032
283.0,0.0,0.0,0.0,0.0,0.0,0.0,0.0006327044102363288,-0.007326186168938875,0.002243589609861374,0.9999857544898987,0.0028090320993214846,-0.0031061291228979826,0.0033028291072696447
284.0,0.0,0.0,0.0,0.0,0.0,0.0,-0.005820259917527437,-0.0062880446203053,0.014849934726953506,0.9999893307685852,0.0025709562469273806,-0.0031579802744090557,0.002255440456792712
285.0,0.0,0.0,0.0,0.0,0.0,0.0,-0.005246963817626238,-0.011620829813182354,-0.0008465033024549484,0.9999923706054688,0.002236949512735009,-0.0029246199410408735,0.0014130856143310666
286.0,0.0,0.0,0.0,0.0,0.0,0.0,-0.011186202988028526,-0.005456229206174612,0.00944435317069292,0.9999942183494568,0.0017923092236742377,-0.002766294637694955,0.0009755818173289299
287.0,0.0,0.0,0.0,0.0,0.0,0.0,-0.0239710733294487,0.0006739085074514151,0.022823743522167206,0.9999954700469971,0.0015246528200805187,-0.0025249961763620377,0.0006825952441431582
288.0,0.0,0.0,0.0,0.0,0.0,0.0,-0.03870349004864693,0.003383667441084981,0.055983394384384155,0.9999963641166687,0.0013990504667162895,-0.0022448694799095392,0.00014917405496817082
289.0,0.0,0.0,0.0,0.0,0.0,0.0,-0.038320645689964294,0.002601513173431158,0.06680402904748917,0.9999963641166687,0.0016517823096364737,-0.001409859862178564,-0.001607010723091662
290.0,0.0,0.0,0.0,0.0,0.0,0.0,-0.02071242406964302,0.002087115542963147,0.040864042937755585,0.9999907612800598,0.0026774900034070015,-0.0004303019668441266,-0.003356307977810502
291.0,0.0,0.0,0.0,0.0,0.0,0.0,-0.0017246732022613287,-0.014061965048313141,-0.01986726000905037,0.9999796748161316,0.0038424888625741005,0.0009926005732268095,-0.0050130500458180904
292.0,0.0,0.0,0.0,0.0,0.0,0.0,0.002158063231036067,-0.005517694633454084,-0.025237446650862694,0.9999675750732422,0.004647523630410433,0.0024811604525893927,-0.006106535438448191
293.0,0.0,0.0,0.0,0.0,0.0,0.0,-0.010760454460978508,0.012158367782831192,0.04471556842327118,0.99995356798172,0.0059016793966293335,0.0032953976187855005,-0.006890713702887297
294.0,0.0,0.0,0.0,0.0,0.0,0.0,-0.014323528856039047,-0.003799310652539134,0.025720342993736267,0.9999328255653381,0.007331216707825661,0.00465315580368042,-0.007688786834478378
295.0,0.0,0.0,0.0,0.0,0.0,0.0,-0.0012077640276402235,0.0026068557053804398,0.02782096154987812,0.9999018311500549,0.008744458667933941,0.0065389350056648254,-0.00878546480089426
296.0,0.0,0.0,0.0,0.0,0.0,0.0,0.016996970400214195,0.006936686113476753,-0.0027538130525499582,0.9998637437820435,0.01048299390822649,0.008189740590751171,-0.009783167392015457
297.0,0.0,0.0,0.0,0.0,0.0,0.0,0.021533912047743797,-0.0026871825102716684,-0.02533039264380932,0.9998273253440857,0.012134416960179806,0.009819600731134415,-0.010086544789373875
298.0,0.0,0.0,0.0,0.0,0.0,0.0,0.02099207229912281,0.004273293074220419,-0.007109334226697683,0.9997962117195129,0.013448868878185749,0.011242344975471497,-0.010014759376645088
299.0,0.0,0.0,0.0,0.0,0.0,0.0,0.026168307289481163,0.011575144715607166,0.005526306107640266,0.9997669458389282,0.014889691025018692,0.01218459103256464,-0.009790630079805851
300.0,0.0,0.0,0.0,0.0,0.0,0.0,0.030041366815567017,0.014992551878094673,0.008035989478230476,0.9997338056564331,0.016631649807095528,0.012815672904253006,-0.009561773389577866
301.0,0.0,0.0,0.0,0.0,0.0,0.0,0.030067315325140953,0.019451314583420753,0.0031980066560208797,0.9997020959854126,0.018249118700623512,0.013207861222326756,-0.009410166181623936
302.0,0.0,0.0,0.0,0.0,0.0,0.0,0.023225322365760803,0.020687902346253395,-0.0001570149906910956,0.9996721744537354,0.019984494894742966,0.013181623071432114,-0.00907647144049406
303.0,0.0,0.0,0.0,0.0,0.0,0.0,0.01504269428551197,0.020231541246175766,0.004650382325053215,0.9996466636657715,0.021602967754006386,0.01293183583766222,-0.008528430946171284
304.0,0.0,0.0,0.0,0.0,0.0,0.0,0.010351556353271008,0.014645492658019066,-0.0042913807556033134,0.9996151924133301,0.023168617859482765,0.012730051763355732,-0.00841243751347065
305.0,0.0,0.0,0.0,0.0,0.0,0.0,0.010052401572465897,0.013805994763970375,-0.012986905872821808,0.9995894432067871,0.02431790716946125,0.012786345556378365,-0.008146097883582115
306.0,0.0,0.0,0.0,0.0,0.0,0.0,0.0060348170809447765,0.011205990798771381,-0.021393226459622383,0.9995522499084473,0.025516420602798462,0.013058087788522243,-0.00856921635568142
307.0,0.0,0.0,0.0,0.0,0.0,0.0,0.006457380019128323,0.01234775222837925,-0.04460443556308746,0.999521017074585,0.026355307549238205,0.013568759895861149,-0.00890135858207941
308.0,0.0,0.0,0.0,0.0,0.0,0.0,0.004776711575686932,0.014512754045426846,-0.044295039027929306,0.9994885921478271,0.027282075956463814,0.013890009373426437,-0.009231752716004848
309.0,0.0,0.0,0.0,0.0,0.0,0.0,0.001995695289224386,0.017047500237822533,-0.053234878927469254,0.9994682669639587,0.02805965766310692,0.014134196564555168,-0.008720941841602325
310.0,0.0,0.0,0.0,0.0,0.0,0.0,-0.006247848737984896,0.024338658899068832,-0.04617241024971008,0.9994494318962097,0.029095765203237534,0.014092976227402687,-0.007465014699846506
311.0,0.0,0.0,0.0,0.0,0.0,0.0,-0.013110595755279064,0.023470846936106682,-0.03864708170294762,0.9994417428970337,0.02974691428244114,0.013987310230731964,-0.005996332038193941
312.0,0.0,0.0,0.0,0.0,0.0,0.0,-0.015563629567623138,0.020488321781158447,-0.02625191956758499,0.999430775642395,0.030465900897979736,0.013782491907477379,-0.004493623040616512
313.0,0.0,0.0,0.0,0.0,0.0,0.0,-0.00890262983739376,0.01806674152612686,-0.04805140197277069,0.9994257092475891,0.03080381453037262,0.01376765500754118,-0.003159755142405629
314.0,0.0,0.0,0.0,0.0,0.0,0.0,-0.01397285982966423,0.015367547050118446,-0.029236262664198875,0.9994339346885681,0.03056977689266205,0.013919792138040066,-0.0018872423097491264
315.0,0.0,0.0,0.0,0.0,0.0,0.0,-0.017329316586256027,0.014012696221470833,-0.006684344261884689,0.999445378780365,0.03018503077328205,0.014054120518267155,-0.0006433092057704926
316.0,0.0,0.0,0.0,0.0,0.0,0.0,-0.017754578962922096,0.012497133575379848,-0.006386721972376108,0.9994558691978455,0.030012112110853195,0.01366930641233921,0.0006210654391907156
317.0,0.0,0.0,0.0,0.0,0.0,0.0,-0.018730729818344116,0.010557521134614944,-0.0028355196118354797,0.9994610548019409,0.02987164631485939,0.013472364284098148,0.002002452965825796
318.0,0.0,0.0,0.0,0.0,0.0,0.0,-0.01750645786523819,0.011912630870938301,0.001565672573633492,0.9994538426399231,0.030085070058703423,0.013322804123163223,0.003085261443629861
319.0,0.0,0.0,0.0,0.0,0.0,0.0,-0.016240427270531654,0.010828203521668911,-0.005097211804240942,0.9994507431983948,0.03015943244099617,0.01303870975971222,0.004322569351643324
320.0,0.0,0.0,0.0,0.0,0.0,0.0,-0.016225192695856094,0.012726632878184319,0.02191760390996933,0.9994402527809143,0.03038879856467247,0.012724430300295353,0.0058192056603729725
321.0,0.0,0.0,0.0,0.0,0.0,0.0,-0.017097029834985733,0.009787003509700298,0.001512259477749467,0.9994280934333801,0.030768169090151787,0.01269504800438881,0.005963153205811977
322.0,0.0,0.0,0.0,0.0,0.0,0.0,-0.01431156788021326,0.005050105042755604,-0.034679219126701355,0.9994115233421326,0.03102964162826538,0.01298506185412407,0.006718164309859276
323.0,0.0,0.0,0.0,0.0,0.0,0.0,-0.01608593948185444,0.005799184087663889,-0.021338563412427902,0.9993941783905029,0.031207647174596786,0.013557810336351395,0.0073219165205955505
324.0,0.0,0.0,0.0,0.0,0.0,0.0,-0.015285075642168522,0.006861543282866478,-0.022677190601825714,0.9993815422058105,0.03132385388016701,0.013860903680324554,0.007953732274472713
325.0,0.0,0.0,0.0,0.0,0.0,0.0,-0.01402483880519867,0.005668238271027803,-0.02546926960349083,0.9993702173233032,0.03136250376701355,0.014018671587109566,0.008887897245585918
326.0,0.0,0.0,0.0,0.0,0.0,0.0,-0.013628645800054073,0.004748587496578693,-0.015388201922178268,0.9993630647659302,0.03126095235347748,0.014414512552320957,0.009407983161509037
327.0,0.0,0.0,0.0,0.0,0.0,0.0,-0.010303275659680367,0.004101291764527559,-0.012215735390782356,0.9993543028831482,0.03111051581799984,0.014872577972710133,0.010095161385834217
328.0,0.0,0.0,0.0,0.0,0.0,0.0,-0.0059825349599123,0.0010892098071053624,-0.019528338685631752,0.9993434548377991,0.03107786923646927,0.015402554534375668,0.010471237823367119
329.0,0.0,0.0,0.0,0.0,0.0,0.0,-0.003060051705688238,-0.006258881650865078,-0.03513142466545105,0.9993301630020142,0.03098377399146557,0.015636850148439407,0.011609586887061596
330.0,0.0,0.0,0.0,0.0,0.0,0.0,-0.004611912649124861,-0.007406510878354311,-0.010557700879871845,0.9993187785148621,0.030637118965387344,0.016007719561457634,0.012928449548780918
331.0,0.0,0.0,0.0,0.0,0.0,0.0,0.008178170770406723,-0.009698869660496712,-0.011439543217420578,0.9993188977241516,0.030239520594477654,0.016445552930235863,0.013302755542099476
332.0,0.0,0.0,0.0,0.0,0.0,0.0,0.018295112997293472,-0.018097523599863052,-0.025463121011853218,0.9993258714675903,0.029611051082611084,0.016766872256994247,0.013780651614069939
333.0,0.0,0.0,0.0,0.0,0.0,0.0,0.03439025580883026,-0.008373680524528027,-0.03426287695765495,0.9993161559104919,0.029032191261649132,0.01681685261428356,0.015547986142337322
334.0,0.0,0.0,0.0,0.0,0.0,0.0,0.02526003122329712,-0.0028012481052428484,0.0010571939637884498,0.9993101954460144,0.02802954986691475,0.016132555902004242,0.018254533410072327
335.0,0.0,0.0,0.0,0.0,0.0,0.0,0.008843576535582542,-0.011462616734206676,0.03741272911429405,0.9993442296981812,0.026611866429448128,0.015518486499786377,0.019031796604394913
336.0,0.0,0.0,0.0,0.0,0.0,0.0,0.006177627015858889,-0.02613498829305172,0.014714783057570457,0.9993805885314941,0.02531551755964756,0.015602759085595608,0.018816526979207993
337.0,0.0,0.0,0.0,0.0,0.0,0.0,0.0018699296051636338,-0.028202803805470467,0.028991878032684326,0.9994153380393982,0.023655038326978683,0.015956174582242966,0.018843678757548332
338.0,0.0,0.0,0.0,0.0,0.0,0.0,0.008049478754401207,-0.01774049922823906,0.038369398564100266,0.9994420409202576,0.022667577490210533,0.015797464177012444,0.018766211345791817
339.0,0.0,0.0,0.0,0.0,0.0,0.0,0.006342471111565828,-0.009717258624732494,0.01479741558432579,0.9994553327560425,0.02222071960568428,0.015406927093863487,0.018918732181191444
340.0,0.0,0.0,0.0,0.0,0.0,0.0,0.006193434353917837,-0.012490160763263702,0.012007183395326138,0.9994704127311707,0.022150786593556404,0.015625502914190292,0.01800251379609108
341.0,0.0,0.0,0.0,0.0,0.0,0.0,0.02678602933883667,-0.015325830318033695,-0.03321489319205284,0.9994683861732483,0.02192790061235428,0.01605115458369255,0.018011391162872314
342.0,0.0,0.0,0.0,0.0,0.0,0.0,0.019565192982554436,-0.0007399836322292686,-0.005993591155856848,0.9994555711746216,0.0220412015914917,0.015825416892766953,0.018771981820464134
343.0,0.0,0.0,0.0,0.0,0.0,0.0,0.005219175945967436,-0.009426457807421684,-0.012217226438224316,0.9994489550590515,0.022117529064416885,0.016043873503804207,0.018854591995477676
344.0,0.0,0.0,0.0,0.0,0.0,0.0,0.0019178835209459066,-0.01797943003475666,-0.027576666325330734,0.9994588494300842,0.0215500108897686,0.016474274918437004,0.018614334985613823
345.0,0.0,0.0,0.0,0.0,0.0,0.0,0.007223465945571661,-0.012964343652129173,-0.022281860932707787,0.9994542598724365,0.021143052726984024,0.016882581636309624,0.018949337303638458
346.0,0.0,0.0,0.0,0.0,0.0,0.0,0.00736084533855319,-0.014794661663472652,-0.020991671830415726,0.9994478225708008,0.020699573680758476,0.017359120771288872,0.019340505823493004
347.0,0.0,0.0,0.0,0.0,0.0,0.0,0.0009343657293356955,-0.01232662983238697,-0.0060785445384681225,0.9994298815727234,0.020298823714256287,0.017264429479837418,0.020733900368213654
348.0,0.0,0.0,0.0,0.0,0.0,0.0,-0.029252760112285614,-0.02030809596180916,0.05082881450653076,0.9994187355041504,0.019788028672337532,0.01800995133817196,0.021127639338374138
349.0,0.0,0.0,0.0,0.0,0.0,0.0,-0.01854603737592697,-0.011010410264134407,0.058993998914957047,0.9994034171104431,0.019858984276652336,0.01931142434477806,0.02063482627272606
350.0,0.0,0.0,0.0,0.0,0.0,0.0,-0.004934268072247505,-0.010243261232972145,0.028370928019285202,0.9993616938591003,0.020503809675574303,0.020772475749254227,0.020595453679561615
351.0,0.0,0.0,0.0,0.0,0.0,0.0,0.009073056280612946,-0.01219442579895258,0.008473833091557026,0.999321699142456,0.021459970623254776,0.02220604196190834,0.020072873681783676
352.0,0.0,0.0,0.0,0.0,0.0,0.0,0.03327479958534241,-0.021369533613324165,-0.03442035987973213,0.9992775917053223,0.022469690069556236,0.02310725301504135,0.020137464627623558
353.0,0.0,0.0,0.0,0.0,0.0,0.0,0.03679168224334717,-0.008047943003475666,-0.005247826222330332,0.9992258548736572,0.02331327646970749,0.023529356345534325,0.02122308686375618
354.0,0.0,0.0,0.0,0.0,0.0,0.0,0.04450929909944534,0.003264274448156357,0.0007891582790762186,0.9991747140884399,0.02408566139638424,0.023569321259856224,0.022685116156935692
355.0,0.0,0.0,0.0,0.0,0.0,0.0,0.04864886775612831,-0.0010266131721436977,-0.0009610781562514603,0.9991481900215149,0.0244700126349926,0.023030297830700874,0.02394702285528183
356.0,0.0,0.0,0.0,0.0,0.0,0.0,0.05315956473350525,-0.0027305027469992638,0.0033984521869570017,0.9991469979286194,0.024192778393626213,0.022391414269804955,0.02487950026988983
357.0,0.0,0.0,0.0,0.0,0.0,0.0,0.053696371614933014,0.011287763714790344,0.014751004055142403,0.9991661310195923,0.023426106199622154,0.020651977509260178,0.02631007879972458
358.0,0.0,0.0,0.0,0.0,0.0,0.0,0.04613230749964714,0.04215375334024429,0.07073678821325302,0.9991849660873413,0.02300405129790306,0.01843453384935856,0.027582192793488503
359.0,0.0,0.0,0.0,0.0,0.0,0.0,0.05656621605157852,0.04117516055703163,0.06897034496068954,0.9992337822914124,0.02251121774315834,0.015634531155228615,0.027953067794442177
360.0,0.0,0.0,0.0,0.0,0.0,0.0,0.05548140034079552,0.010692545212805271,0.05296514183282852,0.999302089214325,0.02133537270128727,0.012225192971527576,0.028126880526542664
361.0,0.0,0.0,0.0,0.0,0.0,0.0,0.034616079181432724,-0.004902539309114218,0.056885261088609695,0.9993777275085449,0.019679255783557892,0.008752868510782719,0.027936942875385284
362.0,0.0,0.0,0.0,0.0,0.0,0.0,0.016125749796628952,0.00034601963125169277,0.053619179874658585,0.9994312524795532,0.017953958362340927,0.005241738632321358,0.02806190960109234
363.0,0.0,0.0,0.0,0.0,0.0,0.0,0.0030724341049790382,0.0026399847120046616,0.040439385920763016,0.999500036239624,0.01611858606338501,0.0020008408464491367,0.027128439396619797
364.0,0.0,0.0,0.0,0.0,0.0,0.0,-0.00017719324387144297,-5.6327411584788933e-05,0.017239881679415703,0.9995768070220947,0.014066183939576149,-0.001161150517873466,0.02544615976512432
365.0,0.0,0.0,0.0,0.0,0.0,0.0,-0.007798866834491491,0.00043421387090347707,0.0036583058536052704,0.9996246695518494,0.012180646881461143,-0.004301534499973059,0.02416309341788292
366.0,0.0,0.0,0.0,0.0,0.0,0.0,-0.026651524007320404,0.009140240959823132,0.020253455266356468,0.9996508955955505,0.010812554508447647,-0.00732538802549243,0.022969122976064682
367.0,0.0,0.0,0.0,0.0,0.0,0.0,-0.03191418945789337,0.0009019131539389491,-0.004333573393523693,0.9996660947799683,0.009339582175016403,-0.010209232568740845,0.0218361783772707
368.0,0.0,0.0,0.0,0.0,0.0,0.0,-0.04487789794802666,8.443374099442735e-05,-7.016548624960706e-05,0.9996678233146667,0.007774360943585634,-0.013221822679042816,0.020716935396194458
369.0,0.0,0.0,0.0,0.0,0.0,0.0,-0.06542923301458359,-0.003838662523776293,0.005285465158522129,0.9996585249900818,0.006222287658601999,-0.015698540955781937,0.019946251064538956
370.0,0.0,0.0,0.0,0.0,0.0,0.0,-0.07636895030736923,-0.0013004166539758444,0.004589791875332594,0.9996552467346191,0.004926485009491444,-0.017714491114020348,0.01873946748673916
371.0,0.0,0.0,0.0,0.0,0.0,0.0,-0.08140496164560318,-0.009291740134358406,-0.008270458318293095,0.9996609687805176,0.0034749647602438927,-0.01911998726427555,0.017332904040813446
372.0,0.0,0.0,0.0,0.0,0.0,0.0,-0.08279906958341599,-0.01562783494591713,-0.023491403087973595,0.9996857643127441,0.0019186071585863829,-0.019833819940686226,0.015214432962238789
373.0,0.0,0.0,0.0,0.0,0.0,0.0,-0.08174539357423782,-0.012849915772676468,-0.038275714963674545,0.9997057914733887,0.0007014854927547276,-0.020157916471362114,0.01347635593265295
374.0,0.0,0.0,0.0,0.0,0.0,0.0,-0.07744532078504562,-0.011079338379204273,-0.04674664884805679,0.9997375011444092,-0.0002748304686974734,-0.01999630779027939,0.011172481812536716
375.0,0.0,0.0,0.0,0.0,0.0,0.0,-0.07229119539260864,-0.010720538906753063,-0.05742248147726059,0.9997708797454834,-0.0011458985973149538,-0.01912434957921505,0.009566718712449074
376.0,0.0,0.0,0.0,0.0,0.0,0.0,-0.06704065948724747,-0.009591287933290005,-0.06534963101148605,0.9998118877410889,-0.00148062186781317,-0.01763022132217884,0.007947401143610477
377.0,0.0,0.0,0.0,0.0,0.0,0.0,-0.062043845653533936,-0.015127691440284252,-0.07623042166233063,0.9998587369918823,-0.0022639206144958735,-0.01524264458566904,0.006712416186928749
378.0,0.0,0.0,0.0,0.0,0.0,0.0,-0.05849502235651016,-0.02008645236492157,-0.07858169078826904,0.9998965859413147,-0.003148511052131653,-0.01279902458190918,0.005762144923210144
379.0,0.0,0.0,0.0,0.0,0.0,0.0,-0.04978732764720917,-0.017218545079231262,-0.07373414188623428,0.9999262690544128,-0.003886275226250291,-0.010322913527488708,0.005101475398987532
380.0,0.0,0.0,0.0,0.0,0.0,0.0,-0.0445769727230072,-0.006364935543388128,-0.044115062803030014,0.9999430775642395,-0.004305463749915361,-0.008089657872915268,0.005477616097778082
381.0,0.0,0.0,0.0,0.0,0.0,0.0,-0.04756838455796242,-0.005858910270035267,-0.01985185593366623,0.9999571442604065,-0.004607243929058313,-0.005633589345961809,0.005745884031057358
382.0,0.0,0.0,0.0,0.0,0.0,0.0,-0.03887219354510307,0.0019024580251425505,0.013703473843634129,0.9999604821205139,-0.004274895880371332,-0.0040455469861626625,0.006666217464953661
383.0,0.0,0.0,0.0,0.0,0.0,0.0,-0.03498641401529312,-0.004111487418413162,0.021474281325936317,0.9999613165855408,-0.0035503325052559376,-0.0024287819396704435,0.007702631875872612
384.0,0.0,0.0,0.0,0.0,0.0,0.0,-0.02163631096482277,-0.012125500477850437,0.016944503411650658,0.9999582171440125,-0.0027065014000982046,-0.0009664542158134282,0.008688105270266533
385.0,0.0,0.0,0.0,0.0,0.0,0.0,-0.011665775440633297,-0.008195468224585056,0.031608037650585175,0.9999531507492065,-0.0014053852064535022,0.00018572442058939487,0.009566695429384708
386.0,0.0,0.0,0.0,0.0,0.0,0.0,-0.0034553168807178736,-0.0018174496944993734,0.03778894990682602,0.9999490976333618,0.0005698361783288419,0.0011728093959391117,0.010008751414716244
387.0,0.0,0.0,0.0,0.0,0.0,0.0,0.005708976648747921,0.00472556846216321,0.04166017845273018,0.999934196472168,0.003053330583497882,0.0025136801414191723,0.010778989642858505
388.0,0.0,0.0,0.0,0.0,0.0,0.0,0.02015111595392227,0.012291581369936466,0.025111714377999306,0.9999052286148071,0.005985542666167021,0.004098143428564072,0.011700804345309734
389.0,0.0,0.0,0.0,0.0,0.0,0.0,0.031122783198952675,0.010473200120031834,0.013615868985652924,0.9998587369918823,0.009067202918231487,0.005971982143819332,0.01284131407737732
390.0,0.0,0.0,0.0,0.0,0.0,0.0,0.047066718339920044,0.006721797399222851,-0.001203449908643961,0.999800443649292,0.01185326837003231,0.007755919359624386,0.014101709239184856
391.0,0.0,0.0,0.0,0.0,0.0,0.0,0.045809485018253326,0.015131152234971523,0.04737989977002144,0.9997473955154419,0.014104345813393593,0.01034633256494999,0.014139962382614613
392.0,0.0,0.0,0.0,0.0,0.0,0.0,0.06958957016468048,0.004818795248866081,0.010614411905407906,0.9996663331985474,0.016710054129362106,0.012772317044436932,0.015010899864137173
393.0,0.0,0.0,0.0,0.0,0.0,0.0,0.07389170676469803,-0.0010494145099073648,-0.0009243020322173834,0.9995909929275513,0.01848674938082695,0.01407571416348219,0.016683144494891167
394.0,0.0,0.0,0.0,0.0,0.0,0.0,0.05664932727813721,0.007008871994912624,0.03897242620587349,0.9995388388633728,0.019689228385686874,0.01514548808336258,0.01749471016228199
395.0,0.0,0.0,0.0,0.0,0.0,0.0,0.056248739361763,0.00582773145288229,0.03480736166238785,0.9994911551475525,0.020405109971761703,0.015817444771528244,0.01873551309108734
396.0,0.0,0.0,0.0,0.0,0.0,0.0,0.05262446030974388,0.013938763178884983,0.043374013155698776,0.999474823474884,0.020689932629466057,0.0157728660851717,0.019325673580169678
397.0,0.0,0.0,0.0,0.0,0.0,0.0,0.05667288601398468,0.00921670999377966,0.03981966897845268,0.9994823932647705,0.020725581794977188,0.015100494027137756,0.019417474046349525
398.0,0.0,0.0,0.0,0.0,0.0,0.0,0.05340198054909706,-0.006459672469645739,0.021294627338647842,0.9994999170303345,0.02031482383608818,0.013955007307231426,0.019836626946926117
399.0,0.0,0.0,0.0,0.0,0.0,0.0,0.04275297001004219,-0.006876277271658182,0.01340939849615097,0.9995193481445312,0.018873387947678566,0.011486046947538853,0.02175373211503029
400.0,0.0,0.0,0.0,0.0,0.0,0.0,0.028392508625984192,-0.009319542907178402,0.011782451532781124,0.9995493292808533,0.017589909955859184,0.0103019829839468,0.02202994003891945
401.0,0.0,0.0,0.0,0.0,0.0,0.0,0.01834213174879551,-0.014537511393427849,0.01037367433309555,0.9995843172073364,0.016119202598929405,0.009079011157155037,0.022122494876384735
402.0,0.0,0.0,0.0,0.0,0.0,0.0,0.018842225894331932,0.003024055389687419,0.021465545520186424,0.9996303915977478,0.014703720808029175,0.007681925315409899,0.021544240415096283
403.0,0.0,0.0,0.0,0.0,0.0,0.0,0.018450304865837097,-0.004060260020196438,0.0068368264473974705,0.9996779561042786,0.013130446895956993,0.006225044839084148,0.020808622241020203
404.0,0.0,0.0,0.0,0.0,0.0,0.0,0.020849883556365967,-0.004253911320120096,-0.0031210388988256454,0.9997081160545349,0.011793797835707664,0.00480117229744792,0.02053496427834034
405.0,0.0,0.0,0.0,0.0,0.0,0.0,0.01795431785285473,-0.004214473068714142,0.0007590544992126524,0.9997321963310242,0.010522295720875263,0.0035339563619345427,0.020340707153081894
406.0,0.0,0.0,0.0,0.0,0.0,0.0,0.01711668260395527,-0.005174236837774515,0.004081945400685072,0.9997640252113342,0.00917773973196745,0.002141970442607999,0.019596680998802185
407.0,0.0,0.0,0.0,0.0,0.0,0.0,0.014427472837269306,-0.006538563407957554,0.0098044965416193,0.9997841119766235,0.008059462532401085,0.0006617855979129672,0.019134053960442543
408.0,0.0,0.0,0.0,0.0,0.0,0.0,0.01211134996265173,-0.005082134157419205,0.016121918335556984,0.9997879266738892,0.006822615396231413,-0.0009067713981494308,0.019413689151406288
409.0,0.0,0.0,0.0,0.0,0.0,0.0,0.0055982801131904125,-0.0005163066671229899,0.028591115027666092,0.9997968077659607,0.005663859657943249,-0.0024113168474286795,0.01921015977859497
410.0,0.0,0.0,0.0,0.0,0.0,0.0,0.006293490994721651,-0.00450441800057888,0.02249162830412388,0.9997966885566711,0.004748891573399305,-0.003960637375712395,0.019204165786504745
411.0,0.0,0.0,0.0,0.0,0.0,0.0,0.004715725779533386,-0.0027825632132589817,0.02756958268582821,0.9998031854629517,0.00391423050314188,-0.00538658956065774,0.018695786595344543
412.0,0.0,0.0,0.0,0.0,0.0,0.0,-0.00304012862034142,-0.005683953873813152,0.0255141444504261,0.9998152256011963,0.0030528937932103872,-0.006683259271085262,0.017771298065781593
413.0,0.0,0.0,0.0,0.0,0.0,0.0,8.925852307584137e-05,-0.007336183451116085,0.014787442050874233,0.99982088804245,0.002282898873090744,-0.007865400984883308,0.01705390214920044
414.0,0.0,0.0,0.0,0.0,0.0,0.0,-0.007588228676468134,-0.0012582422932609916,0.029736565425992012,0.9998248815536499,0.0015849260380491614,-0.009102869778871536,0.016243869438767433
415.0,0.0,0.0,0.0,0.0,0.0,0.0,-0.015294020064175129,0.0016644560964778066,0.03809257969260216,0.9998276233673096,0.0009760594111867249,-0.010471975430846214,0.015309697017073631
416.0,0.0,0.0,0.0,0.0,0.0,0.0,-0.025313109159469604,0.004938413389027119,0.04870060458779335,0.9998208284378052,0.0010255059460178018,-0.011909411288797855,0.014696278609335423
417.0,0.0,0.0,0.0,0.0,0.0,0.0,-0.030039647594094276,-0.0008758261683396995,0.04674949124455452,0.9998217225074768,0.0013141331728547812,-0.012916199862957,0.013682704418897629
418.0,0.0,0.0,0.0,0.0,0.0,0.0,-0.027144083753228188,-0.005736751947551966,0.032422080636024475,0.9998325705528259,0.0015498982975259423,-0.013834132812917233,0.011887537315487862
419.0,0.0,0.0,0.0,0.0,0.0,0.0,-0.027465812861919403,-0.00864735059440136,0.02426186203956604,0.9998399019241333,0.002127179643139243,-0.014586062170565128,0.01013681199401617
420.0,0.0,0.0,0.0,0.0,0.0,0.0,-0.025161610916256905,-0.010942688211798668,0.020450735464692116,0.9998549222946167,0.002639857353642583,-0.014798076823353767,0.008077091537415981
421.0,0.0,0.0,0.0,0.0,0.0,0.0,-0.018142469227313995,-0.014568132348358631,0.011042917147278786,0.9998612999916077,0.0033776776399463415,-0.015094645321369171,0.006139722652733326
422.0,0.0,0.0,0.0,0.0,0.0,0.0,-0.014965188689529896,-0.016195442527532578,0.0035112088080495596,0.999872088432312,0.003799802390858531,-0.01498639676719904,0.004119084682315588
423.0,0.0,0.0,0.0,0.0,0.0,0.0,-0.009739494882524014,-0.01924055442214012,0.0013625966385006905,0.9998798370361328,0.0038544833660125732,-0.014877796173095703,0.001964016119018197
424.0,0.0,0.0,0.0,0.0,0.0,0.0,-0.009471842087805271,-0.017078034579753876,0.014653664082288742,0.9998826384544373,0.0038279849104583263,-0.014837228693068027,0.0008537627290934324
425.0,0.0,0.0,0.0,0.0,0.0,0.0,-0.015923945233225822,-0.015339129604399204,0.024403536692261696,0.9998807907104492,0.0038292366079986095,-0.014948641881346703,-0.0006027798517607152
426.0,0.0,0.0,0.0,0.0,0.0,0.0,-0.022553961724042892,-0.014769804663956165,0.02265096828341484,0.9998772144317627,0.0038594985380768776,-0.015035361051559448,-0.0022745043970644474
427.0,0.0,0.0,0.0,0.0,0.0,0.0,-0.023174326866865158,-0.013308732770383358,0.011864010244607925,0.9998759031295776,0.003938714042305946,-0.014789192005991936,-0.0037538919132202864
428.0,0.0,0.0,0.0,0.0,0.0,0.0,-0.02718578837811947,-0.01296829991042614,8.115158561849967e-05,0.9998739361763,0.004116549156606197,-0.014496097341179848,-0.004980858415365219
429.0,0.0,0.0,0.0,0.0,0.0,0.0,-0.027848005294799805,-0.010343118570744991,-0.0033728182315826416,0.9998766183853149,0.004144173581153154,-0.013893206603825092,-0.006051620002835989
430.0,0.0,0.0,0.0,0.0,0.0,0.0,-0.028405724093317986,-0.00557937566190958,-0.008149790577590466,0.9998776912689209,0.004285270348191261,-0.013039286248385906,-0.0075159198604524136
431.0,0.0,0.0,0.0,0.0,0.0,0.0,-0.02789624221622944,-0.0020644166506826878,-0.015570073388516903,0.9998838305473328,0.00464100344106555,-0.011754978448152542,-0.008543587289750576
432.0,0.0,0.0,0.0,0.0,0.0,0.0,-0.02732742205262184,-0.0003390491765458137,-0.016552595421671867,0.9998817443847656,0.004957030061632395,-0.010456416755914688,-0.010144511237740517
433.0,0.0,0.0,0.0,0.0,0.0,0.0,-0.02584821730852127,0.0006813245126977563,-0.019763223826885223,0.9998858571052551,0.005225458648055792,-0.009122628718614578,-0.01086690928786993
434.0,0.0,0.0,0.0,0.0,0.0,0.0,-0.02435506135225296,0.0016513873124495149,-0.023550434038043022,0.9998877048492432,0.005784273147583008,-0.007907744497060776,-0.011351107619702816
435.0,0.0,0.0,0.0,0.0,0.0,0.0,-0.019761644303798676,0.009309414774179459,-0.019868606701493263,0.9998885989189148,0.006289287470281124,-0.006796549540013075,-0.011708148755133152
436.0,0.0,0.0,0.0,0.0,0.0,0.0,-0.019914180040359497,0.01307286974042654,-0.014864026568830013,0.9998891949653625,0.007002954371273518,-0.005823871120810509,-0.011777781881392002
437.0,0.0,0.0,0.0,0.0,0.0,0.0,-0.01913408935070038,0.018954990431666374,-0.007747677620500326,0.9998903870582581,0.007695828564465046,-0.004763809498399496,-0.011715039610862732
438.0,0.0,0.0,0.0,0.0,0.0,0.0,-0.017543625086545944,0.02138565294444561,-0.00505322078242898,0.9998869299888611,0.008522567339241505,-0.0037467433139681816,-0.011812289245426655
439.0,0.0,0.0,0.0,0.0,0.0,0.0,-0.013131221756339073,0.018692273646593094,-0.015836428850889206,0.9998873472213745,0.009252323769032955,-0.002730137901380658,-0.011504679918289185
440.0,0.0,0.0,0.0,0.0,0.0,0.0,-0.010695816949009895,0.021596934646368027,-0.009054334834218025,0.9998894929885864,0.009918631985783577,-0.00178705551661551,-0.0109260194003582
441.0,0.0,0.0,0.0,0.0,0.0,0.0,-0.013720935210585594,0.022077905014157295,-0.0009631200227886438,0.9998855590820312,0.010869808495044708,-0.000889413699042052,-0.010484835132956505
442.0,0.0,0.0,0.0,0.0,0.0,0.0,-0.013346001505851746,0.0202398169785738,-0.0006084014312364161,0.9998857975006104,0.011489173397421837,-0.0003125872171949595,-0.009839974343776703
443.0,0.0,0.0,0.0,0.0,0.0,0.0,-0.013667931780219078,0.019148198887705803,-0.0019392888061702251,0.9998772144317627,0.01228700578212738,0.00033327288110740483,-0.009717685170471668
444.0,0.0,0.0,0.0,0.0,0.0,0.0,-0.013481838628649712,0.016134146600961685,-0.001403363305144012,0.9998718500137329,0.012736762873828411,0.0012383217690512538,-0.009629650041460991
445.0,0.0,0.0,0.0,0.0,0.0,0.0,-0.014939003624022007,0.012876399792730808,0.003204375971108675,0.9998694658279419,0.013217573054134846,0.0019770481158047915,-0.009084233082830906
446.0,0.0,0.0,0.0,0.0,0.0,0.0,-0.014351511374115944,0.009484438225626945,0.008430884219706059,0.9998663067817688,0.01391072291880846,0.002512742765247822,-0.008235999383032322
447.0,0.0,0.0,0.0,0.0,0.0,0.0,-0.014445990324020386,0.008785178884863853,0.013054924085736275,0.9998602271080017,0.014521423727273941,0.0030778413638472557,-0.00769144156947732
448.0,0.0,0.0,0.0,0.0,0.0,0.0,-0.013528432697057724,0.007550036534667015,0.012043255381286144,0.9998496174812317,0.015133190900087357,0.003949244040995836,-0.007497052662074566
449.0,0.0,0.0,0.0,0.0,0.0,0.0,-0.011942635290324688,0.004192060325294733,0.00922844372689724,0.9998361468315125,0.01572582684457302,0.00494382856413722,-0.007482821587473154
450.0,0.0,0.0,0.0,0.0,0.0,0.0,-0.012774182483553886,0.007095895707607269,0.015426724217832088,0.9998242855072021,0.01637880876660347,0.006096505094319582,-0.006783404853194952
451.0,0.0,0.0,0.0,0.0,0.0,0.0,-0.0074330479837954044,0.014051471836864948,0.021737512201070786,0.9998033046722412,0.017717905342578888,0.0070664105005562305,-0.005447974894195795
452.0,0.0,0.0,0.0,0.0,0.0,0.0,0.0014793911250308156,0.023283837363123894,0.012569468468427658,0.9997648596763611,0.019749091938138008,0.008052104152739048,-0.003923874348402023
453.0,0.0,0.0,0.0,0.0,0.0,0.0,0.010446380823850632,0.03109733946621418,0.00419815257191658,0.99972003698349,0.021965529769659042,0.00850068312138319,-0.002286467468366027
454.0,0.0,0.0,0.0,0.0,0.0,0.0,0.015917114913463593,0.03232065215706825,-0.012141975574195385,0.9996621608734131,0.024360844865441322,0.008959620259702206,-0.0013493713922798634
455.0,0.0,0.0,0.0,0.0,0.0,0.0,0.020456288009881973,0.033922743052244186,-0.01998250186443329,0.9996083378791809,0.026194939389824867,0.009837712161242962,-0.00066996063105762
456.0,0.0,0.0,0.0,0.0,0.0,0.0,0.022920239716768265,0.02632061205804348,-0.027954241260886192,0.9995539784431458,0.027895063161849976,0.010645989328622818,-0.000504339172039181
457.0,0.0,0.0,0.0,0.0,0.0,0.0,0.021622825413942337,0.014272384345531464,-0.04511742666363716,0.999503493309021,0.02933049574494362,0.0115088215097785,-0.00041515837074257433
458.0,0.0,0.0,0.0,0.0,0.0,0.0,0.01942702755331993,0.004738980904221535,-0.04710486903786659,0.9994914531707764,0.029824547469615936,0.011185475625097752,0.0015076006529852748
459.0,0.0,0.0,0.0,0.0,0.0,0.0,0.01049884408712387,-0.0050983065739274025,-0.02854124642908573,0.9994597434997559,0.03041442111134529,0.012369849719107151,0.0015496292617172003
460.0,0.0,0.0,0.0,0.0,0.0,0.0,0.00687290308997035,-0.01548791117966175,-0.027385089546442032,0.9994409084320068,0.030596138909459114,0.013333799317479134,0.002027323003858328
461.0,0.0,0.0,0.0,0.0,0.0,0.0,0.006765680853277445,-0.02136111631989479,-0.024006351828575134,0.9994328618049622,0.030413726344704628,0.0142361456528306,0.002530178287997842
462.0,0.0,0.0,0.0,0.0,0.0,0.0,0.007358906324952841,-0.021267177537083626,-0.014409550465643406,0.9994354248046875,0.029837124049663544,0.015133928507566452,0.0030882693827152252
463.0,0.0,0.0,0.0,0.0,0.0,0.0,0.009783612564206123,-0.015255650505423546,-0.0005382834351621568,0.9994394779205322,0.029303621500730515,0.01576075330376625,0.0037154939491301775
464.0,0.0,0.0,0.0,0.0,0.0,0.0,0.0063761379569768906,-0.017137611284852028,0.008544094860553741,0.9994506239891052,0.028573723509907722,0.016269845888018608,0.004153464455157518
465.0,0.0,0.0,0.0,0.0,0.0,0.0,0.006762176286429167,-0.01707017980515957,0.017338789999485016,0.9994727373123169,0.02762153372168541,0.016362017020583153,0.004875249229371548
466.0,0.0,0.0,0.0,0.0,0.0,0.0,0.0023764767684042454,-0.017717083916068077,0.025920823216438293,0.9994888305664062,0.02693192847073078,0.016125325113534927,0.0060769557021558285
467.0,0.0,0.0,0.0,0.0,0.0,0.0,-0.0017661286983639002,-0.0241179708391428,0.0193141158670187,0.9995042681694031,0.026333892717957497,0.015619535930454731,0.007344108074903488
468.0,0.0,0.0,0.0,0.0,0.0,0.0,-0.0004207152232993394,-0.025497855618596077,0.01666327938437462,0.9995366334915161,0.02514377422630787,0.015527349896728992,0.0073128631338477135
469.0,0.0,0.0,0.0,0.0,0.0,0.0,0.0037400969304144382,-0.02046777307987213,0.0018366241129115224,0.999567985534668,0.02415667474269867,0.015260083600878716,0.006888299249112606
470.0,0.0,0.0,0.0,0.0,0.0,0.0,-0.005003429017961025,-0.02009640261530876,0.000606633082497865,0.9995982646942139,0.023049872368574142,0.015066899359226227,0.006714843213558197
471.0,0.0,0.0,0.0,0.0,0.0,0.0,-0.0022689884062856436,-0.009611701592803001,0.002692180685698986,0.9996232390403748,0.02192273736000061,0.015133418142795563,0.006619646679610014
472.0,0.0,0.0,0.0,0.0,0.0,0.0,6.58260250929743e-05,-0.0031278831884264946,0.0035115464124828577,0.9996403455734253,0.021122919395565987,0.015005113556981087,0.006931340787559748
473.0,0.0,0.0,0.0,0.0,0.0,0.0,-0.004840930458158255,-0.003809442510828376,0.01693924516439438,0.999651312828064,0.020532259717583656,0.014884592033922672,0.007358699571341276
474.0,0.0,0.0,0.0,0.0,0.0,0.0,-0.0041686296463012695,0.0001878789480542764,0.027676520869135857,0.9996721744537354,0.01979074254631996,0.014414656907320023,0.007489268202334642
475.0,0.0,0.0,0.0,0.0,0.0,0.0,-0.0035300443414598703,0.004289429169148207,0.024511227384209633,0.9996890425682068,0.01935492642223835,0.013708563521504402,0.007700875401496887
476.0,0.0,0.0,0.0,0.0,0.0,0.0,-0.0025385767221450806,0.006739308126270771,0.0012747782748192549,0.9997003078460693,0.019400835037231445,0.012726331129670143,0.007813472300767899
477.0,0.0,0.0,0.0,0.0,0.0,0.0,-0.007618939504027367,0.010545829311013222,0.023983780294656754,0.9997045397758484,0.019655846059322357,0.01170238945633173,0.008221781812608242
478.0,0.0,0.0,0.0,0.0,0.0,0.0,-0.0059890300035476685,0.010163824073970318,0.035240016877651215,0.9997074007987976,0.020078768953680992,0.010979745537042618,0.007836608216166496
479.0,0.0,0.0,0.0,0.0,0.0,0.0,0.0005491994670592248,0.010603541508316994,0.03599754348397255,0.9997106790542603,0.02056121453642845,0.010649477131664753,0.006513400934636593
480.0,0.0,0.0,0.0,0.0,0.0,0.0,0.005267927423119545,0.006572732701897621,0.005640903953462839,0.9996986985206604,0.0214400514960289,0.010430603288114071,0.005831114482134581
481.0,0.0,0.0,0.0,0.0,0.0,0.0,0.005286481697112322,0.009248105809092522,-0.002072579925879836,0.9996891617774963,0.02205815538764,0.010506771504878998,0.004965745843946934
482.0,0.0,0.0,0.0,0.0,0.0,0.0,0.005053557455539703,0.014558987691998482,0.0027839448302984238,0.9996736645698547,0.022970225661993027,0.010618362575769424,0.003491888288408518
483.0,0.0,0.0,0.0,0.0,0.0,0.0,0.0058744545094668865,0.009235378354787827,-0.017596669495105743,0.9996490478515625,0.02402317151427269,0.010949715040624142,0.002173773478716612
484.0,0.0,0.0,0.0,0.0,0.0,0.0,0.004970775451511145,0.004724009428173304,-0.06812316179275513,0.9996194243431091,0.02491154335439205,0.011793907731771469,0.001156872371211648
485.0,0.0,0.0,0.0,0.0,0.0,0.0,-0.00421113520860672,0.008018056862056255,-0.04368932917714119,0.999593198299408,0.025503935292363167,0.012730342335999012,0.0009854279924184084
486.0,0.0,0.0,0.0,0.0,0.0,0.0,-0.010910572484135628,0.013938181102275848,-0.019098056480288506,0.9995564818382263,0.02645067684352398,0.013621375896036625,0.0012938970467075706
487.0,0.0,0.0,0.0,0.0,0.0,0.0,-0.007788947317749262,0.01759965345263481,-0.039613958448171616,0.9995241165161133,0.02725115790963173,0.014349379576742649,0.0017548457253724337
488.0,0.0,0.0,0.0,0.0,0.0,0.0,-0.01414184458553791,0.01335844211280346,-0.04086826369166374,0.999487578868866,0.027793943881988525,0.015825094655156136,0.001313375891186297
489.0,0.0,0.0,0.0,0.0,0.0,0.0,-0.007527494337409735,0.018895737826824188,-0.06245574727654457,0.9994354248046875,0.028674332424998283,0.017452724277973175,0.0014481061371043324
490.0,0.0,0.0,0.0,0.0,0.0,0.0,-0.002532634185627103,0.023146942257881165,-0.07144679874181747,0.9993887543678284,0.029357537627220154,0.01886788383126259,0.0020609365310519934
491.0,0.0,0.0,0.0,0.0,0.0,0.0,-0.008495001122355461,0.019442252814769745,-0.05493893474340439,0.9993436932563782,0.0299281794577837,0.020114624872803688,0.0034403549507260323
492.0,0.0,0.0,0.0,0.0,0.0,0.0,-0.007182628847658634,0.017099332064390182,-0.0380893237888813,0.9993064999580383,0.030188044533133507,0.021130330860614777,0.005358533933758736
493.0,0.0,0.0,0.0,0.0,0.0,0.0,-0.005484723951667547,0.017028672620654106,-0.02140250988304615,0.9992685914039612,0.030369019135832787,0.022032249718904495,0.0073930807411670685
494.0,0.0,0.0,0.0,0.0,0.0,0.0,-0.002574129495769739,0.017891235649585724,-0.01998174376785755,0.9992276430130005,0.030543778091669083,0.022786173969507217,0.009596426039934158
495.0,0.0,0.0,0.0,0.0,0.0,0.0,0.0015589045360684395,0.019987719133496284,-0.014943178743124008,0.9991931915283203,0.030719535425305367,0.023277156054973602,0.011291153728961945
496.0,0.0,0.0,0.0,0.0,0.0,0.0,0.0020569898188114166,0.01658129319548607,-0.013167713768780231,0.9991547465324402,0.03072202205657959,0.02383503131568432,0.013337048701941967
497.0,0.0,0.0,0.0,0.0,0.0,0.0,0.004684124141931534,0.009939916431903839,-0.018880750983953476,0.9991087913513184,0.030861681327223778,0.024021724238991737,0.015879793092608452
498.0,0.0,0.0,0.0,0.0,0.0,0.0,0.00684761768206954,0.005117345601320267,-0.020914897322654724,0.9990861415863037,0.03053736872971058,0.024122899398207664,0.017677176743745804
499.0,0.0,0.0,0.0,0.0,0.0,0.0,0.011781926266849041,-0.0007463374640792608,-0.03176116570830345,0.9990703463554382,0.029760461300611496,0.02476600557565689,0.01895802840590477
500.0,0.0,0.0,0.0,0.0,0.0,0.0,0.012008361518383026,0.0018336392240598798,-0.03206130862236023,0.9990560412406921,0.028723152354359627,0.025058675557374954,0.020837171003222466
501.0,0.0,0.0,0.0,0.0,0.0,0.0,0.00795789435505867,0.0030430143233388662,-0.0007877584430389106,0.9990366101264954,0.027535518631339073,0.02486390247941017,0.023439645767211914
502.0,0.0,0.0,0.0,0.0,0.0,0.0,0.0010483121732249856,0.004027065355330706,0.02083705924451351,0.999025285243988,0.02624656818807125,0.02452664077281952,0.02565285935997963
503.0,0.0,0.0,0.0,0.0,0.0,0.0,0.003117823274806142,-0.0018671132856979966,0.030797256156802177,0.9990327954292297,0.024759620428085327,0.024057110771536827,0.027234701439738274
504.0,0.0,0.0,0.0,0.0,0.0,0.0,0.007573975715786219,-0.008388892747461796,0.006775100715458393,0.9990384578704834,0.023144952952861786,0.023772943764925003,0.028658244758844376
505.0,0.0,0.0,0.0,0.0,0.0,0.0,0.011318059638142586,0.0002793733438011259,0.005720184184610844,0.9990406036376953,0.021687988191843033,0.023604823276400566,0.02984134666621685
506.0,0.0,0.0,0.0,0.0,0.0,0.0,0.012703359127044678,0.005288556218147278,0.021696122363209724,0.9990556240081787,0.020318953320384026,0.022892680019140244,0.030837547034025192
507.0,0.0,0.0,0.0,0.0,0.0,0.0,0.010882430709898472,0.013998240232467651,0.04067332297563553,0.9990808367729187,0.018817702308297157,0.021940985694527626,0.03165314346551895
508.0,0.0,0.0,0.0,0.0,0.0,0.0,0.009568884037435055,0.013550211675465107,0.04105764999985695,0.9991229176521301,0.01776335947215557,0.020692171528935432,0.03177371248602867
509.0,0.0,0.0,0.0,0.0,0.0,0.0,0.015375647693872452,0.00899989902973175,0.0157692339271307,0.999172031879425,0.01663258858025074,0.0194020327180624,0.031657762825489044
510.0,0.0,0.0,0.0,0.0,0.0,0.0,0.011413141153752804,0.001561207347549498,0.004352852702140808,0.9992064833641052,0.01579897850751877,0.018290642648935318,0.0316593199968338
511.0,0.0,0.0,0.0,0.0,0.0,0.0,0.011331220157444477,-0.00040305592119693756,-0.0017748400568962097,0.9992374777793884,0.014981436543166637,0.017377573996782303,0.03159230947494507
512.0,0.0,0.0,0.0,0.0,0.0,0.0,0.014066348783671856,-0.004431605339050293,-0.017194749787449837,0.9992657899856567,0.014107100665569305,0.016677046194672585,0.03147576376795769
513.0,0.0,0.0,0.0,0.0,0.0,0.0,0.016414392739534378,-0.0011895208153873682,-0.010414478369057178,0.9992663264274597,0.013168100267648697,0.01613548956811428,0.03214258700609207
514.0,0.0,0.0,0.0,0.0,0.0,0.0,0.011465128511190414,-0.006283991504460573,-0.002924257656559348,0.9992778301239014,0.012120043858885765,0.015563209541141987,0.03247736394405365
515.0,0.0,0.0,0.0,0.0,0.0,0.0,0.011822744272649288,-0.00717229675501585,-0.0016206471482291818,0.9992868900299072,0.011182958260178566,0.014887237921357155,0.03284834325313568
516.0,0.0,0.0,0.0,0.0,0.0,0.0,0.011965334415435791,-0.007870640605688095,0.0007701225113123655,0.9992911219596863,0.010265708900988102,0.014307756908237934,0.03327651694417
517.0,0.0,0.0,0.0,0.0,0.0,0.0,0.009874136187136173,-0.008896343410015106,0.006826498545706272,0.9993159770965576,0.009102367796003819,0.013629626482725143,0.03315206989645958
518.0,0.0,0.0,0.0,0.0,0.0,0.0,0.007805307395756245,-0.00743899354711175,0.016451334580779076,0.9993476867675781,0.007966206409037113,0.01316609513014555,0.03267209976911545
519.0,0.0,0.0,0.0,0.0,0.0,0.0,0.006317600607872009,-0.005057215224951506,0.02395140752196312,0.9993641376495361,0.007237069774419069,0.012521225959062576,0.03259233012795448
520.0,0.0,0.0,0.0,0.0,0.0,0.0,-0.0024008501786738634,-0.004279722925275564,0.0501033253967762,0.9993914365768433,0.006314257625490427,0.011784331873059273,0.03222077712416649
521.0,0.0,0.0,0.0,0.0,0.0,0.0,0.008291050791740417,-0.008298341184854507,0.014487139880657196,0.9994300603866577,0.006128900684416294,0.011060405522584915,0.03130083531141281
522.0,0.0,0.0,0.0,0.0,0.0,0.0,0.014530190266668797,-0.010182567872107029,-0.010118873789906502,0.9994447827339172,0.0057021379470825195,0.010159735567867756,0.031215108931064606
523.0,0.0,0.0,0.0,0.0,0.0,0.0,0.0021518091671168804,-0.005775765981525183,0.026358680799603462,0.9994716048240662,0.005368719343096018,0.0095753138884902,0.03059469535946846
524.0,0.0,0.0,0.0,0.0,0.0,0.0,0.005219643469899893,-0.0005368299898691475,0.009847952984273434,0.999502956867218,0.00520483311265707,0.009060630574822426,0.02974446676671505
525.0,0.0,0.0,0.0,0.0,0.0,0.0,0.0004904739325866103,-0.00199060863815248,-0.0003955884894821793,0.9995157122612,0.004928036592900753,0.008300380781292915,0.029583387076854706
526.0,0.0,0.0,0.0,0.0,0.0,0.0,-0.006876673083752394,0.004438155796378851,0.030322130769491196,0.9995280504226685,0.005135806277394295,0.007833847776055336,0.029258739203214645
527.0,0.0,0.0,0.0,0.0,0.0,0.0,0.002258006250485778,0.0023935167118906975,-0.010649987496435642,0.9995434880256653,0.005665413569658995,0.007594530936330557,0.0286885853856802
528.0,0.0,0.0,0.0,0.0,0.0,0.0,0.0027326210401952267,-0.000804734940174967,-0.013301458209753036,0.9995555877685547,0.005768600385636091,0.007413358427584171,0.028291800990700722
529.0,0.0,0.0,0.0,0.0,0.0,0.0,-0.0013867205707356334,-0.0036817898508161306,-0.013352472335100174,0.9995642304420471,0.0059507545083761215,0.007325797341763973,0.027969228103756905
530.0,0.0,0.0,0.0,0.0,0.0,0.0,-0.0004649460897780955,-0.004324538633227348,-0.016725707799196243,0.9995707869529724,0.005920359864830971,0.007166089490056038,0.027780108153820038
531.0,0.0,0.0,0.0,0.0,0.0,0.0,-0.0030305180698633194,-0.0067541031166911125,-0.013738922774791718,0.9995734095573425,0.005699089728295803,0.007023381069302559,0.027770288288593292
532.0,0.0,0.0,0.0,0.0,0.0,0.0,-0.00534813292324543,-0.0066338530741631985,-0.01048767939209938,0.9995828866958618,0.005566708743572235,0.0068390946835279465,0.02750103734433651
533.0,0.0,0.0,0.0,0.0,0.0,0.0,-0.007844709791243076,-0.004751169588416815,0.0014408717397600412,0.9995962381362915,0.005308487918227911,0.006690674927085638,0.0271034836769104
534.0,0.0,0.0,0.0,0.0,0.0,0.0,-0.0061248415149748325,-0.009270619601011276,-0.007457421626895666,0.9995984435081482,0.005413363687694073,0.006505660712718964,0.02704477682709694
535.0,0.0,0.0,0.0,0.0,0.0,0.0,-0.005352121777832508,-0.007875779643654823,-0.010737207718193531,0.9995996356010437,0.005247866734862328,0.006473866757005453,0.027041824534535408
536.0,0.0,0.0,0.0,0.0,0.0,0.0,-0.009430747479200363,-0.005759406369179487,0.0011094522196799517,0.9996111392974854,0.004905638750642538,0.006662474945187569,0.026633549481630325
537.0,0.0,0.0,0.0,0.0,0.0,0.0,-0.008536688052117825,-0.0029184732120484114,-0.0011402920354157686,0.9996178150177002,0.00470433384180069,0.006556688342243433,0.026442404836416245
538.0,0.0,0.0,0.0,0.0,0.0,0.0,-0.009367060847580433,-0.00036101663135923445,-0.001063831732608378,0.9996068477630615,0.004737776704132557,0.00643677543848753,0.026874519884586334
539.0,0.0,0.0,0.0,0.0,0.0,0.0,-0.014790426939725876,0.00823406595736742,0.030535515397787094,0.9996019601821899,0.0046631027944386005,0.0062877945601940155,0.027103452011942863
540.0,0.0,0.0,0.0,0.0,0.0,0.0,-0.009672562591731548,0.010272316634654999,0.03387347608804703,0.9996044039726257,0.004780237562954426,0.005977784749120474,0.027064241468906403
541.0,0.0,0.0,0.0,0.0,0.0,0.0,-0.005445840302854776,0.0025516399182379246,0.024076569825410843,0.9996071457862854,0.00501983379945159,0.0058728414587676525,0.026943389326334
542.0,0.0,0.0,0.0,0.0,0.0,0.0,0.0011749117402359843,-0.007500187959522009,0.019646072760224342,0.9995965361595154,0.005026495084166527,0.005472145043313503,0.027417421340942383
543.0,0.0,0.0,0.0,0.0,0.0,0.0,-0.003964442294090986,-0.0048374030739068985,0.04761338606476784,0.9996023774147034,0.005015278235077858,0.004720459226518869,0.027349838986992836
544.0,0.0,0.0,0.0,0.0,0.0,0.0,-0.0036638081073760986,-0.006281094625592232,0.04770604521036148,0.9996135234832764,0.0056448145769536495,0.003958561457693577,0.0269309189170599
545.0,0.0,0.0,0.0,0.0,0.0,0.0,-0.002441092161461711,-0.013816927559673786,0.029385080561041832,0.9996328949928284,0.006215500179678202,0.0038121493998914957,0.02609580010175705
546.0,0.0,0.0,0.0,0.0,0.0,0.0,0.00422613276168704,-0.008143087849020958,-0.00015714563778601587,0.9996703863143921,0.006800539791584015,0.004140396136790514,0.024411320686340332
547.0,0.0,0.0,0.0,0.0,0.0,0.0,0.0021460007410496473,-0.008940573781728745,-0.021210849285125732,0.9996902346611023,0.0076798126101493835,0.0047216531820595264,0.023201745003461838
548.0,0.0,0.0,0.0,0.0,0.0,0.0,0.005458763800561428,-0.009415822103619576,-0.04526260495185852,0.9996801018714905,0.008706853725016117,0.005471528973430395,0.023108216002583504
549.0,0.0,0.0,0.0,0.0,0.0,0.0,0.0028024865314364433,-0.009671957232058048,-0.0406981036067009,0.9996781945228577,0.009089360013604164,0.006541083566844463,0.02276606112718582
550.0,0.0,0.0,0.0,0.0,0.0,0.0,0.00832389947026968,-0.012090088799595833,-0.047375887632369995,0.9996824264526367,0.00938891340047121,0.007428713608533144,0.02217692881822586
551.0,0.0,0.0,0.0,0.0,0.0,0.0,0.00923025980591774,-0.0069655124098062515,-0.03390796110033989,0.9996823072433472,0.009306120686233044,0.008060477674007416,0.0219954252243042
552.0,0.0,0.0,0.0,0.0,0.0,0.0,0.008677713572978973,-0.0045302193611860275,-0.01975555159151554,0.9996755719184875,0.009266762994229794,0.008280424401164055,0.02224057912826538
553.0,0.0,0.0,0.0,0.0,0.0,0.0,0.006875589024275541,-0.0008544352021999657,-0.002191616455093026,0.9996559023857117,0.00928723718971014,0.008674005046486855,0.022957688197493553
554.0,0.0,0.0,0.0,0.0,0.0,0.0,0.0111627709120512,-0.0010642081033438444,0.008362253196537495,0.9996351599693298,0.009178627282381058,0.008903643116354942,0.023789511993527412
555.0,0.0,0.0,0.0,0.0,0.0,0.0,0.013608800247311592,-0.0011358009651303291,0.024495119228959084,0.9996389746665955,0.008777146227657795,0.008689452894032001,0.02386285737156868
556.0,0.0,0.0,0.0,0.0,0.0,0.0,0.01747845858335495,-0.009328526444733143,0.013250945135951042,0.9996589422225952,0.008371526375412941,0.008473793976008892,0.023244399577379227
557.0,0.0,0.0,0.0,0.0,0.0,0.0,0.016775360330939293,-0.01277951244264841,0.008258921094238758,0.999683141708374,0.007901700213551521,0.008380324579775333,0.022383157163858414
558.0,0.0,0.0,0.0,0.0,0.0,0.0,0.017284885048866272,-0.0023810549173504114,0.017371827736496925,0.9996874928474426,0.007807633839547634,0.007988125085830688,0.022362641990184784
559.0,0.0,0.0,0.0,0.0,0.0,0.0,0.015735769644379616,0.004698060918599367,0.0337432362139225,0.9997026920318604,0.007918656803667545,0.007586384192109108,0.021781058982014656
560.0,0.0,0.0,0.0,0.0,0.0,0.0,0.020723706111311913,0.00908226240426302,0.049107830971479416,0.9997115731239319,0.00856846198439598,0.006569816265255213,0.02145874872803688
561.0,0.0,0.0,0.0,0.0,0.0,0.0,0.02575131505727768,0.008710857480764389,0.06127799674868584,0.9997117519378662,0.009604870341718197,0.005398999899625778,0.021334661170840263
562.0,0.0,0.0,0.0,0.0,0.0,0.0,0.01915232464671135,0.012478030286729336,0.0847853422164917,0.9997188448905945,0.011330591514706612,0.004222121089696884,0.02040455862879753
563.0,0.0,0.0,0.0,0.0,0.0,0.0,0.02816605009138584,-0.0088792210444808,0.008767581544816494,0.9997369050979614,0.013354802504181862,0.0043691289611160755,0.01813674159348011
564.0,0.0,0.0,0.0,0.0,0.0,0.0,0.05331891402602196,-0.02154815010726452,-0.10990361124277115,0.9997283220291138,0.014868386089801788,0.005181205924600363,0.017186364158988
565.0,0.0,0.0,0.0,0.0,0.0,0.0,0.04372395947575569,-0.011553727090358734,-0.08949456363916397,0.9996972680091858,0.01558701228350401,0.005303403362631798,0.018287131562829018
566.0,0.0,0.0,0.0,0.0,0.0,0.0,0.03862134367227554,-0.011595233343541622,-0.08318442106246948,0.9996637105941772,0.015874460339546204,0.004987434484064579,0.019900312647223473
567.0,0.0,0.0,0.0,0.0,0.0,0.0,0.03463181480765343,-0.01706426963210106,-0.08743609488010406,0.9996391534805298,0.015354370698332787,0.004083890933543444,0.021656757220625877
568.0,0.0,0.0,0.0,0.0,0.0,0.0,0.027251018211245537,-0.019255666062235832,-0.06644569337368011,0.999613344669342,0.014253147877752781,0.00330409687012434,0.02365242876112461
569.0,0.0,0.0,0.0,0.0,0.0,0.0,0.01495046354830265,-0.02418287843465805,-0.051627978682518005,0.9995927810668945,0.012472373433411121,0.002083380473777652,0.02558319643139839
570.0,0.0,0.0,0.0,0.0,0.0,0.0,-0.002231106860563159,-0.026033783331513405,-0.030257221311330795,0.999578595161438,0.010170774534344673,0.0009687187848612666,0.027170104905962944
571.0,0.0,0.0,0.0,0.0,0.0,0.0,-0.019994935020804405,-0.021230703219771385,0.006698416545987129,0.9995605945587158,0.007522456347942352,-0.00025783677119761705,0.02867509424686432
572.0,0.0,0.0,0.0,0.0,0.0,0.0,-0.0242695864289999,-0.01761043444275856,0.023562882095575333,0.9995463490486145,0.005209648981690407,-0.0018298543291166425,0.029610805213451385
573.0,0.0,0.0,0.0,0.0,0.0,0.0,-0.031678277999162674,-0.01613224856555462,0.04333341121673584,0.9995437264442444,0.0030384690035134554,-0.003297246526926756,0.029871759936213493
574.0,0.0,0.0,0.0,0.0,0.0,0.0,-0.038308411836624146,-0.014755433425307274,0.04688147455453873,0.9995298385620117,0.0010572156170383096,-0.0050932797603309155,0.030214350670576096
575.0,0.0,0.0,0.0,0.0,0.0,0.0,-0.04871852323412895,-0.008905653841793537,0.04510283097624779,0.999516487121582,-0.0009333744528703392,-0.006817306857556105,0.030323905870318413
576.0,0.0,0.0,0.0,0.0,0.0,0.0,-0.05825436860322952,-0.005542042199522257,0.06086314842104912,0.9995160102844238,-0.002406764542683959,-0.00830971822142601,0.02987847663462162
577.0,0.0,0.0,0.0,0.0,0.0,0.0,-0.06484164297580719,-0.0054938611574471,0.06552617251873016,0.9995258450508118,-0.0039611938409507275,-0.009266749024391174,0.029098685830831528
578.0,0.0,0.0,0.0,0.0,0.0,0.0,-0.06408161669969559,0.001974339596927166,0.06398504972457886,0.9995540976524353,-0.005129070021212101,-0.009995666332542896,0.02766750566661358
579.0,0.0,0.0,0.0,0.0,0.0,0.0,-0.06105021387338638,0.0032527651637792587,0.050837576389312744,0.999581515789032,-0.006121678743511438,-0.010484841652214527,0.026262804865837097
580.0,0.0,0.0,0.0,0.0,0.0,0.0,-0.06460034847259521,0.0031761329155415297,0.04493938386440277,0.9996102452278137,-0.006615166086703539,-0.010776032693684101,0.024882886558771133
581.0,0.0,0.0,0.0,0.0,0.0,0.0,-0.06125665828585625,0.004274785052984953,0.029835904017090797,0.9996546506881714,-0.007107520941644907,-0.010696605779230595,0.02293260022997856
582.0,0.0,0.0,0.0,0.0,0.0,0.0,-0.05233171954751015,0.011311675421893597,0.02206810750067234,0.9997040033340454,-0.007252085953950882,-0.010664289817214012,0.020636742934584618
583.0,0.0,0.0,0.0,0.0,0.0,0.0,-0.050456587225198746,0.01717471331357956,0.019032027572393417,0.9997451305389404,-0.0067903692834079266,-0.010509270243346691,0.018799027428030968
584.0,0.0,0.0,0.0,0.0,0.0,0.0,-0.04758075252175331,0.018233342096209526,0.022363007068634033,0.9997868537902832,-0.0058980598114430904,-0.010221942327916622,0.016939740628004074
585.0,0.0,0.0,0.0,0.0,0.0,0.0,-0.04134878143668175,0.01681298390030861,0.00722138024866581,0.9998277425765991,-0.004936110228300095,-0.009527608752250671,0.015144888311624527
586.0,0.0,0.0,0.0,0.0,0.0,0.0,-0.03298326954245567,0.016674146056175232,-0.004746482241898775,0.9998628497123718,-0.003990445286035538,-0.008670604787766933,0.013544064946472645
587.0,0.0,0.0,0.0,0.0,0.0,0.0,-0.023038344457745552,0.013301325961947441,-0.027972156181931496,0.9998965263366699,-0.002725084312260151,-0.0075731161050498486,0.011926609091460705
588.0,0.0,0.0,0.0,0.0,0.0,0.0,-0.019706647843122482,0.008493746630847454,-0.03192811831831932,0.9999244809150696,-0.0016973897581920028,-0.006342739332467318,0.010395165532827377
589.0,0.0,0.0,0.0,0.0,0.0,0.0,-0.018168572336435318,0.007954191416501999,-0.022365665063261986,0.9999407529830933,-0.0006316030630841851,-0.005272792186588049,0.00950682070106268
590.0,0.0,0.0,0.0,0.0,0.0,0.0,-0.011025980114936829,0.004449138417840004,-0.022382402792572975,0.9999493956565857,0.0005806969129480422,-0.0043732114136219025,0.009042863734066486
591.0,0.0,0.0,0.0,0.0,0.0,0.0,-0.009112659841775894,-0.00018088008800987154,-0.01873856596648693,0.9999570846557617,0.001405071932822466,-0.003320401068776846,0.008549646474421024
592.0,0.0,0.0,0.0,0.0,0.0,0.0,-0.00511517096310854,-0.0011042306432500482,-0.010670550167560577,0.9999572038650513,0.0024492472875863314,-0.002496725646778941,0.008570426143705845
593.0,0.0,0.0,0.0,0.0,0.0,0.0,0.0022243033163249493,-0.003239977639168501,-0.011577530764043331,0.9999565482139587,0.005098084919154644,-0.00017204789037350565,0.007805894128978252
594.0,0.0,0.0,0.0,0.0,0.0,0.0,0.004584692418575287,-0.011004704050719738,-0.01890944130718708,0.9999593496322632,0.005656074732542038,0.000986700877547264,0.006958797574043274
595.0,0.0,0.0,0.0,0.0,0.0,0.0,0.008723757229745388,-0.00768642732873559,-0.007535134442150593,0.9999589323997498,0.006068564020097256,0.002081338781863451,0.0064014410600066185
596.0,0.0,0.0,0.0,0.0,0.0,0.0,0.010900815017521381,-0.0045037646777927876,0.006341286934912205,0.999955415725708,0.0064279548823833466,0.002724471502006054,0.006366388406604528
597.0,0.0,0.0,0.0,0.0,0.0,0.0,0.01173863373696804,-0.004557154141366482,0.010755685158073902,0.9999480843544006,0.006900654640048742,0.0033061015419662,0.006744077429175377
598.0,0.0,0.0,0.0,0.0,0.0,0.0,0.011277763172984123,-0.002157326554879546,0.0166323184967041,0.9999454617500305,0.007190114352852106,0.0037570137064903975,0.006592833902686834
599.0,0.0,0.0,0.0,0.0,0.0,0.0,0.012524771504104137,-0.001989448443055153,0.026412982493638992,0.9999420642852783,0.007750386837869883,0.004441964440047741,0.0060219536535441875
600.0,0.0,0.0,0.0,0.0,0.0,0.0,0.013592963106930256,0.0014957780949771404,0.029610034078359604,0.9999377727508545,0.008270337246358395,0.005031656473875046,0.005564382299780846
601.0,0.0,0.0,0.0,0.0,0.0,0.0,0.015886589884757996,0.003260874655097723,0.024626050144433975,0.9999294877052307,0.009075937792658806,0.005344110541045666,0.0054921358823776245
602.0,0.0,0.0,0.0,0.0,0.0,0.0,0.0206036064773798,0.005638078320771456,0.015775851905345917,0.9999257326126099,0.009676260873675346,0.005785917863249779,0.004603782668709755
603.0,0.0,0.0,0.0,0.0,0.0,0.0,0.029191317036747932,0.013900555670261383,0.004779708106070757,0.9999207854270935,0.0103547228500247,0.006347867660224438,0.0033052542712539434
604.0,0.0,0.0,0.0,0.0,0.0,0.0,0.03337261080741882,0.013797800987958908,-0.0037607550621032715,0.9999083876609802,0.01123078167438507,0.006791775114834309,0.003366687335073948
605.0,0.0,0.0,0.0,0.0,0.0,0.0,0.02687288448214531,0.00042974931420758367,-0.005958043038845062,0.9998999238014221,0.01177374180406332,0.006994057912379503,0.003596462309360504
606.0,0.0,0.0,0.0,0.0,0.0,0.0,0.020796343684196472,-0.0018465373432263732,0.0070044551976025105,0.9998953342437744,0.012067258358001709,0.0072389570996165276,0.003348688594996929
607.0,0.0,0.0,0.0,0.0,0.0,0.0,0.016275152564048767,0.00023160254932008684,0.02109111286699772,0.9998924136161804,0.012119237333536148,0.007811261340975761,0.0027538686990737915
608.0,0.0,0.0,0.0,0.0,0.0,0.0,0.013125797733664513,0.006822329945862293,0.03670584410429001,0.999889612197876,0.012397483922541142,0.007793037686496973,0.0024955517146736383
609.0,0.0,0.0,0.0,0.0,0.0,0.0,0.013316298834979534,0.00947931595146656,0.028020448982715607,0.9998776316642761,0.013103385455906391,0.008470325730741024,0.0011987554607912898
610.0,0.0,0.0,0.0,0.0,0.0,0.0,0.019899161532521248,0.00878746248781681,-0.011368446983397007,0.9998637437820435,0.013836146332323551,0.009007533080875874,7.927412661956623e-05
611.0,0.0,0.0,0.0,0.0,0.0,0.0,0.013989514671266079,0.014966324903070927,0.0040648328140378,0.9998512268066406,0.01464908104389906,0.00909710954874754,-7.991813617991284e-05
612.0,0.0,0.0,0.0,0.0,0.0,0.0,0.00878115650266409,0.019140293821692467,0.0215760450810194,0.9998306035995483,0.01593666709959507,0.009193322621285915,0.0005436838255263865
613.0,0.0,0.0,0.0,0.0,0.0,0.0,0.008121730759739876,0.016018694266676903,0.03054073452949524,0.9998104572296143,0.017153911292552948,0.009168805554509163,0.0007762498571537435
614.0,0.0,0.0,0.0,0.0,0.0,0.0,0.01108253002166748,0.01875903643667698,-0.0018870738567784429,0.9997861981391907,0.01831536740064621,0.009602962993085384,0.00020614474487956613
615.0,0.0,0.0,0.0,0.0,0.0,0.0,0.012020541355013847,0.018407883122563362,-0.011184172704815865,0.9997612237930298,0.019327009096741676,0.0102290203794837,-0.0002567055926192552
616.0,0.0,0.0,0.0,0.0,0.0,0.0,0.008001040667295456,0.023829977959394455,0.004835473373532295,0.9997345805168152,0.020617732778191566,0.010283555835485458,-0.00039665790973231196
617.0,0.0,0.0,0.0,0.0,0.0,0.0,0.002978638047352433,0.01963880844414234,0.0024871760979294777,0.9997045397758484,0.021884284913539886,0.010583261027932167,-0.0005386219127103686
618.0,0.0,0.0,0.0,0.0,0.0,0.0,0.009310003370046616,0.01835610903799534,-0.010464462451636791,0.9996693730354309,0.02310897782444954,0.01123795472085476,-0.0009862410370260477
619.0,0.0,0.0,0.0,0.0,0.0,0.0,0.013819641433656216,0.026341019198298454,-0.029018040746450424,0.9996404647827148,0.024205181747674942,0.011523814871907234,-0.0007630544132553041
620.0,0.0,0.0,0.0,0.0,0.0,0.0,0.00599178671836853,0.029608571901917458,-0.007756947074085474,0.9996014833450317,0.025814691558480263,0.011421145871281624,-0.00039628459489904344
621.0,0.0,0.0,0.0,0.0,0.0,0.0,0.006524467375129461,0.024252908304333687,-0.0249285027384758,0.9995574951171875,0.027499079704284668,0.011320137418806553,-0.00021449339692480862
622.0,0.0,0.0,0.0,0.0,0.0,0.0,0.004814757965505123,0.019011516124010086,-0.044659703969955444,0.9995189309120178,0.028736133128404617,0.011617528274655342,0.00106356805190444
623.0,0.0,0.0,0.0,0.0,0.0,0.0,0.00285338400863111,0.017400993034243584,-0.03598470240831375,0.9994861483573914,0.029719891026616096,0.011899322271347046,0.0016174520133063197
624.0,0.0,0.0,0.0,0.0,0.0,0.0,0.0009734378545545042,0.015867946669459343,-0.03533348813652992,0.9994665384292603,0.030272960662841797,0.0119784539565444,0.0025945818051695824
625.0,0.0,0.0,0.0,0.0,0.0,0.0,0.0010238136164844036,0.014875710941851139,-0.015445596538484097,0.9994450211524963,0.030875567346811295,0.012101682834327221,0.003138181986287236
626.0,0.0,0.0,0.0,0.0,0.0,0.0,0.003932402469217777,0.014627031050622463,-0.037651218473911285,0.9994284510612488,0.031361501663923264,0.012039946392178535,0.0037736366502940655
627.0,0.0,0.0,0.0,0.0,0.0,0.0,0.0022008917294442654,0.011194054037332535,-0.033822111785411835,0.9994112253189087,0.03163623437285423,0.012056898325681686,0.00556288892403245
628.0,0.0,0.0,0.0,0.0,0.0,0.0,0.0005942721618339419,0.010434750467538834,-0.01255942601710558,0.9994099736213684,0.03137293830513954,0.011900740675628185,0.0073557510040700436
629.0,0.0,0.0,0.0,0.0,0.0,0.0,-0.0036142049357295036,0.012216598726809025,0.005356310401111841,0.9993964433670044,0.03163730353116989,0.011371312662959099,0.008752236142754555
630.0,0.0,0.0,0.0,0.0,0.0,0.0,-0.006150437518954277,0.011217246763408184,-0.03623495623469353,0.9993844032287598,0.03180425986647606,0.011241107247769833,0.00964005570858717
631.0,0.0,0.0,0.0,0.0,0.0,0.0,-0.008905209600925446,0.010162667371332645,0.03598751872777939,0.9993834495544434,0.03164001926779747,0.010429292917251587,0.011089327745139599
632.0,0.0,0.0,0.0,0.0,0.0,0.0,-0.011483755894005299,0.0020632250234484673,0.0076528810895979404,0.9993807673454285,0.03180833160877228,0.009994005784392357,0.011254768818616867
633.0,0.0,0.0,0.0,0.0,0.0,0.0,-0.009847436100244522,-0.003534013871103525,-0.03682347759604454,0.9993886351585388,0.03186442330479622,0.010104619897902012,0.010238572023808956
634.0,0.0,0.0,0.0,0.0,0.0,0.0,-0.010718844830989838,-0.0015770511236041784,-0.06246086582541466,0.9994016289710999,0.031643591821193695,0.010324377566576004,0.00941485445946455
635.0,0.0,0.0,0.0,0.0,0.0,0.0,-0.012111103162169456,0.007966152392327785,-0.06484537571668625,0.9993917942047119,0.03162332624197006,0.010518600232899189,0.010269028134644032
636.0,0.0,0.0,0.0,0.0,0.0,0.0,-0.01570051908493042,0.007967256009578705,-0.031035104766488075,0.9993842244148254,0.03129344806075096,0.01021839864552021,0.012146400287747383
637.0,0.0,0.0,0.0,0.0,0.0,0.0,-0.025057239457964897,-0.004504278767853975,-0.04338812083005905,0.9993911385536194,0.030636830255389214,0.010660798288881779,0.012847972102463245
638.0,0.0,0.0,0.0,0.0,0.0,0.0,-0.0347641259431839,-0.025630377233028412,-0.05925697833299637,0.9994151592254639,0.028853492811322212,0.011883127503097057,0.013987980782985687
639.0,0.0,0.0,0.0,0.0,0.0,0.0,-0.028603922575712204,-0.02462170645594597,-0.021276725456118584,0.9994384050369263,0.026818808168172836,0.013043073937296867,0.015280081890523434
640.0,0.0,0.0,0.0,0.0,0.0,0.0,-0.023215917870402336,-0.026489542797207832,0.015002583153545856,0.999462366104126,0.02465999498963356,0.013206766918301582,0.017103124409914017
641.0,0.0,0.0,0.0,0.0,0.0,0.0,-0.021134616807103157,-0.01458439789712429,0.012228881008923054,0.9994655847549438,0.023243753239512444,0.012962290085852146,0.01898018829524517
642.0,0.0,0.0,0.0,0.0,0.0,0.0,-0.019239047542214394,0.004969011526554823,0.03199690580368042,0.9994638562202454,0.02238561399281025,0.012855210341513157,0.020139705389738083
643.0,0.0,0.0,0.0,0.0,0.0,0.0,-0.00981991272419691,0.0030891422647982836,-0.022836042568087578,0.9994682669639587,0.021878810599446297,0.012880419380962849,0.02045823261141777
644.0,0.0,0.0,0.0,0.0,0.0,0.0,-0.013162646442651749,-0.0033768618013709784,-0.016639864072203636,0.9994580149650574,0.02099098451435566,0.01280541718006134,0.021889114752411842
645.0,0.0,0.0,0.0,0.0,0.0,0.0,-0.018970897421240807,-0.0032288089860230684,0.0030793817713856697,0.99943608045578,0.020713724195957184,0.012794936075806618,0.023123981431126595
646.0,0.0,0.0,0.0,0.0,0.0,0.0,-0.022547179833054543,-0.009376884438097477,-0.0311494879424572,0.9994218945503235,0.019979866221547127,0.013355681672692299,0.02404826320707798
647.0,0.0,0.0,0.0,0.0,0.0,0.0,-0.021741507574915886,-0.004332920536398888,-0.01078299805521965,0.9994062185287476,0.019208084791898727,0.013983940705657005,0.024953950196504593
648.0,0.0,0.0,0.0,0.0,0.0,0.0,-0.02092835307121277,0.0014149503549560905,0.004108916502445936,0.9993998408317566,0.018709175288677216,0.01437362376600504,0.02536405809223652
649.0,0.0,0.0,0.0,0.0,0.0,0.0,-0.018935302272439003,-0.0001388118980685249,-0.02862958237528801,0.9993839263916016,0.018465621396899223,0.015295812860131264,0.025627844035625458
650.0,0.0,0.0,0.0,0.0,0.0,0.0,-0.010867244563996792,0.002621182007715106,-0.041712258011102676,0.9993351697921753,0.01830959878861904,0.016067244112491608,0.027126463130116463
651.0,0.0,0.0,0.0,0.0,0.0,0.0,-0.006911650765687227,-0.021019775420427322,0.10541808605194092,0.9992808103561401,0.01780977100133896,0.016175389289855957,0.029310215264558792
652.0,0.0,0.0,0.0,0.0,0.0,0.0,-0.010256883688271046,0.005819846410304308,-0.0010385556379333138,0.9992363452911377,0.01778968796133995,0.01636826992034912,0.03069792501628399
653.0,0.0,0.0,0.0,0.0,0.0,0.0,-0.0027497531846165657,0.003332775318995118,-0.012939742766320705,0.9992101788520813,0.017684368416666985,0.016825946047902107,0.03135518357157707
654.0,0.0,0.0,0.0,0.0,0.0,0.0,0.00036122658639214933,0.0008862465620040894,-0.0027340520173311234,0.9991769194602966,0.0174010768532753,0.017049971967935562,0.03243345022201538
655.0,0.0,0.0,0.0,0.0,0.0,0.0,0.0009432288352400064,-0.0014767985558137298,0.0007990975864231586,0.9991511702537537,0.017162833362817764,0.017137715592980385,0.03329601138830185
656.0,0.0,0.0,0.0,0.0,0.0,0.0,0.0023249289952218533,-0.005295992828905582,-0.0019264143193140626,0.9991182088851929,0.016871824860572815,0.017281144857406616,0.03434320539236069
657.0,0.0,0.0,0.0,0.0,0.0,0.0,0.004372750874608755,-0.00458143325522542,0.005490084644407034,0.9990837574005127,0.01638786680996418,0.017227282747626305,0.03558562323451042
658.0,0.0,0.0,0.0,0.0,0.0,0.0,0.0018948436481878161,-0.00911035481840372,0.01676063984632492,0.9990510940551758,0.015992240980267525,0.016978731378912926,0.03678174316883087
659.0,0.0,0.0,0.0,0.0,0.0,0.0,-0.0002277794701512903,-0.014166790060698986,0.016122788190841675,0.9990313053131104,0.015432343818247318,0.01693715527653694,0.03756866604089737
660.0,0.0,0.0,0.0,0.0,0.0,0.0,0.0043663098476827145,-0.015713347122073174,0.007045898586511612,0.9990481734275818,0.014687790535390377,0.016834178939461708,0.037465259432792664
661.0,0.0,0.0,0.0,0.0,0.0,0.0,0.0035648730117827654,-0.019718337804079056,0.0022904661018401384,0.9990608096122742,0.01441818755120039,0.0167065616697073,0.037289369851350784
662.0,0.0,0.0,0.0,0.0,0.0,0.0,0.005461504217237234,-0.019535062834620476,0.0006971239345148206,0.9990426898002625,0.014157107099890709,0.016639791429042816,0.037899456918239594
663.0,0.0,0.0,0.0,0.0,0.0,0.0,0.007119659800082445,-0.019698482006788254,0.009264848195016384,0.9990296959877014,0.013829578645527363,0.016583280637860298,0.03838570788502693
664.0,0.0,0.0,0.0,0.0,0.0,0.0,0.008328626863658428,-0.020950565114617348,0.008382708765566349,0.9990225434303284,0.013499044813215733,0.016464265063405037,0.03873918205499649
665.0,0.0,0.0,0.0,0.0,0.0,0.0,0.012192010879516602,-0.021381162106990814,-0.00018895142420660704,0.9990131855010986,0.013395017944276333,0.016453858464956284,0.0390186607837677
666.0,0.0,0.0,0.0,0.0,0.0,0.0,0.01242649182677269,-0.020619818940758705,-0.004056148696690798,0.9990130662918091,0.01325635053217411,0.016642652451992035,0.03898933157324791
667.0,0.0,0.0,0.0,0.0,0.0,0.0,0.01773783005774021,-0.01746675744652748,-0.005761510226875544,0.998991847038269,0.013185539282858372,0.016878614202141762,0.03945339098572731
668.0,0.0,0.0,0.0,0.0,0.0,0.0,0.01917020045220852,-0.014802638441324234,-0.003953007515519857,0.998981237411499,0.012961054220795631,0.017110532149672508,0.03969602286815643
669.0,0.0,0.0,0.0,0.0,0.0,0.0,0.024109449237585068,-0.012716066092252731,-0.005773449782282114,0.9989526271820068,0.012873198837041855,0.017323974519968033,0.04034602269530296
670.0,0.0,0.0,0.0,0.0,0.0,0.0,0.026979153975844383,-0.012361991219222546,-0.004257540218532085,0.9989470839500427,0.012578885070979595,0.017172709107398987,0.04063998535275459
671.0,0.0,0.0,0.0,0.0,0.0,0.0,0.026773737743496895,-0.013149766251444817,0.0004072748706676066,0.9989457130432129,0.012335754930973053,0.017457710579037666,0.04062729328870773
672.0,0.0,0.0,0.0,0.0,0.0,0.0,0.030200690031051636,-0.0019604472909122705,0.01097813993692398,0.9989477396011353,0.012100239284336567,0.017268553376197815,0.04072952643036842
673.0,0.0,0.0,0.0,0.0,0.0,0.0,0.026367202401161194,-0.0003428916970733553,0.006577616557478905,0.9989553689956665,0.011884981766343117,0.017160998657345772,0.04065004363656044
674.0,0.0,0.0,0.0,0.0,0.0,0.0,0.02773728035390377,0.003698664018884301,-0.008167222142219543,0.9989612102508545,0.011901579797267914,0.016908787190914154,0.04060964658856392
675.0,0.0,0.0,0.0,0.0,0.0,0.0,0.029620883986353874,0.007000595331192017,-0.012313639745116234,0.9989624619483948,0.011783202178776264,0.016463983803987503,0.04079575091600418
676.0,0.0,0.0,0.0,0.0,0.0,0.0,0.02412244863808155,0.01079919096082449,0.010767878033220768,0.9989538788795471,0.011605262756347656,0.016255391761660576,0.04113655909895897
677.0,0.0,0.0,0.0,0.0,0.0,0.0,0.021803297102451324,0.009327906183898449,0.011396562680602074,0.9989694356918335,0.011343879625201225,0.016065701842308044,0.04090962931513786
678.0,0.0,0.0,0.0,0.0,0.0,0.0,0.024066735059022903,0.008413851261138916,0.005575164221227169,0.9989659786224365,0.01113064307719469,0.015666617080569267,0.04120124503970146
679.0,0.0,0.0,0.0,0.0,0.0,0.0,0.020916923880577087,0.00962070468813181,0.0049986159428954124,0.9989535808563232,0.010876748710870743,0.015065531246364117,0.04179223254323006
680.0,0.0,0.0,0.0,0.0,0.0,0.0,0.016902625560760498,0.013011603616178036,0.031348440796136856,0.9989444017410278,0.010429044254124165,0.014208915643393993,0.0424194410443306
681.0,0.0,0.0,0.0,0.0,0.0,0.0,0.0127350939437747,0.014858045615255833,0.0537983737885952,0.9989430904388428,0.010222872719168663,0.013063399121165276,0.04286887124180794
682.0,0.0,0.0,0.0,0.0,0.0,0.0,0.01673210598528385,0.01239483617246151,0.02760343626141548,0.9989297986030579,0.010214930400252342,0.011971207335591316,0.04349427670240402
683.0,0.0,0.0,0.0,0.0,0.0,0.0,0.01678416132926941,0.008683125488460064,0.030734898522496223,0.998939573764801,0.010104679502546787,0.011077244766056538,0.04353548586368561
684.0,0.0,0.0,0.0,0.0,0.0,0.0,0.016070783138275146,0.0028311528731137514,0.02303440123796463,0.9989627599716187,0.010058807209134102,0.010039137676358223,0.0432623066008091
685.0,0.0,0.0,0.0,0.0,0.0,0.0,0.014781772159039974,-0.0006232827436178923,0.014431891962885857,0.998985230922699,0.009911554865539074,0.00913435872644186,0.04297664016485214
686.0,0.0,0.0,0.0,0.0,0.0,0.0,0.009942203760147095,-0.0068779606372118,0.016641147434711456,0.999064028263092,0.00939488410949707,0.008545007556676865,0.041348040103912354
687.0,0.0,0.0,0.0,0.0,0.0,0.0,0.014713761396706104,-0.010463242419064045,-0.0013615645002573729,0.9991050362586975,0.009151036851108074,0.00784082431346178,0.0405440516769886
688.0,0.0,0.0,0.0,0.0,0.0,0.0,0.01814657635986805,-0.008794493973255157,-0.0005707333330065012,0.9990584254264832,0.008252757601439953,0.005259052384644747,0.042268477380275726
689.0,0.0,0.0,0.0,0.0,0.0,0.0,0.007947509177029133,-0.008815127424895763,0.022264687344431877,0.9991028308868408,0.007699259091168642,0.004234460648149252,0.04142938554286957
690.0,0.0,0.0,0.0,0.0,0.0,0.0,0.007014550734311342,-0.007989134639501572,0.022061534225940704,0.9991810321807861,0.0074072969146072865,0.003449018346145749,0.03962719812989235
691.0,0.0,0.0,0.0,0.0,0.0,0.0,0.012581381015479565,-0.0066306134685873985,-0.0025204946286976337,0.9992385506629944,0.0070833126083016396,0.0026418492197990417,0.038279224187135696
692.0,0.0,0.0,0.0,0.0,0.0,0.0,0.00806975644081831,-0.005772408097982407,0.0029812362045049667,0.9992709755897522,0.006963556166738272,0.0017461362294852734,0.03749494627118111
693.0,0.0,0.0,0.0,0.0,0.0,0.0,0.005074605345726013,-0.0059157684445381165,-0.003522449405863881,0.9992967844009399,0.006867688614875078,0.0007124587427824736,0.03685666620731354
694.0,0.0,0.0,0.0,0.0,0.0,0.0,-4.349119262769818e-05,-0.008100731298327446,-0.002590989461168647,0.9993246793746948,0.006769077852368355,2.713591129577253e-05,0.036115650087594986
695.0,0.0,0.0,0.0,0.0,0.0,0.0,0.00016509610577486455,-0.004573112819343805,-0.017137756571173668,0.9993500113487244,0.006545334588736296,-0.00038561521796509624,0.0354459173977375
696.0,0.0,0.0,0.0,0.0,0.0,0.0,-0.005733182653784752,0.006041070446372032,-0.01160797756165266,0.9993730783462524,0.00640449021011591,-0.0010776432463899255,0.03480413183569908
697.0,0.0,0.0,0.0,0.0,0.0,0.0,-0.012851430103182793,0.006382763851433992,-0.0028655098285526037,0.9994075894355774,0.00646544061601162,-0.0013960946816951036,0.03377166762948036
698.0,0.0,0.0,0.0,0.0,0.0,0.0,-0.012615914456546307,0.005793088581413031,-0.014986217021942139,0.9994323253631592,0.006529593840241432,-0.0014889221638441086,0.03301536291837692
699.0,0.0,0.0,0.0,0.0,0.0,0.0,-0.01365796197205782,0.00619109533727169,-0.026358414441347122,0.9994416832923889,0.006405721418559551,-0.0017409516731277108,0.03274701163172722
700.0,0.0,0.0,0.0,0.0,0.0,0.0,-0.022228194400668144,0.003431547898799181,-0.023529168218374252,0.9994739294052124,0.00626253429800272,-0.001718211336992681,0.031774427741765976
701.0,0.0,0.0,0.0,0.0,0.0,0.0,-0.03045426495373249,-0.0032259654253721237,-0.011512638069689274,0.9994840025901794,0.006090976297855377,-0.0017258463194593787,0.031488992273807526
702.0,0.0,0.0,0.0,0.0,0.0,0.0,-0.02870795875787735,-0.005754345096647739,-0.0227863360196352,0.9994886517524719,0.0059915585443377495,-0.0014457399956882,0.03137664869427681
703.0,0.0,0.0,0.0,0.0,0.0,0.0,-0.019401347264647484,0.004776112735271454,-0.022856589406728745,0.999496579170227,0.0057463799603283405,-0.0013343555619940162,0.031174970790743828
704.0,0.0,0.0,0.0,0.0,0.0,0.0,-0.031192807480692863,0.002590776886790991,-0.00358892185613513,0.9995008707046509,0.005609364248812199,-0.0012866248143836856,0.03106418251991272
705.0,0.0,0.0,0.0,0.0,0.0,0.0,-0.034987471997737885,0.002014326164498925,0.004435913171619177,0.9994997978210449,0.005621739197522402,-0.001107592019252479,0.03110162913799286
706.0,0.0,0.0,0.0,0.0,0.0,0.0,-0.03593410924077034,0.004559987224638462,0.01792484149336815,0.9994927048683167,0.005523471627384424,-0.0007805392378941178,0.03135828673839569
707.0,0.0,0.0,0.0,0.0,0.0,0.0,-0.02772202342748642,0.006297741550952196,-0.0038522821851074696,0.9994959831237793,0.007589707616716623,0.0015446168836206198,0.030785489827394485
708.0,0.0,0.0,0.0,0.0,0.0,0.0,-0.016669010743498802,0.003767632646486163,-0.026267390698194504,0.9995046257972717,0.007980157621204853,0.0022872628178447485,0.0303578469902277
709.0,0.0,0.0,0.0,0.0,0.0,0.0,-0.009127261117100716,0.006267796270549297,-0.023446958512067795,0.9994938969612122,0.008499323390424252,0.002680673496797681,0.030536266043782234
710.0,0.0,0.0,0.0,0.0,0.0,0.0,-0.012761992402374744,0.0035923379473388195,-0.008435942232608795,0.9994845390319824,0.00883591827005148,0.002980998484417796,0.030719440430402756
711.0,0.0,0.0,0.0,0.0,0.0,0.0,-0.010643698275089264,0.0016460084589198232,-0.007345861755311489,0.9994753003120422,0.009028486907482147,0.0033981504384428263,0.03092164732515812
712.0,0.0,0.0,0.0,0.0,0.0,0.0,-0.00991443544626236,0.0029893331229686737,-0.006233969237655401,0.9994626045227051,0.009317281655967236,0.003908256534487009,0.031183702871203423
713.0,0.0,0.0,0.0,0.0,0.0,0.0,0.0025313368532806635,0.004909095354378223,-0.006295465398579836,0.9994388818740845,0.0097777945920825,0.004539869725704193,0.03171220049262047
714.0,0.0,0.0,0.0,0.0,0.0,0.0,0.008153692819178104,-0.0009139536414295435,-0.018672026693820953,0.9994287490844727,0.009913260117173195,0.004535691812634468,0.03199150785803795
715.0,0.0,0.0,0.0,0.0,0.0,0.0,0.006066920235753059,-0.005281548947095871,-0.014523081481456757,0.9994316697120667,0.009674533270299435,0.004831204656511545,0.031930435448884964
716.0,0.0,0.0,0.0,0.0,0.0,0.0,0.011845997534692287,-0.009571344591677189,-0.014677011407911777,0.9994328022003174,0.00921752117574215,0.0050344318151474,0.03199874609708786
717.0,0.0,0.0,0.0,0.0,0.0,0.0,0.008026383817195892,-0.01110746804624796,0.0018993794219568372,0.9994197487831116,0.008556138724088669,0.0051859705708920956,0.03256187587976456
718.0,0.0,0.0,0.0,0.0,0.0,0.0,0.0036137897986918688,-0.015110902488231659,0.003549017710611224,0.9994162321090698,0.008079292252659798,0.005112810060381889,0.0327998623251915
719.0,0.0,0.0,0.0,0.0,0.0,0.0,0.0048854658380150795,-0.018412038683891296,0.007140076719224453,0.9994245171546936,0.007320948410779238,0.005319888703525066,0.03269321843981743
720.0,0.0,0.0,0.0,0.0,0.0,0.0,0.009263749234378338,-0.02110932394862175,0.00343510159291327,0.9994303584098816,0.006584363989531994,0.005237285513430834,0.03268391266465187
721.0,0.0,0.0,0.0,0.0,0.0,0.0,0.004091485403478146,-0.011910813860595226,0.01770615577697754,0.9994331002235413,0.005604076199233532,0.004845333751291037,0.03284512087702751
722.0,0.0,0.0,0.0,0.0,0.0,0.0,-0.003973722457885742,-0.005171268247067928,0.03669039532542229,0.9994263648986816,0.005263651255518198,0.004298476502299309,0.03317808732390404
723.0,0.0,0.0,0.0,0.0,0.0,0.0,-0.000538070045877248,-0.008496081456542015,0.012631440535187721,0.9994327425956726,0.004831221885979176,0.0042824712581932545,0.03305533900856972
724.0,0.0,0.0,0.0,0.0,0.0,0.0,-0.0013675873633474112,-0.014356212690472603,0.012529019266366959,0.9994535446166992,0.004162287805229425,0.004287238232791424,0.03251549229025841
725.0,0.0,0.0,0.0,0.0,0.0,0.0,-0.00696227652952075,-0.013552975840866566,0.02657073549926281,0.9994712471961975,0.003619009628891945,0.004349567927420139,0.03202261030673981
726.0,0.0,0.0,0.0,0.0,0.0,0.0,-0.005438976921141148,-0.00040776783134788275,0.04041361063718796,0.9994873404502869,0.0034226076677441597,0.004157825838774443,0.03156263008713722
