,Position_X,Position_Y,Position_Z,Velocity_X,Velocity_Y,Velocity_Z,Acceleration_X,Acceleration_Y,Acceleration_Z,Quaterion_0,Quaterion_1,Quaterion_2,Quaterion_3
51.0,0.0,0.0,0.0,0.0,0.0,0.0,-0.015184001997113228,-0.005869902670383453,0.01646905392408371,1.0,-2.7755575615628914e-17,-1.734723475976807e-18,-6.938893903907228e-18
52.0,0.0,0.0,0.0,0.0,0.0,0.0,-0.021139923483133316,-0.0029417178593575954,0.012346649542450905,0.9999972581863403,0.0001447942922823131,0.0004463371296878904,-0.0022909026592969894
53.0,0.0,0.0,0.0,0.0,0.0,0.0,-0.02700071781873703,0.00032347015803679824,0.007930342108011246,0.9999921321868896,0.0007388303056359291,0.0012394547229632735,-0.00370256369933486
54.0,0.0,0.0,0.0,0.0,0.0,0.0,-0.027737397700548172,0.001256313407793641,0.003070160513743758,0.9999832510948181,0.0015160089824348688,0.0022595380432903767,-0.005111886188387871
55.0,0.0,0.0,0.0,0.0,0.0,0.0,-0.02683017961680889,0.003931277897208929,-0.0014128576731309295,0.9999686479568481,0.002652668859809637,0.0035124218557029963,-0.006579514127224684
56.0,0.0,0.0,0.0,0.0,0.0,0.0,-0.024854622781276703,0.005125463008880615,-0.009450818412005901,0.9999487400054932,0.0037306351587176323,0.005019289441406727,-0.00796293094754219
57.0,0.0,0.0,0.0,0.0,0.0,0.0,-0.020973239094018936,0.005524168256670237,-0.015135589987039566,0.9999182820320129,0.005134795792400837,0.007361419033259153,-0.009104048833251
58.0,0.0,0.0,0.0,0.0,0.0,0.0,-0.01495831273496151,0.007446606177836657,-0.016154613345861435,0.9998977184295654,0.006111990660429001,0.009395793080329895,-0.008886417374014854
59.0,0.0,0.0,0.0,0.0,0.0,0.0,-0.009113376960158348,0.009158199653029442,-0.01295832172036171,0.9998801946640015,0.007017220836132765,0.010955129750072956,-0.00838362704962492
60.0,0.0,0.0,0.0,0.0,0.0,0.0,-0.005105894524604082,0.010494858026504517,-0.011018089018762112,0.999866247177124,0.007850336842238903,0.012308456934988499,-0.007372681982815266
61.0,0.0,0.0,0.0,0.0,0.0,0.0,-0.0018521933816373348,0.009722650982439518,-0.01201013196259737,0.9998547434806824,0.008838352747261524,0.01320719439536333,-0.006157619412988424
62.0,0.0,0.0,0.0,0.0,0.0,0.0,0.004611729644238949,-0.0013597385259345174,-0.0390760563313961,0.999855101108551,0.00891027133911848,0.01347789540886879,-0.005360836628824472
63.0,0.0,0.0,0.0,0.0,0.0,0.0,0.01262582466006279,-0.003608178813010454,-0.02496151439845562,0.9998824000358582,0.008188295178115368,0.012516338378190994,-0.003381273942068219
64.0,0.0,0.0,0.0,0.0,0.0,0.0,0.015363983809947968,0.002098992234095931,0.006581465248018503,0.9999045729637146,0.007577105425298214,0.011393346823751926,-0.0019152738386765122
65.0,0.0,0.0,0.0,0.0,0.0,0.0,0.008785332553088665,-0.0035937896464020014,-0.004366586916148663,0.9999262690544128,0.0065160514786839485,0.010191413573920727,-0.001054980093613267
66.0,0.0,0.0,0.0,0.0,0.0,0.0,0.005906871985644102,-0.0030946123879402876,0.023413999006152153,0.9999408721923828,0.005379080306738615,0.00938342697918415,-0.0011192082893103361
67.0,0.0,0.0,0.0,0.0,0.0,0.0,0.0028534478042274714,-0.0050972988829016685,0.021698886528611183,0.9999460577964783,0.004565495066344738,0.009021224454045296,-0.002370141912251711
68.0,0.0,0.0,0.0,0.0,0.0,0.0,-0.005227589048445225,-0.008252198807895184,0.014020571485161781,0.9999391436576843,0.0038573420606553555,0.009380375035107136,-0.004336229059845209
69.0,0.0,0.0,0.0,0.0,0.0,0.0,-0.014846657402813435,-0.008049299009144306,0.012789147906005383,0.9999172687530518,0.003712603822350502,0.010522558353841305,-0.0064029027707874775
70.0,0.0,0.0,0.0,0.0,0.0,0.0,-0.01912521757185459,-0.006807686295360327,0.010285979136824608,0.9998905658721924,0.00413284869864583,0.011935152113437653,-0.0077029867097735405
71.0,0.0,0.0,0.0,0.0,0.0,0.0,-0.016362203285098076,-0.003277694573625922,0.005859192926436663,0.9998618960380554,0.0049700927920639515,0.013412031345069408,-0.008459062315523624
72.0,0.0,0.0,0.0,0.0,0.0,0.0,-0.006877323146909475,0.001641424372792244,0.00018620317860040814,0.9998387694358826,0.0061059920117259026,0.014625759795308113,-0.008436915464699268
73.0,0.0,0.0,0.0,0.0,0.0,0.0,0.0017667560605332255,0.004499667789787054,-0.004321052227169275,0.9998248219490051,0.00738601665943861,0.015218961983919144,-0.008012817241251469
74.0,0.0,0.0,0.0,0.0,0.0,0.0,0.01040928065776825,0.006042724475264549,-0.009011803194880486,0.9998216032981873,0.008510690182447433,0.015200759284198284,-0.007301270961761475
75.0,0.0,0.0,0.0,0.0,0.0,0.0,0.015970267355442047,0.004664081148803234,-0.014178036712110043,0.9998307228088379,0.00914862658828497,0.014636590145528316,-0.006372006610035896
76.0,0.0,0.0,0.0,0.0,0.0,0.0,0.02124517597258091,0.004515453707426786,-0.017535677179694176,0.9998553991317749,0.009276870638132095,0.01340037863701582,-0.004848884418606758
77.0,0.0,0.0,0.0,0.0,0.0,0.0,0.024333588778972626,0.007183337118476629,-0.012013526633381844,0.9998805522918701,0.00917084887623787,0.01201592106372118,-0.003229201538488269
78.0,0.0,0.0,0.0,0.0,0.0,0.0,0.025564750656485558,0.006271019112318754,-0.0014875360066071153,0.9999004602432251,0.008874868974089622,0.01080436259508133,-0.0018926453776657581
79.0,0.0,0.0,0.0,0.0,0.0,0.0,0.023607149720191956,0.006636315491050482,0.00691949762403965,0.9999191164970398,0.008242550306022167,0.009636672213673592,-0.0009786792797967792
80.0,0.0,0.0,0.0,0.0,0.0,0.0,0.020482584834098816,0.005565929692238569,0.011963088996708393,0.999929666519165,0.00808995496481657,0.008671238087117672,6.289879092946649e-05
81.0,0.0,0.0,0.0,0.0,0.0,0.0,0.018248729407787323,0.0036811174359172583,0.013067469000816345,0.9999361634254456,0.0077638509683310986,0.00815533846616745,0.0009507785434834659
82.0,0.0,0.0,0.0,0.0,0.0,0.0,0.014285804703831673,0.003010147949680686,0.013578438200056553,0.9999411106109619,0.007354191970080137,0.007914056070148945,0.0010195322101935744
83.0,0.0,0.0,0.0,0.0,0.0,0.0,0.009032007306814194,0.004124412313103676,0.013660026714205742,0.9999387860298157,0.007513762451708317,0.007921584881842136,0.0017937102820724249
84.0,0.0,0.0,0.0,0.0,0.0,0.0,0.0041279238648712635,0.004811436869204044,0.009214740246534348,0.9999316334724426,0.008083310909569263,0.008152286522090435,0.0022296314127743244
85.0,0.0,0.0,0.0,0.0,0.0,0.0,0.006752092391252518,0.005809714086353779,0.0015983580378815532,0.9999245405197144,0.008437174372375011,0.008536078035831451,0.002613405929878354
86.0,0.0,0.0,0.0,0.0,0.0,0.0,0.004666248802095652,0.0077649871818721294,-0.00361056299880147,0.9999107122421265,0.009347439743578434,0.009023304097354412,0.003132627811282873
87.0,0.0,0.0,0.0,0.0,0.0,0.0,0.0011220276355743408,0.007780971936881542,-0.005606270860880613,0.999900221824646,0.010081352666020393,0.009431678801774979,0.002989839529618621
88.0,0.0,0.0,0.0,0.0,0.0,0.0,0.0007899678312242031,0.008095202967524529,-0.0128578906878829,0.9998881816864014,0.010734708979725838,0.010009526275098324,0.0028575246687978506
89.0,0.0,0.0,0.0,0.0,0.0,0.0,0.00011557753896340728,0.007933767512440681,-0.015255440957844257,0.9998773336410522,0.011345845647156239,0.010470762848854065,0.0026271739043295383
90.0,0.0,0.0,0.0,0.0,0.0,0.0,0.0006225390825420618,0.008316250517964363,-0.014549673534929752,0.9998611807823181,0.01213631872087717,0.011264395900070667,0.0018529054941609502
91.0,0.0,0.0,0.0,0.0,0.0,0.0,0.00022983971575740725,0.007249304559081793,-0.01313839852809906,0.9998398423194885,0.012761830352246761,0.012242231518030167,0.0027426176238805056
92.0,0.0,0.0,0.0,0.0,0.0,0.0,0.0007427523378282785,0.004089246038347483,-0.010496851056814194,0.9998222589492798,0.013427035883069038,0.012832616455852985,0.003240057500079274
93.0,0.0,0.0,0.0,0.0,0.0,0.0,0.0027940196450799704,0.0018525974592193961,-0.008560835383832455,0.9998024702072144,0.01407686062157154,0.01339785661548376,0.004172189626842737
94.0,0.0,0.0,0.0,0.0,0.0,0.0,0.0034714408684521914,0.0017409654101356864,-0.0036615801509469748,0.9998064041137695,0.01377050206065178,0.013101832009851933,0.0050819129683077335
95.0,0.0,0.0,0.0,0.0,0.0,0.0,0.003740893676877022,-0.004619961138814688,-0.01294283103197813,0.9998167157173157,0.013295202516019344,0.012267190031707287,0.006269131321460009
96.0,0.0,0.0,0.0,0.0,0.0,0.0,0.011062584817409515,-0.010468992404639721,-0.050857651978731155,0.999838650226593,0.011998212896287441,0.010620782151818275,0.008121770806610584
97.0,0.0,0.0,0.0,0.0,0.0,0.0,0.01563205011188984,-0.002195477019995451,0.020790137350559235,0.9998688101768494,0.010142473503947258,0.008800426498055458,0.009054819121956825
98.0,0.0,0.0,0.0,0.0,0.0,0.0,0.01688716560602188,-0.007311083842068911,-0.0006740227690897882,0.9998940229415894,0.008760323747992516,0.007158701308071613,0.009164177812635899
99.0,0.0,0.0,0.0,0.0,0.0,0.0,0.006562058813869953,-0.011578310281038284,0.01664210669696331,0.9999096989631653,0.007623039651662111,0.005852336995303631,0.009391401894390583
100.0,0.0,0.0,0.0,0.0,0.0,0.0,0.005081532057374716,-0.008695061318576336,0.029377611353993416,0.9999268054962158,0.006445440463721752,0.005345098674297333,0.008735465817153454
101.0,0.0,0.0,0.0,0.0,0.0,0.0,-0.0037132843863219023,-0.008736631833016872,0.02089577540755272,0.9999392032623291,0.005769930314272642,0.005728838033974171,0.007446064613759518
102.0,0.0,0.0,0.0,0.0,0.0,0.0,-0.008668243885040283,-0.006862665992230177,0.016383513808250427,0.9999411106109619,0.005722238682210445,0.006101849023252726,0.0069096749648451805
103.0,0.0,0.0,0.0,0.0,0.0,0.0,-0.010778152383863926,-0.002631295705214143,0.010745991952717304,0.9999321699142456,0.006162841804325581,0.007135629188269377,0.0068414234556257725
104.0,0.0,0.0,0.0,0.0,0.0,0.0,-0.010329854674637318,0.00013930400018580258,0.00242220819927752,0.999921441078186,0.006525829900056124,0.008247790858149529,0.0068223909474909306
105.0,0.0,0.0,0.0,0.0,0.0,0.0,-0.0025612562894821167,0.003128007287159562,-0.007525511085987091,0.9999072551727295,0.007216526661068201,0.00876346044242382,0.007521151099354029
106.0,0.0,0.0,0.0,0.0,0.0,0.0,0.006641514133661985,0.004055517725646496,-0.0182225089520216,0.9998873472213745,0.008143220096826553,0.009312677197158337,0.008502020500600338
107.0,0.0,0.0,0.0,0.0,0.0,0.0,0.00892386119812727,0.003621047828346491,-0.023228386417031288,0.9998779296875,0.008545535616576672,0.009284845553338528,0.009213014505803585
108.0,0.0,0.0,0.0,0.0,0.0,0.0,0.008565973490476608,0.004692776128649712,-0.019196264445781708,0.9998786449432373,0.008493338711559772,0.008942119777202606,0.009516887366771698
109.0,0.0,0.0,0.0,0.0,0.0,0.0,0.010498680174350739,0.006038745399564505,-0.010110230185091496,0.9998804330825806,0.008191082626581192,0.008268176577985287,0.010178815573453903
110.0,0.0,0.0,0.0,0.0,0.0,0.0,0.00750008225440979,0.004713550675660372,9.39815872698091e-05,0.9998798966407776,0.007780040148645639,0.0075601981952786446,0.011067725718021393
111.0,0.0,0.0,0.0,0.0,0.0,0.0,0.00390629330649972,0.003788009053096175,0.005877177231013775,0.9998779892921448,0.007500669453293085,0.006816886831074953,0.011887691915035248
112.0,0.0,0.0,0.0,0.0,0.0,0.0,0.000504312280099839,0.0029987944290041924,0.00858278851956129,0.9998796582221985,0.007358982227742672,0.006804969627410173,0.011842697858810425
113.0,0.0,0.0,0.0,0.0,0.0,0.0,-0.0032695678528398275,0.0035018136259168386,0.004877791274338961,0.9998819828033447,0.007340659387409687,0.007072711829096079,0.011493366211652756
114.0,0.0,0.0,0.0,0.0,0.0,0.0,-0.004008410964161158,0.002889361698180437,0.00048622224130667746,0.9998772144317627,0.0072682080790400505,0.007103776093572378,0.011926967650651932
115.0,0.0,0.0,0.0,0.0,0.0,0.0,-0.004545515403151512,0.0034250456374138594,-0.00249103968963027,0.9998747706413269,0.007156803738325834,0.007249356247484684,0.012110058218240738
116.0,0.0,0.0,0.0,0.0,0.0,0.0,-0.005693050101399422,0.004868720192462206,-0.005625356920063496,0.9998764395713806,0.007201445288956165,0.007777846418321133,0.011607089079916477
117.0,0.0,0.0,0.0,0.0,0.0,0.0,-0.0045901937410235405,0.003567754290997982,-0.006199113093316555,0.9998772740364075,0.00703317578881979,0.00793068390339613,0.01153707504272461
118.0,0.0,0.0,0.0,0.0,0.0,0.0,-0.0016217915108427405,0.004341036081314087,-0.002850451273843646,0.9998796582221985,0.006806694436818361,0.007752210833132267,0.01158676203340292
119.0,0.0,0.0,0.0,0.0,0.0,0.0,-0.009025856852531433,0.0028511451091617346,-0.004426540806889534,0.9998781085014343,0.0070127216167747974,0.007855293340981007,0.011526324786245823
120.0,0.0,0.0,0.0,0.0,0.0,0.0,-0.006892988458275795,0.0022228509187698364,-0.007792262826114893,0.9998793005943298,0.00704924575984478,0.00750880129635334,0.011633381247520447
121.0,0.0,0.0,0.0,0.0,0.0,0.0,-0.008879328146576881,0.00021926603221800178,-0.0043425546027719975,0.9998834133148193,0.007030523382127285,0.007215412799268961,0.011473213322460651
122.0,0.0,0.0,0.0,0.0,0.0,0.0,-0.008998272009193897,-0.001513927010819316,-0.0025367026682943106,0.9998974800109863,0.00686833169311285,0.007913583889603615,0.009761041030287743
123.0,0.0,0.0,0.0,0.0,0.0,0.0,-0.010179945267736912,-0.0037991164717823267,-0.0012469469802454114,0.9998905062675476,0.007662185002118349,0.00931139662861824,0.008578771725296974
124.0,0.0,0.0,0.0,0.0,0.0,0.0,-0.011218714527785778,-0.00663176691159606,-0.0018648415571078658,0.999886691570282,0.007454088423401117,0.00986668560653925,0.008582917042076588
125.0,0.0,0.0,0.0,0.0,0.0,0.0,-0.011659049428999424,-0.0065339491702616215,0.0009014989482238889,0.9998863935470581,0.00723286485299468,0.010575090534985065,0.007944297976791859
126.0,0.0,0.0,0.0,0.0,0.0,0.0,-0.011497711762785912,-0.0067402976565063,0.006806070450693369,0.9998791217803955,0.00737274345010519,0.011112885549664497,0.007993059232831001
127.0,0.0,0.0,0.0,0.0,0.0,0.0,-0.00805360171943903,-0.0070414175279438496,0.005659556016325951,0.9998691082000732,0.008129398338496685,0.011316066607832909,0.008225319907069206
128.0,0.0,0.0,0.0,0.0,0.0,0.0,0.004050280898809433,-0.017368709668517113,-0.05258704349398613,0.9998736381530762,0.008035839535295963,0.01086646132171154,0.008369690738618374
129.0,0.0,0.0,0.0,0.0,0.0,0.0,0.009636987000703812,-0.012906030751764774,-0.012462189421057701,0.9998883605003357,0.006927283015102148,0.009430446662008762,0.009289772249758244
130.0,0.0,0.0,0.0,0.0,0.0,0.0,0.014513920992612839,-0.006095974240452051,0.011698822490870953,0.9998992681503296,0.00644081924110651,0.008028117008507252,0.009774578735232353
131.0,0.0,0.0,0.0,0.0,0.0,0.0,0.011954406276345253,-0.01302273478358984,-0.013489732518792152,0.9999108910560608,0.005777175538241863,0.006990262307226658,0.00979625340551138
132.0,0.0,0.0,0.0,0.0,0.0,0.0,0.0023806665558367968,-0.010884779505431652,0.016728762537240982,0.9999181628227234,0.005115821026265621,0.0061892373487353325,0.009960315190255642
133.0,0.0,0.0,0.0,0.0,0.0,0.0,-0.0008423931431025267,-0.010036636143922806,0.016705606132745743,0.999919593334198,0.0050443136133253574,0.005925935227423906,0.010011561214923859
134.0,0.0,0.0,0.0,0.0,0.0,0.0,-0.006321887485682964,-0.012235643342137337,0.010321876965463161,0.9999169111251831,0.005333117675036192,0.006236924324184656,0.009939459152519703
135.0,0.0,0.0,0.0,0.0,0.0,0.0,-0.007325346581637859,-0.010949349962174892,0.010381118394434452,0.9999140501022339,0.005636162124574184,0.0065747457556426525,0.009844579733908176
136.0,0.0,0.0,0.0,0.0,0.0,0.0,0.000562420638743788,-0.008428222499787807,0.0046851555816829205,0.9999058842658997,0.006191943772137165,0.006718942895531654,0.010233820416033268
137.0,0.0,0.0,0.0,0.0,0.0,0.0,0.004897598642855883,-0.007250152062624693,-0.006404441315680742,0.9999053478240967,0.006172157824039459,0.006253901403397322,0.010585885494947433
138.0,0.0,0.0,0.0,0.0,0.0,0.0,0.0021733283065259457,-0.00959281250834465,-0.007860777899622917,0.9999080896377563,0.006038627587258816,0.005539910867810249,0.010802838951349258
139.0,0.0,0.0,0.0,0.0,0.0,0.0,0.0009331722976639867,-0.009873267263174057,-0.012208950705826283,0.9999122023582458,0.005962239112704992,0.005024989601224661,0.01071416400372982
140.0,0.0,0.0,0.0,0.0,0.0,0.0,0.003220936516299844,-0.009948505088686943,-0.012857931666076183,0.9999226927757263,0.005648976657539606,0.00439097173511982,0.010171238332986832
141.0,0.0,0.0,0.0,0.0,0.0,0.0,-0.0037911231629550457,-0.01019958034157753,-0.0007172683835960925,0.9999324679374695,0.005110938102006912,0.004378535319119692,0.00947621650993824
142.0,0.0,0.0,0.0,0.0,0.0,0.0,-0.0064114294946193695,-0.007643269374966621,0.008662080392241478,0.9999408721923828,0.004623841494321823,0.0047951918095350266,0.008598899468779564
143.0,0.0,0.0,0.0,0.0,0.0,0.0,-0.012803677469491959,-0.005995797459036112,0.010319771245121956,0.9999455809593201,0.0044595361687242985,0.00536869652569294,0.007752159144729376
144.0,0.0,0.0,0.0,0.0,0.0,0.0,-0.015553785488009453,-0.0019164243713021278,0.011630204506218433,0.9999410510063171,0.004583894275128841,0.0061789946630597115,0.007662600837647915
145.0,0.0,0.0,0.0,0.0,0.0,0.0,-0.01629655435681343,0.0019185758428648114,0.010437537916004658,0.9999319911003113,0.005217313766479492,0.0072923218831419945,0.007455430459231138
146.0,0.0,0.0,0.0,0.0,0.0,0.0,-0.016475088894367218,0.004958673380315304,0.004113871604204178,0.9999163150787354,0.006480766460299492,0.008828453719615936,0.006888533942401409
147.0,0.0,0.0,0.0,0.0,0.0,0.0,-0.014224567450582981,0.008173475041985512,-0.006836908869445324,0.9998881816864014,0.008271364495158195,0.010358759202063084,0.006921410094946623
148.0,0.0,0.0,0.0,0.0,0.0,0.0,-0.012681474909186363,0.009483533911406994,-0.012234183959662914,0.9998535513877869,0.0097838519141078,0.011975121684372425,0.007328609470278025
149.0,0.0,0.0,0.0,0.0,0.0,0.0,-0.007462817244231701,0.01268091518431902,-0.013696775771677494,0.9998120069503784,0.011686673387885094,0.013275742530822754,0.007942658849060535
150.0,0.0,0.0,0.0,0.0,0.0,0.0,-0.009175456129014492,0.012978693470358849,-0.01304162759333849,0.999771773815155,0.013301006518304348,0.01469421200454235,0.007972368970513344
151.0,0.0,0.0,0.0,0.0,0.0,0.0,-0.010339448228478432,0.009868309833109379,-0.02144653908908367,0.9997356534004211,0.014616409316658974,0.015930859372019768,0.007820037193596363
152.0,0.0,0.0,0.0,0.0,0.0,0.0,-0.006433864124119282,0.010913328267633915,-0.022937336936593056,0.9997013807296753,0.015769856050610542,0.016620218753814697,0.008503654971718788
153.0,0.0,0.0,0.0,0.0,0.0,0.0,-0.00400856276974082,0.012172622606158257,-0.01613171026110649,0.9996747374534607,0.016561325639486313,0.016994837671518326,0.009347553364932537
154.0,0.0,0.0,0.0,0.0,0.0,0.0,-0.00271888030692935,0.011505356058478355,-0.011013170704245567,0.9996703267097473,0.01671699993312359,0.016688164323568344,0.010063090361654758
155.0,0.0,0.0,0.0,0.0,0.0,0.0,-0.0031039142049849033,0.009717087261378765,-0.0062024095095694065,0.9996805191040039,0.016544202342629433,0.015778258442878723,0.01077903900295496
156.0,0.0,0.0,0.0,0.0,0.0,0.0,0.0006964633939787745,0.00853743776679039,-0.005362366791814566,0.9996944665908813,0.01631925068795681,0.014589653350412846,0.011483127251267433
157.0,0.0,0.0,0.0,0.0,0.0,0.0,0.0018631493439897895,0.0047715334221720695,-0.003074431326240301,0.9997217655181885,0.01561954990029335,0.013141634874045849,0.011822203174233437
158.0,0.0,0.0,0.0,0.0,0.0,0.0,-0.001524292048998177,0.005594837944954634,0.013172492384910583,0.9997434020042419,0.01478779036551714,0.012024062685668468,0.01224233116954565
159.0,0.0,0.0,0.0,0.0,0.0,0.0,-0.004841092973947525,0.012482749298214912,0.03497268632054329,0.9997726082801819,0.014051347970962524,0.01070157065987587,0.011950266547501087
160.0,0.0,0.0,0.0,0.0,0.0,0.0,-0.007159008644521236,0.01189485378563404,0.042456887662410736,0.9997822642326355,0.014295990578830242,0.010315848514437675,0.011162173002958298
161.0,0.0,0.0,0.0,0.0,0.0,0.0,-0.0024177341256290674,0.010647851042449474,0.024678433313965797,0.9997691512107849,0.015169591642916203,0.010480135679244995,0.01103326864540577
162.0,0.0,0.0,0.0,0.0,0.0,0.0,-0.0020975591614842415,0.014638230204582214,0.02745893970131874,0.9997416734695435,0.016603928059339523,0.010900246910750866,0.011049613356590271
163.0,0.0,0.0,0.0,0.0,0.0,0.0,-0.003842766396701336,0.01670590229332447,0.04406454414129257,0.999692440032959,0.01845335029065609,0.012128999456763268,0.01128515787422657
164.0,0.0,0.0,0.0,0.0,0.0,0.0,0.0026272160466760397,0.00987295527011156,0.03956082463264465,0.9996388554573059,0.020411893725395203,0.013546135276556015,0.011050963774323463
165.0,0.0,0.0,0.0,0.0,0.0,0.0,0.012821412645280361,-0.0019244742579758167,-0.009907111525535583,0.9995822310447693,0.022228827700018883,0.014719879254698753,0.011161725968122482
166.0,0.0,0.0,0.0,0.0,0.0,0.0,0.02094780094921589,-0.00887870229780674,0.0028513306751847267,0.9995132684707642,0.02397899143397808,0.015590507537126541,0.012455317191779613
167.0,0.0,0.0,0.0,0.0,0.0,0.0,0.02828655205667019,-0.017400557175278664,0.010049006901681423,0.9994524121284485,0.025382231920957565,0.016197597607970238,0.013722361996769905
168.0,0.0,0.0,0.0,0.0,0.0,0.0,0.033642929047346115,-0.025690043345093727,-0.0006286781863309443,0.9993777871131897,0.027108777314424515,0.016934696584939957,0.01491227000951767
169.0,0.0,0.0,0.0,0.0,0.0,0.0,0.03428555652499199,-0.030067449435591698,0.002543716924265027,0.9992617964744568,0.029231254011392593,0.01812213473021984,0.01711682416498661
170.0,0.0,0.0,0.0,0.0,0.0,0.0,0.03383495658636093,-0.0293776523321867,0.003480219980701804,0.9991431832313538,0.031012335792183876,0.01915404200553894,0.019599871709942818
171.0,0.0,0.0,0.0,0.0,0.0,0.0,0.027492282912135124,-0.03166095167398453,0.001173273310996592,0.9990291595458984,0.03269272670149803,0.020502379164099693,0.021252868697047234
172.0,0.0,0.0,0.0,0.0,0.0,0.0,0.027142992243170738,-0.032025255262851715,0.0024744763504713774,0.9988899827003479,0.03482840582728386,0.022273097187280655,0.022574614733457565
173.0,0.0,0.0,0.0,0.0,0.0,0.0,0.02530156448483467,-0.03254557400941849,-0.007104339078068733,0.998759388923645,0.036506231874227524,0.024663439020514488,0.02320895530283451
174.0,0.0,0.0,0.0,0.0,0.0,0.0,0.023276951164007187,-0.034225668758153915,-0.04125329479575157,0.9986265301704407,0.037937987595796585,0.026948360726237297,0.02407229319214821
175.0,0.0,0.0,0.0,0.0,0.0,0.0,0.015662487596273422,-0.03246456757187843,-0.05205804854631424,0.9984899759292603,0.038955505937337875,0.02884245663881302,0.02585425414144993
176.0,0.0,0.0,0.0,0.0,0.0,0.0,0.004156153183430433,-0.03155764192342758,-0.06531690061092377,0.9984006285667419,0.03952787443995476,0.03032059408724308,0.02672913298010826
177.0,0.0,0.0,0.0,0.0,0.0,0.0,0.0006373942596837878,-0.026837702840566635,-0.07492782175540924,0.9983727335929871,0.03948216885328293,0.03096124716103077,0.027101246640086174
178.0,0.0,0.0,0.0,0.0,0.0,0.0,0.0014102801214903593,-0.01649215631186962,-0.06747996807098389,0.998368501663208,0.038967911154031754,0.030894843861460686,0.0280597060918808
179.0,0.0,0.0,0.0,0.0,0.0,0.0,0.004290545359253883,-0.009653699584305286,-0.055841024965047836,0.9983641505241394,0.03845497965812683,0.030306775122880936,0.02952699363231659
180.0,0.0,0.0,0.0,0.0,0.0,0.0,0.00766743253916502,-0.0038584822323173285,-0.04721969738602638,0.9983728528022766,0.037408247590065,0.028900962322950363,0.03189127892255783
181.0,0.0,0.0,0.0,0.0,0.0,0.0,0.007398534100502729,0.0037736559752374887,-0.03594733774662018,0.9984177947044373,0.03554558753967285,0.02710285782814026,0.034115344285964966
182.0,0.0,0.0,0.0,0.0,0.0,0.0,0.004877914674580097,0.009694135747849941,-0.022264646366238594,0.9984923601150513,0.033412206918001175,0.025337861850857735,0.035421427339315414
183.0,0.0,0.0,0.0,0.0,0.0,0.0,0.004226738587021828,0.01443970762193203,-0.012372584082186222,0.9985540509223938,0.031154455617070198,0.023677146062254906,0.036858826875686646
184.0,0.0,0.0,0.0,0.0,0.0,0.0,-0.001847106497734785,0.012480033561587334,-0.008455748669803143,0.9986453056335449,0.028545863926410675,0.0220844317227602,0.03748294338583946
185.0,0.0,0.0,0.0,0.0,0.0,0.0,-0.006091835908591747,0.010476786643266678,-0.0021545200143009424,0.9987671375274658,0.025427741929888725,0.020587915554642677,0.037333257496356964
186.0,0.0,0.0,0.0,0.0,0.0,0.0,-0.012706518173217773,0.010060066357254982,0.018869953230023384,0.9988713264465332,0.022590002045035362,0.019541531801223755,0.036930277943611145
187.0,0.0,0.0,0.0,0.0,0.0,0.0,-0.017147377133369446,0.004590482451021671,0.031457699835300446,0.9989612102508545,0.020492007955908775,0.01942957565188408,0.03576706722378731
188.0,0.0,0.0,0.0,0.0,0.0,0.0,-0.01574396714568138,0.0007899500196799636,0.027575837448239326,0.9989745616912842,0.0200063306838274,0.020021511241793633,0.03533635288476944
189.0,0.0,0.0,0.0,0.0,0.0,0.0,-0.019155841320753098,-0.01089562475681305,0.0022393574472516775,0.9989383816719055,0.020209617912769318,0.021026674658060074,0.0356607623398304
190.0,0.0,0.0,0.0,0.0,0.0,0.0,-0.015567939728498459,-0.014371266588568687,-0.012415091507136822,0.9988977909088135,0.020112046971917152,0.021934613585472107,0.036299820989370346
191.0,0.0,0.0,0.0,0.0,0.0,0.0,-0.010347741656005383,-0.01729787327349186,-0.03513815253973007,0.9988807439804077,0.019224775955080986,0.021694866940379143,0.03737995773553848
192.0,0.0,0.0,0.0,0.0,0.0,0.0,-0.009313716553151608,-0.019115759059786797,-0.04207296296954155,0.9989057183265686,0.01741529442369938,0.0206596739590168,0.03817898407578468
193.0,0.0,0.0,0.0,0.0,0.0,0.0,-0.0057495892979204655,-0.01707330532371998,-0.0428476519882679,0.9989566206932068,0.014980691485106945,0.019246134907007217,0.038607317954301834
194.0,0.0,0.0,0.0,0.0,0.0,0.0,-0.01003140676766634,-0.005731263663619757,-0.02415524236857891,0.9990169405937195,0.01195596344769001,0.01696552336215973,0.03917514905333519
195.0,0.0,0.0,0.0,0.0,0.0,0.0,-0.012419911101460457,0.0055370088666677475,-0.005584291182458401,0.9991177916526794,0.008114290423691273,0.013412817381322384,0.03895871713757515
196.0,0.0,0.0,0.0,0.0,0.0,0.0,-0.013999874703586102,0.023943033069372177,0.028056031093001366,0.9992049336433411,0.004131481517106295,0.00924033671617508,0.03856423869729042
197.0,0.0,0.0,0.0,0.0,0.0,0.0,-0.033729083836078644,0.01643197052180767,0.039439115673303604,0.9993281364440918,0.0008076761150732636,0.005559142678976059,0.03621767833828926
198.0,0.0,0.0,0.0,0.0,0.0,0.0,-0.042350057512521744,-0.0016025995137169957,0.01817195676267147,0.9994534254074097,-0.002668388420715928,0.0029708691872656345,0.032821670174598694
199.0,0.0,0.0,0.0,0.0,0.0,0.0,-0.04245806112885475,0.0012449577916413546,0.0502203069627285,0.9995079636573792,-0.005808205809444189,0.0004096984339412302,0.030813537538051605
200.0,0.0,0.0,0.0,0.0,0.0,0.0,-0.04645134508609772,0.008029214106500149,0.0607110857963562,0.9995595216751099,-0.008693150244653225,-0.001596112735569477,0.028325103223323822
201.0,0.0,0.0,0.0,0.0,0.0,0.0,-0.0517071895301342,0.014369110576808453,0.09412860870361328,0.9995831251144409,-0.010895482264459133,-0.0033030821941792965,0.026540866121649742
202.0,0.0,0.0,0.0,0.0,0.0,0.0,-0.044773537665605545,0.003370660590007901,0.07488352060317993,0.9996108412742615,-0.011995301581919193,-0.004528731573373079,0.024786612018942833
203.0,0.0,0.0,0.0,0.0,0.0,0.0,-0.018870297819375992,-0.012447061948478222,0.0023736776784062386,0.9996291995048523,-0.013147978112101555,-0.006492234766483307,0.022945087403059006
204.0,0.0,0.0,0.0,0.0,0.0,0.0,-0.005156675353646278,-0.004224487114697695,0.011531994678080082,0.9996204376220703,-0.014049720019102097,-0.009275856427848339,0.021803956478834152
205.0,0.0,0.0,0.0,0.0,0.0,0.0,-0.014977343380451202,-0.002856200560927391,0.017209984362125397,0.9996272325515747,-0.01453452929854393,-0.011325091123580933,0.02015881985425949
206.0,0.0,0.0,0.0,0.0,0.0,0.0,-0.016778914257884026,-0.0005649611121043563,0.02281491830945015,0.9996371269226074,-0.014587901532649994,-0.013094659894704819,0.0184661652892828
207.0,0.0,0.0,0.0,0.0,0.0,0.0,-0.03231819346547127,0.0017841154476627707,0.056365832686424255,0.9996646642684937,-0.014062618836760521,-0.013828479684889317,0.016768649220466614
208.0,0.0,0.0,0.0,0.0,0.0,0.0,-0.025342117995023727,0.005292331799864769,0.07862013578414917,0.999724268913269,-0.012499083764851093,-0.014064139686524868,0.014045418240129948
209.0,0.0,0.0,0.0,0.0,0.0,0.0,-0.014890588819980621,0.0010669579496607184,0.06455611437559128,0.9997872710227966,-0.01029631681740284,-0.013653474859893322,0.01155921258032322
210.0,0.0,0.0,0.0,0.0,0.0,0.0,-0.007329742424190044,-0.00321759982034564,0.0566142313182354,0.999853789806366,-0.007634816691279411,-0.012222322635352612,0.009218690916895866
211.0,0.0,0.0,0.0,0.0,0.0,0.0,0.01747742109000683,-0.01816282980144024,0.01759461686015129,0.999903678894043,-0.00475287064909935,-0.010606156662106514,0.0075811101123690605
212.0,0.0,0.0,0.0,0.0,0.0,0.0,0.03234144672751427,-0.01628570444881916,0.023747863247990608,0.9999316930770874,-0.0019171437015756965,-0.008798397146165371,0.007475453894585371
213.0,0.0,0.0,0.0,0.0,0.0,0.0,0.024787984788417816,-0.013600188307464123,0.037755731493234634,0.9999568462371826,0.0014532031491398811,-0.006125289481133223,0.006833640392869711
214.0,0.0,0.0,0.0,0.0,0.0,0.0,0.033894363790750504,-0.014156043529510498,0.013705587014555931,0.9999680519104004,0.004654816351830959,-0.0020500249229371548,0.006144125945866108
215.0,0.0,0.0,0.0,0.0,0.0,0.0,0.038177426904439926,-0.018199274316430092,-0.009765708819031715,0.9999513030052185,0.0076458347029984,0.0021048923954367638,0.005915385205298662
216.0,0.0,0.0,0.0,0.0,0.0,0.0,0.024539003148674965,-0.01859847456216812,-0.015313826501369476,0.9999066591262817,0.010539896786212921,0.005912026856094599,0.006379278842359781
217.0,0.0,0.0,0.0,0.0,0.0,0.0,0.01961379684507847,-0.019606351852416992,-0.04277895390987396,0.9998429417610168,0.01317173894494772,0.008976122364401817,0.007737698499113321
218.0,0.0,0.0,0.0,0.0,0.0,0.0,0.013400822877883911,-0.015513344667851925,-0.06668520718812943,0.9997912049293518,0.014615201391279697,0.0110750338062644,0.009019511751830578
219.0,0.0,0.0,0.0,0.0,0.0,0.0,0.014657163061201572,0.0029653252568095922,-0.03234332799911499,0.9997619390487671,0.01529740635305643,0.011867049150168896,0.010069480165839195
220.0,0.0,0.0,0.0,0.0,0.0,0.0,0.045892272144556046,0.0176711305975914,-0.010882781818509102,0.9997601509094238,0.01571880839765072,0.011042029596865177,0.010525255464017391
221.0,0.0,0.0,0.0,0.0,0.0,0.0,0.05265190079808235,0.0020895483903586864,-0.044279545545578,0.9997876286506653,0.015221069566905499,0.009657192043960094,0.010001406073570251
222.0,0.0,0.0,0.0,0.0,0.0,0.0,0.009582297876477242,-0.01352140586823225,-0.04406890273094177,0.9998223781585693,0.013167682103812695,0.008911222219467163,0.010138663463294506
223.0,0.0,0.0,0.0,0.0,0.0,0.0,-0.010114199481904507,-0.009045256301760674,-0.023065056651830673,0.9998685717582703,0.01035491656512022,0.007795789744704962,0.009728346951305866
224.0,0.0,0.0,0.0,0.0,0.0,0.0,-0.01853674091398716,0.004370754584670067,0.012901811860501766,0.9999141693115234,0.007215998601168394,0.006592731457203627,0.008730972185730934
225.0,0.0,0.0,0.0,0.0,0.0,0.0,-0.010668839327991009,0.013789915479719639,0.026973549276590347,0.9999387264251709,0.004879070911556482,0.004880719352513552,0.008664462715387344
226.0,0.0,0.0,0.0,0.0,0.0,0.0,0.005594425369054079,0.0003414382226765156,-0.015115633606910706,0.9999516606330872,0.0026465493720024824,0.0024875367525964975,0.009152567014098167
227.0,0.0,0.0,0.0,0.0,0.0,0.0,0.0037788969930261374,-0.0001664124574745074,-0.023738721385598183,0.999950647354126,7.552168244728819e-05,-1.1350509339536075e-05,0.00994084682315588
228.0,0.0,0.0,0.0,0.0,0.0,0.0,-0.007921493612229824,0.013243402354419231,0.014519351534545422,0.9999446868896484,-0.0018932399107143283,-0.002098974771797657,0.010134820826351643
229.0,0.0,0.0,0.0,0.0,0.0,0.0,-0.01481720618903637,0.013927709311246872,0.025861741974949837,0.9999391436576843,-0.0030753626488149166,-0.0034264421556144953,0.01002524234354496
230.0,0.0,0.0,0.0,0.0,0.0,0.0,-0.008335547521710396,0.013049513101577759,0.028767405077815056,0.9999290704727173,-0.0032888499554246664,-0.0046128565445542336,0.010490567423403263
231.0,0.0,0.0,0.0,0.0,0.0,0.0,-0.009918535128235817,0.014119971543550491,0.03497643396258354,0.9999252557754517,-0.002809864701703191,-0.004896972794085741,0.010863958857953548
232.0,0.0,0.0,0.0,0.0,0.0,0.0,-0.01106047723442316,0.0120129669085145,0.012737699784338474,0.9999300837516785,-0.0015900565776973963,-0.004755712579935789,0.010708152316510677
233.0,0.0,0.0,0.0,0.0,0.0,0.0,-0.020475417375564575,0.011555519886314869,0.003539490047842264,0.9999377131462097,-0.00017199768626596779,-0.004209390375763178,0.010336176492273808
234.0,0.0,0.0,0.0,0.0,0.0,0.0,-0.02023647166788578,0.012492537498474121,-0.015495221130549908,0.9999414086341858,0.0017531807534396648,-0.003584235440939665,0.010067957453429699
235.0,0.0,0.0,0.0,0.0,0.0,0.0,-0.02246675454080105,0.015031583607196808,-0.025612259283661842,0.9999402761459351,0.0035212559159845114,-0.0029484019614756107,0.009913804940879345
236.0,0.0,0.0,0.0,0.0,0.0,0.0,-0.026625599712133408,0.01492279302328825,-0.024079294875264168,0.9999394416809082,0.00538041302934289,-0.001632129424251616,0.009470481425523758
237.0,0.0,0.0,0.0,0.0,0.0,0.0,-0.02659608982503414,0.01569405198097229,-0.027800986543297768,0.9999262690544128,0.0076888627372682095,-5.876513023395091e-05,0.009392824955284595
238.0,0.0,0.0,0.0,0.0,0.0,0.0,-0.03048006258904934,0.015275897458195686,-0.030318733304739,0.9999114871025085,0.009277884848415852,0.001533858710899949,0.009410093538463116
239.0,0.0,0.0,0.0,0.0,0.0,0.0,-0.030184229835867882,0.014171801507472992,-0.03820209950208664,0.9998890161514282,0.010516732931137085,0.0029691720847040415,0.010136540979146957
240.0,0.0,0.0,0.0,0.0,0.0,0.0,-0.02392774261534214,0.014440106227993965,-0.03670284524559975,0.9998565912246704,0.011780252680182457,0.0039823781698942184,0.011499343439936638
241.0,0.0,0.0,0.0,0.0,0.0,0.0,-0.022460972890257835,0.008147330023348331,-0.03771016001701355,0.9998323917388916,0.012572874315083027,0.004819859750568867,0.01239840593189001
242.0,0.0,0.0,0.0,0.0,0.0,0.0,-0.021863453090190887,0.011058574542403221,-0.030499737709760666,0.9998075366020203,0.012933144345879555,0.005500602535903454,0.013680323027074337
243.0,0.0,0.0,0.0,0.0,0.0,0.0,-0.011885417625308037,0.020183075219392776,-0.00991096068173647,0.9997891187667847,0.013244852423667908,0.005870233289897442,0.014554361812770367
244.0,0.0,0.0,0.0,0.0,0.0,0.0,-0.014152857474982738,0.018038537353277206,-0.004927082918584347,0.9997729063034058,0.013811579905450344,0.006300076376646757,0.014970501884818077
245.0,0.0,0.0,0.0,0.0,0.0,0.0,-0.02463718131184578,0.013807245530188084,-0.00660388870164752,0.9997545480728149,0.014430472627282143,0.0068455892615020275,0.015346801839768887
246.0,0.0,0.0,0.0,0.0,0.0,0.0,-0.017946919426321983,0.01036361325532198,-0.014216654002666473,0.9997335076332092,0.014929751865565777,0.007356693036854267,0.016008147969841957
247.0,0.0,0.0,0.0,0.0,0.0,0.0,-0.02145082876086235,0.003880739212036133,-0.014629409648478031,0.9997272491455078,0.014856981113553047,0.007601691409945488,0.016348659992218018
248.0,0.0,0.0,0.0,0.0,0.0,0.0,-0.029322538524866104,0.00023489943123422563,-0.00011832579912152141,0.9997293949127197,0.014776339754462242,0.008561319671571255,0.01580718159675598
249.0,0.0,0.0,0.0,0.0,0.0,0.0,-0.0175720676779747,-0.0025666768196970224,-0.0027519159484654665,0.9997290372848511,0.014682834967970848,0.009399634785950184,0.015430428087711334
250.0,0.0,0.0,0.0,0.0,0.0,0.0,-0.0210238266736269,-0.005609581246972084,-0.00958805438131094,0.9997401833534241,0.01399893406778574,0.009985283948481083,0.014969795942306519
251.0,0.0,0.0,0.0,0.0,0.0,0.0,-0.015960872173309326,-0.006986508145928383,-0.014216327108442783,0.999764621257782,0.012488363310694695,0.009646804071962833,0.014899423345923424
252.0,0.0,0.0,0.0,0.0,0.0,0.0,-0.014703071676194668,-0.005553713068366051,0.007142066955566406,0.999795138835907,0.010818255133926868,0.008901919238269329,0.014617751352488995
253.0,0.0,0.0,0.0,0.0,0.0,0.0,-0.017294367775321007,-0.009261179715394974,0.014185811392962933,0.9998337626457214,0.008675639517605305,0.0081707164645195,0.013818254694342613
254.0,0.0,0.0,0.0,0.0,0.0,0.0,-0.002987838350236416,-0.005162060726433992,0.012662558816373348,0.9998756051063538,0.006883059162646532,0.006658080965280533,0.012559312395751476
255.0,0.0,0.0,0.0,0.0,0.0,0.0,0.004889944102615118,0.0031168994028121233,0.021413778886198997,0.9999118447303772,0.005411338526755571,0.004651552997529507,0.011207346804440022
256.0,0.0,0.0,0.0,0.0,0.0,0.0,-0.017518825829029083,0.00796577800065279,0.06446418911218643,0.9999306201934814,0.004576689563691616,0.002827213378623128,0.010498530231416225
257.0,0.0,0.0,0.0,0.0,0.0,0.0,-0.02659914828836918,0.0077549465931952,0.10570753365755081,0.9999477863311768,0.003872594563290477,0.002890868578106165,0.009019553661346436
258.0,0.0,0.0,0.0,0.0,0.0,0.0,-0.026999782770872116,-0.00041989656165242195,0.10391142219305038,0.999953031539917,0.004030780866742134,0.0046997047029435635,0.007460147142410278
259.0,0.0,0.0,0.0,0.0,0.0,0.0,-0.0033383273985236883,-0.011635509319603443,0.04759892448782921,0.999937117099762,0.005713131278753281,0.006684473715722561,0.006996590178459883
260.0,0.0,0.0,0.0,0.0,0.0,0.0,0.0117776645347476,-0.018069647252559662,-0.012769147753715515,0.9999105930328369,0.008108704350888729,0.008069411851465702,0.006966223008930683
261.0,0.0,0.0,0.0,0.0,0.0,0.0,0.013837882317602634,-0.012344416230916977,-0.012947904877364635,0.9998856782913208,0.010370759293437004,0.00862079206854105,0.006861965637654066
262.0,0.0,0.0,0.0,0.0,0.0,0.0,0.009873214177787304,-0.005531563423573971,-0.005451618228107691,0.999870240688324,0.011868784204125404,0.008796540088951588,0.006453839596360922
263.0,0.0,0.0,0.0,0.0,0.0,0.0,0.017900051549077034,-0.0068170130252838135,-0.02597871981561184,0.9998664855957031,0.012738239020109177,0.008091345429420471,0.006248219404369593
264.0,0.0,0.0,0.0,0.0,0.0,0.0,0.008573086932301521,-0.00748611893504858,-0.014212310314178467,0.9998736381530762,0.012904379516839981,0.007339425850659609,0.005675781983882189
265.0,0.0,0.0,0.0,0.0,0.0,0.0,0.004348386079072952,-0.015438193455338478,-0.021755345165729523,0.999886155128479,0.01278230082243681,0.006388991139829159,0.004873143509030342
266.0,0.0,0.0,0.0,0.0,0.0,0.0,0.0025838082656264305,-0.018891703337430954,-0.03373533487319946,0.9999170303344727,0.010982944630086422,0.004927344154566526,0.004610306583344936
267.0,0.0,0.0,0.0,0.0,0.0,0.0,-0.001949162920936942,-0.0034291965421289206,-0.0016110289143398404,0.9999499320983887,0.008503119461238384,0.0032767539378255606,0.004118518438190222
268.0,0.0,0.0,0.0,0.0,0.0,0.0,-0.0019505324307829142,0.014005038887262344,0.03635118529200554,0.9999702572822571,0.006588681135326624,0.001908436301164329,0.003621549578383565
269.0,0.0,0.0,0.0,0.0,0.0,0.0,0.003007321385666728,0.013687122613191605,0.00990164652466774,0.9999768137931824,0.0060226949863135815,0.0011384160025045276,0.003002231242135167
270.0,0.0,0.0,0.0,0.0,0.0,0.0,0.0053509813733398914,0.005439877510070801,-0.006563335657119751,0.9999803304672241,0.0055708433501422405,0.0008855937048792839,0.0026934598572552204
271.0,0.0,0.0,0.0,0.0,0.0,0.0,0.0066737523302435875,0.006091989576816559,0.0007235559751279652,0.9999850392341614,0.004731617867946625,0.0005415940540842712,0.0026574237272143364
272.0,0.0,0.0,0.0,0.0,0.0,0.0,0.003978218883275986,0.007851995527744293,-0.002774757333099842,0.9999887347221375,0.004042350221425295,0.0005230880342423916,0.0024503518361598253
273.0,0.0,0.0,0.0,0.0,0.0,0.0,-0.0064676664769649506,0.00771303242072463,0.009197565726935863,0.9999891519546509,0.003951175604015589,0.000913160911295563,0.002263920148834586
274.0,0.0,0.0,0.0,0.0,0.0,0.0,-0.0032737157307565212,-0.0004086892877239734,-0.010803407058119774,0.9999896883964539,0.0036467378959059715,0.0010752411326393485,0.0025911026168614626
275.0,0.0,0.0,0.0,0.0,0.0,0.0,-0.0011330830166116357,0.0011004956904798746,-0.009005444124341011,0.9999906420707703,0.003036066424101591,0.0008962680003605783,0.0029476629570126534
276.0,0.0,0.0,0.0,0.0,0.0,0.0,0.001433216268196702,0.002539621666073799,-8.633291145088151e-05,0.9999909996986389,0.0027537394780665636,0.0006121219485066831,0.00319832656532526
277.0,0.0,0.0,0.0,0.0,0.0,0.0,0.0030231487471610308,-0.0015422767028212547,-0.005894375964999199,0.9999922513961792,0.002413821406662464,6.622457294724882e-05,0.003148086369037628
278.0,0.0,0.0,0.0,0.0,0.0,0.0,0.002933939453214407,-0.0011545716552063823,-0.0029727695509791374,0.999992847442627,0.0019881180487573147,-0.0007232525967992842,0.003176465630531311
279.0,0.0,0.0,0.0,0.0,0.0,0.0,0.003237878903746605,0.0006324856076389551,0.006588618271052837,0.9999915957450867,0.001875234884209931,-0.001525243860669434,0.0033282723743468523
280.0,0.0,0.0,0.0,0.0,0.0,0.0,-0.00017317950550932437,-0.000464374665170908,0.0096061946824193,0.9999903440475464,0.0019910414703190327,-0.002159795258194208,0.0032778060995042324
281.0,0.0,0.0,0.0,0.0,0.0,0.0,-0.001878314302302897,0.0020395454484969378,0.0219953004270792,0.9999917149543762,0.0022892525885254145,-0.0024552231188863516,0.0023001874797046185
282.0,0.0,0.0,0.0,0.0,0.0,0.0,-0.0042136493138968945,0.0033600758761167526,0.02659108303487301,0.9999931454658508,0.0026668072678148746,-0.0022891920525580645,0.0012126282090321183
283.0,0.0,0.0,0.0,0.0,0.0,0.0,-0.004979301709681749,-0.0011083143763244152,0.020665515214204788,0.9999934434890747,0.003034137422218919,-0.001988809322938323,0.0003303387784399092
284.0,0.0,0.0,0.0,0.0,0.0,0.0,0.0002137294941348955,-0.005656741559505463,0.0031654241029173136,0.9999931454658508,0.003146012779325247,-0.0018671093275770545,-0.0008093958022072911
285.0,0.0,0.0,0.0,0.0,0.0,0.0,-0.0008977795951068401,-0.004108945839107037,0.005086917895823717,0.9999921917915344,0.003224525600671768,-0.0015927971107885242,-0.0017425317782908678
286.0,0.0,0.0,0.0,0.0,0.0,0.0,-0.001979422988370061,-0.006760383956134319,0.000238462132983841,0.9999909996986389,0.0032404824160039425,-0.0014022496761754155,-0.0024049305357038975
287.0,0.0,0.0,0.0,0.0,0.0,0.0,0.0011139725102111697,-0.011214351281523705,-0.0012238584458827972,0.9999905824661255,0.0030627555679529905,-0.0015675333561375737,-0.0026638938579708338
288.0,0.0,0.0,0.0,0.0,0.0,0.0,0.0007220186525955796,-0.012236072681844234,0.0013480429770424962,0.9999880790710449,0.0024353868793696165,-0.002727760002017021,-0.003228391520678997
289.0,0.0,0.0,0.0,0.0,0.0,0.0,-0.0027469603810459375,-0.010036788880825043,0.013958877883851528,0.9999797344207764,0.0018296729540452361,-0.004057356156408787,-0.004562583286315203
290.0,0.0,0.0,0.0,0.0,0.0,0.0,-0.0051651448011398315,-0.01418996136635542,-0.0029662149026989937,0.9999673366546631,0.0013912898721173406,-0.005238797049969435,-0.005995984189212322
291.0,0.0,0.0,0.0,0.0,0.0,0.0,-0.008996117860078812,-0.009561201557517052,0.0018701148219406605,0.9999508857727051,0.0016717594116926193,-0.005871328990906477,-0.007821204140782356
292.0,0.0,0.0,0.0,0.0,0.0,0.0,-0.016441237181425095,-0.003321660915389657,0.015101462602615356,0.9999327063560486,0.0019003552151843905,-0.006091896444559097,-0.009705336764454842
293.0,0.0,0.0,0.0,0.0,0.0,0.0,-0.02968517877161503,0.0030160413589328527,0.05093419551849365,0.9999099373817444,0.0022090631537139416,-0.006625168025493622,-0.011468067765235901
294.0,0.0,0.0,0.0,0.0,0.0,0.0,-0.03219342231750488,0.0029557235538959503,0.06522486358880997,0.9998862147331238,0.0035219488199800253,-0.006312887649983168,-0.013239052146673203
295.0,0.0,0.0,0.0,0.0,0.0,0.0,-0.01962982304394245,0.001142629305832088,0.04969700425863266,0.9998519420623779,0.005878448486328125,-0.0049420492723584175,-0.01540216151624918
296.0,0.0,0.0,0.0,0.0,0.0,0.0,-0.004303640220314264,-0.014459009282290936,-0.00886622630059719,0.9998047947883606,0.008242644369602203,-0.003208453767001629,-0.017672136425971985
297.0,0.0,0.0,0.0,0.0,0.0,0.0,0.0050241053104400635,-0.015948263928294182,-0.038418930023908615,0.9997743964195251,0.010114927776157856,-0.0013334698742255569,-0.018627440556883812
298.0,0.0,0.0,0.0,0.0,0.0,0.0,0.0007225761655718088,0.0023671439848840237,0.038315270096063614,0.9997446537017822,0.011645624414086342,0.0009201624197885394,-0.019340455532073975
299.0,0.0,0.0,0.0,0.0,0.0,0.0,-0.007372176740318537,-0.007233080454170704,0.029741724953055382,0.999704897403717,0.013009954243898392,0.0034646575804799795,-0.02021770365536213
300.0,0.0,0.0,0.0,0.0,0.0,0.0,0.004552860744297504,-0.006952858064323664,0.02432790957391262,0.9996762871742249,0.013972368091344833,0.006128134671598673,-0.020361745730042458
301.0,0.0,0.0,0.0,0.0,0.0,0.0,0.024016138166189194,-0.004543377552181482,0.009470202028751373,0.9996504783630371,0.014914211817085743,0.00835356954485178,-0.0201713889837265
302.0,0.0,0.0,0.0,0.0,0.0,0.0,0.027773169800639153,-0.015513122081756592,-0.020321499556303024,0.9996386170387268,0.015633219853043556,0.0101761594414711,-0.0193577129393816
303.0,0.0,0.0,0.0,0.0,0.0,0.0,0.03324292600154877,-0.013665120117366314,-0.0035799145698547363,0.9996424317359924,0.016484513878822327,0.011414776556193829,-0.017695842310786247
304.0,0.0,0.0,0.0,0.0,0.0,0.0,0.04003983736038208,-0.012017072178423405,0.007464817725121975,0.999640941619873,0.01753801293671131,0.012396354228258133,-0.0160323828458786
305.0,0.0,0.0,0.0,0.0,0.0,0.0,0.04644133150577545,-0.01236913725733757,0.01301704440265894,0.999635636806488,0.019030939787626266,0.01309916377067566,-0.013969461433589458
306.0,0.0,0.0,0.0,0.0,0.0,0.0,0.049431607127189636,-0.007386188022792339,0.004221422132104635,0.9996167421340942,0.020555825904011726,0.013875861652195454,-0.012296845205128193
307.0,0.0,0.0,0.0,0.0,0.0,0.0,0.046263039112091064,-0.0049209920689463615,0.0010151391616091132,0.9995625019073486,0.022688666358590126,0.01525854505598545,-0.011282606981694698
308.0,0.0,0.0,0.0,0.0,0.0,0.0,0.03870100528001785,-0.0034591262228786945,0.006225000601261854,0.9994922280311584,0.02489960752427578,0.016675671562552452,-0.010826622135937214
309.0,0.0,0.0,0.0,0.0,0.0,0.0,0.03188382834196091,-0.007863231934607029,-0.004650448448956013,0.9994211196899414,0.026996660977602005,0.018109038472175598,-0.010030830278992653
310.0,0.0,0.0,0.0,0.0,0.0,0.0,0.030942287296056747,-0.0066187200136482716,-0.012945404276251793,0.9993352890014648,0.029518647119402885,0.019595902413129807,-0.008585738949477673
311.0,0.0,0.0,0.0,0.0,0.0,0.0,0.027586854994297028,-0.006337374914437532,-0.018356766551733017,0.9992386102676392,0.032040663063526154,0.021094508469104767,-0.007122849114239216
312.0,0.0,0.0,0.0,0.0,0.0,0.0,0.02638235315680504,-0.007139180321246386,-0.03940793126821518,0.9991633892059326,0.03397367149591446,0.02212989516556263,-0.005370927508920431
313.0,0.0,0.0,0.0,0.0,0.0,0.0,0.02539156749844551,-0.003886261023581028,-0.04060962796211243,0.9990963935852051,0.035460177809000015,0.02310555800795555,-0.0039013982750475407
314.0,0.0,0.0,0.0,0.0,0.0,0.0,0.023162202909588814,0.00041426753159612417,-0.050589337944984436,0.9990529417991638,0.03636240214109421,0.023757968097925186,-0.0025451085530221462
315.0,0.0,0.0,0.0,0.0,0.0,0.0,0.01792055182158947,0.006360085681080818,-0.04638364538550377,0.9990281462669373,0.036870893090963364,0.024125946685671806,-0.001232384704053402
316.0,0.0,0.0,0.0,0.0,0.0,0.0,0.01004696637392044,0.012269957922399044,-0.035012029111385345,0.9990227222442627,0.037091292440891266,0.02403891645371914,-6.247721466934308e-05
317.0,0.0,0.0,0.0,0.0,0.0,0.0,0.0063983784057199955,0.010307460092008114,-0.0250479057431221,0.9990421533584595,0.03674652427434921,0.02374454028904438,0.0009381850832141936
318.0,0.0,0.0,0.0,0.0,0.0,0.0,0.009002908132970333,0.009906628169119358,-0.0402914322912693,0.999066948890686,0.036422550678253174,0.023164035752415657,0.0014607659541070461
319.0,0.0,0.0,0.0,0.0,0.0,0.0,0.005105603951960802,0.010688086040318012,-0.03352000191807747,0.9991060495376587,0.03590190410614014,0.02220732532441616,0.0022434312850236893
320.0,0.0,0.0,0.0,0.0,0.0,0.0,-9.312948350270744e-06,0.009982207790017128,-0.004070302937179804,0.9991632699966431,0.03512409329414368,0.020681189373135567,0.0033701311331242323
321.0,0.0,0.0,0.0,0.0,0.0,0.0,-0.0012244710233062506,0.011621689423918724,-0.0023956503719091415,0.9992087483406067,0.03447389230132103,0.019504062831401825,0.003605382516980171
322.0,0.0,0.0,0.0,0.0,0.0,0.0,-0.003823284525424242,0.009315899573266506,0.0008919959655031562,0.9991915225982666,0.035076458007097244,0.0192400049418211,0.003966643009334803
323.0,0.0,0.0,0.0,0.0,0.0,0.0,-4.4143132981844246e-05,0.0077788145281374454,0.004549879115074873,0.9991493225097656,0.036127254366874695,0.019384248182177544,0.004438402131199837
324.0,0.0,0.0,0.0,0.0,0.0,0.0,-0.0007456415332853794,0.008630014024674892,-0.003546540392562747,0.9991141557693481,0.03702598437666893,0.019453831017017365,0.004650454502552748
325.0,0.0,0.0,0.0,0.0,0.0,0.0,0.002803562209010124,0.010491389781236649,0.014876527711749077,0.9990856647491455,0.03754544258117676,0.019725343212485313,0.005391242448240519
326.0,0.0,0.0,0.0,0.0,0.0,0.0,-0.0015545568894594908,0.008352650329470634,0.015367035754024982,0.9990463852882385,0.038191575556993484,0.020440256223082542,0.00547286681830883
327.0,0.0,0.0,0.0,0.0,0.0,0.0,-0.0034628831781446934,0.00648585706949234,-0.03388085216283798,0.9989913105964661,0.03899203613400459,0.021587783470749855,0.005465863738209009
328.0,0.0,0.0,0.0,0.0,0.0,0.0,-0.005129280034452677,0.005868894979357719,-0.02064392901957035,0.9989709258079529,0.03903595730662346,0.022479603067040443,0.005291222594678402
329.0,0.0,0.0,0.0,0.0,0.0,0.0,-0.004666463006287813,0.007796925026923418,-0.014457209967076778,0.9989336729049683,0.03951946645975113,0.02305792272090912,0.006171632558107376
330.0,0.0,0.0,0.0,0.0,0.0,0.0,-0.004323000553995371,0.006420626770704985,-0.021508963778614998,0.998883068561554,0.040192559361457825,0.02378520928323269,0.007177629508078098
331.0,0.0,0.0,0.0,0.0,0.0,0.0,-0.0048157526180148125,0.005748189054429531,-0.016496567055583,0.9988442659378052,0.040586888790130615,0.02475469373166561,0.007083996199071407
332.0,0.0,0.0,0.0,0.0,0.0,0.0,-0.00265036104246974,0.006756716873496771,-0.0064081898890435696,0.998806357383728,0.04093300178647041,0.025731263682246208,0.006944917142391205
333.0,0.0,0.0,0.0,0.0,0.0,0.0,0.00168243155349046,0.0030062126461416483,-0.01615123450756073,0.9987409710884094,0.04155309498310089,0.027008548378944397,0.007774465251713991
334.0,0.0,0.0,0.0,0.0,0.0,0.0,0.0021965941414237022,-0.002258325694128871,-0.03606531769037247,0.9987339377403259,0.041093748062849045,0.02731865458190441,0.009776783175766468
335.0,0.0,0.0,0.0,0.0,0.0,0.0,0.0002782403025776148,-0.0024814323987811804,-0.01082913763821125,0.9987785816192627,0.040086548775434494,0.02687843330204487,0.010583498515188694
336.0,0.0,0.0,0.0,0.0,0.0,0.0,0.006014254875481129,-0.004859286826103926,-0.006089354865252972,0.9988066554069519,0.039420753717422485,0.026717571541666985,0.01083500124514103
337.0,0.0,0.0,0.0,0.0,0.0,0.0,0.014329909346997738,-0.013898507691919804,-0.024321505799889565,0.998863697052002,0.03818339481949806,0.02616986632347107,0.011346199549734592
338.0,0.0,0.0,0.0,0.0,0.0,0.0,0.029671737924218178,-0.012574246153235435,-0.03201080858707428,0.9989529848098755,0.03694003447890282,0.024259887635707855,0.011825279332697392
339.0,0.0,0.0,0.0,0.0,0.0,0.0,0.03310048580169678,-0.0023248838260769844,-0.019689587876200676,0.9990745782852173,0.03512013703584671,0.021423261612653732,0.01255510002374649
340.0,0.0,0.0,0.0,0.0,0.0,0.0,0.009658566676080227,-0.005488300696015358,0.03943919017910957,0.9991866946220398,0.03332141786813736,0.019471537321805954,0.011682456359267235
341.0,0.0,0.0,0.0,0.0,0.0,0.0,0.004068363457918167,-0.017527339980006218,0.011215688660740852,0.9992560148239136,0.031904567033052444,0.018690837547183037,0.010958226397633553
342.0,0.0,0.0,0.0,0.0,0.0,0.0,-0.0038521301466971636,-0.01931164041161537,0.01870778016746044,0.9993190765380859,0.03029760904610157,0.01790333352982998,0.011087644845247269
343.0,0.0,0.0,0.0,0.0,0.0,0.0,-0.0018683429807424545,-0.01177893951535225,0.04584420099854469,0.9993542432785034,0.029333265498280525,0.017533492296934128,0.011116602458059788
344.0,0.0,0.0,0.0,0.0,0.0,0.0,0.00024348747683688998,-0.0013542079832404852,0.014910448342561722,0.9993703365325928,0.02891687862575054,0.01740621216595173,0.010954383760690689
345.0,0.0,0.0,0.0,0.0,0.0,0.0,-0.0035861630458384752,0.0014278643066063523,0.01960703358054161,0.9993310570716858,0.029861804097890854,0.018113423138856888,0.010842710733413696
346.0,0.0,0.0,0.0,0.0,0.0,0.0,0.01514263916760683,-0.011646406725049019,-0.035095181316137314,0.9993097186088562,0.030157944187521935,0.018689826130867004,0.01100910548120737
347.0,0.0,0.0,0.0,0.0,0.0,0.0,0.017288072034716606,0.0009584740619175136,-0.010544106364250183,0.9992908835411072,0.030541997402906418,0.018286602571606636,0.01227365992963314
348.0,0.0,0.0,0.0,0.0,0.0,0.0,-0.002425472717732191,0.00036319863284006715,-0.0133073003962636,0.9992899894714355,0.030863292515277863,0.017949789762496948,0.012038450688123703
349.0,0.0,0.0,0.0,0.0,0.0,0.0,-0.012853806838393211,-0.00572089571505785,-0.030435733497142792,0.9993073344230652,0.030745001509785652,0.01798635721206665,0.010782195255160332
350.0,0.0,0.0,0.0,0.0,0.0,0.0,-0.008425776846706867,-0.0034046766813844442,-0.023804446682333946,0.999324381351471,0.03071560710668564,0.01754155568778515,0.009970515966415405
351.0,0.0,0.0,0.0,0.0,0.0,0.0,-0.00938625168055296,-0.003107895376160741,-0.01842724345624447,0.9993352293968201,0.03101254627108574,0.01716792955994606,0.008536639623343945
352.0,0.0,0.0,0.0,0.0,0.0,0.0,-0.010416834615170956,-0.002938011195510626,-0.018775813281536102,0.9993270039558411,0.031815338879823685,0.016655568033456802,0.007483517751097679
353.0,0.0,0.0,0.0,0.0,0.0,0.0,-0.04528980702161789,-0.0021789728198200464,0.03351559862494469,0.9993116855621338,0.032336700707674026,0.016773849725723267,0.006997538264840841
354.0,0.0,0.0,0.0,0.0,0.0,0.0,-0.03941727429628372,0.005621039774268866,0.05590382590889931,0.9992570281028748,0.03356742858886719,0.01746612973511219,0.0073329973965883255
355.0,0.0,0.0,0.0,0.0,0.0,0.0,-0.02340266853570938,0.0014147950569167733,0.024047773331403732,0.9991822242736816,0.03494865447282791,0.018601391464471817,0.00818983931094408
356.0,0.0,0.0,0.0,0.0,0.0,0.0,-0.01330704428255558,-0.004112426657229662,0.013998739421367645,0.9991214871406555,0.03561929985880852,0.020226649940013885,0.008874393999576569
357.0,0.0,0.0,0.0,0.0,0.0,0.0,0.006799300201237202,-0.01871667429804802,-0.03514762595295906,0.9991150498390198,0.03496997430920601,0.02086251974105835,0.010554337874054909
358.0,0.0,0.0,0.0,0.0,0.0,0.0,0.016825558617711067,-0.013405638746917248,-0.01743285171687603,0.9991538524627686,0.03298620507121086,0.02067858725786209,0.013262802734971046
359.0,0.0,0.0,0.0,0.0,0.0,0.0,0.026564426720142365,-0.003041943535208702,0.0032382558565586805,0.9992074370384216,0.030281346291303635,0.020170345902442932,0.016165349632501602
360.0,0.0,0.0,0.0,0.0,0.0,0.0,0.02948199026286602,-0.008633313700556755,-0.005370927043259144,0.9992752075195312,0.026770062744617462,0.0188774261623621,0.01940067671239376
361.0,0.0,0.0,0.0,0.0,0.0,0.0,0.03074631467461586,-0.01062924787402153,0.006111703347414732,0.999337375164032,0.022537842392921448,0.016750242561101913,0.023155290633440018
362.0,0.0,0.0,0.0,0.0,0.0,0.0,0.03920523077249527,-0.0032012786250561476,0.009160161949694157,0.9993666410446167,0.017889436334371567,0.013620500452816486,0.027574775740504265
363.0,0.0,0.0,0.0,0.0,0.0,0.0,0.0395423099398613,0.022426128387451172,0.06756999343633652,0.9993788003921509,0.013201472349464893,0.010019280947744846,0.031096909195184708
364.0,0.0,0.0,0.0,0.0,0.0,0.0,0.048410579562187195,0.024194050580263138,0.08096467703580856,0.9993939399719238,0.008343853056430817,0.005911713466048241,0.03328059986233711
365.0,0.0,0.0,0.0,0.0,0.0,0.0,0.04971861466765404,0.0045707677491009235,0.04775448888540268,0.9993758797645569,0.003357520792633295,0.0016575499903410673,0.035124942660331726
366.0,0.0,0.0,0.0,0.0,0.0,0.0,0.02424469217658043,-0.008740106597542763,0.04735243320465088,0.9993317723274231,-0.0016263696597889066,-0.0016642060363665223,0.0364767462015152
367.0,0.0,0.0,0.0,0.0,0.0,0.0,0.005954788997769356,0.0006098589510656893,0.051379043608903885,0.999260425567627,-0.005858379416167736,-0.004088775720447302,0.03778659179806709
368.0,0.0,0.0,0.0,0.0,0.0,0.0,-0.006042168941348791,0.0076301125809550285,0.042399439960718155,0.9991877675056458,-0.009555572643876076,-0.006523040123283863,0.03860137611627579
369.0,0.0,0.0,0.0,0.0,0.0,0.0,-0.009756169281899929,0.007663109805434942,0.023634416982531548,0.9990981221199036,-0.012742644175887108,-0.008515055291354656,0.03960122913122177
370.0,0.0,0.0,0.0,0.0,0.0,0.0,-0.01198914460837841,0.009707346558570862,0.0048448918387293816,0.9990270733833313,-0.01567198894917965,-0.010495546273887157,0.03986237570643425
371.0,0.0,0.0,0.0,0.0,0.0,0.0,-0.02392171137034893,0.02308984473347664,0.02658706344664097,0.998988926410675,-0.017786111682653427,-0.011973928660154343,0.0395168662071228
372.0,0.0,0.0,0.0,0.0,0.0,0.0,-0.02987537905573845,0.017590893432497978,0.0008711041300557554,0.999026358127594,-0.0189504474401474,-0.012882457114756107,0.03769857436418533
373.0,0.0,0.0,0.0,0.0,0.0,0.0,-0.03929095342755318,0.018113480880856514,0.0014126216992735863,0.9990917444229126,-0.019569579511880875,-0.013213847763836384,0.03547128662467003
374.0,0.0,0.0,0.0,0.0,0.0,0.0,-0.0546121746301651,0.020640989765524864,0.004512235522270203,0.9992199540138245,-0.019325178116559982,-0.012954622507095337,0.03190669044852257
375.0,0.0,0.0,0.0,0.0,0.0,0.0,-0.06612983345985413,0.027341173961758614,0.007922088727355003,0.999369740486145,-0.018263787031173706,-0.011840320192277431,0.028046226128935814
376.0,0.0,0.0,0.0,0.0,0.0,0.0,-0.0710112527012825,0.024047045037150383,-0.0040256851352751255,0.999533474445343,-0.016685370355844498,-0.009688894264400005,0.023675477132201195
377.0,0.0,0.0,0.0,0.0,0.0,0.0,-0.07436346262693405,0.019102223217487335,-0.021015960723161697,0.9996885657310486,-0.01480551715940237,-0.00629062345251441,0.019081925973296165
378.0,0.0,0.0,0.0,0.0,0.0,0.0,-0.07028115540742874,0.01890607364475727,-0.03473304584622383,0.9998272061347961,-0.011857526376843452,-0.0023985581938177347,0.014111246913671494
379.0,0.0,0.0,0.0,0.0,0.0,0.0,-0.06417778879404068,0.019557718187570572,-0.04522461071610451,0.9999164342880249,-0.008751343935728073,0.0018069854704663157,0.009351871907711029
380.0,0.0,0.0,0.0,0.0,0.0,0.0,-0.05972752720117569,0.018311653286218643,-0.05631577596068382,0.9999521970748901,-0.005884740501642227,0.00582202197983861,0.005209778435528278
381.0,0.0,0.0,0.0,0.0,0.0,0.0,-0.05616960674524307,0.016005022451281548,-0.06360373646020889,0.999949038028717,-0.002464132849127054,0.009707371704280376,0.0012904865434393287
382.0,0.0,0.0,0.0,0.0,0.0,0.0,-0.049373138695955276,0.012392302975058556,-0.07073936611413956,0.9999222159385681,0.0004889079136773944,0.012318684719502926,-0.0018999511376023293
383.0,0.0,0.0,0.0,0.0,0.0,0.0,-0.04982363432645798,0.007540680002421141,-0.07684406638145447,0.9998838305473328,0.002811644459143281,0.014240183867514133,-0.004691732581704855
384.0,0.0,0.0,0.0,0.0,0.0,0.0,-0.0419221930205822,0.0064537604339420795,-0.07141592353582382,0.9998490810394287,0.004966008942574263,0.01510995626449585,-0.0070020221173763275
385.0,0.0,0.0,0.0,0.0,0.0,0.0,-0.03435036540031433,0.011556854471564293,-0.052121877670288086,0.999823272228241,0.006844534073024988,0.014946759678423405,-0.009119313210248947
386.0,0.0,0.0,0.0,0.0,0.0,0.0,-0.038730960339307785,0.011871907860040665,-0.023330995813012123,0.9997932314872742,0.009013471193611622,0.014245845377445221,-0.011372724547982216
387.0,0.0,0.0,0.0,0.0,0.0,0.0,-0.03028033673763275,0.01687091402709484,0.008658439852297306,0.9997678399085999,0.011507825925946236,0.01312321238219738,-0.012648863717913628
388.0,0.0,0.0,0.0,0.0,0.0,0.0,-0.026481490582227707,0.008250976912677288,0.017501218244433403,0.999723494052887,0.014968489296734333,0.012179311364889145,-0.013437996618449688
389.0,0.0,0.0,0.0,0.0,0.0,0.0,-0.017619678750634193,-0.003319110255688429,0.006632667034864426,0.9996728301048279,0.01841261424124241,0.011549457907676697,-0.013488905504345894
390.0,0.0,0.0,0.0,0.0,0.0,0.0,-0.0118951927870512,-0.0008240604656748474,0.01984516903758049,0.9996216893196106,0.021630803123116493,0.011087845079600811,-0.012876314111053944
391.0,0.0,0.0,0.0,0.0,0.0,0.0,-0.00361789483577013,0.00010455057781655341,0.028886105865240097,0.9995529055595398,0.02491322159767151,0.011232661083340645,-0.012160610407590866
392.0,0.0,0.0,0.0,0.0,0.0,0.0,0.006605708505958319,0.0030960089061409235,0.029941042885184288,0.9994562268257141,0.028957802802324295,0.011947685852646828,-0.01031304057687521
393.0,0.0,0.0,0.0,0.0,0.0,0.0,0.019412603229284286,0.0026154187507927418,0.01448895875364542,0.9993678331375122,0.032421644777059555,0.012527214363217354,-0.007484514266252518
394.0,0.0,0.0,0.0,0.0,0.0,0.0,0.02768438309431076,-0.002290567848831415,0.005376378074288368,0.9993057250976562,0.034633323550224304,0.012987633235752583,-0.004583921283483505
395.0,0.0,0.0,0.0,0.0,0.0,0.0,0.04121842607855797,-0.01072284672409296,-0.016169564798474312,0.9992754459381104,0.035645991563797,0.013316615484654903,-0.0009333817288279533
396.0,0.0,0.0,0.0,0.0,0.0,0.0,0.045008786022663116,-0.0055847931653261185,0.022502020001411438,0.9992982149124146,0.03483876585960388,0.013595360331237316,0.00212897383607924
397.0,0.0,0.0,0.0,0.0,0.0,0.0,0.05711759254336357,-0.013466046191751957,0.015577892772853374,0.9993290305137634,0.033256180584430695,0.014727623201906681,0.004218708258122206
398.0,0.0,0.0,0.0,0.0,0.0,0.0,0.06522581726312637,-0.022829025983810425,-0.006308846641331911,0.9993723630905151,0.031178046017885208,0.015415841713547707,0.006766432896256447
399.0,0.0,0.0,0.0,0.0,0.0,0.0,0.048761796206235886,-0.01346701942384243,0.03218430280685425,0.9994383454322815,0.028239384293556213,0.014603500254452229,0.0106210233643651
400.0,0.0,0.0,0.0,0.0,0.0,0.0,0.043462738394737244,-0.01253818441182375,0.03420276567339897,0.9994836449623108,0.025610335171222687,0.014766511507332325,0.012571697123348713
401.0,0.0,0.0,0.0,0.0,0.0,0.0,0.04017285257577896,-0.003844653023406863,0.04641851410269737,0.9995226860046387,0.023090947419404984,0.014533077366650105,0.014500435441732407
402.0,0.0,0.0,0.0,0.0,0.0,0.0,0.0413992702960968,-0.00660720095038414,0.047994837164878845,0.999557614326477,0.021439790725708008,0.013758995570242405,0.01536942645907402
403.0,0.0,0.0,0.0,0.0,0.0,0.0,0.03845199570059776,-0.019370360299944878,0.02252955362200737,0.9996113181114197,0.019343797117471695,0.012711072340607643,0.015532540157437325
404.0,0.0,0.0,0.0,0.0,0.0,0.0,0.02874741330742836,-0.02074708417057991,0.009946740232408047,0.9996709227561951,0.016905594617128372,0.01162575464695692,0.015389963053166866
405.0,0.0,0.0,0.0,0.0,0.0,0.0,0.015405376441776752,-0.01992345042526722,0.006357104051858187,0.9997268319129944,0.014425142668187618,0.010842801071703434,0.014903717674314976
406.0,0.0,0.0,0.0,0.0,0.0,0.0,9.507300273980945e-05,-0.018748814240098,0.0019912896677851677,0.9997867941856384,0.01194593496620655,0.01015438698232174,0.013429434038698673
407.0,0.0,0.0,0.0,0.0,0.0,0.0,0.0024163867346942425,-0.002761648967862129,0.015935856848955154,0.9998282790184021,0.00974429864436388,0.009151739999651909,0.01283290795981884
408.0,0.0,0.0,0.0,0.0,0.0,0.0,0.002041004365310073,-0.005227565765380859,0.009610815905034542,0.9998535513877869,0.007911424152553082,0.007951190695166588,0.012929798103868961
409.0,0.0,0.0,0.0,0.0,0.0,0.0,0.0005901933764107525,-0.006844782270491123,-0.006486923433840275,0.9998770952224731,0.006208409089595079,0.00667575653642416,0.012769048102200031
410.0,0.0,0.0,0.0,0.0,0.0,0.0,0.0024435960222035646,-0.005139173939824104,-0.00605654576793313,0.9998919367790222,0.0045891376212239265,0.005078746471554041,0.01299629919230938
411.0,0.0,0.0,0.0,0.0,0.0,0.0,-0.0010417108424007893,-0.007496589329093695,-0.004143123049288988,0.9999046325683594,0.002681534271687269,0.0035674634855240583,0.013080769218504429
412.0,0.0,0.0,0.0,0.0,0.0,0.0,0.002859002212062478,-0.0056265550665557384,0.0007583486149087548,0.9999148845672607,0.000887214788235724,0.0017659885343164206,0.012894601561129093
413.0,0.0,0.0,0.0,0.0,0.0,0.0,-0.0012137063313275576,-0.005472581833600998,0.007590441033244133,0.9999197721481323,-0.001023695687763393,3.244747131248005e-05,0.012637772597372532
414.0,0.0,0.0,0.0,0.0,0.0,0.0,-0.00601904047653079,-0.0010777270654216409,0.02099028043448925,0.9999186396598816,-0.0025134168099611998,-0.001532375463284552,0.012402664870023727
415.0,0.0,0.0,0.0,0.0,0.0,0.0,-0.00403278274461627,-0.0031243381090462208,0.0166523028165102,0.9999116063117981,-0.004299001302570105,-0.0035567814484238625,0.012101266533136368
416.0,0.0,0.0,0.0,0.0,0.0,0.0,-0.0043206666596233845,-0.0010974175529554486,0.01856963336467743,0.9998882412910461,-0.00554434722289443,-0.005900645162910223,0.012566909193992615
417.0,0.0,0.0,0.0,0.0,0.0,0.0,-0.010650722309947014,-0.0011639782460406423,0.017206117510795593,0.9998598694801331,-0.006888408213853836,-0.008440660312771797,0.012720364145934582
418.0,0.0,0.0,0.0,0.0,0.0,0.0,-0.010107651352882385,-0.0035414001904428005,0.007587859872728586,0.9998389482498169,-0.007950186729431152,-0.010649088770151138,0.012063129805028439
419.0,0.0,0.0,0.0,0.0,0.0,0.0,-0.011526919901371002,0.0002565115282777697,0.019166504964232445,0.9998158812522888,-0.00802648440003395,-0.013078589923679829,0.011508881114423275
420.0,0.0,0.0,0.0,0.0,0.0,0.0,-0.015566819347441196,0.003892236854881048,0.02693478763103485,0.9998077154159546,-0.00787439476698637,-0.014755005948245525,0.010257413610816002
421.0,0.0,0.0,0.0,0.0,0.0,0.0,-0.02217714674770832,0.007860437035560608,0.041787464171648026,0.9998037219047546,-0.006857215892523527,-0.01630302146077156,0.008886179886758327
422.0,0.0,0.0,0.0,0.0,0.0,0.0,-0.025709709152579308,0.004166362341493368,0.0383886881172657,0.9998119473457336,-0.005632900167256594,-0.017138469964265823,0.00711811613291502
423.0,0.0,0.0,0.0,0.0,0.0,0.0,-0.025567378848791122,-0.0002545893075875938,0.026173332706093788,0.9998287558555603,-0.004404842853546143,-0.01732763648033142,0.004755495116114616
424.0,0.0,0.0,0.0,0.0,0.0,0.0,-0.02504131756722927,-0.003498807782307267,0.01548425666987896,0.9998464584350586,-0.0033814425114542246,-0.016886861994862556,0.0033087958581745625
425.0,0.0,0.0,0.0,0.0,0.0,0.0,-0.021281303837895393,-0.005206613801419735,0.01352804433554411,0.9998623728752136,-0.0028377447742968798,-0.016242915764451027,0.0017386155668646097
426.0,0.0,0.0,0.0,0.0,0.0,0.0,-0.0150789525359869,-0.010244051925837994,0.003988890442997217,0.9998730421066284,-0.002671116264536977,-0.015722107142210007,-0.0001432331628166139
427.0,0.0,0.0,0.0,0.0,0.0,0.0,-0.008951332420110703,-0.01268320344388485,-0.0018291298765689135,0.9998784065246582,-0.002764158882200718,-0.015243866480886936,-0.0018585515208542347
428.0,0.0,0.0,0.0,0.0,0.0,0.0,-0.0036225442308932543,-0.016922801733016968,-0.0026875026524066925,0.999874472618103,-0.0033501151483505964,-0.015087451785802841,-0.003516086842864752
429.0,0.0,0.0,0.0,0.0,0.0,0.0,-0.001996690407395363,-0.016682123765349388,0.010598537512123585,0.9998688101768494,-0.003951298538595438,-0.014869057573378086,-0.00504737114533782
430.0,0.0,0.0,0.0,0.0,0.0,0.0,-0.005396536085754633,-0.013626604340970516,0.022842887789011,0.9998636841773987,-0.0037964803632348776,-0.014589590951800346,-0.00673413323238492
431.0,0.0,0.0,0.0,0.0,0.0,0.0,-0.010367418639361858,-0.011627652682363987,0.021080076694488525,0.9998670816421509,-0.003358300309628248,-0.01356943603605032,-0.008413581177592278
432.0,0.0,0.0,0.0,0.0,0.0,0.0,-0.01200046669691801,-0.011624716222286224,0.011317357420921326,0.999862790107727,-0.002641381463035941,-0.012227993458509445,-0.01085825078189373
433.0,0.0,0.0,0.0,0.0,0.0,0.0,-0.014190117828547955,-0.01186523400247097,-0.0010273006046190858,0.9998560547828674,-0.0021335631608963013,-0.010774523951113224,-0.012943136505782604
434.0,0.0,0.0,0.0,0.0,0.0,0.0,-0.017711052671074867,-0.0070690191350877285,-0.005090767052024603,0.9998459219932556,-0.0009435824467800558,-0.009121840819716454,-0.014980457723140717
435.0,0.0,0.0,0.0,0.0,0.0,0.0,-0.017049191519618034,-0.003265184350311756,-0.00810672901570797,0.9998290538787842,0.00011553306831046939,-0.00735062500461936,-0.016969162970781326
436.0,0.0,0.0,0.0,0.0,0.0,0.0,-0.01730617694556713,5.587130362982862e-05,-0.013269598595798016,0.9998108744621277,0.0013244078727439046,-0.00573525857180357,-0.01853887550532818
437.0,0.0,0.0,0.0,0.0,0.0,0.0,-0.015844082459807396,0.0016099094646051526,-0.01429888978600502,0.9997965097427368,0.002597529673948884,-0.004198308102786541,-0.019561506807804108
438.0,0.0,0.0,0.0,0.0,0.0,0.0,-0.01360065396875143,0.002588417148217559,-0.018801996484398842,0.9997823238372803,0.0036731825675815344,-0.002811279147863388,-0.020345961675047874
439.0,0.0,0.0,0.0,0.0,0.0,0.0,-0.010999588295817375,0.0028728500474244356,-0.02129853144288063,0.9997711181640625,0.005055060610175133,-0.0015997592126950622,-0.020730335265398026
440.0,0.0,0.0,0.0,0.0,0.0,0.0,-0.006551749538630247,0.008817244321107864,-0.017461471259593964,0.9997720122337341,0.006421338301151991,-0.0004266022879164666,-0.020356949418783188
441.0,0.0,0.0,0.0,0.0,0.0,0.0,-0.004764155019074678,0.009313305839896202,-0.015533828176558018,0.9997735619544983,0.00784320943057537,0.0004154384951107204,-0.019780123606324196
442.0,0.0,0.0,0.0,0.0,0.0,0.0,-0.003322082106024027,0.013655150309205055,-0.007713125087320805,0.999782145023346,0.009059319272637367,0.0009258058853447437,-0.018791047856211662
443.0,0.0,0.0,0.0,0.0,0.0,0.0,-0.0026295839343219995,0.015630921348929405,-0.0036262753419578075,0.9997786283493042,0.010370239615440369,0.0013764714822173119,-0.018253715708851814
444.0,0.0,0.0,0.0,0.0,0.0,0.0,0.0016783088212832808,0.010493124835193157,-0.013552590273320675,0.9997778534889221,0.011416012421250343,0.0022534814197570086,-0.017580363899469376
445.0,0.0,0.0,0.0,0.0,0.0,0.0,0.006106826011091471,0.011826414614915848,-0.010366751812398434,0.9997848272323608,0.012407327070832253,0.00262087001465261,-0.016419963911175728
446.0,0.0,0.0,0.0,0.0,0.0,0.0,0.003731714328750968,0.012223503552377224,0.0001623618445592001,0.999798059463501,0.013223984278738499,0.0026305837091058493,-0.014910759404301643
447.0,0.0,0.0,0.0,0.0,0.0,0.0,0.003467575181275606,0.010652291588485241,8.181748853530735e-05,0.9998072385787964,0.01375572755932808,0.0025528024416416883,-0.01378016546368599
448.0,0.0,0.0,0.0,0.0,0.0,0.0,0.00279286690056324,0.009515667334198952,-0.002322772052139044,0.9998095035552979,0.014103363268077374,0.0025430526584386826,-0.01325143501162529
449.0,0.0,0.0,0.0,0.0,0.0,0.0,3.3499280107207596e-05,0.007713621016591787,-0.0025677140802145004,0.9998046159744263,0.014316563494503498,0.0029382677748799324,-0.013311317190527916
450.0,0.0,0.0,0.0,0.0,0.0,0.0,-0.0018034090753644705,0.006831493694335222,0.005317723378539085,0.999800980091095,0.014830783009529114,0.0034257674124091864,-0.01289641298353672
451.0,0.0,0.0,0.0,0.0,0.0,0.0,-0.002295113168656826,0.003786430461332202,0.008654455654323101,0.9997913241386414,0.01584402658045292,0.0039301710203289986,-0.012284473516047001
452.0,0.0,0.0,0.0,0.0,0.0,0.0,-0.0012760222889482975,0.0019018366001546383,0.01339277345687151,0.9997708797454834,0.017393046990036964,0.00427704444155097,-0.011724852956831455
453.0,0.0,0.0,0.0,0.0,0.0,0.0,-0.0002317232865607366,-0.0012044121976941824,0.014690582640469074,0.9997534155845642,0.018834853544831276,0.004235380329191685,-0.010981089435517788
454.0,0.0,0.0,0.0,0.0,0.0,0.0,0.0010073204757645726,-0.003097095061093569,0.008849602192640305,0.9997261166572571,0.02055007964372635,0.003911333158612251,-0.010492621921002865
455.0,0.0,0.0,0.0,0.0,0.0,0.0,0.001735363737680018,-0.0015502105234190822,0.015438779257237911,0.9996917843818665,0.02229742892086506,0.003974901512265205,-0.010175986215472221
456.0,0.0,0.0,0.0,0.0,0.0,0.0,0.0064648655243217945,0.0046410029754042625,0.021745946258306503,0.9996269345283508,0.025112781673669815,0.003993469290435314,-0.009967577643692493
457.0,0.0,0.0,0.0,0.0,0.0,0.0,0.016389619559049606,0.01021406427025795,0.01208117138594389,0.9995372295379639,0.028683697804808617,0.004579278640449047,-0.009042070247232914
458.0,0.0,0.0,0.0,0.0,0.0,0.0,0.027431707829236984,0.014398504979908466,0.0010747747728601098,0.9994528293609619,0.03226495906710625,0.004294596146792173,-0.005879392381757498
459.0,0.0,0.0,0.0,0.0,0.0,0.0,0.03462996333837509,0.015326406806707382,-0.01994549110531807,0.9993041157722473,0.0365576334297657,0.005791744217276573,-0.004627870861440897
460.0,0.0,0.0,0.0,0.0,0.0,0.0,0.03801453486084938,0.015641579404473305,-0.027366457507014275,0.999161958694458,0.04013700783252716,0.007577347569167614,-0.0026805931702256203
461.0,0.0,0.0,0.0,0.0,0.0,0.0,0.03859391063451767,0.009673264808952808,-0.029987992718815804,0.9990279078483582,0.04300154000520706,0.009654396213591099,-0.0010000835172832012
462.0,0.0,0.0,0.0,0.0,0.0,0.0,0.03827598690986633,-0.0019095444586127996,-0.04456736892461777,0.9989343881607056,0.04463036730885506,0.011750243604183197,0.0002067511813947931
463.0,0.0,0.0,0.0,0.0,0.0,0.0,0.03296499326825142,-0.010765855200588703,-0.04879716411232948,0.9988936185836792,0.044939715415239334,0.01380988210439682,0.0011796127073466778
464.0,0.0,0.0,0.0,0.0,0.0,0.0,0.024698561057448387,-0.01553364098072052,-0.03257649764418602,0.9989053010940552,0.044117894023656845,0.01540534757077694,0.0021262960508465767
465.0,0.0,0.0,0.0,0.0,0.0,0.0,0.014623680151998997,-0.02477770857512951,-0.021511135622859,0.998950719833374,0.04247095435857773,0.01685287430882454,0.0031411205418407917
466.0,0.0,0.0,0.0,0.0,0.0,0.0,0.011451596394181252,-0.03027106449007988,-0.020956795662641525,0.999006450176239,0.04068809375166893,0.017563264816999435,0.004726426210254431
467.0,0.0,0.0,0.0,0.0,0.0,0.0,0.012727797962725163,-0.030396077781915665,-0.012314326129853725,0.9990992546081543,0.03815210238099098,0.017422225326299667,0.006459255237132311
468.0,0.0,0.0,0.0,0.0,0.0,0.0,0.015363579615950584,-0.026280734688043594,0.00538610341027379,0.9992061853408813,0.035260021686553955,0.01725846156477928,0.0067880405113101006
469.0,0.0,0.0,0.0,0.0,0.0,0.0,0.01346686203032732,-0.026161544024944305,0.010703587904572487,0.9993112683296204,0.032475270330905914,0.016796406358480453,0.006345399655401707
470.0,0.0,0.0,0.0,0.0,0.0,0.0,0.011870212852954865,-0.023702099919319153,0.021260568872094154,0.9993982315063477,0.029991470277309418,0.016307596117258072,0.006147574167698622
471.0,0.0,0.0,0.0,0.0,0.0,0.0,0.012942825444042683,-0.0216403529047966,0.02922125719487667,0.9994652271270752,0.02795996330678463,0.016033761203289032,0.005520465783774853
472.0,0.0,0.0,0.0,0.0,0.0,0.0,0.0031936033628880978,-0.027143361046910286,0.021385161206126213,0.9995193481445312,0.026026025414466858,0.01607695408165455,0.005040457006543875
473.0,0.0,0.0,0.0,0.0,0.0,0.0,0.0033447102177888155,-0.028662411496043205,0.019497374072670937,0.999561071395874,0.024291425943374634,0.016278862953186035,0.004759829491376877
474.0,0.0,0.0,0.0,0.0,0.0,0.0,0.006368555128574371,-0.0270191989839077,0.0053002117201685905,0.9996169209480286,0.02208411693572998,0.016116159036755562,0.004304634407162666
475.0,0.0,0.0,0.0,0.0,0.0,0.0,-0.0006253920146264136,-0.022060800343751907,0.0007291907677426934,0.9996867179870605,0.0193441491574049,0.015452107414603233,0.0036760633811354637
476.0,0.0,0.0,0.0,0.0,0.0,0.0,-0.0010655394289642572,-0.013010362163186073,0.006896942853927612,0.9997439384460449,0.017051465809345245,0.014554216526448727,0.0030883224681019783
477.0,0.0,0.0,0.0,0.0,0.0,0.0,0.005172319710254669,-0.005637289024889469,0.0072668083012104034,0.9997915625572205,0.015410187654197216,0.013045175932347775,0.0030395479407161474
478.0,0.0,0.0,0.0,0.0,0.0,0.0,0.002785795135423541,-0.0068132467567920685,0.01736445352435112,0.999830961227417,0.013940867967903614,0.011783605441451073,0.0022094736341387033
479.0,0.0,0.0,0.0,0.0,0.0,0.0,0.00409964332357049,-0.005060213152319193,0.031643208116292953,0.9998623132705688,0.01287533063441515,0.010457271710038185,0.0005544789601117373
480.0,0.0,0.0,0.0,0.0,0.0,0.0,0.005122282076627016,0.00121560029219836,0.03277317062020302,0.9998752474784851,0.012716120108962059,0.009353969246149063,-0.0005222584586590528
481.0,0.0,0.0,0.0,0.0,0.0,0.0,0.00604687025770545,0.0026070682797580957,0.007169468328356743,0.999872088432312,0.013367746025323868,0.008568873628973961,-0.0019237790256738663
482.0,0.0,0.0,0.0,0.0,0.0,0.0,0.005034453701227903,0.005090256221592426,0.017147604376077652,0.9998648166656494,0.013990748673677444,0.007833912037312984,-0.0036467667669057846
483.0,0.0,0.0,0.0,0.0,0.0,0.0,0.006109482608735561,0.004581415560096502,0.03060273267328739,0.9998452067375183,0.014946057461202145,0.007765091955661774,-0.005091883707791567
484.0,0.0,0.0,0.0,0.0,0.0,0.0,0.01631912775337696,0.003896621521562338,0.03596559166908264,0.9997916221618652,0.01729697175323963,0.008759554475545883,-0.006386693101376295
485.0,0.0,0.0,0.0,0.0,0.0,0.0,0.017790289595723152,-0.001975076971575618,0.010669476352632046,0.999721348285675,0.020237848162651062,0.010030468925833702,-0.006859858985990286
486.0,0.0,0.0,0.0,0.0,0.0,0.0,0.02041555568575859,-0.000336990604409948,-0.00469031510874629,0.9996420741081238,0.023299895226955414,0.01126765739172697,-0.00677359476685524
487.0,0.0,0.0,0.0,0.0,0.0,0.0,0.02329876460134983,0.0017488718731328845,0.006197649519890547,0.9995492100715637,0.02704736404120922,0.01217581331729889,-0.0046408167108893394
488.0,0.0,0.0,0.0,0.0,0.0,0.0,0.022361166775226593,-0.000652866845484823,-0.01345648244023323,0.9994164705276489,0.030663559213280678,0.014095916412770748,-0.005279329605400562
489.0,0.0,0.0,0.0,0.0,0.0,0.0,0.019420871511101723,-0.006473145447671413,-0.06592456996440887,0.9992609620094299,0.034197334200143814,0.016532372683286667,-0.005901753436774015
490.0,0.0,0.0,0.0,0.0,0.0,0.0,0.013269329443573952,-0.0022359665017575026,-0.05126436427235603,0.9991278052330017,0.03672800958156586,0.0189280416816473,-0.006034221965819597
491.0,0.0,0.0,0.0,0.0,0.0,0.0,0.006378800608217716,0.0025512368883937597,-0.015136118978261948,0.9989951848983765,0.039204034954309464,0.020994633436203003,-0.005553367082029581
492.0,0.0,0.0,0.0,0.0,0.0,0.0,0.009889552369713783,0.005479853134602308,-0.03788779303431511,0.9988534450531006,0.04174566641449928,0.02299279160797596,-0.004521565977483988
493.0,0.0,0.0,0.0,0.0,0.0,0.0,0.0036030453629791737,0.005227828398346901,-0.03905230015516281,0.9987213015556335,0.04378987476229668,0.025048600509762764,-0.003283391473814845
494.0,0.0,0.0,0.0,0.0,0.0,0.0,0.002920122817158699,0.007949873805046082,-0.05586579442024231,0.9986075162887573,0.04552743211388588,0.026576625183224678,-0.0019993926398456097
495.0,0.0,0.0,0.0,0.0,0.0,0.0,0.01126846019178629,0.01156559307128191,-0.07115065306425095,0.9985093474388123,0.04706628620624542,0.0276280976831913,-0.0006928297225385904
496.0,0.0,0.0,0.0,0.0,0.0,0.0,0.0049710567109286785,0.009108521044254303,-0.054601363837718964,0.998474657535553,0.047514356672763824,0.028095703572034836,0.0011725443182513118
497.0,0.0,0.0,0.0,0.0,0.0,0.0,0.0025291219353675842,0.008351637981832027,-0.038573723286390305,0.9984450340270996,0.04794834554195404,0.028195858001708984,0.0036686016246676445
498.0,0.0,0.0,0.0,0.0,0.0,0.0,0.0018178238533437252,0.009183770045638084,-0.0213893111795187,0.9984177947044373,0.04820718243718147,0.028415551409125328,0.005525351967662573
499.0,0.0,0.0,0.0,0.0,0.0,0.0,0.005917203612625599,0.009433234110474586,-0.016987299546599388,0.998406171798706,0.047989100217819214,0.028887134045362473,0.006910576950758696
500.0,0.0,0.0,0.0,0.0,0.0,0.0,0.00836802925914526,0.01204785704612732,-0.013391979970037937,0.9983827471733093,0.04780245199799538,0.029467087239027023,0.008863145485520363
501.0,0.0,0.0,0.0,0.0,0.0,0.0,0.0070943208411335945,0.011102124117314816,-0.010661110281944275,0.9983720183372498,0.04744948446750641,0.029503922909498215,0.011461366899311543
502.0,0.0,0.0,0.0,0.0,0.0,0.0,0.005712728016078472,0.005542919971048832,-0.015539156273007393,0.9983909130096436,0.04661471024155617,0.02923101745545864,0.01371786743402481
503.0,0.0,0.0,0.0,0.0,0.0,0.0,0.006194436922669411,0.0005478147650137544,-0.019084498286247253,0.998477578163147,0.044758040457963943,0.028353730216622353,0.015339083038270473
504.0,0.0,0.0,0.0,0.0,0.0,0.0,0.0070906709879636765,-0.002781233051791787,-0.023784922435879707,0.9985764622688293,0.042375750839710236,0.02761269360780716,0.01693945750594139
505.0,0.0,0.0,0.0,0.0,0.0,0.0,0.007847161032259464,-0.0043664188124239445,-0.03186020627617836,0.9986771941184998,0.039941757917404175,0.02670370787382126,0.018317274749279022
506.0,0.0,0.0,0.0,0.0,0.0,0.0,0.001767067122273147,0.0002290069533046335,-0.003832828951999545,0.9988151788711548,0.03669905290007591,0.02529018558561802,0.01954272761940956
507.0,0.0,0.0,0.0,0.0,0.0,0.0,-0.005724301096051931,0.00202447478659451,0.02017098478972912,0.9989603161811829,0.033219270408153534,0.02372531034052372,0.02029561996459961
508.0,0.0,0.0,0.0,0.0,0.0,0.0,-0.0075002494268119335,0.0019093301380053163,0.03275617957115173,0.9991134405136108,0.029501162469387054,0.022081738337874413,0.020355958491563797
509.0,0.0,0.0,0.0,0.0,0.0,0.0,-0.00515969842672348,-0.006045436020940542,0.01016712374985218,0.9992520213127136,0.02582945115864277,0.020447637885808945,0.020254163071513176
510.0,0.0,0.0,0.0,0.0,0.0,0.0,-0.0021102381870150566,0.001037039328366518,0.004788634832948446,0.9993423223495483,0.022696157917380333,0.019007204100489616,0.020943082869052887
511.0,0.0,0.0,0.0,0.0,0.0,0.0,0.002777869114652276,0.007373669650405645,0.021836811676621437,0.9994091987609863,0.02006707154214382,0.017693722620606422,0.021574662998318672
512.0,0.0,0.0,0.0,0.0,0.0,0.0,0.0008787797414697707,0.01230969000607729,0.04248746484518051,0.9994530081748962,0.018001941964030266,0.01684008724987507,0.022045129910111427
513.0,0.0,0.0,0.0,0.0,0.0,0.0,-0.0021005687303841114,0.015092060901224613,0.04902215674519539,0.9994628429412842,0.016728442162275314,0.016577478498220444,0.022792112082242966
514.0,0.0,0.0,0.0,0.0,0.0,0.0,0.005959896836429834,0.009460882283747196,0.02027565985918045,0.999472439289093,0.015838604420423508,0.01634729839861393,0.02316860295832157
515.0,0.0,0.0,0.0,0.0,0.0,0.0,0.0008565097232349217,0.005393789149820805,0.004900810308754444,0.9994802474975586,0.015560099855065346,0.0160366240888834,0.023234622552990913
516.0,0.0,0.0,0.0,0.0,0.0,0.0,-0.0009224293171428144,0.004934847820550203,0.0002605480549391359,0.9994825720787048,0.015270349569618702,0.015956861898303032,0.023387670516967773
517.0,0.0,0.0,0.0,0.0,0.0,0.0,-0.0003765860165003687,0.0013750834623351693,-0.016939183697104454,0.9995085000991821,0.01484507042914629,0.0156388059258461,0.022756805643439293
518.0,0.0,0.0,0.0,0.0,0.0,0.0,0.005083151627331972,0.0013227863237261772,-0.013725392520427704,0.9995481371879578,0.013948333449661732,0.01500611286610365,0.021994613111019135
519.0,0.0,0.0,0.0,0.0,0.0,0.0,0.00038406153907999396,-9.224241512129083e-05,-0.004016013350337744,0.9995814561843872,0.013092833571135998,0.013993158005177975,0.0216741394251585
520.0,0.0,0.0,0.0,0.0,0.0,0.0,-0.0005352284642867744,-0.00300794979557395,-0.004423523787409067,0.9996321201324463,0.011454930528998375,0.0124050946906209,0.021226748824119568
521.0,0.0,0.0,0.0,0.0,0.0,0.0,0.0008285381481982768,-0.002929043723270297,-0.0016003482742235065,0.999686598777771,0.01001917477697134,0.010752211324870586,0.020266428589820862
522.0,0.0,0.0,0.0,0.0,0.0,0.0,-0.001825100975111127,-0.0037324687000364065,0.00028415111592039466,0.9997206926345825,0.008778824470937252,0.009115520864725113,0.019960233941674232
523.0,0.0,0.0,0.0,0.0,0.0,0.0,-0.0041363174095749855,-0.001645453623495996,0.012185938656330109,0.9997548460960388,0.0076223877258598804,0.007747323717921972,0.019288700073957443
524.0,0.0,0.0,0.0,0.0,0.0,0.0,-0.004281607922166586,0.00091338757192716,0.020297080278396606,0.99978107213974,0.006828967481851578,0.006628445815294981,0.018632540479302406
525.0,0.0,0.0,0.0,0.0,0.0,0.0,-0.009138558059930801,-0.0003991028934251517,0.04192962870001793,0.9997832775115967,0.006599971558898687,0.005545953754335642,0.01894906722009182
526.0,0.0,0.0,0.0,0.0,0.0,0.0,-0.004921916872262955,-0.001699731219559908,0.028119215741753578,0.9997850060462952,0.006619743537157774,0.004841379821300507,0.019046343863010406
527.0,0.0,0.0,0.0,0.0,0.0,0.0,0.005167894996702671,-0.006363595370203257,-0.01909887045621872,0.999786376953125,0.006683672778308392,0.004017316736280918,0.019138645380735397
528.0,0.0,0.0,0.0,0.0,0.0,0.0,-0.004367397166788578,-0.0026061630342155695,0.020289311185479164,0.9997916221618652,0.0063567678444087505,0.0037840972654521465,0.019026117399334908
529.0,0.0,0.0,0.0,0.0,0.0,0.0,-0.0014267798978835344,0.001714110723696649,0.015914488583803177,0.9997863173484802,0.0069825430400669575,0.0037092568818479776,0.019097676500678062
530.0,0.0,0.0,0.0,0.0,0.0,0.0,-0.00576046435162425,-0.00017453367763664573,-0.005632973741739988,0.9997848272323608,0.007131080608814955,0.0037957713939249516,0.01910347305238247
531.0,0.0,0.0,0.0,0.0,0.0,0.0,-0.010026565752923489,0.0063661546446383,0.030269576236605644,0.9997754693031311,0.0077270385809242725,0.004243389703333378,0.019266625866293907
532.0,0.0,0.0,0.0,0.0,0.0,0.0,-0.004202903714030981,0.00531067093834281,-0.006137087009847164,0.9997681975364685,0.008615723811089993,0.0050818161107599735,0.019066477194428444
533.0,0.0,0.0,0.0,0.0,0.0,0.0,0.00035076760104857385,-0.0005011887988075614,-0.017475716769695282,0.9997661709785461,0.009508997201919556,0.005518004763871431,0.018621742725372314
534.0,0.0,0.0,0.0,0.0,0.0,0.0,-0.005512386094778776,-0.0009787949966266751,-0.013158134184777737,0.9997645616531372,0.010158359073102474,0.005799570586532354,0.0182753074914217
535.0,0.0,0.0,0.0,0.0,0.0,0.0,-0.006027180701494217,-0.0018996807048097253,-0.016017872840166092,0.9997604489326477,0.010527759790420532,0.0061438740231096745,0.01818682812154293
536.0,0.0,0.0,0.0,0.0,0.0,0.0,-0.009861236438155174,-0.003390350379049778,-0.012582658790051937,0.9997620582580566,0.010767248459160328,0.006670539733022451,0.01776101253926754
537.0,0.0,0.0,0.0,0.0,0.0,0.0,-0.011781412176787853,-0.002199520356953144,-0.011838039383292198,0.9997705221176147,0.010512509383261204,0.006522112525999546,0.017493370920419693
538.0,0.0,0.0,0.0,0.0,0.0,0.0,-0.012389136478304863,-0.0004348299989942461,-0.000335207034368068,0.9997663497924805,0.010520944371819496,0.006384567823261023,0.017768876627087593
539.0,0.0,0.0,0.0,0.0,0.0,0.0,-0.013204178772866726,-0.0021830725017935038,-0.002351940842345357,0.9997671842575073,0.01026098895817995,0.00623622490093112,0.017925532534718513
540.0,0.0,0.0,0.0,0.0,0.0,0.0,-0.011571045964956284,-0.0038662569131702185,-0.012568013742566109,0.9997799396514893,0.009255901910364628,0.005627641454339027,0.01796099916100502
541.0,0.0,0.0,0.0,0.0,0.0,0.0,-0.01444394513964653,0.0007613651105202734,0.00036516657564789057,0.9997901916503906,0.00824762787669897,0.0050517236813902855,0.018058836460113525
542.0,0.0,0.0,0.0,0.0,0.0,0.0,-0.013638862408697605,0.004810455720871687,0.003786304499953985,0.9997872114181519,0.00736963888630271,0.004361964296549559,0.01876750774681568
543.0,0.0,0.0,0.0,0.0,0.0,0.0,-0.015339475125074387,0.005803021602332592,-0.0027876589447259903,0.9997948408126831,0.006231523584574461,0.002945915563032031,0.01905038207769394
544.0,0.0,0.0,0.0,0.0,0.0,0.0,-0.017343251034617424,0.013134336099028587,0.01810818910598755,0.999802827835083,0.005234584212303162,0.0011934072244912386,0.019118569791316986
545.0,0.0,0.0,0.0,0.0,0.0,0.0,-0.010567541234195232,0.013809054158627987,0.03769131749868393,0.99981290102005,0.0046575977467000484,-0.00020074644999112934,0.018778059631586075
546.0,0.0,0.0,0.0,0.0,0.0,0.0,-0.0065972753800451756,0.00938352383673191,0.022212905809283257,0.9998424053192139,0.004879344720393419,-0.0008600201108492911,0.01704566925764084
547.0,0.0,0.0,0.0,0.0,0.0,0.0,-0.003622200572863221,-0.0027912158984690905,0.017637919634580612,0.9998592138290405,0.005492891184985638,-0.001091575832106173,0.01581769809126854
548.0,0.0,0.0,0.0,0.0,0.0,0.0,-0.005084183532744646,-0.0018853945657610893,0.038926102221012115,0.9998602867126465,0.006395466160029173,-0.0007677249377593398,0.015427269041538239
549.0,0.0,0.0,0.0,0.0,0.0,0.0,-0.003979086875915527,-0.0011808761628344655,0.046151865273714066,0.9998674988746643,0.00774728087708354,0.000738280825316906,0.014298051595687866
550.0,0.0,0.0,0.0,0.0,0.0,0.0,-0.004834203515201807,-0.007012865971773863,0.03214501217007637,0.9998696446418762,0.009349224157631397,0.003310537664219737,0.012741098180413246
551.0,0.0,0.0,0.0,0.0,0.0,0.0,0.001637482549995184,-0.005677448585629463,0.0025930211413651705,0.9998593330383301,0.010727975517511368,0.00606169318780303,0.011383716948330402
552.0,0.0,0.0,0.0,0.0,0.0,0.0,-0.0011846889974549413,-0.005855263210833073,-0.016063187271356583,0.999833881855011,0.01220729947090149,0.00860180426388979,0.010457250289618969
553.0,0.0,0.0,0.0,0.0,0.0,0.0,0.0017487506847828627,-0.008588000200688839,-0.041550617665052414,0.9997979402542114,0.013298207893967628,0.011063718236982822,0.010255402885377407
554.0,0.0,0.0,0.0,0.0,0.0,0.0,0.0005544052110053599,-0.008906709961593151,-0.038629379123449326,0.9997670650482178,0.013927852734923363,0.012965597212314606,0.010181745514273643
555.0,0.0,0.0,0.0,0.0,0.0,0.0,0.002623814856633544,-0.010905956849455833,-0.04132929444313049,0.9997621774673462,0.013583949767053127,0.014031820930540562,0.009700152091681957
556.0,0.0,0.0,0.0,0.0,0.0,0.0,0.007091058883816004,-0.007656961213797331,-0.032375846058130264,0.9997677803039551,0.013127048499882221,0.01453381311148405,0.008982363156974316
557.0,0.0,0.0,0.0,0.0,0.0,0.0,0.006019763648509979,-0.004288813564926386,-0.020844319835305214,0.9997846484184265,0.012046070769429207,0.01469956524670124,0.008332539349794388
558.0,0.0,0.0,0.0,0.0,0.0,0.0,0.0063183605670928955,-0.001542145386338234,-0.0042677512392401695,0.9998003244400024,0.010995964519679546,0.014453351497650146,0.008341885171830654
559.0,0.0,0.0,0.0,0.0,0.0,0.0,0.008649886585772038,-0.0010295634856447577,0.006160449236631393,0.999818742275238,0.009904718957841396,0.014156389981508255,0.007994290441274643
560.0,0.0,0.0,0.0,0.0,0.0,0.0,0.010715232230722904,-9.174876322504133e-05,0.023046037182211876,0.9998401403427124,0.008770733140408993,0.013398010283708572,0.007958428002893925
561.0,0.0,0.0,0.0,0.0,0.0,0.0,0.012677191756665707,-0.006633332930505276,0.014878297224640846,0.9998624920845032,0.0076436749659478664,0.012296011671423912,0.008112307637929916
562.0,0.0,0.0,0.0,0.0,0.0,0.0,0.011265167966485023,-0.01251272764056921,0.0061139874160289764,0.9998910427093506,0.006212770007550716,0.010537905618548393,0.008280615322291851
563.0,0.0,0.0,0.0,0.0,0.0,0.0,0.012638873420655727,-0.0035093522164970636,0.01752796769142151,0.9999086856842041,0.005396648775786161,0.00948985293507576,0.007978472858667374
564.0,0.0,0.0,0.0,0.0,0.0,0.0,0.01460922323167324,0.002793300896883011,0.037667956203222275,0.9998902082443237,0.0064094820991158485,0.010146564804017544,0.008690926246345043
565.0,0.0,0.0,0.0,0.0,0.0,0.0,0.02429250255227089,0.004456307273358107,0.04579121991991997,0.999833345413208,0.008855834603309631,0.01140629407018423,0.011168583296239376
566.0,0.0,0.0,0.0,0.0,0.0,0.0,0.031130291521549225,0.0009372876957058907,0.057930756360292435,0.9997444748878479,0.01172829233109951,0.01289867702871561,0.014399679377675056
567.0,0.0,0.0,0.0,0.0,0.0,0.0,0.03391776606440544,0.002829817356541753,0.08069971203804016,0.9996089339256287,0.015261681750416756,0.01537101436406374,0.017681632190942764
568.0,0.0,0.0,0.0,0.0,0.0,0.0,0.037372101098299026,-0.012564213015139103,0.022983623668551445,0.9994379878044128,0.018964501097798347,0.01915391907095909,0.019934097304940224
569.0,0.0,0.0,0.0,0.0,0.0,0.0,0.048969145864248276,-0.03446176275610924,-0.09757086634635925,0.9992846846580505,0.02107549086213112,0.02219710312783718,0.02221352607011795
570.0,0.0,0.0,0.0,0.0,0.0,0.0,0.050125688314437866,-0.02276967093348503,-0.09799650311470032,0.9991869330406189,0.02143346332013607,0.023253586143255234,0.02500644512474537
571.0,0.0,0.0,0.0,0.0,0.0,0.0,0.041776180267333984,-0.016814714297652245,-0.07861274480819702,0.9991485476493835,0.020217061042785645,0.02285044454038143,0.027773860841989517
572.0,0.0,0.0,0.0,0.0,0.0,0.0,0.03625912219285965,-0.020860424265265465,-0.08960548043251038,0.999175488948822,0.01792517490684986,0.02123788744211197,0.02960011176764965
573.0,0.0,0.0,0.0,0.0,0.0,0.0,0.02918020635843277,-0.0199046041816473,-0.06886426359415054,0.9992376565933228,0.014936997555196285,0.019115475937724113,0.030590800568461418
574.0,0.0,0.0,0.0,0.0,0.0,0.0,0.015458013862371445,-0.020777245983481407,-0.05852030590176582,0.9993358254432678,0.010740667581558228,0.015836326405405998,0.031013676896691322
575.0,0.0,0.0,0.0,0.0,0.0,0.0,-0.00249489676207304,-0.0159832164645195,-0.03824346140027046,0.9994379281997681,0.005606858991086483,0.011938652023673058,0.030818285420536995
576.0,0.0,0.0,0.0,0.0,0.0,0.0,-0.021189041435718536,-0.004850524477660656,0.0037560290656983852,0.9995161294937134,0.0007272785878740251,0.007945336401462555,0.03006410039961338
577.0,0.0,0.0,0.0,0.0,0.0,0.0,-0.02832677587866783,0.0012335386127233505,0.023203009739518166,0.9995664358139038,-0.003680613124743104,0.004104251973330975,0.028923626989126205
578.0,0.0,0.0,0.0,0.0,0.0,0.0,-0.03175146132707596,0.0035011766012758017,0.03962799161672592,0.9996030926704407,-0.008135112933814526,0.0003022559394594282,0.0269720871001482
579.0,0.0,0.0,0.0,0.0,0.0,0.0,-0.039076585322618484,0.0073897140100598335,0.04865177720785141,0.9996099472045898,-0.012327405624091625,-0.0032374702859669924,0.024855751544237137
580.0,0.0,0.0,0.0,0.0,0.0,0.0,-0.04883376508951187,0.013140754774212837,0.040669187903404236,0.9996017813682556,-0.015610544010996819,-0.006447273772209883,0.02260768972337246
581.0,0.0,0.0,0.0,0.0,0.0,0.0,-0.0559367872774601,0.020059924572706223,0.058493100106716156,0.9995974898338318,-0.018214302137494087,-0.009048426523804665,0.019778160378336906
582.0,0.0,0.0,0.0,0.0,0.0,0.0,-0.059943053871393204,0.020413894206285477,0.0629681870341301,0.9995940327644348,-0.020460030063986778,-0.0115572614595294,0.01611703634262085
583.0,0.0,0.0,0.0,0.0,0.0,0.0,-0.05808122083544731,0.025059878826141357,0.06353337317705154,0.9995940327644348,-0.02151363343000412,-0.013428932055830956,0.012998278252780437
584.0,0.0,0.0,0.0,0.0,0.0,0.0,-0.05446512997150421,0.02703690715134144,0.05102727189660072,0.9996026158332825,-0.021749654784798622,-0.015055742114782333,0.009745931252837181
585.0,0.0,0.0,0.0,0.0,0.0,0.0,-0.05862124636769295,0.02726661041378975,0.045210856944322586,0.9996120929718018,-0.021821048110723495,-0.016007743775844574,0.006598469335585833
586.0,0.0,0.0,0.0,0.0,0.0,0.0,-0.0564342737197876,0.026487553492188454,0.02961941622197628,0.9996482133865356,-0.020796244964003563,-0.016066769137978554,0.0035986227449029684
587.0,0.0,0.0,0.0,0.0,0.0,0.0,-0.047714054584503174,0.028843281790614128,0.02181592956185341,0.9997076392173767,-0.018709899857640266,-0.015298331156373024,0.0007240263512358069
588.0,0.0,0.0,0.0,0.0,0.0,0.0,-0.040286652743816376,0.03154141455888748,0.018298722803592682,0.9997684955596924,-0.01623196341097355,-0.013999409973621368,-0.0018887534970417619
589.0,0.0,0.0,0.0,0.0,0.0,0.0,-0.038265660405159,0.030871953815221786,0.019634000957012177,0.9998216032981873,-0.013702335767447948,-0.012414459139108658,-0.0038364918436855078
590.0,0.0,0.0,0.0,0.0,0.0,0.0,-0.033761557191610336,0.026855556294322014,0.010986709967255592,0.9998738169670105,-0.010555588640272617,-0.010512254200875759,-0.00552740041166544
591.0,0.0,0.0,0.0,0.0,0.0,0.0,-0.026476968079805374,0.02304425649344921,-0.003435753518715501,0.9999126195907593,-0.007179045118391514,-0.008297420106828213,-0.007381792180240154
592.0,0.0,0.0,0.0,0.0,0.0,0.0,-0.017167914658784866,0.01658759079873562,-0.01883876882493496,0.9999386668205261,-0.003829875262454152,-0.006235491018742323,-0.008307692594826221
593.0,0.0,0.0,0.0,0.0,0.0,0.0,-0.012606886215507984,0.011207391507923603,-0.03283422812819481,0.9999438524246216,0.0009215620812028646,-0.0028996255714446306,-0.010148389264941216
594.0,0.0,0.0,0.0,0.0,0.0,0.0,-0.01134337019175291,0.007725157309323549,-0.018646910786628723,0.9999224543571472,0.003352348692715168,-0.0009272261522710323,-0.011965425685048103
595.0,0.0,0.0,0.0,0.0,0.0,0.0,-0.0050213756039738655,0.002650816924870014,-0.021101316437125206,0.9998939037322998,0.005683558993041515,0.0008523677824996412,-0.013383717276155949
596.0,0.0,0.0,0.0,0.0,0.0,0.0,-0.001836113748140633,-0.003432468743994832,-0.02011873386800289,0.9998637437820435,0.007830928079783916,0.002116248942911625,-0.014380086213350296
597.0,0.0,0.0,0.0,0.0,0.0,0.0,0.0005462515400722623,-0.007187210023403168,-0.010425340384244919,0.9998375773429871,0.00982483197003603,0.003173442790284753,-0.014776076190173626
598.0,0.0,0.0,0.0,0.0,0.0,0.0,0.006566893309354782,-0.009014329873025417,-0.010060524567961693,0.9998089671134949,0.011262062005698681,0.00366454990580678,-0.015549193136394024
599.0,0.0,0.0,0.0,0.0,0.0,0.0,0.007666924502700567,-0.015788646414875984,-0.01906818151473999,0.9997742176055908,0.012494485825300217,0.004057337064296007,-0.016705911606550217
600.0,0.0,0.0,0.0,0.0,0.0,0.0,0.011497263796627522,-0.01731063239276409,-0.011970993131399155,0.999754786491394,0.013065584935247898,0.003835898358374834,-0.017465906217694283
601.0,0.0,0.0,0.0,0.0,0.0,0.0,0.01533498428761959,-0.017098985612392426,0.004210966639220715,0.9997494220733643,0.013792739249765873,0.0031566054094582796,-0.017349576577544212
602.0,0.0,0.0,0.0,0.0,0.0,0.0,0.015872465446591377,-0.01615765504539013,0.00935124047100544,0.9997336864471436,0.014228593558073044,0.0025269899051636457,-0.017989033833146095
603.0,0.0,0.0,0.0,0.0,0.0,0.0,0.016936948522925377,-0.014698177576065063,0.015170063823461533,0.9997072219848633,0.01468204241245985,0.0023190488573163748,-0.019093653187155724
604.0,0.0,0.0,0.0,0.0,0.0,0.0,0.016689138486981392,-0.017257196828722954,0.020665019750595093,0.999699056148529,0.01542387530207634,0.0022947206161916256,-0.01894800178706646
605.0,0.0,0.0,0.0,0.0,0.0,0.0,0.020065492019057274,-0.015658987686038017,0.02612033486366272,0.9997039437294006,0.016237255185842514,0.0019858144223690033,-0.01802094094455242
606.0,0.0,0.0,0.0,0.0,0.0,0.0,0.024312885478138924,-0.015486476942896843,0.0220213383436203,0.9996938109397888,0.017442425712943077,0.0016233776696026325,-0.017474284395575523
607.0,0.0,0.0,0.0,0.0,0.0,0.0,0.02828720211982727,-0.015054328367114067,0.011728874407708645,0.9996785521507263,0.01844976469874382,0.001658342545852065,-0.017325296998023987
608.0,0.0,0.0,0.0,0.0,0.0,0.0,0.03521936759352684,-0.008646635338664055,0.006214092019945383,0.9996742606163025,0.019172336906194687,0.0009891787776723504,-0.01681159995496273
609.0,0.0,0.0,0.0,0.0,0.0,0.0,0.042999375611543655,-0.010563643649220467,-0.005835497751832008,0.9996542930603027,0.01991950534284115,0.0005767549155279994,-0.017159415408968925
610.0,0.0,0.0,0.0,0.0,0.0,0.0,0.03614918142557144,-0.019697310402989388,-0.013805631548166275,0.9996335506439209,0.02043447084724903,0.0003386202733963728,-0.01775161363184452
611.0,0.0,0.0,0.0,0.0,0.0,0.0,0.027810003608465195,-0.022417234256863594,-4.997080395696685e-05,0.9996457695960999,0.020207270979881287,-0.00028397003188729286,-0.017313355579972267
612.0,0.0,0.0,0.0,0.0,0.0,0.0,0.02432641014456749,-0.021873997524380684,0.015957031399011612,0.9996626973152161,0.020345112308859825,-0.0011521242558956146,-0.016104385256767273
613.0,0.0,0.0,0.0,0.0,0.0,0.0,0.021803880110383034,-0.013243395835161209,0.029817182570695877,0.9996711611747742,0.0207832008600235,-0.0020617013797163963,-0.014875429682433605
614.0,0.0,0.0,0.0,0.0,0.0,0.0,0.022160785272717476,-0.011454753577709198,0.03411250561475754,0.9996583461761475,0.021628383547067642,-0.002047926187515259,-0.014538019895553589
615.0,0.0,0.0,0.0,0.0,0.0,0.0,0.02892385609447956,-0.014605260454118252,-0.009456958621740341,0.9996532797813416,0.022257786244153976,-0.0018751408206298947,-0.013958703726530075
616.0,0.0,0.0,0.0,0.0,0.0,0.0,0.027840422466397285,-0.008866575546562672,-0.0007386924116872251,0.9996582269668579,0.02272394672036171,-0.002137352479621768,-0.012749467976391315
617.0,0.0,0.0,0.0,0.0,0.0,0.0,0.026319872587919235,-0.004432061221450567,0.01741914637386799,0.999660074710846,0.02335139736533165,-0.0022716012317687273,-0.011378900147974491
618.0,0.0,0.0,0.0,0.0,0.0,0.0,0.025753963738679886,-0.005865117534995079,0.028913462534546852,0.999651312828064,0.02415723167359829,-0.0016776453703641891,-0.010537353344261646
619.0,0.0,0.0,0.0,0.0,0.0,0.0,0.028526658192276955,-0.006635102443397045,0.004760760813951492,0.9996365904808044,0.02533390372991562,-0.0006802612915635109,-0.009183251298964024
620.0,0.0,0.0,0.0,0.0,0.0,0.0,0.02923841029405594,-0.0038726539351046085,-0.01039232686161995,0.9996122717857361,0.02678000181913376,0.00012393237557262182,-0.00763288140296936
621.0,0.0,0.0,0.0,0.0,0.0,0.0,0.03128981962800026,-0.0008222302421927452,-4.831399201066233e-05,0.9995782375335693,0.028395414352416992,0.0010883231880143285,-0.005958275403827429
622.0,0.0,0.0,0.0,0.0,0.0,0.0,0.025513332337141037,-0.002891955664381385,0.0036055054515600204,0.9995493292808533,0.029716063290834427,0.0024722020607441664,-0.0034605120308697224
623.0,0.0,0.0,0.0,0.0,0.0,0.0,0.02897472307085991,-0.0045526535250246525,-0.0103240255266428,0.9995082020759583,0.031020155176520348,0.004289634525775909,-0.0015614067669957876
624.0,0.0,0.0,0.0,0.0,0.0,0.0,0.03683919459581375,0.0008712056442163885,-0.02218254841864109,0.9994785785675049,0.0317879393696785,0.00561561668291688,0.0006606725510209799
625.0,0.0,0.0,0.0,0.0,0.0,0.0,0.034694604575634,0.005721806548535824,-0.00943637453019619,0.9994303584098816,0.03290523961186409,0.007069514598697424,0.002454808447510004
626.0,0.0,0.0,0.0,0.0,0.0,0.0,0.030907094478607178,0.0036921619903296232,-0.017072737216949463,0.9993739724159241,0.03405119478702545,0.008739092387259007,0.003969246055930853
627.0,0.0,0.0,0.0,0.0,0.0,0.0,0.026032479479908943,0.000543672707863152,-0.045212890952825546,0.9993143081665039,0.03499128296971321,0.010318879969418049,0.006331810727715492
628.0,0.0,0.0,0.0,0.0,0.0,0.0,0.025789698585867882,0.0021623822394758463,-0.03290325775742531,0.999265193939209,0.0355508029460907,0.011471400037407875,0.008593118749558926
629.0,0.0,0.0,0.0,0.0,0.0,0.0,0.022836528718471527,0.0019206810975447297,-0.03328796848654747,0.9992290139198303,0.03587687760591507,0.01200114842504263,0.010508825071156025
630.0,0.0,0.0,0.0,0.0,0.0,0.0,0.024588359519839287,0.0006535756401717663,-0.016525717452168465,0.9991936087608337,0.03620869293808937,0.012461081147193909,0.01207517459988594
631.0,0.0,0.0,0.0,0.0,0.0,0.0,0.02771824225783348,0.001897373702377081,-0.03083753027021885,0.9991701245307922,0.03621694818139076,0.012089040130376816,0.014182445593178272
632.0,0.0,0.0,0.0,0.0,0.0,0.0,0.023720305413007736,0.0013056759489700198,-0.03549899160861969,0.9991927742958069,0.03532251715660095,0.01148524135351181,0.01530842762440443
633.0,0.0,0.0,0.0,0.0,0.0,0.0,0.023618072271347046,0.0026704866904765368,-0.014341327361762524,0.9992090463638306,0.03488568589091301,0.011285834014415741,0.015390790067613125
634.0,0.0,0.0,0.0,0.0,0.0,0.0,0.023665156215429306,0.0051293084397912025,0.007980741560459137,0.999198853969574,0.035055238753557205,0.011622472666203976,0.015409566462039948
635.0,0.0,0.0,0.0,0.0,0.0,0.0,0.016784213483333588,0.00418075593188405,-0.031025812029838562,0.9991301894187927,0.03611748665571213,0.012408172711730003,0.01674923487007618
636.0,0.0,0.0,0.0,0.0,0.0,0.0,0.02125873789191246,0.0018151681870222092,0.029364900663495064,0.9990225434303284,0.03759576380252838,0.012994066812098026,0.019276900216937065
637.0,0.0,0.0,0.0,0.0,0.0,0.0,0.018834400922060013,-0.0019469244871288538,0.02039225772023201,0.998914897441864,0.03938166797161102,0.014247400686144829,0.020374471321702003
638.0,0.0,0.0,0.0,0.0,0.0,0.0,0.010278471745550632,-0.005307153798639774,-0.032608967274427414,0.9988091588020325,0.04061685875058174,0.01610444113612175,0.021707192063331604
639.0,0.0,0.0,0.0,0.0,0.0,0.0,0.009940152056515217,-0.003793154377490282,-0.05276362970471382,0.9987428188323975,0.041004735976457596,0.017914844676852226,0.02259533666074276
640.0,0.0,0.0,0.0,0.0,0.0,0.0,0.008623714558780193,0.004039600491523743,-0.0649905875325203,0.9987151622772217,0.0408148355782032,0.018367156386375427,0.02376500517129898
641.0,0.0,0.0,0.0,0.0,0.0,0.0,0.009632112458348274,0.00775323947891593,-0.03393779322504997,0.9987375140190125,0.0398353636264801,0.017735477536916733,0.02493947558104992
642.0,0.0,0.0,0.0,0.0,0.0,0.0,-0.0017982753925025463,0.004267445299774408,-0.034437790513038635,0.9988316297531128,0.037954434752464294,0.01717553660273552,0.024489177390933037
643.0,0.0,0.0,0.0,0.0,0.0,0.0,-0.02510913833975792,-0.011468407697975636,-0.06069978326559067,0.9989792704582214,0.03481652960181236,0.017244337126612663,0.0230408962816
644.0,0.0,0.0,0.0,0.0,0.0,0.0,-0.018517805263400078,-0.014081723988056183,-0.022279128432273865,0.9990834593772888,0.03168366476893425,0.017152024433016777,0.023113742470741272
645.0,0.0,0.0,0.0,0.0,0.0,0.0,-0.00999388750642538,-0.015652723610401154,0.020719710737466812,0.9991818070411682,0.02850158140063286,0.016491854563355446,0.023482346907258034
646.0,0.0,0.0,0.0,0.0,0.0,0.0,-0.00940784439444542,-0.006962871644645929,0.020453400909900665,0.9992536306381226,0.025808323174715042,0.01620534434914589,0.023737486451864243
647.0,0.0,0.0,0.0,0.0,0.0,0.0,-0.0026627019979059696,0.011189763434231281,0.03333171084523201,0.9992939829826355,0.02427556924521923,0.016044605523347855,0.02376481145620346
648.0,0.0,0.0,0.0,0.0,0.0,0.0,0.0017349194968119264,0.012206005863845348,0.005371228791773319,0.9993332028388977,0.023528529331088066,0.01598246768116951,0.02289462275803089
649.0,0.0,0.0,0.0,0.0,0.0,0.0,-0.00297612720169127,0.009110757149755955,-0.018739905208349228,0.9993646740913391,0.02273101732134819,0.016331199556589127,0.022065041586756706
650.0,0.0,0.0,0.0,0.0,0.0,0.0,-0.007928428240120411,0.010343484580516815,0.02025015279650688,0.9993592500686646,0.02259451523423195,0.016913993284106255,0.022012123838067055
651.0,0.0,0.0,0.0,0.0,0.0,0.0,-0.01670544594526291,0.0048862905241549015,-0.026960887014865875,0.9993449449539185,0.02266192063689232,0.017159609124064445,0.022397011518478394
652.0,0.0,0.0,0.0,0.0,0.0,0.0,-0.01677493192255497,0.010307896882295609,-0.011088988743722439,0.9993368983268738,0.022786187008023262,0.017298929393291473,0.022523976862430573
653.0,0.0,0.0,0.0,0.0,0.0,0.0,-0.013954446651041508,0.015257610008120537,0.010927719995379448,0.9993245005607605,0.02331073395907879,0.017705002799630165,0.022218316793441772
654.0,0.0,0.0,0.0,0.0,0.0,0.0,-0.01641019806265831,0.015863055363297462,-0.015686586499214172,0.9993177056312561,0.023567702621221542,0.017961589619517326,0.02204732969403267
655.0,0.0,0.0,0.0,0.0,0.0,0.0,-0.012428922578692436,0.014264403842389584,-0.038378581404685974,0.9993023872375488,0.023783167824149132,0.018118182197213173,0.02237808145582676
656.0,0.0,0.0,0.0,0.0,0.0,0.0,-0.008707329630851746,0.016863415017724037,-0.016049548983573914,0.9992883205413818,0.023837946355342865,0.017886575311422348,0.02312217280268669
657.0,0.0,0.0,0.0,0.0,0.0,0.0,-0.009157031774520874,0.016443049535155296,0.003294755006209016,0.9992749691009521,0.02355913072824478,0.01765109971165657,0.02414340153336525
658.0,0.0,0.0,0.0,0.0,0.0,0.0,-0.0033016479574143887,0.013943752273917198,-0.009982168674468994,0.999268114566803,0.02306308224797249,0.017043497413396835,0.025315793231129646
659.0,0.0,0.0,0.0,0.0,0.0,0.0,-0.002213137922808528,0.011704478412866592,-0.0039182500913739204,0.9992740750312805,0.02218054048717022,0.016313886269927025,0.026329105719923973
660.0,0.0,0.0,0.0,0.0,0.0,0.0,-0.0008279939647763968,0.009506698697805405,0.004595358856022358,0.9993166327476501,0.020741339772939682,0.015636472031474113,0.026297997683286667
661.0,0.0,0.0,0.0,0.0,0.0,0.0,-0.00273696705698967,0.0062034945003688335,0.00022208601876627654,0.9993555545806885,0.019794201478362083,0.014779710210859776,0.026042262092232704
662.0,0.0,0.0,0.0,0.0,0.0,0.0,-0.0024809374008327723,0.004993678070604801,0.008703526109457016,0.9993685483932495,0.019049659371376038,0.014161288738250732,0.026440253481268883
663.0,0.0,0.0,0.0,0.0,0.0,0.0,-0.003388046519830823,0.0030266086105257273,0.01742149144411087,0.9993931651115417,0.018204040825366974,0.01356628630310297,0.02641865238547325
664.0,0.0,0.0,0.0,0.0,0.0,0.0,-0.00831595528870821,-0.0002732451830524951,0.020064624026417732,0.9994152784347534,0.01774374023079872,0.013178941793739796,0.026087991893291473
665.0,0.0,0.0,0.0,0.0,0.0,0.0,-0.007373129483312368,-0.0015047864289954305,0.013077360577881336,0.9994352459907532,0.01752493903040886,0.013008342124521732,0.025549687445163727
666.0,0.0,0.0,0.0,0.0,0.0,0.0,-0.008518916554749012,-0.00790154654532671,0.00568136852234602,0.9994549751281738,0.017736686393618584,0.013205796480178833,0.02451087161898613
667.0,0.0,0.0,0.0,0.0,0.0,0.0,-0.006953825708478689,-0.008168482221662998,0.0028694283682852983,0.9994595646858215,0.018077703192830086,0.013433068059384823,0.023943442851305008
668.0,0.0,0.0,0.0,0.0,0.0,0.0,-0.0054254475980997086,-0.007799806538969278,0.01005684956908226,0.9994748830795288,0.018022529780864716,0.013757269829511642,0.0231498870998621
669.0,0.0,0.0,0.0,0.0,0.0,0.0,-0.005074810702353716,-0.01085461676120758,0.009508959949016571,0.9994704127311707,0.018379412591457367,0.014412368647754192,0.022658945992588997
670.0,0.0,0.0,0.0,0.0,0.0,0.0,-0.001701552071608603,-0.012802389450371265,0.0024290732108056545,0.999469518661499,0.01864531822502613,0.01496584340929985,0.02211395651102066
671.0,0.0,0.0,0.0,0.0,0.0,0.0,-0.0005917245289310813,-0.01286928541958332,-0.002379282144829631,0.9994683265686035,0.018867021426558495,0.015714332461357117,0.021453548222780228
672.0,0.0,0.0,0.0,0.0,0.0,0.0,0.003937342204153538,-0.011584848165512085,-0.0057460470125079155,0.9994736313819885,0.018792565912008286,0.015958132222294807,0.021089652553200722
673.0,0.0,0.0,0.0,0.0,0.0,0.0,0.006194370333105326,-0.009126086719334126,-0.0009617515606805682,0.9994837641716003,0.01857074722647667,0.015947116538882256,0.02080937847495079
674.0,0.0,0.0,0.0,0.0,0.0,0.0,0.007686386816203594,-0.01039223000407219,-0.004620606545358896,0.9994882345199585,0.01848306693136692,0.015977689996361732,0.020651018247008324
675.0,0.0,0.0,0.0,0.0,0.0,0.0,0.012835808098316193,-0.011821480467915535,-0.004888842348009348,0.999478280544281,0.018713688477873802,0.01593979261815548,0.02094888500869274
676.0,0.0,0.0,0.0,0.0,0.0,0.0,0.012146434746682644,-0.012260286137461662,-0.0013483610237017274,0.9994734525680542,0.01818879321217537,0.015804776921868324,0.021732117980718613
677.0,0.0,0.0,0.0,0.0,0.0,0.0,0.016807949170470238,-0.0056228237226605415,0.009664078243076801,0.9994800090789795,0.017353923991322517,0.015553520992398262,0.022290047258138657
678.0,0.0,0.0,0.0,0.0,0.0,0.0,0.015049959532916546,-0.002169435378164053,0.006725689396262169,0.9994643926620483,0.017442693933844566,0.015212321653962135,0.023136241361498833
679.0,0.0,0.0,0.0,0.0,0.0,0.0,0.01388553436845541,0.00022629271552432328,-0.0064238291233778,0.9994457960128784,0.017175134271383286,0.014734148979187012,0.0244157612323761
680.0,0.0,0.0,0.0,0.0,0.0,0.0,0.01553485356271267,0.002177953254431486,-0.013656656257808208,0.9994336366653442,0.016330191865563393,0.013777387328445911,0.02599937655031681
681.0,0.0,0.0,0.0,0.0,0.0,0.0,0.013493591919541359,0.00745754037052393,0.006305390503257513,0.9994335174560547,0.015017528086900711,0.012401304207742214,0.02744881622493267
682.0,0.0,0.0,0.0,0.0,0.0,0.0,0.010176477953791618,0.006880487781018019,0.010368775576353073,0.9994248747825623,0.013626204803586006,0.010763637721538544,0.029126711189746857
683.0,0.0,0.0,0.0,0.0,0.0,0.0,0.011738237924873829,0.006094176787883043,0.004098548553884029,0.9994270205497742,0.011686251498758793,0.00914953276515007,0.03042188100516796
684.0,0.0,0.0,0.0,0.0,0.0,0.0,0.008536286652088165,0.008152101188898087,0.007894153706729412,0.9994270205497742,0.00984180811792612,0.0074709327891469,0.031512558460235596
685.0,0.0,0.0,0.0,0.0,0.0,0.0,0.007935385219752789,0.01180469524115324,0.018235838040709496,0.9994232058525085,0.008037698455154896,0.005708177573978901,0.03249690681695938
686.0,0.0,0.0,0.0,0.0,0.0,0.0,0.005407079588621855,0.016179023310542107,0.05864538252353668,0.9994552135467529,0.006375000346451998,0.0044929212890565395,0.03206745535135269
687.0,0.0,0.0,0.0,0.0,0.0,0.0,0.007012820802628994,0.010459340177476406,0.02465198189020157,0.9994693994522095,0.005723015870898962,0.0035316464491188526,0.03186827898025513
688.0,0.0,0.0,0.0,0.0,0.0,0.0,0.009222089312970638,0.010438336059451103,0.029377741739153862,0.9994169473648071,0.004715503193438053,0.0009624366066418588,0.03380120173096657
689.0,0.0,0.0,0.0,0.0,0.0,0.0,0.006881657522171736,0.0034072035923600197,0.023208191618323326,0.9994385838508606,0.004242217633873224,0.00023030770535115153,0.03323012962937355
690.0,0.0,0.0,0.0,0.0,0.0,0.0,0.005741140805184841,-0.00046181894140318036,0.01374206691980362,0.9994893074035645,0.004043405409902334,-0.0004658483376260847,0.03169240802526474
691.0,0.0,0.0,0.0,0.0,0.0,0.0,0.0017058217199519277,-0.0030048994813114405,0.015600627288222313,0.9995312690734863,0.0034630484879016876,-0.0008370389696210623,0.03040592186152935
692.0,0.0,0.0,0.0,0.0,0.0,0.0,0.005554730538278818,-0.007860108278691769,0.0008667967631481588,0.9995432496070862,0.0028728272300213575,-0.0014409165596589446,0.03005070611834526
693.0,0.0,0.0,0.0,0.0,0.0,0.0,0.012113613076508045,-0.007382583804428577,-0.004143600817769766,0.9995476007461548,0.002419239142909646,-0.0023632843513041735,0.02988971583545208
694.0,0.0,0.0,0.0,0.0,0.0,0.0,0.0069060432724654675,-0.006733783986419439,0.016417371109128,0.9995530247688293,0.0023537136148661375,-0.002869651187211275,0.029662346467375755
695.0,0.0,0.0,0.0,0.0,0.0,0.0,0.004178128205239773,-0.005318915471434593,0.022619176656007767,0.9995661973953247,0.0020566924940794706,-0.002681887708604336,0.029255548492074013
696.0,0.0,0.0,0.0,0.0,0.0,0.0,0.011512749828398228,-0.005699902307242155,0.0005818438366986811,0.9995787739753723,0.0021928197238594294,-0.0026554171927273273,0.028818819671869278
697.0,0.0,0.0,0.0,0.0,0.0,0.0,0.00748553778976202,-0.004274576436728239,0.00041881014476530254,0.9995991587638855,0.0021363720297813416,-0.002636487362906337,0.028106380254030228
698.0,0.0,0.0,0.0,0.0,0.0,0.0,0.0058877659030258656,-0.0008312466088682413,-0.003597825998440385,0.9996084570884705,0.0020691086538136005,-0.002523611532524228,0.02778836339712143
699.0,0.0,0.0,0.0,0.0,0.0,0.0,0.001105776522308588,-0.0016409459058195353,-0.00033059544512070715,0.9996054172515869,0.002003089524805546,-0.001987369731068611,0.027950134128332138
700.0,0.0,0.0,0.0,0.0,0.0,0.0,-0.00040614360477775335,0.0003841852303594351,-0.011328782886266708,0.999619722366333,0.0019522011280059814,-0.0015168185345828533,0.027465861290693283
701.0,0.0,0.0,0.0,0.0,0.0,0.0,-1.8226314750791062e-06,0.009285680949687958,-0.012974136509001255,0.9996117949485779,0.0024051587097346783,-0.0013511753641068935,0.027723871171474457
702.0,0.0,0.0,0.0,0.0,0.0,0.0,-0.005958952475339174,0.01122050080448389,-0.0013698897091671824,0.9996074438095093,0.0032732998952269554,-0.0006867939955554903,0.02781694568693638
703.0,0.0,0.0,0.0,0.0,0.0,0.0,-0.0053977458737790585,0.012095519341528416,-0.009023613296449184,0.999618649482727,0.0035489415749907494,7.270385685842484e-05,0.02738662250339985
704.0,0.0,0.0,0.0,0.0,0.0,0.0,-0.007557315286248922,0.0117742158472538,-0.02138446271419525,0.9996251463890076,0.004004872404038906,0.00027076544938609004,0.02708166278898716
705.0,0.0,0.0,0.0,0.0,0.0,0.0,-0.014465991407632828,0.01130549143999815,-0.022201811894774437,0.9996355772018433,0.00416615791618824,0.0003414935199543834,0.02666991949081421
706.0,0.0,0.0,0.0,0.0,0.0,0.0,-0.02350761741399765,0.008466209284961224,-0.01350237987935543,0.9996436834335327,0.004093903582543135,0.0003274762420915067,0.026372605934739113
707.0,0.0,0.0,0.0,0.0,0.0,0.0,-0.027145391330122948,0.005130520090460777,-0.015547162853181362,0.9996616244316101,0.0059248050674796104,0.0025508799590170383,0.025198474526405334
708.0,0.0,0.0,0.0,0.0,0.0,0.0,-0.013098997995257378,0.011470899917185307,-0.020608343183994293,0.9996844530105591,0.006234636064618826,0.00313875125721097,0.02412831224501133
709.0,0.0,0.0,0.0,0.0,0.0,0.0,-0.02169071137905121,0.012288730591535568,-0.0048868791200220585,0.999693751335144,0.006537181790918112,0.003611721796914935,0.023594554513692856
710.0,0.0,0.0,0.0,0.0,0.0,0.0,-0.02580226957798004,0.01269210409373045,0.0034889273811131716,0.999696671962738,0.007227666210383177,0.004383534658700228,0.02313341200351715
711.0,0.0,0.0,0.0,0.0,0.0,0.0,-0.026648687198758125,0.014482252299785614,0.017981266602873802,0.9996913075447083,0.008476415649056435,0.005402501206845045,0.02272072061896324
712.0,0.0,0.0,0.0,0.0,0.0,0.0,-0.01955031044781208,0.0135388458147645,0.003149867756292224,0.9996814727783203,0.009708019904792309,0.00649998476728797,0.02236996963620186
713.0,0.0,0.0,0.0,0.0,0.0,0.0,-0.011651826091110706,0.010436654090881348,-0.018674349412322044,0.9996578693389893,0.011364740319550037,0.007848639041185379,0.022212833166122437
714.0,0.0,0.0,0.0,0.0,0.0,0.0,-0.0015618010656908154,0.0099627785384655,-0.02712978422641754,0.9996377825737,0.012968366965651512,0.008363687433302402,0.022048505023121834
715.0,0.0,0.0,0.0,0.0,0.0,0.0,-0.006397197023034096,0.008442899212241173,-0.009833702817559242,0.9996275305747986,0.013606919907033443,0.009106064215302467,0.021834244951605797
716.0,0.0,0.0,0.0,0.0,0.0,0.0,-0.004671035800129175,0.00724025396630168,-0.00830342248082161,0.9996165633201599,0.014042462222278118,0.009842628613114357,0.021741846576333046
717.0,0.0,0.0,0.0,0.0,0.0,0.0,-0.004100043326616287,0.008172974921762943,-0.006281253881752491,0.9995990991592407,0.014322544448077679,0.010472746565937996,0.022066686302423477
718.0,0.0,0.0,0.0,0.0,0.0,0.0,0.007005680818110704,0.007625006604939699,-0.005027869716286659,0.9995858669281006,0.014591773971915245,0.010523299686610699,0.022460199892520905
719.0,0.0,0.0,0.0,0.0,0.0,0.0,0.011750783771276474,0.0031573562882840633,-0.016973795369267464,0.9995878338813782,0.014080020599067211,0.010577529668807983,0.022672634571790695
720.0,0.0,0.0,0.0,0.0,0.0,0.0,0.00664450554177165,-0.0024858699180185795,-0.01677638106048107,0.9996013045310974,0.013265332207083702,0.010617139749228954,0.022553283721208572
721.0,0.0,0.0,0.0,0.0,0.0,0.0,0.010572188533842564,-0.006649082526564598,-0.014357074163854122,0.9996237754821777,0.012003476731479168,0.009827586822211742,0.022621452808380127
722.0,0.0,0.0,0.0,0.0,0.0,0.0,0.008443898521363735,-0.007822884246706963,-0.00027369786403141916,0.9996408224105835,0.010562448762357235,0.00840262696146965,0.023155031725764275
723.0,0.0,0.0,0.0,0.0,0.0,0.0,0.001234913244843483,-0.0076667675748467445,0.006277867592871189,0.9996656179428101,0.009260470047593117,0.007650238461792469,0.022900914773344994
724.0,0.0,0.0,0.0,0.0,0.0,0.0,-4.6837925765430555e-05,-0.010420010425150394,0.005309402476996183,0.9996950030326843,0.007816553115844727,0.006913704331964254,0.022387316450476646
725.0,0.0,0.0,0.0,0.0,0.0,0.0,0.005097043234854937,-0.012703771702945232,0.004395800642669201,0.9997174739837646,0.006377227604389191,0.00595881650224328,0.022111939266324043
726.0,0.0,0.0,0.0,0.0,0.0,0.0,0.002025091089308262,-0.005797730293124914,0.008925799280405045,0.999740719795227,0.004521977622061968,0.004428552463650703,0.02187473140656948
