,Position_X,Position_Y,Position_Z,Velocity_X,Velocity_Y,Velocity_Z,Acceleration_X,Acceleration_Y,Acceleration_Z,Quaterion_0,Quaterion_1,Quaterion_2,Quaterion_3
51.0,0.0,0.0,0.0,0.0,0.0,0.0,-0.02344270795583725,-0.0011911466717720032,0.00397338904440403,1.0,-6.938893903907228e-18,-8.673617379884035e-18,-2.0816681711721685e-17
52.0,0.0,0.0,0.0,0.0,0.0,0.0,-0.02714906819164753,0.005332014057785273,0.002138990443199873,0.9999982118606567,-0.00033160726889036596,0.0004520989314187318,-0.0017976071685552597
53.0,0.0,0.0,0.0,0.0,0.0,0.0,-0.026688871905207634,0.0077524143271148205,0.00041982598486356437,0.9999961256980896,-0.0003901307354681194,0.0012364528374746442,-0.0024515476543456316
54.0,0.0,0.0,0.0,0.0,0.0,0.0,-0.02336176112294197,0.009919925592839718,-0.0019466467201709747,0.999993085861206,-4.557923966785893e-05,0.0023126318119466305,-0.002906354144215584
55.0,0.0,0.0,0.0,0.0,0.0,0.0,-0.0193808414041996,0.007875378243625164,-0.008392009884119034,0.9999840259552002,0.001251698238775134,0.003659076290205121,-0.00411903765052557
56.0,0.0,0.0,0.0,0.0,0.0,0.0,-0.014869973063468933,0.006445192266255617,-0.010618043132126331,0.9999724626541138,0.0021518950816243887,0.0050936052575707436,-0.004949419759213924
57.0,0.0,0.0,0.0,0.0,0.0,0.0,-0.00863024964928627,0.007609374821186066,-0.011282994411885738,0.999954879283905,0.0031840431038290262,0.00717186089605093,-0.0053580510430037975
58.0,0.0,0.0,0.0,0.0,0.0,0.0,-0.004767994862049818,0.008327607996761799,-0.006986625026911497,0.9999452233314514,0.0035092793405056,0.008629702031612396,-0.004777063615620136
59.0,0.0,0.0,0.0,0.0,0.0,0.0,0.0004429405089467764,0.006845581810921431,-0.0018523104954510927,0.9999366998672485,0.004085818771272898,0.00966904778033495,-0.004058717284351587
60.0,0.0,0.0,0.0,0.0,0.0,0.0,0.003488292684778571,0.005469650961458683,-0.006112035363912582,0.9999300241470337,0.004609277006238699,0.010455740615725517,-0.003056345973163843
61.0,0.0,0.0,0.0,0.0,0.0,0.0,0.02119186893105507,-0.013227824121713638,-0.02536124363541603,0.9999377727508545,0.004026489797979593,0.010248803533613682,-0.0018013810040429235
62.0,0.0,0.0,0.0,0.0,0.0,0.0,0.024245575070381165,-0.0012990980176255107,-0.008565757423639297,0.9999529123306274,0.0032200366258621216,0.00912152323871851,-0.0007901937351562083
63.0,0.0,0.0,0.0,0.0,0.0,0.0,0.014632404781877995,-4.6971570554887876e-05,0.0040992628782987595,0.9999675154685974,0.002427231753244996,0.007640546653419733,0.0008244143100455403
64.0,0.0,0.0,0.0,0.0,0.0,0.0,0.004491803236305714,-0.0033221605699509382,0.00796739012002945,0.9999787211418152,0.0010557916248217225,0.006149610038846731,0.001892779371701181
65.0,0.0,0.0,0.0,0.0,0.0,0.0,-0.0061671496368944645,0.006509521510452032,0.01873786747455597,0.9999814033508301,0.00020456541096791625,0.005727725103497505,0.0020969172473996878
66.0,0.0,0.0,0.0,0.0,0.0,0.0,0.0007316177361644804,0.000667500717099756,0.020255960524082184,0.9999823570251465,0.0005569951608777046,0.005825696513056755,0.0010117280762642622
67.0,0.0,0.0,0.0,0.0,0.0,0.0,-0.009608063846826553,5.758024417445995e-05,0.01214155089110136,0.9999818801879883,0.0004407839151099324,0.0059393406845629215,-0.0008576978580094874
68.0,0.0,0.0,0.0,0.0,0.0,0.0,-0.01912808045744896,0.004911379888653755,0.007260429672896862,0.9999732971191406,-1.4449763511947822e-05,0.006792047992348671,-0.002704983577132225
69.0,0.0,0.0,0.0,0.0,0.0,0.0,-0.017998140305280685,0.007339913863688707,0.007254289463162422,0.9999537467956543,0.00023503726697526872,0.008401788771152496,-0.00468042865395546
70.0,0.0,0.0,0.0,0.0,0.0,0.0,-0.012542021460831165,0.00953076034784317,0.007873033173382282,0.9999345541000366,0.0008057010127231479,0.009876289404928684,-0.005716911982744932
71.0,0.0,0.0,0.0,0.0,0.0,0.0,-0.002009440679103136,0.01022368110716343,0.0022287536412477493,0.9999184012413025,0.0016858956078067422,0.011301563121378422,-0.005716150160878897
72.0,0.0,0.0,0.0,0.0,0.0,0.0,0.006492599379271269,0.01016954705119133,-0.00043261723476462066,0.9999120831489563,0.002360051730647683,0.011926678009331226,-0.005290853790938854
73.0,0.0,0.0,0.0,0.0,0.0,0.0,0.013012804090976715,0.009872931987047195,-0.0030992517713457346,0.9999094605445862,0.003227685345336795,0.012271135114133358,-0.0044741518795490265
74.0,0.0,0.0,0.0,0.0,0.0,0.0,0.021595992147922516,0.00655641034245491,-0.006632634438574314,0.9999182224273682,0.003647424513474107,0.011709367856383324,-0.003627937287092209
75.0,0.0,0.0,0.0,0.0,0.0,0.0,0.023531688377261162,0.008306941948831081,-0.009662951342761517,0.9999344944953918,0.00358520052395761,0.010524570941925049,-0.002718824427574873
76.0,0.0,0.0,0.0,0.0,0.0,0.0,0.02298571541905403,0.007622600998729467,-0.007452990394085646,0.999947190284729,0.0038215909153223038,0.009384334087371826,-0.001729966956190765
77.0,0.0,0.0,0.0,0.0,0.0,0.0,0.020534461364150047,0.006489271763712168,-0.0010465027298778296,0.9999565482139587,0.004127960652112961,0.008317738771438599,-0.0008116388926282525
78.0,0.0,0.0,0.0,0.0,0.0,0.0,0.014550858177244663,0.008778522722423077,0.006316047627478838,0.9999660849571228,0.0036133076064288616,0.00740037253126502,-0.00018189124239142984
79.0,0.0,0.0,0.0,0.0,0.0,0.0,0.012552955187857151,0.007285894360393286,0.010172594338655472,0.9999694228172302,0.0035271206870675087,0.006976269651204348,5.6555800256319344e-05
80.0,0.0,0.0,0.0,0.0,0.0,0.0,0.012805170379579067,0.008143307641148567,0.009337878786027431,0.9999699592590332,0.0037291930057108402,0.006777480710297823,0.000486790289869532
81.0,0.0,0.0,0.0,0.0,0.0,0.0,0.009649212472140789,0.008264385163784027,0.012096555903553963,0.9999716877937317,0.003240968333557248,0.0066934917122125626,0.001156614045612514
82.0,0.0,0.0,0.0,0.0,0.0,0.0,0.004224014468491077,0.009248849004507065,0.013682386837899685,0.9999724626541138,0.0025480648037046194,0.00682968832552433,0.001408573822118342
83.0,0.0,0.0,0.0,0.0,0.0,0.0,-0.0030727104749530554,0.010848047211766243,0.010479937307536602,0.9999683499336243,0.002297560218721628,0.0073661948554217815,0.0019416380673646927
84.0,0.0,0.0,0.0,0.0,0.0,0.0,0.01500575989484787,0.011588748544454575,0.007313388399779797,0.999963641166687,0.002619112143293023,0.007746388670057058,0.002424417994916439
85.0,0.0,0.0,0.0,0.0,0.0,0.0,0.011503384448587894,0.012891549617052078,0.0009611330460757017,0.9999607801437378,0.002648687921464443,0.007871635258197784,0.0030779142398387194
86.0,0.0,0.0,0.0,0.0,0.0,0.0,-0.0029155127704143524,0.012246309779584408,-0.0002401873207418248,0.9999533295631409,0.003047958482056856,0.008364139124751091,0.003748169634491205
87.0,0.0,0.0,0.0,0.0,0.0,0.0,0.003193460637703538,0.010836823843419552,-0.005532029550522566,0.9999451637268066,0.004330368246883154,0.008987204171717167,0.0031952904537320137
88.0,0.0,0.0,0.0,0.0,0.0,0.0,0.004431235138326883,0.011359581723809242,-0.00962822325527668,0.9999377727508545,0.005073046311736107,0.009500576183199883,0.0029023047536611557
89.0,0.0,0.0,0.0,0.0,0.0,0.0,0.0031738118268549442,0.011259172111749649,-0.006352339871227741,0.9999362826347351,0.005075489636510611,0.009772105142474174,0.0024865814484655857
90.0,0.0,0.0,0.0,0.0,0.0,0.0,0.0025846068747341633,0.01005389355123043,-0.00630141282454133,0.9999290704727173,0.005725109949707985,0.010317953303456306,0.001614317181520164
91.0,0.0,0.0,0.0,0.0,0.0,0.0,0.0003318435337860137,0.009234451688826084,-0.0065014357678592205,0.9999150037765503,0.0062174927443265915,0.011199741624295712,0.0024277563206851482
92.0,0.0,0.0,0.0,0.0,0.0,0.0,0.0006495620473288,0.007879447191953659,-0.005531165283173323,0.9999061226844788,0.006776461377739906,0.011613010428845882,0.002635068027302623
93.0,0.0,0.0,0.0,0.0,0.0,0.0,0.0004477953480090946,0.006738595198839903,-0.002722450764849782,0.9998992085456848,0.006917110178619623,0.011935044080018997,0.0033518453128635883
94.0,0.0,0.0,0.0,0.0,0.0,0.0,0.011157488450407982,-0.0058290776796638966,-0.009556976146996021,0.9999014735221863,0.006944943685084581,0.01158189121633768,0.003831691574305296
95.0,0.0,0.0,0.0,0.0,0.0,0.0,0.03208736330270767,-0.013376886025071144,-0.028759023174643517,0.9999142289161682,0.007109560072422028,0.00994429737329483,0.004706875886768103
96.0,0.0,0.0,0.0,0.0,0.0,0.0,0.01980937458574772,0.0005336293834261596,0.018505895510315895,0.9999253153800964,0.006845289375633001,0.007614181376993656,0.006669825874269009
97.0,0.0,0.0,0.0,0.0,0.0,0.0,0.004005062859505415,-0.017138836905360222,0.010298225097358227,0.9999430775642395,0.006165189202874899,0.005566375330090523,0.006696200929582119
98.0,0.0,0.0,0.0,0.0,0.0,0.0,-0.004240069072693586,-0.004133689682930708,0.010149911046028137,0.9999539256095886,0.00577051006257534,0.005060850642621517,0.005764079745858908
99.0,0.0,0.0,0.0,0.0,0.0,0.0,0.0027470493223518133,-0.004896986298263073,0.02004128508269787,0.9999591708183289,0.005435715429484844,0.004918025806546211,0.005285799037665129
100.0,0.0,0.0,0.0,0.0,0.0,0.0,-0.0023595283273607492,-0.005254650954157114,0.016428546980023384,0.9999628067016602,0.005592737812548876,0.00504924776032567,0.004201672505587339
101.0,0.0,0.0,0.0,0.0,0.0,0.0,-0.011755571700632572,0.00017869133444037288,0.012482183054089546,0.9999621510505676,0.005733841564506292,0.0059235976077616215,0.002785951364785433
102.0,0.0,0.0,0.0,0.0,0.0,0.0,-0.008111215196549892,0.0005412120372056961,0.007482065819203854,0.9999563097953796,0.005737087689340115,0.006887747906148434,0.00265656434930861
103.0,0.0,0.0,0.0,0.0,0.0,0.0,-0.0038012543227523565,0.0033721858635544777,0.0021852506324648857,0.9999480247497559,0.005452107172459364,0.007960889488458633,0.003287467872723937
104.0,0.0,0.0,0.0,0.0,0.0,0.0,0.008314531296491623,0.002621034625917673,-0.0006956415018066764,0.9999417066574097,0.005190329626202583,0.008676613681018353,0.0037912726402282715
105.0,0.0,0.0,0.0,0.0,0.0,0.0,0.018047425895929337,-0.0007068068371154368,-0.0073140463791787624,0.9999386668205261,0.0051544602029025555,0.008535067550837994,0.004820410627871752
106.0,0.0,0.0,0.0,0.0,0.0,0.0,0.013933513313531876,-0.0001405089278705418,-0.017553752288222313,0.9999350309371948,0.005355562549084425,0.008284354582428932,0.005707507487386465
107.0,0.0,0.0,0.0,0.0,0.0,0.0,0.015890436246991158,-0.000637658464256674,-0.013725854456424713,0.9999352097511292,0.005472405347973108,0.00779177900403738,0.0062414840795099735
108.0,0.0,0.0,0.0,0.0,0.0,0.0,0.013779680244624615,0.0011126443278044462,-0.0033445172011852264,0.9999396800994873,0.005458913743495941,0.007243502885103226,0.006197203882038593
109.0,0.0,0.0,0.0,0.0,0.0,0.0,0.007937964051961899,0.003618730464950204,-0.0007888944819569588,0.99994295835495,0.005403680726885796,0.00692218029871583,0.0060812728479504585
110.0,0.0,0.0,0.0,0.0,0.0,0.0,0.0032956248614937067,0.004822087474167347,0.005666076671332121,0.999943733215332,0.005575282499194145,0.0064321160316467285,0.0063288044184446335
111.0,0.0,0.0,0.0,0.0,0.0,0.0,-0.0015996271977201104,0.004573050420731306,0.01028271671384573,0.9999417066574097,0.005549384281039238,0.0061488524079322815,0.006925285793840885
112.0,0.0,0.0,0.0,0.0,0.0,0.0,-0.0030637348536401987,0.00581421097740531,0.005285370163619518,0.99994295835495,0.005034983158111572,0.006324741989374161,0.0069811115972697735
113.0,0.0,0.0,0.0,0.0,0.0,0.0,0.000457856833236292,0.004878425505012274,0.0013191885082051158,0.9999451041221619,0.004763281438499689,0.006653856486082077,0.006545979995280504
114.0,0.0,0.0,0.0,0.0,0.0,0.0,-0.0005375450127758086,0.0032234203536063433,-0.001442667213268578,0.9999414086341858,0.0048689949326217175,0.006756419315934181,0.0069154612720012665
115.0,0.0,0.0,0.0,0.0,0.0,0.0,-0.0015138810267671943,0.004953215830028057,-0.005082620773464441,0.9999386668205261,0.004904516041278839,0.007130492478609085,0.006910066120326519
116.0,0.0,0.0,0.0,0.0,0.0,0.0,0.008796622976660728,0.0037945196963846684,-0.0023362135980278254,0.9999398589134216,0.0049226474948227406,0.007320379372686148,0.0065147774294018745
117.0,0.0,0.0,0.0,0.0,0.0,0.0,-0.0028645440470427275,0.0005741991335526109,0.0014035564381629229,0.999936580657959,0.005061451345682144,0.007534013595432043,0.0066724419593811035
118.0,0.0,0.0,0.0,0.0,0.0,0.0,-0.010427925735712051,0.004544658120721579,-0.0012481047306209803,0.9999358654022217,0.004741705022752285,0.007949830032885075,0.006523484364151955
119.0,0.0,0.0,0.0,0.0,0.0,0.0,-0.002730455482378602,0.0018225715029984713,-0.002885171677917242,0.9999381899833679,0.004418156109750271,0.007961633615195751,0.006382092367857695
120.0,0.0,0.0,0.0,0.0,0.0,0.0,-0.0013370991218835115,-0.0008851038292050362,0.0022808294743299484,0.9999430775642395,0.004617360886186361,0.007372331339865923,0.0061761909164488316
121.0,0.0,0.0,0.0,0.0,0.0,0.0,-0.005302205681800842,-0.0010306693147867918,-0.0004362587642390281,0.999950110912323,0.0041060964576900005,0.0069723245687782764,0.005858427379280329
122.0,0.0,0.0,0.0,0.0,0.0,0.0,-0.008474787697196007,-0.0002159562864108011,-0.0007353527471423149,0.9999582171440125,0.003353640204295516,0.007338864728808403,0.004296605009585619
123.0,0.0,0.0,0.0,0.0,0.0,0.0,-0.008907599374651909,0.00028783257585018873,-0.0008528711623512208,0.9999520778656006,0.0034527292009443045,0.008575232699513435,0.003223075997084379
124.0,0.0,0.0,0.0,0.0,0.0,0.0,-0.010312269441783428,0.001180814579129219,0.0002873592311516404,0.9999488592147827,0.0026387819088995457,0.009078542701900005,0.0035881807561963797
125.0,0.0,0.0,0.0,0.0,0.0,0.0,-0.009494476951658726,0.0023124711588025093,0.00830057356506586,0.9999427199363708,0.0022601657547056675,0.009926620870828629,0.003296280512586236
126.0,0.0,0.0,0.0,0.0,0.0,0.0,-0.005172305274754763,0.000526011164765805,0.009041419252753258,0.9999355673789978,0.002589903539046645,0.0104905990883708,0.0034744625445455313
127.0,0.0,0.0,0.0,0.0,0.0,0.0,0.022816425189375877,-0.02428082935512066,-0.03278717026114464,0.9999420046806335,0.002609844785183668,0.00986021663993597,0.0034656529314816
128.0,0.0,0.0,0.0,0.0,0.0,0.0,0.0162070132791996,-0.004833171144127846,-0.008150767534971237,0.999954342842102,0.00277124485000968,0.008491243235766888,0.00339030590839684
129.0,0.0,0.0,0.0,0.0,0.0,0.0,0.012015936896204948,-0.012400337494909763,0.0004229590995237231,0.9999611377716064,0.002760601695626974,0.007546234410256147,0.003620849223807454
130.0,0.0,0.0,0.0,0.0,0.0,0.0,0.01588604226708412,-0.01888212375342846,0.01062217727303505,0.9999729990959167,0.0021087978966534138,0.00611200463026762,0.0034844414331018925
131.0,0.0,0.0,0.0,0.0,0.0,0.0,-0.005017062183469534,-0.004807548131793737,-0.0001740537554724142,0.999975860118866,0.0020259893499314785,0.006162844132632017,0.002494196407496929
132.0,0.0,0.0,0.0,0.0,0.0,0.0,0.002610177267342806,-0.013435848988592625,0.009866584092378616,0.9999755620956421,0.0023643600288778543,0.006236721761524677,0.0020834961906075478
133.0,0.0,0.0,0.0,0.0,0.0,0.0,-0.0057135275565087795,-0.007927986793220043,0.006830714177340269,0.9999743103981018,0.002628826769068837,0.006359008606523275,0.0020218323916196823
134.0,0.0,0.0,0.0,0.0,0.0,0.0,-0.006087718065828085,-0.006469092331826687,0.007831629365682602,0.9999691247940063,0.0030938407871872187,0.006933589931577444,0.0020270212553441525
135.0,0.0,0.0,0.0,0.0,0.0,0.0,0.00878045242279768,-0.009967781603336334,0.010419311933219433,0.9999682307243347,0.0028966376557946205,0.0069663142785429955,0.002582069020718336
136.0,0.0,0.0,0.0,0.0,0.0,0.0,0.011101780459284782,-0.011495856568217278,-0.0025693008210510015,0.9999676942825317,0.003153451019898057,0.0067445337772369385,0.0030239690095186234
137.0,0.0,0.0,0.0,0.0,0.0,0.0,0.009283352643251419,-0.013165391981601715,-0.015199425630271435,0.9999715089797974,0.0029494750779122114,0.006116820499300957,0.003302823519334197
138.0,0.0,0.0,0.0,0.0,0.0,0.0,0.009406207129359245,-0.013743823394179344,-0.010157507844269276,0.9999768733978271,0.0025709206238389015,0.00528783118352294,0.0034214495681226254
139.0,0.0,0.0,0.0,0.0,0.0,0.0,0.008539825677871704,-0.01425856351852417,-0.00719483895227313,0.9999800324440002,0.002566383220255375,0.004751649685204029,0.0032834254670888186
140.0,0.0,0.0,0.0,0.0,0.0,0.0,-0.00015052712114993483,-0.008357882499694824,-0.006890300661325455,0.9999858140945435,0.0017733158310875297,0.004232194274663925,0.0027086271438747644
141.0,0.0,0.0,0.0,0.0,0.0,0.0,-0.005603297613561153,-0.0018461033469066024,0.005284606013447046,0.9999865889549255,0.001102133421227336,0.004540035035461187,0.002222942654043436
142.0,0.0,0.0,0.0,0.0,0.0,0.0,-0.011998758651316166,0.002168018603697419,0.008256898261606693,0.9999864101409912,1.943802772075287e-06,0.004943338688462973,0.0016689703334122896
143.0,0.0,0.0,0.0,0.0,0.0,0.0,-0.014151329174637794,0.009706761687994003,0.008476709015667439,0.9999850988388062,-0.0006311333854682744,0.005255441181361675,0.001347848679870367
144.0,0.0,0.0,0.0,0.0,0.0,0.0,-0.013508835807442665,0.01464134268462658,0.008582696318626404,0.9999801516532898,-4.04082857130561e-05,0.006114461924880743,0.0015133460983633995
145.0,0.0,0.0,0.0,0.0,0.0,0.0,-0.00935580488294363,0.010760484263300896,0.006269155070185661,0.9999727606773376,0.0015037647681310773,0.007114980835467577,0.0012757530203089118
146.0,0.0,0.0,0.0,0.0,0.0,0.0,-0.005814444273710251,0.013024420477449894,0.0002464212302584201,0.9999591112136841,0.0031575497705489397,0.008447429165244102,0.0007153168553486466
147.0,0.0,0.0,0.0,0.0,0.0,0.0,-0.006318829022347927,0.01388422679156065,-0.008151831105351448,0.999943196773529,0.0045823403634130955,0.00956475269049406,0.0010448883986100554
148.0,0.0,0.0,0.0,0.0,0.0,0.0,-0.003815476316958666,0.014754757285118103,-0.012511445209383965,0.9999225735664368,0.0064422874711453915,0.01057103369385004,0.0012865058379247785
149.0,0.0,0.0,0.0,0.0,0.0,0.0,-0.005045510828495026,0.015076695010066032,-0.01099837850779295,0.9998968243598938,0.008268250152468681,0.01166323758661747,0.0013973456807434559
150.0,0.0,0.0,0.0,0.0,0.0,0.0,-0.002362117636948824,0.012975639663636684,-0.016601357609033585,0.9998722672462463,0.009770236909389496,0.012583908624947071,0.001309262472204864
151.0,0.0,0.0,0.0,0.0,0.0,0.0,0.0005138640990480781,0.015280845575034618,-0.01584530994296074,0.999846339225769,0.011324137449264526,0.013350600376725197,0.00092153629520908
152.0,0.0,0.0,0.0,0.0,0.0,0.0,0.005937463603913784,0.014545544050633907,-0.0075195119716227055,0.9998308420181274,0.012540927156805992,0.01337371300905943,0.0014604723546653986
153.0,0.0,0.0,0.0,0.0,0.0,0.0,-0.0006124477367848158,0.016886068508028984,-0.0067434851080179214,0.9998130798339844,0.013893716968595982,0.013299988582730293,0.001978314248844981
154.0,0.0,0.0,0.0,0.0,0.0,0.0,-0.0018657185137271881,0.016593018546700478,0.00014880314120091498,0.9998170733451843,0.014039996080100536,0.012746741995215416,0.0024935854598879814
155.0,0.0,0.0,0.0,0.0,0.0,0.0,0.005936741828918457,0.01190542709082365,0.0020248699001967907,0.999835193157196,0.013886908069252968,0.01134032104164362,0.002845622133463621
156.0,0.0,0.0,0.0,0.0,0.0,0.0,0.003548845648765564,0.012641429901123047,-0.0007873993599787354,0.9998397827148438,0.014525040052831173,0.010107947513461113,0.0026935331989079714
157.0,0.0,0.0,0.0,0.0,0.0,0.0,-0.003118180437013507,0.01737186685204506,0.014780809171497822,0.9998510479927063,0.01475930493324995,0.008696608245372772,0.002108617452904582
158.0,0.0,0.0,0.0,0.0,0.0,0.0,-0.01353165041655302,0.026364320889115334,0.033462043851614,0.9998584985733032,0.014778287149965763,0.007790429517626762,0.0019761414732784033
159.0,0.0,0.0,0.0,0.0,0.0,0.0,-0.01827371120452881,0.025426464155316353,0.03643277660012245,0.9998555779457092,0.015321043320000172,0.007321324665099382,0.0007187912124209106
160.0,0.0,0.0,0.0,0.0,0.0,0.0,-0.008501648902893066,0.022549714893102646,0.023327616974711418,0.9998380541801453,0.016369953751564026,0.007448846939951181,-0.0007107654819265008
161.0,0.0,0.0,0.0,0.0,0.0,0.0,-0.009332540445029736,0.02804042026400566,0.021102912724018097,0.9998046159744263,0.01794266328215599,0.008152115158736706,-0.00154966046102345
162.0,0.0,0.0,0.0,0.0,0.0,0.0,-0.008869088254868984,0.029667433351278305,0.038098935037851334,0.9997407793998718,0.020576955750584602,0.00941065140068531,-0.002540433080866933
163.0,0.0,0.0,0.0,0.0,0.0,0.0,-0.000714183144737035,0.02283599227666855,0.03541585057973862,0.9996646642684937,0.023162467405200005,0.01112225092947483,-0.0032190692145377398
164.0,0.0,0.0,0.0,0.0,0.0,0.0,0.023686321452260017,0.0019801068119704723,-0.0038861697539687157,0.9996170997619629,0.02446788176894188,0.012365452945232391,-0.0037610777653753757
165.0,0.0,0.0,0.0,0.0,0.0,0.0,0.029917702078819275,-0.006799229886382818,-0.002447426086291671,0.9996109008789062,0.024651847779750824,0.012674590572714806,-0.0031215858180075884
166.0,0.0,0.0,0.0,0.0,0.0,0.0,0.031775180250406265,-0.008060791529715061,0.0069736577570438385,0.9995996952056885,0.025190085172653198,0.012750022113323212,-0.00183994194958359
167.0,0.0,0.0,0.0,0.0,0.0,0.0,0.03914812207221985,-0.011189172975718975,0.0092608742415905,0.999593198299408,0.025452416390180588,0.01286543719470501,-0.00042214433779008687
168.0,0.0,0.0,0.0,0.0,0.0,0.0,0.0443640872836113,-0.011937352828681469,0.004168536979705095,0.9995845556259155,0.025744842365384102,0.012932704761624336,0.0008986674365587533
169.0,0.0,0.0,0.0,0.0,0.0,0.0,0.03689631074666977,-0.01641036570072174,0.012382341548800468,0.999558687210083,0.026469867676496506,0.013167976401746273,0.00290185259655118
170.0,0.0,0.0,0.0,0.0,0.0,0.0,0.030030548572540283,-0.018816161900758743,0.015494631603360176,0.9995390772819519,0.026681918650865555,0.01347719132900238,0.005302577279508114
171.0,0.0,0.0,0.0,0.0,0.0,0.0,0.030649105086922646,-0.01975298672914505,0.009770415723323822,0.999496340751648,0.02745986543595791,0.014407147653400898,0.0067507922649383545
172.0,0.0,0.0,0.0,0.0,0.0,0.0,0.028460877016186714,-0.02456759847700596,-0.003198961727321148,0.9994654655456543,0.027689149603247643,0.01546289399266243,0.007940130308270454
173.0,0.0,0.0,0.0,0.0,0.0,0.0,0.03192541375756264,-0.024404335767030716,-0.03368918225169182,0.9994426965713501,0.02752172201871872,0.01693894900381565,0.00836724229156971
174.0,0.0,0.0,0.0,0.0,0.0,0.0,0.024670366197824478,-0.018483182415366173,-0.03867832198739052,0.99937903881073,0.0286034494638443,0.0187380313873291,0.008499779738485813
175.0,0.0,0.0,0.0,0.0,0.0,0.0,0.017431560903787613,-0.015429563820362091,-0.03742798790335655,0.9992974996566772,0.0302134957164526,0.020152829587459564,0.009254954755306244
176.0,0.0,0.0,0.0,0.0,0.0,0.0,0.015608582645654678,-0.01382516324520111,-0.04907820373773575,0.9992673993110657,0.03067784011363983,0.020572561770677567,0.010019040666520596
177.0,0.0,0.0,0.0,0.0,0.0,0.0,0.013845837675035,-0.004257896449416876,-0.05040799081325531,0.9992772936820984,0.030555719509720802,0.020157765597105026,0.010246191173791885
178.0,0.0,0.0,0.0,0.0,0.0,0.0,0.01554452907294035,-0.0008222973556257784,-0.03690439462661743,0.9992648959159851,0.03130926936864853,0.019535275176167488,0.010385841131210327
179.0,0.0,0.0,0.0,0.0,0.0,0.0,0.013734780251979828,0.0014838954666629434,-0.026479588821530342,0.9992654323577881,0.0318886823952198,0.01822129637002945,0.010943930596113205
180.0,0.0,0.0,0.0,0.0,0.0,0.0,0.008438619785010815,0.00486655393615365,-0.021586494520306587,0.999259352684021,0.03257646784186363,0.01670440100133419,0.011854827404022217
181.0,0.0,0.0,0.0,0.0,0.0,0.0,0.0018355268985033035,0.0035007293336093426,-0.015589342452585697,0.9992935657501221,0.03206031024456024,0.015062980353832245,0.012553736567497253
182.0,0.0,0.0,0.0,0.0,0.0,0.0,-0.001540397759526968,0.006041062064468861,-0.010524422861635685,0.9993808269500732,0.030004248023033142,0.013352688401937485,0.012630242854356766
183.0,0.0,0.0,0.0,0.0,0.0,0.0,-0.01124254334717989,0.00434966990724206,-0.00987934973090887,0.999439001083374,0.028860539197921753,0.01231869775801897,0.0117063382640481
184.0,0.0,0.0,0.0,0.0,0.0,0.0,-0.0071457549929618835,0.005074516870081425,9.071540989680216e-05,0.9995213747024536,0.027093129232525826,0.01090156752616167,0.010214891284704208
185.0,0.0,0.0,0.0,0.0,0.0,0.0,-0.027993453666567802,0.003981767222285271,0.012396320700645447,0.9996039271354675,0.025054605677723885,0.010005095973610878,0.008014212362468243
186.0,0.0,0.0,0.0,0.0,0.0,0.0,-0.023005232214927673,0.0016596195055171847,0.0046583195216953754,0.999658465385437,0.023792115971446037,0.009625987149775028,0.004938886500895023
187.0,0.0,0.0,0.0,0.0,0.0,0.0,-0.01917284168303013,-0.003474507248029113,-0.0004885644884780049,0.9997050166130066,0.022309327498078346,0.009562097489833832,0.001094570616260171
188.0,0.0,0.0,0.0,0.0,0.0,0.0,-0.02265763469040394,-0.005549492780119181,-0.010431496426463127,0.9997286200523376,0.021149080246686935,0.009576736949384212,-0.0019832001999020576
189.0,0.0,0.0,0.0,0.0,0.0,0.0,-0.020055517554283142,-0.0068385000340640545,-0.02046862244606018,0.9997374415397644,0.020230038091540337,0.009791023097932339,-0.004488371778279543
190.0,0.0,0.0,0.0,0.0,0.0,0.0,-0.013541659340262413,-0.012855296023190022,-0.02168128825724125,0.9997652173042297,0.018386704847216606,0.009487161412835121,-0.006471020635217428
191.0,0.0,0.0,0.0,0.0,0.0,0.0,-0.010436451993882656,-0.015263805165886879,-0.025648508220911026,0.9997986555099487,0.016359811648726463,0.008445432409644127,-0.008005231618881226
192.0,0.0,0.0,0.0,0.0,0.0,0.0,-0.0037678673397749662,-0.01612141542136669,-0.020438551902770996,0.9998356699943542,0.014242822304368019,0.006578208412975073,-0.009109392762184143
193.0,0.0,0.0,0.0,0.0,0.0,0.0,-0.012839512899518013,-0.005149116273969412,0.005571610759943724,0.9998656511306763,0.011917154304683208,0.0044806101359426975,-0.010339891538023949
194.0,0.0,0.0,0.0,0.0,0.0,0.0,-0.016594642773270607,0.004987664055079222,0.019588129594922066,0.9998908638954163,0.009647874161601067,0.00196007639169693,-0.01104308757930994
195.0,0.0,0.0,0.0,0.0,0.0,0.0,-0.03414294868707657,0.020636653527617455,0.03348604217171669,0.9998884797096252,0.007967748679220676,-0.0007924363017082214,-0.012627053074538708
196.0,0.0,0.0,0.0,0.0,0.0,0.0,-0.05598926544189453,0.012388684786856174,0.03314721956849098,0.9998619556427002,0.006976129487156868,-0.0028485646471381187,-0.014823485165834427
197.0,0.0,0.0,0.0,0.0,0.0,0.0,-0.04108143225312233,-0.010148847475647926,-0.004650610499083996,0.9998165369033813,0.0051856618374586105,-0.004871784709393978,-0.017805926501750946
198.0,0.0,0.0,0.0,0.0,0.0,0.0,-0.03733323514461517,-0.005840837489813566,0.023911502212285995,0.9997718334197998,0.003791211172938347,-0.006306762807071209,-0.020071065053343773
199.0,0.0,0.0,0.0,0.0,0.0,0.0,-0.05664052069187164,0.00023541510745417327,0.0357871949672699,0.9997423887252808,0.003529819892719388,-0.006942806299775839,-0.02131507359445095
200.0,0.0,0.0,0.0,0.0,0.0,0.0,-0.0624299980700016,0.0030947946943342686,0.05478336662054062,0.9997010231018066,0.0032731660176068544,-0.0066434768959879875,-0.023317739367485046
201.0,0.0,0.0,0.0,0.0,0.0,0.0,-0.05090755596756935,-0.010756039060652256,0.02511466294527054,0.9996761083602905,0.0016828238731250167,-0.006554905790835619,-0.024545129388570786
202.0,0.0,0.0,0.0,0.0,0.0,0.0,0.007708931807428598,-0.02314114011824131,-0.015097450464963913,0.999657392501831,-0.00033861128031276166,-0.008107545785605907,-0.024905981495976448
203.0,0.0,0.0,0.0,0.0,0.0,0.0,0.006862596143037081,-0.018587622791528702,0.001146406284533441,0.9996166229248047,-0.0016166764544323087,-0.010744485072791576,-0.02548861689865589
204.0,0.0,0.0,0.0,0.0,0.0,0.0,-0.01618664525449276,-0.009427705779671669,0.008328139781951904,0.9995726346969604,-0.0028751783538609743,-0.013375133275985718,-0.025841698050498962
205.0,0.0,0.0,0.0,0.0,0.0,0.0,-0.029523611068725586,-0.008566025644540787,0.013238972052931786,0.9995103478431702,-0.0035836908500641584,-0.015020729973912239,-0.027232125401496887
206.0,0.0,0.0,0.0,0.0,0.0,0.0,-0.07181860506534576,-0.0026417220942676067,0.019895531237125397,0.9994280934333801,-0.003153466386720538,-0.014408707618713379,-0.030438827350735664
207.0,0.0,0.0,0.0,0.0,0.0,0.0,-0.03783643990755081,0.01187143288552761,0.033065810799598694,0.9993507862091064,-0.0017197051784023643,-0.013393462635576725,-0.03340405970811844
208.0,0.0,0.0,0.0,0.0,0.0,0.0,0.008845705538988113,0.01565229333937168,0.01633279025554657,0.9992690086364746,8.026714931474999e-05,-0.013534894213080406,-0.03575456887483597
209.0,0.0,0.0,0.0,0.0,0.0,0.0,0.01414221990853548,0.0049625057727098465,0.01775220036506653,0.9992146492004395,0.002655185293406248,-0.013289774768054485,-0.03724502772092819
210.0,0.0,0.0,0.0,0.0,0.0,0.0,0.07232605665922165,-0.0027095384430140257,0.0030913332011550665,0.9991780519485474,0.006365629844367504,-0.01342855580151081,-0.03772209212183952
211.0,0.0,0.0,0.0,0.0,0.0,0.0,0.0635596364736557,-0.007175551727414131,0.02735891193151474,0.9991844892501831,0.010962944477796555,-0.013367378152906895,-0.03649309277534485
212.0,0.0,0.0,0.0,0.0,0.0,0.0,-0.00031743827275931835,-0.016952743753790855,0.04255019873380661,0.9992231130599976,0.013452957384288311,-0.0113059151917696,-0.03528372570872307
213.0,0.0,0.0,0.0,0.0,0.0,0.0,0.025119032710790634,-0.018467657268047333,0.011986024677753448,0.9992481470108032,0.01460731215775013,-0.008860156871378422,-0.03480491787195206
214.0,0.0,0.0,0.0,0.0,0.0,0.0,0.04693222418427467,-0.020072780549526215,-0.0036171399988234043,0.9992755651473999,0.015099454671144485,-0.005616247188299894,-0.034479547291994095
215.0,0.0,0.0,0.0,0.0,0.0,0.0,0.03899611532688141,-0.014669794589281082,0.006949170026928186,0.999308168888092,0.01580631174147129,-0.0020394548773765564,-0.03361239284276962
216.0,0.0,0.0,0.0,0.0,0.0,0.0,0.034633323550224304,-0.011423594318330288,-0.011175981722772121,0.9993873834609985,0.014712253585457802,0.00035943923285230994,-0.0317591093480587
217.0,0.0,0.0,0.0,0.0,0.0,0.0,0.03823127597570419,0.0009032694506458938,-0.008944889530539513,0.9994969964027405,0.01338172797113657,0.0018626861274242401,-0.02869555354118347
218.0,0.0,0.0,0.0,0.0,0.0,0.0,0.031018279492855072,0.027155399322509766,0.015370630659162998,0.9996022582054138,0.012608790770173073,0.002087258966639638,-0.025147058069705963
219.0,0.0,0.0,0.0,0.0,0.0,0.0,0.05608374625444412,0.025086665526032448,0.03289814665913582,0.9996652007102966,0.011990011669695377,0.0012990963878110051,-0.022902388125658035
220.0,0.0,0.0,0.0,0.0,0.0,0.0,0.06481140106916428,-0.010018582455813885,-0.012566202320158482,0.999689519405365,0.010819261893630028,-0.0003251808520872146,-0.022447356954216957
221.0,0.0,0.0,0.0,0.0,0.0,0.0,0.013248438015580177,-0.007684321608394384,-0.06560896337032318,0.9996945858001709,0.00919144507497549,-0.0005938508547842503,-0.022939441725611687
222.0,0.0,0.0,0.0,0.0,0.0,0.0,-0.001996538834646344,0.004294313490390778,-0.03266125172376633,0.9997575283050537,0.0072857970371842384,-8.154906390700489e-05,-0.02078980579972267
223.0,0.0,0.0,0.0,0.0,0.0,0.0,-0.02680058218538761,0.02430064231157303,0.02500711940228939,0.9997987747192383,0.005856744945049286,5.466497168526985e-05,-0.0191947054117918
224.0,0.0,0.0,0.0,0.0,0.0,0.0,-0.010135535150766373,0.024364348500967026,0.03101416490972042,0.9997949004173279,0.004985414911061525,0.0004445596132427454,-0.019631126895546913
225.0,0.0,0.0,0.0,0.0,0.0,0.0,0.01762399449944496,-0.0010619651293382049,-0.019792506471276283,0.9997971653938293,0.0028040192555636168,-0.00042932014912366867,-0.019948719069361687
226.0,0.0,0.0,0.0,0.0,0.0,0.0,0.024125823751091957,-0.0011424017138779163,-0.03134705871343613,0.9998001456260681,0.0016692657954990864,-0.00221041776239872,-0.019808975979685783
227.0,0.0,0.0,0.0,0.0,0.0,0.0,-0.0037028032820671797,0.013899232260882854,-0.0012829536572098732,0.9997906684875488,0.0019152280874550343,-0.003740158164873719,-0.020035460591316223
228.0,0.0,0.0,0.0,0.0,0.0,0.0,-0.013593361712992191,0.016725141555070877,0.01658676378428936,0.9997826814651489,0.0018162872875109315,-0.0050642238929867744,-0.020150119438767433
229.0,0.0,0.0,0.0,0.0,0.0,0.0,-0.014703427441418171,0.014909498393535614,0.03094075620174408,0.9997683763504028,0.002613349352031946,-0.0052306754514575005,-0.020716410130262375
230.0,0.0,0.0,0.0,0.0,0.0,0.0,-0.013964567333459854,0.014352399855852127,0.020827939733862877,0.9997738003730774,0.002941870829090476,-0.004953486379235983,-0.02048255316913128
231.0,0.0,0.0,0.0,0.0,0.0,0.0,-0.008028124459087849,0.010695450007915497,-0.00568803958594799,0.9997889399528503,0.0029416324105113745,-0.004297976847738028,-0.019882123917341232
232.0,0.0,0.0,0.0,0.0,0.0,0.0,-0.014536305330693722,0.01613365113735199,-0.007011781446635723,0.9997934699058533,0.0036894334480166435,-0.003446435322985053,-0.019692668691277504
233.0,0.0,0.0,0.0,0.0,0.0,0.0,-0.011660458520054817,0.015521066263318062,-0.01810542494058609,0.9997804760932922,0.005139981862157583,-0.0026125439908355474,-0.02014785446226597
234.0,0.0,0.0,0.0,0.0,0.0,0.0,-0.01290712971240282,0.014333069324493408,-0.02495255507528782,0.9997647404670715,0.00678262347355485,-0.0020434423349797726,-0.020505007356405258
235.0,0.0,0.0,0.0,0.0,0.0,0.0,-0.01912941411137581,0.01625838503241539,-0.030654314905405045,0.9997466206550598,0.008252239786088467,-0.0010718796402215958,-0.0209158007055521
236.0,0.0,0.0,0.0,0.0,0.0,0.0,-0.017231902107596397,0.016676075756549835,-0.030262548476457596,0.9997268915176392,0.009759773500263691,0.00015241057553794235,-0.021241936832666397
237.0,0.0,0.0,0.0,0.0,0.0,0.0,-0.02427145279943943,0.01969670131802559,-0.03440070524811745,0.9997175335884094,0.011024005711078644,0.0013595902128145099,-0.021012606099247932
238.0,0.0,0.0,0.0,0.0,0.0,0.0,-0.02403675578534603,0.01920970343053341,-0.033238526433706284,0.9997009038925171,0.011885072104632854,0.0027832388877868652,-0.021195415407419205
239.0,0.0,0.0,0.0,0.0,0.0,0.0,-0.012298528105020523,0.008140086196362972,-0.035435255616903305,0.9996907711029053,0.01306882407516241,0.0034726103767752647,-0.020875753834843636
240.0,0.0,0.0,0.0,0.0,0.0,0.0,-0.011661350727081299,0.0019663984421640635,-0.03687761723995209,0.9996745586395264,0.014872347936034203,0.003733260091394186,-0.02039305306971073
241.0,0.0,0.0,0.0,0.0,0.0,0.0,-0.0107191801071167,0.013462268747389317,-0.015292740426957607,0.9996553659439087,0.016199849545955658,0.003701637964695692,-0.02032475918531418
242.0,0.0,0.0,0.0,0.0,0.0,0.0,-0.006422806065529585,0.0183265283703804,-0.00031769421184435487,0.9996340870857239,0.017293188720941544,0.0032558748498559,-0.020543580874800682
243.0,0.0,0.0,0.0,0.0,0.0,0.0,-0.009116891771554947,0.014242487959563732,-0.007079451810568571,0.9995526671409607,0.01987309195101261,0.002936507109552622,-0.022163167595863342
244.0,0.0,0.0,0.0,0.0,0.0,0.0,-0.0162202175706625,0.010682537220418453,-0.014363768510520458,0.9994558691978455,0.022435391321778297,0.002975190058350563,-0.024008849635720253
245.0,0.0,0.0,0.0,0.0,0.0,0.0,-0.010132744908332825,0.0006681766244582832,-0.017254652455449104,0.9993923902511597,0.024141063913702965,0.002686525695025921,-0.024995122104883194
246.0,0.0,0.0,0.0,0.0,0.0,0.0,-0.025660699233412743,-0.00017853392637334764,-0.012921535409986973,0.99932861328125,0.025555964559316635,0.002819933695718646,-0.02611323446035385
247.0,0.0,0.0,0.0,0.0,0.0,0.0,-0.02274741604924202,0.004761539865285158,0.008985658176243305,0.9993168115615845,0.025377558544278145,0.0026832057628780603,-0.02674432285130024
248.0,0.0,0.0,0.0,0.0,0.0,0.0,-0.012751513160765171,-0.0033982652239501476,-0.010683431290090084,0.9992852807044983,0.025550901889801025,0.002719866344705224,-0.027738019824028015
249.0,0.0,0.0,0.0,0.0,0.0,0.0,-0.011018740013241768,-0.009316732175648212,-0.0059873927384614944,0.9992212653160095,0.02642749436199665,0.0028955270536243916,-0.02916705794632435
250.0,0.0,0.0,0.0,0.0,0.0,0.0,-0.004283266142010689,-0.012643998488783836,0.005065879784524441,0.9992347955703735,0.02564818598330021,0.0019324528984725475,-0.02947504259645939
251.0,0.0,0.0,0.0,0.0,0.0,0.0,-0.016743646934628487,-0.010081646032631397,0.0013817568542435765,0.9992589354515076,0.02433030493557453,0.000603904074523598,-0.029831096529960632
252.0,0.0,0.0,0.0,0.0,0.0,0.0,-0.01149927917867899,-0.013270548544824123,0.02037796750664711,0.9992672801017761,0.023133495822548866,-0.0009965243516489863,-0.03048296645283699
253.0,0.0,0.0,0.0,0.0,0.0,0.0,0.00316977477632463,-0.011812006123363972,0.02465847134590149,0.9992703795433044,0.021564457565546036,-0.0029711334500461817,-0.03139570355415344
254.0,0.0,0.0,0.0,0.0,0.0,0.0,-0.0003111713449470699,-0.009822075255215168,0.01782214641571045,0.9992749094963074,0.019184473901987076,-0.005044208839535713,-0.03251177817583084
255.0,0.0,0.0,0.0,0.0,0.0,0.0,-0.03186623752117157,-0.0017354048322886229,0.027490440756082535,0.9992582201957703,0.01638244092464447,-0.006539713591337204,-0.034245267510414124
256.0,0.0,0.0,0.0,0.0,0.0,0.0,-0.04283460974693298,-0.0007753082900308073,0.040952280163764954,0.9992188215255737,0.014997364021837711,-0.0077590071596205235,-0.035737887024879456
257.0,0.0,0.0,0.0,0.0,0.0,0.0,-0.03615732863545418,0.0012605994706973433,0.04478764906525612,0.9991692304611206,0.013976553454995155,-0.008504392579197884,-0.03733443841338158
258.0,0.0,0.0,0.0,0.0,0.0,0.0,-0.006587608717381954,-0.00708390586078167,0.029950685799121857,0.9991248250007629,0.013284633867442608,-0.009174592792987823,-0.03859386965632439
259.0,0.0,0.0,0.0,0.0,0.0,0.0,0.007589046843349934,-0.010586733929812908,0.014615795575082302,0.999121367931366,0.012255805544555187,-0.009792221710085869,-0.038876596838235855
260.0,0.0,0.0,0.0,0.0,0.0,0.0,0.006906301714479923,-0.0064104897901415825,0.013275330886244774,0.9991447925567627,0.01102299802005291,-0.010029085911810398,-0.038577623665332794
261.0,0.0,0.0,0.0,0.0,0.0,0.0,0.0008973243529908359,-0.0013851122930645943,0.01065855473279953,0.9991572499275208,0.010511024855077267,-0.00986568070948124,-0.03844451531767845
262.0,0.0,0.0,0.0,0.0,0.0,0.0,0.01820041425526142,-0.007693937513977289,0.007932042703032494,0.99917072057724,0.010380920022726059,-0.00983980018645525,-0.038128018379211426
263.0,0.0,0.0,0.0,0.0,0.0,0.0,0.0010424104984849691,-0.006935920100659132,0.0022670708131045103,0.9992110133171082,0.009346379898488522,-0.009959743358194828,-0.03729479759931564
264.0,0.0,0.0,0.0,0.0,0.0,0.0,0.006115402095019817,-0.0072194975800812244,-0.003339580027386546,0.9992542862892151,0.008512218482792377,-0.009473643265664577,-0.03645755350589752
265.0,0.0,0.0,0.0,0.0,0.0,0.0,0.011837289668619633,-0.010923287831246853,-0.008873790502548218,0.9993047714233398,0.008306225761771202,-0.009249904192984104,-0.035158488899469376
266.0,0.0,0.0,0.0,0.0,0.0,0.0,0.0010856087319552898,-0.00438266946002841,-0.005403635557740927,0.9993796944618225,0.008749939501285553,-0.008631332777440548,-0.03301165625452995
267.0,0.0,0.0,0.0,0.0,0.0,0.0,-0.0036439800169318914,0.000943210965488106,0.017129473388195038,0.9994034767150879,0.010497670620679855,-0.007787854410707951,-0.031972095370292664
268.0,0.0,0.0,0.0,0.0,0.0,0.0,0.006537351291626692,-0.006235453765839338,-0.00758257694542408,0.9994233846664429,0.011002243496477604,-0.006779657211154699,-0.0314108245074749
269.0,0.0,0.0,0.0,0.0,0.0,0.0,0.018535833805799484,-0.007274608593434095,-0.016953134909272194,0.9994310736656189,0.01099652610719204,-0.006336092017591,-0.03125458583235741
270.0,0.0,0.0,0.0,0.0,0.0,0.0,0.01562582701444626,-0.007103088311851025,-0.009934245608747005,0.9994350671768188,0.010829768143594265,-0.006115035153925419,-0.031227141618728638
271.0,0.0,0.0,0.0,0.0,0.0,0.0,0.007168030831962824,-0.0024714432656764984,-0.014100917614996433,0.9994271993637085,0.011006293818354607,-0.005532168783247471,-0.031527794897556305
272.0,0.0,0.0,0.0,0.0,0.0,0.0,-0.0063072871416807175,0.001630872953683138,-0.0041552041657269,0.9993824362754822,0.01240044180303812,-0.004169718362390995,-0.03261237218976021
273.0,0.0,0.0,0.0,0.0,0.0,0.0,0.0031393615063279867,-0.0032380931079387665,-0.0071565983816981316,0.9993534684181213,0.013144629076123238,-0.0032980521209537983,-0.033301591873168945
274.0,0.0,0.0,0.0,0.0,0.0,0.0,0.011582912877202034,-0.002686115214601159,-0.0076227434910833836,0.9993737936019897,0.012978975661098957,-0.0031670911703258753,-0.03277437388896942
275.0,0.0,0.0,0.0,0.0,0.0,0.0,0.010149504989385605,-0.0020614811219274998,-0.008037387393414974,0.9994008541107178,0.01252183597534895,-0.003498925594612956,-0.03207795321941376
276.0,0.0,0.0,0.0,0.0,0.0,0.0,0.011912667192518711,-0.005213063210248947,-0.009770490229129791,0.9994228482246399,0.011911037378013134,-0.003897307673469186,-0.03158121183514595
277.0,0.0,0.0,0.0,0.0,0.0,0.0,0.008229977451264858,-0.004996188450604677,-0.008578522130846977,0.9994196891784668,0.011764848604798317,-0.004530597943812609,-0.03165370225906372
278.0,0.0,0.0,0.0,0.0,0.0,0.0,0.004296942614018917,-0.004088050220161676,0.0008009815937839448,0.9993860721588135,0.012456338852643967,-0.004974133800715208,-0.03237513452768326
279.0,0.0,0.0,0.0,0.0,0.0,0.0,0.006000931840389967,-0.0008481073891744018,0.014810116030275822,0.9993652701377869,0.013378201052546501,-0.005818651523441076,-0.032501671463251114
280.0,0.0,0.0,0.0,0.0,0.0,0.0,-0.0020664685871452093,0.00256051286123693,0.015314102172851562,0.9993565678596497,0.013806222938001156,-0.006165948696434498,-0.03252881392836571
281.0,0.0,0.0,0.0,0.0,0.0,0.0,-0.006801140028983355,-8.953412907430902e-05,0.009995942935347557,0.9992984533309937,0.01429157704114914,-0.006176399532705545,-0.03406769037246704
282.0,0.0,0.0,0.0,0.0,0.0,0.0,0.0005299081676639616,-0.0048886314034461975,0.00953584723174572,0.9992300868034363,0.015405097976326942,-0.005997546948492527,-0.0355842188000679
283.0,0.0,0.0,0.0,0.0,0.0,0.0,0.006271922029554844,-0.008320734836161137,-0.0015669483691453934,0.9992116093635559,0.01565474085509777,-0.005787007510662079,-0.036024995148181915
284.0,0.0,0.0,0.0,0.0,0.0,0.0,0.001982659799978137,-0.006797384470701218,-0.000938779441639781,0.9991983771324158,0.014960108324885368,-0.005673903040587902,-0.036703456193208694
285.0,0.0,0.0,0.0,0.0,0.0,0.0,0.006236264482140541,-0.006843886338174343,0.004166582599282265,0.9991747736930847,0.014590529724955559,-0.005269808229058981,-0.0375463142991066
286.0,0.0,0.0,0.0,0.0,0.0,0.0,0.00884083192795515,-0.009446600452065468,0.0017483095871284604,0.9991886615753174,0.013212225399911404,-0.005573275499045849,-0.03764115646481514
287.0,0.0,0.0,0.0,0.0,0.0,0.0,0.006121199578046799,-0.010097188875079155,0.001227236003614962,0.999207079410553,0.011367795057594776,-0.0061956304125487804,-0.037661295384168625
288.0,0.0,0.0,0.0,0.0,0.0,0.0,-0.0031741163693368435,-0.006800589617341757,0.009973941370844841,0.9991686344146729,0.010987287387251854,-0.007071439642459154,-0.03861943632364273
289.0,0.0,0.0,0.0,0.0,0.0,0.0,0.002538495697081089,-0.00914184469729662,-0.0026063870172947645,0.9991193413734436,0.009334067814052105,-0.008205306716263294,-0.04008234664797783
290.0,0.0,0.0,0.0,0.0,0.0,0.0,-0.005740182939916849,-0.0020199541468173265,-0.006379102822393179,0.9990501999855042,0.008351190946996212,-0.009135219268500805,-0.041781291365623474
291.0,0.0,0.0,0.0,0.0,0.0,0.0,-0.021429549902677536,0.0026233980897814035,0.012148150242865086,0.998943030834198,0.008889910764992237,-0.009182560257613659,-0.0441562756896019
292.0,0.0,0.0,0.0,0.0,0.0,0.0,-0.04288290813565254,0.020827174186706543,0.030154313892126083,0.9988566637039185,0.00909416750073433,-0.008399337530136108,-0.04618130996823311
293.0,0.0,0.0,0.0,0.0,0.0,0.0,-0.03763272240757942,0.025498423725366592,0.030175743624567986,0.9987504482269287,0.01050410233438015,-0.007877903059124947,-0.04822247475385666
294.0,0.0,0.0,0.0,0.0,0.0,0.0,-0.019960127770900726,0.010093671269714832,0.023946402594447136,0.9986194372177124,0.013814223930239677,-0.007124108262360096,-0.05017806589603424
295.0,0.0,0.0,0.0,0.0,0.0,0.0,0.006967144086956978,-0.014845347963273525,-0.0188601016998291,0.9985265135765076,0.01564963161945343,-0.006184882018715143,-0.051593635231256485
296.0,0.0,0.0,0.0,0.0,0.0,0.0,0.023543257266283035,-0.007574849762022495,-0.03654368221759796,0.9985232949256897,0.016275880858302116,-0.005854410585016012,-0.051499899476766586
297.0,0.0,0.0,0.0,0.0,0.0,0.0,-0.012968553230166435,0.016491089016199112,0.04291869327425957,0.9985709190368652,0.01727467030286789,-0.0042906529270112514,-0.05039183422923088
298.0,0.0,0.0,0.0,0.0,0.0,0.0,-0.015680938959121704,0.011107181198894978,0.03295297548174858,0.9985893368721008,0.01804410293698311,-0.0015230479184538126,-0.04991413280367851
299.0,0.0,0.0,0.0,0.0,0.0,0.0,0.007721263449639082,0.013274907134473324,0.014793596230447292,0.9986833333969116,0.017667874693870544,0.0007304460741579533,-0.048154350370168686
300.0,0.0,0.0,0.0,0.0,0.0,0.0,0.026413343846797943,0.004337307531386614,-0.004068822134286165,0.998737633228302,0.017655882984399796,0.0027817608788609505,-0.04694341868162155
301.0,0.0,0.0,0.0,0.0,0.0,0.0,0.041787050664424896,-0.0027726285625249147,-0.012557357549667358,0.9987966418266296,0.01765400730073452,0.00425832299515605,-0.04555992782115936
302.0,0.0,0.0,0.0,0.0,0.0,0.0,0.044159721583127975,0.005582959391176701,0.019021105021238327,0.9989291429519653,0.01696350798010826,0.004737934563308954,-0.04278329387307167
303.0,0.0,0.0,0.0,0.0,0.0,0.0,0.04059254750609398,0.007440831512212753,0.017189757898449898,0.9990310668945312,0.0171344093978405,0.005109286401420832,-0.040215685963630676
304.0,0.0,0.0,0.0,0.0,0.0,0.0,0.04836595430970192,0.004542125854641199,0.014188533648848534,0.9991058111190796,0.01717250794172287,0.005257739219814539,-0.03827845677733421
305.0,0.0,0.0,0.0,0.0,0.0,0.0,0.050023868680000305,0.007318816613405943,0.013190235942602158,0.99916672706604,0.01766834780573845,0.005862492136657238,-0.03632611036300659
306.0,0.0,0.0,0.0,0.0,0.0,0.0,0.04112999886274338,0.011260158382356167,0.005304036196321249,0.9991846084594727,0.01871863193809986,0.00682403426617384,-0.03511573746800423
307.0,0.0,0.0,0.0,0.0,0.0,0.0,0.03218727186322212,0.014041576534509659,0.017533617094159126,0.9991874098777771,0.019923405721783638,0.008168586529791355,-0.03407446667551994
308.0,0.0,0.0,0.0,0.0,0.0,0.0,0.027925338596105576,0.009294235147535801,0.0059458352625370026,0.9991447329521179,0.021663956344127655,0.010166476480662823,-0.03372002765536308
309.0,0.0,0.0,0.0,0.0,0.0,0.0,0.02982821688055992,0.008268183097243309,-0.011034811846911907,0.9991313815116882,0.023093532770872116,0.012076450511813164,-0.03251693770289421
310.0,0.0,0.0,0.0,0.0,0.0,0.0,0.031007498502731323,0.011856218799948692,-0.00933800358325243,0.9991732239723206,0.023902783170342445,0.013173351064324379,-0.03013438545167446
311.0,0.0,0.0,0.0,0.0,0.0,0.0,0.033364515751600266,0.008019810542464256,-0.017885111272335052,0.9992285370826721,0.02473737671971321,0.014007403515279293,-0.027100594714283943
312.0,0.0,0.0,0.0,0.0,0.0,0.0,0.026334065943956375,0.009522016160190105,-0.03006572835147381,0.999281108379364,0.0252503901720047,0.014297916553914547,-0.024402325972914696
313.0,0.0,0.0,0.0,0.0,0.0,0.0,0.028178513050079346,0.012853335589170456,-0.03567575290799141,0.9993124604225159,0.025803489610552788,0.014628077857196331,-0.022246208041906357
314.0,0.0,0.0,0.0,0.0,0.0,0.0,0.02039538137614727,0.019198564812541008,-0.031139228492975235,0.9993364214897156,0.02628745138645172,0.014981219545006752,-0.02027912065386772
315.0,0.0,0.0,0.0,0.0,0.0,0.0,0.0044641755521297455,0.022731231525540352,-0.022555362433195114,0.999349057674408,0.026769166812300682,0.0153542160987854,-0.01869032345712185
316.0,0.0,0.0,0.0,0.0,0.0,0.0,-0.005637930706143379,0.03120744600892067,-0.012932399287819862,0.9993212223052979,0.028017742559313774,0.015532350167632103,-0.018189484253525734
317.0,0.0,0.0,0.0,0.0,0.0,0.0,0.007555005606263876,0.018763229250907898,-0.030274372547864914,0.9992654919624329,0.02946835570037365,0.015982642769813538,-0.018568888306617737
318.0,0.0,0.0,0.0,0.0,0.0,0.0,0.005229058675467968,0.020190589129924774,-0.02436528354883194,0.9992566108703613,0.030076947063207626,0.01572451926767826,-0.018287884071469307
319.0,0.0,0.0,0.0,0.0,0.0,0.0,-0.0030604868661612272,0.025793010368943214,-0.0013714632950723171,0.9992440938949585,0.030713116750121117,0.015063446946442127,-0.01846999116241932
320.0,0.0,0.0,0.0,0.0,0.0,0.0,-0.0191065464168787,0.021148959174752235,-0.00406018877401948,0.9992402791976929,0.031142469495534897,0.014395554549992085,-0.018488891422748566
321.0,0.0,0.0,0.0,0.0,0.0,0.0,-0.015727847814559937,0.025297652930021286,0.0021729995496571064,0.9991708993911743,0.032022640109062195,0.01437848899513483,-0.02062290534377098
322.0,0.0,0.0,0.0,0.0,0.0,0.0,-0.0041007352992892265,0.02042541839182377,0.013747789897024632,0.9990741610527039,0.03380327671766281,0.014647754840552807,-0.02221730910241604
323.0,0.0,0.0,0.0,0.0,0.0,0.0,-0.004543649032711983,0.015161816030740738,-0.0026814842130988836,0.9990238547325134,0.03474270552396774,0.015133440494537354,-0.02270168997347355
324.0,0.0,0.0,0.0,0.0,0.0,0.0,-0.01330555509775877,0.017729459330439568,0.0019484709482640028,0.9989833235740662,0.03539177030324936,0.015658341348171234,-0.023121414706110954
325.0,0.0,0.0,0.0,0.0,0.0,0.0,-0.01768803782761097,0.017744773998856544,0.010344356298446655,0.9988991618156433,0.03661084547638893,0.017114130780100822,-0.023816518485546112
326.0,0.0,0.0,0.0,0.0,0.0,0.0,-0.0008647277718409896,0.008929113857448101,-0.02855668216943741,0.9988677501678467,0.03670302405953407,0.01822003722190857,-0.02417001686990261
327.0,0.0,0.0,0.0,0.0,0.0,0.0,-0.0008597023552283645,0.009754268452525139,-0.02003525011241436,0.9988442659378052,0.03697171434760094,0.01893637143075466,-0.02417859248816967
328.0,0.0,0.0,0.0,0.0,0.0,0.0,-0.006683243904262781,0.007130581419914961,-0.005476844031363726,0.9988179802894592,0.03726748377084732,0.019375454634428024,-0.024463236331939697
329.0,0.0,0.0,0.0,0.0,0.0,0.0,-0.008866076357662678,0.0077921138145029545,-0.018572529777884483,0.9987947940826416,0.03800790756940842,0.0194766316562891,-0.024188533425331116
330.0,0.0,0.0,0.0,0.0,0.0,0.0,-0.01148995291441679,0.011711252853274345,-0.01723262295126915,0.9987221360206604,0.039311863481998444,0.02006167732179165,-0.024623733013868332
331.0,0.0,0.0,0.0,0.0,0.0,0.0,-0.002472687978297472,0.012441558763384819,-0.005026580300182104,0.9986546635627747,0.040175024420022964,0.020302509889006615,-0.025746408849954605
332.0,0.0,0.0,0.0,0.0,0.0,0.0,0.0007472985307686031,0.004722813609987497,-0.005570726469159126,0.9986174702644348,0.040691837668418884,0.02003466710448265,-0.02656956948339939
333.0,0.0,0.0,0.0,0.0,0.0,0.0,-0.0014101810520514846,-0.0013578691286966205,-0.03221442922949791,0.9985900521278381,0.04118872433900833,0.020365972071886063,-0.026585053652524948
334.0,0.0,0.0,0.0,0.0,0.0,0.0,-0.0017299173632636666,0.004984353203326464,-0.007362869568169117,0.9986058473587036,0.041701335459947586,0.0201974306255579,-0.025288742035627365
335.0,0.0,0.0,0.0,0.0,0.0,0.0,0.0032577114179730415,-0.003763532964512706,0.01647908240556717,0.9986079931259155,0.042057301849126816,0.019332900643348694,-0.025289464741945267
336.0,0.0,0.0,0.0,0.0,0.0,0.0,0.010298013687133789,-0.016563549637794495,-0.015875259414315224,0.9985994100570679,0.041955459862947464,0.01860717125236988,-0.02631876803934574
337.0,0.0,0.0,0.0,0.0,0.0,0.0,0.04608562961220741,-0.018025757744908333,-0.0182906873524189,0.9987418055534363,0.03988127037882805,0.01640387438237667,-0.025602277368307114
338.0,0.0,0.0,0.0,0.0,0.0,0.0,0.028754334896802902,-0.009200848639011383,0.01326976902782917,0.9988964200019836,0.037524621933698654,0.013614467345178127,-0.024748705327510834
339.0,0.0,0.0,0.0,0.0,0.0,0.0,-0.017204953357577324,-0.0013971294974908233,0.04350854456424713,0.9989651441574097,0.03618525713682175,0.011785650625824928,-0.024906892329454422
340.0,0.0,0.0,0.0,0.0,0.0,0.0,-0.010534062050282955,-0.011132211424410343,-0.002809756901115179,0.9989761710166931,0.03507889434695244,0.010946179740130901,-0.026386423036456108
341.0,0.0,0.0,0.0,0.0,0.0,0.0,-0.0066467816941440105,-0.012519312091171741,0.002288603922352195,0.9989854097366333,0.034736402332782745,0.010753057897090912,-0.026568878442049026
342.0,0.0,0.0,0.0,0.0,0.0,0.0,-0.010599569417536259,-0.005550655536353588,0.03380710259079933,0.9990520477294922,0.03403299301862717,0.009859489277005196,-0.025291243568062782
343.0,0.0,0.0,0.0,0.0,0.0,0.0,-0.013469371944665909,0.0017588228220120072,0.005946747492998838,0.9990877509117126,0.03352227807044983,0.00949135422706604,-0.02470293454825878
344.0,0.0,0.0,0.0,0.0,0.0,0.0,-0.01727895811200142,-0.0028176645282655954,-0.0041220649145543575,0.9990639090538025,0.033543910831213,0.00996692106127739,-0.02543802745640278
345.0,0.0,0.0,0.0,0.0,0.0,0.0,0.021825460717082024,-0.019826378673315048,-0.02812676876783371,0.9990342259407043,0.0338815413415432,0.009778862819075584,-0.026211846619844437
346.0,0.0,0.0,0.0,0.0,0.0,0.0,0.02047516405582428,-0.011857922188937664,-0.0126874428242445,0.9990100860595703,0.03452733904123306,0.00945764034986496,-0.026405740529298782
347.0,0.0,0.0,0.0,0.0,0.0,0.0,-0.011309059336781502,-0.010712819173932076,-0.02307194657623768,0.9990426898002625,0.03455039858818054,0.00853106752038002,-0.02544378489255905
348.0,0.0,0.0,0.0,0.0,0.0,0.0,-0.0169901791960001,-0.005479701794683933,-0.0194022785872221,0.9990164637565613,0.03509031608700752,0.007794294506311417,-0.025964949280023575
349.0,0.0,0.0,0.0,0.0,0.0,0.0,-0.010446049273014069,-0.007371954154223204,-0.005283238831907511,0.99900221824646,0.034777671098709106,0.006916413549333811,-0.02715812437236309
350.0,0.0,0.0,0.0,0.0,0.0,0.0,-0.008414121344685555,-0.00901056732982397,-0.019635764881968498,0.9989839792251587,0.03459768742322922,0.005614083725959063,-0.028327027335762978
351.0,0.0,0.0,0.0,0.0,0.0,0.0,-0.012053996324539185,-0.009272442199289799,-0.028650997206568718,0.9989264011383057,0.03473059833049774,0.004057023208588362,-0.030394822359085083
352.0,0.0,0.0,0.0,0.0,0.0,0.0,-0.06451315432786942,0.007480125408619642,0.013421190902590752,0.9987381100654602,0.03702811896800995,0.003964000381529331,-0.03369910642504692
353.0,0.0,0.0,0.0,0.0,0.0,0.0,-0.0535145178437233,0.00526928436011076,0.026781940832734108,0.9985160827636719,0.04057373106479645,0.0039774649776518345,-0.03610796853899956
354.0,0.0,0.0,0.0,0.0,0.0,0.0,-0.02785918116569519,-0.006220695562660694,-0.010999376885592937,0.9983455538749695,0.043153315782547,0.003439252730458975,-0.037848420441150665
355.0,0.0,0.0,0.0,0.0,0.0,0.0,-0.016580428928136826,-0.010204387828707695,-0.004761174321174622,0.9982640147209167,0.04493051767349243,0.0028096255846321583,-0.03797657787799835
356.0,0.0,0.0,0.0,0.0,0.0,0.0,0.008782594464719296,-0.02503056824207306,-0.012959723360836506,0.9983259439468384,0.04462987929582596,0.0018584944773465395,-0.036749232560396194
357.0,0.0,0.0,0.0,0.0,0.0,0.0,0.010228077881038189,-0.01673699915409088,-0.011264026165008545,0.9984935522079468,0.04290928691625595,0.0011108561884611845,-0.03418753296136856
358.0,0.0,0.0,0.0,0.0,0.0,0.0,0.018340816721320152,-0.009500660002231598,0.013664836063981056,0.998654305934906,0.040845394134521484,0.0008560407441109419,-0.03195078670978546
359.0,0.0,0.0,0.0,0.0,0.0,0.0,0.029880402609705925,-0.013441024348139763,0.031729161739349365,0.9988728761672974,0.03709976375102997,-0.00016201450489461422,-0.02961464412510395
360.0,0.0,0.0,0.0,0.0,0.0,0.0,0.03757493570446968,-0.014103371649980545,0.030336637049913406,0.999151885509491,0.03193660452961922,-0.0020443846005946398,-0.02592179737985134
361.0,0.0,0.0,0.0,0.0,0.0,0.0,0.036936525255441666,-0.005853179842233658,0.02622072584927082,0.999395489692688,0.026709210127592087,-0.004031620919704437,-0.02189021371304989
362.0,0.0,0.0,0.0,0.0,0.0,0.0,0.022824808955192566,0.02433149330317974,0.08563539385795593,0.9995635151863098,0.022685129195451736,-0.005658811889588833,-0.018064813688397408
363.0,0.0,0.0,0.0,0.0,0.0,0.0,0.03336842358112335,0.017462963238358498,0.09983757883310318,0.9996945261955261,0.017842868342995644,-0.007772014942020178,-0.015242129564285278
364.0,0.0,0.0,0.0,0.0,0.0,0.0,0.033045221120119095,-0.015237463638186455,0.038321878761053085,0.9997838735580444,0.011941591277718544,-0.010049217380583286,-0.01376462634652853
365.0,0.0,0.0,0.0,0.0,0.0,0.0,0.018695401027798653,-0.020062139257788658,0.006008240859955549,0.9998248815536499,0.007276979740709066,-0.011742189526557922,-0.012642414309084415
366.0,0.0,0.0,0.0,0.0,0.0,0.0,0.0008154827519319952,-0.006035895086824894,0.021055681630969048,0.9998514652252197,0.004295674618333578,-0.012233931571245193,-0.011376598849892616
367.0,0.0,0.0,0.0,0.0,0.0,0.0,-0.014517530798912048,0.0036230573896318674,0.0462678000330925,0.9998728036880493,0.0011464275885373354,-0.01255481131374836,-0.00980360433459282
368.0,0.0,0.0,0.0,0.0,0.0,0.0,-0.01575658842921257,0.00045753008453175426,0.023763876408338547,0.9998725652694702,-0.002025892725214362,-0.013062219135463238,-0.00896673183888197
369.0,0.0,0.0,0.0,0.0,0.0,0.0,-0.006148180924355984,-0.003081008093431592,-0.008690454997122288,0.9998630285263062,-0.0045775133185088634,-0.013590030372142792,-0.008281249552965164
370.0,0.0,0.0,0.0,0.0,0.0,0.0,-0.022037958726286888,0.011734186671674252,0.010655148886144161,0.9998536109924316,-0.0057953763753175735,-0.013945022597908974,-0.008056744001805782
371.0,0.0,0.0,0.0,0.0,0.0,0.0,-0.030433718115091324,0.00619508558884263,0.00629032775759697,0.999844491481781,-0.006380958948284388,-0.013837188482284546,-0.008908041752874851
372.0,0.0,0.0,0.0,0.0,0.0,0.0,-0.03467759117484093,0.0025179581716656685,0.003311007749289274,0.9998324513435364,-0.0058396952226758,-0.01318687479943037,-0.011288749054074287
373.0,0.0,0.0,0.0,0.0,0.0,0.0,-0.048837609589099884,0.013758746907114983,0.003029564395546913,0.9998192191123962,-0.004423190373927355,-0.012034178711473942,-0.014049965888261795
374.0,0.0,0.0,0.0,0.0,0.0,0.0,-0.06956596672534943,0.013209037482738495,-0.0005689169629476964,0.9997843503952026,-0.002329273382201791,-0.010091282427310944,-0.01800384745001793
375.0,0.0,0.0,0.0,0.0,0.0,0.0,-0.06336430460214615,0.010023671202361584,-0.014907533302903175,0.999724268913269,0.00015389618056360632,-0.007267652079463005,-0.02233845181763172
376.0,0.0,0.0,0.0,0.0,0.0,0.0,-0.0599503219127655,0.01586342044174671,-0.02245076559484005,0.9996513724327087,0.0018175918376073241,-0.004179068841040134,-0.02601332776248455
377.0,0.0,0.0,0.0,0.0,0.0,0.0,-0.060545142740011215,0.014163919724524021,-0.035507380962371826,0.9995483756065369,0.003759991843253374,-8.209072984755039e-05,-0.029820363968610764
378.0,0.0,0.0,0.0,0.0,0.0,0.0,-0.0511450432240963,0.01103312149643898,-0.04763694852590561,0.9993776679039001,0.006818242371082306,0.0043755583465099335,-0.03433533012866974
379.0,0.0,0.0,0.0,0.0,0.0,0.0,-0.041108544915914536,0.009323053993284702,-0.05700487643480301,0.9991564750671387,0.010035593993961811,0.008719592355191708,-0.03885851800441742
380.0,0.0,0.0,0.0,0.0,0.0,0.0,-0.031432002782821655,0.007357634138315916,-0.04833637923002243,0.9989582300186157,0.012764109298586845,0.012066305615007877,-0.04212088882923126
381.0,0.0,0.0,0.0,0.0,0.0,0.0,-0.02764248289167881,0.005357942543923855,-0.05314338579773903,0.9987658262252808,0.014763978309929371,0.014736775308847427,-0.04507893696427345
382.0,0.0,0.0,0.0,0.0,0.0,0.0,-0.02855864353477955,0.007442775648087263,-0.06008480116724968,0.9985421299934387,0.017826315015554428,0.016329793259501457,-0.04826335236430168
383.0,0.0,0.0,0.0,0.0,0.0,0.0,-0.014555987901985645,0.001293822075240314,-0.0549435056746006,0.9983511567115784,0.020382435992360115,0.016725553199648857,-0.050994325429201126
384.0,0.0,0.0,0.0,0.0,0.0,0.0,-0.018079092726111412,0.0020870701409876347,-0.038151778280735016,0.9982663989067078,0.021379120647907257,0.015671005472540855,-0.052554208785295486
385.0,0.0,0.0,0.0,0.0,0.0,0.0,-0.03362732008099556,0.01736285164952278,-0.021465718746185303,0.9981038570404053,0.023371383547782898,0.014102818444371223,-0.05517158284783363
386.0,0.0,0.0,0.0,0.0,0.0,0.0,-0.030844395980238914,0.016755083575844765,-0.0029240220319479704,0.9978506565093994,0.026933802291750908,0.012260021641850471,-0.05846750736236572
387.0,0.0,0.0,0.0,0.0,0.0,0.0,-0.02097385749220848,0.005017745308578014,-0.007323854137212038,0.9976375102996826,0.030071010813117027,0.01015414483845234,-0.06093199551105499
388.0,0.0,0.0,0.0,0.0,0.0,0.0,-0.023425759747624397,-0.004205210134387016,-0.022333573549985886,0.9975129961967468,0.03227771446108818,0.00784371979534626,-0.06216947361826897
389.0,0.0,0.0,0.0,0.0,0.0,0.0,-0.016359465196728706,0.007256416603922844,0.007985778152942657,0.9973774552345276,0.035679999738931656,0.005995791871100664,-0.06268873065710068
390.0,0.0,0.0,0.0,0.0,0.0,0.0,-0.011828136630356312,0.003922939766198397,0.017875615507364273,0.9972525238990784,0.03976193442940712,0.004807775374501944,-0.06232139468193054
391.0,0.0,0.0,0.0,0.0,0.0,0.0,0.0009941733442246914,-0.00015209359116852283,0.0009248722344636917,0.9971820712089539,0.04206421226263046,0.003930175676941872,-0.06200128793716431
392.0,0.0,0.0,0.0,0.0,0.0,0.0,0.01111780758947134,-0.0017772548599168658,-0.0020574647933244705,0.9972323179244995,0.043245092034339905,0.003044692100957036,-0.060406580567359924
393.0,0.0,0.0,0.0,0.0,0.0,0.0,0.02128012478351593,-0.0037928877864032984,-0.0032252431847155094,0.9973777532577515,0.04358061030507088,0.0017779625486582518,-0.05775398015975952
394.0,0.0,0.0,0.0,0.0,0.0,0.0,0.03737906739115715,-0.009906365536153316,-0.01222277246415615,0.9975478053092957,0.04283994063735008,0.0004968996508978307,-0.05535604804754257
395.0,0.0,0.0,0.0,0.0,0.0,0.0,0.0466165617108345,-0.013499245047569275,0.004227740690112114,0.9977713823318481,0.0416356697678566,-0.0010038090404123068,-0.05214027687907219
396.0,0.0,0.0,0.0,0.0,0.0,0.0,0.05383838713169098,-0.018901944160461426,0.006308834999799728,0.9979801774024963,0.03966660425066948,-0.0022883687634021044,-0.049573443830013275
397.0,0.0,0.0,0.0,0.0,0.0,0.0,0.054429713636636734,-0.01599724590778351,0.02337482012808323,0.9982402920722961,0.03653387725353241,-0.0035052013117820024,-0.04656999558210373
398.0,0.0,0.0,0.0,0.0,0.0,0.0,0.03605126962065697,-0.003712767967954278,0.04862762987613678,0.9985198974609375,0.03333333879709244,-0.004121500067412853,-0.04279695451259613
399.0,0.0,0.0,0.0,0.0,0.0,0.0,0.02941954880952835,0.0010931706055998802,0.050719887018203735,0.998790979385376,0.02987203560769558,-0.0054930136539042,-0.03866582363843918
400.0,0.0,0.0,0.0,0.0,0.0,0.0,0.031662747263908386,0.011813109740614891,0.06802895665168762,0.9989938139915466,0.026670869439840317,-0.0057974462397396564,-0.035586804151535034
401.0,0.0,0.0,0.0,0.0,0.0,0.0,0.03288968652486801,-0.0012560964096337557,0.06302662938833237,0.9991455674171448,0.024286087602376938,-0.005871427245438099,-0.032930489629507065
402.0,0.0,0.0,0.0,0.0,0.0,0.0,0.03586515784263611,-0.01626455970108509,0.025686919689178467,0.9992296099662781,0.022221270948648453,-0.006039815954864025,-0.0317922942340374
403.0,0.0,0.0,0.0,0.0,0.0,0.0,0.030901731923222542,-0.013283826410770416,0.014701400883495808,0.9993032217025757,0.01977759785950184,-0.00638982467353344,-0.031007271260023117
404.0,0.0,0.0,0.0,0.0,0.0,0.0,0.011943462304770947,-0.008885053917765617,0.013275300152599812,0.9993623495101929,0.01804201491177082,-0.006672174669802189,-0.03008388727903366
405.0,0.0,0.0,0.0,0.0,0.0,0.0,-0.0030375279020518064,-0.00458921305835247,0.0066508459858596325,0.9993789196014404,0.017674479633569717,-0.006101349368691444,-0.029894711449742317
406.0,0.0,0.0,0.0,0.0,0.0,0.0,-0.0011430479353293777,3.6226338124834e-05,0.009735429659485817,0.9993639588356018,0.016987726092338562,-0.005427708849310875,-0.030892781913280487
407.0,0.0,0.0,0.0,0.0,0.0,0.0,0.003859748598188162,-0.008310709148645401,-0.004598781932145357,0.999369740486145,0.015453795902431011,-0.005253037437796593,-0.03154236450791359
408.0,0.0,0.0,0.0,0.0,0.0,0.0,0.007843568921089172,-0.0046042767353355885,-0.0062980251386761665,0.9993695616722107,0.0148274851962924,-0.005507624242454767,-0.03180299699306488
409.0,0.0,0.0,0.0,0.0,0.0,0.0,0.005545360501855612,-0.006848504301160574,-0.009876190684735775,0.9993677735328674,0.01383302640169859,-0.006221189629286528,-0.03216841444373131
410.0,0.0,0.0,0.0,0.0,0.0,0.0,0.003061428666114807,-0.009164868853986263,-0.011015352793037891,0.9993674159049988,0.012909987010061741,-0.006985251791775227,-0.03240816667675972
411.0,0.0,0.0,0.0,0.0,0.0,0.0,0.00860104151070118,-0.006693365052342415,-0.004424538463354111,0.9993252158164978,0.012897053733468056,-0.007949377410113811,-0.033476006239652634
412.0,0.0,0.0,0.0,0.0,0.0,0.0,-0.006093962583690882,-0.0036809323355555534,0.0051441313698887825,0.9992912411689758,0.0124353701248765,-0.008780071511864662,-0.034444041550159454
413.0,0.0,0.0,0.0,0.0,0.0,0.0,-0.007842485792934895,0.005278937518596649,0.013586059212684631,0.9992599487304688,0.01145105343312025,-0.009645475074648857,-0.03544561564922333
414.0,0.0,0.0,0.0,0.0,0.0,0.0,-0.002274193102493882,0.0020728898234665394,0.020150011405348778,0.9992380738258362,0.010628316551446915,-0.010506329126656055,-0.03605767711997032
415.0,0.0,0.0,0.0,0.0,0.0,0.0,-0.003747581969946623,-0.001585010439157486,0.006258807145059109,0.9992144107818604,0.00962608028203249,-0.011808705516159534,-0.03659525513648987
416.0,0.0,0.0,0.0,0.0,0.0,0.0,-0.012143137864768505,-6.924740591784939e-05,-0.010518521070480347,0.9991886615753174,0.009016375057399273,-0.013128365390002728,-0.036996256560087204
417.0,0.0,0.0,0.0,0.0,0.0,0.0,-0.005503011867403984,0.0012032495578750968,0.010110175237059593,0.9991750717163086,0.007671446073800325,-0.01488677691668272,-0.03700242564082146
418.0,0.0,0.0,0.0,0.0,0.0,0.0,-0.010687746107578278,0.006227642763406038,0.002238478511571884,0.9991440176963806,0.006634376011788845,-0.016547735780477524,-0.03734226152300835
419.0,0.0,0.0,0.0,0.0,0.0,0.0,-0.018055882304906845,0.008587331511080265,0.00714683486148715,0.9990621209144592,0.007219308987259865,-0.018221016973257065,-0.038619689643383026
420.0,0.0,0.0,0.0,0.0,0.0,0.0,-0.028217656537890434,0.012551644816994667,0.025378994643688202,0.9989829063415527,0.007994716055691242,-0.01918887346982956,-0.040024030953645706
421.0,0.0,0.0,0.0,0.0,0.0,0.0,-0.029991213232278824,0.00981692224740982,0.017880640923976898,0.9989029169082642,0.009277858771383762,-0.01957717537879944,-0.04152105003595352
422.0,0.0,0.0,0.0,0.0,0.0,0.0,-0.025181356817483902,0.005373790394514799,0.0024776351638138294,0.9988008737564087,0.01061396487057209,-0.01950346678495407,-0.04364178329706192
423.0,0.0,0.0,0.0,0.0,0.0,0.0,-0.020039917901158333,0.002380557358264923,0.004114195238798857,0.9987024068832397,0.01173102855682373,-0.018999826163053513,-0.04577431082725525
424.0,0.0,0.0,0.0,0.0,0.0,0.0,-0.019171124324202538,-0.001985600683838129,0.003237770404666662,0.9986592531204224,0.012905244715511799,-0.01809094473719597,-0.04676217585802078
425.0,0.0,0.0,0.0,0.0,0.0,0.0,-0.009685087017714977,-0.004052506294101477,-0.0012224387610331178,0.9986586570739746,0.012525912374258041,-0.017672279849648476,-0.04703136160969734
426.0,0.0,0.0,0.0,0.0,0.0,0.0,0.0006303591071628034,-0.006496949587017298,-0.0014421538216993213,0.998672366142273,0.011552215553820133,-0.01753474771976471,-0.04704616963863373
427.0,0.0,0.0,0.0,0.0,0.0,0.0,0.004152241162955761,-0.010680293664336205,0.005321670323610306,0.998694658279419,0.010504738427698612,-0.017727943137288094,-0.0467427633702755
428.0,0.0,0.0,0.0,0.0,0.0,0.0,0.005948483478277922,-0.007669369224458933,0.014418380334973335,0.9987217783927917,0.009602293372154236,-0.01799590140581131,-0.0462530218064785
429.0,0.0,0.0,0.0,0.0,0.0,0.0,0.00021695678879041225,-0.004363477695733309,0.020799845457077026,0.9987185001373291,0.010229340754449368,-0.017552854493260384,-0.046353425830602646
430.0,0.0,0.0,0.0,0.0,0.0,0.0,-0.005108235403895378,-0.001903327414765954,0.017780862748622894,0.9987059235572815,0.01088353618979454,-0.016917811706662178,-0.04671541973948479
431.0,0.0,0.0,0.0,0.0,0.0,0.0,-0.006709343288093805,-0.004871007986366749,0.006005791015923023,0.998725175857544,0.011458155699074268,-0.015638558194041252,-0.04661228507757187
432.0,0.0,0.0,0.0,0.0,0.0,0.0,-0.008920223452150822,-0.0016777899581938982,-0.0037218043580651283,0.9987466931343079,0.010792598128318787,-0.014339436776936054,-0.046724915504455566
433.0,0.0,0.0,0.0,0.0,0.0,0.0,-0.011633925139904022,0.0075368196703493595,-0.005375754553824663,0.9987925887107849,0.009910116903483868,-0.012927286326885223,-0.046354711055755615
434.0,0.0,0.0,0.0,0.0,0.0,0.0,-0.011205926537513733,0.009733336977660656,-0.006231588311493397,0.998794674873352,0.011026877909898758,-0.011240281164646149,-0.046494267880916595
435.0,0.0,0.0,0.0,0.0,0.0,0.0,-0.009309808723628521,0.01029565092176199,-0.00851563923060894,0.998797595500946,0.011425739154219627,-0.009850865229964256,-0.04664880409836769
436.0,0.0,0.0,0.0,0.0,0.0,0.0,-0.009930475614964962,0.01078104693442583,-0.009130681864917278,0.9988220930099487,0.01144451554864645,-0.00850611925125122,-0.046383485198020935
437.0,0.0,0.0,0.0,0.0,0.0,0.0,-0.001535371644422412,0.013550355099141598,-0.016944224014878273,0.99885493516922,0.011505486443638802,-0.007374100852757692,-0.045851193368434906
438.0,0.0,0.0,0.0,0.0,0.0,0.0,0.002170145744457841,0.018639259040355682,-0.016631217673420906,0.9988690614700317,0.012423437088727951,-0.006469992455095053,-0.04543829336762428
439.0,0.0,0.0,0.0,0.0,0.0,0.0,-0.0035785629879683256,0.014077487401664257,-0.0110237505286932,0.9988982081413269,0.01372005045413971,-0.005718113388866186,-0.04451538249850273
440.0,0.0,0.0,0.0,0.0,0.0,0.0,-0.0038978843949735165,0.016105731949210167,-0.014472011476755142,0.9989623427391052,0.014222921803593636,-0.004864645190536976,-0.042992498725652695
441.0,0.0,0.0,0.0,0.0,0.0,0.0,7.903933146735653e-05,0.02068755216896534,-0.009224283508956432,0.9990055561065674,0.015589484013617039,-0.004077083896845579,-0.04157467931509018
442.0,0.0,0.0,0.0,0.0,0.0,0.0,-0.001083639799617231,0.021771134808659554,-0.003973155282437801,0.9990535378456116,0.016420355066657066,-0.0038317760918289423,-0.040102750062942505
443.0,0.0,0.0,0.0,0.0,0.0,0.0,0.0034587527625262737,0.019619198516011238,-0.0064328513108193874,0.9991105794906616,0.016208428889513016,-0.0038241525180637836,-0.0387386716902256
444.0,0.0,0.0,0.0,0.0,0.0,0.0,0.006273539271205664,0.02006201073527336,-0.006857489235699177,0.9991660118103027,0.016145305708050728,-0.0035605919547379017,-0.037338320165872574
445.0,0.0,0.0,0.0,0.0,0.0,0.0,-0.0012773341732099652,0.023714285343885422,-0.0006714229239150882,0.9992165565490723,0.01629526913166046,-0.0033892616629600525,-0.035907939076423645
446.0,0.0,0.0,0.0,0.0,0.0,0.0,-0.0036555668339133263,0.022037602961063385,0.001976650208234787,0.9992594122886658,0.016923747956752777,-0.00335795059800148,-0.03439880535006523
447.0,0.0,0.0,0.0,0.0,0.0,0.0,-0.0015371323097497225,0.021846700459718704,-0.006135748233646154,0.9992849826812744,0.01729516126215458,-0.0035136083606630564,-0.03344060108065605
448.0,0.0,0.0,0.0,0.0,0.0,0.0,-0.002455873880535364,0.020528456196188927,-0.002238320652395487,0.9993024468421936,0.017554987221956253,-0.0034682038240134716,-0.032779496163129807
449.0,0.0,0.0,0.0,0.0,0.0,0.0,-0.007074493914842606,0.02102058008313179,0.005535858683288097,0.9992932081222534,0.018235517665743828,-0.0031454621348530054,-0.0327223464846611
450.0,0.0,0.0,0.0,0.0,0.0,0.0,-0.009520921856164932,0.020479368045926094,0.005147571209818125,0.999319851398468,0.018329523503780365,-0.0028986679390072823,-0.031865883618593216
451.0,0.0,0.0,0.0,0.0,0.0,0.0,-0.010876909829676151,0.021357527002692223,0.007258438039571047,0.9993513226509094,0.018713079392910004,-0.00254754233174026,-0.030665937811136246
452.0,0.0,0.0,0.0,0.0,0.0,0.0,-0.008743517100811005,0.021482126787304878,0.012395843863487244,0.9993441104888916,0.02036294713616371,-0.0020931297913193703,-0.029874656349420547
453.0,0.0,0.0,0.0,0.0,0.0,0.0,-0.004427188541740179,0.0206504687666893,0.00948189664632082,0.9993287324905396,0.02252071723341942,-0.001891773077659309,-0.02883540652692318
454.0,0.0,0.0,0.0,0.0,0.0,0.0,-0.007515307981520891,0.026026781648397446,0.01645304448902607,0.9993152618408203,0.024542512372136116,-0.002036063000559807,-0.027615712955594063
455.0,0.0,0.0,0.0,0.0,0.0,0.0,-0.004686838015913963,0.03495214134454727,0.014702964574098587,0.9992910623550415,0.02663729526102543,-0.0016502811340615153,-0.026557546108961105
456.0,0.0,0.0,0.0,0.0,0.0,0.0,0.007789348717778921,0.031028462573885918,0.005280158948153257,0.9991885423660278,0.030690981075167656,-0.001124640111811459,-0.02605791762471199
457.0,0.0,0.0,0.0,0.0,0.0,0.0,0.0142122283577919,0.026040159165859222,-0.0038928459398448467,0.9991086721420288,0.03435218334197998,-0.00015727012942079455,-0.02453366294503212
458.0,0.0,0.0,0.0,0.0,0.0,0.0,0.021223152056336403,0.021414583548903465,-0.03423290699720383,0.9991304874420166,0.03616492077708244,-0.0005101370043121278,-0.020738273859024048
459.0,0.0,0.0,0.0,0.0,0.0,0.0,0.03218544274568558,0.017853904515504837,-0.029574312269687653,0.9990468621253967,0.03929556533694267,0.0010831747204065323,-0.01897927187383175
460.0,0.0,0.0,0.0,0.0,0.0,0.0,0.0391918309032917,0.010713408701121807,-0.023726902902126312,0.9989798665046692,0.041904207319021225,0.002284228801727295,-0.01667950674891472
461.0,0.0,0.0,0.0,0.0,0.0,0.0,0.032531362026929855,-0.0016310643404722214,-0.037258561700582504,0.9989697933197021,0.042629823088645935,0.0034828840289264917,-0.015164205804467201
462.0,0.0,0.0,0.0,0.0,0.0,0.0,0.04381607845425606,-0.008299756795167923,-0.029298922047019005,0.9989526867866516,0.04328736662864685,0.004410177934914827,-0.014152878895401955
463.0,0.0,0.0,0.0,0.0,0.0,0.0,0.029644625261425972,-0.008717077784240246,-0.009161765687167645,0.9989434480667114,0.04368986934423447,0.005182977300137281,-0.013283539563417435
464.0,0.0,0.0,0.0,0.0,0.0,0.0,0.016426166519522667,-0.012093247845768929,-0.002434162423014641,0.9989928007125854,0.04267759621143341,0.005763148423284292,-0.012600043788552284
465.0,0.0,0.0,0.0,0.0,0.0,0.0,0.018871350213885307,-0.016144491732120514,-0.0030102580785751343,0.9990537762641907,0.041292402893304825,0.006164750549942255,-0.012192468158900738
466.0,0.0,0.0,0.0,0.0,0.0,0.0,0.018141737207770348,-0.01980535313487053,0.0004914290038868785,0.9990991950035095,0.040434133261442184,0.005865922197699547,-0.01147526316344738
467.0,0.0,0.0,0.0,0.0,0.0,0.0,0.015153661370277405,-0.019679313525557518,0.011994755826890469,0.9991737008094788,0.03904090076684952,0.00472673075273633,-0.01027266401797533
468.0,0.0,0.0,0.0,0.0,0.0,0.0,0.011756266467273235,-0.01699872314929962,0.02066025696694851,0.999245822429657,0.03715846687555313,0.0038498176727443933,-0.010599872097373009
469.0,0.0,0.0,0.0,0.0,0.0,0.0,0.008080770261585712,-0.011155703105032444,0.026505988091230392,0.9992765188217163,0.03597182035446167,0.003209472633898258,-0.01192589569836855
470.0,0.0,0.0,0.0,0.0,0.0,0.0,0.0002559856220614165,-0.018367568030953407,0.026119574904441833,0.9993208646774292,0.034552980214357376,0.002699695061892271,-0.01251452136784792
471.0,0.0,0.0,0.0,0.0,0.0,0.0,-0.006908139679580927,-0.01909707486629486,0.017827874049544334,0.9993751049041748,0.03262103348970413,0.0026858916971832514,-0.01334718894213438
472.0,0.0,0.0,0.0,0.0,0.0,0.0,-0.0046273875050246716,-0.017090266570448875,0.022316325455904007,0.9994391798973083,0.030438125133514404,0.002972950227558613,-0.013644620776176453
473.0,0.0,0.0,0.0,0.0,0.0,0.0,0.012466216459870338,-0.01770390011370182,0.010642523877322674,0.9995246529579163,0.027723820880055428,0.002771749859675765,-0.013199676759541035
474.0,0.0,0.0,0.0,0.0,0.0,0.0,-0.014063025824725628,-0.01443413831293583,-0.0037126075476408005,0.9995917081832886,0.02501540258526802,0.002730917651206255,-0.013535249046981335
475.0,0.0,0.0,0.0,0.0,0.0,0.0,-0.003961379639804363,-0.003225588472560048,0.005070498213171959,0.9996462464332581,0.02245444245636463,0.002391665242612362,-0.014053959399461746
476.0,0.0,0.0,0.0,0.0,0.0,0.0,2.851993303920608e-05,-0.0009360623080283403,0.012548881582915783,0.999668538570404,0.021018795669078827,0.0017699918244034052,-0.014764449559152126
477.0,0.0,0.0,0.0,0.0,0.0,0.0,-0.005019571632146835,0.001416507177054882,0.01748182810842991,0.9996688365936279,0.020563390105962753,0.0012215462047606707,-0.015425856225192547
478.0,0.0,0.0,0.0,0.0,0.0,0.0,-0.0043378546833992004,0.008914441801607609,0.03393144533038139,0.9996541738510132,0.02040540985763073,0.0005519605474546552,-0.016579825431108475
479.0,0.0,0.0,0.0,0.0,0.0,0.0,-0.008077166974544525,0.01456353347748518,0.028999844565987587,0.9996102452278137,0.02069169096648693,0.0005977427936159074,-0.018734242767095566
480.0,0.0,0.0,0.0,0.0,0.0,0.0,-0.0009809340117499232,0.007381032686680555,0.0016686224844306707,0.9995545744895935,0.021692857146263123,0.0009743730770424008,-0.020472116768360138
481.0,0.0,0.0,0.0,0.0,0.0,0.0,-0.006812750827521086,0.006400865502655506,0.015722647309303284,0.9994962811470032,0.022797636687755585,0.0018743701511994004,-0.021999167278409004
482.0,0.0,0.0,0.0,0.0,0.0,0.0,-0.008814196102321148,0.01108416635543108,0.0243430994451046,0.9994782209396362,0.022678744047880173,0.0025978481862694025,-0.0228525809943676
483.0,0.0,0.0,0.0,0.0,0.0,0.0,-0.0005467826849780977,0.01167505793273449,0.026676133275032043,0.9994609355926514,0.022749943658709526,0.004019403364509344,-0.023326406255364418
484.0,0.0,0.0,0.0,0.0,0.0,0.0,0.011824012733995914,0.004102467093616724,0.007209992501884699,0.9994048476219177,0.024041684344410896,0.006138775963336229,-0.023965371772646904
485.0,0.0,0.0,0.0,0.0,0.0,0.0,0.019042693078517914,0.009531425312161446,-0.002233396051451564,0.9993604421615601,0.025401564314961433,0.007955818437039852,-0.0238791536539793
486.0,0.0,0.0,0.0,0.0,0.0,0.0,0.019574815407395363,0.009886972606182098,0.007822783663868904,0.9993160963058472,0.027248021215200424,0.009371512569487095,-0.023175358772277832
487.0,0.0,0.0,0.0,0.0,0.0,0.0,0.017796257510781288,0.003305623773485422,-0.013225812464952469,0.9992002248764038,0.030253862962126732,0.011079109273850918,-0.023683132603764534
488.0,0.0,0.0,0.0,0.0,0.0,0.0,0.03359875828027725,-0.013754273764789104,-0.05720587074756622,0.9991384148597717,0.031588099896907806,0.012014158070087433,-0.02409111149609089
489.0,0.0,0.0,0.0,0.0,0.0,0.0,0.020322497934103012,-0.0028739250265061855,-0.04526817798614502,0.9991098046302795,0.03297426551580429,0.013036648742854595,-0.02285795472562313
490.0,0.0,0.0,0.0,0.0,0.0,0.0,-0.008117415942251682,0.01857607439160347,-0.0024820761755108833,0.9990015625953674,0.035448767244815826,0.015145107172429562,-0.022582728415727615
491.0,0.0,0.0,0.0,0.0,0.0,0.0,0.007538019213825464,0.012841980904340744,-0.023009659722447395,0.9988849759101868,0.03783855214715004,0.017344260588288307,-0.022278347983956337
492.0,0.0,0.0,0.0,0.0,0.0,0.0,0.0034350845962762833,0.010594517923891544,-0.03900609537959099,0.9987441897392273,0.0407356359064579,0.0194404199719429,-0.021745216101408005
493.0,0.0,0.0,0.0,0.0,0.0,0.0,0.012934425845742226,0.009482578374445438,-0.04329731687903404,0.9986823201179504,0.04251332953572273,0.020213762298226357,-0.02044021338224411
494.0,0.0,0.0,0.0,0.0,0.0,0.0,0.01637320965528488,0.010068953037261963,-0.049438729882240295,0.9986770153045654,0.043501175940036774,0.019848987460136414,-0.018920278176665306
495.0,0.0,0.0,0.0,0.0,0.0,0.0,0.003017093986272812,0.013274697586894035,-0.03956189006567001,0.998672604560852,0.044087283313274384,0.019505305215716362,-0.018136920407414436
496.0,0.0,0.0,0.0,0.0,0.0,0.0,-0.003944498486816883,0.016724539920687675,-0.02767941914498806,0.9986745715141296,0.044624969363212585,0.018915442749857903,-0.01732034981250763
497.0,0.0,0.0,0.0,0.0,0.0,0.0,-0.0071939704939723015,0.021634554490447044,-0.014639084227383137,0.9986639022827148,0.04562878981232643,0.018207546323537827,-0.016030926257371902
498.0,0.0,0.0,0.0,0.0,0.0,0.0,-0.003783709369599819,0.0187082439661026,-0.004574284423142672,0.998646080493927,0.04656665027141571,0.017603259533643723,-0.015090318396687508
499.0,0.0,0.0,0.0,0.0,0.0,0.0,-0.00484103336930275,0.01986069604754448,-0.006684179417788982,0.9986326098442078,0.04689262434840202,0.017587626352906227,-0.01499250065535307
500.0,0.0,0.0,0.0,0.0,0.0,0.0,-0.004662671592086554,0.012992088682949543,-0.0073561398312449455,0.9985893368721008,0.0478244423866272,0.017984699457883835,-0.01445000246167183
501.0,0.0,0.0,0.0,0.0,0.0,0.0,-0.00015763354895170778,0.006333371624350548,-0.0077084824442863464,0.9985908269882202,0.04835502430796623,0.01756448857486248,-0.013027464039623737
502.0,0.0,0.0,0.0,0.0,0.0,0.0,-0.002225104719400406,0.003700129920616746,-0.008538380265235901,0.9986656308174133,0.04752415418624878,0.016560375690460205,-0.011581797152757645
503.0,0.0,0.0,0.0,0.0,0.0,0.0,0.002566712675616145,-0.001554778777062893,-0.013669154606759548,0.9988091588020325,0.04519345238804817,0.015119355171918869,-0.01045178808271885
504.0,0.0,0.0,0.0,0.0,0.0,0.0,0.0060857320204377174,-0.00096468988340348,-0.018178151920437813,0.9989780783653259,0.042241837829351425,0.01331950444728136,-0.009002802893519402
505.0,0.0,0.0,0.0,0.0,0.0,0.0,-0.010643912479281425,0.009136972017586231,0.013619152829051018,0.9991291165351868,0.039211373776197433,0.011795931495726109,-0.008027502335608006
506.0,0.0,0.0,0.0,0.0,0.0,0.0,-0.02608088031411171,0.01581691950559616,0.025059806182980537,0.9992564916610718,0.03629076108336449,0.01064284984022379,-0.007503617089241743
507.0,0.0,0.0,0.0,0.0,0.0,0.0,-0.029240718111395836,0.013849420472979546,0.0238734669983387,0.999372124671936,0.033229634165763855,0.0096382861956954,-0.007630623877048492
508.0,0.0,0.0,0.0,0.0,0.0,0.0,-0.02112303301692009,0.005879872012883425,0.0012953660916537046,0.9994741082191467,0.03021995536983013,0.00841583777219057,-0.008208910934627056
509.0,0.0,0.0,0.0,0.0,0.0,0.0,-0.009792739525437355,0.010398266837000847,-0.005941512994468212,0.9995683431625366,0.027317209169268608,0.00676413020119071,-0.008443618193268776
510.0,0.0,0.0,0.0,0.0,0.0,0.0,-0.007298728451132774,0.014606287702918053,0.024949941784143448,0.9996286034584045,0.0254270751029253,0.005097009241580963,-0.008380687795579433
511.0,0.0,0.0,0.0,0.0,0.0,0.0,-0.02017027884721756,0.020329520106315613,0.0469464436173439,0.9996638298034668,0.024260571226477623,0.004077853634953499,-0.008188807405531406
512.0,0.0,0.0,0.0,0.0,0.0,0.0,-0.02293904684484005,0.02194657362997532,0.043430790305137634,0.9996747970581055,0.023524044081568718,0.0042702555656433105,-0.008871677331626415
513.0,0.0,0.0,0.0,0.0,0.0,0.0,-0.006418941076844931,0.007833348587155342,0.017183221876621246,0.9996675848960876,0.023596040904521942,0.004457877483218908,-0.009388696402311325
514.0,0.0,0.0,0.0,0.0,0.0,0.0,-0.009007466025650501,0.003608024213463068,-0.006340349558740854,0.9996457695960999,0.024111265316605568,0.005037428345531225,-0.010080519132316113
515.0,0.0,0.0,0.0,0.0,0.0,0.0,-0.008749804459512234,0.0028483117930591106,-0.006279165390878916,0.9996510148048401,0.023720718920230865,0.005326461512595415,-0.010336235165596008
516.0,0.0,0.0,0.0,0.0,0.0,0.0,-6.931704410817474e-05,-0.005150907207280397,-0.008976307697594166,0.9996621012687683,0.0232533048838377,0.00513846892863512,-0.010428925976157188
517.0,0.0,0.0,0.0,0.0,0.0,0.0,0.002378953853622079,-0.004441016353666782,-0.007146637886762619,0.9996724724769592,0.022656524553894997,0.004427647218108177,-0.011047217063605785
518.0,0.0,0.0,0.0,0.0,0.0,0.0,-0.009276953525841236,-0.0005386077682487667,-0.001549463253468275,0.9996907711029053,0.021433379501104355,0.003732056822627783,-0.012041979469358921
519.0,0.0,0.0,0.0,0.0,0.0,0.0,-0.007163030095398426,0.0009029510547406971,-0.004652657080441713,0.9997106194496155,0.020197337493300438,0.0029645361937582493,-0.012729743495583534
520.0,0.0,0.0,0.0,0.0,0.0,0.0,-0.0027363018598407507,-0.0035839409101754427,-0.007992379367351532,0.999722421169281,0.019064873456954956,0.0014992195647209883,-0.013766055926680565
521.0,0.0,0.0,0.0,0.0,0.0,0.0,-0.007088807411491871,-0.004291552118957043,-0.005402238108217716,0.9997051358222961,0.018631815910339355,0.00046305160503834486,-0.0155708696693182
522.0,0.0,0.0,0.0,0.0,0.0,0.0,-0.008700884878635406,-0.00027808750746771693,0.006820113863795996,0.999695360660553,0.018190165981650352,-0.0004964378895238042,-0.016677547246217728
523.0,0.0,0.0,0.0,0.0,0.0,0.0,-0.010711616836488247,0.0023846968542784452,0.008145705796778202,0.9996812343597412,0.018026534467935562,-0.0018426122842356563,-0.017583012580871582
524.0,0.0,0.0,0.0,0.0,0.0,0.0,-0.021860748529434204,0.008839957416057587,0.021464096382260323,0.9996529221534729,0.018355367705225945,-0.0023387905675917864,-0.018753299489617348
525.0,0.0,0.0,0.0,0.0,0.0,0.0,-0.007499489467591047,-0.001982324058189988,0.022329110652208328,0.999652087688446,0.018323121592402458,-0.0032172270584851503,-0.018700478598475456
526.0,0.0,0.0,0.0,0.0,0.0,0.0,0.009518792852759361,-0.015962624922394753,-0.009847762994468212,0.9996703863143921,0.017737628892064095,-0.004240177106112242,-0.01807442307472229
527.0,0.0,0.0,0.0,0.0,0.0,0.0,-0.006503397133201361,0.0011512215714901686,0.020219305530190468,0.9996955990791321,0.01725047081708908,-0.004577443934977055,-0.017033912241458893
528.0,0.0,0.0,0.0,0.0,0.0,0.0,-0.008482451550662518,-0.0011398026254028082,0.019676556810736656,0.9997336864471436,0.015911174938082695,-0.004451600834727287,-0.016112612560391426
529.0,0.0,0.0,0.0,0.0,0.0,0.0,-0.003907880745828152,-0.0009876935509964824,-0.01009285543113947,0.9997698068618774,0.014756312593817711,-0.0040984489023685455,-0.015029117465019226
530.0,0.0,0.0,0.0,0.0,0.0,0.0,-0.018581457436084747,0.014820345677435398,0.023452134802937508,0.9998039603233337,0.013809970580041409,-0.0035160749685019255,-0.013748272322118282
531.0,0.0,0.0,0.0,0.0,0.0,0.0,-0.00464285584166646,0.0026944552082568407,-0.0012259631184861064,0.9998177886009216,0.013856637291610241,-0.002963606733828783,-0.012795589864253998
532.0,0.0,0.0,0.0,0.0,0.0,0.0,0.0021864280570298433,-0.004999239929020405,-0.023639818653464317,0.9998072385787964,0.014685247093439102,-0.00223678071051836,-0.01283961534500122
533.0,0.0,0.0,0.0,0.0,0.0,0.0,-0.001712958444841206,-0.0023950664326548576,-0.010043610818684101,0.9998070597648621,0.014711516909301281,-0.0019165001576766372,-0.012879672460258007
534.0,0.0,0.0,0.0,0.0,0.0,0.0,-0.001974659040570259,-0.00761100510135293,-0.009639644995331764,0.9998014569282532,0.015213011763989925,-0.001921983202919364,-0.012728017754852772
535.0,0.0,0.0,0.0,0.0,0.0,0.0,-0.008213124237954617,-0.005147493444383144,-0.007154429797083139,0.9998053908348083,0.015139888040721416,-0.001951182959601283,-0.01250640582293272
536.0,0.0,0.0,0.0,0.0,0.0,0.0,-0.008597559295594692,-0.0015123652992770076,-0.007786378730088472,0.9998210668563843,0.014191249385476112,-0.002143968129530549,-0.012331018224358559
537.0,0.0,0.0,0.0,0.0,0.0,0.0,-0.014872048050165176,-0.002168684732168913,-0.0005454121856018901,0.9998244047164917,0.013890000991523266,-0.002133958740159869,-0.012401659041643143
538.0,0.0,0.0,0.0,0.0,0.0,0.0,-0.014805114828050137,-0.0024789448361843824,-0.004200932569801807,0.9998359084129333,0.01341333519667387,-0.0022714410442858934,-0.011964060366153717
539.0,0.0,0.0,0.0,0.0,0.0,0.0,-0.008862667717039585,-0.004267311189323664,-0.013875836506485939,0.999855637550354,0.012326808646321297,-0.0029699034057557583,-0.011313245631754398
540.0,0.0,0.0,0.0,0.0,0.0,0.0,-0.014442941173911095,0.0005495994701050222,-0.0029562022536993027,0.9998733401298523,0.011056184768676758,-0.003648401703685522,-0.010853122919797897
541.0,0.0,0.0,0.0,0.0,0.0,0.0,-0.015066300518810749,0.004848310723900795,0.0018109577940776944,0.9998916387557983,0.00950029119849205,-0.004454211797565222,-0.01033176388591528
542.0,0.0,0.0,0.0,0.0,0.0,0.0,-0.016892779618501663,0.005387569312006235,-0.005594829563051462,0.9998958706855774,0.008975652977824211,-0.005124562885612249,-0.01008387841284275
543.0,0.0,0.0,0.0,0.0,0.0,0.0,-0.024190224707126617,0.015094511210918427,0.015290028415620327,0.9998849630355835,0.008976446464657784,-0.006052888464182615,-0.010631189681589603
544.0,0.0,0.0,0.0,0.0,0.0,0.0,-0.021061796694993973,0.012380743399262428,0.02399148792028427,0.9998564124107361,0.009716051630675793,-0.007283846847712994,-0.011820386163890362
545.0,0.0,0.0,0.0,0.0,0.0,0.0,-0.010830642655491829,0.0027436395175755024,0.009990755468606949,0.9998120665550232,0.011252671480178833,-0.00792069360613823,-0.01366238109767437
546.0,0.0,0.0,0.0,0.0,0.0,0.0,-0.0031972306314855814,-0.006207023747265339,0.015023553743958473,0.999749481678009,0.012894484214484692,-0.008311904966831207,-0.01630004122853279
547.0,0.0,0.0,0.0,0.0,0.0,0.0,-0.009345129132270813,-0.000514730520080775,0.0337555892765522,0.9996981620788574,0.014684939756989479,-0.008363764733076096,-0.017835380509495735
548.0,0.0,0.0,0.0,0.0,0.0,0.0,-0.014694798737764359,-0.0010498460615053773,0.03463118523359299,0.9996891617774963,0.016064435243606567,-0.0071909669786691666,-0.017660627141594887
549.0,0.0,0.0,0.0,0.0,0.0,0.0,-0.007840891368687153,-0.005842148791998625,0.01260537188500166,0.9996750950813293,0.017509223893284798,-0.0048574963584542274,-0.017879819497466087
550.0,0.0,0.0,0.0,0.0,0.0,0.0,0.00798514299094677,-0.01113542914390564,-0.0009243130916729569,0.9996528625488281,0.019066831097006798,-0.0023718890734016895,-0.018029076978564262
551.0,0.0,0.0,0.0,0.0,0.0,0.0,0.003000281285494566,-0.010751137509942055,-0.012497483752667904,0.9996365308761597,0.019892260432243347,0.000228029559366405,-0.018199777230620384
552.0,0.0,0.0,0.0,0.0,0.0,0.0,0.022143660113215446,-0.016988489776849747,-0.027907719835639,0.9996265769004822,0.020590348169207573,0.0017840445507317781,-0.017880115658044815
553.0,0.0,0.0,0.0,0.0,0.0,0.0,0.01668400689959526,-0.012276503257453442,-0.02184453047811985,0.9996392726898193,0.020651696249842644,0.0030641271732747555,-0.016904626041650772
554.0,0.0,0.0,0.0,0.0,0.0,0.0,0.020049365237355232,-0.012621906585991383,-0.016919316723942757,0.9996525049209595,0.020623283460736275,0.003765345085412264,-0.01597961038351059
555.0,0.0,0.0,0.0,0.0,0.0,0.0,0.02010783553123474,-0.011738738045096397,-0.014800908975303173,0.9996695518493652,0.019987566396594048,0.0036308520939201117,-0.01575019769370556
556.0,0.0,0.0,0.0,0.0,0.0,0.0,0.015014706179499626,-0.009066503494977951,-0.010036103427410126,0.9996706247329712,0.01962938718497753,0.003573003225028515,-0.01614086888730526
557.0,0.0,0.0,0.0,0.0,0.0,0.0,0.011380956508219242,-0.0025690291076898575,0.006117694545537233,0.9996915459632874,0.018420958891510963,0.0033729958813637495,-0.016314322128891945
558.0,0.0,0.0,0.0,0.0,0.0,0.0,0.010046186856925488,-0.0009640489588491619,0.016244864091277122,0.9997292160987854,0.01692051813006401,0.0029082470573484898,-0.0157111007720232
559.0,0.0,0.0,0.0,0.0,0.0,0.0,0.009409742429852486,-0.00412872526794672,0.022474907338619232,0.9997202157974243,0.01684674434363842,0.0028738395776599646,-0.01635846681892872
560.0,0.0,0.0,0.0,0.0,0.0,0.0,0.012403096072375774,-0.01401693094521761,0.010826479643583298,0.9997227787971497,0.01630639284849167,0.002462877659127116,-0.01680656708776951
561.0,0.0,0.0,0.0,0.0,0.0,0.0,0.013498106971383095,-0.012391475960612297,-0.0018680826760828495,0.9997435808181763,0.015223202295601368,0.0016699389088898897,-0.01669386401772499
562.0,0.0,0.0,0.0,0.0,0.0,0.0,0.013880670070648193,-0.005961610935628414,0.012479268945753574,0.9997685551643372,0.013807256706058979,0.00031557571492157876,-0.01650581695139408
563.0,0.0,0.0,0.0,0.0,0.0,0.0,0.010720811784267426,-0.0024958308786153793,0.027335399761795998,0.9997532367706299,0.013690266758203506,-8.500007970724255e-05,-0.01750262640416622
564.0,0.0,0.0,0.0,0.0,0.0,0.0,0.02031862735748291,-0.005732937250286341,0.028250735253095627,0.9997137784957886,0.015458561480045319,0.0011692555854097009,-0.01822417415678501
565.0,0.0,0.0,0.0,0.0,0.0,0.0,0.01653296686708927,-0.012584341689944267,0.0324242003262043,0.9996702075004578,0.01789822429418564,0.0030316682532429695,-0.0181675236672163
566.0,0.0,0.0,0.0,0.0,0.0,0.0,0.02050749585032463,-0.009876035153865814,0.038133904337882996,0.9996132850646973,0.02051161229610443,0.005337171256542206,-0.01801358163356781
567.0,0.0,0.0,0.0,0.0,0.0,0.0,0.0426509864628315,-0.02566724643111229,-0.0005061812698841095,0.9995703101158142,0.022643273696303368,0.007337870541960001,-0.017102763056755066
568.0,0.0,0.0,0.0,0.0,0.0,0.0,0.0821480005979538,-0.05248524621129036,-0.07174050807952881,0.999557375907898,0.024217691272497177,0.00821833685040474,-0.015208905562758446
569.0,0.0,0.0,0.0,0.0,0.0,0.0,0.07550941407680511,-0.043358273804187775,-0.04269490763545036,0.9995976686477661,0.024372540414333344,0.0077237351797521114,-0.012289289385080338
570.0,0.0,0.0,0.0,0.0,0.0,0.0,0.053654152899980545,-0.033738963305950165,-0.02592015080153942,0.999663233757019,0.023154031485319138,0.006602680776268244,-0.009688761085271835
571.0,0.0,0.0,0.0,0.0,0.0,0.0,0.04516752064228058,-0.03547230735421181,-0.06288020312786102,0.9997151494026184,0.02195141837000847,0.005382617935538292,-0.0076787956058979034
572.0,0.0,0.0,0.0,0.0,0.0,0.0,0.0386987179517746,-0.03709719330072403,-0.04850909858942032,0.9997721314430237,0.0200079046189785,0.0033197086304426193,-0.006690158508718014
573.0,0.0,0.0,0.0,0.0,0.0,0.0,0.02184070274233818,-0.03440721705555916,-0.03271090239286423,0.9998148679733276,0.018103566020727158,0.0010706157190725207,-0.006459137890487909
574.0,0.0,0.0,0.0,0.0,0.0,0.0,-0.002191802952438593,-0.023939969018101692,-0.021097173914313316,0.9998600482940674,0.015551913529634476,-0.0014120603445917368,-0.006025065202265978
575.0,0.0,0.0,0.0,0.0,0.0,0.0,-0.027789417654275894,-0.006882345303893089,0.0015237410552799702,0.9999006986618042,0.012276397086679935,-0.004023372661322355,-0.005640136078000069
576.0,0.0,0.0,0.0,0.0,0.0,0.0,-0.032172899693250656,-0.005541699938476086,0.016411172226071358,0.9999197721481323,0.008913073688745499,-0.0065530468709766865,-0.006191362161189318
577.0,0.0,0.0,0.0,0.0,0.0,0.0,-0.03389468044042587,-0.00590404262766242,0.017303384840488434,0.9999133348464966,0.006230218801647425,-0.008864359930157661,-0.007514027878642082
578.0,0.0,0.0,0.0,0.0,0.0,0.0,-0.044076547026634216,-0.00359182246029377,0.022844979539513588,0.9998813271522522,0.004044271539896727,-0.010952981188893318,-0.010061637498438358
579.0,0.0,0.0,0.0,0.0,0.0,0.0,-0.051282480359077454,0.006290466524660587,0.01925499178469181,0.9998434782028198,0.0011462541297078133,-0.012782156467437744,-0.012199041433632374
580.0,0.0,0.0,0.0,0.0,0.0,0.0,-0.06302998214960098,0.014539521187543869,0.03670404851436615,0.9997896552085876,-0.0007668185862712562,-0.01452139113098383,-0.01446487382054329
581.0,0.0,0.0,0.0,0.0,0.0,0.0,-0.06527140736579895,0.01601872406899929,0.04117216169834137,0.9997139573097229,-0.0015803533606231213,-0.015628157183527946,-0.018047701567411423
582.0,0.0,0.0,0.0,0.0,0.0,0.0,-0.06090062856674194,0.019989727064967155,0.038344867527484894,0.9996252655982971,-0.001533367671072483,-0.0162584837526083,-0.021980511024594307
583.0,0.0,0.0,0.0,0.0,0.0,0.0,-0.05699188634753227,0.019244039431214333,0.035559963434934616,0.9995416402816772,-0.0015392487403005362,-0.016970373690128326,-0.025030741468071938
584.0,0.0,0.0,0.0,0.0,0.0,0.0,-0.05732867121696472,0.022415319457650185,0.024323754012584686,0.9994669556617737,-0.0019777955021709204,-0.017408624291419983,-0.027556288987398148
585.0,0.0,0.0,0.0,0.0,0.0,0.0,-0.054366398602724075,0.02447325550019741,0.007747001945972443,0.9993995428085327,-0.001749912858940661,-0.017272982746362686,-0.0299854576587677
586.0,0.0,0.0,0.0,0.0,0.0,0.0,-0.04180331155657768,0.02611614763736725,0.0066925352439284325,0.9993245601654053,7.697677938267589e-05,-0.01673920638859272,-0.03271951526403427
587.0,0.0,0.0,0.0,0.0,0.0,0.0,-0.03746003285050392,0.023895539343357086,0.007491571828722954,0.999254584312439,0.0029688961803913116,-0.015567649155855179,-0.035203468054533005
588.0,0.0,0.0,0.0,0.0,0.0,0.0,-0.03432619944214821,0.0248440969735384,0.003257896052673459,0.9992156028747559,0.004726429935544729,-0.013942629098892212,-0.036763936281204224
589.0,0.0,0.0,0.0,0.0,0.0,0.0,-0.02694558911025524,0.02312430739402771,-0.002110527129843831,0.999194324016571,0.006400868762284517,-0.012380236759781837,-0.037640251219272614
590.0,0.0,0.0,0.0,0.0,0.0,0.0,-0.01574978046119213,0.0173236895352602,-0.00981885101646185,0.9991708397865295,0.009154816158115864,-0.010739656165242195,-0.03819173946976662
591.0,0.0,0.0,0.0,0.0,0.0,0.0,-0.0039863064885139465,0.010882101953029633,-0.0076943663880229,0.9991597533226013,0.01077454537153244,-0.009465950541198254,-0.03839762136340141
592.0,0.0,0.0,0.0,0.0,0.0,0.0,0.0044469162821769714,0.010033420287072659,-0.017962198704481125,0.9991865158081055,0.011636941693723202,-0.008744473569095135,-0.037611108273267746
593.0,0.0,0.0,0.0,0.0,0.0,0.0,-0.009097449481487274,0.012110035866498947,-0.017527589574456215,0.999139666557312,0.015235754661262035,-0.005861212033778429,-0.03812645375728607
594.0,0.0,0.0,0.0,0.0,0.0,0.0,0.008392931893467903,0.004744914826005697,-0.010316739790141582,0.9990740418434143,0.017197653651237488,-0.004452518653124571,-0.039186909794807434
595.0,0.0,0.0,0.0,0.0,0.0,0.0,0.008330294862389565,0.0033189645037055016,-0.005744035821408033,0.9990361332893372,0.018270103260874748,-0.0035299763549119234,-0.03975731506943703
596.0,0.0,0.0,0.0,0.0,0.0,0.0,0.0072815376333892345,0.005456619430333376,-0.004438171163201332,0.9990283846855164,0.018612928688526154,-0.0029211051296442747,-0.03984261676669121
597.0,0.0,0.0,0.0,0.0,0.0,0.0,0.01442513894289732,0.0018243099329993129,-0.014313800260424614,0.9990407228469849,0.018786616623401642,-0.002485811710357666,-0.039480604231357574
598.0,0.0,0.0,0.0,0.0,0.0,0.0,0.01735702157020569,-0.003453549463301897,-0.01533852145075798,0.9990284442901611,0.01902937889099121,-0.002300482941791415,-0.03968583047389984
599.0,0.0,0.0,0.0,0.0,0.0,0.0,0.02043163776397705,0.0001478377525927499,0.0034996147733181715,0.9990160465240479,0.01923351176083088,-0.002627954352647066,-0.03987755998969078
600.0,0.0,0.0,0.0,0.0,0.0,0.0,0.014586548320949078,0.0025707711465656757,0.008714633993804455,0.9989966154098511,0.019392115995287895,-0.003281105775386095,-0.0402393564581871
601.0,0.0,0.0,0.0,0.0,0.0,0.0,0.014892526902258396,0.0033772732131183147,0.0049313390627503395,0.9989749789237976,0.02022959105670452,-0.003826574422419071,-0.04031587019562721
602.0,0.0,0.0,0.0,0.0,0.0,0.0,0.013439337722957134,0.0020357409957796335,0.009863120503723621,0.9989156723022461,0.02116183377802372,-0.003793161129578948,-0.04129398986697197
603.0,0.0,0.0,0.0,0.0,0.0,0.0,0.014829802326858044,0.002229133388027549,0.01876070536673069,0.9988484978675842,0.02213568240404129,-0.003404010320082307,-0.042428117245435715
604.0,0.0,0.0,0.0,0.0,0.0,0.0,0.018440645188093185,0.0015334389172494411,0.027417225763201714,0.9988608956336975,0.02274426631629467,-0.003005189122632146,-0.04184610769152641
605.0,0.0,0.0,0.0,0.0,0.0,0.0,0.016391834244132042,0.0042668660171329975,0.017777610570192337,0.9989303946495056,0.022904623299837112,-0.0029551293700933456,-0.04006367176771164
606.0,0.0,0.0,0.0,0.0,0.0,0.0,0.029237430542707443,0.009166927076876163,0.0023816199973225594,0.9990026950836182,0.022867543622851372,-0.003284353530034423,-0.0382089726626873
607.0,0.0,0.0,0.0,0.0,0.0,0.0,0.031031740829348564,0.008429978974163532,0.0074431197717785835,0.9990391731262207,0.022888116538524628,-0.0032880280632525682,-0.037236616015434265
608.0,0.0,0.0,0.0,0.0,0.0,0.0,0.04368388652801514,0.0012574858264997602,0.004905186127871275,0.9990621209144592,0.02303754910826683,-0.004117039032280445,-0.036428991705179214
609.0,0.0,0.0,0.0,0.0,0.0,0.0,0.03365851938724518,-0.00839940458536148,-0.015192614868283272,0.9991177916526794,0.02176031656563282,-0.004958843346685171,-0.035580143332481384
610.0,0.0,0.0,0.0,0.0,0.0,0.0,0.014494196511805058,0.0010681712301447988,-0.006907416973263025,0.9992032647132874,0.019716406241059303,-0.0053941719233989716,-0.03428170830011368
611.0,0.0,0.0,0.0,0.0,0.0,0.0,0.013151553459465504,0.008907274343073368,0.022475769743323326,0.9992890954017639,0.018588637933135033,-0.005759487859904766,-0.032287098467350006
612.0,0.0,0.0,0.0,0.0,0.0,0.0,0.009646284393966198,0.016362840309739113,0.034960851073265076,0.999356746673584,0.018787704408168793,-0.006163077894598246,-0.02992490492761135
613.0,0.0,0.0,0.0,0.0,0.0,0.0,0.00782117247581482,0.016012201085686684,0.024352392181754112,0.9994151592254639,0.01889048144221306,-0.006677866913378239,-0.027710024267435074
614.0,0.0,0.0,0.0,0.0,0.0,0.0,0.025984453037381172,0.00817758496850729,-0.009866507723927498,0.9994750022888184,0.018078723922371864,-0.007204156368970871,-0.02590876817703247
615.0,0.0,0.0,0.0,0.0,0.0,0.0,0.02168995887041092,0.016703765839338303,-0.0018072605598717928,0.9995312690734863,0.017469964921474457,-0.0072907451540231705,-0.024074804037809372
616.0,0.0,0.0,0.0,0.0,0.0,0.0,0.01182953268289566,0.01931069791316986,0.009995602071285248,0.9995726943016052,0.017665136605501175,-0.007505711168050766,-0.022054217755794525
617.0,0.0,0.0,0.0,0.0,0.0,0.0,0.006054404657334089,0.02120574191212654,0.025829393416643143,0.9995964169502258,0.01869995892047882,-0.006768383551388979,-0.020294463261961937
618.0,0.0,0.0,0.0,0.0,0.0,0.0,0.01769680343568325,0.017809832468628883,0.000597245991230011,0.9996100068092346,0.019561316817998886,-0.005622796714305878,-0.01912846788764
619.0,0.0,0.0,0.0,0.0,0.0,0.0,0.022474676370620728,0.01579093188047409,-0.008132190443575382,0.9996293783187866,0.020309966057538986,-0.004504953511059284,-0.017566852271556854
620.0,0.0,0.0,0.0,0.0,0.0,0.0,0.031589776277542114,0.020972341299057007,0.013752389699220657,0.9996243119239807,0.0223007183521986,-0.0037673318292945623,-0.015495737083256245
621.0,0.0,0.0,0.0,0.0,0.0,0.0,0.016069632023572922,0.019344890490174294,0.011647436767816544,0.9996172785758972,0.024060197174549103,-0.0026390100829303265,-0.013388628140091896
622.0,0.0,0.0,0.0,0.0,0.0,0.0,0.026675578206777573,0.01736310124397278,-0.005606525577604771,0.9996485114097595,0.0245030727237463,-0.0013091800501570106,-0.010048212483525276
623.0,0.0,0.0,0.0,0.0,0.0,0.0,0.03794731944799423,0.01723829284310341,-0.009933151304721832,0.9996528029441833,0.025189679116010666,0.00018870657368097454,-0.007732938509434462
624.0,0.0,0.0,0.0,0.0,0.0,0.0,0.027114106342196465,0.02450382336974144,0.0023150413762778044,0.9996214509010315,0.02686644159257412,0.0021700644865632057,-0.005526128690689802
625.0,0.0,0.0,0.0,0.0,0.0,0.0,0.028901802375912666,0.01932760700583458,-0.0032993529457598925,0.9996022582054138,0.02762775868177414,0.004100165329873562,-0.0039276788011193275
626.0,0.0,0.0,0.0,0.0,0.0,0.0,0.031291425228118896,0.01133179571479559,-0.036747608333826065,0.9995899200439453,0.027955111116170883,0.005899494048207998,-0.001976134954020381
627.0,0.0,0.0,0.0,0.0,0.0,0.0,0.03350216895341873,0.013299167156219482,-0.016240878030657768,0.9995510578155518,0.02892148867249489,0.007815005257725716,0.0006048628129065037
628.0,0.0,0.0,0.0,0.0,0.0,0.0,0.03405936434864998,0.011876755394041538,-0.007636657916009426,0.9995102882385254,0.029842041432857513,0.008973251096904278,0.002874399535357952
629.0,0.0,0.0,0.0,0.0,0.0,0.0,0.024338139221072197,0.01598857343196869,-0.012016192078590393,0.999471127986908,0.03080473653972149,0.009377936832606792,0.0045685297809541225
630.0,0.0,0.0,0.0,0.0,0.0,0.0,0.02806256338953972,0.01622275449335575,-0.021994804963469505,0.9994608163833618,0.030838098376989365,0.009809316135942936,0.005569043569266796
631.0,0.0,0.0,0.0,0.0,0.0,0.0,0.023533008992671967,0.015236521139740944,-0.031656958162784576,0.9994561076164246,0.030790748074650764,0.009706061333417892,0.006747291423380375
632.0,0.0,0.0,0.0,0.0,0.0,0.0,0.01779431663453579,0.024523714557290077,-0.014072480611503124,0.9994263648986816,0.03177240118384361,0.009985946118831635,0.006166389677673578
633.0,0.0,0.0,0.0,0.0,0.0,0.0,0.01905660890042782,0.018520256504416466,0.0030213426798582077,0.9993972182273865,0.032898373901844025,0.010267412289977074,0.004204284865409136
634.0,0.0,0.0,0.0,0.0,0.0,0.0,0.018769996240735054,0.014256611466407776,-0.015627510845661163,0.9993526339530945,0.0343075767159462,0.010629906319081783,0.00212735659442842
635.0,0.0,0.0,0.0,0.0,0.0,0.0,0.014830526895821095,0.018693527206778526,0.04504645615816116,0.9992525577545166,0.03681986406445503,0.011577584780752659,0.0022187812719494104
636.0,0.0,0.0,0.0,0.0,0.0,0.0,0.009518589824438095,0.006544792093336582,0.035197049379348755,0.9991459250450134,0.0393725261092186,0.012236344628036022,0.0027695102617144585
637.0,0.0,0.0,0.0,0.0,0.0,0.0,0.015658773481845856,-0.0029542918782681227,-0.04313965141773224,0.9990500807762146,0.04051106795668602,0.015643242746591568,0.0036327943671494722
638.0,0.0,0.0,0.0,0.0,0.0,0.0,0.027799636125564575,-0.002210983308032155,-0.04691707715392113,0.9989956021308899,0.04107009246945381,0.017307935282588005,0.00465447036549449
639.0,0.0,0.0,0.0,0.0,0.0,0.0,0.04022778198122978,-0.0029721176251769066,-0.028577493503689766,0.9989844560623169,0.0407901257276535,0.018141305074095726,0.006103632040321827
640.0,0.0,0.0,0.0,0.0,0.0,0.0,0.021015819162130356,0.006017372943460941,-0.004049509298056364,0.999025821685791,0.039665479212999344,0.017760442569851875,0.007670562248677015
641.0,0.0,0.0,0.0,0.0,0.0,0.0,-0.007065620273351669,-0.003079316345974803,-0.022636733949184418,0.9990639686584473,0.038734231144189835,0.017746224999427795,0.007485219743102789
642.0,0.0,0.0,0.0,0.0,0.0,0.0,-0.013970865868031979,-0.00988105870783329,-0.0508636012673378,0.9991647005081177,0.03621697053313255,0.01784348301589489,0.00632830336689949
643.0,0.0,0.0,0.0,0.0,0.0,0.0,-0.0024788128212094307,-0.004727159161120653,-0.007304532919079065,0.9992654323577881,0.03365953639149666,0.01750708557665348,0.005410894751548767
644.0,0.0,0.0,0.0,0.0,0.0,0.0,-0.005782176274806261,-0.005160020664334297,0.04326437786221504,0.9993395805358887,0.03177646920084953,0.016752582043409348,0.005492452997714281
645.0,0.0,0.0,0.0,0.0,0.0,0.0,-0.008124341256916523,0.005009384360164404,0.035933732986450195,0.9994077086448669,0.030137093737721443,0.015421834774315357,0.006187067832797766
646.0,0.0,0.0,0.0,0.0,0.0,0.0,-0.019170496612787247,0.02454238384962082,0.017531925812363625,0.999420166015625,0.02958736941218376,0.01537579856812954,0.006896872539073229
647.0,0.0,0.0,0.0,0.0,0.0,0.0,-0.008655783720314503,0.004073630552738905,-0.009909703396260738,0.9994322061538696,0.028704870492219925,0.016415035352110863,0.00647658109664917
648.0,0.0,0.0,0.0,0.0,0.0,0.0,0.010403163731098175,-0.00024341352400369942,-0.026623010635375977,0.9994345307350159,0.028664132580161095,0.01680457405745983,0.0051647974178195
649.0,0.0,0.0,0.0,0.0,0.0,0.0,-0.007175428327172995,0.0011000075610354543,0.017595423385500908,0.9993976354598999,0.029796116054058075,0.017327703535556793,0.004051948431879282
650.0,0.0,0.0,0.0,0.0,0.0,0.0,-0.0115544144064188,-0.0027599416207522154,-0.018313683569431305,0.999369204044342,0.03047286719083786,0.017885198816657066,0.0035806845407932997
651.0,0.0,0.0,0.0,0.0,0.0,0.0,-0.01920367404818535,0.006802103947848082,-0.012550408951938152,0.9993376135826111,0.03124663420021534,0.018195657059550285,0.004120504017919302
652.0,0.0,0.0,0.0,0.0,0.0,0.0,-0.016102150082588196,0.009603112936019897,0.024209072813391685,0.9993300437927246,0.0316496305167675,0.017965523526072502,0.003880390664562583
653.0,0.0,0.0,0.0,0.0,0.0,0.0,-0.016457602381706238,0.008528578095138073,-0.013220607303082943,0.999332070350647,0.03169778734445572,0.017989546060562134,0.0026685837656259537
654.0,0.0,0.0,0.0,0.0,0.0,0.0,-0.000892255047801882,0.0018189656548202038,-0.03819364681839943,0.9993286728858948,0.03214056044816971,0.017425071448087692,0.0023832779843360186
655.0,0.0,0.0,0.0,0.0,0.0,0.0,-0.009403452277183533,0.0064246985130012035,-0.01094798929989338,0.9993218779563904,0.032715391367673874,0.016726410016417503,0.002408107742667198
656.0,0.0,0.0,0.0,0.0,0.0,0.0,-0.01782231032848358,0.008482367731630802,0.004534611478447914,0.9993190169334412,0.033006224781274796,0.01631448231637478,0.002454193076118827
657.0,0.0,0.0,0.0,0.0,0.0,0.0,-0.003906845115125179,-0.00027575422427617013,-0.003904293291270733,0.9993450045585632,0.032560594379901886,0.01556445937603712,0.0026825200766324997
658.0,0.0,0.0,0.0,0.0,0.0,0.0,-0.0019121939549222589,-5.7883353292709216e-05,-0.003054846078157425,0.9993889927864075,0.03161067143082619,0.014526098035275936,0.0033882041461765766
659.0,0.0,0.0,0.0,0.0,0.0,0.0,-0.0043049524538218975,-0.001491935458034277,0.007268745452165604,0.999428927898407,0.03070961870253086,0.013621498830616474,0.0036304350942373276
660.0,0.0,0.0,0.0,0.0,0.0,0.0,-0.005004064179956913,-0.004126884508877993,0.0043541924096643925,0.9994604587554932,0.030065981671214104,0.012975217774510384,0.0025536620523780584
661.0,0.0,0.0,0.0,0.0,0.0,0.0,-0.003390899393707514,-0.004631477408111095,0.010025161318480968,0.999485433101654,0.029718218371272087,0.01193824503570795,0.0018056458793580532
662.0,0.0,0.0,0.0,0.0,0.0,0.0,-0.010418378747999668,-0.004673728719353676,0.014509952627122402,0.9994907975196838,0.02980065532028675,0.011352336034178734,0.001113721402361989
663.0,0.0,0.0,0.0,0.0,0.0,0.0,-0.013671849854290485,-0.006198064424097538,0.01808856427669525,0.9994978308677673,0.02963624894618988,0.011209935881197453,0.0004437567840795964
664.0,0.0,0.0,0.0,0.0,0.0,0.0,-0.010430874302983284,-0.010289177298545837,0.005431754980236292,0.9995165467262268,0.028987515717744827,0.011243670247495174,9.589982801117003e-05
665.0,0.0,0.0,0.0,0.0,0.0,0.0,-0.006772961467504501,-0.014669881202280521,-0.0016868861857801676,0.9995105862617493,0.0292341411113739,0.011071761138737202,-0.0011891273315995932
666.0,0.0,0.0,0.0,0.0,0.0,0.0,-0.004663575906306505,-0.014549617655575275,0.006206068675965071,0.9995314478874207,0.028637288138270378,0.01058790273964405,-0.0021603538189083338
667.0,0.0,0.0,0.0,0.0,0.0,0.0,-0.008833763189613819,-0.01218403223901987,0.009585128165781498,0.9995571374893188,0.0277908593416214,0.010352393612265587,-0.0024568757507950068
668.0,0.0,0.0,0.0,0.0,0.0,0.0,-0.007600254379212856,-0.01260110829025507,0.007846923545002937,0.9995472431182861,0.027978887781500816,0.010448073968291283,-0.0036600222811102867
669.0,0.0,0.0,0.0,0.0,0.0,0.0,-0.004062922205775976,-0.014520740136504173,0.0005390479927882552,0.9995325803756714,0.028346100822091103,0.01063315849751234,-0.004252477083355188
670.0,0.0,0.0,0.0,0.0,0.0,0.0,-0.0005833745235577226,-0.01441234815865755,-0.0012796376831829548,0.9995504021644592,0.027590416371822357,0.010840419679880142,-0.004500094801187515
671.0,0.0,0.0,0.0,0.0,0.0,0.0,0.004414571449160576,-0.013934316113591194,-0.003724496578797698,0.999542772769928,0.027685778215527534,0.011059103533625603,-0.005049986764788628
672.0,0.0,0.0,0.0,0.0,0.0,0.0,0.0056535336188972,-0.015130792744457722,-0.0025110654532909393,0.9995383620262146,0.027761055156588554,0.011000395752489567,-0.005605284124612808
673.0,0.0,0.0,0.0,0.0,0.0,0.0,0.007703390438109636,-0.015453243628144264,0.0013354027178138494,0.9995607137680054,0.027075236663222313,0.010601756162941456,-0.005743666552007198
674.0,0.0,0.0,0.0,0.0,0.0,0.0,0.011088059283792973,-0.016906151548027992,-0.00035806436790153384,0.9996013045310974,0.02582770772278309,0.010066842660307884,-0.005374504718929529
675.0,0.0,0.0,0.0,0.0,0.0,0.0,0.008161299861967564,-0.01136208139359951,0.0004138936346862465,0.9996393918991089,0.02464164048433304,0.00944116897881031,-0.004974832758307457
676.0,0.0,0.0,0.0,0.0,0.0,0.0,0.02102828212082386,-0.0023362915962934494,0.014757043682038784,0.999678909778595,0.023520153015851974,0.008548878133296967,-0.0039796726778149605
677.0,0.0,0.0,0.0,0.0,0.0,0.0,0.006825538817793131,-0.0020677796564996243,0.00534100504592061,0.9996983408927917,0.022967560216784477,0.008013106882572174,-0.003427105722948909
678.0,0.0,0.0,0.0,0.0,0.0,0.0,0.011616623029112816,-0.002779994159936905,-0.006924224551767111,0.9997161626815796,0.02254580892622471,0.007247121073305607,-0.0026127134915441275
679.0,0.0,0.0,0.0,0.0,0.0,0.0,0.016090625897049904,-0.0025038006715476513,-0.00862517673522234,0.9997497797012329,0.021537527441978455,0.005951642524451017,-0.0011571139330044389
680.0,0.0,0.0,0.0,0.0,0.0,0.0,0.0026910037267953157,0.004716751165688038,0.004373124334961176,0.9997820258140564,0.02030416950583458,0.004871818237006664,0.00017034383199643344
681.0,0.0,0.0,0.0,0.0,0.0,0.0,0.0017559246625751257,0.007499197497963905,0.01264510490000248,0.9998188018798828,0.018636049702763557,0.003673902014270425,0.0013712699292227626
682.0,0.0,0.0,0.0,0.0,0.0,0.0,0.007644074968993664,0.004164061974734068,0.00020502951520029455,0.9998460412025452,0.017224417999386787,0.002106873784214258,0.0026345893274992704
683.0,0.0,0.0,0.0,0.0,0.0,0.0,0.003180138999596238,0.004154834430664778,0.003436546539887786,0.9998714327812195,0.015575739555060863,0.0008051654440350831,0.00375384115613997
684.0,0.0,0.0,0.0,0.0,0.0,0.0,0.003438205225393176,0.01089518703520298,0.024282902479171753,0.9998910427093506,0.013797057792544365,-0.0008851219899952412,0.005182933062314987
685.0,0.0,0.0,0.0,0.0,0.0,0.0,-0.012601003050804138,0.0201223473995924,0.052768707275390625,0.9999030828475952,0.012454915791749954,-0.0018566333455964923,0.005943985190242529
686.0,0.0,0.0,0.0,0.0,0.0,0.0,-0.004951717332005501,0.011085298843681812,0.014645733870565891,0.9999195337295532,0.011584621854126453,-0.0021384460851550102,0.004726879298686981
687.0,0.0,0.0,0.0,0.0,0.0,0.0,0.002907142275944352,0.008036320097744465,0.01618216000497341,0.9999222755432129,0.011675323359668255,-0.0021845120936632156,0.003799228463321924
688.0,0.0,0.0,0.0,0.0,0.0,0.0,0.005807023495435715,0.008422189392149448,0.019487647339701653,0.9999067187309265,0.012161970138549805,-0.003940091002732515,0.004820027854293585
689.0,0.0,0.0,0.0,0.0,0.0,0.0,0.010088279843330383,-0.008060472086071968,0.003971393220126629,0.9998981356620789,0.013070701621472836,-0.00429900735616684,0.0038095314521342516
690.0,0.0,0.0,0.0,0.0,0.0,0.0,0.002018159022554755,-0.002886291826143861,0.014624475501477718,0.9998882412910461,0.01392622571438551,-0.004833896178752184,0.0025128601118922234
691.0,0.0,0.0,0.0,0.0,0.0,0.0,0.009947550483047962,-0.016481755301356316,0.009714661166071892,0.9998957514762878,0.013102101162075996,-0.005693468265235424,0.0021120882593095303
692.0,0.0,0.0,0.0,0.0,0.0,0.0,0.020464075729250908,-0.010313191451132298,-0.006644225679337978,0.9999096393585205,0.011170148849487305,-0.006842733360826969,0.0030445691663771868
693.0,0.0,0.0,0.0,0.0,0.0,0.0,0.0019349041394889355,-0.00012847641482949257,0.008970252238214016,0.9999090433120728,0.010572792030870914,-0.0073389154858887196,0.004066151566803455
694.0,0.0,0.0,0.0,0.0,0.0,0.0,0.11437853425741196,-0.014521134085953236,0.06563814729452133,0.9998811483383179,0.009833509102463722,-0.009673336520791054,0.006890065502375364
695.0,0.0,0.0,0.0,0.0,0.0,0.0,0.010401246137917042,-0.002743358490988612,0.008296129293739796,0.9998916387557983,0.008783525787293911,-0.009059184230864048,0.007587803993374109
696.0,0.0,0.0,0.0,0.0,0.0,0.0,0.010792705230414867,-0.0007987622520886362,-0.003376827808097005,0.999895453453064,0.008190639317035675,-0.008550439029932022,0.008304662071168423
697.0,0.0,0.0,0.0,0.0,0.0,0.0,0.01019143033772707,-0.002174672205001116,-0.00281257601454854,0.999898374080658,0.007420829497277737,-0.008181862533092499,0.0090129179880023
698.0,0.0,0.0,0.0,0.0,0.0,0.0,0.0018025081371888518,0.0018691722070798278,0.00010215427028015256,0.9998967051506042,0.006536191329360008,-0.00777469202876091,0.010176842100918293
699.0,0.0,0.0,0.0,0.0,0.0,0.0,0.007098861038684845,0.0028732905630022287,-0.0024293502792716026,0.9998887181282043,0.0060007767751812935,-0.007358216214925051,0.011513790115714073
700.0,0.0,0.0,0.0,0.0,0.0,0.0,0.0022937306202948093,0.0085584856569767,-0.01064961776137352,0.9998892545700073,0.005897998809814453,-0.006656147073954344,0.011934873647987843
701.0,0.0,0.0,0.0,0.0,0.0,0.0,-0.00597036350518465,0.010378618724644184,-0.0035633747465908527,0.9998860359191895,0.006023029796779156,-0.006128694862127304,0.012412787415087223
702.0,0.0,0.0,0.0,0.0,0.0,0.0,-0.0042732954025268555,0.008421656675636768,-0.010112031362950802,0.9998819231987,0.0063626389019191265,-0.005670302547514439,0.012787969782948494
703.0,0.0,0.0,0.0,0.0,0.0,0.0,-0.0045376927591860294,0.007205660454928875,-0.020074918866157532,0.9998902678489685,0.006287053693085909,-0.004898227285593748,0.012490704655647278
704.0,0.0,0.0,0.0,0.0,0.0,0.0,-0.009778457693755627,0.006488795392215252,-0.021123450249433517,0.999893069267273,0.006997202057391405,-0.0045944261364638805,0.011996988207101822
705.0,0.0,0.0,0.0,0.0,0.0,0.0,-0.024629903957247734,0.006829032674431801,-0.012091191485524178,0.9998942017555237,0.008244162425398827,-0.004058728460222483,0.011281696148216724
706.0,0.0,0.0,0.0,0.0,0.0,0.0,-0.02217908762395382,0.007203145883977413,-0.008167292922735214,0.9998977184295654,0.00856135506182909,-0.0036736077163368464,0.010856677778065205
707.0,0.0,0.0,0.0,0.0,0.0,0.0,-0.005614289548248053,0.005484696011990309,-0.0125803854316473,0.9998977184295654,0.01017536036670208,-0.0021874522790312767,0.009812416508793831
708.0,0.0,0.0,0.0,0.0,0.0,0.0,-0.023702839389443398,0.010236737318336964,-0.006500131916254759,0.9999036192893982,0.011308260262012482,-0.0013083408121019602,0.007945395074784756
709.0,0.0,0.0,0.0,0.0,0.0,0.0,-0.030183423310518265,0.01087525300681591,0.00016407191287726164,0.9998931288719177,0.013133274391293526,-0.0002550814824644476,0.006423948798328638
710.0,0.0,0.0,0.0,0.0,0.0,0.0,-0.02940160036087036,0.01711687445640564,0.009318129159510136,0.9998740553855896,0.014990472234785557,0.000822254631202668,0.005145005416125059
711.0,0.0,0.0,0.0,0.0,0.0,0.0,-0.023374689742922783,0.011896043084561825,-0.004062466789036989,0.9998416900634766,0.01727393828332424,0.0018751411698758602,0.0038438141345977783
712.0,0.0,0.0,0.0,0.0,0.0,0.0,-0.0027927658520638943,0.00312587502412498,-0.01608794741332531,0.9998148083686829,0.018773015588521957,0.0025520753115415573,0.0033767614513635635
713.0,0.0,0.0,0.0,0.0,0.0,0.0,0.006661369930952787,0.0005788133712485433,-0.011658447794616222,0.9997908473014832,0.0199277326464653,0.0030862954445183277,0.0034233066253364086
714.0,0.0,0.0,0.0,0.0,0.0,0.0,-0.002564444672316313,0.0029586574528366327,0.0039123729802668095,0.9997749924659729,0.02069208025932312,0.0031443366315215826,0.003453701501712203
715.0,0.0,0.0,0.0,0.0,0.0,0.0,-0.003747863695025444,0.002996247261762619,-0.008384983986616135,0.999774158000946,0.02065386064350605,0.003555484116077423,0.003532304195687175
716.0,0.0,0.0,0.0,0.0,0.0,0.0,-0.0016388451913371682,0.005135589744895697,-0.006790040526539087,0.9997758269309998,0.0203966423869133,0.004249062389135361,0.0037920651957392693
717.0,0.0,0.0,0.0,0.0,0.0,0.0,0.012789678759872913,-0.0007071415311656892,0.006952776573598385,0.9997789859771729,0.020011039450764656,0.004388151690363884,0.004727636929601431
718.0,0.0,0.0,0.0,0.0,0.0,0.0,0.01656700298190117,-0.006448904052376747,-0.009836824610829353,0.9997777938842773,0.020007289946079254,0.004198988433927298,0.005155455321073532
719.0,0.0,0.0,0.0,0.0,0.0,0.0,0.007906428538262844,-0.00721503933891654,-0.02273751050233841,0.9997901916503906,0.019333597272634506,0.0042740763165056705,0.005248017609119415
720.0,0.0,0.0,0.0,0.0,0.0,0.0,0.018686823546886444,-0.012941508553922176,-0.006649823859333992,0.9998128414154053,0.018243568018078804,0.003804396837949753,0.005206863395869732
721.0,0.0,0.0,0.0,0.0,0.0,0.0,0.013515935279428959,-0.014008045196533203,0.0019911203999072313,0.9998210668563843,0.018066003918647766,0.0029626013711094856,0.004773940425366163
722.0,0.0,0.0,0.0,0.0,0.0,0.0,0.004007641226053238,-0.015736954286694527,0.0039222100749611855,0.9998310208320618,0.017724845558404922,0.0018121422035619617,0.004537688568234444
723.0,0.0,0.0,0.0,0.0,0.0,0.0,0.004407637752592564,-0.014840606600046158,0.01210168469697237,0.9998529553413391,0.01653197780251503,0.0009040133445523679,0.0044915154576301575
