,Position_X,Position_Y,Position_Z,Velocity_X,Velocity_Y,Velocity_Z,Acceleration_X,Acceleration_Y,Acceleration_Z,Quaterion_0,Quaterion_1,Quaterion_2,Quaterion_3
51.0,0.0,0.0,0.0,0.0,0.0,0.0,-0.020631685853004456,-0.012949720025062561,0.008877923712134361,1.0,-1.3877787807814457e-17,1.3877787807814457e-17,-1.3877787807814457e-17
52.0,0.0,0.0,0.0,0.0,0.0,0.0,-0.01486129779368639,-0.015700312331318855,0.0038758052978664637,0.9999976754188538,0.0003958944871556014,0.0009457760606892407,-0.0018881139112636447
53.0,0.0,0.0,0.0,0.0,0.0,0.0,-0.012821375392377377,-0.01718772202730179,0.002231751335784793,0.9999937415122986,0.0013973135501146317,0.0021520466543734074,-0.002441311487928033
54.0,0.0,0.0,0.0,0.0,0.0,0.0,-0.009079335257411003,-0.01603882387280464,-0.003870335640385747,0.9999878406524658,0.0021299466025084257,0.0036245707888156176,-0.002584414556622505
55.0,0.0,0.0,0.0,0.0,0.0,0.0,0.0004018803301732987,-0.01976456120610237,-0.015427948907017708,0.9999831318855286,0.0026916731148958206,0.004597155377268791,-0.002323846099898219
56.0,0.0,0.0,0.0,0.0,0.0,0.0,0.0012377389939501882,-0.014173341915011406,-0.016062086448073387,0.9999744892120361,0.0032939109951257706,0.005780375096946955,-0.002593901241198182
57.0,0.0,0.0,0.0,0.0,0.0,0.0,-0.0009307237342000008,-0.0032656979747116566,-0.007276056334376335,0.9999550580978394,0.004362324718385935,0.007708932273089886,-0.0033704182133078575
58.0,0.0,0.0,0.0,0.0,0.0,0.0,0.003292345441877842,0.000832415942568332,-0.004959783982485533,0.9999373555183411,0.005072154104709625,0.00953484047204256,-0.0029442140366882086
59.0,0.0,0.0,0.0,0.0,0.0,0.0,0.011687205173075199,0.0019150314619764686,-0.016467347741127014,0.999925434589386,0.005803585518151522,0.010440540499985218,-0.0025356505066156387
60.0,0.0,0.0,0.0,0.0,0.0,0.0,0.019471189007163048,-0.0010414497228339314,-0.012879671528935432,0.9999198913574219,0.0062811668030917645,0.010914832353591919,-0.001270681619644165
61.0,0.0,0.0,0.0,0.0,0.0,0.0,0.046008069068193436,-0.04228462651371956,-0.06019388139247894,0.9999279379844666,0.006125527434051037,0.01030382513999939,-0.0006452841917052865
62.0,0.0,0.0,0.0,0.0,0.0,0.0,0.033015210181474686,-0.03629637137055397,-0.023634405806660652,0.9999455809593201,0.0042792074382305145,0.009470007382333279,-0.0009094771812669933
63.0,0.0,0.0,0.0,0.0,0.0,0.0,-0.0230624470859766,0.060702502727508545,0.0418589822947979,0.9999493956565857,0.0046745059080421925,0.008859209716320038,-0.0009065887425094843
64.0,0.0,0.0,0.0,0.0,0.0,0.0,0.004592445679008961,0.0025314243976026773,0.013452020473778248,0.9999485015869141,0.003994672559201717,0.00932628195732832,-7.532578456448391e-05
65.0,0.0,0.0,0.0,0.0,0.0,0.0,0.014766818843781948,-0.0115392180159688,0.00936509482562542,0.999944806098938,0.0033785041887313128,0.009893969632685184,0.0010076562175527215
66.0,0.0,0.0,0.0,0.0,0.0,0.0,-0.00794894713908434,0.004002598579972982,0.020417464897036552,0.9999529719352722,0.0030733055900782347,0.009189522825181484,0.0004417393065523356
67.0,0.0,0.0,0.0,0.0,0.0,0.0,-0.0020978034008294344,-0.012341274879872799,0.010152900591492653,0.9999471306800842,0.0026371849235147238,0.009881659410893917,-0.001078495173715055
68.0,0.0,0.0,0.0,0.0,0.0,0.0,-0.0011168679920956492,-0.03246491774916649,0.008336903527379036,0.9999426007270813,0.0014329432742670178,0.01031592395156622,-0.0025071846321225166
69.0,0.0,0.0,0.0,0.0,0.0,0.0,0.002061392879113555,-0.014809256419539452,0.003062673145905137,0.9999301433563232,0.0008850867161527276,0.010914715938270092,-0.00445199990645051
70.0,0.0,0.0,0.0,0.0,0.0,0.0,0.00688528548926115,0.00548313045874238,0.005318489857017994,0.999914824962616,0.0012665389804169536,0.011994206346571445,-0.004986986983567476
71.0,0.0,0.0,0.0,0.0,0.0,0.0,0.01180486474186182,-0.0030240786727517843,0.002918198937550187,0.9998999238014221,0.002029628027230501,0.013314792886376381,-0.004327255301177502
72.0,0.0,0.0,0.0,0.0,0.0,0.0,0.027554068714380264,-0.004895913414657116,-0.01667223870754242,0.9998964667320251,0.002733571920543909,0.013525770977139473,-0.004082688596099615
73.0,0.0,0.0,0.0,0.0,0.0,0.0,0.029696043580770493,0.005800359882414341,-0.012679103761911392,0.9998973608016968,0.0037173377349972725,0.0132921002805233,-0.0038386594969779253
74.0,0.0,0.0,0.0,0.0,0.0,0.0,0.027591925114393234,0.0033875764347612858,-0.007881008088588715,0.9998998641967773,0.004381817765533924,0.012923468835651875,-0.0037533401045948267
75.0,0.0,0.0,0.0,0.0,0.0,0.0,0.03511778637766838,-0.0062107820995152,-0.01637369580566883,0.9999223947525024,0.00393715500831604,0.01139415055513382,-0.003145313123241067
76.0,0.0,0.0,0.0,0.0,0.0,0.0,0.017486466094851494,0.008819236420094967,0.008191743865609169,0.9999428391456604,0.003516316181048751,0.009764855727553368,-0.002564790192991495
77.0,0.0,0.0,0.0,0.0,0.0,0.0,-0.0006294675404205918,0.022825993597507477,0.023540688678622246,0.9999598860740662,0.002807785989716649,0.008344938978552818,-0.0016369143268093467
78.0,0.0,0.0,0.0,0.0,0.0,0.0,0.007022583857178688,0.024691523984074593,0.018066776916384697,0.9999669194221497,0.0020872231107205153,0.007831708528101444,-0.0007045030361041427
79.0,0.0,0.0,0.0,0.0,0.0,0.0,0.003669660771265626,0.023754237219691277,0.015157983638346195,0.9999683499336243,0.00178762327414006,0.007747214287519455,-0.0002644057967700064
80.0,0.0,0.0,0.0,0.0,0.0,0.0,0.004886685870587826,0.018713442608714104,0.013904856517910957,0.9999710917472839,0.001630997285246849,0.007423066068440676,2.6309357053833082e-05
81.0,0.0,0.0,0.0,0.0,0.0,0.0,0.008418533019721508,0.016909148544073105,0.010055203922092915,0.9999697804450989,0.001709577045403421,0.007584312930703163,-9.810319170355797e-05
82.0,0.0,0.0,0.0,0.0,0.0,0.0,0.00833473727107048,0.013890024274587631,0.007275913842022419,0.9999683499336243,0.001854497822932899,0.007723275572061539,-0.0004583836707752198
83.0,0.0,0.0,0.0,0.0,0.0,0.0,0.010136627592146397,0.013526604510843754,-0.003021090989932418,0.9999685287475586,0.002456365618854761,0.007541954051703215,0.00014280361938290298
84.0,0.0,0.0,0.0,0.0,0.0,0.0,0.0122133893892169,0.012345238588750362,-0.007820713333785534,0.9999645352363586,0.0031741659622639418,0.007738656830042601,0.000992327812127769
85.0,0.0,0.0,0.0,0.0,0.0,0.0,0.007678947877138853,0.0042041512206196785,0.0004505481629166752,0.9999576210975647,0.003828172106295824,0.008261020295321941,0.0013836746802553535
86.0,0.0,0.0,0.0,0.0,0.0,0.0,0.008936316706240177,0.0028195062186568975,-0.0031927928794175386,0.9999533891677856,0.0044650789350271225,0.008387933485209942,0.001721139415167272
87.0,0.0,0.0,0.0,0.0,0.0,0.0,0.01424933597445488,0.0032046157866716385,-0.013558813370764256,0.9999498724937439,0.00487684877589345,0.008630726486444473,0.001414664788171649
88.0,0.0,0.0,0.0,0.0,0.0,0.0,0.012014894746243954,-0.0036529176868498325,-0.010875963605940342,0.9999443292617798,0.005261785350739956,0.009079311974346638,0.0011094002984464169
89.0,0.0,0.0,0.0,0.0,0.0,0.0,0.010613404214382172,-0.001123453606851399,-0.006458960939198732,0.9999417662620544,0.005371191073209047,0.009317873977124691,0.0008848201250657439
90.0,0.0,0.0,0.0,0.0,0.0,0.0,0.013695953413844109,0.0006075638229958713,-0.00913786981254816,0.9999305605888367,0.005939368158578873,0.010173610411584377,0.0003419741988182068
91.0,0.0,0.0,0.0,0.0,0.0,0.0,0.006748943589627743,0.0010517402552068233,-0.0014351453864946961,0.9999186992645264,0.006152205169200897,0.011073415167629719,0.0014408541610464454
92.0,0.0,0.0,0.0,0.0,0.0,0.0,0.0015111793763935566,0.0037964931689202785,0.003752031596377492,0.9999168515205383,0.0061173574067652225,0.011238256469368935,0.0015976766590029001
93.0,0.0,0.0,0.0,0.0,0.0,0.0,0.008365887217223644,0.00700217392295599,0.002492757746949792,0.9999105930328369,0.006370728835463524,0.011579055339097977,0.0020339018665254116
94.0,0.0,0.0,0.0,0.0,0.0,0.0,0.03917636722326279,-0.019038891419768333,-0.030549559742212296,0.9999207258224487,0.0061346255242824554,0.010740065015852451,0.0023600240238010883
95.0,0.0,0.0,0.0,0.0,0.0,0.0,0.04984686151146889,-0.06631842255592346,-0.053595252335071564,0.9999478459358215,0.004261968657374382,0.009008643217384815,0.0022235813084989786
96.0,0.0,0.0,0.0,0.0,0.0,0.0,-0.002873610472306609,0.05955987796187401,0.059678930789232254,0.9999486207962036,0.004216771572828293,0.00814506784081459,0.004319404251873493
97.0,0.0,0.0,0.0,0.0,0.0,0.0,-0.02034083940088749,0.025710055604577065,0.026139484718441963,0.9999624490737915,0.0036261356435716152,0.0067025646567344666,0.0041221072897315025
98.0,0.0,0.0,0.0,0.0,0.0,0.0,0.02638697437942028,-0.02888708934187889,0.01083451695740223,0.9999609589576721,0.0021191141568124294,0.007143094204366207,0.004752854350954294
99.0,0.0,0.0,0.0,0.0,0.0,0.0,-0.01586553454399109,0.006952289026230574,0.028400668874382973,0.9999769330024719,0.0013371065724641085,0.005428310018032789,0.0038596349768340588
100.0,0.0,0.0,0.0,0.0,0.0,0.0,-0.012116476893424988,0.015935197472572327,0.027529263868927956,0.9999801516532898,0.0011775647290050983,0.005796981509774923,0.0021760156378149986
101.0,0.0,0.0,0.0,0.0,0.0,0.0,0.0030542772728949785,-0.00308598973788321,0.01017569936811924,0.9999713897705078,0.001334541942924261,0.007229052018374205,0.0017903598491102457
102.0,0.0,0.0,0.0,0.0,0.0,0.0,0.0029037976637482643,-0.014589845202863216,0.001130238058976829,0.9999629855155945,0.0014531119959428906,0.008153456263244152,0.002342876745387912
103.0,0.0,0.0,0.0,0.0,0.0,0.0,0.015331944450736046,0.0023867522832006216,-0.005498796235769987,0.999947190284729,0.002342128660529852,0.009623708203434944,0.0027421435806900263
104.0,0.0,0.0,0.0,0.0,0.0,0.0,0.02453801967203617,0.008117332123219967,-0.014705931767821312,0.9999351501464844,0.0035894226748496294,0.0103555703535676,0.003095668274909258
105.0,0.0,0.0,0.0,0.0,0.0,0.0,0.027378780767321587,-0.00949039962142706,-0.025265511125326157,0.9999347925186157,0.0037423381581902504,0.01014667097479105,0.0036689182743430138
106.0,0.0,0.0,0.0,0.0,0.0,0.0,0.027366196736693382,-0.012538658455014229,-0.01893746852874756,0.9999396800994873,0.003591841319575906,0.009799067862331867,0.003422149922698736
107.0,0.0,0.0,0.0,0.0,0.0,0.0,0.017098385840654373,0.014329629018902779,-0.005155438091605902,0.9999527335166931,0.0035303072072565556,0.008674236945807934,0.0026135516818612814
108.0,0.0,0.0,0.0,0.0,0.0,0.0,0.006226905155926943,0.019059007987380028,0.007678366731852293,0.9999571442604065,0.003085798118263483,0.008342512883245945,0.0025659343227744102
109.0,0.0,0.0,0.0,0.0,0.0,0.0,0.003087124554440379,0.009926127269864082,0.011747862212359905,0.9999582767486572,0.0021522468887269497,0.008159921504557133,0.0034980406053364277
110.0,0.0,0.0,0.0,0.0,0.0,0.0,0.0062912884168326855,0.01213173009455204,0.004373172763735056,0.9999561905860901,0.0016875946894288063,0.007821704261004925,0.004853943828493357
111.0,0.0,0.0,0.0,0.0,0.0,0.0,0.003964340314269066,0.016849638894200325,0.0034328715410083532,0.9999531507492065,0.0016622719122096896,0.007533556781709194,0.00584334135055542
112.0,0.0,0.0,0.0,0.0,0.0,0.0,0.0032160154078155756,0.010159661993384361,0.004316368140280247,0.9999581575393677,0.0016309748170897365,0.007258351426571608,0.005318118259310722
113.0,0.0,0.0,0.0,0.0,0.0,0.0,0.00684037059545517,0.0025916271843016148,-0.0014015664346516132,0.9999639987945557,0.0014459191588684916,0.00733678974211216,0.004006842616945505
114.0,0.0,0.0,0.0,0.0,0.0,0.0,0.007514150347560644,0.0019816753920167685,-0.005333212669938803,0.9999660849571228,0.001522292266599834,0.007172707002609968,0.003748771036043763
115.0,0.0,0.0,0.0,0.0,0.0,0.0,0.00806606374680996,0.0032537595834583044,-0.004332978278398514,0.9999641180038452,0.0013408632948994637,0.00738490978255868,0.003935382701456547
116.0,0.0,0.0,0.0,0.0,0.0,0.0,0.008940481580793858,0.0066112191416323185,-0.0065481578931212425,0.9999573826789856,0.0010189779568463564,0.008029420860111713,0.004434972535818815
117.0,0.0,0.0,0.0,0.0,0.0,0.0,0.009482430294156075,0.008775385096669197,-0.005875296890735626,0.999952495098114,0.0009166699019260705,0.008291217498481274,0.005038206931203604
118.0,0.0,0.0,0.0,0.0,0.0,0.0,0.0061745536513626575,0.006035654805600643,-0.003147654701024294,0.9999544024467468,0.0007611311739310622,0.008040876127779484,0.005092177540063858
119.0,0.0,0.0,0.0,0.0,0.0,0.0,0.003890359541401267,0.0013307288754731417,-0.0013454342260956764,0.9999579191207886,0.0007834112620912492,0.008009686134755611,0.0044006709940731525
120.0,0.0,0.0,0.0,0.0,0.0,0.0,0.007135342340916395,-0.0012004253221675754,-0.0035761534236371517,0.9999674558639526,0.0008341072243638337,0.007267092354595661,0.0033955604303628206
121.0,0.0,0.0,0.0,0.0,0.0,0.0,0.001949249068275094,-0.002429207321256399,0.0007551817107014358,0.9999734163284302,0.00068213528720662,0.006727392319589853,0.002738854382187128
122.0,0.0,0.0,0.0,0.0,0.0,0.0,0.0019774939864873886,-0.003586134873330593,0.0034923870116472244,0.9999704957008362,0.00019980828801635653,0.007531371898949146,0.0014980398118495941
123.0,0.0,0.0,0.0,0.0,0.0,0.0,-0.0006148759857751429,-0.004229063168168068,0.004993278533220291,0.9999549984931946,0.0003606895625125617,0.009380077011883259,0.0013822938781231642
124.0,0.0,0.0,0.0,0.0,0.0,0.0,0.001854226109571755,-0.005428649950772524,0.008495703339576721,0.9999414086341858,0.00030049605993553996,0.01060741301625967,0.0021497742272913456
125.0,0.0,0.0,0.0,0.0,0.0,0.0,0.0035038942005485296,0.00041075400076806545,0.008619255386292934,0.9999309778213501,0.0005029145395383239,0.011617369018495083,0.0016827580984681845
126.0,0.0,0.0,0.0,0.0,0.0,0.0,0.018454326316714287,-0.002050786279141903,0.0050323461182415485,0.9999308586120605,0.000762527110055089,0.011643387377262115,0.0014697198057547212
127.0,0.0,0.0,0.0,0.0,0.0,0.0,0.057434551417827606,-0.05369804427027702,-0.06834100931882858,0.9999469518661499,0.0006792552885599434,0.010271044448018074,-0.00032023878884501755
128.0,0.0,0.0,0.0,0.0,0.0,0.0,0.03240741416811943,-0.03924562782049179,0.011558817699551582,0.9999527335166931,-0.0014018514193594456,0.009603741578757763,-0.0006134911091066897
129.0,0.0,0.0,0.0,0.0,0.0,0.0,-0.02833693102002144,0.08605285733938217,0.048053015023469925,0.9999569058418274,-0.0002518584078643471,0.009131339378654957,-0.0016497992910444736
130.0,0.0,0.0,0.0,0.0,0.0,0.0,0.016903741285204887,-0.018335623666644096,0.005138105247169733,0.9999508261680603,-0.0013096786569803953,0.009832149371504784,-2.9785616789013147e-05
131.0,0.0,0.0,0.0,0.0,0.0,0.0,0.01805570162832737,-0.0373542346060276,0.005295720882713795,0.9999333620071411,-0.002360931597650051,0.011239316314458847,0.0011835055192932487
132.0,0.0,0.0,0.0,0.0,0.0,0.0,-0.01191963441669941,0.011081052012741566,0.020446835085749626,0.9999487996101379,-0.0029443278908729553,0.00967791210860014,-0.0002037307567661628
133.0,0.0,0.0,0.0,0.0,0.0,0.0,-0.00025590904988348484,0.022227609530091286,0.01716742105782032,0.9999373555183411,-0.002288889605551958,0.01093738991767168,-0.0006809289334341884
134.0,0.0,0.0,0.0,0.0,0.0,0.0,0.013127302750945091,-0.0025684807915240526,0.011944658122956753,0.9999321103096008,-0.0015528476797044277,0.011547910049557686,0.00015548929513897747
135.0,0.0,0.0,0.0,0.0,0.0,0.0,0.02347327023744583,-0.005916382186114788,-0.013555929996073246,0.9999323487281799,-0.0005430946475826204,0.011620580218732357,2.2451235054177232e-05
136.0,0.0,0.0,0.0,0.0,0.0,0.0,0.025304587557911873,-0.01499269250780344,-0.008139767684042454,0.9999218583106995,-0.00033165994682349265,0.012408453971147537,0.0014721214538440108
137.0,0.0,0.0,0.0,0.0,0.0,0.0,0.018210284411907196,-0.018708879128098488,0.0013495093444362283,0.9999251961708069,-0.0002656246942933649,0.012149429880082607,0.0013978214701637626
138.0,0.0,0.0,0.0,0.0,0.0,0.0,0.02079484798014164,-0.006586011033505201,6.750786997145042e-05,0.9999310374259949,-0.00033069250639528036,0.011667550541460514,0.001290985499508679
139.0,0.0,0.0,0.0,0.0,0.0,0.0,0.01268810499459505,-0.009757804684340954,0.00421174569055438,0.9999340176582336,-0.00048174208495765924,0.011393314227461815,0.0013770477380603552
140.0,0.0,0.0,0.0,0.0,0.0,0.0,0.007735930383205414,-0.013487325049936771,0.0130245266482234,0.9999389052391052,-0.0014269929379224777,0.010918929241597652,0.0009685039985924959
141.0,0.0,0.0,0.0,0.0,0.0,0.0,-0.0008956082165241241,-0.0037892942782491446,0.02077574096620083,0.9999354481697083,-0.0024642297066748142,0.011043558828532696,0.001031415769830346
142.0,0.0,0.0,0.0,0.0,0.0,0.0,-0.004015524405986071,0.007474034558981657,0.020253315567970276,0.9999201893806458,-0.0030942363664507866,0.012161804363131523,0.001453515375033021
143.0,0.0,0.0,0.0,0.0,0.0,0.0,0.010886751115322113,0.004791809245944023,0.00268749613314867,0.9999163746833801,-0.003038545371964574,0.012478986755013466,0.0015272675082087517
144.0,0.0,0.0,0.0,0.0,0.0,0.0,0.015553067438304424,0.004708610009402037,-0.009887526743113995,0.9999207258224487,-0.0027821622788906097,0.012148900888860226,0.0018012445652857423
145.0,0.0,0.0,0.0,0.0,0.0,0.0,0.014520674012601376,0.002429553074762225,-0.010643751360476017,0.99992436170578,-0.0022683634888380766,0.011992995627224445,0.0015227313851937652
146.0,0.0,0.0,0.0,0.0,0.0,0.0,0.01813574507832527,0.003355990629643202,-0.021393703296780586,0.9999333024024963,-0.0017193419625982642,0.011352348141372204,0.0012242296943441033
147.0,0.0,0.0,0.0,0.0,0.0,0.0,0.01550806500017643,0.007674576248973608,-0.023359214887022972,0.9999495148658752,-0.0010245214216411114,0.009881030768156052,0.0015220091445371509
148.0,0.0,0.0,0.0,0.0,0.0,0.0,0.005679609719663858,0.007204102817922831,-0.013313354924321175,0.9999638795852661,-0.0009781933622434735,0.008201121352612972,0.0020065787248313427
149.0,0.0,0.0,0.0,0.0,0.0,0.0,0.002634431002661586,0.0036431686021387577,-0.010462729260325432,0.9999740123748779,-0.0009662514785304666,0.006474441848695278,0.003019035095348954
150.0,0.0,0.0,0.0,0.0,0.0,0.0,0.010805574245750904,-0.00164308852981776,-0.02196715772151947,0.9999827146530151,-0.0012210895074531436,0.004619614686816931,0.003422975540161133
151.0,0.0,0.0,0.0,0.0,0.0,0.0,0.015389869920909405,0.008981390856206417,-0.01858307234942913,0.9999862909317017,-0.0015454789390787482,0.0030726504046469927,0.003949417732656002
152.0,0.0,0.0,0.0,0.0,0.0,0.0,0.009321593679487705,0.019034527242183685,-0.013589541427791119,0.9999843239784241,-0.0016484585357829928,0.0011493607889860868,0.00521959038451314
153.0,0.0,0.0,0.0,0.0,0.0,0.0,0.007153692655265331,0.02286059968173504,-0.0073160445317626,0.9999764561653137,-0.0024823667481541634,-0.0012926335912197828,0.006264647003263235
154.0,0.0,0.0,0.0,0.0,0.0,0.0,0.0055035618133842945,0.02401019260287285,0.003268975066021085,0.9999576210975647,-0.003450194373726845,-0.00399499386548996,0.007536760997027159
155.0,0.0,0.0,0.0,0.0,0.0,0.0,-0.003844528691843152,0.020114831626415253,0.004834771156311035,0.9999353885650635,-0.004254275467246771,-0.006468341685831547,0.008318132720887661
156.0,0.0,0.0,0.0,0.0,0.0,0.0,-0.0029459528159350157,0.02501922845840454,0.003438818035647273,0.999914288520813,-0.0046484097838401794,-0.00882224552333355,0.008482147939503193
157.0,0.0,0.0,0.0,0.0,0.0,0.0,-0.003127998672425747,0.0374147929251194,0.004136151168495417,0.9998776316642761,-0.005299535114318132,-0.012115725316107273,0.008357545360922813
158.0,0.0,0.0,0.0,0.0,0.0,0.0,-0.02813420630991459,0.06433302909135818,0.031391169875860214,0.9998302459716797,-0.0057641612365841866,-0.015319505706429482,0.008460136130452156
159.0,0.0,0.0,0.0,0.0,0.0,0.0,-0.033578015863895416,0.06117498129606247,0.025283224880695343,0.9997979402542114,-0.005440955515950918,-0.017650417983531952,0.00792126264423132
160.0,0.0,0.0,0.0,0.0,0.0,0.0,-0.011470368131995201,0.035762131214141846,0.014563563279807568,0.9997836947441101,-0.0039058388210833073,-0.018819011747837067,0.00793366227298975
161.0,0.0,0.0,0.0,0.0,0.0,0.0,-0.017161311581730843,0.031089862808585167,0.010257317684590816,0.9997739195823669,-0.002087600762024522,-0.019284751266241074,0.008705462329089642
162.0,0.0,0.0,0.0,0.0,0.0,0.0,-0.015495865605771542,0.05502431094646454,0.02838713675737381,0.9997619390487671,0.0006976977456361055,-0.020148281008005142,0.008342713117599487
163.0,0.0,0.0,0.0,0.0,0.0,0.0,-0.027897855266928673,0.027685165405273438,0.014204581268131733,0.9997493028640747,0.0031759219709783792,-0.01946578547358513,0.010602972470223904
164.0,0.0,0.0,0.0,0.0,0.0,0.0,0.03270731493830681,-0.023632505908608437,-0.021853432059288025,0.9997512102127075,0.005468458402901888,-0.018391652032732964,0.011371158994734287
165.0,0.0,0.0,0.0,0.0,0.0,0.0,0.027740320190787315,-0.00407922500744462,-0.004383658524602652,0.9997478127479553,0.0077527607791125774,-0.017559781670570374,0.011653339490294456
166.0,0.0,0.0,0.0,0.0,0.0,0.0,0.011679691262543201,0.0174573864787817,0.00867142342031002,0.9997054934501648,0.01012132503092289,-0.017359040677547455,0.013597515411674976
167.0,0.0,0.0,0.0,0.0,0.0,0.0,0.03413940966129303,-0.003772480646148324,-0.013511520810425282,0.9996402263641357,0.012451967224478722,-0.01776748336851597,0.01576925814151764
168.0,0.0,0.0,0.0,0.0,0.0,0.0,0.04265063256025314,-0.015996532514691353,-0.021449381485581398,0.9995731115341187,0.01451372541487217,-0.018325747922062874,0.01752268709242344
169.0,0.0,0.0,0.0,0.0,0.0,0.0,0.02097299136221409,-0.013294096104800701,-0.0016087561380118132,0.9994980692863464,0.01621364988386631,-0.019119178876280785,0.019366303458809853
170.0,0.0,0.0,0.0,0.0,0.0,0.0,0.00042379318620078266,-0.009888388216495514,0.018832312896847725,0.9994477033615112,0.01744888722896576,-0.0198943093419075,0.020098915323615074
171.0,0.0,0.0,0.0,0.0,0.0,0.0,0.0003403599257580936,-0.009135945700109005,0.015096140094101429,0.9994487166404724,0.018141180276870728,-0.01932760886847973,0.01998942531645298
172.0,0.0,0.0,0.0,0.0,0.0,0.0,0.02356087602674961,-0.01965143159031868,-0.02804206870496273,0.9994391798973083,0.01909203641116619,-0.01952124573290348,0.019378921017050743
173.0,0.0,0.0,0.0,0.0,0.0,0.0,0.02924695611000061,-0.03647802397608757,-0.04346275329589844,0.9994537830352783,0.019497407600283623,-0.018841180950403214,0.01889120787382126
174.0,0.0,0.0,0.0,0.0,0.0,0.0,0.02424824982881546,-0.04764310270547867,-0.03904933109879494,0.9994741678237915,0.0190565288066864,-0.01757870614528656,0.019468067213892937
175.0,0.0,0.0,0.0,0.0,0.0,0.0,0.023967541754245758,-0.04877869039773941,-0.046938925981521606,0.9994524121284485,0.01834593527019024,-0.017328614369034767,0.02140423282980919
176.0,0.0,0.0,0.0,0.0,0.0,0.0,0.02584712766110897,-0.040904510766267776,-0.04285043850541115,0.9994444847106934,0.01727122627198696,-0.018100034445524216,0.022017283365130424
177.0,0.0,0.0,0.0,0.0,0.0,0.0,0.02169548161327839,-0.02769746258854866,-0.038142334669828415,0.9994738698005676,0.015923498198390007,-0.01886049471795559,0.02103320322930813
178.0,0.0,0.0,0.0,0.0,0.0,0.0,0.008829448372125626,-0.020623784512281418,-0.026418695226311684,0.9994982481002808,0.014255398884415627,-0.019596831873059273,0.02039661817252636
179.0,0.0,0.0,0.0,0.0,0.0,0.0,0.0020629761274904013,-0.004651651717722416,-0.020283611491322517,0.9995062947273254,0.011898558586835861,-0.020279860123991966,0.020832262933254242
180.0,0.0,0.0,0.0,0.0,0.0,0.0,-0.0059540485963225365,0.01656465418636799,-0.005502898711711168,0.9995132088661194,0.009672343730926514,-0.020152924582362175,0.02176150307059288
181.0,0.0,0.0,0.0,0.0,0.0,0.0,-0.018848959356546402,0.019075432792305946,0.006329972296953201,0.999524712562561,0.006896036211401224,-0.019951021298766136,0.022461870685219765
182.0,0.0,0.0,0.0,0.0,0.0,0.0,-0.032092366367578506,0.0171201229095459,0.007130845915526152,0.999563992023468,0.0034786558244377375,-0.019103188067674637,0.02223913185298443
183.0,0.0,0.0,0.0,0.0,0.0,0.0,-0.024264629930257797,0.020562516525387764,0.003311177482828498,0.9996107816696167,0.00012607967073563486,-0.017615187913179398,0.02163315750658512
184.0,0.0,0.0,0.0,0.0,0.0,0.0,-0.014228575862944126,0.02613772265613079,-0.0003863908932544291,0.999661386013031,-0.002930876100435853,-0.01601177267730236,0.02030334807932377
185.0,0.0,0.0,0.0,0.0,0.0,0.0,-0.02364080213010311,0.027995219454169273,0.0066110603511333466,0.9997056126594543,-0.005600457079708576,-0.014176427386701107,0.018870264291763306
186.0,0.0,0.0,0.0,0.0,0.0,0.0,-0.009479590691626072,0.004647786263376474,-0.003248390508815646,0.999742865562439,-0.007836553268134594,-0.012183348648250103,0.017440611496567726
187.0,0.0,0.0,0.0,0.0,0.0,0.0,0.006254240870475769,-0.00731133995577693,-0.01992972567677498,0.9997864365577698,-0.00988619402050972,-0.010831665247678757,0.01456775888800621
188.0,0.0,0.0,0.0,0.0,0.0,0.0,-0.007506680674850941,-0.004719698801636696,-0.015075789764523506,0.9998006820678711,-0.011930425651371479,-0.009871263056993484,0.012610689736902714
189.0,0.0,0.0,0.0,0.0,0.0,0.0,-0.008057736791670322,-0.007122698239982128,-0.006052559241652489,0.999790608882904,-0.014102480374276638,-0.009485973976552486,0.011402425356209278
190.0,0.0,0.0,0.0,0.0,0.0,0.0,0.008492311462759972,-0.014478459022939205,-0.01105579361319542,0.9997925162315369,-0.0162850022315979,-0.007758781313896179,0.009449882432818413
191.0,0.0,0.0,0.0,0.0,0.0,0.0,-0.001100753084756434,-0.016631385311484337,-0.0031610331498086452,0.9997659921646118,-0.019174640998244286,-0.005305313505232334,0.008458154276013374
192.0,0.0,0.0,0.0,0.0,0.0,0.0,-0.0278912466019392,0.004472892731428146,0.031235255300998688,0.9997329711914062,-0.022380081936717033,-0.0006521579925902188,0.005695807281881571
193.0,0.0,0.0,0.0,0.0,0.0,0.0,-0.030607080087065697,0.03245237469673157,0.040994275361299515,0.9996526837348938,-0.02567821741104126,0.005573956295847893,0.0017886420246213675
194.0,0.0,0.0,0.0,0.0,0.0,0.0,-0.024328336119651794,0.06035265326499939,0.01748998835682869,0.9995104074478149,-0.028730999678373337,0.012384580448269844,-0.0005212371470406651
195.0,0.0,0.0,0.0,0.0,0.0,0.0,-0.01853453740477562,0.07169951498508453,0.01964125595986843,0.9993300437927246,-0.03128533810377121,0.018821872770786285,-0.0023524961434304714
196.0,0.0,0.0,0.0,0.0,0.0,0.0,0.004423958249390125,0.022898772731423378,0.006106347311288118,0.9991405010223389,-0.03448248654603958,0.022780561819672585,-0.0031453154515475035
197.0,0.0,0.0,0.0,0.0,0.0,0.0,0.01117115281522274,-0.02719925530254841,0.01997629925608635,0.9988783001899719,-0.0381031334400177,0.027307728305459023,-0.006633374840021133
198.0,0.0,0.0,0.0,0.0,0.0,0.0,-0.008253770880401134,0.029569435864686966,0.03807216137647629,0.9986458420753479,-0.040046196430921555,0.03206079453229904,-0.008693894371390343
199.0,0.0,0.0,0.0,0.0,0.0,0.0,-0.010793432593345642,0.04832335561513901,0.0237410981208086,0.9984766244888306,-0.04115138202905655,0.03604956343770027,-0.007075566798448563
200.0,0.0,0.0,0.0,0.0,0.0,0.0,0.005944536533206701,-0.013181650079786777,0.02840416692197323,0.9983583092689514,-0.042767804116010666,0.03758278861641884,-0.006248323246836662
201.0,0.0,0.0,0.0,0.0,0.0,0.0,0.050177495926618576,-0.016751360148191452,-0.007003999315202236,0.9985088109970093,-0.042067211121320724,0.03456351161003113,-0.003956304397433996
202.0,0.0,0.0,0.0,0.0,0.0,0.0,0.05191709101200104,-0.016437893733382225,-0.020341187715530396,0.9985459446907043,-0.042269982397556305,0.03345346450805664,3.1887058867141604e-05
203.0,0.0,0.0,0.0,0.0,0.0,0.0,-0.005445051938295364,-0.010777118615806103,0.029851354658603668,0.998521625995636,-0.043715786188840866,0.03221273049712181,0.002383009996265173
204.0,0.0,0.0,0.0,0.0,0.0,0.0,0.00039685177034698427,0.021222148090600967,0.01039193943142891,0.9985317587852478,-0.04583728685975075,0.02856600657105446,0.004147846717387438
205.0,0.0,0.0,0.0,0.0,0.0,0.0,0.04400124400854111,0.00736274104565382,-0.032812170684337616,0.9985923767089844,-0.04726099222898483,0.023152654990553856,0.0065489113330841064
206.0,0.0,0.0,0.0,0.0,0.0,0.0,0.0633259192109108,0.013319641351699829,-0.03342214226722717,0.9987423419952393,-0.047531772404909134,0.012574348598718643,0.009778916835784912
207.0,0.0,0.0,0.0,0.0,0.0,0.0,0.06062626093626022,0.024245815351605415,-0.035902541130781174,0.9987868666648865,-0.04779645800590515,-0.006353330332785845,0.009934798814356327
208.0,0.0,0.0,0.0,0.0,0.0,0.0,0.010438177734613419,0.023204907774925232,-0.0005503239808604121,0.998354434967041,-0.0504402332007885,-0.027113083750009537,0.002864516107365489
209.0,0.0,0.0,0.0,0.0,0.0,0.0,-0.06850022822618484,0.052124038338661194,0.04057072848081589,0.997459352016449,-0.05314880982041359,-0.04685288295149803,-0.007401551119983196
210.0,0.0,0.0,0.0,0.0,0.0,0.0,-0.18070460855960846,0.027073495090007782,0.10056617856025696,0.9967166185379028,-0.0549442321062088,-0.05854949355125427,-0.010406558401882648
211.0,0.0,0.0,0.0,0.0,0.0,0.0,-0.13284046947956085,0.025297891348600388,0.07932958751916885,0.9967254400253296,-0.05513503775000572,-0.05897407978773117,-0.00445834593847394
212.0,0.0,0.0,0.0,0.0,0.0,0.0,0.0074712615460157394,0.05580213665962219,0.04050741717219353,0.9967982769012451,-0.05202517658472061,-0.06072280928492546,-0.0006277560605667531
213.0,0.0,0.0,0.0,0.0,0.0,0.0,-0.04358155280351639,0.027547704055905342,0.02969224750995636,0.9971999526023865,-0.04741883650422096,-0.05780484527349472,-0.00034866054193116724
214.0,0.0,0.0,0.0,0.0,0.0,0.0,-0.017660662531852722,-0.0007662140415050089,0.031885094940662384,0.9975990056991577,-0.04260600358247757,-0.05453634634613991,-0.0021523176692426205
215.0,0.0,0.0,0.0,0.0,0.0,0.0,0.004851925186812878,0.0002468610182404518,-0.008434927091002464,0.9981175661087036,-0.03665902465581894,-0.048870984464883804,-0.005329230800271034
216.0,0.0,0.0,0.0,0.0,0.0,0.0,-0.013670538552105427,-0.014746207743883133,-0.001793327392078936,0.998695433139801,-0.03029198944568634,-0.040412481874227524,-0.007531244307756424
217.0,0.0,0.0,0.0,0.0,0.0,0.0,0.016758687794208527,0.007784344721585512,-0.015093519352376461,0.9992826581001282,-0.024451307952404022,-0.028669552877545357,-0.003626521211117506
218.0,0.0,0.0,0.0,0.0,0.0,0.0,0.06282682716846466,0.06875649839639664,-0.04308444634079933,0.9996609091758728,-0.019199103116989136,-0.017482604831457138,0.0019427966326475143
219.0,0.0,0.0,0.0,0.0,0.0,0.0,0.057262010872364044,0.05066762492060661,-0.04692663997411728,0.9998312592506409,-0.01578919030725956,-0.00607758155092597,0.007074413355439901
220.0,0.0,0.0,0.0,0.0,0.0,0.0,0.03372487053275108,-0.04874514415860176,-0.013104673475027084,0.9998267292976379,-0.0155972084030509,0.005465155467391014,0.008582482114434242
221.0,0.0,0.0,0.0,0.0,0.0,0.0,0.02595137245953083,-0.043030768632888794,0.009750408120453358,0.9997494220733643,-0.01634480431675911,0.01473292801529169,0.004128097556531429
222.0,0.0,0.0,0.0,0.0,0.0,0.0,0.01653601974248886,0.0263229887932539,-0.037098515778779984,0.9997110366821289,-0.015166264958679676,0.01864522136747837,0.00013208488235250115
223.0,0.0,0.0,0.0,0.0,0.0,0.0,0.004312519449740648,0.03841852769255638,-0.03176690638065338,0.9996633529663086,-0.014102747663855553,0.02175549417734146,-0.0006388231995515525
224.0,0.0,0.0,0.0,0.0,0.0,0.0,0.03525673598051071,-0.0057501220144331455,-0.013436242938041687,0.9996412992477417,-0.014717424288392067,0.022371990606188774,-0.00044693733798339963
225.0,0.0,0.0,0.0,0.0,0.0,0.0,0.08098557591438293,-0.03998926654458046,-0.06101163104176521,0.9996477365493774,-0.016773035749793053,0.020510490983724594,0.0016652615740895271
226.0,0.0,0.0,0.0,0.0,0.0,0.0,0.040356796234846115,-0.009597052820026875,-0.05151780694723129,0.9996350407600403,-0.019180329516530037,0.0181831456720829,0.005605857819318771
227.0,0.0,0.0,0.0,0.0,0.0,0.0,-0.038223642855882645,0.03873156011104584,-0.005975601263344288,0.9996182918548584,-0.021587003022432327,0.014429567381739616,0.009443158283829689
228.0,0.0,0.0,0.0,0.0,0.0,0.0,-0.05835261940956116,0.07725819200277328,0.02536007948219776,0.9996089339256287,-0.022746028378605843,0.011968526057898998,0.011004701256752014
229.0,0.0,0.0,0.0,0.0,0.0,0.0,-0.07396624237298965,0.06583248823881149,0.038446296006441116,0.9996007084846497,-0.02254684828221798,0.011856522411108017,0.012225865386426449
230.0,0.0,0.0,0.0,0.0,0.0,0.0,-0.05625755712389946,0.04904372617602348,0.016924908384680748,0.9996411204338074,-0.020900312811136246,0.01226491667330265,0.011426401324570179
231.0,0.0,0.0,0.0,0.0,0.0,0.0,-0.016123227775096893,0.004654850345104933,-0.005410440731793642,0.9996815323829651,-0.019272075966000557,0.01366136409342289,0.008871088735759258
232.0,0.0,0.0,0.0,0.0,0.0,0.0,-0.014200439676642418,-0.004288125317543745,-0.008979050442576408,0.9997115731239319,-0.018031693994998932,0.014194701798260212,0.0070761265233159065
233.0,0.0,0.0,0.0,0.0,0.0,0.0,-0.015887241810560226,0.006414045579731464,-0.022894565016031265,0.9997305870056152,-0.016885707154870033,0.014742184430360794,0.006008935160934925
234.0,0.0,0.0,0.0,0.0,0.0,0.0,0.007804335094988346,-0.0026741940528154373,-0.031175201758742332,0.9997417330741882,-0.015591644681990147,0.014953295700252056,0.007057042792439461
235.0,0.0,0.0,0.0,0.0,0.0,0.0,0.020066967234015465,-0.0020977729000151157,-0.054596349596977234,0.9997617602348328,-0.014146661385893822,0.013752400875091553,0.009331616573035717
236.0,0.0,0.0,0.0,0.0,0.0,0.0,-0.018737634643912315,0.0006675274926237762,-0.040676068514585495,0.9997444748878479,-0.012883298099040985,0.014568238519132137,0.011521616019308567
237.0,0.0,0.0,0.0,0.0,0.0,0.0,-0.04305994138121605,0.01422086264938116,-0.006244369316846132,0.9997244477272034,-0.01144707016646862,0.015441684983670712,0.01345780212432146
238.0,0.0,0.0,0.0,0.0,0.0,0.0,-0.004166211932897568,0.0054137567058205605,-0.04321472719311714,0.9997523427009583,-0.010273410938680172,0.01395975798368454,0.013961581513285637
239.0,0.0,0.0,0.0,0.0,0.0,0.0,0.01239048782736063,-0.022215494886040688,-0.05565899237990379,0.9997975826263428,-0.009962470270693302,0.011817559599876404,0.012877222150564194
240.0,0.0,0.0,0.0,0.0,0.0,0.0,-0.002463497221469879,-0.011998399160802364,-0.03837432712316513,0.9998423457145691,-0.010383552871644497,0.007911015301942825,0.012038450688123703
241.0,0.0,0.0,0.0,0.0,0.0,0.0,0.03197134658694267,0.005499820224940777,-0.05908878147602081,0.999880313873291,-0.010548384860157967,5.912732376600616e-05,0.011294255964457989
242.0,0.0,0.0,0.0,0.0,0.0,0.0,0.027262408286333084,0.016041873022913933,-0.06906364113092422,0.9997938871383667,-0.011710932478308678,-0.010798180475831032,0.012580838985741138
243.0,0.0,0.0,0.0,0.0,0.0,0.0,-0.041703883558511734,0.026660006493330002,-0.022982588037848473,0.9995301961898804,-0.014412465505301952,-0.02267962321639061,0.01471210177987814
244.0,0.0,0.0,0.0,0.0,0.0,0.0,-0.1128712072968483,0.0449189692735672,0.018032865598797798,0.9992995262145996,-0.01696162484586239,-0.02875063195824623,0.016915373504161835
245.0,0.0,0.0,0.0,0.0,0.0,0.0,-0.0468418188393116,0.023812396451830864,-0.007020635064691305,0.9990654587745667,-0.01879609189927578,-0.03444862365722656,0.01811407320201397
246.0,0.0,0.0,0.0,0.0,0.0,0.0,-0.0312185175716877,0.011202671565115452,-0.013589694164693356,0.9988579154014587,-0.019343331456184387,-0.03960919752717018,0.018447479233145714
247.0,0.0,0.0,0.0,0.0,0.0,0.0,-0.053615838289260864,-0.007157818414270878,-0.013632841408252716,0.9987079501152039,-0.02102728746831417,-0.04318481311202049,0.01659056358039379
248.0,0.0,0.0,0.0,0.0,0.0,0.0,-0.04103454202413559,-0.014388274401426315,0.00630978774279356,0.9985795617103577,-0.02400788478553295,-0.04563220217823982,0.013433896005153656
249.0,0.0,0.0,0.0,0.0,0.0,0.0,-0.04082394018769264,0.014105343259871006,-0.0008965558954514563,0.9985100626945496,-0.026383591815829277,-0.04654741287231445,0.010676614940166473
250.0,0.0,0.0,0.0,0.0,0.0,0.0,-0.03040771558880806,0.016202792525291443,-0.0017997585237026215,0.9984897971153259,-0.028999168425798416,-0.04574788361787796,0.009122501127421856
251.0,0.0,0.0,0.0,0.0,0.0,0.0,-0.05554385483264923,0.011415227316319942,0.025636805221438408,0.998515248298645,-0.031956348568201065,-0.04311314597725868,0.009337913244962692
252.0,0.0,0.0,0.0,0.0,0.0,0.0,-0.025313420221209526,0.03208352252840996,0.02379109524190426,0.9985682964324951,-0.034036967903375626,-0.0399196483194828,0.01038020197302103
253.0,0.0,0.0,0.0,0.0,0.0,0.0,-0.005547761917114258,0.042016178369522095,0.006226931698620319,0.998637318611145,-0.03537876531481743,-0.03698151558637619,0.010155665688216686
254.0,0.0,0.0,0.0,0.0,0.0,0.0,-0.07092098146677017,0.04789382964372635,0.03531830757856369,0.9987650513648987,-0.03716262802481651,-0.03191787376999855,0.008237537927925587
255.0,0.0,0.0,0.0,0.0,0.0,0.0,-0.09078752994537354,0.057728417217731476,0.07018716633319855,0.9990090131759644,-0.03819404914975166,-0.022497426718473434,0.003957850858569145
256.0,0.0,0.0,0.0,0.0,0.0,0.0,-0.007315721828490496,0.015754535794258118,0.036861710250377655,0.9991465210914612,-0.03856740891933441,-0.014779618009924889,0.0005386609700508416
257.0,0.0,0.0,0.0,0.0,0.0,0.0,-0.0010855590226128697,0.022335467860102654,0.006817572750151157,0.999238908290863,-0.03829635679721832,-0.00737181818112731,-0.00011308143439237028
258.0,0.0,0.0,0.0,0.0,0.0,0.0,0.016158509999513626,0.038465674966573715,0.011838683858513832,0.9992902874946594,-0.03764777258038521,0.0007796494173817337,0.0004940687213093042
259.0,0.0,0.0,0.0,0.0,0.0,0.0,0.03290912136435509,0.038791343569755554,0.007523575332015753,0.9992877840995789,-0.03665069863200188,0.008871886879205704,0.0010250072227790952
260.0,0.0,0.0,0.0,0.0,0.0,0.0,0.011725453659892082,0.03259607404470444,0.008853130973875523,0.9991981387138367,-0.0363839715719223,0.0166073739528656,0.0016177995130419731
261.0,0.0,0.0,0.0,0.0,0.0,0.0,0.0010046758688986301,0.04422181472182274,0.007598872296512127,0.9991062879562378,-0.03515678271651268,0.023465214297175407,-0.00015832495409995317
262.0,0.0,0.0,0.0,0.0,0.0,0.0,0.014953029341995716,0.030703239142894745,-0.0014454303309321404,0.9989883303642273,-0.03406403586268425,0.02928583137691021,-0.002019630977883935
263.0,0.0,0.0,0.0,0.0,0.0,0.0,0.03557484969496727,-0.00715826079249382,-0.008681858889758587,0.9988809823989868,-0.0338285006582737,0.032882675528526306,-0.003328202059492469
264.0,0.0,0.0,0.0,0.0,0.0,0.0,0.03580384701490402,-0.01272428035736084,-0.013243135996162891,0.9987323880195618,-0.03370882570743561,0.03712516278028488,-0.004347820766270161
265.0,0.0,0.0,0.0,0.0,0.0,0.0,0.03373231366276741,0.004694005008786917,-0.01872078888118267,0.9986317753791809,-0.03316804766654968,0.04028671979904175,-0.0033115025144070387
266.0,0.0,0.0,0.0,0.0,0.0,0.0,0.00805628765374422,0.022590219974517822,-0.0007353932596743107,0.9984933137893677,-0.03238056227564812,0.04429570212960243,-0.00022365531185641885
267.0,0.0,0.0,0.0,0.0,0.0,0.0,0.0006870432989671826,0.025086896494030952,0.002893617609515786,0.9983779788017273,-0.03147582709789276,0.047364410012960434,0.002636384218931198
268.0,0.0,0.0,0.0,0.0,0.0,0.0,0.027134926989674568,0.012535231187939644,-0.0393998809158802,0.9983159899711609,-0.03000125288963318,0.049514852464199066,0.0037342237774282694
269.0,0.0,0.0,0.0,0.0,0.0,0.0,0.0234647486358881,-0.012390131130814552,-0.013897018507122993,0.998222827911377,-0.029769670218229294,0.05157606303691864,0.0020775343291461468
270.0,0.0,0.0,0.0,0.0,0.0,0.0,0.03804132714867592,0.00023921029060147703,-0.029385820031166077,0.9982696175575256,-0.02935892529785633,0.05094055458903313,2.128459709638264e-05
271.0,0.0,0.0,0.0,0.0,0.0,0.0,0.0012577183078974485,0.012450351379811764,-0.022794945165514946,0.998245894908905,-0.02877567522227764,0.051734182983636856,-0.0003061808820348233
272.0,0.0,0.0,0.0,0.0,0.0,0.0,-0.023627994582057,0.016177816316485405,0.020331349223852158,0.99815833568573,-0.0286922175437212,0.053441084921360016,0.00038525628042407334
273.0,0.0,0.0,0.0,0.0,0.0,0.0,0.018400974571704865,-0.0006849911296740174,-0.014879874885082245,0.9980621337890625,-0.028558148071169853,0.0552576407790184,0.0015532614197582006
274.0,0.0,0.0,0.0,0.0,0.0,0.0,0.03804744780063629,-0.009316476061940193,-0.024803640320897102,0.998033881187439,-0.02837822586297989,0.05578972399234772,0.003193978685885668
275.0,0.0,0.0,0.0,0.0,0.0,0.0,0.029304927214980125,-0.006965648848563433,-0.018550589680671692,0.9981419444084167,-0.027902739122509956,0.05397028103470802,0.004544069990515709
276.0,0.0,0.0,0.0,0.0,0.0,0.0,0.029848206788301468,-0.0015060632722452283,-0.01588541269302368,0.9983422756195068,-0.026987023651599884,0.05057627707719803,0.005108836106956005
277.0,0.0,0.0,0.0,0.0,0.0,0.0,-0.004117610398679972,0.004748773295432329,0.001978310290724039,0.9985106587409973,-0.026330575346946716,0.04739043489098549,0.006078594364225864
278.0,0.0,0.0,0.0,0.0,0.0,0.0,-0.0244776401668787,0.0053572626784443855,0.021535605192184448,0.9986194968223572,-0.026413558050990105,0.044833097606897354,0.007161639630794525
279.0,0.0,0.0,0.0,0.0,0.0,0.0,-0.01987176202237606,0.010232525877654552,0.021609019488096237,0.9986786246299744,-0.026401596143841743,0.04328015446662903,0.008388040587306023
280.0,0.0,0.0,0.0,0.0,0.0,0.0,0.003026185790076852,0.015175260603427887,-0.00525546632707119,0.998813271522522,-0.026231257244944572,0.039814312011003494,0.009918813593685627
281.0,0.0,0.0,0.0,0.0,0.0,0.0,0.0011419164948165417,0.006961759179830551,-0.007789224851876497,0.9989747405052185,-0.0257063377648592,0.03583896532654762,0.010209128260612488
282.0,0.0,0.0,0.0,0.0,0.0,0.0,-0.0258906539529562,0.008563918992877007,0.022479718551039696,0.9991016387939453,-0.02468816377222538,0.0328483060002327,0.010352123528718948
283.0,0.0,0.0,0.0,0.0,0.0,0.0,-0.0467539019882679,0.013729138299822807,0.03809147700667381,0.9991371631622314,-0.02433548867702484,0.032277461141347885,0.009523662738502026
284.0,0.0,0.0,0.0,0.0,0.0,0.0,-0.022187890484929085,0.001326304511167109,0.018332013860344887,0.9991462826728821,-0.024388175457715988,0.032383449375629425,0.007945862598717213
285.0,0.0,0.0,0.0,0.0,0.0,0.0,0.0226536113768816,-0.01901400461792946,-0.01199760939925909,0.9991788268089294,-0.024204030632972717,0.03161149471998215,0.0074724773876369
286.0,0.0,0.0,0.0,0.0,0.0,0.0,-0.007081180345267057,-0.006010693963617086,0.005144832190126181,0.9991478323936462,-0.02423316240310669,0.032559044659137726,0.0075119598768651485
287.0,0.0,0.0,0.0,0.0,0.0,0.0,-0.020066751167178154,-0.00032566289883106947,0.02623315155506134,0.9990854263305664,-0.024962661787867546,0.03382432088255882,0.007795864250510931
288.0,0.0,0.0,0.0,0.0,0.0,0.0,0.00297669623978436,-0.006712594069540501,0.0030449428595602512,0.999100923538208,-0.02546401135623455,0.03289167210459709,0.008141588419675827
289.0,0.0,0.0,0.0,0.0,0.0,0.0,0.015177272260189056,-0.014350629411637783,-0.015811936929821968,0.9991257786750793,-0.026009419932961464,0.03185328468680382,0.007544147316366434
290.0,0.0,0.0,0.0,0.0,0.0,0.0,-0.009080753661692142,-0.015972673892974854,0.007695920765399933,0.999123752117157,-0.027326205745339394,0.031035397201776505,0.006459852214902639
291.0,0.0,0.0,0.0,0.0,0.0,0.0,-0.007883463986217976,0.009544992819428444,-0.002233335981145501,0.9992032051086426,-0.027360932901501656,0.02863912843167782,0.004915046971291304
292.0,0.0,0.0,0.0,0.0,0.0,0.0,-0.03497971594333649,0.030635559931397438,-0.01069054938852787,0.9993090629577637,-0.026494624093174934,0.02564673125743866,0.004702302161604166
293.0,0.0,0.0,0.0,0.0,0.0,0.0,-0.0031699957326054573,0.014033548533916473,-0.01864463835954666,0.9995333552360535,-0.024978993460536003,0.016599126160144806,0.0057782987132668495
294.0,0.0,0.0,0.0,0.0,0.0,0.0,0.011384807527065277,-0.0045812008902430534,-0.0328715555369854,0.9997181296348572,-0.022393066436052322,0.0043047452345490456,0.006624971982091665
295.0,0.0,0.0,0.0,0.0,0.0,0.0,-0.04968830198049545,-0.013947293162345886,0.03834797069430351,0.99977707862854,-0.019438276067376137,-0.0012649494456127286,0.008137029595673084
296.0,0.0,0.0,0.0,0.0,0.0,0.0,-0.09745680540800095,0.011916521936655045,0.11329541355371475,0.9998060464859009,-0.016694340854883194,0.0008072566706687212,0.01042164582759142
297.0,0.0,0.0,0.0,0.0,0.0,0.0,-0.0636664479970932,0.03159792348742485,0.03837623819708824,0.9998379349708557,-0.014206926338374615,0.0030907164327800274,0.010602912865579128
298.0,0.0,0.0,0.0,0.0,0.0,0.0,0.05214712768793106,0.006403469480574131,-0.04527096077799797,0.9999030828475952,-0.009323865175247192,0.0016649458557367325,0.010172448121011257
299.0,0.0,0.0,0.0,0.0,0.0,0.0,-0.004496576730161905,-0.01597880944609642,0.004693485796451569,0.9999122023582458,-0.005397377535700798,0.004041977226734161,0.011399044655263424
300.0,0.0,0.0,0.0,0.0,0.0,0.0,-0.007367007900029421,-0.02305450104176998,0.005970558617264032,0.9999297261238098,-0.003197489073500037,0.004344445187598467,0.010547148063778877
301.0,0.0,0.0,0.0,0.0,0.0,0.0,0.04067447409033775,-0.01366217527538538,-0.029676223173737526,0.9999353289604187,-0.0009615558665245771,0.0035554375499486923,0.010731181129813194
302.0,0.0,0.0,0.0,0.0,0.0,0.0,0.0140107162296772,-0.012232880108058453,-0.01261532586067915,0.9999250173568726,0.0006683491519652307,0.0033610330428928137,0.011754285544157028
303.0,0.0,0.0,0.0,0.0,0.0,0.0,-3.34894830302801e-05,0.009038122370839119,0.0030689698178321123,0.9999037981033325,0.0024144030176103115,0.0015554506098851562,0.013547820039093494
304.0,0.0,0.0,0.0,0.0,0.0,0.0,-0.0010335077531635761,0.018206043168902397,-0.004837794695049524,0.9998663663864136,0.004654920194298029,0.0008368820999749005,0.01564553752541542
305.0,0.0,0.0,0.0,0.0,0.0,0.0,-0.00017206482880283147,0.02002142183482647,3.102950131506077e-06,0.9998133182525635,0.007286146283149719,0.001303303986787796,0.01784444786608219
306.0,0.0,0.0,0.0,0.0,0.0,0.0,-0.008000826463103294,0.006690115202218294,0.009493047371506691,0.9997463822364807,0.010037939064204693,0.0018282097298651934,0.020067768171429634
307.0,0.0,0.0,0.0,0.0,0.0,0.0,-0.0037737658713012934,0.005338362418115139,-0.0003088436496909708,0.9996935129165649,0.012790434993803501,0.0025218683294951916,0.021037114784121513
308.0,0.0,0.0,0.0,0.0,0.0,0.0,0.006431243382394314,-0.004297432489693165,-0.01797132007777691,0.9996647834777832,0.0157402902841568,0.0025665711145848036,0.020393522456288338
309.0,0.0,0.0,0.0,0.0,0.0,0.0,0.017501330003142357,-0.024058593437075615,-0.02183673344552517,0.9995988607406616,0.01791883446276188,0.0031791627407073975,0.021693967282772064
310.0,0.0,0.0,0.0,0.0,0.0,0.0,0.014078942127525806,-0.01223703846335411,-0.027563026174902916,0.9994933009147644,0.020322825759649277,0.004111774731427431,0.02414621412754059
311.0,0.0,0.0,0.0,0.0,0.0,0.0,0.01592339761555195,-0.006281091831624508,-0.036917492747306824,0.9993822574615479,0.02142367698252201,0.005198242142796516,0.02736440673470497
312.0,0.0,0.0,0.0,0.0,0.0,0.0,0.029618488624691963,-0.020808406174182892,-0.043565310537815094,0.9993305206298828,0.021913010627031326,0.004595780745148659,0.028933219611644745
313.0,0.0,0.0,0.0,0.0,0.0,0.0,0.002037328202277422,-0.013655800372362137,-0.03375014290213585,0.9993469715118408,0.02181231416761875,0.004795863293111324,0.028402162715792656
314.0,0.0,0.0,0.0,0.0,0.0,0.0,-0.027974480763077736,0.013411332853138447,-0.007421851623803377,0.999387800693512,0.021112782880663872,0.00614483468234539,0.027211245149374008
315.0,0.0,0.0,0.0,0.0,0.0,0.0,-0.014465739019215107,0.02211448922753334,-0.02658664807677269,0.9994328618049622,0.02051360346376896,0.006589168682694435,0.02588123455643654
316.0,0.0,0.0,0.0,0.0,0.0,0.0,-0.019129134714603424,-0.0012493589892983437,-0.01739693619310856,0.9994432926177979,0.019067885354161263,0.00800342857837677,0.02617236040532589
317.0,0.0,0.0,0.0,0.0,0.0,0.0,0.0023684671614319086,-0.015265745110809803,-0.036316171288490295,0.9994474649429321,0.017379309982061386,0.008613447658717632,0.02699200063943863
318.0,0.0,0.0,0.0,0.0,0.0,0.0,0.014840046875178814,-0.027043946087360382,-0.03814920037984848,0.9994999766349792,0.015913045033812523,0.0069231013767421246,0.026430893689393997
319.0,0.0,0.0,0.0,0.0,0.0,0.0,-0.03100690059363842,0.0029229489155113697,-0.003750832285732031,0.9995601773262024,0.014375150203704834,0.0035366895608603954,0.025694619864225388
320.0,0.0,0.0,0.0,0.0,0.0,0.0,-0.05624840408563614,0.024998310953378677,0.01493313442915678,0.9995742440223694,0.013634864240884781,0.0013277324615046382,0.025756359100341797
321.0,0.0,0.0,0.0,0.0,0.0,0.0,-0.042269885540008545,0.002925450913608074,0.025899512693285942,0.9995511174201965,0.013137834146618843,0.0027189224492758512,0.02678585611283779
322.0,0.0,0.0,0.0,0.0,0.0,0.0,-0.025817658752202988,-0.0015908118803054094,0.01532754860818386,0.9995179176330566,0.012723885476589203,0.004187763202935457,0.028003474697470665
323.0,0.0,0.0,0.0,0.0,0.0,0.0,-0.03781575709581375,0.01150417048484087,0.02022632025182247,0.9994625449180603,0.013175229541957378,0.007958920672535896,0.028939981013536453
324.0,0.0,0.0,0.0,0.0,0.0,0.0,-0.05310509353876114,0.018520954996347427,0.04025953635573387,0.9993714690208435,0.01371198333799839,0.013755646534264088,0.029655663296580315
325.0,0.0,0.0,0.0,0.0,0.0,0.0,-0.015363650396466255,0.01664496585726738,-0.014870857819914818,0.9992457628250122,0.014390024356544018,0.01852862909436226,0.030942652374505997
326.0,0.0,0.0,0.0,0.0,0.0,0.0,0.030308928340673447,-0.03697241470217705,-0.05168560892343521,0.9990854859352112,0.014992780052125454,0.023699317127466202,0.032276708632707596
327.0,0.0,0.0,0.0,0.0,0.0,0.0,0.00707996916025877,-0.039389468729496,-0.028134306892752647,0.998970627784729,0.01456292811781168,0.027563489973545074,0.032953597605228424
328.0,0.0,0.0,0.0,0.0,0.0,0.0,-0.002803064649924636,0.0042115370742976665,-0.029039327055215836,0.9989734888076782,0.014638620428740978,0.02820764109492302,0.03227958828210831
329.0,0.0,0.0,0.0,0.0,0.0,0.0,0.02080116979777813,0.002717634430155158,-0.04947727173566818,0.9989963173866272,0.015838095918297768,0.025807054713368416,0.03300626575946808
330.0,0.0,0.0,0.0,0.0,0.0,0.0,0.006683961488306522,-0.018523503094911575,-0.0401373915374279,0.9990502595901489,0.01598985306918621,0.021514130756258965,0.03435230255126953
331.0,0.0,0.0,0.0,0.0,0.0,0.0,-0.007330670487135649,-0.008189783431589603,-0.020992938429117203,0.9991674423217773,0.015301424078643322,0.016063686460256577,0.03423585742712021
332.0,0.0,0.0,0.0,0.0,0.0,0.0,0.005609056446701288,-0.008029461838304996,-0.03337274491786957,0.9993038773536682,0.014438207261264324,0.007884988561272621,0.033479031175374985
333.0,0.0,0.0,0.0,0.0,0.0,0.0,-0.03345552831888199,-0.005757035221904516,-0.004725198727101088,0.9993330240249634,0.013694793917238712,0.003709791461005807,0.03364487737417221
334.0,0.0,0.0,0.0,0.0,0.0,0.0,-0.029194926843047142,0.006223719101399183,0.025627125054597855,0.9993264079093933,0.012570916675031185,-0.00023475734633393586,0.034474000334739685
335.0,0.0,0.0,0.0,0.0,0.0,0.0,-0.014466612599790096,-0.009787940420210361,-0.0004875725135207176,0.9993911385536194,0.011693774722516537,-0.005082789342850447,0.03247394412755966
336.0,0.0,0.0,0.0,0.0,0.0,0.0,-0.0021679275669157505,-0.04113715514540672,0.015012260526418686,0.9994705319404602,0.010792707093060017,-0.006098787300288677,0.03007330745458603
337.0,0.0,0.0,0.0,0.0,0.0,0.0,-0.016627967357635498,-0.01808442361652851,0.040234584361314774,0.9995291233062744,0.009174557402729988,-0.005157006438821554,0.02881583943963051
338.0,0.0,0.0,0.0,0.0,0.0,0.0,-0.05843210220336914,0.03380436822772026,0.057040758430957794,0.9995971918106079,0.008190947584807873,-0.0017251478275284171,0.027115492150187492
339.0,0.0,0.0,0.0,0.0,0.0,0.0,-0.05652410909533501,0.03177540376782417,0.056549832224845886,0.9996351003646851,0.007457853760570288,0.005971421021968126,0.025265928357839584
340.0,0.0,0.0,0.0,0.0,0.0,0.0,0.003521386533975601,-0.048116397112607956,0.027916768565773964,0.9996256232261658,0.007229464128613472,0.014824846759438515,0.02183142676949501
341.0,0.0,0.0,0.0,0.0,0.0,0.0,0.02408069372177124,-0.05410712957382202,0.010099920444190502,0.9995372295379639,0.007437226828187704,0.02081996202468872,0.020890118554234505
342.0,0.0,0.0,0.0,0.0,0.0,0.0,-0.006782666314393282,0.008214608766138554,-0.0058512259274721146,0.9993892908096313,0.009049675427377224,0.02605929598212242,0.021448420360684395
343.0,0.0,0.0,0.0,0.0,0.0,0.0,-0.01292495895177126,0.012367954477667809,0.006028438918292522,0.9991260766983032,0.009376532398164272,0.033738356083631516,0.022827617824077606
344.0,0.0,0.0,0.0,0.0,0.0,0.0,0.06886424124240875,-0.01799577660858631,-0.013816618360579014,0.9989785552024841,0.009957523085176945,0.03670073673129082,0.024411488324403763
345.0,0.0,0.0,0.0,0.0,0.0,0.0,0.07286883890628815,-0.050761714577674866,-0.05925314128398895,0.9988651275634766,0.010147751308977604,0.03875068202614784,0.025760991498827934
346.0,0.0,0.0,0.0,0.0,0.0,0.0,0.009977109730243683,-0.030281824991106987,-0.006472884211689234,0.9987580180168152,0.00863631721585989,0.04163484647870064,0.02596658654510975
347.0,0.0,0.0,0.0,0.0,0.0,0.0,-0.03075559437274933,0.013268956914544106,0.02330438792705536,0.9987292885780334,0.00782278086990118,0.042806681245565414,0.02541799284517765
348.0,0.0,0.0,0.0,0.0,0.0,0.0,-0.001177451340481639,-0.0029367238748818636,0.00026588959735818207,0.9986659288406372,0.00710325175896287,0.044900599867105484,0.02449117973446846
349.0,0.0,0.0,0.0,0.0,0.0,0.0,0.045562129467725754,-0.03788292780518532,-0.033101845532655716,0.9986681342124939,0.006193551700562239,0.04595548287034035,0.0226211529225111
350.0,0.0,0.0,0.0,0.0,0.0,0.0,0.03495822101831436,-0.032016098499298096,-0.03576686978340149,0.9986997842788696,0.005006571300327778,0.04625854641199112,0.020821718499064445
351.0,0.0,0.0,0.0,0.0,0.0,0.0,-0.01981528289616108,-0.027199355885386467,0.005597939249128103,0.9987580180168152,0.0022520057391375303,0.04663567245006561,0.01739957556128502
352.0,0.0,0.0,0.0,0.0,0.0,0.0,0.02127387933433056,-0.024437056854367256,-0.014969632029533386,0.9991380572319031,0.0005625759367831051,0.03908820450305939,0.013964942656457424
353.0,0.0,0.0,0.0,0.0,0.0,0.0,0.0851932093501091,-0.030372750014066696,-0.09077902138233185,0.9996290802955627,-0.0001982700196094811,0.02478228323161602,0.01127923559397459
354.0,0.0,0.0,0.0,0.0,0.0,0.0,-0.01964499056339264,-0.017708366736769676,0.0903831198811531,0.9998915791511536,-0.003587383544072509,0.01149121392518282,0.008489808067679405
355.0,0.0,0.0,0.0,0.0,0.0,0.0,-0.0960649773478508,0.016817744821310043,0.06488736718893051,0.9999347925186157,-0.008537833578884602,-0.00037059435271658003,0.007545626722276211
356.0,0.0,0.0,0.0,0.0,0.0,0.0,-0.024532122537493706,0.07072364538908005,0.008418637327849865,0.9997965693473816,-0.008648031391203403,-0.013909406028687954,0.011781170032918453
357.0,0.0,0.0,0.0,0.0,0.0,0.0,-0.08791501075029373,0.07035268098115921,0.03679036721587181,0.9995763301849365,-0.008800958283245564,-0.017578432336449623,0.02143503725528717
358.0,0.0,0.0,0.0,0.0,0.0,0.0,-0.16218852996826172,0.009658758528530598,0.11587899923324585,0.9995259642601013,-0.010483360849320889,-0.010811280459165573,0.026837659999728203
359.0,0.0,0.0,0.0,0.0,0.0,0.0,-0.011781489476561546,0.024755358695983887,0.02580288238823414,0.9995434880256653,-0.009057989344000816,-0.009773637168109417,0.027132859453558922
360.0,0.0,0.0,0.0,0.0,0.0,0.0,0.01416898425668478,0.0497405119240284,-0.03310215100646019,0.9996403455734253,-0.006131316069513559,-0.003911382518708706,0.025799458846449852
361.0,0.0,0.0,0.0,0.0,0.0,0.0,-0.006143607199192047,0.017415549606084824,0.039918139576911926,0.9997320771217346,-0.005161135923117399,0.002484614495187998,0.022426504641771317
362.0,0.0,0.0,0.0,0.0,0.0,0.0,-0.023431889712810516,0.09735509753227234,0.028199337422847748,0.9997566938400269,-0.0037428264040499926,0.007346883416175842,0.020430097356438637
363.0,0.0,0.0,0.0,0.0,0.0,0.0,0.01210739091038704,0.07926388829946518,0.010967130772769451,0.9996849894523621,-0.0031506908126175404,0.01274472288787365,0.02138679102063179
364.0,0.0,0.0,0.0,0.0,0.0,0.0,0.06118502467870712,-0.07013311237096786,0.012168455868959427,0.9995633363723755,-0.006175790913403034,0.017263993620872498,0.023164864629507065
365.0,0.0,0.0,0.0,0.0,0.0,0.0,0.029220057651400566,-0.05217261612415314,0.020719097927212715,0.999403715133667,-0.010136001743376255,0.021094657480716705,0.0253873523324728
366.0,0.0,0.0,0.0,0.0,0.0,0.0,-0.0055982451885938644,0.037305280566215515,-0.007930867373943329,0.9992620944976807,-0.010926255024969578,0.023136081174016,0.028647633269429207
367.0,0.0,0.0,0.0,0.0,0.0,0.0,0.0039057754911482334,0.02509223110973835,-0.021640846505761147,0.9990630149841309,-0.01192096434533596,0.023741118609905243,0.03416408970952034
368.0,0.0,0.0,0.0,0.0,0.0,0.0,0.012625811621546745,-0.008790744468569756,-0.03308432549238205,0.9989886283874512,-0.013510947115719318,0.021866995841264725,0.03689291328191757
369.0,0.0,0.0,0.0,0.0,0.0,0.0,-0.01721537858247757,0.005664528347551823,-0.030084870755672455,0.998993456363678,-0.015317356213927269,0.019589945673942566,0.037329670041799545
370.0,0.0,0.0,0.0,0.0,0.0,0.0,-0.05558035895228386,0.04969676584005356,0.002104334067553282,0.9989442229270935,-0.016767486929893494,0.017761077731847763,0.03890128806233406
371.0,0.0,0.0,0.0,0.0,0.0,0.0,-0.05928961932659149,0.03583298251032829,0.01214270293712616,0.9989482164382935,-0.01780048944056034,0.018784234300255775,0.03785127401351929
372.0,0.0,0.0,0.0,0.0,0.0,0.0,-0.037061240524053574,-0.012220922857522964,0.006432234775274992,0.9988675713539124,-0.019859852269291878,0.021572459489107132,0.03746431693434715
373.0,0.0,0.0,0.0,0.0,0.0,0.0,-0.056159812957048416,0.005539451260119677,-0.0013689113548025489,0.9987378120422363,-0.021312765777111053,0.025321871042251587,0.03777559846639633
374.0,0.0,0.0,0.0,0.0,0.0,0.0,-0.04986780881881714,0.021489018574357033,0.005152159370481968,0.998654842376709,-0.021255819126963615,0.029616644605994225,0.03687035292387009
375.0,0.0,0.0,0.0,0.0,0.0,0.0,-0.04653953015804291,-0.010628748685121536,-0.007938888855278492,0.9985560178756714,-0.021169496700167656,0.03410711511969566,0.0356968529522419
376.0,0.0,0.0,0.0,0.0,0.0,0.0,-0.06686554849147797,-0.01487926859408617,0.009670224040746689,0.9983800649642944,-0.020401837304234505,0.04183610901236534,0.03272022306919098
377.0,0.0,0.0,0.0,0.0,0.0,0.0,-0.0164796132594347,-0.02398349717259407,-0.02099330723285675,0.9981697797775269,-0.01982920430600643,0.04966750741004944,0.02823343500494957
378.0,0.0,0.0,0.0,0.0,0.0,0.0,0.024897702038288116,-0.05303709954023361,-0.0734567940235138,0.9979570508003235,-0.01973220892250538,0.05578196793794632,0.02409370243549347
379.0,0.0,0.0,0.0,0.0,0.0,0.0,-0.02805560640990734,-0.04344267398118973,-0.03877486288547516,0.9975651502609253,-0.02020765095949173,0.06404159963130951,0.018817126750946045
380.0,0.0,0.0,0.0,0.0,0.0,0.0,-0.01915937475860119,-0.024095697328448296,-0.0012553248088806868,0.9971000552177429,-0.021680550649762154,0.0716145858168602,0.013874093070626259
381.0,0.0,0.0,0.0,0.0,0.0,0.0,0.054275333881378174,-0.06233013793826103,-0.08053664118051529,0.9967278838157654,-0.023486260324716568,0.07661308348178864,0.01060003787279129
382.0,0.0,0.0,0.0,0.0,0.0,0.0,0.03545680269598961,-0.06872295588254929,-0.07848719507455826,0.9962949156761169,-0.024740030989050865,0.0819336473941803,0.008424620144069195
383.0,0.0,0.0,0.0,0.0,0.0,0.0,0.010480968281626701,-0.04038706794381142,-0.03182617574930191,0.9959665536880493,-0.026563284918665886,0.08561179041862488,0.004040015861392021
384.0,0.0,0.0,0.0,0.0,0.0,0.0,0.02923710271716118,-0.018551358953118324,-0.03968222811818123,0.995905876159668,-0.029110325500369072,0.08557605743408203,-0.0008524100994691253
385.0,0.0,0.0,0.0,0.0,0.0,0.0,0.02670053020119667,-0.020262865349650383,-0.049898918718099594,0.9960637092590332,-0.030729159712791443,0.08301777392625809,-0.004527971614152193
386.0,0.0,0.0,0.0,0.0,0.0,0.0,0.01313750259578228,-0.005023127421736717,-0.0100720738992095,0.9964084029197693,-0.032554857432842255,0.07773254811763763,-0.008231050334870815
387.0,0.0,0.0,0.0,0.0,0.0,0.0,0.0053260778076946735,0.002591986209154129,-0.0006225766846910119,0.9968458414077759,-0.03451962396502495,0.07066851854324341,-0.010625559836626053
388.0,0.0,0.0,0.0,0.0,0.0,0.0,-0.02363033965229988,0.008063307963311672,0.030618101358413696,0.9972409605979919,-0.03541284799575806,0.06437662988901138,-0.010587954893708229
389.0,0.0,0.0,0.0,0.0,0.0,0.0,-0.03402845561504364,0.023988941684365273,0.05048682540655136,0.9975618720054626,-0.03533017262816429,0.05958222970366478,-0.008467948995530605
390.0,0.0,0.0,0.0,0.0,0.0,0.0,-0.03543068841099739,0.038715168833732605,0.028835885226726532,0.9978153109550476,-0.03425116837024689,0.05620306730270386,-0.005738148465752602
391.0,0.0,0.0,0.0,0.0,0.0,0.0,-0.015787428244948387,0.037745263427495956,0.0371752604842186,0.99802565574646,-0.03281549736857414,0.05344551429152489,-0.003497523255646229
392.0,0.0,0.0,0.0,0.0,0.0,0.0,0.003588620573282242,0.04167817533016205,0.0149308443069458,0.9982500076293945,-0.03015829250216484,0.050860971212387085,0.0006258344510570168
393.0,0.0,0.0,0.0,0.0,0.0,0.0,0.037585433572530746,0.03407350927591324,-0.015600745566189289,0.9985281229019165,-0.02649729885160923,0.046944327652454376,0.005914551671594381
394.0,0.0,0.0,0.0,0.0,0.0,0.0,0.032796766608953476,0.02341361530125141,0.0020072306506335735,0.9986825585365295,-0.023730164393782616,0.04437176138162613,0.010106006637215614
395.0,0.0,0.0,0.0,0.0,0.0,0.0,-0.039886269718408585,0.03503875061869621,0.03947275131940842,0.9986316561698914,-0.02251235768198967,0.04562367498874664,0.012115397490561008
396.0,0.0,0.0,0.0,0.0,0.0,0.0,-0.0320250578224659,0.0324677899479866,0.057809554040431976,0.9984713196754456,-0.0236070416867733,0.04827406629920006,0.012936422601342201
397.0,0.0,0.0,0.0,0.0,0.0,0.0,0.04005279019474983,0.043488334864377975,0.0036095743998885155,0.9983319640159607,-0.022455481812357903,0.051204096525907516,0.014378074556589127
398.0,0.0,0.0,0.0,0.0,0.0,0.0,0.022228993475437164,0.05969230458140373,0.007705576717853546,0.9981436133384705,-0.020776301622390747,0.05499366298317909,0.015925711020827293
399.0,0.0,0.0,0.0,0.0,0.0,0.0,-0.011119617149233818,0.037566039711236954,0.04500893875956535,0.9979121088981628,-0.020785702392458916,0.05838477239012718,0.018155379220843315
400.0,0.0,0.0,0.0,0.0,0.0,0.0,0.01402277871966362,0.04808201268315315,0.02921990491449833,0.9977198839187622,-0.019392209127545357,0.06170466169714928,0.019254760816693306
401.0,0.0,0.0,0.0,0.0,0.0,0.0,0.04471629485487938,0.021467193961143494,-0.0019745102617889643,0.9975536465644836,-0.017721926793456078,0.06429371982812881,0.020939089357852936
402.0,0.0,0.0,0.0,0.0,0.0,0.0,0.07487576454877853,-0.035340048372745514,-0.006891850847750902,0.9974870681762695,-0.01758524589240551,0.06513556838035583,0.021630719304084778
403.0,0.0,0.0,0.0,0.0,0.0,0.0,0.050700604915618896,-0.018059751018881798,-0.011736391112208366,0.9974863529205322,-0.01735718548297882,0.06505612283945084,0.0220709890127182
404.0,0.0,0.0,0.0,0.0,0.0,0.0,0.027572639286518097,0.015042257495224476,-0.006011280231177807,0.9975654482841492,-0.01496440265327692,0.06354017555713654,0.02452048659324646
405.0,0.0,0.0,0.0,0.0,0.0,0.0,0.05220184475183487,-0.009016426280140877,-0.013332308270037174,0.9978359937667847,-0.011932110413908958,0.05811352655291557,0.02836061455309391
406.0,0.0,0.0,0.0,0.0,0.0,0.0,0.04051119089126587,-0.030930371955037117,-0.04227317497134209,0.9982650279998779,-0.008440853096544743,0.04974948242306709,0.03033345378935337
407.0,0.0,0.0,0.0,0.0,0.0,0.0,0.016931448131799698,-0.023549150675535202,-0.03188547492027283,0.9987323880195618,-0.005451546050608158,0.03916693851351738,0.03114418126642704
408.0,0.0,0.0,0.0,0.0,0.0,0.0,-0.045846063643693924,-0.02123601920902729,0.017469750717282295,0.9989240169525146,-0.004171860404312611,0.034792907536029816,0.030387822538614273
409.0,0.0,0.0,0.0,0.0,0.0,0.0,0.004142307676374912,-0.03585514426231384,0.005586304701864719,0.9992685317993164,-0.004636477213352919,0.02673479914665222,0.026946885511279106
410.0,0.0,0.0,0.0,0.0,0.0,0.0,0.03683670982718468,-0.02578617073595524,-0.032656557857990265,0.9995179176330566,-0.005057238508015871,0.01783013343811035,0.024908019229769707
411.0,0.0,0.0,0.0,0.0,0.0,0.0,0.02750607207417488,-0.0235715601593256,-0.014663401059806347,0.9997069835662842,-0.005472717806696892,0.0077290465123951435,0.022270746529102325
412.0,0.0,0.0,0.0,0.0,0.0,0.0,-0.08373560011386871,-0.026823636144399643,0.045581091195344925,0.9997376203536987,-0.007724084425717592,0.002310418291017413,0.021429523825645447
413.0,0.0,0.0,0.0,0.0,0.0,0.0,-0.06827362626791,0.014459850266575813,0.03347316384315491,0.9997131824493408,-0.009459486231207848,-0.0030986247584223747,0.02177993394434452
414.0,0.0,0.0,0.0,0.0,0.0,0.0,-0.014703644439578056,0.003931744024157524,0.002839601133018732,0.9997072815895081,-0.010033171623945236,-0.007815217599272728,0.020596398040652275
415.0,0.0,0.0,0.0,0.0,0.0,0.0,-0.0377478152513504,-0.03847028315067291,0.020835503935813904,0.999671459197998,-0.01213231310248375,-0.010048597119748592,0.020205620676279068
416.0,0.0,0.0,0.0,0.0,0.0,0.0,-0.03846494108438492,-0.024350661784410477,0.014552242122590542,0.9996211528778076,-0.01369099598377943,-0.013905219733715057,0.019381534308195114
417.0,0.0,0.0,0.0,0.0,0.0,0.0,-0.017661770805716515,-0.016093257814645767,0.0015419829869642854,0.9995885491371155,-0.015116713009774685,-0.01728225126862526,0.01712924800813198
418.0,0.0,0.0,0.0,0.0,0.0,0.0,-0.034458354115486145,0.013379916548728943,0.00877400953322649,0.9995454549789429,-0.016375619918107986,-0.02034994773566723,0.015062727965414524
419.0,0.0,0.0,0.0,0.0,0.0,0.0,-0.06110021099448204,0.017464498057961464,0.020611993968486786,0.9994813203811646,-0.017415791749954224,-0.023006964474916458,0.014291203580796719
420.0,0.0,0.0,0.0,0.0,0.0,0.0,-0.04025372862815857,-0.0014224709011614323,0.018818724900484085,0.9993996620178223,-0.018406448885798454,-0.02608828991651535,0.013420493341982365
421.0,0.0,0.0,0.0,0.0,0.0,0.0,-0.05370534583926201,0.015406514517962933,0.008653001859784126,0.9993284344673157,-0.01859627291560173,-0.029035765677690506,0.012353275902569294
422.0,0.0,0.0,0.0,0.0,0.0,0.0,-0.06863553822040558,0.016832269728183746,0.02568177692592144,0.9993350505828857,-0.018565261736512184,-0.029192734509706497,0.011467154137790203
423.0,0.0,0.0,0.0,0.0,0.0,0.0,-0.03996921703219414,-0.011802570894360542,0.027785956859588623,0.9993638396263123,-0.018494222313165665,-0.028570901602506638,0.010590526275336742
424.0,0.0,0.0,0.0,0.0,0.0,0.0,-0.008755305781960487,-0.019794519990682602,-0.001643071649596095,0.999363124370575,-0.01862245798110962,-0.028619803488254547,0.010320505127310753
425.0,0.0,0.0,0.0,0.0,0.0,0.0,-0.012770934961736202,0.008667975664138794,-0.00225939997471869,0.9993590116500854,-0.01851397380232811,-0.029121514409780502,0.009479433298110962
426.0,0.0,0.0,0.0,0.0,0.0,0.0,-0.018606500700116158,0.0016187046421691775,0.01676873303949833,0.9993887543678284,-0.018396764993667603,-0.028425347059965134,0.008689471520483494
427.0,0.0,0.0,0.0,0.0,0.0,0.0,0.00043463666224852204,-0.02126067876815796,0.006183898542076349,0.9993868470191956,-0.019144542515277863,-0.02815096266567707,0.0081931222230196
428.0,0.0,0.0,0.0,0.0,0.0,0.0,-0.013880095444619656,-0.008404317311942577,0.006817530374974012,0.9994179010391235,-0.019536549225449562,-0.026746075600385666,0.008147488348186016
429.0,0.0,0.0,0.0,0.0,0.0,0.0,-0.02011493593454361,0.006070858333259821,0.019734656438231468,0.9994519948959351,-0.02009127475321293,-0.025137240067124367,0.0077287908643484116
430.0,0.0,0.0,0.0,0.0,0.0,0.0,-0.0051841395907104015,0.0007404984207823873,-0.0018704476533457637,0.9994741082191467,-0.020289696753025055,-0.024408968165516853,0.006654548458755016
431.0,0.0,0.0,0.0,0.0,0.0,0.0,-0.0020577735267579556,-0.001074673025868833,-0.009901718236505985,0.9995105862617493,-0.02007964998483658,-0.0232832208275795,0.005766278598457575
432.0,0.0,0.0,0.0,0.0,0.0,0.0,-0.018801076337695122,-0.002818433800712228,0.0019898279570043087,0.9995551109313965,-0.01960095576941967,-0.022093910723924637,0.004073294810950756
433.0,0.0,0.0,0.0,0.0,0.0,0.0,-0.017868733033537865,-0.00524504017084837,-0.006337667349725962,0.9996068477630615,-0.019521966576576233,-0.01985873468220234,0.003133191494271159
434.0,0.0,0.0,0.0,0.0,0.0,0.0,-0.008870364166796207,4.3767751776613295e-05,-0.015388734638690948,0.9996747374534607,-0.018786899745464325,-0.017122497782111168,0.0020289139356464148
435.0,0.0,0.0,0.0,0.0,0.0,0.0,-0.0057130116038024426,0.00030197759042494,-0.020628686994314194,0.9997172355651855,-0.018293116241693497,-0.015134092420339584,0.0010964313987642527
436.0,0.0,0.0,0.0,0.0,0.0,0.0,-0.000851697288453579,-0.007031318731606007,-0.02098504826426506,0.9997453093528748,-0.017637252807617188,-0.014054846949875355,0.00045997509732842445
437.0,0.0,0.0,0.0,0.0,0.0,0.0,-0.010667789727449417,0.004541244823485613,-0.028169715777039528,0.9997696876525879,-0.016954822465777397,-0.0131307914853096,-8.424537372775376e-05
438.0,0.0,0.0,0.0,0.0,0.0,0.0,-0.004699466284364462,0.002712426008656621,-0.027745051309466362,0.9997814297676086,-0.016564657911658287,-0.01272137463092804,-0.0006767072482034564
439.0,0.0,0.0,0.0,0.0,0.0,0.0,-0.006994290743023157,0.007606117986142635,-0.01903875730931759,0.9998078346252441,-0.01565084047615528,-0.01175780687481165,-0.0009631183347664773
440.0,0.0,0.0,0.0,0.0,0.0,0.0,-0.018124552443623543,0.025385338813066483,-0.01562315970659256,0.9998337626457214,-0.014683881774544716,-0.010773948393762112,-0.00036209975951351225
441.0,0.0,0.0,0.0,0.0,0.0,0.0,-0.01258420292288065,0.027250194922089577,-0.02032872848212719,0.9998545050621033,-0.013418092392385006,-0.01050917711108923,0.0004937161575071514
442.0,0.0,0.0,0.0,0.0,0.0,0.0,-0.020916389301419258,0.023137658834457397,-0.02266921103000641,0.9998659491539001,-0.012145341373980045,-0.010928242467343807,0.0013269329210743308
443.0,0.0,0.0,0.0,0.0,0.0,0.0,-0.02127603255212307,0.018674546852707863,-0.011891165748238564,0.999882161617279,-0.011248291470110416,-0.010242778807878494,0.0019394156988710165
444.0,0.0,0.0,0.0,0.0,0.0,0.0,-0.00810867827385664,0.011565295979380608,-0.013284680433571339,0.9998884201049805,-0.011119666509330273,-0.009563920088112354,0.002770266029983759
445.0,0.0,0.0,0.0,0.0,0.0,0.0,-0.01346415001899004,0.030927535146474838,-0.019127795472741127,0.9998934864997864,-0.010189549066126347,-0.010086994618177414,0.002715625800192356
446.0,0.0,0.0,0.0,0.0,0.0,0.0,-0.03886687010526657,0.0331135056912899,-0.002508514793589711,0.9999048113822937,-0.009345903992652893,-0.009453070349991322,0.003666131291538477
447.0,0.0,0.0,0.0,0.0,0.0,0.0,-0.02868031896650791,0.015310168266296387,0.00047206442104652524,0.999904990196228,-0.008749223314225674,-0.00930553488433361,0.005151770543307066
448.0,0.0,0.0,0.0,0.0,0.0,0.0,-0.005654530134052038,0.009370203129947186,-0.01894533261656761,0.9999054670333862,-0.008156158961355686,-0.009470491670072079,0.005722675938159227
449.0,0.0,0.0,0.0,0.0,0.0,0.0,-0.02433779649436474,0.014912853948771954,-0.008318870328366756,0.9999210238456726,-0.00768048083409667,-0.008416038006544113,0.005286876577883959
450.0,0.0,0.0,0.0,0.0,0.0,0.0,-0.027014730498194695,0.02315804734826088,0.005971943959593773,0.9999263882637024,-0.007047935854643583,-0.008080222643911839,0.005641144700348377
451.0,0.0,0.0,0.0,0.0,0.0,0.0,-0.02711000293493271,0.018846439197659492,0.006113804876804352,0.9999260306358337,-0.005957579705864191,-0.007898890413343906,0.007048311177641153
452.0,0.0,0.0,0.0,0.0,0.0,0.0,-0.03074321709573269,0.00587433623149991,0.009584289975464344,0.9999221563339233,-0.0045683132484555244,-0.007167593110352755,0.00912762526422739
453.0,0.0,0.0,0.0,0.0,0.0,0.0,-0.00861705094575882,0.00643097935244441,-0.003373664803802967,0.9999059438705444,-0.003038157941773534,-0.006996489595621824,0.011384888552129269
454.0,0.0,0.0,0.0,0.0,0.0,0.0,-0.0072149247862398624,0.012125775218009949,-0.00033113962854258716,0.9998900294303894,-0.0004960197256878018,-0.007052485831081867,0.013020457699894905
455.0,0.0,0.0,0.0,0.0,0.0,0.0,-0.02567252330482006,0.021492600440979004,0.021081091836094856,0.9998705387115479,0.0024814768694341183,-0.0060009704902768135,0.014721063897013664
456.0,0.0,0.0,0.0,0.0,0.0,0.0,-0.014935985207557678,0.025898711755871773,0.014775795862078667,0.9998213052749634,0.0064301872625947,-0.005476716440171003,0.016899554058909416
457.0,0.0,0.0,0.0,0.0,0.0,0.0,-0.009902236051857471,0.036494556814432144,0.00026922341203317046,0.9997406601905823,0.011069060303270817,-0.0041085826233029366,0.019471319392323494
458.0,0.0,0.0,0.0,0.0,0.0,0.0,-0.014271019026637077,0.017575807869434357,0.010047371499240398,0.9996019601821899,0.014466814696788788,-0.002447658684104681,0.024095194414258003
459.0,0.0,0.0,0.0,0.0,0.0,0.0,0.0010707452893257141,0.014450281858444214,-0.0005637580179609358,0.9994586706161499,0.01803550124168396,0.000975601258687675,0.027498096227645874
460.0,0.0,0.0,0.0,0.0,0.0,0.0,0.023338310420513153,0.002965503605082631,-0.022150570526719093,0.9992877840995789,0.02109624445438385,0.0046774642542004585,0.030935149639844894
461.0,0.0,0.0,0.0,0.0,0.0,0.0,0.03563474863767624,-0.02786967158317566,-0.027360767126083374,0.9991447925567627,0.022835079580545425,0.008570228703320026,0.033388614654541016
462.0,0.0,0.0,0.0,0.0,0.0,0.0,0.04101679101586342,-0.02846338041126728,-0.027262873947620392,0.99906325340271,0.02348175458610058,0.011443893425166607,0.03449646010994911
463.0,0.0,0.0,0.0,0.0,0.0,0.0,0.03470206260681152,-0.021154752001166344,-0.03199829161167145,0.9989970922470093,0.023426787927746773,0.012935870327055454,0.03589847311377525
464.0,0.0,0.0,0.0,0.0,0.0,0.0,0.028674352914094925,-0.01983795501291752,-0.02685360796749592,0.9989452362060547,0.022862721234560013,0.014165404252707958,0.03721620887517929
465.0,0.0,0.0,0.0,0.0,0.0,0.0,0.036551568657159805,-0.02846674621105194,-0.030004208907485008,0.9989089369773865,0.022114504128694534,0.014522218145430088,0.03848438709974289
466.0,0.0,0.0,0.0,0.0,0.0,0.0,-0.0006838359986431897,-0.03396044671535492,0.0095581179484725,0.9988934397697449,0.02099119871854782,0.014683354645967484,0.03944139555096626
467.0,0.0,0.0,0.0,0.0,0.0,0.0,0.00295447395183146,-0.021938836202025414,0.008455142378807068,0.9989591836929321,0.019580788910388947,0.01333034597337246,0.03897684067487717
468.0,0.0,0.0,0.0,0.0,0.0,0.0,0.001878179144114256,-0.0164138525724411,0.0050823925994336605,0.9990933537483215,0.017870677635073662,0.012375294230878353,0.0366060696542263
469.0,0.0,0.0,0.0,0.0,0.0,0.0,-0.01233120821416378,-0.0014363486552610993,0.030429676175117493,0.9991329908370972,0.016791924834251404,0.013263130560517311,0.03570771589875221
470.0,0.0,0.0,0.0,0.0,0.0,0.0,-0.005385193973779678,-0.029538478702306747,0.0339498445391655,0.9991232752799988,0.015042377635836601,0.014558106660842896,0.03625183552503586
471.0,0.0,0.0,0.0,0.0,0.0,0.0,-0.012508286163210869,-0.032906971871852875,0.04040149971842766,0.9990546703338623,0.01348183210939169,0.02040649950504303,0.035936176776885986
472.0,0.0,0.0,0.0,0.0,0.0,0.0,0.009970344603061676,-0.01847374252974987,0.019102245569229126,0.9990071654319763,0.012838956899940968,0.022912971675395966,0.035985808819532394
473.0,0.0,0.0,0.0,0.0,0.0,0.0,0.027616597712039948,-0.027597667649388313,-0.013039986602962017,0.9990034103393555,0.012511585839092731,0.025077542290091515,0.03473835438489914
474.0,0.0,0.0,0.0,0.0,0.0,0.0,0.026960493996739388,-0.03328918665647507,-0.013175352476537228,0.9990692734718323,0.011133268475532532,0.02681015431880951,0.03189674764871597
475.0,0.0,0.0,0.0,0.0,0.0,0.0,0.02021520771086216,-0.015997853130102158,-0.014238267205655575,0.999210000038147,0.009701952338218689,0.02586928755044937,0.028563790023326874
476.0,0.0,0.0,0.0,0.0,0.0,0.0,0.0049356077797710896,-0.023154307156801224,-0.0021970802918076515,0.9992813467979431,0.008017446845769882,0.025385228917002678,0.02698097564280033
477.0,0.0,0.0,0.0,0.0,0.0,0.0,0.031621091067790985,-0.020247172564268112,-0.01170597318559885,0.9993754625320435,0.006795056164264679,0.021785922348499298,0.026977861300110817
478.0,0.0,0.0,0.0,0.0,0.0,0.0,0.01432354561984539,0.015946602448821068,-0.01555138174444437,0.9995117783546448,0.006639690604060888,0.01603594422340393,0.025977371260523796
479.0,0.0,0.0,0.0,0.0,0.0,0.0,-0.03283635899424553,0.027129486203193665,0.026869269087910652,0.9996020793914795,0.007815037854015827,0.011474779807031155,0.02455543912947178
480.0,0.0,0.0,0.0,0.0,0.0,0.0,-0.04365215077996254,-0.012546071782708168,0.05171286314725876,0.9996158480644226,0.009260118007659912,0.01096402294933796,0.023702019825577736
481.0,0.0,0.0,0.0,0.0,0.0,0.0,-0.0382402203977108,-0.027767928317189217,0.07064283639192581,0.9996567964553833,0.009892784059047699,0.012427402660250664,0.020830661058425903
482.0,0.0,0.0,0.0,0.0,0.0,0.0,-0.03547969460487366,0.0047949450090527534,0.044846311211586,0.9996584057807922,0.011484291404485703,0.013885730877518654,0.018928123638033867
483.0,0.0,0.0,0.0,0.0,0.0,0.0,0.011781326495110989,-0.01371226366609335,0.00848332792520523,0.9995637536048889,0.014554309658706188,0.016966693103313446,0.019296342507004738
484.0,0.0,0.0,0.0,0.0,0.0,0.0,0.021428683772683144,-0.06444646418094635,0.0096648670732975,0.9994341135025024,0.016891509294509888,0.019458351656794548,0.021616507321596146
485.0,0.0,0.0,0.0,0.0,0.0,0.0,0.006626829970628023,-0.05250392481684685,0.00654017785564065,0.9992952942848206,0.018532782793045044,0.021754343062639236,0.02433525212109089
486.0,0.0,0.0,0.0,0.0,0.0,0.0,0.01547742635011673,-0.0019791973754763603,-0.008192606270313263,0.9991821050643921,0.020944856107234955,0.021607069298624992,0.027007941156625748
487.0,0.0,0.0,0.0,0.0,0.0,0.0,0.0029438468627631664,-0.01223320234566927,-0.019925683736801147,0.9990284442901611,0.022940071299672127,0.022200465202331543,0.030382150784134865
488.0,0.0,0.0,0.0,0.0,0.0,0.0,0.03795619681477547,-0.050170257687568665,-0.03489682450890541,0.9989397525787354,0.023843184113502502,0.024006007239222527,0.03121650032699108
489.0,0.0,0.0,0.0,0.0,0.0,0.0,0.02621442824602127,-0.017347881570458412,-0.021228589117527008,0.9987855553627014,0.02625480853021145,0.02553018555045128,0.03295842558145523
490.0,0.0,0.0,0.0,0.0,0.0,0.0,0.005226535722613335,0.03068934567272663,-0.028568321838974953,0.9985231757164001,0.03050747513771057,0.026330431923270226,0.036428287625312805
491.0,0.0,0.0,0.0,0.0,0.0,0.0,0.024032140150666237,-0.03729376569390297,-0.04710440710186958,0.998272716999054,0.033953215926885605,0.027255728840827942,0.039443884044885635
492.0,0.0,0.0,0.0,0.0,0.0,0.0,0.04190685972571373,-0.04131948575377464,-0.06297954171895981,0.9982008337974548,0.037025563418865204,0.024251945316791534,0.0404481440782547
493.0,0.0,0.0,0.0,0.0,0.0,0.0,0.008891395293176174,-0.03091164492070675,-0.052521511912345886,0.9981615543365479,0.038680803030729294,0.02081337757408619,0.04176027700304985
494.0,0.0,0.0,0.0,0.0,0.0,0.0,0.005565694533288479,-0.04295448213815689,-0.03236180543899536,0.9981362819671631,0.03914693370461464,0.017708031460642815,0.0433364175260067
495.0,0.0,0.0,0.0,0.0,0.0,0.0,0.019465912133455276,-0.015533355064690113,-0.052636414766311646,0.9981887936592102,0.03898748755455017,0.01206203643232584,0.04419475421309471
496.0,0.0,0.0,0.0,0.0,0.0,0.0,0.020194116979837418,0.0033714023884385824,-0.051783062517642975,0.9981974363327026,0.03949330002069473,0.0015975665301084518,0.04516172409057617
497.0,0.0,0.0,0.0,0.0,0.0,0.0,-0.047662075608968735,0.011794520542025566,0.006447142455726862,0.9980564117431641,0.040629275143146515,-0.007510783616453409,0.04664595052599907
498.0,0.0,0.0,0.0,0.0,0.0,0.0,-0.06855621188879013,-0.01784408651292324,0.03587508201599121,0.9980176687240601,0.04045500606298447,-0.011168357916176319,0.04689133167266846
499.0,0.0,0.0,0.0,0.0,0.0,0.0,-0.0033206180669367313,-0.03481292352080345,-0.01708834618330002,0.9981151223182678,0.03910626098513603,-0.01512208767235279,0.04480993375182152
500.0,0.0,0.0,0.0,0.0,0.0,0.0,-0.022817904129624367,-0.005024748854339123,-0.0037724191788583994,0.9981587529182434,0.037613824009895325,-0.017836226150393486,0.04411172866821289
501.0,0.0,0.0,0.0,0.0,0.0,0.0,-0.0578434132039547,-0.007711452431976795,0.04455656558275223,0.9981911778450012,0.03523169085383415,-0.01532608363777399,0.04623572900891304
502.0,0.0,0.0,0.0,0.0,0.0,0.0,-0.009693746455013752,-0.02391362190246582,0.010467102751135826,0.998282790184021,0.03242935612797737,-0.012656896375119686,0.047111451625823975
503.0,0.0,0.0,0.0,0.0,0.0,0.0,0.009804398752748966,-0.022061310708522797,-0.01889481395483017,0.998452365398407,0.02976459637284279,-0.00878919754177332,0.04614485427737236
504.0,0.0,0.0,0.0,0.0,0.0,0.0,-0.0009983339114114642,-0.010426037944853306,0.006545048672705889,0.9986364245414734,0.02729124203324318,-0.005368338897824287,0.044178031384944916
505.0,0.0,0.0,0.0,0.0,0.0,0.0,-0.023904874920845032,0.01347428746521473,0.02264554426074028,0.998819887638092,0.02374420315027237,-0.0011926469160243869,0.042349908500909805
506.0,0.0,0.0,0.0,0.0,0.0,0.0,-0.015973204746842384,0.02382008172571659,0.01554545946419239,0.9989797472953796,0.020727571099996567,0.0027961665764451027,0.0400257483124733
507.0,0.0,0.0,0.0,0.0,0.0,0.0,-0.0022256379015743732,-0.0034331304486840963,0.0006486226920969784,0.9990832209587097,0.017746154218912125,0.005035995505750179,0.03863000124692917
508.0,0.0,0.0,0.0,0.0,0.0,0.0,0.019723890349268913,-0.029975203797221184,-0.025018971413373947,0.9991797804832458,0.014023645780980587,0.005255105905234814,0.03761924430727959
509.0,0.0,0.0,0.0,0.0,0.0,0.0,0.02294136770069599,-0.0012125576613470912,-0.01637185737490654,0.999261736869812,0.011485039256513119,0.004552030470222235,0.03637618198990822
510.0,0.0,0.0,0.0,0.0,0.0,0.0,-0.020039504393935204,0.025104474276304245,0.023248380050063133,0.9993164539337158,0.008815446868538857,0.003251213114708662,0.03575073182582855
511.0,0.0,0.0,0.0,0.0,0.0,0.0,-0.058280956000089645,0.05179205536842346,0.04520384967327118,0.9993460774421692,0.006754887290298939,0.003907357808202505,0.035308241844177246
512.0,0.0,0.0,0.0,0.0,0.0,0.0,-0.017659684643149376,0.04580070078372955,0.013076321221888065,0.9993866086006165,0.006375641096383333,0.004768501967191696,0.03410018980503082
513.0,0.0,0.0,0.0,0.0,0.0,0.0,0.011526781134307384,-0.007184616290032864,-0.013126502744853497,0.999423086643219,0.006271062884479761,0.005224589724093676,0.032964207231998444
514.0,0.0,0.0,0.0,0.0,0.0,0.0,0.014541961252689362,-0.02254338748753071,-0.021958597004413605,0.9994804263114929,0.006483849603682756,0.00489458441734314,0.031188908964395523
515.0,0.0,0.0,0.0,0.0,0.0,0.0,0.004559539258480072,-0.018269483000040054,-0.00304623250849545,0.9995264410972595,0.006109880283474922,0.0043154614977538586,0.029849059879779816
516.0,0.0,0.0,0.0,0.0,0.0,0.0,-0.019188839942216873,-0.02980758622288704,0.026924896985292435,0.9995143413543701,0.004571004305034876,0.0068756770342588425,0.030048934742808342
517.0,0.0,0.0,0.0,0.0,0.0,0.0,0.008250079117715359,-0.018087372183799744,0.005600592587143183,0.9994947910308838,0.0032929969020187855,0.008973483927547932,0.030310437083244324
518.0,0.0,0.0,0.0,0.0,0.0,0.0,0.022176191210746765,-0.014636082574725151,-0.018396971747279167,0.9995013475418091,0.0020611316431313753,0.009377243928611279,0.030076678842306137
519.0,0.0,0.0,0.0,0.0,0.0,0.0,0.004803190473467112,-0.022270692512392998,0.005098401103168726,0.9994922876358032,0.0006273494218476117,0.010126129724085331,0.030202876776456833
520.0,0.0,0.0,0.0,0.0,0.0,0.0,0.005962128285318613,-0.02156568504869938,0.00772104924544692,0.9995197057723999,-0.0019935856107622385,0.009018084965646267,0.02957860194146633
521.0,0.0,0.0,0.0,0.0,0.0,0.0,-0.0009686015546321869,-0.009449371136724949,0.010199076496064663,0.9995956420898438,-0.004266950301826,0.00860653817653656,0.02676013670861721
522.0,0.0,0.0,0.0,0.0,0.0,0.0,0.00017761073831934482,-0.012698688544332981,0.00880439393222332,0.9996578693389893,-0.006738055031746626,0.0079345703125,0.023992234840989113
523.0,0.0,0.0,0.0,0.0,0.0,0.0,0.016627078875899315,-0.002821581903845072,-0.00902484729886055,0.9997128248214722,-0.00929588545113802,0.004907725378870964,0.021533887833356857
524.0,0.0,0.0,0.0,0.0,0.0,0.0,-0.02364044450223446,0.009778632782399654,0.03111620806157589,0.9997538924217224,-0.011705960147082806,0.002969593508169055,0.018607156351208687
525.0,0.0,0.0,0.0,0.0,0.0,0.0,-0.03762400150299072,-0.0013142547104507685,0.04380950704216957,0.999739944934845,-0.013575385324656963,0.0023292682599276304,0.018169907853007317
526.0,0.0,0.0,0.0,0.0,0.0,0.0,-0.003948196768760681,-0.010102192871272564,0.03539501130580902,0.9997021555900574,-0.014250379987061024,0.004534875508397818,0.01928136870265007
527.0,0.0,0.0,0.0,0.0,0.0,0.0,-0.02340742200613022,0.026100005954504013,0.03661148250102997,0.9996623992919922,-0.013936087489128113,0.007790690753608942,0.020489465445280075
528.0,0.0,0.0,0.0,0.0,0.0,0.0,-0.003048351500183344,0.01071577426046133,-0.00032569532049819827,0.9996562600135803,-0.012551689520478249,0.009604656137526035,0.02091275155544281
529.0,0.0,0.0,0.0,0.0,0.0,0.0,0.014476913027465343,-0.019033897668123245,0.005273932591080666,0.9996627569198608,-0.010410926304757595,0.012682815082371235,0.02013138309121132
530.0,0.0,0.0,0.0,0.0,0.0,0.0,-0.026881203055381775,0.014874878339469433,0.014450411312282085,0.9996698498725891,-0.0091027170419693,0.015474410727620125,0.01837698183953762
531.0,0.0,0.0,0.0,0.0,0.0,0.0,0.013325921259820461,0.003781375475227833,-0.026539908722043037,0.9996423721313477,-0.007052131462842226,0.018216822296380997,0.018262427300214767
532.0,0.0,0.0,0.0,0.0,0.0,0.0,0.04865797609090805,-0.05598277226090431,-0.02824939787387848,0.9995576739311218,-0.006267030723392963,0.02155674621462822,0.019506143406033516
533.0,0.0,0.0,0.0,0.0,0.0,0.0,0.02642899379134178,-0.036641545593738556,-0.01785985194146633,0.9995226860046387,-0.006782615557312965,0.02257765457034111,0.019964469596743584
534.0,0.0,0.0,0.0,0.0,0.0,0.0,0.004298820160329342,0.004673339426517487,-0.008660704828798771,0.9995149374008179,-0.005822604522109032,0.02336456999182701,0.019750209525227547
535.0,0.0,0.0,0.0,0.0,0.0,0.0,-0.01350545696914196,0.0039014883805066347,0.010111475363373756,0.9994511604309082,-0.005390409380197525,0.0259046982973814,0.019928326830267906
536.0,0.0,0.0,0.0,0.0,0.0,0.0,-0.015714896842837334,-0.016660284250974655,0.016382340341806412,0.9993615746498108,-0.005548403132706881,0.029909176751971245,0.018738016486167908
537.0,0.0,0.0,0.0,0.0,0.0,0.0,-0.0007539688376709819,-0.01954442821443081,0.007398540619760752,0.9992951154708862,-0.00586940161883831,0.032859623432159424,0.017176013439893723
538.0,0.0,0.0,0.0,0.0,0.0,0.0,0.014260751195251942,-0.0182782132178545,-0.0084200045093894,0.999226987361908,-0.006081529427319765,0.03524250537157059,0.016319477930665016
539.0,0.0,0.0,0.0,0.0,0.0,0.0,0.03394664451479912,-0.025707783177495003,-0.018010186031460762,0.9991907477378845,-0.006579520180821419,0.0362110435962677,0.01622374728322029
540.0,0.0,0.0,0.0,0.0,0.0,0.0,0.0029758652672171593,-0.004901496227830648,-0.00780161377042532,0.9991612434387207,-0.007525211200118065,0.036694422364234924,0.016540342941880226
541.0,0.0,0.0,0.0,0.0,0.0,0.0,-0.024190854281187057,0.0072142332792282104,0.011569018475711346,0.9990742802619934,-0.008581963367760181,0.038576338440179825,0.01699036732316017
542.0,0.0,0.0,0.0,0.0,0.0,0.0,0.02831500954926014,-0.017672790214419365,-0.011225433088839054,0.9990361332893372,-0.010212117806077003,0.038410935550928116,0.018635040149092674
543.0,0.0,0.0,0.0,0.0,0.0,0.0,0.022819021716713905,0.009707995690405369,-0.03530465066432953,0.9991059899330139,-0.011216437444090843,0.03548532351851463,0.02005470171570778
544.0,0.0,0.0,0.0,0.0,0.0,0.0,-0.0006486997008323669,0.021713990718126297,-0.009902792982757092,0.9992485642433167,-0.01156681403517723,0.029968509450554848,0.021681830286979675
545.0,0.0,0.0,0.0,0.0,0.0,0.0,-0.011087276972830296,0.0008865936542861164,0.015139834024012089,0.999379575252533,-0.012593865394592285,0.02408565580844879,0.022392908111214638
546.0,0.0,0.0,0.0,0.0,0.0,0.0,-0.0229388028383255,-0.009780914522707462,0.047633096575737,0.9994907975196838,-0.013867635279893875,0.01976577565073967,0.020854420959949493
547.0,0.0,0.0,0.0,0.0,0.0,0.0,-0.03075704351067543,0.027255317196249962,0.04984607174992561,0.9995512962341309,-0.013424084521830082,0.016209524124860764,0.02131395787000656
548.0,0.0,0.0,0.0,0.0,0.0,0.0,-0.02928844653069973,0.0334099605679512,0.03215678408741951,0.9995549917221069,-0.010509266518056393,0.014558865688741207,0.023814670741558075
549.0,0.0,0.0,0.0,0.0,0.0,0.0,-0.015277054160833359,-0.016104524955153465,0.034091316163539886,0.9995429515838623,-0.008018814027309418,0.01486546266824007,0.02507063001394272
550.0,0.0,0.0,0.0,0.0,0.0,0.0,0.008417578414082527,-0.038357097655534744,-0.0005244374042376876,0.9995890259742737,-0.005950540769845247,0.014998889528214931,0.023689793422818184
551.0,0.0,0.0,0.0,0.0,0.0,0.0,0.020054765045642853,-0.031276606023311615,-0.01861846260726452,0.9996472597122192,-0.004443284124135971,0.015564623288810253,0.021049875766038895
552.0,0.0,0.0,0.0,0.0,0.0,0.0,0.03108501434326172,-0.0405583493411541,-0.02575875073671341,0.9996899366378784,-0.003010064596310258,0.01632358692586422,0.01856083981692791
553.0,0.0,0.0,0.0,0.0,0.0,0.0,0.02633863501250744,-0.03161405026912689,-0.023241424933075905,0.9996634125709534,-0.002251778729259968,0.01808253675699234,0.018474405631422997
554.0,0.0,0.0,0.0,0.0,0.0,0.0,0.038228679448366165,-0.026723597198724747,-0.02763834409415722,0.9995905160903931,-0.0017588819609954953,0.020371554419398308,0.020008612424135208
555.0,0.0,0.0,0.0,0.0,0.0,0.0,0.019804904237389565,-0.026986014097929,-0.01752481237053871,0.9994948506355286,-0.00235152430832386,0.02300584502518177,0.02178194932639599
556.0,0.0,0.0,0.0,0.0,0.0,0.0,-0.01422045286744833,-0.006106410641223192,0.02333170920610428,0.9993507862091064,-0.0035345572978258133,0.02787928469479084,0.022537508979439735
557.0,0.0,0.0,0.0,0.0,0.0,0.0,0.018455930054187775,0.009457244537770748,0.005815677344799042,0.9993007183074951,-0.0036265321541577578,0.030768558382987976,0.020927684381604195
558.0,0.0,0.0,0.0,0.0,0.0,0.0,0.008245270699262619,0.014943758025765419,0.006635209079831839,0.9992274045944214,-0.0031743987929075956,0.03403080254793167,0.019397562369704247
559.0,0.0,0.0,0.0,0.0,0.0,0.0,0.0036168652586638927,-0.01011571753770113,0.033094972372055054,0.9991298317909241,-0.0034314754884690046,0.038003262132406235,0.01683095656335354
560.0,0.0,0.0,0.0,0.0,0.0,0.0,0.012388591654598713,-0.025558093562722206,0.01814575120806694,0.9990222454071045,-0.004089524503797293,0.04140470176935196,0.014938603155314922
561.0,0.0,0.0,0.0,0.0,0.0,0.0,0.04278303310275078,-0.030991725623607635,-0.0004599497769959271,0.9988625645637512,-0.005273847375065088,0.04517555609345436,0.014325729571282864
562.0,0.0,0.0,0.0,0.0,0.0,0.0,0.04107928276062012,-0.006948808673769236,-0.00976495910435915,0.9987835884094238,-0.005997114349156618,0.04652633145451546,0.015195678919553757
563.0,0.0,0.0,0.0,0.0,0.0,0.0,0.021687500178813934,0.004713434260338545,-0.00020449882140383124,0.9986957907676697,-0.006440335884690285,0.04824089631438255,0.015437282621860504
564.0,0.0,0.0,0.0,0.0,0.0,0.0,0.035600073635578156,0.0014740827027708292,0.011620953679084778,0.9986749291419983,-0.005970455706119537,0.048766687512397766,0.015315496362745762
565.0,0.0,0.0,0.0,0.0,0.0,0.0,0.023554252460598946,0.025682499632239342,0.010169181041419506,0.9987228512763977,-0.003966607619076967,0.04776294529438019,0.015993352979421616
566.0,0.0,0.0,0.0,0.0,0.0,0.0,0.04382054880261421,0.012683970853686333,-0.0317789725959301,0.9989550709724426,-0.0006561356713064015,0.041925098747015,0.018190335482358932
567.0,0.0,0.0,0.0,0.0,0.0,0.0,0.05832576006650925,-0.05378245934844017,-0.043334703892469406,0.9991374015808105,0.0021355196367949247,0.0351337306201458,0.022030627354979515
568.0,0.0,0.0,0.0,0.0,0.0,0.0,0.04630700498819351,-0.10337919741868973,0.012900568544864655,0.9991163015365601,0.0022508096881210804,0.03438205644488335,0.02407563291490078
569.0,0.0,0.0,0.0,0.0,0.0,0.0,0.022218937054276466,-0.021058863028883934,0.012751958332955837,0.9990585446357727,0.0017472790786996484,0.034020356833934784,0.026860540732741356
570.0,0.0,0.0,0.0,0.0,0.0,0.0,0.038901619613170624,0.012856361456215382,-0.05748135223984718,0.998968780040741,0.0027416597586125135,0.03233905881643295,0.03174573928117752
571.0,0.0,0.0,0.0,0.0,0.0,0.0,0.04153880104422569,-0.06878030300140381,-0.025862490758299828,0.9988477230072021,0.0027559262234717607,0.03300059586763382,0.03473670408129692
572.0,0.0,0.0,0.0,0.0,0.0,0.0,0.011293482966721058,-0.06841375678777695,-0.003832015208899975,0.9989179372787476,0.001652433187700808,0.03264981880784035,0.03307899087667465
573.0,0.0,0.0,0.0,0.0,0.0,0.0,0.01997365616261959,-0.03700828179717064,-0.01670905202627182,0.9989973306655884,0.0006240234361030161,0.0320882685482502,0.031213607639074326
574.0,0.0,0.0,0.0,0.0,0.0,0.0,0.0049879285506904125,-0.027071863412857056,-0.0007771029486320913,0.9989911913871765,-0.0005682269111275673,0.03175541013479233,0.03174807131290436
575.0,0.0,0.0,0.0,0.0,0.0,0.0,-0.028470540419220924,-0.020042981952428818,0.027937110513448715,0.9989250302314758,-0.002458744216710329,0.03221363201737404,0.033237531781196594
576.0,0.0,0.0,0.0,0.0,0.0,0.0,-0.003999132663011551,-0.02309994585812092,0.009835430420935154,0.9988905787467957,-0.004262714181095362,0.03113964945077896,0.03506479412317276
577.0,0.0,0.0,0.0,0.0,0.0,0.0,-0.00777521962299943,-0.032855767756700516,0.013695438392460346,0.9989151954650879,-0.006277564447373152,0.02848818711936474,0.03629725053906441
578.0,0.0,0.0,0.0,0.0,0.0,0.0,-0.04841978847980499,-0.01747462898492813,0.04123309999704361,0.9989750385284424,-0.009345058351755142,0.025785595178604126,0.03601028770208359
579.0,0.0,0.0,0.0,0.0,0.0,0.0,-0.04611015319824219,0.0033734850585460663,0.0369831882417202,0.9990634918212891,-0.01217298861593008,0.02259758673608303,0.03483100235462189
580.0,0.0,0.0,0.0,0.0,0.0,0.0,-0.04974310100078583,0.01321280375123024,0.033704210072755814,0.9991554021835327,-0.014628446660935879,0.018647488206624985,0.033569298684597015
581.0,0.0,0.0,0.0,0.0,0.0,0.0,-0.04687107726931572,-0.00339910970069468,0.03866143524646759,0.9992530345916748,-0.016969233751296997,0.013606873340904713,0.031940706074237823
582.0,0.0,0.0,0.0,0.0,0.0,0.0,-0.07159695774316788,0.011187548749148846,0.04293855279684067,0.9993576407432556,-0.018757015466690063,0.009980258531868458,0.028858838602900505
583.0,0.0,0.0,0.0,0.0,0.0,0.0,-0.07107081264257431,0.02548948861658573,0.04734401777386665,0.9994103908538818,-0.02045302651822567,0.0070646400563418865,0.026651371270418167
584.0,0.0,0.0,0.0,0.0,0.0,0.0,-0.05975670740008354,0.02657957933843136,0.018126651644706726,0.9994813799858093,-0.02112969383597374,0.004463153891265392,0.02388877049088478
585.0,0.0,0.0,0.0,0.0,0.0,0.0,-0.01975671760737896,0.007731728255748749,-0.012422475963830948,0.9995402097702026,-0.021147718653082848,0.0015583726344630122,0.0216757133603096
586.0,0.0,0.0,0.0,0.0,0.0,0.0,-0.012736340053379536,0.010370436124503613,-0.015061588026583195,0.9995739459991455,-0.021033350378274918,-0.002237802604213357,0.02011636085808277
587.0,0.0,0.0,0.0,0.0,0.0,0.0,-0.03951612487435341,0.020969916135072708,-0.011644428595900536,0.99959796667099,-0.020815059542655945,-0.007021266035735607,0.017918316647410393
588.0,0.0,0.0,0.0,0.0,0.0,0.0,-0.04681313410401344,0.02817416563630104,-0.0030160800088196993,0.9995874166488647,-0.021027803421020508,-0.012062737718224525,0.015392153523862362
589.0,0.0,0.0,0.0,0.0,0.0,0.0,-0.0280002411454916,0.014778891578316689,-0.018205713480710983,0.999529242515564,-0.021488448604941368,-0.01778469607234001,0.012770961970090866
590.0,0.0,0.0,0.0,0.0,0.0,0.0,-0.017256582155823708,0.016802029684185982,-0.016693664714694023,0.9994746446609497,-0.021455654874444008,-0.021768484264612198,0.01075817085802555
591.0,0.0,0.0,0.0,0.0,0.0,0.0,-0.007385880686342716,0.02294272929430008,-0.026948101818561554,0.9994093775749207,-0.021092504262924194,-0.02559175156056881,0.008976568467915058
592.0,0.0,0.0,0.0,0.0,0.0,0.0,-0.0034851219970732927,0.011301958933472633,-0.027972180396318436,0.9993424415588379,-0.02037764899432659,-0.0290451068431139,0.0074492632411420345
593.0,0.0,0.0,0.0,0.0,0.0,0.0,-0.06205711141228676,0.00046972298878245056,0.007654537446796894,0.9994096755981445,-0.018898392096161842,-0.027805445715785027,0.007020176388323307
594.0,0.0,0.0,0.0,0.0,0.0,0.0,-0.03621004894375801,0.010769346728920937,0.007543076761066914,0.9994083046913147,-0.017958970740437508,-0.0286585483700037,0.006239750422537327
595.0,0.0,0.0,0.0,0.0,0.0,0.0,0.01531092170625925,0.01745464652776718,-0.027109382674098015,0.9994135499000549,-0.015726180747151375,-0.029947636649012566,0.0053327130153775215
596.0,0.0,0.0,0.0,0.0,0.0,0.0,0.004021152388304472,0.000798576045781374,-0.02841213159263134,0.9993848204612732,-0.014424116350710392,-0.031711287796497345,0.003982065711170435
597.0,0.0,0.0,0.0,0.0,0.0,0.0,-0.014249949716031551,-0.025693466886878014,-0.00016651404439471662,0.9993484616279602,-0.014063067734241486,-0.03310277685523033,0.0028819600120186806
598.0,0.0,0.0,0.0,0.0,0.0,0.0,-0.004797735251486301,-0.021532738581299782,-0.0047358134761452675,0.999292254447937,-0.014388054609298706,-0.03471565246582031,0.0016573372995480895
599.0,0.0,0.0,0.0,0.0,0.0,0.0,0.007605538237839937,0.01229018997400999,-0.0028796421829611063,0.9992358088493347,-0.014105277135968208,-0.03643680363893509,0.0010998068610206246
600.0,0.0,0.0,0.0,0.0,0.0,0.0,-0.019299054518342018,0.013166920281946659,0.010005545802414417,0.9991813898086548,-0.01417628489434719,-0.03784544765949249,0.0017594452947378159
601.0,0.0,0.0,0.0,0.0,0.0,0.0,-0.028834059834480286,0.0013303807936608791,0.024543436244130135,0.9991810321807861,-0.014307825826108456,-0.03766168653964996,0.0036708684638142586
602.0,0.0,0.0,0.0,0.0,0.0,0.0,-0.013453635387122631,0.007380025461316109,0.0026658191345632076,0.9991656541824341,-0.013969066552817822,-0.038186535239219666,0.003741166554391384
603.0,0.0,0.0,0.0,0.0,0.0,0.0,-0.028571942821145058,0.014614028856158257,0.023056406527757645,0.9992126822471619,-0.01336897723376751,-0.03722632676362991,0.0029568984173238277
604.0,0.0,0.0,0.0,0.0,0.0,0.0,-0.021220369264483452,0.0023774069268256426,0.02165984734892845,0.9992706179618835,-0.013098031282424927,-0.03578963503241539,0.002399319550022483
605.0,0.0,0.0,0.0,0.0,0.0,0.0,-0.005828352645039558,0.00024627280072309077,0.01033659465610981,0.999316394329071,-0.012787992134690285,-0.0346396341919899,0.0018811713671311736
606.0,0.0,0.0,0.0,0.0,0.0,0.0,0.002528185024857521,0.008138042874634266,0.00955949630588293,0.9993601441383362,-0.012551624327898026,-0.033468715846538544,0.0008801367948763072
607.0,0.0,0.0,0.0,0.0,0.0,0.0,-0.005571748595684767,0.010935668833553791,0.018529918044805527,0.9994361996650696,-0.012732824310660362,-0.03107110783457756,-0.0001970192533917725
608.0,0.0,0.0,0.0,0.0,0.0,0.0,-0.004299445543438196,0.002818974433466792,0.023509958758950233,0.9995161294937134,-0.013910958543419838,-0.02780524268746376,-0.00030767545104026794
609.0,0.0,0.0,0.0,0.0,0.0,0.0,-0.01163857989013195,-0.002123693935573101,0.03088897094130516,0.9996335506439209,-0.015591726638376713,-0.022122355177998543,-0.00048374541802331805
610.0,0.0,0.0,0.0,0.0,0.0,0.0,-0.00469815032556653,0.03271188586950302,0.015592747367918491,0.999755322933197,-0.015626603737473488,-0.015574540011584759,-0.0013657663948833942
611.0,0.0,0.0,0.0,0.0,0.0,0.0,0.013445107266306877,0.049591004848480225,-0.009785473346710205,0.9998534321784973,-0.013125686906278133,-0.01075800135731697,-0.0020966660231351852
612.0,0.0,0.0,0.0,0.0,0.0,0.0,0.004199012648314238,0.030640074983239174,0.0016910952981561422,0.9999247789382935,-0.010553554631769657,-0.006220516283065081,0.00039060309063643217
613.0,0.0,0.0,0.0,0.0,0.0,0.0,0.01856645941734314,0.018478207290172577,-0.010480553843080997,0.9999579191207886,-0.007499359082430601,-0.004798618610948324,0.0021369382739067078
614.0,0.0,0.0,0.0,0.0,0.0,0.0,0.03368145972490311,-0.02616223506629467,-0.023268556222319603,0.9999749064445496,-0.006286868825554848,-0.0025639859959483147,0.0019684205763041973
615.0,0.0,0.0,0.0,0.0,0.0,0.0,0.01977943442761898,-0.02168085053563118,-0.005441849585622549,0.999976396560669,-0.006444412749260664,-0.00033752978197298944,0.002265332266688347
616.0,0.0,0.0,0.0,0.0,0.0,0.0,-0.00401069363579154,0.027540812268853188,-0.004213235806673765,0.9999656081199646,-0.005844297353178263,-0.0011651846580207348,0.005733017344027758
617.0,0.0,0.0,0.0,0.0,0.0,0.0,-0.02777729742228985,0.05411219596862793,-0.002187491161748767,0.9999369978904724,-0.0038178705144673586,-0.001844397746026516,0.010399507358670235
618.0,0.0,0.0,0.0,0.0,0.0,0.0,-0.0027964673936367035,0.02657364122569561,-0.008420057594776154,0.999903678894043,-0.0015275905607268214,-0.0016341025475412607,0.01367555744946003
619.0,0.0,0.0,0.0,0.0,0.0,0.0,0.023287033662199974,-0.010416863486170769,-0.011699667200446129,0.9998869895935059,0.0002683762286324054,-0.0016510810237377882,0.014935081824660301
620.0,0.0,0.0,0.0,0.0,0.0,0.0,-0.007470230106264353,0.0254755150526762,0.0012883833842352033,0.999885082244873,0.0021304560359567404,-0.0029278811998665333,0.014708447270095348
621.0,0.0,0.0,0.0,0.0,0.0,0.0,-0.020890874788165092,0.04688766226172447,0.0001923258969327435,0.9998765587806702,0.005656525958329439,-0.004726184997707605,0.013848821632564068
622.0,0.0,0.0,0.0,0.0,0.0,0.0,0.02439424768090248,0.019861137494444847,-0.023780642077326775,0.9998517036437988,0.00931703019887209,-0.006323792971670628,0.013008560054004192
623.0,0.0,0.0,0.0,0.0,0.0,0.0,0.01677708700299263,-0.002411619760096073,-0.019088096916675568,0.9998372793197632,0.012914050370454788,-0.007150671910494566,0.010326855815947056
624.0,0.0,0.0,0.0,0.0,0.0,0.0,-0.015384281054139137,0.01867511495947838,0.00235698907636106,0.9998056292533875,0.015523775480687618,-0.007686522323638201,0.009401765652000904
625.0,0.0,0.0,0.0,0.0,0.0,0.0,-0.010222899727523327,0.007262219674885273,-0.012464826926589012,0.9997720122337341,0.01774016208946705,-0.0066736843436956406,0.009827733971178532
626.0,0.0,0.0,0.0,0.0,0.0,0.0,0.0004175076901447028,-0.03543191775679588,0.002917217556387186,0.9997206926345825,0.01991562359035015,-0.0008981132414191961,0.012689510360360146
627.0,0.0,0.0,0.0,0.0,0.0,0.0,0.009029519744217396,-0.04138372093439102,-0.01378569658845663,0.9996347427368164,0.021150795742869377,0.0037925071083009243,0.016376525163650513
628.0,0.0,0.0,0.0,0.0,0.0,0.0,0.03867699205875397,-0.017919056117534637,-0.05045066773891449,0.9996141791343689,0.02210044488310814,0.005040470976382494,0.01604696549475193
629.0,0.0,0.0,0.0,0.0,0.0,0.0,0.01171045284718275,-0.014607136137783527,-0.020963581278920174,0.9995521306991577,0.024364570155739784,0.0041030701249837875,0.016887124627828598
630.0,0.0,0.0,0.0,0.0,0.0,0.0,0.026958715170621872,-0.02645030803978443,-0.04267556965351105,0.9994996786117554,0.0259565319865942,0.0011148833436891437,0.01803555153310299
631.0,0.0,0.0,0.0,0.0,0.0,0.0,0.05656992644071579,-0.060801029205322266,-0.08186251670122147,0.9994683265686035,0.024892954155802727,-0.007955663837492466,0.019494736567139626
632.0,0.0,0.0,0.0,0.0,0.0,0.0,0.018637679517269135,-0.015226329676806927,-0.04470733180642128,0.9993849992752075,0.021955136209726334,-0.018634647130966187,0.019999610260128975
633.0,0.0,0.0,0.0,0.0,0.0,0.0,-0.05324573814868927,-0.0023877129424363375,0.029069770127534866,0.9992912411689758,0.017539532855153084,-0.02695276029407978,0.019566455855965614
634.0,0.0,0.0,0.0,0.0,0.0,0.0,-0.05600300058722496,-0.02730940282344818,0.07582469284534454,0.9993368983268738,0.013909248635172844,-0.02736731432378292,0.01957133039832115
635.0,0.0,0.0,0.0,0.0,0.0,0.0,-0.04995166137814522,0.019661009311676025,0.08425915986299515,0.9994167685508728,0.012187739834189415,-0.025357887148857117,0.019349204376339912
636.0,0.0,0.0,0.0,0.0,0.0,0.0,-0.002371271839365363,0.05849333480000496,-0.009679128415882587,0.9993656277656555,0.012307490222156048,-0.02544681914150715,0.021662062034010887
637.0,0.0,0.0,0.0,0.0,0.0,0.0,0.024361727759242058,-0.01053620409220457,-0.023681040853261948,0.9993582367897034,0.014654465019702911,-0.022066321223974228,0.024108249694108963
638.0,0.0,0.0,0.0,0.0,0.0,0.0,0.015783000737428665,-0.06909064948558807,0.016471486538648605,0.9993982911109924,0.01582925394177437,-0.017629915848374367,0.025327619165182114
639.0,0.0,0.0,0.0,0.0,0.0,0.0,-0.003996916580945253,-0.02613184228539467,0.00877781119197607,0.999438464641571,0.016551770269870758,-0.013592931441962719,0.025765778496861458
640.0,0.0,0.0,0.0,0.0,0.0,0.0,-0.004912535659968853,0.006232855841517448,-0.011015696451067924,0.9993912577629089,0.017428020015358925,-0.00971896480768919,0.02861570566892624
641.0,0.0,0.0,0.0,0.0,0.0,0.0,0.011640410870313644,-0.043150272220373154,-0.03478747233748436,0.9992991089820862,0.017895691096782684,-0.004149081651121378,0.03261372074484825
642.0,0.0,0.0,0.0,0.0,0.0,0.0,0.03206880763173103,-0.08662735670804977,-0.033764176070690155,0.999231219291687,0.017939496785402298,0.002165050245821476,0.034790895879268646
643.0,0.0,0.0,0.0,0.0,0.0,0.0,0.024727120995521545,-0.01685120165348053,-0.021084019914269447,0.9991081357002258,0.019647540524601936,0.004499164409935474,0.037101417779922485
644.0,0.0,0.0,0.0,0.0,0.0,0.0,0.0006346081499941647,0.018523694947361946,-0.012495785020291805,0.9988449811935425,0.023445554077625275,0.0029691155068576336,0.04183293879032135
645.0,0.0,0.0,0.0,0.0,0.0,0.0,-0.008798298425972462,0.002444895915687084,-0.008018202148377895,0.9986193776130676,0.02755584940314293,0.0013317769626155496,0.044696565717458725
646.0,0.0,0.0,0.0,0.0,0.0,0.0,-0.02516484446823597,-0.009384769946336746,0.004524491727352142,0.9985546469688416,0.03117254562675953,0.0006487362552434206,0.043776944279670715
647.0,0.0,0.0,0.0,0.0,0.0,0.0,-0.013656063005328178,-0.048338882625103,0.0004830259131267667,0.9985973834991455,0.032108135521411896,-4.985367922927253e-05,0.04209842160344124
648.0,0.0,0.0,0.0,0.0,0.0,0.0,0.011516712605953217,-0.0761670172214508,-0.03089291788637638,0.9987378120422363,0.031114062294363976,-0.0008679109159857035,0.03942011669278145
649.0,0.0,0.0,0.0,0.0,0.0,0.0,0.009269232861697674,-0.01674625091254711,-0.04127522185444832,0.9988070726394653,0.030572740361094475,-0.004664032254368067,0.03778677061200142
650.0,0.0,0.0,0.0,0.0,0.0,0.0,-0.002887565176934004,-0.0251777321100235,-0.01011175848543644,0.9987416863441467,0.03021131083369255,-0.006355910561978817,0.03951972350478172
651.0,0.0,0.0,0.0,0.0,0.0,0.0,-0.03261757269501686,-0.01819802261888981,0.0303188469260931,0.9986366629600525,0.029604466632008553,-0.007096201181411743,0.04240329936146736
652.0,0.0,0.0,0.0,0.0,0.0,0.0,-0.03572637587785721,0.012029550038278103,0.004330349620431662,0.9986269474029541,0.029018117114901543,-0.008706282824277878,0.042733222246170044
653.0,0.0,0.0,0.0,0.0,0.0,0.0,0.00579474912956357,-0.03305785730481148,-0.03639620169997215,0.9987491965293884,0.028362635523080826,-0.008842358365654945,0.04021464288234711
654.0,0.0,0.0,0.0,0.0,0.0,0.0,0.022337116301059723,-0.04827997460961342,-0.03455057367682457,0.9989022016525269,0.027198558673262596,-0.010850374586880207,0.036563973873853683
655.0,0.0,0.0,0.0,0.0,0.0,0.0,-0.029688648879528046,0.015591826289892197,0.014764499850571156,0.9989785552024841,0.026271028444170952,-0.01254481915384531,0.03455759584903717
656.0,0.0,0.0,0.0,0.0,0.0,0.0,-0.024914775043725967,0.04300931096076965,0.019243277609348297,0.9989469647407532,0.02592903934419155,-0.012701001949608326,0.035653118044137955
657.0,0.0,0.0,0.0,0.0,0.0,0.0,0.009994138963520527,-0.005891881417483091,-0.016402894631028175,0.9988736510276794,0.02493026852607727,-0.01281204354017973,0.038282401859760284
658.0,0.0,0.0,0.0,0.0,0.0,0.0,0.006515574641525745,-0.02531886100769043,-0.01227501966059208,0.9988373517990112,0.023097462952136993,-0.013790358789265156,0.040002670139074326
659.0,0.0,0.0,0.0,0.0,0.0,0.0,-0.01922542229294777,0.013084826990962029,0.012278876267373562,0.9988851547241211,0.0216472577303648,-0.01580343022942543,0.03885819762945175
660.0,0.0,0.0,0.0,0.0,0.0,0.0,-0.021055707708001137,0.019238393753767014,0.019168609753251076,0.9989755749702454,0.020879128947854042,-0.01716308481991291,0.0362946093082428
661.0,0.0,0.0,0.0,0.0,0.0,0.0,-0.015950430184602737,0.006702963262796402,0.016924750059843063,0.9990715384483337,0.020688990131020546,-0.016596699133515358,0.033948514610528946
662.0,0.0,0.0,0.0,0.0,0.0,0.0,-0.009496808983385563,-0.0013817668659612536,0.011618188582360744,0.99910968542099,0.02041102759540081,-0.016271067783236504,0.03314423933625221
663.0,0.0,0.0,0.0,0.0,0.0,0.0,0.006464478559792042,-0.007521937135607004,-0.013425718992948532,0.99910968542099,0.019576027989387512,-0.017714645713567734,0.03290500119328499
664.0,0.0,0.0,0.0,0.0,0.0,0.0,-0.0032370486296713352,-0.017218871042132378,-0.0030694531742483377,0.9990889430046082,0.018637094646692276,-0.018974794074892998,0.0333746112883091
665.0,0.0,0.0,0.0,0.0,0.0,0.0,-0.010431252419948578,-0.02241346426308155,0.014564462937414646,0.9990833401679993,0.017551176249980927,-0.02006339840590954,0.0334930494427681
666.0,0.0,0.0,0.0,0.0,0.0,0.0,-0.009504673071205616,-0.019430018961429596,0.0106493029743433,0.999113142490387,0.016647009178996086,-0.021160662174224854,0.03237215429544449
667.0,0.0,0.0,0.0,0.0,0.0,0.0,-0.019569560885429382,-0.0094682602211833,0.0239100381731987,0.9991494417190552,0.016397614032030106,-0.02096749097108841,0.03149398788809776
668.0,0.0,0.0,0.0,0.0,0.0,0.0,0.003066867124289274,-0.011060652323067188,0.005078899674117565,0.9991995692253113,0.016091084107756615,-0.020966939628124237,0.03002937138080597
669.0,0.0,0.0,0.0,0.0,0.0,0.0,0.004996104631572962,-0.0244953203946352,0.0006580991321243346,0.9992117881774902,0.01589050143957138,-0.02080843225121498,0.029835635796189308
670.0,0.0,0.0,0.0,0.0,0.0,0.0,0.004282163921743631,-0.029716424643993378,0.00582288671284914,0.9992392659187317,0.014987149275839329,-0.02049369178712368,0.0296018123626709
671.0,0.0,0.0,0.0,0.0,0.0,0.0,0.004728701431304216,-0.014523039571940899,0.0010651701595634222,0.9992777109146118,0.014411876909434795,-0.019503749907016754,0.02925463579595089
672.0,0.0,0.0,0.0,0.0,0.0,0.0,0.005798948463052511,-0.008176612667739391,0.005585312377661467,0.9993109107017517,0.013413915410637856,-0.018812967464327812,0.029046814888715744
673.0,0.0,0.0,0.0,0.0,0.0,0.0,0.017921453341841698,-0.016046732664108276,0.0033158217556774616,0.9993313550949097,0.012148736976087093,-0.01832638308405876,0.029212018474936485
674.0,0.0,0.0,0.0,0.0,0.0,0.0,0.007535524666309357,-0.014367473311722279,0.006005570758134127,0.9993760585784912,0.010707644745707512,-0.01747279427945614,0.028766700997948647
675.0,0.0,0.0,0.0,0.0,0.0,0.0,0.0013399849412962794,-0.011759251356124878,0.016096459701657295,0.9994388818740845,0.009202290326356888,-0.01495863776654005,0.02851221337914467
676.0,0.0,0.0,0.0,0.0,0.0,0.0,0.023622330278158188,0.006427838932722807,0.004781431518495083,0.999500572681427,0.007472063414752483,-0.013140307739377022,0.02774924971163273
677.0,0.0,0.0,0.0,0.0,0.0,0.0,0.01983102224767208,0.02111491933465004,-0.006568655837327242,0.9995810985565186,0.005388789810240269,-0.012682996690273285,0.02544589526951313
678.0,0.0,0.0,0.0,0.0,0.0,0.0,0.009823501110076904,0.029050059616565704,-0.01012410968542099,0.9996214509010315,0.0032066679559648037,-0.011657379567623138,0.02470342256128788
679.0,0.0,0.0,0.0,0.0,0.0,0.0,0.01708921790122986,0.020867694169282913,-0.005544149782508612,0.9996483325958252,0.0008737628813832998,-0.00998317264020443,0.02454999089241028
680.0,0.0,0.0,0.0,0.0,0.0,0.0,0.010398700833320618,0.022943221032619476,0.001908140373416245,0.9996632933616638,-0.001602748641744256,-0.00982481986284256,0.023964177817106247
681.0,0.0,0.0,0.0,0.0,0.0,0.0,-0.014432823285460472,0.03810341656208038,0.0032274145632982254,0.9996395111083984,-0.004241945222020149,-0.009991133585572243,0.02455740235745907
682.0,0.0,0.0,0.0,0.0,0.0,0.0,0.009328068234026432,0.018001677468419075,-0.0069983601570129395,0.999610960483551,-0.0066997213289141655,-0.008628341369330883,0.025663508102297783
683.0,0.0,0.0,0.0,0.0,0.0,0.0,0.015699919313192368,0.017143556848168373,-0.009397201240062714,0.9996213912963867,-0.008854793384671211,-0.008457127958536148,0.024632368236780167
684.0,0.0,0.0,0.0,0.0,0.0,0.0,-0.016269346699118614,0.04073703661561012,0.014240379445254803,0.9996340274810791,-0.01071126852184534,-0.008811229839920998,0.023215504363179207
685.0,0.0,0.0,0.0,0.0,0.0,0.0,-0.03693705424666405,0.049059148877859116,0.021990206092596054,0.9996001124382019,-0.012266269885003567,-0.010597225278615952,0.02316550351679325
686.0,0.0,0.0,0.0,0.0,0.0,0.0,-0.019704872742295265,0.031210536137223244,0.010791282169520855,0.9995980858802795,-0.01317780651152134,-0.011373947374522686,0.02236812561750412
687.0,0.0,0.0,0.0,0.0,0.0,0.0,0.0333247147500515,-0.0049042305909097195,-0.013874305412173271,0.999543309211731,-0.013999522663652897,-0.014991996809840202,0.022182125598192215
688.0,0.0,0.0,0.0,0.0,0.0,0.0,0.016462991014122963,-0.010365884751081467,-0.014235392212867737,0.9993436336517334,-0.01593926176428795,-0.02266230620443821,0.023332860320806503
689.0,0.0,0.0,0.0,0.0,0.0,0.0,-0.027712354436516762,-0.0088809784501791,0.028376683592796326,0.9992174506187439,-0.018721451982855797,-0.02680339105427265,0.022247493267059326
690.0,0.0,0.0,0.0,0.0,0.0,0.0,-0.02772839553654194,0.021225890144705772,0.028252312913537025,0.999096691608429,-0.021014411002397537,-0.030395755544304848,0.020968204364180565
691.0,0.0,0.0,0.0,0.0,0.0,0.0,-0.016479166224598885,0.016404379159212112,0.02617299184203148,0.9990434646606445,-0.021929463371634483,-0.03129759058356285,0.02124124765396118
692.0,0.0,0.0,0.0,0.0,0.0,0.0,-0.011669074185192585,-0.005945822689682245,0.03199625760316849,0.9990440011024475,-0.022442057728767395,-0.029650621116161346,0.02299061045050621
693.0,0.0,0.0,0.0,0.0,0.0,0.0,-0.01491784118115902,0.012670283205807209,0.03548646718263626,0.9991043210029602,-0.021909594535827637,-0.027695702388882637,0.023308055475354195
694.0,0.0,0.0,0.0,0.0,0.0,0.0,-0.012818196788430214,0.023677051067352295,0.015863101929426193,0.9992069602012634,-0.02029399573802948,-0.025585118681192398,0.022772064432501793
695.0,0.0,0.0,0.0,0.0,0.0,0.0,0.007349302060902119,-0.005423069000244141,0.01545226015150547,0.999345600605011,-0.018168717622756958,-0.021557601168751717,0.02265445701777935
696.0,0.0,0.0,0.0,0.0,0.0,0.0,0.019226763397455215,-0.010511172004044056,0.012321588583290577,0.99943608045578,-0.015759875997900963,-0.018607696518301964,0.02308276854455471
697.0,0.0,0.0,0.0,0.0,0.0,0.0,0.004572947043925524,-0.010560189373791218,-0.008084111846983433,0.9995343089103699,-0.013472647406160831,-0.015000571496784687,0.022902291268110275
698.0,0.0,0.0,0.0,0.0,0.0,0.0,-0.0035989268217235804,-0.0013829567469656467,0.0022134885657578707,0.9996079802513123,-0.011334359645843506,-0.009439234621822834,0.023791510611772537
699.0,0.0,0.0,0.0,0.0,0.0,0.0,0.03555776923894882,-0.01067175529897213,-0.031129902228713036,0.9996093511581421,-0.010038868524134159,-0.005658973008394241,0.02545899525284767
700.0,0.0,0.0,0.0,0.0,0.0,0.0,0.021477464586496353,-0.008025598712265491,-0.03278788551688194,0.9996021389961243,-0.008972816169261932,-0.002619427628815174,0.026612112298607826
701.0,0.0,0.0,0.0,0.0,0.0,0.0,-0.00785578228533268,0.021332453936338425,-0.010870687663555145,0.9996147155761719,-0.007942339405417442,-0.0012487913481891155,0.026562722399830818
702.0,0.0,0.0,0.0,0.0,0.0,0.0,0.014312494546175003,0.010117719881236553,-0.033172909170389175,0.999634861946106,-0.007048075553029776,-3.773097341763787e-05,0.02608492784202099
703.0,0.0,0.0,0.0,0.0,0.0,0.0,0.029950382187962532,-0.004473323468118906,-0.047394365072250366,0.9996386766433716,-0.006791502237319946,0.00012310979946050793,0.026008138433098793
704.0,0.0,0.0,0.0,0.0,0.0,0.0,-0.0008279485628008842,-0.007039690390229225,-0.025127284228801727,0.9996293783187866,-0.0068578049540519714,-0.00033719727071002126,0.026338335126638412
705.0,0.0,0.0,0.0,0.0,0.0,0.0,-0.02835763618350029,-0.006559744942933321,0.001257913769222796,0.999627411365509,-0.007820782251656055,0.0008785148384049535,0.02613142319023609
706.0,0.0,0.0,0.0,0.0,0.0,0.0,-0.006331996526569128,0.010752804577350616,-0.018865879625082016,0.9996367692947388,-0.00812410470098257,0.001063202740624547,0.025671066716313362
707.0,0.0,0.0,0.0,0.0,0.0,0.0,0.0013227483723312616,-0.006400874350219965,-0.02343737706542015,0.9996628165245056,-0.006549709942191839,0.003845987841486931,0.024825895205140114
708.0,0.0,0.0,0.0,0.0,0.0,0.0,-0.018465152010321617,-0.011211485601961613,-0.01299418043345213,0.9996786117553711,-0.0074500576592981815,0.0032492501195520163,0.024011120200157166
709.0,0.0,0.0,0.0,0.0,0.0,0.0,-0.017059864476323128,0.012924778275191784,-0.02170240320265293,0.9997289180755615,-0.007309290114790201,0.0007351296371780336,0.022089501842856407
710.0,0.0,0.0,0.0,0.0,0.0,0.0,-0.014149886555969715,0.0226658396422863,-0.016670046374201775,0.9997453689575195,-0.007237060461193323,-0.0027614200953394175,0.021191934123635292
711.0,0.0,0.0,0.0,0.0,0.0,0.0,-0.007942359894514084,0.01586594246327877,-0.018908079713582993,0.9997262358665466,-0.007076800800859928,-0.007120415102690458,0.021133501082658768
712.0,0.0,0.0,0.0,0.0,0.0,0.0,-0.019193068146705627,-0.0051940628327429295,0.009694245643913746,0.9996943473815918,-0.00690889498218894,-0.007789873983711004,0.022421013563871384
713.0,0.0,0.0,0.0,0.0,0.0,0.0,-0.0432736836373806,0.004704922903329134,0.042744722217321396,0.9996776580810547,-0.006819612812250853,-0.004231915809214115,0.024087879806756973
714.0,0.0,0.0,0.0,0.0,0.0,0.0,-0.019983427599072456,0.024248795583844185,0.008768824860453606,0.9996699690818787,-0.006008694414049387,-0.0016813536640256643,0.02491704560816288
715.0,0.0,0.0,0.0,0.0,0.0,0.0,0.02183709107339382,0.014977090992033482,-0.017415087670087814,0.9996663331985474,-0.0038171783089637756,0.0008522036368958652,0.025531737133860588
716.0,0.0,0.0,0.0,0.0,0.0,0.0,-0.002854804275557399,-0.007757014594972134,0.014747904613614082,0.9996803998947144,-0.0030175303108990192,0.003428590949624777,0.024868817999958992
717.0,0.0,0.0,0.0,0.0,0.0,0.0,-0.0035422081127762794,0.015072537586092949,0.012204175814986229,0.9997134804725647,-0.0016197843942791224,0.00632073450833559,0.02303089201450348
718.0,0.0,0.0,0.0,0.0,0.0,0.0,0.019601134583353996,0.009115409106016159,-0.01485764142125845,0.9996711015701294,-0.0003143063513562083,0.009840168058872223,0.023681260645389557
719.0,0.0,0.0,0.0,0.0,0.0,0.0,0.03679677098989487,-0.023135773837566376,-0.019248900935053825,0.9996117949485779,-0.0003450827789492905,0.01237302552908659,0.02496291697025299
720.0,0.0,0.0,0.0,0.0,0.0,0.0,0.0412323996424675,-0.029145777225494385,-0.023411516100168228,0.9995792508125305,-0.0009578089229762554,0.014049931429326534,0.02535923570394516
721.0,0.0,0.0,0.0,0.0,0.0,0.0,0.025240905582904816,-0.011604884639382362,-0.00540851941332221,0.9995923042297363,-0.0019481616327539086,0.013512633740901947,0.02507530339062214
722.0,0.0,0.0,0.0,0.0,0.0,0.0,-0.001738236634992063,0.0024197360035032034,0.009421023540198803,0.9996052980422974,-0.00311304721981287,0.011785805225372314,0.025311453267931938
723.0,0.0,0.0,0.0,0.0,0.0,0.0,-0.00523814233019948,-0.003469523275271058,0.03545895963907242,0.9996058940887451,-0.003745172405615449,0.012559988535940647,0.024822356179356575
724.0,0.0,0.0,0.0,0.0,0.0,0.0,0.007760575972497463,-0.019127439707517624,0.02132098190486431,0.9995977282524109,-0.004916262347251177,0.01432077120989561,0.023983566090464592
725.0,0.0,0.0,0.0,0.0,0.0,0.0,0.008071107789874077,0.011568204499781132,0.01407245546579361,0.9995865225791931,-0.005480449181050062,0.015732955187559128,0.023438476026058197
726.0,0.0,0.0,0.0,0.0,0.0,0.0,-0.013292565941810608,0.02987292781472206,0.016666440293192863,0.999577522277832,-0.0058683850802481174,0.0165687408298254,0.02314971387386322
