,Position_X,Position_Y,Position_Z,Velocity_X,Velocity_Y,Velocity_Z,Acceleration_X,Acceleration_Y,Acceleration_Z,Quaterion_0,Quaterion_1,Quaterion_2,Quaterion_3
51.0,0.0,0.0,0.0,0.0,0.0,0.0,-0.042168520390987396,0.001858249306678772,-0.004488882143050432,1.0,-1.3877787807814457e-17,3.469446951953614e-18,-1.734723475976807e-17
52.0,0.0,0.0,0.0,0.0,0.0,0.0,-0.027846891433000565,-0.004657759331166744,-0.00925044622272253,0.9999987483024597,0.0004946577828377485,0.0012467006454244256,-0.0008677369332872331
53.0,0.0,0.0,0.0,0.0,0.0,0.0,-0.022157451137900352,-0.008288003504276276,-0.012423141859471798,0.999995231628418,0.001519579323939979,0.0021767262369394302,-0.0015827995957806706
54.0,0.0,0.0,0.0,0.0,0.0,0.0,-0.017719022929668427,-0.005031541455537081,-0.02171723172068596,0.9999881386756897,0.0027392515912652016,0.0033545498736202717,-0.0022330463398247957
55.0,0.0,0.0,0.0,0.0,0.0,0.0,-0.009531073272228241,-0.009261049330234528,-0.011521569453179836,0.999983012676239,0.002901535714045167,0.004318016581237316,-0.002630810020491481
56.0,0.0,0.0,0.0,0.0,0.0,0.0,-0.004849010147154331,-0.0001061631046468392,-0.007555134128779173,0.9999749064445496,0.003198954276740551,0.005866586230695248,-0.002361658262088895
57.0,0.0,0.0,0.0,0.0,0.0,0.0,0.0013284245505928993,-0.00014631244994234294,-0.012834914959967136,0.9999573230743408,0.0042771706357598305,0.007745102047920227,-0.0026606584433466196
58.0,0.0,0.0,0.0,0.0,0.0,0.0,0.001047716592438519,-0.025144124403595924,-0.009538479149341583,0.9999500513076782,0.0026073241606354713,0.009545614942908287,-0.001412711339071393
59.0,0.0,0.0,0.0,0.0,0.0,0.0,0.09844674915075302,-0.04850263521075249,-0.08438683301210403,0.9999576210975647,0.003072683233767748,0.006358698941767216,0.005908345337957144
60.0,0.0,0.0,0.0,0.0,0.0,0.0,0.0092586949467659,-0.001109230681322515,0.041844647377729416,0.9999587535858154,0.0001592785120010376,0.004575631115585566,0.007842203602194786
61.0,0.0,0.0,0.0,0.0,0.0,0.0,-0.018320681527256966,0.015487663447856903,-0.006649562623351812,0.9999810457229614,-0.00028935002046637237,0.0025499481707811356,0.005597051233053207
62.0,0.0,0.0,0.0,0.0,0.0,0.0,-0.03945907577872276,0.02522192895412445,0.023267656564712524,0.999985933303833,-6.591776764253154e-05,0.0025768005289137363,0.004631778225302696
63.0,0.0,0.0,0.0,0.0,0.0,0.0,-0.012989853508770466,0.004346898291260004,0.02812725491821766,0.9999818801879883,0.0006611039862036705,0.0035106483846902847,0.004847153089940548
64.0,0.0,0.0,0.0,0.0,0.0,0.0,-0.00808039866387844,-0.012922810390591621,-0.0028654306661337614,0.9999783635139465,0.00034533097641542554,0.004449347499758005,0.00483315484598279
65.0,0.0,0.0,0.0,0.0,0.0,0.0,-0.03632541000843048,0.010191068053245544,0.006847604643553495,0.9999843835830688,0.0003318050876259804,0.003965803887695074,0.003921343479305506
66.0,0.0,0.0,0.0,0.0,0.0,0.0,-0.027910027652978897,0.009292662143707275,0.013484891504049301,0.9999808073043823,0.0008843499235808849,0.004044966772198677,0.0046099466271698475
67.0,0.0,0.0,0.0,0.0,0.0,0.0,-0.016822809353470802,0.014018499292433262,0.010172408074140549,0.9999790191650391,0.0017381354700773954,0.003972974140197039,0.004811027552932501
68.0,0.0,0.0,0.0,0.0,0.0,0.0,-0.0057449182495474815,0.004835692699998617,0.007981122471392155,0.999976396560669,0.0027512989472597837,0.005122911650687456,0.0036564194597303867
69.0,0.0,0.0,0.0,0.0,0.0,0.0,0.0055191111750900745,0.0031279483810067177,-0.001183024258352816,0.9999650120735168,0.0037587678525596857,0.007039827760308981,0.0025011615362018347
70.0,0.0,0.0,0.0,0.0,0.0,0.0,0.016643652692437172,0.0011758654145523906,-0.009801349602639675,0.9999469518661499,0.004707875195890665,0.008878323249518871,0.0022659488022327423
71.0,0.0,0.0,0.0,0.0,0.0,0.0,0.026564860716462135,-0.006501405034214258,-0.01469201035797596,0.99993497133255,0.005813006777316332,0.009585240855813026,0.0020811036229133606
72.0,0.0,0.0,0.0,0.0,0.0,0.0,0.024990586563944817,-0.020061912015080452,-0.026565825566649437,0.9999310374259949,0.006369712296873331,0.00948838610202074,0.0027094664983451366
73.0,0.0,0.0,0.0,0.0,0.0,0.0,0.0320613756775856,-0.014485565945506096,-0.018318474292755127,0.9999281764030457,0.0061307935975492,0.009003852494060993,0.004996913019567728
74.0,0.0,0.0,0.0,0.0,0.0,0.0,0.017261752858757973,0.0031720392871648073,-0.0030802772380411625,0.9999373555183411,0.005367924924939871,0.007878446951508522,0.005864531733095646
75.0,0.0,0.0,0.0,0.0,0.0,0.0,0.006852410733699799,0.011693337932229042,0.007340529467910528,0.999947726726532,0.00500313239172101,0.007049879524856806,0.0054618180729448795
76.0,0.0,0.0,0.0,0.0,0.0,0.0,-0.0019436454167589545,0.019314512610435486,0.010748638771474361,0.9999542236328125,0.0046443515457212925,0.006710439920425415,0.0049997856840491295
77.0,0.0,0.0,0.0,0.0,0.0,0.0,0.0015896700788289309,0.01939568482339382,0.014428600668907166,0.9999516606330872,0.00481740478426218,0.007068017963320017,0.004855061881244183
78.0,0.0,0.0,0.0,0.0,0.0,0.0,0.01227489672601223,0.01601245440542698,0.012297692708671093,0.999947190284729,0.005166989751160145,0.0074327257461845875,0.004870585165917873
79.0,0.0,0.0,0.0,0.0,0.0,0.0,0.011417306959629059,0.014443326741456985,0.012792781926691532,0.9999439716339111,0.004902661312371492,0.007255263160914183,0.005946202203631401
80.0,0.0,0.0,0.0,0.0,0.0,0.0,0.008347790688276291,0.0178148802369833,0.01094302162528038,0.9999419450759888,0.004890982992947102,0.006239326670765877,0.007299643009901047
81.0,0.0,0.0,0.0,0.0,0.0,0.0,0.006443670019507408,0.016140654683113098,0.004304366186261177,0.9999387264251709,0.005093751475214958,0.005569774191826582,0.00810001976788044
82.0,0.0,0.0,0.0,0.0,0.0,0.0,0.011921776458621025,0.006075722631067038,-0.0008482520934194326,0.9999314546585083,0.005468328017741442,0.0058132377453148365,0.00856581050902605
83.0,0.0,0.0,0.0,0.0,0.0,0.0,0.008896509185433388,0.009357075206935406,-0.0072419303469359875,0.999924898147583,0.006192049011588097,0.0060805948451161385,0.00865067820996046
84.0,0.0,0.0,0.0,0.0,0.0,0.0,0.007346536498516798,0.004500134848058224,-0.007845536805689335,0.9999245405197144,0.006695799063891172,0.006445532664656639,0.008033150807023048
85.0,0.0,0.0,0.0,0.0,0.0,0.0,0.007796652615070343,-0.0016781468875706196,-0.013104161247611046,0.9999220371246338,0.007197539787739515,0.006897884886711836,0.007520820014178753
86.0,0.0,0.0,0.0,0.0,0.0,0.0,0.013722212985157967,-0.003048316342756152,-0.014983819797635078,0.999910295009613,0.00698960293084383,0.007256153970956802,0.00882506649941206
87.0,0.0,0.0,0.0,0.0,0.0,0.0,0.009744170121848583,0.003019807394593954,-0.014729310758411884,0.9999064207077026,0.006402154918760061,0.00706325750797987,0.009811635129153728
88.0,0.0,0.0,0.0,0.0,0.0,0.0,0.003188422182574868,0.0028655154164880514,-0.011221764609217644,0.9999003410339355,0.006906332913786173,0.006751724984496832,0.010297197848558426
89.0,0.0,0.0,0.0,0.0,0.0,0.0,-0.0026873056776821613,0.0049722460098564625,-0.010643401183187962,0.9999000430107117,0.006336411461234093,0.006962493062019348,0.010547091253101826
90.0,0.0,0.0,0.0,0.0,0.0,0.0,0.004911061841994524,0.0019522729562595487,-0.00020352983847260475,0.9999032020568848,0.006158354226499796,0.007655017077922821,0.009851481765508652
91.0,0.0,0.0,0.0,0.0,0.0,0.0,-0.00933853816241026,-0.02231157384812832,-0.006404089741408825,0.9998972415924072,0.004885918460786343,0.009196030907332897,0.009852242656052113
92.0,0.0,0.0,0.0,0.0,0.0,0.0,0.04899000748991966,-0.01907343976199627,-0.06133909896016121,0.9998515844345093,0.0039006476290524006,0.009955440647900105,0.013507477939128876
93.0,0.0,0.0,0.0,0.0,0.0,0.0,0.07963946461677551,-0.0082492521032691,0.036222271621227264,0.9997734427452087,0.0004205849254503846,0.007344952318817377,0.019972797483205795
94.0,0.0,0.0,0.0,0.0,0.0,0.0,-0.02473553642630577,0.008643591776490211,0.012455538846552372,0.9998326897621155,-0.001261805184185505,0.00516963005065918,0.01750153675675392
95.0,0.0,0.0,0.0,0.0,0.0,0.0,-0.04127619415521622,0.035963088274002075,-0.0028020446188747883,0.9998661279678345,-0.0008571965736337006,0.0033247601240873337,0.015996290370821953
96.0,0.0,0.0,0.0,0.0,0.0,0.0,-0.020257404074072838,0.015030337497591972,0.031054113060235977,0.9998599886894226,-0.0004154152702540159,0.003704668255522847,0.01631404086947441
97.0,0.0,0.0,0.0,0.0,0.0,0.0,0.009859509766101837,-0.010894687846302986,0.02200707234442234,0.9998628497123718,5.891848559258506e-05,0.005125943571329117,0.015748007223010063
98.0,0.0,0.0,0.0,0.0,0.0,0.0,-0.009615754708647728,0.019279444590210915,0.01976013369858265,0.9998927712440491,0.0007683202857151628,0.0048462748527526855,0.013798028230667114
99.0,0.0,0.0,0.0,0.0,0.0,0.0,-0.030483225360512733,0.020638221874833107,0.012773635797202587,0.9999086856842041,0.00189973262604326,0.004468794446438551,0.012612632475793362
100.0,0.0,0.0,0.0,0.0,0.0,0.0,-0.004120212513953447,0.011775693856179714,0.009357896633446217,0.9998911619186401,0.003001501550897956,0.00490557961165905,0.01358586736023426
101.0,0.0,0.0,0.0,0.0,0.0,0.0,0.015357069671154022,0.004037318751215935,0.002278454601764679,0.9998736381530762,0.004060096573084593,0.005396813154220581,0.014391258358955383
102.0,0.0,0.0,0.0,0.0,0.0,0.0,0.03235110267996788,-0.027132004499435425,-0.02760908007621765,0.9998475313186646,0.004500115755945444,0.0053570945747196674,0.01599857211112976
103.0,0.0,0.0,0.0,0.0,0.0,0.0,0.026285402476787567,-0.008179381489753723,-0.028873281553387642,0.9998355507850647,0.004365737549960613,0.005561407655477524,0.016700776293873787
104.0,0.0,0.0,0.0,0.0,0.0,0.0,0.024035099893808365,-0.0052229962311685085,-0.017456313595175743,0.9998306035995483,0.0041422974318265915,0.005804260261356831,0.01696958765387535
105.0,0.0,0.0,0.0,0.0,0.0,0.0,0.01598544977605343,-0.00333660701289773,-0.01835370622575283,0.999858021736145,0.003298896597698331,0.00462959473952651,0.01586158014833927
106.0,0.0,0.0,0.0,0.0,0.0,0.0,0.0020897830836474895,0.005471153184771538,-0.001692987629212439,0.9998742938041687,0.002905275672674179,0.004342534113675356,0.014968912117183208
107.0,0.0,0.0,0.0,0.0,0.0,0.0,0.002931617433205247,0.01667855679988861,0.007400489412248135,0.9998692870140076,0.0025800929870456457,0.004668767098337412,0.015264967456459999
108.0,0.0,0.0,0.0,0.0,0.0,0.0,-0.004247118253260851,0.021741893142461777,0.010761271230876446,0.9998763799667358,0.002455533482134342,0.0043952856212854385,0.014894999563694
109.0,0.0,0.0,0.0,0.0,0.0,0.0,-0.0035440463107079268,0.018879663199186325,0.006680137012153864,0.9998750686645508,0.0025071394629776478,0.0038007167167961597,0.015136701054871082
110.0,0.0,0.0,0.0,0.0,0.0,0.0,-0.00031392156961373985,0.006649331655353308,0.007165210787206888,0.9998518824577332,0.002489118603989482,0.0034202139358967543,0.01668431982398033
111.0,0.0,0.0,0.0,0.0,0.0,0.0,0.0025297370739281178,0.010125947184860706,-0.005812509451061487,0.9998217225074768,0.002581328386440873,0.0032860031351447105,0.018414048478007317
112.0,0.0,0.0,0.0,0.0,0.0,0.0,-0.003082806942984462,0.00655067153275013,-0.009406332857906818,0.9998294711112976,0.002565875183790922,0.0032043757382780313,0.018003931269049644
113.0,0.0,0.0,0.0,0.0,0.0,0.0,0.0017670143861323595,0.008213108405470848,-0.0070872013457119465,0.9998346567153931,0.0024342904798686504,0.0037076682783663273,0.017633410170674324
114.0,0.0,0.0,0.0,0.0,0.0,0.0,0.0041573625057935715,0.006718424614518881,-0.0036469593178480864,0.9998380541801453,0.002264236332848668,0.0035955472849309444,0.0174885056912899
115.0,0.0,0.0,0.0,0.0,0.0,0.0,0.005615512374788523,0.006634684279561043,-0.004631931893527508,0.9998294711112976,0.0015923972241580486,0.004009739030152559,0.017957773059606552
116.0,0.0,0.0,0.0,0.0,0.0,0.0,0.003385513089597225,0.005854523740708828,-0.005230605602264404,0.9998327493667603,0.0011108840117231011,0.004229866433888674,0.017757097259163857
117.0,0.0,0.0,0.0,0.0,0.0,0.0,0.0036018486134707928,0.006245268974453211,-0.0010812482796609402,0.9998274445533752,0.0007815166027285159,0.0038321767933666706,0.018159186467528343
118.0,0.0,0.0,0.0,0.0,0.0,0.0,-0.004625831730663776,0.005291074980050325,-0.0025112738367170095,0.9998284578323364,0.0007027359097264707,0.0036326395347714424,0.0181498434394598
119.0,0.0,0.0,0.0,0.0,0.0,0.0,-0.013975943438708782,0.006761963479220867,-0.003598378738388419,0.9998405575752258,0.001107820775359869,0.0036545598413795233,0.017445271834731102
120.0,0.0,0.0,0.0,0.0,0.0,0.0,-0.012527667917311192,0.00621665408834815,-0.006278394255787134,0.9998411536216736,0.0011032229522243142,0.003554658265784383,0.017429208382964134
121.0,0.0,0.0,0.0,0.0,0.0,0.0,-0.008861514739692211,0.0024741122033447027,0.0029989094473421574,0.9998456239700317,0.0008897179504856467,0.0035418325569480658,0.017186608165502548
122.0,0.0,0.0,0.0,0.0,0.0,0.0,-0.013910528272390366,0.0064073288813233376,0.0040393066592514515,0.9998757243156433,0.0010357785504311323,0.004178712144494057,0.015164381824433804
123.0,0.0,0.0,0.0,0.0,0.0,0.0,-0.008561227470636368,0.004423446953296661,0.016199195757508278,0.9998647570610046,0.001540627097710967,0.006255799438804388,0.015131810680031776
124.0,0.0,0.0,0.0,0.0,0.0,0.0,-0.002494474872946739,-0.030953826382756233,0.003002764889970422,0.9998266696929932,-0.0008327174000442028,0.00807267613708973,0.016755692660808563
125.0,0.0,0.0,0.0,0.0,0.0,0.0,0.11240620166063309,-0.06620685011148453,-0.12447761744260788,0.9996911287307739,-0.0009762043482623994,0.005794290918856859,0.0241483673453331
126.0,0.0,0.0,0.0,0.0,0.0,0.0,-0.00616864301264286,0.028033504262566566,0.09647225588560104,0.9996715188026428,-0.004811429884284735,0.004423663020133972,0.024781515821814537
127.0,0.0,0.0,0.0,0.0,0.0,0.0,-0.02550106681883335,0.002614710945636034,-0.047567326575517654,0.999791145324707,-0.003584749298170209,0.0012006423203274608,0.020084945484995842
128.0,0.0,0.0,0.0,0.0,0.0,0.0,-0.03845841437578201,0.02551911398768425,0.028417224064469337,0.9998195767402649,-0.0032937759533524513,0.0023091379553079605,0.01856345124542713
129.0,0.0,0.0,0.0,0.0,0.0,0.0,0.009034667164087296,-0.016534386202692986,0.020588379353284836,0.9998227953910828,-0.0029528019949793816,0.0038326308131217957,0.018194057047367096
130.0,0.0,0.0,0.0,0.0,0.0,0.0,0.005574892740696669,-0.005821105558425188,-0.011048218235373497,0.9998162388801575,-0.003313435474410653,0.005554979667067528,0.01804756373167038
131.0,0.0,0.0,0.0,0.0,0.0,0.0,-0.018161317333579063,0.023345408961176872,0.025074182078242302,0.9998578429222107,-0.0031654646154493093,0.003871138207614422,0.01610398292541504
132.0,0.0,0.0,0.0,0.0,0.0,0.0,-0.0033931019715964794,0.0022700256668031216,0.01867128349840641,0.9998466968536377,-0.0026226777117699385,0.0028899407479912043,0.017069343477487564
133.0,0.0,0.0,0.0,0.0,0.0,0.0,0.020476767793297768,-0.022940196096897125,-0.014709165319800377,0.9997876882553101,-0.0024122516624629498,0.002645301166921854,0.02029114030301571
134.0,0.0,0.0,0.0,0.0,0.0,0.0,0.015177357010543346,-0.0068243080750107765,-0.013789195567369461,0.9997813105583191,-0.0021634716540575027,0.002410733373835683,0.02065850980579853
135.0,0.0,0.0,0.0,0.0,0.0,0.0,0.007813109084963799,-0.021340562030673027,-0.013723243027925491,0.9998037815093994,-0.0029640006832778454,0.00120107876136899,0.019550468772649765
136.0,0.0,0.0,0.0,0.0,0.0,0.0,-0.0013739216374233365,-0.012540031224489212,-0.00927820522338152,0.999838650226593,-0.004023747984319925,0.0002383310056757182,0.01750611700117588
137.0,0.0,0.0,0.0,0.0,0.0,0.0,-0.00493126455694437,-0.014306275174021721,-0.013644243590533733,0.9998691082000732,-0.005059981718659401,-0.00024116592248901725,0.015368024818599224
138.0,0.0,0.0,0.0,0.0,0.0,0.0,-0.012957857921719551,-0.004670471418648958,-0.005888096522539854,0.9998908638954163,-0.005951901897788048,-0.0009812642820179462,0.013484177179634571
139.0,0.0,0.0,0.0,0.0,0.0,0.0,-0.01933797262609005,0.008128642104566097,0.0220209788531065,0.9998900890350342,-0.007095727603882551,-0.0013504816452041268,0.012947156094014645
140.0,0.0,0.0,0.0,0.0,0.0,0.0,-0.0260864719748497,0.021437224000692368,0.01145465113222599,0.9999027848243713,-0.006852385122328997,-0.0016548982821404934,0.012030044570565224
141.0,0.0,0.0,0.0,0.0,0.0,0.0,-0.02236318401992321,0.015068700537085533,-0.0060110026970505714,0.9999147653579712,-0.0064865886233747005,-0.0018091374076902866,0.011187722906470299
142.0,0.0,0.0,0.0,0.0,0.0,0.0,-0.006696246564388275,0.007740511558949947,-0.006603760179132223,0.9999069571495056,-0.00705759460106492,-0.0013515057507902384,0.011593794450163841
143.0,0.0,0.0,0.0,0.0,0.0,0.0,0.00020690567907877266,0.014429384842514992,-0.003720503766089678,0.9999020099639893,-0.006941064260900021,-0.0008051678305491805,0.012128384783864021
144.0,0.0,0.0,0.0,0.0,0.0,0.0,0.00330489594489336,0.00326565676368773,-0.014308922924101353,0.9999076128005981,-0.005796204321086407,-0.0004585284914355725,0.012288198806345463
145.0,0.0,0.0,0.0,0.0,0.0,0.0,-0.001183514017611742,-0.0008606307674199343,-0.03211860731244087,0.999915361404419,-0.0058339438401162624,-0.0012581137707456946,0.011560353450477123
146.0,0.0,0.0,0.0,0.0,0.0,0.0,-0.010005167685449123,-0.002850873861461878,-0.032242096960544586,0.999924898147583,-0.006705337669700384,-0.002222127513960004,0.010013625957071781
147.0,0.0,0.0,0.0,0.0,0.0,0.0,0.0003849286586046219,0.0019218433881178498,-0.0198220107704401,0.9999231696128845,-0.0067148455418646336,-0.0032308860681951046,0.009907282888889313
148.0,0.0,0.0,0.0,0.0,0.0,0.0,0.01656639389693737,0.0199242252856493,0.0005996007239446044,0.9999009370803833,-0.0067552123218774796,-0.004601381253451109,0.011461733840405941
149.0,0.0,0.0,0.0,0.0,0.0,0.0,-0.0053207785822451115,0.04231322556734085,-0.0032921764068305492,0.9999309778213501,-0.0043329051695764065,-0.007860088720917702,0.007582292426377535
150.0,0.0,0.0,0.0,0.0,0.0,0.0,-0.008103182539343834,0.01577810011804104,-0.012421309016644955,0.9999331831932068,-0.0032962276600301266,-0.0108992550522089,0.002017776947468519
151.0,0.0,0.0,0.0,0.0,0.0,0.0,-0.008050177246332169,0.02433263696730137,0.0041418904438614845,0.9998995065689087,-0.003744171466678381,-0.01347246766090393,-0.0023465200792998075
152.0,0.0,0.0,0.0,0.0,0.0,0.0,-0.01853570155799389,0.04501824453473091,0.01856037601828575,0.999867856502533,-0.002843715948984027,-0.015030182898044586,-0.005511414725333452
153.0,0.0,0.0,0.0,0.0,0.0,0.0,-0.016940491273999214,0.044265519827604294,0.01554472278803587,0.999816358089447,-0.000861087697558105,-0.016496624797582626,-0.009718194603919983
154.0,0.0,0.0,0.0,0.0,0.0,0.0,-0.022750280797481537,0.0230326596647501,0.003157886676490307,0.999721348285675,0.000595041667111218,-0.019104108214378357,-0.013859177939593792
155.0,0.0,0.0,0.0,0.0,0.0,0.0,-0.03427877277135849,0.03610200434923172,0.02268812246620655,0.999539852142334,0.001344104646705091,-0.023173697292804718,-0.0195248294621706
156.0,0.0,0.0,0.0,0.0,0.0,0.0,-0.056834734976291656,0.04323790967464447,0.05649805814027786,0.999366819858551,0.001858784002251923,-0.025651851668953896,-0.02458878420293331
157.0,0.0,0.0,0.0,0.0,0.0,0.0,-0.07042508572340012,0.061273347586393356,0.032441962510347366,0.9993169903755188,0.0033383264672011137,-0.02526196651160717,-0.026767155155539513
158.0,0.0,0.0,0.0,0.0,0.0,0.0,-0.023378904908895493,0.043323859572410583,0.012351207435131073,0.9993305802345276,0.002147636143490672,-0.02549329586327076,-0.026153549551963806
159.0,0.0,0.0,0.0,0.0,0.0,0.0,-0.032992757856845856,0.03965022787451744,0.02451905980706215,0.9992738962173462,-0.001028199098072946,-0.026922160759568214,-0.02694253996014595
160.0,0.0,0.0,0.0,0.0,0.0,0.0,-0.03456175699830055,0.029275450855493546,-0.00161841104272753,0.999232828617096,-0.0016303553711622953,-0.02840339206159115,-0.02691417932510376
161.0,0.0,0.0,0.0,0.0,0.0,0.0,0.021944589912891388,0.030075591057538986,0.03054039180278778,0.9993080496788025,-0.0021759297233074903,-0.029097557067871094,-0.023068787530064583
162.0,0.0,0.0,0.0,0.0,0.0,0.0,0.04044375568628311,0.02329634688794613,0.005308856256306171,0.9993461966514587,-0.0013236982049420476,-0.029857998713850975,-0.020345233380794525
163.0,0.0,0.0,0.0,0.0,0.0,0.0,0.01863013207912445,0.001962844980880618,-0.0009696244378574193,0.9993476867675781,4.053654265590012e-05,-0.030245251953601837,-0.019737254828214645
164.0,0.0,0.0,0.0,0.0,0.0,0.0,0.030914252623915672,-0.0023885536938905716,-0.0010138010839000344,0.9993129372596741,0.0028475753497332335,-0.031010407954454422,-0.020097089931368828
165.0,0.0,0.0,0.0,0.0,0.0,0.0,0.02848699688911438,-0.013365272432565689,0.0014186790212988853,0.9992386102676392,0.006063826382160187,-0.03205941244959831,-0.021394401788711548
166.0,0.0,0.0,0.0,0.0,0.0,0.0,0.05315466597676277,-0.03147564455866814,-0.0009412866784259677,0.9992138147354126,0.008130727335810661,-0.03280654549598694,-0.02072122134268284
167.0,0.0,0.0,0.0,0.0,0.0,0.0,0.053672000765800476,-0.04606393352150917,-0.004155208822339773,0.9991754293441772,0.009950044564902782,-0.0337834432721138,-0.020203575491905212
168.0,0.0,0.0,0.0,0.0,0.0,0.0,0.031723324209451675,-0.034482747316360474,0.004513948690146208,0.9990937113761902,0.012117958627641201,-0.03552032262086868,-0.020086217671632767
169.0,0.0,0.0,0.0,0.0,0.0,0.0,0.02544449456036091,-0.04728886857628822,-0.013602880761027336,0.9990391731262207,0.013403106480836868,-0.03707798942923546,-0.019142713397741318
170.0,0.0,0.0,0.0,0.0,0.0,0.0,0.011483937501907349,-0.05975896865129471,-0.04733075946569443,0.9990097880363464,0.014618678949773312,-0.038257308304309845,-0.017381904646754265
171.0,0.0,0.0,0.0,0.0,0.0,0.0,0.010853740386664867,-0.04188239201903343,-0.05748803913593292,0.9989956617355347,0.015408284962177277,-0.039018113166093826,-0.0157434344291687
172.0,0.0,0.0,0.0,0.0,0.0,0.0,0.03347525745630264,-0.049689073115587234,-0.03389834985136986,0.9990044236183167,0.015701645985245705,-0.03946835547685623,-0.013633324764668941
173.0,0.0,0.0,0.0,0.0,0.0,0.0,0.02962539717555046,-0.03812931850552559,-0.04119771346449852,0.9990089535713196,0.015697523951530457,-0.03989269584417343,-0.011962568387389183
174.0,0.0,0.0,0.0,0.0,0.0,0.0,0.018200453370809555,-0.03432292863726616,-0.06273788213729858,0.9990519285202026,0.015870844945311546,-0.039566636085510254,-0.008830222301185131
175.0,0.0,0.0,0.0,0.0,0.0,0.0,0.026447229087352753,-0.030602946877479553,-0.04513922706246376,0.9991006255149841,0.01650087721645832,-0.03890380635857582,-0.0035170773044228554
176.0,0.0,0.0,0.0,0.0,0.0,0.0,0.03508909046649933,-0.012364671565592289,-0.01917289011180401,0.9990611672401428,0.018559640273451805,-0.03914748504757881,3.434321843087673e-05
177.0,0.0,0.0,0.0,0.0,0.0,0.0,0.018679356202483177,-0.002484212862327695,-0.013108617626130581,0.9989487528800964,0.022355547174811363,-0.039981573820114136,0.0017303454224020243
178.0,0.0,0.0,0.0,0.0,0.0,0.0,-0.009000089950859547,0.0019105564570054412,0.0007151139434427023,0.9988378882408142,0.026180686429142952,-0.0402383953332901,0.004304184578359127
179.0,0.0,0.0,0.0,0.0,0.0,0.0,0.00294459774158895,-0.0035300415474921465,0.002072848379611969,0.9986726641654968,0.029877372086048126,-0.04116061329841614,0.008139326237142086
180.0,0.0,0.0,0.0,0.0,0.0,0.0,-0.01499392744153738,0.003942006267607212,-0.008729384280741215,0.998462975025177,0.03448449447751045,-0.04215899109840393,0.01025067362934351
181.0,0.0,0.0,0.0,0.0,0.0,0.0,-0.03340790793299675,0.007613035850226879,0.014397644437849522,0.9983475208282471,0.03776294365525246,-0.04170313477516174,0.01170592475682497
182.0,0.0,0.0,0.0,0.0,0.0,0.0,-0.05212913826107979,0.01292446255683899,-0.004730846267193556,0.9982125759124756,0.04065100848674774,-0.04206353798508644,0.012249186635017395
183.0,0.0,0.0,0.0,0.0,0.0,0.0,-0.037989258766174316,-0.0083592114970088,-0.006983641069382429,0.9981359243392944,0.041802987456321716,-0.04259636998176575,0.012748814187943935
184.0,0.0,0.0,0.0,0.0,0.0,0.0,-0.031204279512166977,-0.0070840721018612385,0.0037706969305872917,0.9981293678283691,0.04159235209226608,-0.04312974959611893,0.01215376053005457
185.0,0.0,0.0,0.0,0.0,0.0,0.0,-0.03400862589478493,-0.0066866157576441765,-0.01672467403113842,0.9981295466423035,0.04155627265572548,-0.04350984841585159,0.010845608077943325
186.0,0.0,0.0,0.0,0.0,0.0,0.0,-0.027870742604136467,-0.005946362391114235,-0.033699389547109604,0.9982275366783142,0.039109282195568085,-0.04313201457262039,0.012329448945820332
187.0,0.0,0.0,0.0,0.0,0.0,0.0,-0.007873227819800377,-0.015842648223042488,-0.015133549459278584,0.9982154965400696,0.038284264504909515,-0.043394725769758224,0.014758517034351826
188.0,0.0,0.0,0.0,0.0,0.0,0.0,-0.010951465927064419,-0.016564106568694115,-0.018755555152893066,0.9981943964958191,0.03672149032354355,-0.043658897280693054,0.018803207203745842
189.0,0.0,0.0,0.0,0.0,0.0,0.0,0.009725751355290413,-0.003837266471236944,0.008416200056672096,0.9981347322463989,0.034031741321086884,-0.04370616376399994,0.025676347315311432
190.0,0.0,0.0,0.0,0.0,0.0,0.0,0.003485811874270439,0.05631188675761223,0.048807788640260696,0.9980308413505554,0.03153058886528015,-0.042496662586927414,0.03368629887700081
191.0,0.0,0.0,0.0,0.0,0.0,0.0,-0.039360374212265015,0.10524026304483414,0.06915254145860672,0.9978983402252197,0.02977457083761692,-0.039650432765483856,0.04171917960047722
192.0,0.0,0.0,0.0,0.0,0.0,0.0,-0.0542181134223938,0.03919806331396103,0.0577472560107708,0.9977577328681946,0.024244507774710655,-0.034402426332235336,0.052042704075574875
193.0,0.0,0.0,0.0,0.0,0.0,0.0,-0.010848555713891983,-0.03391403704881668,0.008484311401844025,0.9975554347038269,0.01165699865669012,-0.02919808030128479,0.06241229549050331
194.0,0.0,0.0,0.0,0.0,0.0,0.0,0.009821225889027119,0.023425737395882607,-0.002331339754164219,0.9971797466278076,-0.002547674113884568,-0.027224699035286903,0.06990010291337967
195.0,0.0,0.0,0.0,0.0,0.0,0.0,-0.029831938445568085,0.09182493388652802,0.01423653680831194,0.9970247745513916,-0.010738964192569256,-0.026645520702004433,0.07153129577636719
196.0,0.0,0.0,0.0,0.0,0.0,0.0,-0.08491355180740356,0.09302767366170883,0.026709990575909615,0.9972618222236633,-0.012197679840028286,-0.025784431025385857,0.06823228299617767
197.0,0.0,0.0,0.0,0.0,0.0,0.0,-0.04842732474207878,0.0402517095208168,0.018745258450508118,0.9976277351379395,-0.011252110823988914,-0.025600353255867958,0.06290503591299057
198.0,0.0,0.0,0.0,0.0,0.0,0.0,-0.03521156683564186,0.020935820415616035,0.007639560382813215,0.998112678527832,-0.00904439389705658,-0.02569282427430153,0.05504835769534111
199.0,0.0,0.0,0.0,0.0,0.0,0.0,0.0342361181974411,-0.012605485506355762,-0.015735380351543427,0.9982584118843079,-0.00856328010559082,-0.026653924956917763,0.05193250626325607
200.0,0.0,0.0,0.0,0.0,0.0,0.0,0.03897801786661148,-0.025490254163742065,0.017741132527589798,0.998291015625,-0.011605125851929188,-0.025618845596909523,0.05123937502503395
201.0,0.0,0.0,0.0,0.0,0.0,0.0,-0.00694393552839756,0.02639872394502163,0.028532657772302628,0.9983879923820496,-0.015217994339764118,-0.027094146236777306,0.04749705642461777
202.0,0.0,0.0,0.0,0.0,0.0,0.0,-0.003087212797254324,-0.011824474669992924,0.014306062832474709,0.9983529448509216,-0.020441345870494843,-0.029000522568821907,0.04510151222348213
203.0,0.0,0.0,0.0,0.0,0.0,0.0,-0.033265650272369385,-0.04334016889333725,-0.02956494875252247,0.9982914924621582,-0.027533957734704018,-0.030885187909007072,0.04127900302410126
204.0,0.0,0.0,0.0,0.0,0.0,0.0,0.014021155424416065,-0.08768466860055923,-0.07274574041366577,0.9977943897247314,-0.03994373977184296,-0.028825247660279274,0.04449937120079994
205.0,0.0,0.0,0.0,0.0,0.0,0.0,0.096078060567379,-0.04109632223844528,-0.1293995976448059,0.996461808681488,-0.05253642797470093,-0.022548610344529152,0.06160223111510277
206.0,0.0,0.0,0.0,0.0,0.0,0.0,0.06203898414969444,-0.012996543198823929,-0.03785865381360054,0.9948521256446838,-0.060390301048755646,-0.01867704465985298,0.07921132445335388
207.0,0.0,0.0,0.0,0.0,0.0,0.0,-0.05144140124320984,0.09904219955205917,0.08354848623275757,0.9935338497161865,-0.06499402970075607,-0.014166846871376038,0.09199584275484085
208.0,0.0,0.0,0.0,0.0,0.0,0.0,-0.08893796056509018,0.2201194018125534,0.12377490848302841,0.9933297038078308,-0.06309633702039719,-0.012683358043432236,0.09567566961050034
209.0,0.0,0.0,0.0,0.0,0.0,0.0,-0.15215812623500824,0.18528838455677032,0.11120010167360306,0.9949495196342468,-0.05313655361533165,-0.01645350456237793,0.08355244994163513
210.0,0.0,0.0,0.0,0.0,0.0,0.0,-0.08622456341981888,0.060262586921453476,0.07837006449699402,0.9965733885765076,-0.04406581073999405,-0.021720323711633682,0.06654611974954605
211.0,0.0,0.0,0.0,0.0,0.0,0.0,-0.04393497481942177,0.030065640807151794,0.07277591526508331,0.9977031946182251,-0.038222890347242355,-0.028730565682053566,0.047992043197155
212.0,0.0,0.0,0.0,0.0,0.0,0.0,0.023352976888418198,0.008848383091390133,0.0468621701002121,0.9983172416687012,-0.03084239549934864,-0.03569053113460541,0.03374337777495384
213.0,0.0,0.0,0.0,0.0,0.0,0.0,0.09985300898551941,0.04440968483686447,0.11129353195428848,0.9985271096229553,-0.022789224982261658,-0.041041553020477295,0.027219178155064583
214.0,0.0,0.0,0.0,0.0,0.0,0.0,0.06593053042888641,0.13627219200134277,0.12420106679201126,0.9987190961837769,-0.009606136940419674,-0.043636154383420944,0.023737415671348572
215.0,0.0,0.0,0.0,0.0,0.0,0.0,0.04216987267136574,0.07074204087257385,0.08599036931991577,0.9988157153129578,0.006969593930989504,-0.04213801026344299,0.02331702969968319
216.0,0.0,0.0,0.0,0.0,0.0,0.0,0.09155648201704025,-0.06620604544878006,-0.008683981373906136,0.9987192749977112,0.017690196633338928,-0.03988098353147507,0.025624318048357964
217.0,0.0,0.0,0.0,0.0,0.0,0.0,0.06556788831949234,-0.15455341339111328,-0.10980640351772308,0.9988334774971008,0.020521681755781174,-0.03757962957024574,0.02234220877289772
218.0,0.0,0.0,0.0,0.0,0.0,0.0,0.018480001017451286,-0.13454082608222961,-0.09469497948884964,0.9991036057472229,0.01793638803064823,-0.03399164229631424,0.017735004425048828
219.0,0.0,0.0,0.0,0.0,0.0,0.0,0.03270193934440613,-0.10278797894716263,-0.06665711849927902,0.999167799949646,0.016254454851150513,-0.033425454050302505,0.016816815361380577
220.0,0.0,0.0,0.0,0.0,0.0,0.0,0.028195474296808243,-0.04273141175508499,-0.015519230626523495,0.9991461634635925,0.0164597537368536,-0.03444483503699303,0.01578460820019245
221.0,0.0,0.0,0.0,0.0,0.0,0.0,-0.0025384281761944294,-0.02924972027540207,0.009818434715270996,0.9991755485534668,0.016958680003881454,-0.03469352796673775,0.012563269585371017
222.0,0.0,0.0,0.0,0.0,0.0,0.0,0.008138506673276424,-0.060090284794569016,-0.03231959417462349,0.9992150664329529,0.01673889346420765,-0.03382299467921257,0.012055644765496254
223.0,0.0,0.0,0.0,0.0,0.0,0.0,0.046231433749198914,-0.043624211102724075,-0.060486890375614166,0.9992378354072571,0.012385069392621517,-0.03372177109122276,0.015272615477442741
224.0,0.0,0.0,0.0,0.0,0.0,0.0,0.04097122326493263,-0.018899451941251755,-0.048554159700870514,0.9992268681526184,0.005783426575362682,-0.03513511270284653,0.016668597236275673
225.0,0.0,0.0,0.0,0.0,0.0,0.0,-0.02390272170305252,0.06507088243961334,0.014773422852158546,0.9990846514701843,-0.0019327646587044,-0.03917055204510689,0.017083384096622467
226.0,0.0,0.0,0.0,0.0,0.0,0.0,-0.07615593820810318,0.09837271273136139,0.09492712467908859,0.998924970626831,-0.005085710436105728,-0.042573943734169006,0.017635200172662735
227.0,0.0,0.0,0.0,0.0,0.0,0.0,-0.10812672227621078,0.07208006829023361,0.03399229422211647,0.9989381432533264,-0.0036520434077829123,-0.0431508794426918,0.01573130115866661
228.0,0.0,0.0,0.0,0.0,0.0,0.0,-0.0559525266289711,0.024410801008343697,0.007427111733704805,0.9990212917327881,-0.0025239645037800074,-0.04198945686221123,0.013666660524904728
229.0,0.0,0.0,0.0,0.0,0.0,0.0,-0.03462724760174751,-0.011005619540810585,-0.013726344332098961,0.9990696310997009,-0.0032783844508230686,-0.04092052951455116,0.013224314898252487
230.0,0.0,0.0,0.0,0.0,0.0,0.0,-0.030448732897639275,-0.0052225543186068535,-0.025230824947357178,0.9990376234054565,-0.005537866614758968,-0.04131830111145973,0.01365229208022356
231.0,0.0,0.0,0.0,0.0,0.0,0.0,-0.06133529543876648,0.00486453203484416,-0.04503680765628815,0.9990293383598328,-0.006238910835236311,-0.042075470089912415,0.01147347129881382
232.0,0.0,0.0,0.0,0.0,0.0,0.0,-0.048150621354579926,-0.01168910413980484,-0.0512237511575222,0.9990475177764893,-0.006710187066346407,-0.041981033980846405,0.009832905605435371
233.0,0.0,0.0,0.0,0.0,0.0,0.0,-0.037985071539878845,0.0076767452992498875,-0.034924231469631195,0.99910968542099,-0.0074496399611234665,-0.040631867945194244,0.00858431775122881
234.0,0.0,0.0,0.0,0.0,0.0,0.0,-0.057356320321559906,0.012417304329574108,-0.030184801667928696,0.9991682767868042,-0.008229168131947517,-0.03972085192799568,0.0041876137256622314
235.0,0.0,0.0,0.0,0.0,0.0,0.0,-0.058125197887420654,-0.0046945540234446526,-0.04514755308628082,0.9992183446884155,-0.00849982537329197,-0.038602229207754135,-0.0008873963379301131
236.0,0.0,0.0,0.0,0.0,0.0,0.0,-0.04585069417953491,-0.006989677436649799,-0.06957654654979706,0.9992976784706116,-0.008160477504134178,-0.03622555360198021,-0.005089289974421263
237.0,0.0,0.0,0.0,0.0,0.0,0.0,-0.01636418141424656,-0.022325528785586357,-0.03591179847717285,0.9993340373039246,-0.00818710494786501,-0.034883055835962296,-0.0069228834472596645
238.0,0.0,0.0,0.0,0.0,0.0,0.0,0.016062026843428612,-0.031293004751205444,-0.04180781543254852,0.999247670173645,-0.011551035568118095,-0.03652389347553253,-0.006063482258468866
239.0,0.0,0.0,0.0,0.0,0.0,0.0,0.00016787929052952677,-0.04353920370340347,-0.07229415327310562,0.9990221858024597,-0.015200180932879448,-0.04094528779387474,-0.006895425263792276
240.0,0.0,0.0,0.0,0.0,0.0,0.0,-0.01782461628317833,-0.006982147227972746,-0.04993113875389099,0.9987000226974487,-0.019019566476345062,-0.046245865523815155,-0.009902920573949814
241.0,0.0,0.0,0.0,0.0,0.0,0.0,-0.03078494220972061,0.03975494205951691,-0.006906799040734768,0.9983660578727722,-0.020441247150301933,-0.05098364129662514,-0.015763195231556892
242.0,0.0,0.0,0.0,0.0,0.0,0.0,-0.0551254078745842,0.014107958413660526,-0.018040431663393974,0.9980820417404175,-0.02258376218378544,-0.05363475903868675,-0.02111676149070263
243.0,0.0,0.0,0.0,0.0,0.0,0.0,-0.048549581319093704,0.07400602847337723,0.0634332150220871,0.9979440569877625,-0.026557091623544693,-0.0536029115319252,-0.02301967330276966
244.0,0.0,0.0,0.0,0.0,0.0,0.0,-0.02689758874475956,0.049055907875299454,0.01566120609641075,0.9977133870124817,-0.028555210679769516,-0.055348508059978485,-0.02625642716884613
245.0,0.0,0.0,0.0,0.0,0.0,0.0,-0.032183289527893066,0.043779995292425156,-0.007073000073432922,0.9973918795585632,-0.030309190973639488,-0.05922609195113182,-0.0279999952763319
246.0,0.0,0.0,0.0,0.0,0.0,0.0,-0.022113149985671043,0.061246514320373535,0.04473796859383583,0.9971745014190674,-0.031502049416303635,-0.06258474290370941,-0.027101675048470497
247.0,0.0,0.0,0.0,0.0,0.0,0.0,-0.03958841785788536,0.047901254147291183,0.011983726173639297,0.9971052408218384,-0.030180437490344048,-0.06493436545133591,-0.025572560727596283
248.0,0.0,0.0,0.0,0.0,0.0,0.0,-0.03132098540663719,0.04028284549713135,0.05459022894501686,0.9974167346954346,-0.027965838089585304,-0.06269071251153946,-0.02113940753042698
249.0,0.0,0.0,0.0,0.0,0.0,0.0,-0.027185481041669846,0.0786365419626236,0.09006095677614212,0.9978839159011841,-0.02402077242732048,-0.058278195559978485,-0.016015544533729553
250.0,0.0,0.0,0.0,0.0,0.0,0.0,-0.042416416108608246,0.07518550753593445,0.054544463753700256,0.9984748363494873,-0.019605636596679688,-0.05095822736620903,-0.008217222057282925
251.0,0.0,0.0,0.0,0.0,0.0,0.0,-0.08341996371746063,0.07986310124397278,0.049398455768823624,0.9989407658576965,-0.016563311219215393,-0.04293961822986603,-0.00019951577996835113
252.0,0.0,0.0,0.0,0.0,0.0,0.0,-0.08105096220970154,0.02978266403079033,0.04319542273879051,0.99920654296875,-0.017903998494148254,-0.034170523285865784,0.009943611919879913
253.0,0.0,0.0,0.0,0.0,0.0,0.0,-0.03662876784801483,0.0001518762146588415,0.06353944540023804,0.9991389513015747,-0.020276909694075584,-0.026538990437984467,0.02462221495807171
254.0,0.0,0.0,0.0,0.0,0.0,0.0,-0.033055055886507034,-0.007062339223921299,0.020647546276450157,0.9987980127334595,-0.022539956495165825,-0.02175774797797203,0.037701137363910675
255.0,0.0,0.0,0.0,0.0,0.0,0.0,-0.03720151633024216,0.0055945334024727345,-0.010120052844285965,0.9983307719230652,-0.024145640432834625,-0.01916099712252617,0.0488591343164444
256.0,0.0,0.0,0.0,0.0,0.0,0.0,-0.015931980684399605,0.034650132060050964,0.028561396524310112,0.9977626800537109,-0.023210125043988228,-0.01453241053968668,0.0609939843416214
257.0,0.0,0.0,0.0,0.0,0.0,0.0,-0.012744192034006119,0.022546498104929924,-0.014624089933931828,0.9973474144935608,-0.020102698355913162,-0.009860033169388771,0.06926463544368744
258.0,0.0,0.0,0.0,0.0,0.0,0.0,-0.03140322491526604,0.006887511815875769,0.009250950999557972,0.9969342947006226,-0.01778406649827957,-0.002983695361763239,0.07613998651504517
259.0,0.0,0.0,0.0,0.0,0.0,0.0,0.002047197660431266,0.001538837910629809,0.039413150399923325,0.996421217918396,-0.017848828807473183,0.004083208739757538,0.08252881467342377
260.0,0.0,0.0,0.0,0.0,0.0,0.0,0.015058567747473717,-0.006877302657812834,0.004686017520725727,0.9962630867958069,-0.017759377136826515,0.008497576229274273,0.08410536497831345
261.0,0.0,0.0,0.0,0.0,0.0,0.0,0.03853420168161392,-0.039403077214956284,-0.0022646132856607437,0.996015191078186,-0.01793949492275715,0.012393509037792683,0.0864824429154396
262.0,0.0,0.0,0.0,0.0,0.0,0.0,0.040889427065849304,-0.030750978738069534,-0.017925724387168884,0.9956670999526978,-0.01903574727475643,0.01470260415226221,0.08982948213815689
263.0,0.0,0.0,0.0,0.0,0.0,0.0,0.028581319376826286,-0.0033208774402737617,0.0041553969494998455,0.995467483997345,-0.01924225687980652,0.014816577546298504,0.09194627404212952
264.0,0.0,0.0,0.0,0.0,0.0,0.0,0.026501726359128952,0.004691215697675943,0.010864080861210823,0.9952682256698608,-0.01848871447145939,0.016304483637213707,0.09398270398378372
265.0,0.0,0.0,0.0,0.0,0.0,0.0,0.0166066512465477,-0.01004089880734682,0.019451385363936424,0.9951772689819336,-0.01632349006831646,0.018604496493935585,0.09491904079914093
266.0,0.0,0.0,0.0,0.0,0.0,0.0,0.04828288406133652,-0.030415324494242668,-0.0022576686460524797,0.9947474002838135,-0.01634974591434002,0.022132378071546555,0.09859932959079742
267.0,0.0,0.0,0.0,0.0,0.0,0.0,0.03308642655611038,-0.03174019604921341,-0.05098360776901245,0.9945403933525085,-0.017372120171785355,0.024242011830210686,0.10000547766685486
268.0,0.0,0.0,0.0,0.0,0.0,0.0,0.034789301455020905,-0.02668883092701435,-0.0323297493159771,0.994348406791687,-0.019087934866547585,0.025976313278079033,0.10115059465169907
269.0,0.0,0.0,0.0,0.0,0.0,0.0,-0.002238879445940256,-0.0024028366897255182,-0.021319638937711716,0.9943668246269226,-0.02059270814061165,0.027053259313106537,0.10039026290178299
270.0,0.0,0.0,0.0,0.0,0.0,0.0,0.022413134574890137,0.01506134495139122,0.027672985568642616,0.99437016248703,-0.020536553114652634,0.027578845620155334,0.10023293644189835
271.0,0.0,0.0,0.0,0.0,0.0,0.0,0.03817366808652878,-0.009240862913429737,0.003942836541682482,0.9943753480911255,-0.01970044896006584,0.02837621048092842,0.1001284271478653
272.0,0.0,0.0,0.0,0.0,0.0,0.0,0.05588170140981674,-0.028861144557595253,-0.01436829287558794,0.9942013621330261,-0.021342795342206955,0.029340261593461037,0.101228728890419
273.0,0.0,0.0,0.0,0.0,0.0,0.0,0.0076125068590044975,0.005357655230909586,-0.023229695856571198,0.9942888617515564,-0.02272067964076996,0.02894371747970581,0.10018043220043182
274.0,0.0,0.0,0.0,0.0,0.0,0.0,-0.012634658254683018,0.002865210874006152,-0.03143111988902092,0.9945626854896545,-0.022502727806568146,0.027852773666381836,0.09779005497694016
275.0,0.0,0.0,0.0,0.0,0.0,0.0,0.03709661588072777,-0.028030067682266235,0.01877092570066452,0.9944581389427185,-0.024398524314165115,0.027317358180880547,0.09854330867528915
276.0,0.0,0.0,0.0,0.0,0.0,0.0,0.04821965843439102,-0.0006291401805356145,0.056061990559101105,0.9943429231643677,-0.0261622853577137,0.02657657116651535,0.09946239739656448
277.0,0.0,0.0,0.0,0.0,0.0,0.0,-0.007182329893112183,0.014866147190332413,0.006829674355685711,0.9945417046546936,-0.026102215051651,0.0257880762219429,0.09768558293581009
278.0,0.0,0.0,0.0,0.0,0.0,0.0,-0.018818149343132973,-0.003760697552934289,-0.020845524966716766,0.9948123097419739,-0.026070885360240936,0.024388033896684647,0.09526816755533218
279.0,0.0,0.0,0.0,0.0,0.0,0.0,-0.01567223109304905,0.011928057298064232,-0.009036634117364883,0.9950242638587952,-0.026071935892105103,0.022401537746191025,0.09352217614650726
280.0,0.0,0.0,0.0,0.0,0.0,0.0,-0.023050030693411827,0.02911718375980854,-0.002974127884954214,0.9953487515449524,-0.024985933676362038,0.020286131650209427,0.09080135822296143
281.0,0.0,0.0,0.0,0.0,0.0,0.0,0.01323295384645462,-0.003933233208954334,0.02423914521932602,0.9956081509590149,-0.0248077604919672,0.01801454834640026,0.08845601230859756
282.0,0.0,0.0,0.0,0.0,0.0,0.0,0.02027122676372528,0.0065737827681005,0.0559655986726284,0.9958483576774597,-0.02352125756442547,0.015341752208769321,0.08658263832330704
283.0,0.0,0.0,0.0,0.0,0.0,0.0,0.014088577590882778,0.0005471909535117447,0.04570106416940689,0.9961329698562622,-0.021495746448636055,0.013168214820325375,0.08417569845914841
284.0,0.0,0.0,0.0,0.0,0.0,0.0,-0.0074786352925002575,-0.0047409553080797195,0.01792748086154461,0.9966950416564941,-0.018622245639562607,0.010253429412841797,0.07841377705335617
285.0,0.0,0.0,0.0,0.0,0.0,0.0,-0.01703820377588272,-0.027802249416708946,0.012534783221781254,0.9973927736282349,-0.01708885468542576,0.00564102828502655,0.06988799571990967
286.0,0.0,0.0,0.0,0.0,0.0,0.0,-0.01448125671595335,-0.01912657357752323,-0.01771550625562668,0.997892439365387,-0.015490971505641937,0.0019855503924191,0.0629950612783432
287.0,0.0,0.0,0.0,0.0,0.0,0.0,0.005688006523996592,-0.021090904250741005,-0.007087436504662037,0.9981469511985779,-0.0161872711032629,-0.0018238784978166223,0.058635640889406204
288.0,0.0,0.0,0.0,0.0,0.0,0.0,-0.013994297944009304,-0.0008607749477960169,-0.002910503651946783,0.9983624815940857,-0.01761101931333542,-0.006177580449730158,0.05407739803195
289.0,0.0,0.0,0.0,0.0,0.0,0.0,-0.055805958807468414,-0.0011372981825843453,-0.01926719769835472,0.9986231923103333,-0.01966065913438797,-0.009880545549094677,0.04762297496199608
290.0,0.0,0.0,0.0,0.0,0.0,0.0,-0.07601535320281982,-0.008542967960238457,-0.0163490679115057,0.9988377690315247,-0.021566735580563545,-0.014336369931697845,0.04065905511379242
291.0,0.0,0.0,0.0,0.0,0.0,0.0,-0.0898449644446373,-0.004572573583573103,-0.04384930059313774,0.9991148710250854,-0.021088436245918274,-0.019704220816493034,0.030620992183685303
292.0,0.0,0.0,0.0,0.0,0.0,0.0,-0.11362786591053009,0.05894729122519493,-0.00868347566574812,0.9993420243263245,-0.02059054933488369,-0.024888796731829643,0.016509132459759712
293.0,0.0,0.0,0.0,0.0,0.0,0.0,-0.16033786535263062,0.15130609273910522,0.09154170751571655,0.9994060397148132,-0.01690283790230751,-0.03002629242837429,-0.0007443754002451897
294.0,0.0,0.0,0.0,0.0,0.0,0.0,-0.09656069427728653,0.07038446515798569,0.08708038181066513,0.9992839097976685,-0.011671716347336769,-0.032047104090452194,-0.01640166901051998
295.0,0.0,0.0,0.0,0.0,0.0,0.0,0.03356313705444336,0.011508623138070107,0.12661121785640717,0.9991135597229004,-0.007018572185188532,-0.033074505627155304,-0.025081533938646317
296.0,0.0,0.0,0.0,0.0,0.0,0.0,-0.04269277676939964,-0.0030770888552069664,-0.010934843681752682,0.9987632036209106,0.0027634792495518923,-0.035460710525512695,-0.034740254282951355
297.0,0.0,0.0,0.0,0.0,0.0,0.0,-0.029925702139735222,-0.022798046469688416,-0.049371883273124695,0.9984906315803528,0.008771056309342384,-0.03639770299196243,-0.04018186032772064
298.0,0.0,0.0,0.0,0.0,0.0,0.0,0.09782520681619644,-0.0853785052895546,0.036670368164777756,0.9987035989761353,0.009605896659195423,-0.034821201115846634,-0.035868898034095764
299.0,0.0,0.0,0.0,0.0,0.0,0.0,0.05755869671702385,-0.035021696239709854,0.0047989473678171635,0.998721718788147,0.010630860924720764,-0.03486301004886627,-0.035023435950279236
300.0,0.0,0.0,0.0,0.0,0.0,0.0,0.022241879254579544,-0.006241454742848873,-0.014408609829843044,0.998652458190918,0.01160265039652586,-0.03482620045542717,-0.03668887913227081
301.0,0.0,0.0,0.0,0.0,0.0,0.0,0.03989601507782936,0.0004909709095954895,0.03460073471069336,0.9986579418182373,0.011177864857017994,-0.033924464136362076,-0.03751026839017868
302.0,0.0,0.0,0.0,0.0,0.0,0.0,0.025778984650969505,-0.009935748763382435,-0.0029107448644936085,0.998680591583252,0.012870442122220993,-0.030635446310043335,-0.039154160767793655
303.0,0.0,0.0,0.0,0.0,0.0,0.0,0.02645956352353096,-0.00959247536957264,-0.012129065580666065,0.9987263679504395,0.01422231737524271,-0.027230124920606613,-0.04002418369054794
304.0,0.0,0.0,0.0,0.0,0.0,0.0,0.02536570467054844,-0.014759156852960587,-0.007863420061767101,0.9988086819648743,0.013467385433614254,-0.024738196283578873,-0.039852119982242584
305.0,0.0,0.0,0.0,0.0,0.0,0.0,0.04294123128056526,-0.017770087346434593,-0.022840168327093124,0.9988219141960144,0.014135589823126793,-0.022937437519431114,-0.04036257788538933
306.0,0.0,0.0,0.0,0.0,0.0,0.0,0.04358888044953346,-0.015384520404040813,-0.04489348456263542,0.9987236261367798,0.015728646889328957,-0.02320036292076111,-0.04201754182577133
307.0,0.0,0.0,0.0,0.0,0.0,0.0,0.036119867116212845,-0.014352292753756046,-0.013492921367287636,0.9986574649810791,0.017328331246972084,-0.021569864824414253,-0.04379378259181976
308.0,0.0,0.0,0.0,0.0,0.0,0.0,0.031166428700089455,-0.013286007568240166,-0.022739725187420845,0.9984245300292969,0.02137720212340355,-0.020167633891105652,-0.047797586768865585
309.0,0.0,0.0,0.0,0.0,0.0,0.0,0.04774964228272438,-0.018161023035645485,-0.06436172872781754,0.9980278611183167,0.029051512479782104,-0.020149968564510345,-0.051869239658117294
310.0,0.0,0.0,0.0,0.0,0.0,0.0,0.05056210979819298,-0.04830366373062134,-0.06417988240718842,0.9977536201477051,0.038377173244953156,-0.01891971193253994,-0.05154689401388168
311.0,0.0,0.0,0.0,0.0,0.0,0.0,0.024278923869132996,-0.05139391869306564,0.00028869646484963596,0.997621476650238,0.047515418380498886,-0.016976919025182724,-0.04696404188871384
312.0,0.0,0.0,0.0,0.0,0.0,0.0,-0.05499691888689995,0.005573867820203304,-0.046864453703165054,0.9971327185630798,0.059072718024253845,-0.01528665330260992,-0.04475836455821991
313.0,0.0,0.0,0.0,0.0,0.0,0.0,-0.02496507205069065,-0.023224523290991783,-0.0741286650300026,0.9968726634979248,0.06932302564382553,-0.01077665388584137,-0.036376774311065674
314.0,0.0,0.0,0.0,0.0,0.0,0.0,-0.010259171016514301,-0.05241033807396889,-0.02839624136686325,0.9966157674789429,0.0771334320306778,-0.007205463480204344,-0.02749056927859783
315.0,0.0,0.0,0.0,0.0,0.0,0.0,-0.004467559512704611,-0.06053461879491806,-0.04309907928109169,0.9962943196296692,0.08367744088172913,-0.006440087221562862,-0.018834087997674942
316.0,0.0,0.0,0.0,0.0,0.0,0.0,0.013632293790578842,-0.06299373507499695,-0.028142934665083885,0.9961690306663513,0.08695053309202194,-0.005449018441140652,-0.007551702205091715
317.0,0.0,0.0,0.0,0.0,0.0,0.0,-0.020220324397087097,-0.0225224569439888,0.0025956733152270317,0.9960248470306396,0.08881159126758575,-0.006733667105436325,0.001372771104797721
318.0,0.0,0.0,0.0,0.0,0.0,0.0,-0.023697109892964363,0.009383462369441986,0.045006055384874344,0.995842456817627,0.09028928726911545,-0.009042692370712757,0.007998554967343807
319.0,0.0,0.0,0.0,0.0,0.0,0.0,-0.010487646795809269,0.05209609121084213,0.09883091598749161,0.9958192110061646,0.08994527161121368,-0.010279431939125061,0.012183702550828457
320.0,0.0,0.0,0.0,0.0,0.0,0.0,-0.011292186565697193,0.06523662805557251,0.05412730574607849,0.9958266615867615,0.08963459730148315,-0.009526588954031467,0.014291396364569664
321.0,0.0,0.0,0.0,0.0,0.0,0.0,-0.011793926358222961,0.046868689358234406,0.04106512665748596,0.9958498477935791,0.0896897166967392,-0.00903734378516674,0.012531439773738384
322.0,0.0,0.0,0.0,0.0,0.0,0.0,-0.03871075063943863,-0.005727432668209076,0.011412330903112888,0.995922863483429,0.0892096683382988,-0.00809759646654129,0.010651069693267345
323.0,0.0,0.0,0.0,0.0,0.0,0.0,-0.02876376174390316,-0.020765746012330055,-0.023866115137934685,0.9961088299751282,0.0870046317577362,-0.0052002230659127235,0.013071862049400806
324.0,0.0,0.0,0.0,0.0,0.0,0.0,0.023939138278365135,-0.04216204956173897,-0.030477939173579216,0.9963325262069702,0.08347135782241821,-0.0026305026840418577,0.01863311044871807
325.0,0.0,0.0,0.0,0.0,0.0,0.0,0.03416021913290024,-0.03980948403477669,-0.04235658794641495,0.9966140389442444,0.07911376655101776,-0.0023078382946550846,0.02228253334760666
326.0,0.0,0.0,0.0,0.0,0.0,0.0,-0.010603205300867558,-0.047129757702350616,-0.09156693518161774,0.9970507621765137,0.07377614080905914,-0.003846318693831563,0.020793577656149864
327.0,0.0,0.0,0.0,0.0,0.0,0.0,-0.030899232253432274,-0.033074893057346344,-0.11699812114238739,0.9975675940513611,0.06760262697935104,-0.0056081959046423435,0.01604650728404522
328.0,0.0,0.0,0.0,0.0,0.0,0.0,-0.016288265585899353,-0.015430951490998268,-0.0808892622590065,0.9981113076210022,0.06060885637998581,-0.004745058249682188,0.008839135989546776
329.0,0.0,0.0,0.0,0.0,0.0,0.0,0.010678605176508427,-0.05115044489502907,-0.0643811821937561,0.9986757636070251,0.050975050777196884,-0.004216157365590334,0.005526510067284107
330.0,0.0,0.0,0.0,0.0,0.0,0.0,-0.006047757808119059,0.020852431654930115,-0.05980709195137024,0.999110221862793,0.04184497892856598,-0.004445699043571949,0.002846169751137495
331.0,0.0,0.0,0.0,0.0,0.0,0.0,0.020606733858585358,0.08016134053468704,0.04745665565133095,0.999302327632904,0.036716315895318985,-0.006844523828476667,-0.00018740922678261995
332.0,0.0,0.0,0.0,0.0,0.0,0.0,0.02179856412112713,0.04207007959485054,0.03779112920165062,0.9993505477905273,0.03488548472523689,-0.009025433100759983,0.00019471388077363372
333.0,0.0,0.0,0.0,0.0,0.0,0.0,-0.005264310631901026,0.05851403996348381,0.016649344936013222,0.9992639422416687,0.03688725456595421,-0.009511101059615612,0.004537681583315134
334.0,0.0,0.0,0.0,0.0,0.0,0.0,0.018641605973243713,0.10668148100376129,0.06295829266309738,0.9990181922912598,0.04179596155881882,-0.009467425756156445,0.011244594119489193
335.0,0.0,0.0,0.0,0.0,0.0,0.0,0.006211631931364536,0.10973022133111954,0.12999172508716583,0.9986916184425354,0.048449818044900894,-0.0062797944992780685,0.015111368149518967
336.0,0.0,0.0,0.0,0.0,0.0,0.0,0.026342596858739853,-0.07028650492429733,0.026683524250984192,0.9984954595565796,0.05179445818066597,-0.002408049302175641,0.017839884385466576
337.0,0.0,0.0,0.0,0.0,0.0,0.0,0.012320340611040592,-0.07231772691011429,-0.017284292727708817,0.9985976219177246,0.04833025857806206,1.3962325283500832e-05,0.021613817662000656
338.0,0.0,0.0,0.0,0.0,0.0,0.0,0.0006195174064487219,-0.026307160034775734,0.02093356102705002,0.9987207651138306,0.04486781731247902,0.0004537588683888316,0.02331337332725525
339.0,0.0,0.0,0.0,0.0,0.0,0.0,-0.006161944009363651,-0.006504100281745195,0.0213757511228323,0.998772919178009,0.04427168518304825,0.0011276854202151299,0.022168057039380074
340.0,0.0,0.0,0.0,0.0,0.0,0.0,0.0333312451839447,-0.04359211027622223,0.0009518755250610411,0.9986807703971863,0.04502354934811592,0.0033471263013780117,0.02446153573691845
341.0,0.0,0.0,0.0,0.0,0.0,0.0,-0.03987068310379982,-0.008079346269369125,-0.0423700213432312,0.9987025260925293,0.0458691380918026,0.002950249705463648,0.02192024141550064
342.0,0.0,0.0,0.0,0.0,0.0,0.0,0.015653470531105995,-0.04219712316989899,-0.07609611749649048,0.9987031817436218,0.0448380671441555,0.0033520939759910107,0.023883359506726265
343.0,0.0,0.0,0.0,0.0,0.0,0.0,0.11628976464271545,-0.05858050286769867,-0.035370662808418274,0.9987224340438843,0.04081280902028084,0.004910251125693321,0.02939152903854847
344.0,0.0,0.0,0.0,0.0,0.0,0.0,0.027100345119833946,-0.00516690406948328,-0.015390102751553059,0.9989076852798462,0.03840868920087814,0.005183164030313492,0.026113398373126984
345.0,0.0,0.0,0.0,0.0,0.0,0.0,-0.015702860429883003,0.017531048506498337,-0.00040724530117586255,0.9990292191505432,0.03745795041322708,0.004529283381998539,0.022740770131349564
346.0,0.0,0.0,0.0,0.0,0.0,0.0,-0.00976717472076416,-0.003129010321572423,0.004168187268078327,0.9990866780281067,0.03595618158578873,0.005907404236495495,0.022320270538330078
347.0,0.0,0.0,0.0,0.0,0.0,0.0,0.015714116394519806,-0.022555749863386154,-0.0362531878054142,0.9990919232368469,0.033661141991615295,0.009333629161119461,0.024401787668466568
348.0,0.0,0.0,0.0,0.0,0.0,0.0,0.03111227974295616,-0.037553463131189346,-0.05249400436878204,0.9991917610168457,0.02686718851327896,0.011859829537570477,0.02745072916150093
349.0,0.0,0.0,0.0,0.0,0.0,0.0,0.014924497343599796,-0.08425246179103851,-0.04472670331597328,0.9992228150367737,0.015671048313379288,0.013276208192110062,0.03365008533000946
350.0,0.0,0.0,0.0,0.0,0.0,0.0,0.01648598723113537,-0.0921647772192955,-0.1104879304766655,0.9990541934967041,0.0018350915051996708,0.011602884158492088,0.04186901077628136
351.0,0.0,0.0,0.0,0.0,0.0,0.0,0.05169816315174103,-0.07702932506799698,-0.09902578592300415,0.9982330799102783,-0.013035689480602741,0.010751510038971901,0.056970223784446716
352.0,0.0,0.0,0.0,0.0,0.0,0.0,0.04538331180810928,0.03915591165423393,0.042850643396377563,0.9970077872276306,-0.024625083431601524,0.010732126422226429,0.07247891277074814
353.0,0.0,0.0,0.0,0.0,0.0,0.0,-0.14790242910385132,0.1733158677816391,0.05001522973179817,0.9974287152290344,-0.025396309792995453,0.00391881400719285,0.06690666079521179
354.0,0.0,0.0,0.0,0.0,0.0,0.0,-0.20880180597305298,0.1819859892129898,0.006963613908737898,0.9985588788986206,-0.01900525577366352,-0.00369441625662148,0.05006298050284386
355.0,0.0,0.0,0.0,0.0,0.0,0.0,-0.0596885085105896,0.14779415726661682,0.09801555424928665,0.9992653131484985,-0.013044368475675583,-0.010384180583059788,0.03450550511479378
356.0,0.0,0.0,0.0,0.0,0.0,0.0,0.012717239558696747,0.14943766593933105,0.17608970403671265,0.9995740056037903,-0.008278562687337399,-0.016961097717285156,0.0222608782351017
357.0,0.0,0.0,0.0,0.0,0.0,0.0,0.027507364749908447,0.1564575731754303,0.1268637478351593,0.9996339082717896,0.0011418533977121115,-0.021994445472955704,0.015710288658738136
358.0,0.0,0.0,0.0,0.0,0.0,0.0,-0.0094052879139781,0.17106744647026062,0.0808674693107605,0.9994856119155884,0.015764903277158737,-0.024117158725857735,0.014130374416708946
359.0,0.0,0.0,0.0,0.0,0.0,0.0,0.09583278745412827,0.07416881620883942,0.1652471274137497,0.9991148710250854,0.02882790006697178,-0.023566627874970436,0.01959182322025299
360.0,0.0,0.0,0.0,0.0,0.0,0.0,0.12990033626556396,-0.06371290236711502,0.07386349886655807,0.9987008571624756,0.03563931584358215,-0.02586311660706997,0.025662647560238838
361.0,0.0,0.0,0.0,0.0,0.0,0.0,0.10436148196458817,-0.14884048700332642,0.02003566175699234,0.998685359954834,0.03229079395532608,-0.02732880786061287,0.028959279879927635
362.0,0.0,0.0,0.0,0.0,0.0,0.0,0.01703350804746151,-0.09759460389614105,-0.0937042385339737,0.9987766742706299,0.026977993547916412,-0.027325818315148354,0.0311600249260664
363.0,0.0,0.0,0.0,0.0,0.0,0.0,0.04266073927283287,-0.06312350183725357,-0.053100451827049255,0.9988593459129333,0.020137760788202286,-0.027518853545188904,0.03343573212623596
364.0,0.0,0.0,0.0,0.0,0.0,0.0,0.02986643835902214,-0.016691427677869797,0.00763621274381876,0.9989229440689087,0.015802420675754547,-0.02984672784805298,0.03183469921350479
365.0,0.0,0.0,0.0,0.0,0.0,0.0,-0.011052829213440418,0.008454585447907448,-0.011038195341825485,0.9990150332450867,0.014070865698158741,-0.03169408440589905,0.027698654681444168
366.0,0.0,0.0,0.0,0.0,0.0,0.0,0.004514685366302729,-0.015632255002856255,-0.027584394440054893,0.9990577697753906,0.011899029836058617,-0.0321294367313385,0.02665933594107628
367.0,0.0,0.0,0.0,0.0,0.0,0.0,0.01526728831231594,-0.00780816376209259,0.011711246334016323,0.9990307092666626,0.00669308053329587,-0.03372533619403839,0.027491996064782143
368.0,0.0,0.0,0.0,0.0,0.0,0.0,-0.009098218753933907,0.02851269580423832,0.014220204204320908,0.9989824891090393,0.0037265957798808813,-0.03723956272006035,0.0251635629683733
369.0,0.0,0.0,0.0,0.0,0.0,0.0,-0.03359672799706459,0.01202662568539381,0.04710922762751579,0.9989006519317627,-0.000498178182169795,-0.038890253752470016,0.026168476790189743
370.0,0.0,0.0,0.0,0.0,0.0,0.0,-0.06110011786222458,0.03947215527296066,0.041347723454236984,0.9989108443260193,-0.0031260198447853327,-0.038613881915807724,0.02601708099246025
371.0,0.0,0.0,0.0,0.0,0.0,0.0,-0.09596294164657593,0.03148416429758072,-0.01473137829452753,0.9990119934082031,-0.004040971864014864,-0.03782184422016144,0.022986650466918945
372.0,0.0,0.0,0.0,0.0,0.0,0.0,-0.10289982706308365,0.024503065273165703,0.005576293915510178,0.9991304874420166,-0.0061381785199046135,-0.03390054404735565,0.023485125973820686
373.0,0.0,0.0,0.0,0.0,0.0,0.0,-0.09361334145069122,0.02588026039302349,0.004176595713943243,0.9992026686668396,-0.006507861893624067,-0.030959146097302437,0.02435692586004734
374.0,0.0,0.0,0.0,0.0,0.0,0.0,-0.08073528856039047,-2.6824682208825834e-05,-0.031590621918439865,0.999251127243042,-0.004748805426061153,-0.02709556370973587,0.027216225862503052
375.0,0.0,0.0,0.0,0.0,0.0,0.0,-0.05741257965564728,-0.022556932643055916,-0.0763932541012764,0.9991286993026733,-0.004089999012649059,-0.02273574285209179,0.03476180508732796
376.0,0.0,0.0,0.0,0.0,0.0,0.0,-0.04530361294746399,-0.03484869748353958,-0.06266117095947266,0.9987317323684692,-0.006741459481418133,-0.01721370592713356,0.04683170095086098
377.0,0.0,0.0,0.0,0.0,0.0,0.0,-0.039903342723846436,-0.006647160742431879,-0.02353970892727375,0.9981997609138489,-0.008850608952343464,-0.00946334283798933,0.05856576934456825
378.0,0.0,0.0,0.0,0.0,0.0,0.0,-0.04154423624277115,-0.004860276822000742,-0.05781255662441254,0.9977185130119324,-0.008170885033905506,-0.0015151042025536299,0.0669984370470047
379.0,0.0,0.0,0.0,0.0,0.0,0.0,-0.007058627437800169,-0.03435111418366432,-0.09895000606775284,0.9967772960662842,-0.008773384615778923,0.008013944141566753,0.07933426648378372
380.0,0.0,0.0,0.0,0.0,0.0,0.0,-0.006678522098809481,-0.04614187777042389,-0.06942819803953171,0.9955102205276489,-0.012736743316054344,0.01734565570950508,0.09217629581689835
381.0,0.0,0.0,0.0,0.0,0.0,0.0,0.015990644693374634,-0.024554790928959846,-0.05205412209033966,0.9941364526748657,-0.017534928396344185,0.025409389287233353,0.10363425314426422
382.0,0.0,0.0,0.0,0.0,0.0,0.0,0.004856090992689133,-0.03814557567238808,-0.040626317262649536,0.9928006529808044,-0.023637907579541206,0.03136161342263222,0.11315696686506271
383.0,0.0,0.0,0.0,0.0,0.0,0.0,-0.0005033201887272298,-0.042721133679151535,-0.04590648040175438,0.9913718104362488,-0.03234590217471123,0.03623824939131737,0.12174688279628754
384.0,0.0,0.0,0.0,0.0,0.0,0.0,-0.007397307548671961,-0.03061068244278431,-0.06728513538837433,0.9896723031997681,-0.042766083031892776,0.04105368256568909,0.13051395118236542
385.0,0.0,0.0,0.0,0.0,0.0,0.0,-0.018631044775247574,0.02394814044237137,-0.0032732849940657616,0.9879844188690186,-0.05375634506344795,0.043967392295598984,0.1380786895751953
386.0,0.0,0.0,0.0,0.0,0.0,0.0,-0.020532602444291115,0.0865398719906807,0.0752563551068306,0.9862890243530273,-0.06366374343633652,0.047228988260030746,0.14473967254161835
387.0,0.0,0.0,0.0,0.0,0.0,0.0,-0.03012550063431263,0.11391150206327438,0.05754226818680763,0.9850783348083496,-0.06974627077579498,0.04991617053747177,0.14921337366104126
388.0,0.0,0.0,0.0,0.0,0.0,0.0,-0.025395451113581657,0.09032047539949417,0.047976087778806686,0.9841827750205994,-0.07190573960542679,0.05356737598776817,0.15279792249202728
389.0,0.0,0.0,0.0,0.0,0.0,0.0,-0.024308139458298683,0.08708463609218597,0.003018902847543359,0.9841586947441101,-0.07248447835445404,0.053936757147312164,0.1525360643863678
390.0,0.0,0.0,0.0,0.0,0.0,0.0,5.12510996486526e-05,0.057330720126628876,-0.0008763766381889582,0.9846401214599609,-0.07161010801792145,0.05155286565423012,0.15067167580127716
391.0,0.0,0.0,0.0,0.0,0.0,0.0,0.05977579951286316,0.033863943070173264,0.039931491017341614,0.9838720560073853,-0.07062745094299316,0.05235922709107399,0.15578004717826843
392.0,0.0,0.0,0.0,0.0,0.0,0.0,0.04125389829277992,0.04692059010267258,0.003413377096876502,0.9841052889823914,-0.06682717800140381,0.05073865130543709,0.15651029348373413
393.0,0.0,0.0,0.0,0.0,0.0,0.0,0.06643660366535187,0.024286353960633278,0.042980700731277466,0.9845456480979919,-0.06310179084539413,0.048447154462337494,0.15602870285511017
394.0,0.0,0.0,0.0,0.0,0.0,0.0,0.051741112023591995,0.06240566447377205,0.06165656819939613,0.9854817390441895,-0.05658074840903282,0.04757371544837952,0.15284711122512817
395.0,0.0,0.0,0.0,0.0,0.0,0.0,0.029892459511756897,0.06356340646743774,0.05499932914972305,0.98763507604599,-0.04629582539200783,0.044685155153274536,0.1429675817489624
396.0,0.0,0.0,0.0,0.0,0.0,0.0,0.053060341626405716,0.025462815538048744,0.0786183550953865,0.9894130825996399,-0.03732200339436531,0.04297427088022232,0.1335061639547348
397.0,0.0,0.0,0.0,0.0,0.0,0.0,0.06828688085079193,0.014010815881192684,0.09169179946184158,0.9910069108009338,-0.02946748211979866,0.039636753499507904,0.12437541782855988
398.0,0.0,0.0,0.0,0.0,0.0,0.0,0.05032546818256378,-0.017262008041143417,0.0739302858710289,0.9923436641693115,-0.024054601788520813,0.03537951782345772,0.11586569994688034
399.0,0.0,0.0,0.0,0.0,0.0,0.0,0.063105508685112,-0.041056256741285324,0.025416171178221703,0.9931207299232483,-0.02213389426469803,0.02811925671994686,0.11150675266981125
400.0,0.0,0.0,0.0,0.0,0.0,0.0,0.04406972974538803,-0.04090898111462593,-0.008861171081662178,0.9944656491279602,-0.01959536038339138,0.017222164198756218,0.10178028047084808
401.0,0.0,0.0,0.0,0.0,0.0,0.0,-0.04147319868206978,-0.0296775009483099,-0.00950576364994049,0.9963066577911377,-0.015101921744644642,0.00599780585616827,0.08431240171194077
402.0,0.0,0.0,0.0,0.0,0.0,0.0,-0.05926279351115227,-0.0035732099786400795,0.002651904709637165,0.9979808330535889,-0.010386861860752106,-0.0044645280577242374,0.0625147894024849
403.0,0.0,0.0,0.0,0.0,0.0,0.0,-0.08668804168701172,-0.03375385329127312,-0.0577087439596653,0.9993030428886414,-0.002514546038582921,-0.014619803056120872,0.03426259756088257
404.0,0.0,0.0,0.0,0.0,0.0,0.0,-0.05301424115896225,-0.030259594321250916,-0.021248023957014084,0.9996911883354187,0.002892398042604327,-0.021703390404582024,0.01174510084092617
405.0,0.0,0.0,0.0,0.0,0.0,0.0,-0.04453784599900246,-0.01206679455935955,-0.04407098889350891,0.9995720982551575,0.008083362132310867,-0.027460746467113495,-0.006146297324448824
406.0,0.0,0.0,0.0,0.0,0.0,0.0,0.00430587213486433,-0.04489568620920181,-0.0264528039842844,0.99930340051651,0.011271820403635502,-0.03144868090748787,-0.016650909557938576
407.0,0.0,0.0,0.0,0.0,0.0,0.0,0.01933608017861843,-0.039156474173069,-0.04534953087568283,0.999066948890686,0.009288509376347065,-0.037450239062309265,-0.019453229382634163
408.0,0.0,0.0,0.0,0.0,0.0,0.0,-0.011672238819301128,0.006450229324400425,0.002464837860316038,0.9987574815750122,0.006772984284907579,-0.043868519365787506,-0.02267393469810486
409.0,0.0,0.0,0.0,0.0,0.0,0.0,0.0036378370132297277,-0.003408113494515419,0.02163023315370083,0.9984723329544067,0.004311632830649614,-0.048896078020334244,-0.025387156754732132
410.0,0.0,0.0,0.0,0.0,0.0,0.0,-0.019870927557349205,0.005805155262351036,0.051864754408597946,0.99826979637146,0.0009685190743766725,-0.05101663991808891,-0.029224324971437454
411.0,0.0,0.0,0.0,0.0,0.0,0.0,0.00018847592582460493,0.037249986082315445,0.0892406553030014,0.9981801509857178,-3.7786737721035024e-06,-0.05046413838863373,-0.033006586134433746
412.0,0.0,0.0,0.0,0.0,0.0,0.0,-0.08565331995487213,0.01214610505849123,-0.069146066904068,0.997893750667572,0.0009949593804776669,-0.050322070717811584,-0.04094591364264488
413.0,0.0,0.0,0.0,0.0,0.0,0.0,-0.01053188368678093,-0.019530149176716805,0.034899208694696426,0.9978022575378418,-0.0019757377449423075,-0.050522539764642715,-0.04284651577472687
414.0,0.0,0.0,0.0,0.0,0.0,0.0,0.04971132427453995,0.0010961855296045542,0.07625552266836166,0.9977005124092102,-0.004122684244066477,-0.053317852318286896,-0.041632313281297684
415.0,0.0,0.0,0.0,0.0,0.0,0.0,-0.022682905197143555,-0.005324015859514475,-0.002823350252583623,0.9974697828292847,-0.003931004554033279,-0.05759960412979126,-0.04148581996560097
416.0,0.0,0.0,0.0,0.0,0.0,0.0,-0.06170114129781723,-0.0032569225877523422,-0.005312919616699219,0.9973012208938599,-0.0049958000890910625,-0.06028224155306816,-0.041614096611738205
417.0,0.0,0.0,0.0,0.0,0.0,0.0,-0.04896891117095947,0.012269450351595879,0.048036325722932816,0.9972050786018372,-0.006937010213732719,-0.06114614009857178,-0.04236111789941788
418.0,0.0,0.0,0.0,0.0,0.0,0.0,-0.06296160072088242,0.005325423087924719,0.013216006569564342,0.9970654249191284,-0.008962622843682766,-0.060791388154029846,-0.04568325728178024
419.0,0.0,0.0,0.0,0.0,0.0,0.0,-0.06474233418703079,0.023632261902093887,-0.004571185912936926,0.996925950050354,-0.011609433218836784,-0.06033167243003845,-0.048611290752887726
420.0,0.0,0.0,0.0,0.0,0.0,0.0,-0.0553768016397953,0.024339009076356888,0.025880875065922737,0.9968133568763733,-0.013845020905137062,-0.060484398156404495,-0.050141192972660065
421.0,0.0,0.0,0.0,0.0,0.0,0.0,-0.05258014798164368,0.017731692641973495,0.02213481068611145,0.9967153668403625,-0.013018307276070118,-0.061605364084243774,-0.05094222351908684
422.0,0.0,0.0,0.0,0.0,0.0,0.0,-0.08174698799848557,0.022407980635762215,-0.0044027334079146385,0.9964991807937622,-0.011433075182139874,-0.06283434480428696,-0.05396946892142296
423.0,0.0,0.0,0.0,0.0,0.0,0.0,-0.0654301643371582,0.025595001876354218,0.00242742826230824,0.9962663650512695,-0.010424947366118431,-0.06353471428155899,-0.057523053139448166
424.0,0.0,0.0,0.0,0.0,0.0,0.0,-0.027816371992230415,0.013766525313258171,0.03744940832257271,0.9962199330329895,-0.008648558519780636,-0.06260354816913605,-0.05960799381136894
425.0,0.0,0.0,0.0,0.0,0.0,0.0,-0.0291224904358387,-0.012432611547410488,0.02212255634367466,0.9960957169532776,-0.006402215454727411,-0.06175556406378746,-0.06275931000709534
426.0,0.0,0.0,0.0,0.0,0.0,0.0,-0.038873352110385895,-0.007608463056385517,0.02656855247914791,0.9958518743515015,-0.005120741203427315,-0.06156490370631218,-0.06680138409137726
427.0,0.0,0.0,0.0,0.0,0.0,0.0,-0.050191730260849,-0.0024731417652219534,0.010108559392392635,0.9956429600715637,-0.0037636286579072475,-0.06234095245599747,-0.06924909353256226
428.0,0.0,0.0,0.0,0.0,0.0,0.0,-0.06246829777956009,-0.002307154703885317,0.001479686819948256,0.9955116510391235,-0.003043897682800889,-0.06376675516366959,-0.06987123191356659
429.0,0.0,0.0,0.0,0.0,0.0,0.0,-0.05502449348568916,0.005356031470000744,0.007837996818125248,0.9956558346748352,-0.0027192423585802317,-0.06399337947368622,-0.06758613884449005
430.0,0.0,0.0,0.0,0.0,0.0,0.0,-0.04559369757771492,0.008691578172147274,0.012360263615846634,0.9957842826843262,-0.0017493471968919039,-0.06405194848775864,-0.06564635038375854
431.0,0.0,0.0,0.0,0.0,0.0,0.0,-0.06249646097421646,-0.007927406579256058,-0.0054580760188400745,0.9959540963172913,5.49656106159091e-05,-0.06256994605064392,-0.0645143911242485
432.0,0.0,0.0,0.0,0.0,0.0,0.0,-0.04867660626769066,-0.009830151684582233,-0.0028800442814826965,0.9962931275367737,0.0012611700221896172,-0.059580523520708084,-0.062046099454164505
433.0,0.0,0.0,0.0,0.0,0.0,0.0,-0.04089570790529251,-0.01967957429587841,-0.023581037297844887,0.9966617822647095,0.0022158094216138124,-0.056675493717193604,-0.05872596427798271
434.0,0.0,0.0,0.0,0.0,0.0,0.0,-0.04383159801363945,-0.00717542041093111,-0.03209767863154411,0.996813952922821,0.0026490429881960154,-0.05503495782613754,-0.05768534168601036
435.0,0.0,0.0,0.0,0.0,0.0,0.0,-0.03410189971327782,-0.0029378989711403847,-0.02181806042790413,0.9971520900726318,0.002909607719630003,-0.05282297730445862,-0.05374946817755699
436.0,0.0,0.0,0.0,0.0,0.0,0.0,-0.041488226503133774,-0.007544681895524263,-0.0274345725774765,0.9975053668022156,0.0046636261977255344,-0.05013541132211685,-0.049478355795145035
437.0,0.0,0.0,0.0,0.0,0.0,0.0,-0.05156717076897621,-0.011927835643291473,-0.03198466822504997,0.9978028535842896,0.005815367214381695,-0.04717353358864784,-0.04615301638841629
438.0,0.0,0.0,0.0,0.0,0.0,0.0,-0.035128407180309296,-0.004686728119850159,-0.014679568819701672,0.9981485605239868,0.005351074505597353,-0.04352613165974617,-0.04215075448155403
439.0,0.0,0.0,0.0,0.0,0.0,0.0,-0.001488802139647305,-0.001051150495186448,0.0035457112826406956,0.9983912706375122,0.005130973644554615,-0.0413946695625782,-0.03841506689786911
440.0,0.0,0.0,0.0,0.0,0.0,0.0,0.0006218295311555266,-0.028122572228312492,0.0010401837062090635,0.9985193014144897,0.0037289708852767944,-0.040593720972537994,-0.03601904213428497
441.0,0.0,0.0,0.0,0.0,0.0,0.0,-0.0319688580930233,0.005579258780926466,-0.018635572865605354,0.9985954761505127,0.0025592150632292032,-0.039891164749860764,-0.03477718308568001
442.0,0.0,0.0,0.0,0.0,0.0,0.0,-0.010044126771390438,0.005104426294565201,-0.0070794993080198765,0.9987643361091614,0.0009407601901330054,-0.03870580717921257,-0.03116374835371971
443.0,0.0,0.0,0.0,0.0,0.0,0.0,-0.011975436471402645,-0.0005820917431265116,-0.007289737928658724,0.9989063739776611,0.00025012283003889024,-0.03713955357670784,-0.02839857153594494
444.0,0.0,0.0,0.0,0.0,0.0,0.0,-0.02475004456937313,0.012519722804427147,-0.01924087479710579,0.9989098906517029,0.0017044878331944346,-0.036563772708177567,-0.02898132987320423
445.0,0.0,0.0,0.0,0.0,0.0,0.0,-0.02306903712451458,-0.014339395798742771,0.0054771448485553265,0.9989902973175049,0.002066051820293069,-0.035363588482141495,-0.027639806270599365
446.0,0.0,0.0,0.0,0.0,0.0,0.0,0.007998974993824959,-0.01312554907053709,0.005755202379077673,0.9991937875747681,0.0008288708049803972,-0.03302530571818352,-0.02282041870057583
447.0,0.0,0.0,0.0,0.0,0.0,0.0,-0.014757839031517506,0.0020441545639187098,-0.019251661375164986,0.9993236064910889,0.0005606237100437284,-0.030928028747439384,-0.019894124940037727
448.0,0.0,0.0,0.0,0.0,0.0,0.0,-0.02440652623772621,0.006202349439263344,-0.036854337900877,0.9993964433670044,0.002748848171904683,-0.029052112251520157,-0.01885249651968479
449.0,0.0,0.0,0.0,0.0,0.0,0.0,-0.012415924109518528,-0.020240958780050278,0.015980785712599754,0.9995396137237549,0.0039179264567792416,-0.02577139250934124,-0.015532535500824451
450.0,0.0,0.0,0.0,0.0,0.0,0.0,-0.008709755726158619,0.020315995439887047,0.07171047478914261,0.9996894001960754,0.002768805716186762,-0.022257406264543533,-0.010858411900699139
451.0,0.0,0.0,0.0,0.0,0.0,0.0,0.002826194977387786,0.005982637871056795,0.002465684898197651,0.9997853636741638,0.003912343177944422,-0.01927453652024269,-0.006536542903631926
452.0,0.0,0.0,0.0,0.0,0.0,0.0,0.00017138781549874693,-0.002193654188886285,-0.014478095807135105,0.9998518228530884,0.006059590261429548,-0.016078663989901543,-0.001201569801196456
453.0,0.0,0.0,0.0,0.0,0.0,0.0,0.012015745043754578,0.012552703730762005,0.006322316359728575,0.9998541474342346,0.008702011778950691,-0.013329456560313702,0.006221355404704809
454.0,0.0,0.0,0.0,0.0,0.0,0.0,-0.0016565030673518777,-0.0004920866340398788,-0.013806142844259739,0.9997695684432983,0.013463905081152916,-0.010601380839943886,0.012940017506480217
455.0,0.0,0.0,0.0,0.0,0.0,0.0,-0.0006706361891701818,-0.015823716297745705,0.03325987979769707,0.9996748566627502,0.014884144999086857,-0.007240884006023407,0.019403928890824318
456.0,0.0,0.0,0.0,0.0,0.0,0.0,-0.014845815487205982,0.005875763949006796,0.020081745460629463,0.9996229410171509,0.015766995027661324,-0.0043921880424022675,0.02204766497015953
457.0,0.0,0.0,0.0,0.0,0.0,0.0,0.01052881684154272,-0.038783393800258636,-0.04731937125325203,0.9995620250701904,0.015685267746448517,0.00024581278557889163,0.025096740573644638
458.0,0.0,0.0,0.0,0.0,0.0,0.0,0.07111971825361252,-0.06648994237184525,-0.053417135030031204,0.9993840456008911,0.013888716697692871,0.0030238947365432978,0.032083187252283096
459.0,0.0,0.0,0.0,0.0,0.0,0.0,0.08308965712785721,-0.05501391738653183,-0.02786434441804886,0.9992197155952454,0.010987927205860615,0.005125064868479967,0.037594448775053024
460.0,0.0,0.0,0.0,0.0,0.0,0.0,0.0720554068684578,-0.04414191469550133,-0.02042716182768345,0.9990094304084778,0.008108955807983875,0.006554803811013699,0.04325977340340614
461.0,0.0,0.0,0.0,0.0,0.0,0.0,0.061990655958652496,-0.04399847611784935,-0.0017946038860827684,0.9988296627998352,0.005287409294396639,0.0073064882308244705,0.04752085357904434
462.0,0.0,0.0,0.0,0.0,0.0,0.0,0.037971217185258865,-0.020136890932917595,-0.001678635599091649,0.9986676573753357,0.0025317613035440445,0.00738278916105628,0.0510137714445591
463.0,0.0,0.0,0.0,0.0,0.0,0.0,0.015218744985759258,-0.017275890335440636,-0.010614067316055298,0.9986400008201599,0.0002759197086561471,0.008013425394892693,0.05151933431625366
464.0,0.0,0.0,0.0,0.0,0.0,0.0,0.030158348381519318,-0.038720112293958664,0.009644031524658203,0.9986108541488647,-0.0013221572153270245,0.009650040417909622,0.051783643662929535
465.0,0.0,0.0,0.0,0.0,0.0,0.0,0.060263391584157944,-0.03178279101848602,0.012288176454603672,0.9984298944473267,-0.0039035286754369736,0.011358768679201603,0.054715875536203384
466.0,0.0,0.0,0.0,0.0,0.0,0.0,0.056437898427248,-0.020974626764655113,0.03695472329854965,0.9981886744499207,-0.007142617832869291,0.00997815653681755,0.05889377370476723
467.0,0.0,0.0,0.0,0.0,0.0,0.0,0.018705718219280243,-0.0025150387082248926,0.04487542435526848,0.9979134202003479,-0.010221295990049839,0.009423253126442432,0.06306050717830658
468.0,0.0,0.0,0.0,0.0,0.0,0.0,-0.00990674551576376,0.016204817220568657,0.051180996000766754,0.9977242946624756,-0.01284030731767416,0.01089912373572588,0.06529035419225693
469.0,0.0,0.0,0.0,0.0,0.0,0.0,0.013269415125250816,0.0033102354500442743,0.047378059476614,0.9975214004516602,-0.014849177561700344,0.012072260491549969,0.06772010028362274
470.0,0.0,0.0,0.0,0.0,0.0,0.0,0.00012270244769752026,-0.005144802387803793,0.02076202817261219,0.9975326657295227,-0.014816323295235634,0.012472797185182571,0.06748366355895996
471.0,0.0,0.0,0.0,0.0,0.0,0.0,-0.0030845659784972668,-0.028527161106467247,-0.004353866446763277,0.9974821209907532,-0.0146170724183321,0.014988992363214493,0.06775529682636261
472.0,0.0,0.0,0.0,0.0,0.0,0.0,0.005403777584433556,-0.026269612833857536,-0.045909009873867035,0.9974192380905151,-0.01389545388519764,0.016621191054582596,0.06844969093799591
473.0,0.0,0.0,0.0,0.0,0.0,0.0,0.00427066208794713,-0.02678283303976059,-0.01938532665371895,0.9975882768630981,-0.013321771286427975,0.014510423876345158,0.06655370444059372
474.0,0.0,0.0,0.0,0.0,0.0,0.0,-0.010646763257682323,-0.006025159731507301,0.0015805887524038553,0.9980878829956055,-0.009721689857542515,0.011648519895970821,0.05992349609732628
475.0,0.0,0.0,0.0,0.0,0.0,0.0,-0.0380050353705883,-0.03187805414199829,-0.0011956000234931707,0.9989265203475952,-0.0029836520552635193,0.005906680133193731,0.045851241797208786
476.0,0.0,0.0,0.0,0.0,0.0,0.0,-0.09809795022010803,0.04657028242945671,0.003256290452554822,0.9996086359024048,0.008771532215178013,0.0013536157784983516,0.02653191238641739
477.0,0.0,0.0,0.0,0.0,0.0,0.0,0.00180372828617692,0.03691793233156204,0.07146909087896347,0.9996428489685059,0.021670740097761154,0.0006693686009384692,0.015627698972821236
478.0,0.0,0.0,0.0,0.0,0.0,0.0,0.039809029549360275,0.018085813149809837,0.04547584429383278,0.9993532299995422,0.03559962660074234,-8.978419646155089e-05,0.005081781651824713
479.0,0.0,0.0,0.0,0.0,0.0,0.0,0.04757430776953697,-0.01975238136947155,0.04711132496595383,0.9989311695098877,0.04600609093904495,-0.0003533725393936038,-0.004462043754756451
480.0,0.0,0.0,0.0,0.0,0.0,0.0,0.00180917012039572,-0.054005108773708344,0.0246733371168375,0.9986279010772705,0.05163663253188133,0.0011395870242267847,-0.008647793903946877
481.0,0.0,0.0,0.0,0.0,0.0,0.0,0.00237942673265934,-0.0488918274641037,-0.02176637202501297,0.9984980821609497,0.05387898162007332,0.001436350168660283,-0.00983294565230608
482.0,0.0,0.0,0.0,0.0,0.0,0.0,0.06953218579292297,-0.073464035987854,-0.013612711802124977,0.9985338449478149,0.05379314720630646,0.003210022347047925,-0.0051247598603367805
483.0,0.0,0.0,0.0,0.0,0.0,0.0,0.08457459509372711,-0.08707491308450699,-0.03914094343781471,0.9986252784729004,0.05204944685101509,0.00619311211630702,-0.0004222627612762153
484.0,0.0,0.0,0.0,0.0,0.0,0.0,0.04947185888886452,-0.08654475212097168,-0.06311418116092682,0.9988276958465576,0.04729790985584259,0.009250752627849579,0.004542476497590542
485.0,0.0,0.0,0.0,0.0,0.0,0.0,-0.0335053913295269,-0.001842824975028634,0.01345600001513958,0.9991239905357361,0.040055666118860245,0.011473876424133778,0.0039062106516212225
486.0,0.0,0.0,0.0,0.0,0.0,0.0,-0.07920936495065689,0.05882134661078453,0.031588900834321976,0.99922776222229,0.036488186568021774,0.01291845552623272,-0.006755837704986334
487.0,0.0,0.0,0.0,0.0,0.0,0.0,-0.06024767830967903,0.021195190027356148,-0.0403142124414444,0.9990146160125732,0.03664959967136383,0.014945135451853275,-0.02008061297237873
488.0,0.0,0.0,0.0,0.0,0.0,0.0,-0.0010673172073438764,-0.033263757824897766,-0.06798065453767776,0.9988778829574585,0.033817071467638016,0.01588168740272522,-0.02910798043012619
489.0,0.0,0.0,0.0,0.0,0.0,0.0,0.029866807162761688,-0.05373295396566391,-0.05846921727061272,0.9989126920700073,0.030171886086463928,0.015713850036263466,-0.03187834098935127
490.0,0.0,0.0,0.0,0.0,0.0,0.0,0.038017742335796356,-0.049921587109565735,-0.07415378838777542,0.9990662336349487,0.026314392685890198,0.014279896393418312,-0.0311514250934124
491.0,0.0,0.0,0.0,0.0,0.0,0.0,0.030040405690670013,-0.031483717262744904,-0.05788516253232956,0.9992708563804626,0.0232884231954813,0.014022551476955414,-0.02680959366261959
492.0,0.0,0.0,0.0,0.0,0.0,0.0,0.027228811755776405,-0.03674659505486488,-0.06621681153774261,0.999394953250885,0.021011099219322205,0.01340749952942133,-0.024258386343717575
493.0,0.0,0.0,0.0,0.0,0.0,0.0,-0.028489338234066963,-0.0067701381631195545,-0.07879909873008728,0.9993466734886169,0.019367199391126633,0.012769224122166634,-0.027714990079402924
494.0,0.0,0.0,0.0,0.0,0.0,0.0,-0.011560890823602676,0.017351623624563217,-0.02807990275323391,0.9991992712020874,0.018625304102897644,0.011583538725972176,-0.033463004976511
495.0,0.0,0.0,0.0,0.0,0.0,0.0,-0.0030944738537073135,0.00582592748105526,-0.010126098990440369,0.9989557266235352,0.019263315945863724,0.01136439386755228,-0.039841096848249435
496.0,0.0,0.0,0.0,0.0,0.0,0.0,-0.002259570872411132,-0.00045312600559554994,-0.03559601679444313,0.9988580942153931,0.020190536975860596,0.010771336033940315,-0.0419405922293663
497.0,0.0,0.0,0.0,0.0,0.0,0.0,0.009624490514397621,0.003548291279003024,-0.019582564011216164,0.999147355556488,0.01891384832561016,0.008375518955290318,-0.035731904208660126
498.0,0.0,0.0,0.0,0.0,0.0,0.0,0.024077391251921654,0.015383394435048103,0.020906265825033188,0.9994405508041382,0.018475402146577835,0.005397516768425703,-0.027353163808584213
499.0,0.0,0.0,0.0,0.0,0.0,0.0,0.026531921699643135,0.029745077714323997,0.031168194487690926,0.9996061325073242,0.020217832177877426,0.0032589382026344538,-0.019189320504665375
500.0,0.0,0.0,0.0,0.0,0.0,0.0,0.01253839023411274,0.0328783355653286,0.029430629685521126,0.9996483325958252,0.02301456592977047,0.0018462348962202668,-0.01304873637855053
501.0,0.0,0.0,0.0,0.0,0.0,0.0,0.003928372170776129,0.04171227663755417,0.03383449465036392,0.9996208548545837,0.026100117713212967,0.0013115823967382312,-0.00867388118058443
502.0,0.0,0.0,0.0,0.0,0.0,0.0,-0.003104873700067401,0.022545427083969116,0.044460270553827286,0.9995672702789307,0.028540387749671936,0.0029328782111406326,-0.006488617043942213
503.0,0.0,0.0,0.0,0.0,0.0,0.0,-0.0074509382247924805,-0.021893158555030823,0.020646236836910248,0.9996013045310974,0.027606261894106865,0.005086949095129967,-0.0030390697065740824
504.0,0.0,0.0,0.0,0.0,0.0,0.0,-0.01615056023001671,-0.0069833314046263695,-0.008199379779398441,0.9997167587280273,0.022814631462097168,0.005495037883520126,0.003960525617003441
505.0,0.0,0.0,0.0,0.0,0.0,0.0,-0.010688519105315208,-0.0005478339153341949,-0.015188449993729591,0.9997378587722778,0.016336824744939804,0.00542140519246459,0.01510482095181942
506.0,0.0,0.0,0.0,0.0,0.0,0.0,0.0018741815583780408,0.0081638777628541,-0.030974986031651497,0.9995584487915039,0.012179774232208729,0.005086620803922415,0.02662450075149536
507.0,0.0,0.0,0.0,0.0,0.0,0.0,0.008868176490068436,0.027640337124466896,0.009330286644399166,0.999201238155365,0.005755600985139608,0.006109796464443207,0.03907032683491707
508.0,0.0,0.0,0.0,0.0,0.0,0.0,0.013222149573266506,0.08184445649385452,0.05447369068861008,0.9989868998527527,0.003514714539051056,0.005387673154473305,0.04453974962234497
509.0,0.0,0.0,0.0,0.0,0.0,0.0,-0.010827554389834404,0.05522258207201958,0.05973806604743004,0.9991824626922607,0.0021535437554121017,0.00298921181820333,0.040264543145895004
510.0,0.0,0.0,0.0,0.0,0.0,0.0,-0.012231382541358471,0.03675205260515213,0.033862292766571045,0.999407947063446,0.002640837337821722,0.002014721743762493,0.03425046429038048
511.0,0.0,0.0,0.0,0.0,0.0,0.0,-0.0018527290085330606,0.021991392597556114,-0.018898162990808487,0.9996047019958496,0.0027332818135619164,0.0007337273564189672,0.02797454223036766
512.0,0.0,0.0,0.0,0.0,0.0,0.0,0.038361504673957825,-0.023928817361593246,-0.033116504549980164,0.9995924234390259,0.00026046799030154943,0.00015638557670172304,0.02854647859930992
513.0,0.0,0.0,0.0,0.0,0.0,0.0,0.06221013516187668,-0.017332609742879868,-0.000612851872574538,0.9993728995323181,-0.00427850428968668,-0.0008831214508973062,0.03513965383172035
514.0,0.0,0.0,0.0,0.0,0.0,0.0,0.027641944587230682,0.011050394736230373,0.006819103844463825,0.9991511702537537,-0.00741632841527462,-0.0038335020653903484,0.04034046456217766
515.0,0.0,0.0,0.0,0.0,0.0,0.0,-0.003880125703290105,0.0031806358601897955,0.007759140804409981,0.9989205598831177,-0.011388282291591167,-0.00491701252758503,0.04476387798786163
516.0,0.0,0.0,0.0,0.0,0.0,0.0,0.002391732530668378,0.004478780552744865,-0.0078472550958395,0.9987366199493408,-0.015599247999489307,-0.003608545521274209,0.04763655364513397
517.0,0.0,0.0,0.0,0.0,0.0,0.0,0.014280727133154869,-0.004068959038704634,-0.026712941005825996,0.9985736012458801,-0.020046371966600418,-0.0004085717082489282,0.049482956528663635
518.0,0.0,0.0,0.0,0.0,0.0,0.0,0.043611250817775726,-0.01972976140677929,-0.01882685348391533,0.9982749223709106,-0.025269392877817154,0.0038014326710253954,0.05286092311143875
519.0,0.0,0.0,0.0,0.0,0.0,0.0,0.02850637212395668,-0.021443936973810196,-0.017777306959033012,0.9976595640182495,-0.03163009509444237,0.007932956330478191,0.060101527720689774
520.0,0.0,0.0,0.0,0.0,0.0,0.0,0.017873546108603477,-0.015011311508715153,-0.04885116592049599,0.9968844056129456,-0.038257211446762085,0.00984735693782568,0.06827322393655777
521.0,0.0,0.0,0.0,0.0,0.0,0.0,0.021371036767959595,-0.0006249541183933616,-0.031658370047807693,0.9958198666572571,-0.04506182298064232,0.010950447991490364,0.07869936525821686
522.0,0.0,0.0,0.0,0.0,0.0,0.0,0.005761820822954178,0.04976680502295494,0.06028474122285843,0.9945133924484253,-0.049191903322935104,0.013111044652760029,0.0913899689912796
523.0,0.0,0.0,0.0,0.0,0.0,0.0,-0.030443131923675537,0.1434909850358963,0.11197903007268906,0.993863046169281,-0.048644743859767914,0.016025729477405548,0.09805304557085037
524.0,0.0,0.0,0.0,0.0,0.0,0.0,-0.01544762123376131,0.11649349331855774,0.10205734521150589,0.9938973188400269,-0.04524208605289459,0.01896614581346512,0.09880881011486053
525.0,0.0,0.0,0.0,0.0,0.0,0.0,0.002610111376270652,0.03446076065301895,0.04096587002277374,0.9940565228462219,-0.04124661907553673,0.022291064262390137,0.09825565665960312
526.0,0.0,0.0,0.0,0.0,0.0,0.0,0.005765263456851244,0.04966064170002937,0.008370033465325832,0.99447101354599,-0.035200316458940506,0.024053186178207397,0.09597134590148926
527.0,0.0,0.0,0.0,0.0,0.0,0.0,0.03685053437948227,0.002111823996528983,0.017031490802764893,0.9947431683540344,-0.029910454526543617,0.023542923852801323,0.09506706893444061
528.0,0.0,0.0,0.0,0.0,0.0,0.0,0.02531217224895954,-0.036748092621564865,0.003851198824122548,0.9947457313537598,-0.025610852986574173,0.02266555465757847,0.09649991244077682
529.0,0.0,0.0,0.0,0.0,0.0,0.0,0.03057233802974224,-0.04423294961452484,-0.02429547905921936,0.9944593906402588,-0.02189343422651291,0.02307130955159664,0.10019831359386444
530.0,0.0,0.0,0.0,0.0,0.0,0.0,0.06136152148246765,-0.03710883483290672,-0.03191416710615158,0.9940011501312256,-0.020753389224410057,0.024110686033964157,0.10463869571685791
531.0,0.0,0.0,0.0,0.0,0.0,0.0,0.0524202361702919,-0.00882243737578392,-0.014551532454788685,0.9939718842506409,-0.01871439814567566,0.024386053904891014,0.10524138808250427
532.0,0.0,0.0,0.0,0.0,0.0,0.0,0.013198843225836754,-0.008297854103147984,-0.0030912254005670547,0.9944790601730347,-0.015965456143021584,0.024771474301815033,0.10071668028831482
533.0,0.0,0.0,0.0,0.0,0.0,0.0,0.01755613088607788,-0.0036890858318656683,0.001330630388110876,0.9949002265930176,-0.01405905932188034,0.02540723979473114,0.09659947454929352
534.0,0.0,0.0,0.0,0.0,0.0,0.0,0.006332478951662779,-0.007490927819162607,0.003920186776667833,0.9952877759933472,-0.01211969368159771,0.025732969865202904,0.09270388633012772
535.0,0.0,0.0,0.0,0.0,0.0,0.0,0.005763081833720207,-0.015798429027199745,-0.006155333481729031,0.9952561855316162,-0.011506815440952778,0.02649994194507599,0.09290677309036255
536.0,0.0,0.0,0.0,0.0,0.0,0.0,0.012295866385102272,0.0023959020618349314,-0.007208069786429405,0.9951310157775879,-0.008975883945822716,0.026180582121014595,0.09459090232849121
537.0,0.0,0.0,0.0,0.0,0.0,0.0,0.005756970960646868,-0.004118787124752998,-0.007147323805838823,0.9950301051139832,-0.007544762920588255,0.02434416301548481,0.09626082330942154
538.0,0.0,0.0,0.0,0.0,0.0,0.0,0.00321316160261631,-0.021742533892393112,-0.016939671710133553,0.9950018525123596,-0.0065712048672139645,0.022807974368333817,0.09699082374572754
539.0,0.0,0.0,0.0,0.0,0.0,0.0,0.01963580772280693,-0.01602829061448574,0.005257656332105398,0.9950242042541504,-0.006044129375368357,0.02170250564813614,0.09706107527017593
540.0,0.0,0.0,0.0,0.0,0.0,0.0,0.020291171967983246,-0.017583336681127548,-0.021452568471431732,0.9952964782714844,-0.0067717405036091805,0.020385416224598885,0.09446705877780914
541.0,0.0,0.0,0.0,0.0,0.0,0.0,0.013713478110730648,-0.031033368781208992,-0.02832949347794056,0.9954519271850586,-0.011726770550012589,0.01922493800520897,0.09257271140813828
542.0,0.0,0.0,0.0,0.0,0.0,0.0,0.0010007073869928718,-0.003486364148557186,-0.0225926972925663,0.9954535365104675,-0.017662910744547844,0.017460426315665245,0.091959647834301
543.0,0.0,0.0,0.0,0.0,0.0,0.0,0.00724025396630168,0.047236766666173935,0.028914082795381546,0.995314359664917,-0.023239469155669212,0.014445915818214417,0.09273552149534225
544.0,0.0,0.0,0.0,0.0,0.0,0.0,0.0007930466672405601,0.08488878607749939,0.07405957579612732,0.9951528310775757,-0.025108199566602707,0.012089547701179981,0.09431188553571701
545.0,0.0,0.0,0.0,0.0,0.0,0.0,-0.04191804677248001,0.07247717678546906,0.0721358209848404,0.9953140616416931,-0.024802185595035553,0.010547921061515808,0.09286881983280182
546.0,0.0,0.0,0.0,0.0,0.0,0.0,-0.06721612066030502,0.050307366997003555,0.03586816042661667,0.9957761764526367,-0.02165602520108223,0.01100833248347044,0.08854831010103226
547.0,0.0,0.0,0.0,0.0,0.0,0.0,-0.021910151466727257,0.012914998456835747,0.007800486404448748,0.9959946870803833,-0.01766875572502613,0.01337504107505083,0.08662375807762146
548.0,0.0,0.0,0.0,0.0,0.0,0.0,0.03456798195838928,-0.01893790252506733,-0.007674996741116047,0.9958345890045166,-0.015305053442716599,0.017145074903964996,0.08823178708553314
549.0,0.0,0.0,0.0,0.0,0.0,0.0,0.056409209966659546,-0.01935778558254242,-0.00854034535586834,0.9955992102622986,-0.013450340367853642,0.020930644124746323,0.0903535783290863
550.0,0.0,0.0,0.0,0.0,0.0,0.0,0.06575029343366623,-0.02675815299153328,-0.016903415322303772,0.9955250024795532,-0.01183431688696146,0.02212604507803917,0.09111248701810837
551.0,0.0,0.0,0.0,0.0,0.0,0.0,0.046280667185783386,-0.013701296411454678,-0.01327446848154068,0.9955849051475525,-0.01025125291198492,0.021857716143131256,0.09071177244186401
552.0,0.0,0.0,0.0,0.0,0.0,0.0,0.04905032739043236,-0.010860241949558258,-0.00723609933629632,0.9956032633781433,-0.008449863642454147,0.02170160971581936,0.0907336175441742
553.0,0.0,0.0,0.0,0.0,0.0,0.0,0.04048066586256027,-0.0028182044625282288,0.008172363042831421,0.9955817461013794,-0.006569275166839361,0.023021087050437927,0.09079907089471817
554.0,0.0,0.0,0.0,0.0,0.0,0.0,0.034121815115213394,0.014867580495774746,0.025426380336284637,0.9954532980918884,-0.005067380145192146,0.025664273649454117,0.09158644080162048
555.0,0.0,0.0,0.0,0.0,0.0,0.0,0.028182558715343475,0.004204678349196911,0.01925388164818287,0.9954465627670288,-0.0054585435427725315,0.027066649869084358,0.09124130755662918
556.0,0.0,0.0,0.0,0.0,0.0,0.0,0.02694695070385933,0.011513621546328068,0.030716655775904655,0.9955427050590515,-0.005968822631984949,0.027075810357928276,0.09014412015676498
557.0,0.0,0.0,0.0,0.0,0.0,0.0,0.0024589146487414837,-0.0010497707407921553,0.0228163730353117,0.9956759810447693,-0.0067964703775942326,0.027373408898711205,0.0885162428021431
558.0,0.0,0.0,0.0,0.0,0.0,0.0,0.014871501363813877,-0.011227934621274471,-0.01195647194981575,0.9955020546913147,-0.0065584806725382805,0.02863229252398014,0.09007851779460907
559.0,0.0,0.0,0.0,0.0,0.0,0.0,0.05266788229346275,-0.02015038952231407,0.0055783591233193874,0.9950288534164429,-0.006513154599815607,0.030719004571437836,0.09451115876436234
560.0,0.0,0.0,0.0,0.0,0.0,0.0,0.08030778914690018,-0.03151350095868111,0.02725987136363983,0.9946656227111816,-0.008610698394477367,0.030297566205263138,0.09822282940149307
561.0,0.0,0.0,0.0,0.0,0.0,0.0,0.04516657441854477,-0.019107334315776825,-0.001831631176173687,0.9946755170822144,-0.011414975859224796,0.02766670286655426,0.09861564636230469
562.0,0.0,0.0,0.0,0.0,0.0,0.0,0.02131323143839836,-0.008689064532518387,-0.00022173247998580337,0.9946677088737488,-0.015687480568885803,0.02567576989531517,0.09864125400781631
563.0,0.0,0.0,0.0,0.0,0.0,0.0,0.021296536549925804,-0.024016879498958588,-0.035222165286540985,0.9947971701622009,-0.020581578835844994,0.02533510886132717,0.09650839865207672
564.0,0.0,0.0,0.0,0.0,0.0,0.0,0.02054404281079769,-0.05021512135863304,-0.07809757441282272,0.9947595596313477,-0.02574421837925911,0.02631530910730362,0.09538796544075012
565.0,0.0,0.0,0.0,0.0,0.0,0.0,0.08508560806512833,0.008624183014035225,-0.026834700256586075,0.9939199090003967,-0.03144408017396927,0.026689564809203148,0.10208945721387863
566.0,0.0,0.0,0.0,0.0,0.0,0.0,0.1156928539276123,0.04300602152943611,0.044968899339437485,0.9932422041893005,-0.03328952565789223,0.025831175968050957,0.10815172642469406
567.0,0.0,0.0,0.0,0.0,0.0,0.0,0.06244352087378502,0.008835622109472752,0.022448508068919182,0.9930176138877869,-0.033987391740083694,0.024774085730314255,0.1102115660905838
568.0,0.0,0.0,0.0,0.0,0.0,0.0,0.018745550885796547,0.001173226279206574,-0.03335084393620491,0.9928835034370422,-0.033545274287462234,0.023750727996230125,0.11177332699298859
569.0,0.0,0.0,0.0,0.0,0.0,0.0,0.025496535003185272,-0.011510809883475304,-0.04618450254201889,0.9928102493286133,-0.034453824162483215,0.021508313715457916,0.1125994548201561
570.0,0.0,0.0,0.0,0.0,0.0,0.0,0.026374295353889465,0.015018746256828308,-0.0009247912676073611,0.9931439161300659,-0.032741062343120575,0.019884996116161346,0.1104482114315033
571.0,0.0,0.0,0.0,0.0,0.0,0.0,-0.01429695263504982,0.017933402210474014,-0.002729004481807351,0.9941058158874512,-0.026946192607283592,0.017108673229813576,0.10361543297767639
572.0,0.0,0.0,0.0,0.0,0.0,0.0,-0.021740084514021873,-0.014925852417945862,0.02266237698495388,0.9949901103973389,-0.023206772282719612,0.013422910124063492,0.09631543606519699
573.0,0.0,0.0,0.0,0.0,0.0,0.0,-0.025798428803682327,-0.0008688316447660327,-0.0055137090384960175,0.9963520765304565,-0.018985096365213394,0.0037047313526272774,0.08312313258647919
574.0,0.0,0.0,0.0,0.0,0.0,0.0,-0.07829565554857254,-0.03694232925772667,-0.006161710247397423,0.9974661469459534,-0.016761286184191704,-0.005438768770545721,0.06892555207014084
575.0,0.0,0.0,0.0,0.0,0.0,0.0,-0.05544392019510269,-0.007119901943951845,0.02373676747083664,0.9979743361473083,-0.01595071703195572,-0.01016177423298359,0.060737211257219315
576.0,0.0,0.0,0.0,0.0,0.0,0.0,-0.07950787991285324,0.029757319018244743,0.011246702633798122,0.9985564947128296,-0.013875595293939114,-0.016782144084572792,0.04909757524728775
577.0,0.0,0.0,0.0,0.0,0.0,0.0,-0.08830519020557404,0.02242964692413807,0.010832623578608036,0.9990207552909851,-0.013183295726776123,-0.021882543340325356,0.03612789511680603
578.0,0.0,0.0,0.0,0.0,0.0,0.0,-0.09167357534170151,0.013400178402662277,0.01301470398902893,0.9993225336074829,-0.011712130159139633,-0.026325419545173645,0.022899650037288666
579.0,0.0,0.0,0.0,0.0,0.0,0.0,-0.07294545322656631,0.033905260264873505,0.07225445657968521,0.9993964433670044,-0.012843583710491657,-0.028893614187836647,0.014418631792068481
580.0,0.0,0.0,0.0,0.0,0.0,0.0,-0.06706009060144424,0.07076147943735123,0.050416622310876846,0.999437153339386,-0.012115640565752983,-0.02955697290599346,0.010263513773679733
581.0,0.0,0.0,0.0,0.0,0.0,0.0,-0.0840771347284317,0.04816126823425293,0.01915055327117443,0.9994654655456543,-0.010844090022146702,-0.030207037925720215,0.006220273673534393
582.0,0.0,0.0,0.0,0.0,0.0,0.0,-0.0880267471075058,0.040134817361831665,-0.00946793518960476,0.9994820356369019,-0.010142273269593716,-0.03009897470474243,0.0052128504030406475
583.0,0.0,0.0,0.0,0.0,0.0,0.0,-0.07467605173587799,0.02016095258295536,-0.020720012485980988,0.9994553327560425,-0.009895323775708675,-0.030990760773420334,0.005571509245783091
584.0,0.0,0.0,0.0,0.0,0.0,0.0,-0.072929248213768,0.01810573600232601,-0.029848236590623856,0.9994382858276367,-0.010598734952509403,-0.031301308423280716,0.0055625527165830135
585.0,0.0,0.0,0.0,0.0,0.0,0.0,-0.05885350704193115,0.003806914435699582,-0.05714258551597595,0.9994785189628601,-0.012086009606719017,-0.028877628967165947,0.007950232364237309
586.0,0.0,0.0,0.0,0.0,0.0,0.0,-0.039917584508657455,0.001304678269661963,-0.059066955000162125,0.9995396733283997,-0.012274236418306828,-0.024654913693666458,0.012742182239890099
587.0,0.0,0.0,0.0,0.0,0.0,0.0,-0.013852989301085472,0.0218648761510849,0.02684512920677662,0.9995649456977844,-0.011675065383315086,-0.019813338294625282,0.01847979985177517
588.0,0.0,0.0,0.0,0.0,0.0,0.0,-0.029600730165839195,0.037056442350149155,0.07355549186468124,0.9995607733726501,-0.0137424785643816,-0.016214577481150627,0.020656084641814232
589.0,0.0,0.0,0.0,0.0,0.0,0.0,-0.03942403942346573,0.0751536414027214,-0.0009985961951315403,0.9996204376220703,-0.013527998700737953,-0.014981776475906372,0.018762554973363876
590.0,0.0,0.0,0.0,0.0,0.0,0.0,-0.020780427381396294,0.048463623970746994,-0.0017632727976888418,0.9996678829193115,-0.012102551758289337,-0.014495210722088814,0.017543185502290726
591.0,0.0,0.0,0.0,0.0,0.0,0.0,-0.051978547126054764,0.06308559328317642,0.020879916846752167,0.9997451901435852,-0.009318600408732891,-0.017267532646656036,0.011169943027198315
592.0,0.0,0.0,0.0,0.0,0.0,0.0,-0.04240509122610092,0.03641759604215622,0.021901244297623634,0.9997756481170654,-0.004658196587115526,-0.020289547741413116,0.003939229063689709
593.0,0.0,0.0,0.0,0.0,0.0,0.0,-0.031138408929109573,-0.011696811765432358,-0.009729068726301193,0.9997091293334961,0.003428855212405324,-0.022882502526044846,-0.006797061301767826
594.0,0.0,0.0,0.0,0.0,0.0,0.0,-0.06723666936159134,-0.010022453032433987,-0.0713212788105011,0.9993239641189575,0.011209587566554546,-0.027049530297517776,-0.022239571437239647
595.0,0.0,0.0,0.0,0.0,0.0,0.0,0.031142575666308403,-0.07646339386701584,0.017180267721414566,0.9991670250892639,0.013156436383724213,-0.028038304299116135,-0.026575760915875435
596.0,0.0,0.0,0.0,0.0,0.0,0.0,0.023872751742601395,-0.030768854543566704,0.05004230886697769,0.9988527894020081,0.01696312613785267,-0.030527319759130478,-0.03276638686656952
597.0,0.0,0.0,0.0,0.0,0.0,0.0,-0.021030940115451813,-0.03146327659487724,-0.003185350215062499,0.9984296560287476,0.0207765381783247,-0.03294641152024269,-0.04026571661233902
598.0,0.0,0.0,0.0,0.0,0.0,0.0,-0.020130470395088196,-0.007543012499809265,-0.00292513077147305,0.9983271956443787,0.021358732134103775,-0.03343239054083824,-0.04205929487943649
599.0,0.0,0.0,0.0,0.0,0.0,0.0,-0.02937280759215355,0.03057236038148403,-0.009766374714672565,0.9979612827301025,0.02547166310250759,-0.03619613125920296,-0.04598473012447357
600.0,0.0,0.0,0.0,0.0,0.0,0.0,0.026200678199529648,0.018569743260741234,0.03465258330106735,0.9979154467582703,0.027414269745349884,-0.03751584514975548,-0.044788990169763565
601.0,0.0,0.0,0.0,0.0,0.0,0.0,0.05982231721282005,-0.0030172173865139484,0.061003245413303375,0.9980471730232239,0.029848380014300346,-0.03723708167672157,-0.04030430316925049
602.0,0.0,0.0,0.0,0.0,0.0,0.0,0.04212002828717232,-0.007157159969210625,0.014823781326413155,0.9980946183204651,0.03323610499501228,-0.036414314061403275,-0.03710173815488815
603.0,0.0,0.0,0.0,0.0,0.0,0.0,0.022050147876143456,0.015966808423399925,-0.009326999075710773,0.9981381297111511,0.03682279959321022,-0.03460166975855827,-0.03416767343878746
604.0,0.0,0.0,0.0,0.0,0.0,0.0,0.053473714739084244,-0.00035088672302663326,-0.004732069093734026,0.9982456564903259,0.040953997522592545,-0.03202406316995621,-0.0283438079059124
605.0,0.0,0.0,0.0,0.0,0.0,0.0,0.05263033136725426,-0.010335943661630154,0.011894907802343369,0.9984691739082336,0.04362097755074501,-0.027973603457212448,-0.019353697076439857
606.0,0.0,0.0,0.0,0.0,0.0,0.0,0.006871283520013094,-0.008858740329742432,-0.011835256591439247,0.99869304895401,0.045915793627500534,-0.02119544707238674,-0.0074180010706186295
607.0,0.0,0.0,0.0,0.0,0.0,0.0,-0.01222858764231205,-0.025332987308502197,0.00404146546497941,0.9988561868667603,0.04546714201569557,-0.013938117772340775,0.005051148124039173
608.0,0.0,0.0,0.0,0.0,0.0,0.0,-0.021913796663284302,0.0038401572965085506,0.037000805139541626,0.9988064765930176,0.04615270346403122,-0.009707547724246979,0.012702488340437412
609.0,0.0,0.0,0.0,0.0,0.0,0.0,-0.020114406943321228,-0.012870021164417267,0.04364898055791855,0.9987135529518127,0.04835793748497963,-0.005866748280823231,0.014090816490352154
610.0,0.0,0.0,0.0,0.0,0.0,0.0,1.7998989278567024e-05,-0.004368572495877743,0.010896315798163414,0.9986817240715027,0.04998267814517021,-0.004077103920280933,0.010975425131618977
611.0,0.0,0.0,0.0,0.0,0.0,0.0,0.045890286564826965,-0.030727064236998558,-0.020107682794332504,0.9986746907234192,0.04987950250506401,-0.002997320145368576,0.01231631264090538
612.0,0.0,0.0,0.0,0.0,0.0,0.0,0.09064533561468124,-0.05038522556424141,-0.023963188752532005,0.9987109303474426,0.04806014522910118,-0.003448957111686468,0.015983598306775093
613.0,0.0,0.0,0.0,0.0,0.0,0.0,0.04913388565182686,-0.010228315368294716,-0.009069181978702545,0.9987561702728271,0.047092504799366,-0.0034354336094111204,0.01602966897189617
614.0,0.0,0.0,0.0,0.0,0.0,0.0,0.01589534431695938,-0.03580388426780701,-0.04489732161164284,0.9988296031951904,0.04660851135849953,-0.0044005378149449825,0.012165152467787266
615.0,0.0,0.0,0.0,0.0,0.0,0.0,0.011653660796582699,-0.016456831246614456,-0.04039213806390762,0.9989867806434631,0.04341008886694908,-0.0032910380978137255,0.011446193791925907
616.0,0.0,0.0,0.0,0.0,0.0,0.0,0.05641048401594162,0.009004282765090466,0.017489759251475334,0.9990318417549133,0.04214007779955864,-0.004191514104604721,0.011928427033126354
617.0,0.0,0.0,0.0,0.0,0.0,0.0,0.02382110059261322,0.04575278237462044,0.027886459603905678,0.998948872089386,0.044462110847234726,-0.0038814982399344444,0.010473519563674927
618.0,0.0,0.0,0.0,0.0,0.0,0.0,0.026906481012701988,0.02924669347703457,0.02794942632317543,0.998740553855896,0.049746740609407425,-0.0053316340781748295,0.003856704803183675
619.0,0.0,0.0,0.0,0.0,0.0,0.0,0.009875081479549408,-0.01147547084838152,-0.008801909163594246,0.9984107613563538,0.055903807282447815,-0.006780161987990141,-0.002312534721568227
620.0,0.0,0.0,0.0,0.0,0.0,0.0,-0.020042547956109047,0.007570068817585707,-0.025776276364922523,0.997610330581665,0.06682901829481125,-0.010076168924570084,-0.01435112301260233
621.0,0.0,0.0,0.0,0.0,0.0,0.0,0.025576189160346985,-0.05440689995884895,-0.01014357153326273,0.9966532588005066,0.07721316814422607,-0.012081539258360863,-0.0239716786891222
622.0,0.0,0.0,0.0,0.0,0.0,0.0,0.014291963540017605,-0.012704691849648952,-0.03608304262161255,0.9954872131347656,0.08867152780294418,-0.011537063866853714,-0.03177005797624588
623.0,0.0,0.0,0.0,0.0,0.0,0.0,0.04962537810206413,-0.008378085680305958,-0.030645258724689484,0.9944881200790405,0.09778955578804016,-0.01258687861263752,-0.035672809928655624
624.0,0.0,0.0,0.0,0.0,0.0,0.0,0.1010945588350296,-0.030294766649603844,-0.021113349124789238,0.9940414428710938,0.10317307710647583,-0.013705012388527393,-0.03239894285798073
625.0,0.0,0.0,0.0,0.0,0.0,0.0,0.10957067459821701,-0.07643137872219086,-0.05523453652858734,0.9938329458236694,0.10658754408359528,-0.01176072284579277,-0.028229745104908943
626.0,0.0,0.0,0.0,0.0,0.0,0.0,0.03617352247238159,-0.06768034398555756,-0.0844905748963356,0.9938796162605286,0.10702932626008987,-0.007721976842731237,-0.02623477205634117
627.0,0.0,0.0,0.0,0.0,0.0,0.0,0.05544864386320114,-0.0840974897146225,-0.10104415565729141,0.9945942163467407,0.1023021787405014,-0.0033932067453861237,-0.01746564731001854
628.0,0.0,0.0,0.0,0.0,0.0,0.0,0.09470737725496292,-0.08218923211097717,-0.143995001912117,0.9950681924819946,0.09900093078613281,-0.003211951581761241,-0.005379213485866785
629.0,0.0,0.0,0.0,0.0,0.0,0.0,0.1084275022149086,-0.10991708189249039,-0.12787827849388123,0.9953737258911133,0.09527952969074249,-0.003609410487115383,0.011862784624099731
630.0,0.0,0.0,0.0,0.0,0.0,0.0,0.11982881277799606,-0.09593236446380615,-0.048738084733486176,0.9955889582633972,0.08905220031738281,-0.0036280842032283545,0.02930566295981407
631.0,0.0,0.0,0.0,0.0,0.0,0.0,0.09957517683506012,-0.058496084064245224,0.07559878379106522,0.9960474371910095,0.07440171390771866,-0.004040825180709362,0.04835296422243118
632.0,0.0,0.0,0.0,0.0,0.0,0.0,0.05427727848291397,0.20545409619808197,0.1599995642900467,0.9960034489631653,0.06203175336122513,-0.0041091544553637505,0.06412943452596664
633.0,0.0,0.0,0.0,0.0,0.0,0.0,-0.08514789491891861,0.05767233297228813,0.10653243958950043,0.9963657855987549,0.04589466378092766,-0.0027437680400907993,0.07170285284519196
634.0,0.0,0.0,0.0,0.0,0.0,0.0,-0.1455104947090149,0.13683830201625824,0.012972449883818626,0.9966351389884949,0.03321784734725952,-0.0010643781861290336,0.07492756843566895
635.0,0.0,0.0,0.0,0.0,0.0,0.0,-0.026211580261588097,0.07318785041570663,0.0017470490420237184,0.9961198568344116,0.02280193194746971,0.003778870450332761,0.08491859585046768
636.0,0.0,0.0,0.0,0.0,0.0,0.0,0.01777297630906105,0.07080506533384323,0.03697938099503517,0.9954580068588257,0.02041313797235489,0.007016067858785391,0.09272582828998566
637.0,0.0,0.0,0.0,0.0,0.0,0.0,-0.05243324115872383,0.05085945501923561,0.06332958489656448,0.9964606165885925,0.022317804396152496,0.009132547304034233,0.08052891492843628
638.0,0.0,0.0,0.0,0.0,0.0,0.0,-0.09109809994697571,0.020182475447654724,-0.02420610561966896,0.9977138638496399,0.023491330444812775,0.011664927937090397,0.06228795647621155
639.0,0.0,0.0,0.0,0.0,0.0,0.0,-0.04221572354435921,0.022293532267212868,-0.052722811698913574,0.998663604259491,0.030161572620272636,0.01122371107339859,0.040436431765556335
640.0,0.0,0.0,0.0,0.0,0.0,0.0,-0.011535151861608028,-0.006041044369339943,-0.031660906970500946,0.9991235733032227,0.039219897240400314,0.005737520754337311,0.013459451496601105
641.0,0.0,0.0,0.0,0.0,0.0,0.0,0.053417403250932693,-0.047779034823179245,0.09270545095205307,0.9990808963775635,0.04250452667474747,-0.00024392438353970647,-0.005531092174351215
642.0,0.0,0.0,0.0,0.0,0.0,0.0,-0.024981683120131493,-0.03293045237660408,0.06108269840478897,0.998308539390564,0.0509747676551342,-0.005918534472584724,-0.02732536755502224
643.0,0.0,0.0,0.0,0.0,0.0,0.0,-0.05088275298476219,-0.056410931050777435,-0.09264031052589417,0.99724280834198,0.058238785713911057,-0.008635533973574638,-0.04517234116792679
644.0,0.0,0.0,0.0,0.0,0.0,0.0,-0.09341990947723389,-0.08169648796319962,-0.12634354829788208,0.9968656897544861,0.05732611566781998,-0.0077436198480427265,-0.05397038906812668
645.0,0.0,0.0,0.0,0.0,0.0,0.0,0.007696842774748802,-0.047110747545957565,-0.06254306435585022,0.9971746802330017,0.05238373950123787,-0.001959450077265501,-0.0538056381046772
646.0,0.0,0.0,0.0,0.0,0.0,0.0,0.11056648194789886,-0.11892050504684448,-0.0314752496778965,0.9978359937667847,0.04165327176451683,-0.0020452665630728006,-0.05083763971924782
647.0,0.0,0.0,0.0,0.0,0.0,0.0,0.02202717401087284,-0.006392078008502722,-0.05860888212919235,0.9982514977455139,0.03384474292397499,-0.0012472644448280334,-0.0484447181224823
648.0,0.0,0.0,0.0,0.0,0.0,0.0,-0.014219675213098526,0.03706606850028038,-4.803958290722221e-05,0.9983469247817993,0.029869351536035538,-0.003886463586241007,-0.048952698707580566
649.0,0.0,0.0,0.0,0.0,0.0,0.0,-0.012557701207697392,-0.01328480988740921,-0.02424296736717224,0.9984452724456787,0.02298085205256939,-0.0031192651949822903,-0.05068838596343994
650.0,0.0,0.0,0.0,0.0,0.0,0.0,0.007386708166450262,3.383615694474429e-05,-0.008140754885971546,0.998408854007721,0.016965096816420555,-0.0029505828861147165,-0.05369584262371063
651.0,0.0,0.0,0.0,0.0,0.0,0.0,0.007483897265046835,0.017791561782360077,-0.008027918636798859,0.998655378818512,0.011982699856162071,-0.003332228632643819,-0.05032582953572273
652.0,0.0,0.0,0.0,0.0,0.0,0.0,-0.041125666350126266,0.03742346167564392,-0.03535880520939827,0.9987270832061768,0.006652585230767727,-0.0035246582701802254,-0.049875400960445404
653.0,0.0,0.0,0.0,0.0,0.0,0.0,-0.03860132396221161,0.0381358377635479,-0.011890355497598648,0.9988407492637634,0.002544076181948185,-0.0034209375735372305,-0.04794953018426895
654.0,0.0,0.0,0.0,0.0,0.0,0.0,-0.038730837404727936,0.04228183254599571,-0.0006160446209833026,0.9989821314811707,0.0006785568548366427,-0.0048652756959199905,-0.0448421873152256
655.0,0.0,0.0,0.0,0.0,0.0,0.0,-0.021283235400915146,0.03370598331093788,0.010454575531184673,0.9990851283073425,-0.0018450621282681823,-0.005524374078959227,-0.042365897446870804
656.0,0.0,0.0,0.0,0.0,0.0,0.0,-0.0030218970496207476,0.02930687740445137,0.003414681414142251,0.9991825819015503,-0.0035910785663872957,-0.006313123740255833,-0.03976675868034363
657.0,0.0,0.0,0.0,0.0,0.0,0.0,0.01791222207248211,0.02736084721982479,0.02802528440952301,0.9992910623550415,-0.004767672158777714,-0.006702409591525793,-0.036736879497766495
658.0,0.0,0.0,0.0,0.0,0.0,0.0,-0.02629666216671467,0.033303916454315186,0.025209849700331688,0.9993074536323547,-0.004408787004649639,-0.007129141595214605,-0.03625437617301941
659.0,0.0,0.0,0.0,0.0,0.0,0.0,-0.05181419849395752,0.027211980894207954,0.01046404056251049,0.9993289709091187,-0.004709215834736824,-0.005783561151474714,-0.0358596034348011
660.0,0.0,0.0,0.0,0.0,0.0,0.0,-0.02319350093603134,0.018152721226215363,-0.0066009024158120155,0.9994102716445923,-0.004313759505748749,-0.00463684368878603,-0.03374932333827019
661.0,0.0,0.0,0.0,0.0,0.0,0.0,-0.031791482120752335,-0.012224643491208553,-0.021441936492919922,0.9994714856147766,-0.0040242173708975315,-0.004322304856032133,-0.03196774795651436
662.0,0.0,0.0,0.0,0.0,0.0,0.0,-0.008808174170553684,0.002167333383113146,0.011887110769748688,0.9995341897010803,-0.0056739691644907,-0.005331756547093391,-0.029512938112020493
663.0,0.0,0.0,0.0,0.0,0.0,0.0,-0.002470521256327629,0.00642869109287858,0.00849345326423645,0.9995641708374023,-0.006192837841808796,-0.007258282508701086,-0.027938684448599815
664.0,0.0,0.0,0.0,0.0,0.0,0.0,-0.025115860626101494,0.01285950280725956,0.010685604996979237,0.9995813965797424,-0.0066022248938679695,-0.0077620940282940865,-0.02707952819764614
665.0,0.0,0.0,0.0,0.0,0.0,0.0,-0.019219251349568367,0.005574759561568499,-0.00017497480439487845,0.9995591044425964,-0.007059590891003609,-0.007791249081492424,-0.02776939608156681
666.0,0.0,0.0,0.0,0.0,0.0,0.0,-0.01790439710021019,0.003753240220248699,0.007524025160819292,0.999508798122406,-0.006615556310862303,-0.007684879470616579,-0.02965458109974861
667.0,0.0,0.0,0.0,0.0,0.0,0.0,0.020338136702775955,-0.016064077615737915,0.010186027735471725,0.9995178580284119,-0.007519862614572048,-0.0073824115097522736,-0.02920858934521675
668.0,0.0,0.0,0.0,0.0,0.0,0.0,-0.0017217722488567233,-0.001819839351810515,-0.0031221455428749323,0.999491810798645,-0.008638260886073112,-0.00706695718690753,-0.02986474521458149
669.0,0.0,0.0,0.0,0.0,0.0,0.0,0.01044710073620081,-0.01180314365774393,-0.00803882535547018,0.999470055103302,-0.009252248331904411,-0.007889448665082455,-0.030197767540812492
670.0,0.0,0.0,0.0,0.0,0.0,0.0,0.028692297637462616,-0.005321515258401632,0.0012537578586488962,0.9994683265686035,-0.010639584623277187,-0.009229181334376335,-0.029406849294900894
671.0,0.0,0.0,0.0,0.0,0.0,0.0,0.05164981633424759,0.0018640870694071054,0.018008526414632797,0.9994987845420837,-0.011043507605791092,-0.010019958019256592,-0.02792847901582718
672.0,0.0,0.0,0.0,0.0,0.0,0.0,0.07641106098890305,0.007164959330111742,0.01942853443324566,0.9994840621948242,-0.009509767405688763,-0.012162551283836365,-0.02816973254084587
673.0,0.0,0.0,0.0,0.0,0.0,0.0,0.08827631920576096,0.016425197944045067,0.024338839575648308,0.999419093132019,-0.005390181206166744,-0.015301436185836792,-0.029975565150380135
674.0,0.0,0.0,0.0,0.0,0.0,0.0,0.04847127944231033,0.036111265420913696,0.014909467659890652,0.9993128776550293,0.003993209917098284,-0.018276626244187355,-0.032000087201595306
675.0,0.0,0.0,0.0,0.0,0.0,0.0,-0.0031092646531760693,0.00916401855647564,0.012341269291937351,0.9991306662559509,0.013968901708722115,-0.020550880581140518,-0.03347030282020569
676.0,0.0,0.0,0.0,0.0,0.0,0.0,-0.07201160490512848,-0.027040429413318634,-0.00753438426181674,0.9991072416305542,0.0182180292904377,-0.019636543467640877,-0.032670214772224426
677.0,0.0,0.0,0.0,0.0,0.0,0.0,-0.0380205437541008,-0.014690723270177841,0.014533325098454952,0.9993310570716858,0.018102452158927917,-0.017560895532369614,-0.026485245674848557
678.0,0.0,0.0,0.0,0.0,0.0,0.0,-0.002338126301765442,-0.020042462274432182,0.005720630753785372,0.9995726943016052,0.014836846850812435,-0.017023682594299316,-0.0185684934258461
679.0,0.0,0.0,0.0,0.0,0.0,0.0,-0.019218137487769127,0.025401875376701355,-0.051298707723617554,0.9996213912963867,0.013209098018705845,-0.0188924428075552,-0.015035882592201233
680.0,0.0,0.0,0.0,0.0,0.0,0.0,0.03978347033262253,0.006542671471834183,-0.017551301047205925,0.9997565746307373,0.010149301029741764,-0.01877742074429989,-0.005607974715530872
681.0,0.0,0.0,0.0,0.0,0.0,0.0,0.03345169499516487,0.0243810024112463,-0.018564783036708832,0.9998175501823425,0.006632508244365454,-0.01689772680401802,0.005981513764709234
682.0,0.0,0.0,0.0,0.0,0.0,0.0,-0.02607109770178795,0.07847125828266144,-0.03221297264099121,0.9997978210449219,0.006594052538275719,-0.011069811880588531,0.015439335256814957
683.0,0.0,0.0,0.0,0.0,0.0,0.0,0.022186744958162308,0.027524909004569054,-0.0056753866374492645,0.9996246099472046,0.013273833319544792,-0.00551391439512372,0.02333046682178974
684.0,0.0,0.0,0.0,0.0,0.0,0.0,0.07584421336650848,-0.07040993869304657,0.024752331897616386,0.9991755485534668,0.018202824518084526,-0.002908440073952079,0.03617554530501366
685.0,0.0,0.0,0.0,0.0,0.0,0.0,0.08598944544792175,-0.10099747776985168,0.017371146008372307,0.9982824921607971,0.01995903253555298,6.899407890159637e-05,0.05508128181099892
686.0,0.0,0.0,0.0,0.0,0.0,0.0,0.0487232431769371,-0.03529679402709007,0.013126304373145103,0.9970570206642151,0.018689287826418877,0.0019792362581938505,0.0743279904127121
687.0,0.0,0.0,0.0,0.0,0.0,0.0,-0.030110660940408707,0.08802036195993423,0.08229341357946396,0.9959917664527893,0.012030006386339664,0.002749646781012416,0.08859558403491974
688.0,0.0,0.0,0.0,0.0,0.0,0.0,-0.002333869459107518,0.07342394441366196,0.0722697451710701,0.9948734641075134,0.003673126921057701,0.002512988168746233,0.10103603452444077
689.0,0.0,0.0,0.0,0.0,0.0,0.0,0.023397570475935936,0.03869280591607094,0.025221718475222588,0.9941328167915344,-0.0036635673604905605,0.0026812334544956684,0.108076311647892
690.0,0.0,0.0,0.0,0.0,0.0,0.0,0.0009797406382858753,0.08071458339691162,0.02856006659567356,0.99391108751297,-0.007909158244729042,0.004705411847680807,0.10980754345655441
691.0,0.0,0.0,0.0,0.0,0.0,0.0,0.001301128650084138,0.0502755381166935,0.06770121306180954,0.9941473603248596,-0.008444031700491905,0.006219457369297743,0.10753066092729568
692.0,0.0,0.0,0.0,0.0,0.0,0.0,-0.031146960332989693,0.04756549745798111,0.033561717718839645,0.9946900010108948,-0.005794523283839226,0.005971243605017662,0.10257790237665176
693.0,0.0,0.0,0.0,0.0,0.0,0.0,-0.013446184806525707,0.019765980541706085,0.003640507347881794,0.9952490329742432,-0.00042278083856217563,0.006091742310672998,0.09717299789190292
694.0,0.0,0.0,0.0,0.0,0.0,0.0,0.04604489728808403,-0.0035945489071309566,0.001961533445864916,0.9956133961677551,0.004774332046508789,0.005591383203864098,0.0932760015130043
695.0,0.0,0.0,0.0,0.0,0.0,0.0,0.06488204747438431,-0.058954544365406036,0.0013532248558476567,0.9960249066352844,0.011387418955564499,0.004595174919813871,0.08822865784168243
696.0,0.0,0.0,0.0,0.0,0.0,0.0,0.07013621181249619,-0.0685957670211792,-0.019981158897280693,0.9961935877799988,0.01861557923257351,0.0038157931994646788,0.08506985753774643
697.0,0.0,0.0,0.0,0.0,0.0,0.0,0.05197543650865555,-0.055766984820365906,-0.03699903562664986,0.9962072372436523,0.024285292252898216,0.004924300592392683,0.08340657502412796
698.0,0.0,0.0,0.0,0.0,0.0,0.0,0.04167432337999344,-0.05746748670935631,-0.045428138226270676,0.9961944818496704,0.02751323953270912,0.007456926628947258,0.08236377686262131
699.0,0.0,0.0,0.0,0.0,0.0,0.0,-0.005571817047894001,-0.034916989505290985,-0.042330820113420486,0.9964076280593872,0.030174899846315384,0.010563072748482227,0.07842189073562622
700.0,0.0,0.0,0.0,0.0,0.0,0.0,0.004965418949723244,-0.035969845950603485,-0.05959659442305565,0.9966735243797302,0.030450686812400818,0.012444522231817245,0.07456494867801666
701.0,0.0,0.0,0.0,0.0,0.0,0.0,0.01687406748533249,-0.010884669609367847,-0.04465135931968689,0.9968559741973877,0.02870374731719494,0.012760931625962257,0.07274314761161804
702.0,0.0,0.0,0.0,0.0,0.0,0.0,0.02123836986720562,-0.002235265914350748,0.00036946727777831256,0.9970159530639648,0.02748980186879635,0.012169159948825836,0.07110384106636047
703.0,0.0,0.0,0.0,0.0,0.0,0.0,0.024077080190181732,-0.010406284593045712,0.008182779885828495,0.9970653653144836,0.026457922533154488,0.010269200429320335,0.07110535353422165
704.0,0.0,0.0,0.0,0.0,0.0,0.0,-0.013970202766358852,0.0036800981033593416,-0.01839452236890793,0.9972647428512573,0.02642236091196537,0.006571525242179632,0.06871401518583298
705.0,0.0,0.0,0.0,0.0,0.0,0.0,-0.0072596692480146885,-0.017781337723135948,-0.014399775303900242,0.9973448514938354,0.024690603837370872,0.005739472806453705,0.06827088445425034
706.0,0.0,0.0,0.0,0.0,0.0,0.0,0.012983156368136406,-0.024735871702432632,-0.034019503742456436,0.9972952604293823,0.022564297541975975,0.005380014423280954,0.06974514573812485
707.0,0.0,0.0,0.0,0.0,0.0,0.0,-0.006734492722898722,-0.028789104893803596,-0.05030696466565132,0.9973657131195068,0.020890971645712852,0.0054658763110637665,0.0692485049366951
708.0,0.0,0.0,0.0,0.0,0.0,0.0,-0.011816157028079033,-0.013503464870154858,-0.031739335507154465,0.9974106550216675,0.016651485115289688,0.004583815112709999,0.06981460750102997
709.0,0.0,0.0,0.0,0.0,0.0,0.0,0.002408384345471859,0.05187547206878662,0.016888000071048737,0.9971954226493835,0.01298140361905098,0.004416496958583593,0.07357489317655563
710.0,0.0,0.0,0.0,0.0,0.0,0.0,-0.003287370316684246,0.08672326803207397,0.07587134838104248,0.996944785118103,0.011051098816096783,0.004237552639096975,0.07720882445573807
711.0,0.0,0.0,0.0,0.0,0.0,0.0,-0.030319461598992348,0.04281461611390114,0.050099361687898636,0.9968576431274414,0.010139205493032932,0.005229949485510588,0.07839253544807434
712.0,0.0,0.0,0.0,0.0,0.0,0.0,-0.024216637015342712,0.03687683120369911,0.00033963678288273513,0.9967747330665588,0.009803101420402527,0.006424358114600182,0.07938923686742783
713.0,0.0,0.0,0.0,0.0,0.0,0.0,-0.006514211185276508,0.02107376977801323,0.006660125218331814,0.996686577796936,0.009166562929749489,0.007163490168750286,0.08050420135259628
714.0,0.0,0.0,0.0,0.0,0.0,0.0,0.008435055613517761,0.021382030099630356,0.009288965724408627,0.9968462586402893,0.010376211255788803,0.006476805079728365,0.0784093514084816
715.0,0.0,0.0,0.0,0.0,0.0,0.0,-0.0061952946707606316,0.008040345273911953,0.005866470746695995,0.9970482587814331,0.01151672750711441,0.006728502921760082,0.07561276853084564
716.0,0.0,0.0,0.0,0.0,0.0,0.0,0.026252390816807747,-0.031048307195305824,-0.012234589084982872,0.9969034790992737,0.010286789387464523,0.00956001691520214,0.07737154513597488
717.0,0.0,0.0,0.0,0.0,0.0,0.0,0.03501225635409355,-0.0387168787419796,-0.05922858417034149,0.9968737959861755,0.009222304448485374,0.009293445385992527,0.077921062707901
718.0,0.0,0.0,0.0,0.0,0.0,0.0,0.014386679977178574,-0.019628746435046196,-0.03503628447651863,0.9969224333763123,0.008008686825633049,0.008367168717086315,0.07753656804561615
719.0,0.0,0.0,0.0,0.0,0.0,0.0,0.02065229043364525,-0.0047333561815321445,0.019238602370023727,0.9969639778137207,0.007034848909825087,0.008665473200380802,0.0770631730556488
720.0,0.0,0.0,0.0,0.0,0.0,0.0,0.01285427063703537,0.01089563500136137,0.025866035372018814,0.9971196055412292,0.006711497437208891,0.00848555751144886,0.0750693827867508
721.0,0.0,0.0,0.0,0.0,0.0,0.0,-0.007739423308521509,0.016652798280119896,0.016375908628106117,0.9973342418670654,0.006883865687996149,0.006987859960645437,0.07231144607067108
722.0,0.0,0.0,0.0,0.0,0.0,0.0,0.0018242783844470978,0.0067088971845805645,0.035443633794784546,0.9974212646484375,0.007456446532160044,0.006331379059702158,0.07110496610403061
723.0,0.0,0.0,0.0,0.0,0.0,0.0,-0.019586501643061638,0.016464726999402046,0.009373906999826431,0.9976728558540344,0.010002676397562027,0.005267529282718897,0.06723731011152267
724.0,0.0,0.0,0.0,0.0,0.0,0.0,-0.02057080902159214,-0.01979297399520874,-0.00770766893401742,0.9978176951408386,0.010487879626452923,0.004697643686085939,0.0650225356221199
725.0,0.0,0.0,0.0,0.0,0.0,0.0,0.012390810064971447,-0.03928209841251373,-0.02392667904496193,0.9977748394012451,0.00742510287091136,0.0026192006189376116,0.06620729714632034
726.0,0.0,0.0,0.0,0.0,0.0,0.0,0.02964169904589653,-0.038995593786239624,-0.03363894671201706,0.9976089596748352,0.004200213123112917,0.0006461066077463329,0.06898465007543564
727.0,0.0,0.0,0.0,0.0,0.0,0.0,0.03307734429836273,-0.03324953466653824,-0.0323723629117012,0.9974712133407593,0.0010860362090170383,-0.0019277716055512428,0.07103744149208069
728.0,0.0,0.0,0.0,0.0,0.0,0.0,-0.0032330607064068317,-0.03626343980431557,-0.03191031143069267,0.997503936290741,-0.004620766267180443,-0.0069715771824121475,0.07011513411998749
