,Position_X,Position_Y,Position_Z,Velocity_X,Velocity_Y,Velocity_Z,Acceleration_X,Acceleration_Y,Acceleration_Z,Quaterion_0,Quaterion_1,Quaterion_2,Quaterion_3
51.0,0.0,0.0,0.0,0.0,0.0,0.0,-0.03275160491466522,-0.04143334925174713,0.004383668303489685,1.0,-1.3877787807814457e-17,1.3877787807814457e-17,1.3877787807814457e-17
52.0,0.0,0.0,0.0,0.0,0.0,0.0,-0.027926811948418617,-0.048146989196538925,0.002556770108640194,0.9999988079071045,0.0009672948508523405,0.00035281144664622843,-0.0011251501273363829
53.0,0.0,0.0,0.0,0.0,0.0,0.0,-0.01992676593363285,-0.047072965651750565,-0.009063891135156155,0.9999978542327881,0.0013954091118648648,0.001175907556898892,-0.0009919190779328346
54.0,0.0,0.0,0.0,0.0,0.0,0.0,-0.01389799453318119,-0.045981090515851974,-0.01214159931987524,0.999997079372406,0.0016554017784073949,0.0015240078791975975,-0.0008938310202211142
55.0,0.0,0.0,0.0,0.0,0.0,0.0,-0.013003206811845303,-0.03962615504860878,-0.0056265732273459435,0.9999955296516418,0.002251031808555126,0.001670273719355464,-0.0010582376271486282
56.0,0.0,0.0,0.0,0.0,0.0,0.0,-0.013054605573415756,-0.0316450335085392,0.0009185406961478293,0.9999914169311523,0.0028865269850939512,0.002505736891180277,-0.0015963511541485786
57.0,0.0,0.0,0.0,0.0,0.0,0.0,-0.009952171705663204,-0.023371415212750435,-0.010729845613241196,0.9999815225601196,0.003924024291336536,0.003988239448517561,-0.0023879320360720158
58.0,0.0,0.0,0.0,0.0,0.0,0.0,-0.005080703645944595,-0.02801520563662052,0.0018745523411780596,0.999975860118866,0.004456051625311375,0.004813854582607746,-0.0022928789258003235
59.0,0.0,0.0,0.0,0.0,0.0,0.0,0.07741231471300125,-0.08377400040626526,-0.04431909695267677,0.9999713897705078,0.004402999300509691,0.002458072965964675,-0.005635428242385387
60.0,0.0,0.0,0.0,0.0,0.0,0.0,-0.018361475318670273,-0.007592132315039635,-0.00041168942698277533,0.9999912977218628,0.0038051230367273092,-0.00025999743957072496,-0.0016907440731301904
61.0,0.0,0.0,0.0,0.0,0.0,0.0,-0.025808287784457207,-0.03173809126019478,0.04045729339122772,0.9999866485595703,0.0034719102550297976,0.0017496929503977299,-0.0034033895935863256
62.0,0.0,0.0,0.0,0.0,0.0,0.0,-0.013798563741147518,-0.003041888354346156,-0.014275447465479374,0.9999831318855286,0.004281234461814165,-0.0019813496619462967,-0.0033811244647949934
63.0,0.0,0.0,0.0,0.0,0.0,0.0,-0.04028315469622612,0.005100862588733435,0.026839200407266617,0.9999902844429016,0.0030042012222111225,-0.001199841615743935,-0.0029863424133509398
64.0,0.0,0.0,0.0,0.0,0.0,0.0,-0.020659899339079857,-0.030709417536854744,0.003969624638557434,0.9999896287918091,0.003176453523337841,-0.0006405895110219717,-0.003199126338586211
65.0,0.0,0.0,0.0,0.0,0.0,0.0,-0.021809328347444534,-0.031257305294275284,0.009502138942480087,0.9999904632568359,0.0018672747537493706,0.0003241721133235842,-0.003936949651688337
66.0,0.0,0.0,0.0,0.0,0.0,0.0,-0.01596369780600071,-0.04136711359024048,0.013623936101794243,0.99998539686203,0.00033135985722765326,0.0014550862833857536,-0.005192147102206945
67.0,0.0,0.0,0.0,0.0,0.0,0.0,-0.015042994171380997,-0.02678859420120716,0.0022582057863473892,0.9999755620956421,-9.699016663944349e-05,0.0028908320236951113,-0.006367394234985113
68.0,0.0,0.0,0.0,0.0,0.0,0.0,-0.01543776411563158,-0.015516430139541626,0.0009039622964337468,0.9999629855155945,-7.190009637270123e-05,0.004209534730762243,-0.007506746798753738
69.0,0.0,0.0,0.0,0.0,0.0,0.0,-0.008212000131607056,-0.019623471423983574,0.007710195146501064,0.999946117401123,-8.123936822812539e-06,0.005528516136109829,-0.008783570490777493
70.0,0.0,0.0,0.0,0.0,0.0,0.0,0.0062242839485406876,-0.026929402723908424,-0.0028876117430627346,0.9999343752861023,0.0005178507417440414,0.006911739241331816,-0.009118898771703243
71.0,0.0,0.0,0.0,0.0,0.0,0.0,0.012894771061837673,-0.021444234997034073,-0.011188274249434471,0.9999268054962158,0.0015858547994866967,0.007871754467487335,-0.009047062136232853
72.0,0.0,0.0,0.0,0.0,0.0,0.0,0.0207635760307312,-0.02371888980269432,-0.008098980411887169,0.9999226927757263,0.0024398588575422764,0.007879243232309818,-0.009306242689490318
73.0,0.0,0.0,0.0,0.0,0.0,0.0,0.026781242340803146,-0.027069199830293655,-0.020755814388394356,0.9999227523803711,0.0021369238384068012,0.00808216817677021,-0.009195417165756226
74.0,0.0,0.0,0.0,0.0,0.0,0.0,0.004802258685231209,-0.016682548448443413,0.004726758226752281,0.9999288320541382,0.0010571022285148501,0.008154407143592834,-0.008644764311611652
75.0,0.0,0.0,0.0,0.0,0.0,0.0,-0.004254031460732222,-0.012830435298383236,0.019553901627659798,0.9999358057975769,-3.8474139728350565e-05,0.007832725532352924,-0.00818698201328516
76.0,0.0,0.0,0.0,0.0,0.0,0.0,-0.015068776905536652,0.010757115669548512,0.013876037672162056,0.9999403357505798,-0.0014166462933644652,0.007973464205861092,-0.007329266984015703
77.0,0.0,0.0,0.0,0.0,0.0,0.0,-0.016712233424186707,0.011711323633790016,0.01015305146574974,0.999940812587738,-0.00214370503090322,0.008349119685590267,-0.006638532038778067
78.0,0.0,0.0,0.0,0.0,0.0,0.0,-0.00884079746901989,0.0027746064588427544,0.01694636233150959,0.9999391436576843,-0.0027960967272520065,0.008415836840867996,-0.006564440205693245
79.0,0.0,0.0,0.0,0.0,0.0,0.0,-0.006420797202736139,0.001265152357518673,0.012089577503502369,0.9999358057975769,-0.00322763342410326,0.008500618860125542,-0.006763378623872995
80.0,0.0,0.0,0.0,0.0,0.0,0.0,-0.005275424104183912,0.0033272188156843185,0.006770257372409105,0.9999389052391052,-0.003015486290678382,0.008249456994235516,-0.006707995198667049
81.0,0.0,0.0,0.0,0.0,0.0,0.0,-0.0028090798296034336,1.0828390486494754e-06,-0.0011773704318329692,0.9999435544013977,-0.0028529518749564886,0.007749150972813368,-0.006688733119517565
82.0,0.0,0.0,0.0,0.0,0.0,0.0,-0.004174405708909035,-0.002421941375359893,-0.006523564923554659,0.9999440908432007,-0.002957958960905671,0.007512557320296764,-0.006828283425420523
83.0,0.0,0.0,0.0,0.0,0.0,0.0,-0.0020893870387226343,-0.012436251156032085,0.0033549589570611715,0.999950110912323,-0.0025519952178001404,0.007349430117756128,-0.006268609315156937
84.0,0.0,0.0,0.0,0.0,0.0,0.0,-0.001842009020037949,-0.0143734160810709,0.0004409508255776018,0.9999533295631409,-0.001973493956029415,0.007528943009674549,-0.005721181631088257
85.0,0.0,0.0,0.0,0.0,0.0,0.0,0.0010098855709657073,-0.018325066193938255,-0.008835169486701488,0.9999522566795349,-0.0014609132194891572,0.007869726978242397,-0.005604450590908527
86.0,0.0,0.0,0.0,0.0,0.0,0.0,0.0029933268669992685,-0.02420821413397789,-0.005893102381378412,0.9999558329582214,-0.0006824386073276401,0.007651536725461483,-0.005411078687757254
87.0,0.0,0.0,0.0,0.0,0.0,0.0,0.0032062684185802937,-0.02372121997177601,-0.002875481266528368,0.9999561905860901,-0.0003379056288395077,0.007505964953452349,-0.005578045267611742
88.0,0.0,0.0,0.0,0.0,0.0,0.0,-0.00017598811245989054,-0.016001876443624496,-0.009260130114853382,0.9999561905860901,-0.00022177920618560165,0.007651480380445719,-0.005388842895627022
89.0,0.0,0.0,0.0,0.0,0.0,0.0,-0.004336917772889137,-0.015908164903521538,-0.006364294793456793,0.9999538660049438,-0.00046995715820230544,0.007766814902424812,-0.005630665924400091
90.0,0.0,0.0,0.0,0.0,0.0,0.0,-0.005868380889296532,-0.017601827159523964,0.003372566308826208,0.9999421834945679,-6.97577852406539e-05,0.008564150892198086,-0.006506104953587055
91.0,0.0,0.0,0.0,0.0,0.0,0.0,-0.007797661237418652,-0.01202218234539032,0.009671701118350029,0.9999354481697083,0.00016487942775711417,0.009682579897344112,-0.005948360543698072
92.0,0.0,0.0,0.0,0.0,0.0,0.0,0.02887035720050335,-0.04959094896912575,0.010478894226253033,0.9999246597290039,-0.0003258213691879064,0.009244302287697792,-0.008070695213973522
93.0,0.0,0.0,0.0,0.0,0.0,0.0,0.0656222254037857,-0.05133238434791565,-0.0838080495595932,0.9999759793281555,-0.001077955705113709,0.003487903857603669,-0.0058906190097332
94.0,0.0,0.0,0.0,0.0,0.0,0.0,-0.04992274194955826,0.021937213838100433,0.07821297645568848,0.9999635815620422,-0.002675057156011462,0.007307776249945164,-0.0035029638092964888
95.0,0.0,0.0,0.0,0.0,0.0,0.0,0.02030646800994873,-0.05190451815724373,-0.023321999236941338,0.999981701374054,-0.0018951507518067956,0.004216569475829601,-0.003906833473592997
96.0,0.0,0.0,0.0,0.0,0.0,0.0,-0.037126749753952026,0.031284600496292114,0.02292592078447342,0.999984085559845,-0.0033884828444570303,0.003498606150969863,-0.002851382363587618
97.0,0.0,0.0,0.0,0.0,0.0,0.0,-0.020862996578216553,-0.023624110966920853,0.02570253610610962,0.99997478723526,-0.00453598378226161,0.004426247905939817,-0.003195284865796566
98.0,0.0,0.0,0.0,0.0,0.0,0.0,-0.016145657747983932,-0.002555062295868993,0.014962110668420792,0.9999715685844421,-0.004465990234166384,0.004832278937101364,-0.0036867549642920494
99.0,0.0,0.0,0.0,0.0,0.0,0.0,-0.020402129739522934,0.00048560259165242314,0.019185451790690422,0.9999653100967407,-0.00442126952111721,0.005457188002765179,-0.00447504548355937
100.0,0.0,0.0,0.0,0.0,0.0,0.0,-0.0073950584046542645,-0.017461620271205902,0.007906350307166576,0.9999586343765259,-0.003985680174082518,0.00639328034594655,-0.005096486769616604
101.0,0.0,0.0,0.0,0.0,0.0,0.0,0.0007632711203768849,-0.017489472404122353,-0.0006240702932700515,0.9999517202377319,-0.0032635510433465242,0.00758092338219285,-0.005336472764611244
102.0,0.0,0.0,0.0,0.0,0.0,0.0,0.017091985791921616,-0.018363183364272118,-0.007164487615227699,0.9999554753303528,-0.001946622389368713,0.007738614454865456,-0.005032780114561319
103.0,0.0,0.0,0.0,0.0,0.0,0.0,0.023154132068157196,-0.040672775357961655,-0.011614187620580196,0.9999518990516663,-0.00120199890807271,0.008109847083687782,-0.005383138079196215
104.0,0.0,0.0,0.0,0.0,0.0,0.0,0.02134542539715767,-0.034612882882356644,-0.011236479505896568,0.9999525547027588,-0.0012205342063680291,0.0076788319274783134,-0.00587312551215291
105.0,0.0,0.0,0.0,0.0,0.0,0.0,0.011262464337050915,-0.01611628383398056,-0.015614134259521961,0.9999582171440125,-0.0009674632456153631,0.007148030214011669,-0.005614628549665213
106.0,0.0,0.0,0.0,0.0,0.0,0.0,-0.0012301286915317178,-0.00790395587682724,0.0020673915278166533,0.9999586939811707,-0.0014643861213698983,0.007102755829691887,-0.005481538362801075
107.0,0.0,0.0,0.0,0.0,0.0,0.0,-0.007257525343447924,-0.003859682474285364,0.013138164766132832,0.9999580383300781,-0.002685829298570752,0.007091403007507324,-0.005138511303812265
108.0,0.0,0.0,0.0,0.0,0.0,0.0,-0.010760693810880184,0.00033444384462200105,0.012198764830827713,0.9999534487724304,-0.003620466683059931,0.007446844596415758,-0.004951597657054663
109.0,0.0,0.0,0.0,0.0,0.0,0.0,-0.008685452863574028,0.004498973023146391,-0.0009330362663604319,0.9999489188194275,-0.0043784319423139095,0.007778240833431482,-0.004744867794215679
110.0,0.0,0.0,0.0,0.0,0.0,0.0,-0.007004100363701582,0.00017189989739563316,0.0042057521641254425,0.9999523162841797,-0.004394078627228737,0.007459425833076239,-0.004525226075202227
111.0,0.0,0.0,0.0,0.0,0.0,0.0,-0.006361363455653191,-0.010982299223542213,0.0035628285259008408,0.9999585151672363,-0.004219185095280409,0.006691784597933292,-0.0045203594490885735
112.0,0.0,0.0,0.0,0.0,0.0,0.0,-0.0011824383400380611,-0.018970638513565063,-0.0002214243431808427,0.9999575018882751,-0.003954605665057898,0.006484240759164095,-0.005228541791439056
113.0,0.0,0.0,0.0,0.0,0.0,0.0,-0.001190741779282689,-0.014590118080377579,-0.0036028947215527296,0.9999527931213379,-0.004198107402771711,0.0065015521831810474,-0.005878088064491749
114.0,0.0,0.0,0.0,0.0,0.0,0.0,-0.0008361750515177846,-0.01272384263575077,-0.003768836846575141,0.9999532699584961,-0.004553146660327911,0.006573298014700413,-0.005428842268884182
115.0,0.0,0.0,0.0,0.0,0.0,0.0,0.0018761978717520833,-0.011032547801733017,-0.004217456094920635,0.9999507069587708,-0.0049335649237036705,0.007125537376850843,-0.004844858776777983
116.0,0.0,0.0,0.0,0.0,0.0,0.0,0.001126689719967544,-0.009781030006706715,-0.006772048305720091,0.9999470114707947,-0.005331315565854311,0.0071033332496881485,-0.005204235669225454
117.0,0.0,0.0,0.0,0.0,0.0,0.0,-0.0016985367983579636,-0.016580944880843163,0.002925977110862732,0.9999465346336365,-0.004937192425131798,0.006795275025069714,-0.0060298871248960495
118.0,0.0,0.0,0.0,0.0,0.0,0.0,-0.006095568649470806,-0.015389998443424702,-0.0038446730468422174,0.9999448657035828,-0.004569534212350845,0.006649921648204327,-0.006723084021359682
119.0,0.0,0.0,0.0,0.0,0.0,0.0,-0.005825350526720285,-0.015757059678435326,-0.0023664820473641157,0.9999450445175171,-0.004753929562866688,0.0061884005554020405,-0.006999543402343988
120.0,0.0,0.0,0.0,0.0,0.0,0.0,-0.00890482496470213,-0.015523916110396385,-0.00012870955106336623,0.9999446272850037,-0.00543644605204463,0.005856596399098635,-0.00684795156121254
121.0,0.0,0.0,0.0,0.0,0.0,0.0,-0.010033486410975456,-0.018471522256731987,0.009302063845098019,0.9999391436576843,-0.0062566157430410385,0.006142405793070793,-0.006693470757454634
122.0,0.0,0.0,0.0,0.0,0.0,0.0,-0.010688867419958115,-0.01780209317803383,0.007841721177101135,0.999915361404419,-0.006785805802792311,0.007522184867411852,-0.008160796947777271
123.0,0.0,0.0,0.0,0.0,0.0,0.0,-0.008899573236703873,-0.013982349075376987,0.008520109578967094,0.9998959302902222,-0.006327930837869644,0.009177296422421932,-0.00915862899273634
124.0,0.0,0.0,0.0,0.0,0.0,0.0,0.004036634229123592,-0.01997978240251541,0.03415251150727272,0.9998922348022461,-0.00577542046085,0.009350051172077656,-0.009733989834785461
125.0,0.0,0.0,0.0,0.0,0.0,0.0,0.10758162289857864,-0.10419941693544388,-0.061576444655656815,0.999826967716217,-0.005309042055159807,0.006166997365653515,-0.016728462651371956
126.0,0.0,0.0,0.0,0.0,0.0,0.0,-0.04877535626292229,0.03139707073569298,0.04401231184601784,0.9999045133590698,-0.006909343414008617,0.0037533575668931007,-0.011362681165337563
127.0,0.0,0.0,0.0,0.0,0.0,0.0,-0.0008698102319613099,-0.029512016102671623,0.04187605157494545,0.9998396635055542,-0.006068025715649128,0.006373007316142321,-0.015596347860991955
128.0,0.0,0.0,0.0,0.0,0.0,0.0,0.003705189097672701,0.005972228478640318,-0.028000986203551292,0.9998573660850525,-0.005593514535576105,0.0020537376403808594,-0.015805326402187347
129.0,0.0,0.0,0.0,0.0,0.0,0.0,-0.025359103456139565,0.00814287643879652,0.0397176593542099,0.9998235106468201,-0.007824876345694065,0.003968881908804178,-0.016611207276582718
130.0,0.0,0.0,0.0,0.0,0.0,0.0,0.0038503024261444807,-0.03649110719561577,-0.0027868126053363085,0.9998220205307007,-0.007351684849709272,0.003950901795178652,-0.016917815431952477
131.0,0.0,0.0,0.0,0.0,0.0,0.0,-0.01067186240106821,0.019149182364344597,0.006250470411032438,0.9998104572296143,-0.007449359633028507,0.004317120183259249,-0.01746276393532753
132.0,0.0,0.0,0.0,0.0,0.0,0.0,-0.00997227057814598,0.009687407873570919,0.018074404448270798,0.9998051524162292,-0.007122732698917389,0.004734349902719259,-0.017791911959648132
133.0,0.0,0.0,0.0,0.0,0.0,0.0,0.017020447179675102,-0.025947440415620804,0.0011840838706120849,0.9998074173927307,-0.005013305693864822,0.003996390849351883,-0.01854630559682846
134.0,0.0,0.0,0.0,0.0,0.0,0.0,0.009990183636546135,-0.0425872728228569,0.005938188638538122,0.9997920989990234,-0.005278520751744509,0.004400656092911959,-0.01919742487370968
135.0,0.0,0.0,0.0,0.0,0.0,0.0,0.012875004671514034,-0.02952987141907215,0.0017436883645132184,0.9997996091842651,-0.006039489060640335,0.004063987173140049,-0.01864653266966343
136.0,0.0,0.0,0.0,0.0,0.0,0.0,3.980899418820627e-05,-0.02006450481712818,-0.0005141943693161011,0.9998011589050293,-0.005535325035452843,0.0036548057105392218,-0.018806079402565956
137.0,0.0,0.0,0.0,0.0,0.0,0.0,-0.000977194868028164,-0.024305811151862144,0.002695249393582344,0.99978107213974,-0.006072964984923601,0.004094894975423813,-0.019599223509430885
138.0,0.0,0.0,0.0,0.0,0.0,0.0,0.0008962242281995714,-0.02724304609000683,0.011297347024083138,0.9997755885124207,-0.007276343647390604,0.003964166156947613,-0.019497381523251534
139.0,0.0,0.0,0.0,0.0,0.0,0.0,-0.010337776504456997,-0.021157121285796165,0.02213202230632305,0.9997755885124207,-0.00876929797232151,0.004416204057633877,-0.01877143420279026
140.0,0.0,0.0,0.0,0.0,0.0,0.0,-0.015537504106760025,-0.010714014060795307,0.021734334528446198,0.9997533559799194,-0.009793524630367756,0.005430065561085939,-0.019177328795194626
141.0,0.0,0.0,0.0,0.0,0.0,0.0,-0.009874521754682064,0.0008791853324510157,0.0026728606317192316,0.9997262954711914,-0.010362820699810982,0.006742570083588362,-0.01986110955476761
142.0,0.0,0.0,0.0,0.0,0.0,0.0,0.004777250345796347,-0.003001725533977151,-0.003533939365297556,0.9996922016143799,-0.010814055800437927,0.007835611701011658,-0.020905861631035805
143.0,0.0,0.0,0.0,0.0,0.0,0.0,0.013783544301986694,-0.01049975398927927,-0.008087961003184319,0.9996606111526489,-0.010718409903347492,0.008480457589030266,-0.022180262953042984
144.0,0.0,0.0,0.0,0.0,0.0,0.0,0.019935427233576775,-0.004957400728017092,-0.018284540623426437,0.9996446371078491,-0.011296046897768974,0.009713663719594479,-0.02210245467722416
145.0,0.0,0.0,0.0,0.0,0.0,0.0,0.023884734138846397,-0.006313469726592302,-0.030512386932969093,0.999620795249939,-0.012436524033546448,0.01100906077772379,-0.02196330390870571
146.0,0.0,0.0,0.0,0.0,0.0,0.0,0.030721565708518028,-0.009631441906094551,-0.024932799860835075,0.999580979347229,-0.013967020437121391,0.012167244218289852,-0.022242287173867226
147.0,0.0,0.0,0.0,0.0,0.0,0.0,0.028216158971190453,-0.012703338637948036,-0.016433218494057655,0.99955815076828,-0.01605643890798092,0.011562151834368706,-0.022180980071425438
148.0,0.0,0.0,0.0,0.0,0.0,0.0,0.015114289708435535,-0.019836844876408577,-0.012603378854691982,0.9995208382606506,-0.018793798983097076,0.0112893832847476,-0.021850749850273132
149.0,0.0,0.0,0.0,0.0,0.0,0.0,0.004462581593543291,0.0008808129350654781,-0.011739970184862614,0.9994829297065735,-0.02187519147992134,0.012473981827497482,-0.019997624680399895
150.0,0.0,0.0,0.0,0.0,0.0,0.0,0.009985539130866528,0.006957038771361113,-0.015688791871070862,0.9994320273399353,-0.025017105042934418,0.013028969056904316,-0.0184401273727417
151.0,0.0,0.0,0.0,0.0,0.0,0.0,0.008711387403309345,0.013808920048177242,-0.0031172409653663635,0.9993854761123657,-0.028224896639585495,0.012336148880422115,-0.01673472858965397
152.0,0.0,0.0,0.0,0.0,0.0,0.0,-0.010349993593990803,0.0318768136203289,0.008086539804935455,0.9993272423744202,-0.031372811645269394,0.013142396695911884,-0.013708478771150112
153.0,0.0,0.0,0.0,0.0,0.0,0.0,-0.013612496666610241,0.0317784808576107,0.005846107378602028,0.9992481470108032,-0.034084588289260864,0.015002990141510963,-0.010776779614388943
154.0,0.0,0.0,0.0,0.0,0.0,0.0,0.002702124882489443,0.023569142445921898,0.011791677214205265,0.999183177947998,-0.036279335618019104,0.015693992376327515,-0.00839255005121231
155.0,0.0,0.0,0.0,0.0,0.0,0.0,0.0041559720411896706,0.04527706280350685,-0.0006586516392417252,0.999118447303772,-0.038641199469566345,0.015535756014287472,-0.005256905686110258
156.0,0.0,0.0,0.0,0.0,0.0,0.0,-0.021320194005966187,0.058686889708042145,0.01042602863162756,0.9990249276161194,-0.04132045805454254,0.015441913157701492,-0.0018535821000114083
157.0,0.0,0.0,0.0,0.0,0.0,0.0,-0.006995189469307661,0.054384518414735794,0.03976471349596977,0.9989522099494934,-0.04333517700433731,0.014718538150191307,0.00011131822975585237
158.0,0.0,0.0,0.0,0.0,0.0,0.0,-0.02970605157315731,0.07424954324960709,-0.002388996072113514,0.998862624168396,-0.044717393815517426,0.01637706533074379,0.0023599406704306602
159.0,0.0,0.0,0.0,0.0,0.0,0.0,0.0006685948465019464,0.03196336328983307,0.02452177181839943,0.9988418221473694,-0.0450441874563694,0.016661817207932472,0.0029011412989348173
160.0,0.0,0.0,0.0,0.0,0.0,0.0,0.0035959261003881693,0.06446299701929092,0.029695261269807816,0.998830258846283,-0.04510847479104996,0.01660366728901863,0.005271915812045336
161.0,0.0,0.0,0.0,0.0,0.0,0.0,0.009126977995038033,0.02757307142019272,0.006198509130626917,0.9988542795181274,-0.04487408697605133,0.014858290553092957,0.007437705993652344
162.0,0.0,0.0,0.0,0.0,0.0,0.0,0.024740124121308327,-0.0166701078414917,0.008157476782798767,0.9989587664604187,-0.043214473873376846,0.012301881797611713,0.007894911803305149
163.0,0.0,0.0,0.0,0.0,0.0,0.0,0.02226252108812332,0.0010337699204683304,0.009284397587180138,0.9990711808204651,-0.04045775532722473,0.010387063957750797,0.01059720665216446
164.0,0.0,0.0,0.0,0.0,0.0,0.0,0.022341318428516388,0.005820641294121742,0.0061926948837935925,0.9991235136985779,-0.038521721959114075,0.008950196206569672,0.013724115677177906
165.0,0.0,0.0,0.0,0.0,0.0,0.0,0.03125523030757904,-0.0059400759637355804,0.004577816464006901,0.999199390411377,-0.03616072237491608,0.007291421759873629,0.015485907904803753
166.0,0.0,0.0,0.0,0.0,0.0,0.0,0.049234017729759216,-0.01903824880719185,-0.0030461985152214766,0.9992367625236511,-0.033873241394758224,0.006129637826234102,0.018457433208823204
167.0,0.0,0.0,0.0,0.0,0.0,0.0,0.04455248638987541,-0.039274912327528,-0.006541674956679344,0.9992503523826599,-0.03202703595161438,0.004282231908291578,0.021321607753634453
168.0,0.0,0.0,0.0,0.0,0.0,0.0,0.031190091744065285,-0.03931402415037155,0.01282468345016241,0.9992485642433167,-0.03101365640759468,0.001877421629615128,0.02316741831600666
169.0,0.0,0.0,0.0,0.0,0.0,0.0,0.016476014629006386,-0.04243849590420723,0.018596239387989044,0.9992181658744812,-0.030948927626013756,-0.0002888238232117146,0.024597616866230965
170.0,0.0,0.0,0.0,0.0,0.0,0.0,0.0200797151774168,-0.02954132668673992,-0.005490615963935852,0.9991785287857056,-0.030716756358742714,-0.002202497562393546,0.026340223848819733
171.0,0.0,0.0,0.0,0.0,0.0,0.0,0.03340337052941322,-0.04851631075143814,-0.03019915521144867,0.9991496205329895,-0.030828725546598434,-0.0038845848757773638,0.02710982970893383
172.0,0.0,0.0,0.0,0.0,0.0,0.0,0.041817229241132736,-0.0639353021979332,-0.0296108927577734,0.9990882873535156,-0.03161853179335594,-0.005370769649744034,0.028180474415421486
173.0,0.0,0.0,0.0,0.0,0.0,0.0,0.036968015134334564,-0.06014501675963402,-0.035426802933216095,0.9990244507789612,-0.03304509446024895,-0.005701117217540741,0.028737874701619148
174.0,0.0,0.0,0.0,0.0,0.0,0.0,0.04549544304609299,-0.06447028368711472,-0.030773242935538292,0.9989893436431885,-0.03440939635038376,-0.005812859628349543,0.028335178270936012
175.0,0.0,0.0,0.0,0.0,0.0,0.0,0.047859251499176025,-0.06334781646728516,-0.028913378715515137,0.9989214539527893,-0.03613607585430145,-0.006119969766587019,0.028508439660072327
176.0,0.0,0.0,0.0,0.0,0.0,0.0,0.029632726684212685,-0.05725521966814995,-0.01841612160205841,0.9988928437232971,-0.03798515349626541,-0.005741777829825878,0.027147511020302773
177.0,0.0,0.0,0.0,0.0,0.0,0.0,0.013794236816465855,-0.03675272688269615,-0.0025067657697945833,0.9989325404167175,-0.039364349097013474,-0.0038790942635387182,0.023845866322517395
178.0,0.0,0.0,0.0,0.0,0.0,0.0,0.00169678486417979,-0.016628781333565712,0.0006494603003375232,0.9989911317825317,-0.04004983231425285,-0.0016230654437094927,0.02024088241159916
179.0,0.0,0.0,0.0,0.0,0.0,0.0,-0.01946493797004223,-0.00859761144965887,0.013416063971817493,0.9990649223327637,-0.04000992700457573,0.0018519115401431918,0.01628764718770981
180.0,0.0,0.0,0.0,0.0,0.0,0.0,-0.01233949139714241,-0.020762506872415543,0.03384880721569061,0.9991493821144104,-0.03919529169797897,0.005329151172190905,0.01165533997118473
181.0,0.0,0.0,0.0,0.0,0.0,0.0,-0.02030259184539318,-0.012420211918652058,0.026852265000343323,0.9991759657859802,-0.038675762712955475,0.009681633673608303,0.0075846947729587555
182.0,0.0,0.0,0.0,0.0,0.0,0.0,-0.021642066538333893,0.010530993342399597,0.00425230897963047,0.9991846084594727,-0.037708308547735214,0.014019586145877838,0.0033909212797880173
183.0,0.0,0.0,0.0,0.0,0.0,0.0,-0.008696294389665127,0.01803799718618393,0.003276474541053176,0.9992015361785889,-0.03593921288847923,0.017451534047722816,-0.0004360789025668055
184.0,0.0,0.0,0.0,0.0,0.0,0.0,-0.006174394395202398,-0.011265555396676064,0.007809871807694435,0.9991803765296936,-0.03438390791416168,0.020910169929265976,-0.004362076986581087
185.0,0.0,0.0,0.0,0.0,0.0,0.0,0.019298378378152847,-0.018215585500001907,-0.011382898315787315,0.99913090467453,-0.03345125541090965,0.023618897423148155,-0.007767158094793558
186.0,0.0,0.0,0.0,0.0,0.0,0.0,0.014683141373097897,-0.0204049963504076,-0.020839691162109375,0.9990495443344116,-0.033363815397024155,0.025877241045236588,-0.010831935331225395
187.0,0.0,0.0,0.0,0.0,0.0,0.0,0.00840152706950903,-0.030859582126140594,0.0012397682294249535,0.998924195766449,-0.033059313893318176,0.028588155284523964,-0.015505032613873482
188.0,0.0,0.0,0.0,0.0,0.0,0.0,0.026168646290898323,-0.040696002542972565,0.028725605458021164,0.998799204826355,-0.032213740050792694,0.03084242157638073,-0.020284302532672882
189.0,0.0,0.0,0.0,0.0,0.0,0.0,0.012053689919412136,-0.056428343057632446,0.042951907962560654,0.9987273216247559,-0.030753182247281075,0.03124929405748844,-0.02492099069058895
190.0,0.0,0.0,0.0,0.0,0.0,0.0,-0.042299140244722366,-0.07577788829803467,0.10302278399467468,0.9986811876296997,-0.02802813984453678,0.029550909996032715,-0.03126235678792
191.0,0.0,0.0,0.0,0.0,0.0,0.0,-0.10136270523071289,-0.01460996177047491,0.0850813090801239,0.9986377358436584,-0.024651898071169853,0.027020812034606934,-0.037215132266283035
192.0,0.0,0.0,0.0,0.0,0.0,0.0,-0.11758789420127869,0.027386633679270744,0.06922511011362076,0.9984954595565796,-0.02012312039732933,0.02524961158633232,-0.044331327080726624
193.0,0.0,0.0,0.0,0.0,0.0,0.0,-0.054197266697883606,0.026372460648417473,0.028516525402665138,0.9982622861862183,-0.014972838573157787,0.022906744852662086,-0.05218617245554924
194.0,0.0,0.0,0.0,0.0,0.0,0.0,0.009647240862250328,-0.012042486108839512,-0.029642533510923386,0.9980219602584839,-0.011849138885736465,0.01734439842402935,-0.059247564524412155
195.0,0.0,0.0,0.0,0.0,0.0,0.0,-0.01909283921122551,0.0030967937782406807,-0.0025625955313444138,0.9977660179138184,-0.009060245007276535,0.011806645430624485,-0.06512343883514404
196.0,0.0,0.0,0.0,0.0,0.0,0.0,-0.05591839924454689,0.05984696000814438,-0.03606212139129639,0.9975395202636719,-0.006048673298209906,0.012170741334557533,-0.06877968460321426
197.0,0.0,0.0,0.0,0.0,0.0,0.0,-0.012399900704622269,0.013952271081507206,-0.03334761783480644,0.9970610737800598,-0.0005326419486664236,0.013471747748553753,-0.07541512697935104
198.0,0.0,0.0,0.0,0.0,0.0,0.0,0.01867513358592987,0.0049301874823868275,-0.01308886893093586,0.9966233968734741,0.001349495374597609,0.015058930031955242,-0.0807032659649849
199.0,0.0,0.0,0.0,0.0,0.0,0.0,0.01499172579497099,-0.00014847682905383408,-0.08822812885046005,0.996422529220581,0.0025560688227415085,0.017313312739133835,-0.08267126232385635
200.0,0.0,0.0,0.0,0.0,0.0,0.0,0.0024722961243242025,-0.03949084132909775,-0.0163519699126482,0.9960212111473083,0.0014715350698679686,0.017680447548627853,-0.0873287245631218
201.0,0.0,0.0,0.0,0.0,0.0,0.0,0.008101244457066059,-0.037943657487630844,0.030457697808742523,0.9959758520126343,-0.0037579357158392668,0.017377709969878197,-0.0878450945019722
202.0,0.0,0.0,0.0,0.0,0.0,0.0,0.005851262249052525,-0.015890592709183693,0.03624974563717842,0.9959710240364075,-0.009718254208564758,0.016385043039917946,-0.08763109147548676
203.0,0.0,0.0,0.0,0.0,0.0,0.0,0.0802241861820221,-0.0016251245979219675,-0.03026619739830494,0.9959872364997864,-0.016167761757969856,0.012059998698532581,-0.08718851208686829
204.0,0.0,0.0,0.0,0.0,0.0,0.0,0.13763035833835602,0.017398225143551826,-0.13580834865570068,0.9962404370307922,-0.02294277958571911,0.0021740926895290613,-0.08350727707147598
205.0,0.0,0.0,0.0,0.0,0.0,0.0,0.1076342910528183,-0.0796089842915535,-0.18785704672336578,0.9960126280784607,-0.031629569828510284,-0.012996194884181023,-0.08240285515785217
206.0,0.0,0.0,0.0,0.0,0.0,0.0,0.05369175598025322,-0.09495866298675537,0.011516244150698185,0.9951658844947815,-0.04267027974128723,-0.03186984360218048,-0.08251937478780746
207.0,0.0,0.0,0.0,0.0,0.0,0.0,-0.033571865409612656,0.05516999959945679,0.0682581290602684,0.9943442344665527,-0.0574495755136013,-0.041786763817071915,-0.07895026355981827
208.0,0.0,0.0,0.0,0.0,0.0,0.0,-0.17017503082752228,0.13410352170467377,0.045041605830192566,0.9934780597686768,-0.0713740736246109,-0.04481152072548866,-0.07681697607040405
209.0,0.0,0.0,0.0,0.0,0.0,0.0,-0.18620289862155914,0.11024763435125351,0.17172837257385254,0.9930168390274048,-0.07899215072393417,-0.044253960251808167,-0.07563100010156631
210.0,0.0,0.0,0.0,0.0,0.0,0.0,-0.12631948292255402,0.07590015232563019,0.10413534939289093,0.9930731058120728,-0.08699218183755875,-0.03770891949534416,-0.06939604133367538
211.0,0.0,0.0,0.0,0.0,0.0,0.0,-0.057318393141031265,0.051892418414354324,0.12761110067367554,0.9933223128318787,-0.08846570551395416,-0.033841490745544434,-0.0658729150891304
212.0,0.0,0.0,0.0,0.0,0.0,0.0,-0.034825317561626434,0.038569375872612,0.0860937312245369,0.9938533902168274,-0.0862465426325798,-0.02918677218258381,-0.06297590583562851
213.0,0.0,0.0,0.0,0.0,0.0,0.0,-0.0021707937121391296,0.009699261747300625,0.0674736499786377,0.9945857524871826,-0.08112659305334091,-0.02421587146818638,-0.06026053801178932
214.0,0.0,0.0,0.0,0.0,0.0,0.0,-0.01458408311009407,0.0031298843678086996,0.08116402477025986,0.995627760887146,-0.07245179265737534,-0.018696390092372894,-0.05591154471039772
215.0,0.0,0.0,0.0,0.0,0.0,0.0,-0.026919346302747726,-0.0020777417812496424,0.031293369829654694,0.9966694712638855,-0.062386009842157364,-0.01303120143711567,-0.05086909979581833
216.0,0.0,0.0,0.0,0.0,0.0,0.0,0.038245901465415955,-0.019615210592746735,0.05558440461754799,0.9975431561470032,-0.05162156745791435,-0.010356947779655457,-0.04621141776442528
217.0,0.0,0.0,0.0,0.0,0.0,0.0,0.12206166237592697,-0.05549544095993042,-0.004149925895035267,0.998172402381897,-0.041812215000391006,-0.007838105782866478,-0.042919281870126724
218.0,0.0,0.0,0.0,0.0,0.0,0.0,0.11433657258749008,-0.09355922043323517,0.022877372801303864,0.9986410140991211,-0.03314809501171112,-0.004347494803369045,-0.039988670498132706
219.0,0.0,0.0,0.0,0.0,0.0,0.0,0.05679677426815033,-0.042429666966199875,-0.03200197219848633,0.9989749789237976,-0.02627081423997879,0.0019884579814970493,-0.03681472688913345
220.0,0.0,0.0,0.0,0.0,0.0,0.0,0.11360862851142883,-0.019036537036299706,-0.08718879520893097,0.9989920258522034,-0.017506135627627373,0.009071829728782177,-0.04032547026872635
221.0,0.0,0.0,0.0,0.0,0.0,0.0,0.08546734601259232,-0.018318558111786842,-0.04964051768183708,0.9988180994987488,-0.009511766955256462,0.013239730149507523,-0.04579131677746773
222.0,0.0,0.0,0.0,0.0,0.0,0.0,0.08874011039733887,-0.02605072222650051,-0.0068009886890649796,0.9986612796783447,-0.0037421563174575567,0.013684345409274101,-0.049747128039598465
223.0,0.0,0.0,0.0,0.0,0.0,0.0,0.10281176120042801,-0.04626884311437607,-0.059897229075431824,0.9985578656196594,-0.0033338638022542,0.011933057568967342,-0.05223561078310013
224.0,0.0,0.0,0.0,0.0,0.0,0.0,0.053399279713630676,-0.04367329180240631,-0.04410414397716522,0.998454749584198,-0.00862041674554348,0.011144437827169895,-0.0537562221288681
225.0,0.0,0.0,0.0,0.0,0.0,0.0,0.014217202551662922,0.007965028285980225,-0.04196805879473686,0.9985368847846985,-0.018277399241924286,0.008807755075395107,-0.050128743052482605
226.0,0.0,0.0,0.0,0.0,0.0,0.0,-0.103916697204113,0.059971362352371216,0.0015605533262714744,0.9985786080360413,-0.02644234709441662,0.0047807577066123486,-0.04602816700935364
227.0,0.0,0.0,0.0,0.0,0.0,0.0,-0.11679635941982269,0.08886970579624176,0.03530006855726242,0.9985625147819519,-0.030201580375432968,0.0008347656112164259,-0.0442773811519146
228.0,0.0,0.0,0.0,0.0,0.0,0.0,-0.07511469721794128,0.04716061055660248,0.024923598393797874,0.9984961748123169,-0.030838241800665855,-0.0005038693780079484,-0.04532138258218765
229.0,0.0,0.0,0.0,0.0,0.0,0.0,-0.042532503604888916,0.003484809771180153,0.018692541867494583,0.9984180927276611,-0.028386475518345833,-0.0012621661880984902,-0.04852129518985748
230.0,0.0,0.0,0.0,0.0,0.0,0.0,-0.01309719868004322,-0.009478448890149593,-0.011707480065524578,0.9984222650527954,-0.026487695053219795,-0.002293393714353442,-0.0494614839553833
231.0,0.0,0.0,0.0,0.0,0.0,0.0,-0.010862702503800392,-0.021184474229812622,-0.009814940392971039,0.9984546303749084,-0.024434778839349747,-0.00246061896905303,-0.04985680803656578
232.0,0.0,0.0,0.0,0.0,0.0,0.0,0.01527946162968874,-0.009170624427497387,-0.041702739894390106,0.9985252022743225,-0.023604288697242737,-0.0020480286329984665,-0.04884498193860054
233.0,0.0,0.0,0.0,0.0,0.0,0.0,-0.0006819137488491833,-0.0038422320503741503,-0.06906841695308685,0.9986255764961243,-0.025502018630504608,-0.0013967700069770217,-0.04577044025063515
234.0,0.0,0.0,0.0,0.0,0.0,0.0,-0.015236207284033298,-0.01434831228107214,-0.019120723009109497,0.9987226128578186,-0.027578193694353104,0.00024218867474701256,-0.042339179664850235
235.0,0.0,0.0,0.0,0.0,0.0,0.0,-0.011321550235152245,0.006240778136998415,-0.008968908339738846,0.9988589286804199,-0.02873636595904827,0.002785376738756895,-0.038040999323129654
236.0,0.0,0.0,0.0,0.0,0.0,0.0,-0.0013835977297276258,-0.0045949541963636875,-0.06095440685749054,0.9989200830459595,-0.02994604781270027,0.0043776738457381725,-0.035247791558504105
237.0,0.0,0.0,0.0,0.0,0.0,0.0,0.027522701770067215,-0.038629818707704544,-0.039270512759685516,0.9989279508590698,-0.030779261142015457,0.004345595370978117,-0.034301888197660446
238.0,0.0,0.0,0.0,0.0,0.0,0.0,0.05808937922120094,-0.028193093836307526,-0.06011473014950752,0.9989157915115356,-0.03350343927741051,0.0035216184332966805,-0.03213333338499069
239.0,0.0,0.0,0.0,0.0,0.0,0.0,0.06589158624410629,-0.02064492367208004,-0.09656251966953278,0.9988349676132202,-0.0383344329893589,0.0019912102725356817,-0.029242781922221184
240.0,0.0,0.0,0.0,0.0,0.0,0.0,0.06775977462530136,-0.017425306141376495,-0.11343567818403244,0.9985846877098083,-0.046562597155570984,0.0035570478066802025,-0.025447344407439232
241.0,0.0,0.0,0.0,0.0,0.0,0.0,0.014673437923192978,0.008120101876556873,-0.04807436466217041,0.9981644749641418,-0.05646978318691254,0.007058474700897932,-0.020707685500383377
242.0,0.0,0.0,0.0,0.0,0.0,0.0,-0.06607513129711151,0.03720148280262947,0.07245200127363205,0.9976643323898315,-0.06665053218603134,0.007168127689510584,-0.013119183480739594
243.0,0.0,0.0,0.0,0.0,0.0,0.0,-0.06589271873235703,0.05315631628036499,0.025485079735517502,0.997064471244812,-0.07614908367395401,0.0059168990701437,-0.005316168535500765
244.0,0.0,0.0,0.0,0.0,0.0,0.0,-0.06852708011865616,0.02093563601374626,-0.008629216812551022,0.9965941309928894,-0.08234451711177826,0.004302500747144222,0.0007210065959952772
245.0,0.0,0.0,0.0,0.0,0.0,0.0,0.0031292459461838007,-0.0652896836400032,0.01948557421565056,0.9962389469146729,-0.08651276677846909,0.000867803581058979,0.004700067453086376
246.0,0.0,0.0,0.0,0.0,0.0,0.0,-0.021866271272301674,-0.03750944510102272,0.0762067511677742,0.9959558844566345,-0.08960001170635223,-0.002193447668105364,0.006203637924045324
247.0,0.0,0.0,0.0,0.0,0.0,0.0,-0.039724722504615784,-0.010420568287372589,0.05051311478018761,0.9958937764167786,-0.09030115604400635,-0.0036866478621959686,0.005231658462435007
248.0,0.0,0.0,0.0,0.0,0.0,0.0,-0.027391910552978516,-0.020357415080070496,0.03479762747883797,0.9961674213409424,-0.08730810880661011,-0.0053335027769207954,0.0004403505299706012
249.0,0.0,0.0,0.0,0.0,0.0,0.0,-0.05750349164009094,0.008501208387315273,0.056816279888153076,0.9964904189109802,-0.08335570991039276,-0.005336137488484383,-0.0054685501381754875
250.0,0.0,0.0,0.0,0.0,0.0,0.0,-0.06835426390171051,0.03724058344960213,0.06068793311715126,0.9968487024307251,-0.07831936329603195,-0.0038702620659023523,-0.012032939121127129
251.0,0.0,0.0,0.0,0.0,0.0,0.0,-0.08954858034849167,0.03553325682878494,0.07006203383207321,0.99725741147995,-0.07056963443756104,0.0014461918035522103,-0.02226451225578785
252.0,0.0,0.0,0.0,0.0,0.0,0.0,-0.06892520934343338,0.02833510749042034,0.08454304188489914,0.997464656829834,-0.06164142116904259,0.006162641104310751,-0.03501388058066368
253.0,0.0,0.0,0.0,0.0,0.0,0.0,-0.08273134380578995,0.036411434412002563,0.09425544738769531,0.9974730610847473,-0.0541389025747776,0.004475765861570835,-0.0457901805639267
254.0,0.0,0.0,0.0,0.0,0.0,0.0,0.00571743119508028,0.05797608196735382,-0.0003396699030417949,0.9975107908248901,-0.04681078717112541,-0.005325739271938801,-0.05246008560061455
255.0,0.0,0.0,0.0,0.0,0.0,0.0,0.025350360199809074,0.02615644969046116,-0.01007155142724514,0.9975672364234924,-0.038613542914390564,-0.01573641039431095,-0.05587277188897133
256.0,0.0,0.0,0.0,0.0,0.0,0.0,-0.0004067063273396343,0.02967136725783348,-0.01674472913146019,0.9976527094841003,-0.028859063982963562,-0.02427714876830578,-0.05714401975274086
257.0,0.0,0.0,0.0,0.0,0.0,0.0,-0.027327967807650566,0.018762992694973946,0.0020601823925971985,0.9975392818450928,-0.01850031316280365,-0.03196774423122406,-0.059577833861112595
258.0,0.0,0.0,0.0,0.0,0.0,0.0,-0.01977989822626114,0.017919262871146202,-0.032649699598550797,0.9973957538604736,-0.009393051266670227,-0.03669774904847145,-0.06136404350399971
259.0,0.0,0.0,0.0,0.0,0.0,0.0,-0.020231297239661217,0.010668064467608929,-0.000761261791922152,0.9970788955688477,0.00019706842431332916,-0.03995678573846817,-0.0650925412774086
260.0,0.0,0.0,0.0,0.0,0.0,0.0,-0.02988707274198532,0.008375082165002823,0.004671632312238216,0.9965094923973083,0.009298685938119888,-0.04446003958582878,-0.07005070149898529
261.0,0.0,0.0,0.0,0.0,0.0,0.0,-0.007215394172817469,-0.011033659800887108,-0.030832547694444656,0.995959460735321,0.016090966761112213,-0.04721503332257271,-0.07468316704034805
262.0,0.0,0.0,0.0,0.0,0.0,0.0,0.008062563836574554,-0.022383427247405052,-0.015510334633290768,0.9954425096511841,0.022687627002596855,-0.048284754157066345,-0.07905050367116928
263.0,0.0,0.0,0.0,0.0,0.0,0.0,-0.0006052194512449205,0.004021761938929558,-0.04103574901819229,0.995394766330719,0.025801219046115875,-0.046052780002355576,-0.08001206815242767
264.0,0.0,0.0,0.0,0.0,0.0,0.0,-0.015534945763647556,0.01191043108701706,-0.024748999625444412,0.9952895045280457,0.029534758999943733,-0.042594343423843384,-0.08193401247262955
265.0,0.0,0.0,0.0,0.0,0.0,0.0,-0.016084106639027596,0.02219253219664097,-0.01765391044318676,0.9951743483543396,0.03323955833911896,-0.03961806744337082,-0.08338914811611176
266.0,0.0,0.0,0.0,0.0,0.0,0.0,-0.005997454281896353,0.0029251736123114824,-0.02660035900771618,0.9950078129768372,0.03665211796760559,-0.038084618747234344,-0.0846523866057396
267.0,0.0,0.0,0.0,0.0,0.0,0.0,0.004564456641674042,-0.03933287411928177,0.00936664454638958,0.994559109210968,0.040382012724876404,-0.03866203874349594,-0.08790573477745056
268.0,0.0,0.0,0.0,0.0,0.0,0.0,0.009526730515062809,-0.007897892035543919,-0.04701879248023033,0.9943575859069824,0.04157865419983864,-0.03783923014998436,-0.08996202051639557
269.0,0.0,0.0,0.0,0.0,0.0,0.0,-0.0039037340320646763,0.006155421491712332,-0.05131800100207329,0.9940610527992249,0.04192766174674034,-0.03750354424118996,-0.09315068274736404
270.0,0.0,0.0,0.0,0.0,0.0,0.0,-0.031085198745131493,0.022433597594499588,-0.0040755076333880424,0.993707537651062,0.04216882959008217,-0.03848951682448387,-0.09635858237743378
271.0,0.0,0.0,0.0,0.0,0.0,0.0,-0.037309665232896805,0.016546228900551796,0.0024911556392908096,0.9933868646621704,0.042992036789655685,-0.038853853940963745,-0.09912116080522537
272.0,0.0,0.0,0.0,0.0,0.0,0.0,0.0021221290808171034,-0.004552916623651981,-0.025237297639250755,0.9932200908660889,0.043208830058574677,-0.03897637128829956,-0.10063701122999191
273.0,0.0,0.0,0.0,0.0,0.0,0.0,0.01055457629263401,0.0064649879932403564,-0.05777347832918167,0.9932798743247986,0.04184552654623985,-0.0382668599486351,-0.10088881850242615
274.0,0.0,0.0,0.0,0.0,0.0,0.0,-0.00469480874016881,0.027066947892308235,-0.07017680257558823,0.993628203868866,0.03812456503510475,-0.03597111627459526,-0.09977459907531738
275.0,0.0,0.0,0.0,0.0,0.0,0.0,-0.008411101996898651,0.018147042021155357,-0.033961374312639236,0.9940392971038818,0.032355643808841705,-0.03327071666717529,-0.0986500233411789
276.0,0.0,0.0,0.0,0.0,0.0,0.0,-0.018107455223798752,0.004903777502477169,0.026900792494416237,0.9943096041679382,0.026282640174031258,-0.031105078756809235,-0.09844387322664261
277.0,0.0,0.0,0.0,0.0,0.0,0.0,-0.02512373961508274,0.015418784692883492,0.03697263076901436,0.9945998191833496,0.020159097388386726,-0.0294216126203537,-0.09746768325567245
278.0,0.0,0.0,0.0,0.0,0.0,0.0,-0.0008138536941260099,0.020785514265298843,-0.013291232287883759,0.9948229789733887,0.014780189841985703,-0.028371449559926987,-0.09645168483257294
279.0,0.0,0.0,0.0,0.0,0.0,0.0,-0.002367328153923154,0.03159898519515991,-0.02744572050869465,0.9950141906738281,0.010464644990861416,-0.02752816490828991,-0.09528228640556335
280.0,0.0,0.0,0.0,0.0,0.0,0.0,-0.028847094625234604,0.02967146970331669,-0.0035358178429305553,0.9950793981552124,0.00620406586676836,-0.026710571721196175,-0.09521413594484329
281.0,0.0,0.0,0.0,0.0,0.0,0.0,-0.046389948576688766,0.023246994242072105,0.06829633563756943,0.99497389793396,0.0030628000386059284,-0.026198960840702057,-0.09659939259290695
282.0,0.0,0.0,0.0,0.0,0.0,0.0,-0.013192852959036827,0.008150575682520866,0.06228053197264671,0.9948264956474304,0.0016616322100162506,-0.025244370102882385,-0.09838675707578659
283.0,0.0,0.0,0.0,0.0,0.0,0.0,-0.0022506420500576496,0.0132976109161973,-0.017339833080768585,0.9946353435516357,0.0013705759774893522,-0.023819699883461,-0.10065758228302002
284.0,0.0,0.0,0.0,0.0,0.0,0.0,0.0026637245900928974,0.001292019267566502,0.014131960459053516,0.994368851184845,0.0011916975490748882,-0.0228005051612854,-0.10348561406135559
285.0,0.0,0.0,0.0,0.0,0.0,0.0,0.005878657568246126,0.007076505105942488,0.03742818161845207,0.994222104549408,0.0004803286283276975,-0.020771071314811707,-0.10531406104564667
286.0,0.0,0.0,0.0,0.0,0.0,0.0,0.014778313226997852,0.01912432350218296,-0.002161729149520397,0.9942310452461243,-0.0009852463845163584,-0.01941729336977005,-0.10548076033592224
287.0,0.0,0.0,0.0,0.0,0.0,0.0,-0.005867973901331425,0.007188520394265652,-0.01223802287131548,0.9942498803138733,-0.003654200816527009,-0.018480701372027397,-0.10541630536317825
288.0,0.0,0.0,0.0,0.0,0.0,0.0,0.01828646846115589,-0.01621284894645214,0.0026475898921489716,0.9942536354064941,-0.006702813785523176,-0.018499184399843216,-0.10522720962762833
289.0,0.0,0.0,0.0,0.0,0.0,0.0,0.006944292224943638,0.010756945237517357,-0.01969148777425289,0.994271993637085,-0.011396674439311028,-0.016848644241690636,-0.10493212193250656
290.0,0.0,0.0,0.0,0.0,0.0,0.0,0.0245123989880085,0.05188341066241264,-0.048244908452034,0.9944450259208679,-0.0170826967805624,-0.017387699335813522,-0.10239900648593903
291.0,0.0,0.0,0.0,0.0,0.0,0.0,0.049204546958208084,0.07221619039773941,-0.09645228832960129,0.9948059916496277,-0.023795640096068382,-0.017857223749160767,-0.09734875708818436
292.0,0.0,0.0,0.0,0.0,0.0,0.0,0.006325975991785526,0.06588399410247803,-0.07525736838579178,0.9950850009918213,-0.03188929706811905,-0.016267038881778717,-0.09232879430055618
293.0,0.0,0.0,0.0,0.0,0.0,0.0,-0.10962797701358795,0.10081193596124649,0.06735387444496155,0.9953538179397583,-0.04105208069086075,-0.010945996269583702,-0.08640662580728531
294.0,0.0,0.0,0.0,0.0,0.0,0.0,-0.1654321700334549,0.06272778660058975,0.1756923943758011,0.9956894516944885,-0.04593103751540184,-0.004379741847515106,-0.08045665919780731
295.0,0.0,0.0,0.0,0.0,0.0,0.0,0.004346448928117752,-0.0097136115655303,0.10110211372375488,0.9962413311004639,-0.04541528597474098,0.00550058763474226,-0.07355717569589615
296.0,0.0,0.0,0.0,0.0,0.0,0.0,0.028776181861758232,0.07329382747411728,-0.07727941870689392,0.9967460632324219,-0.042526304721832275,0.015650851652026176,-0.06666355580091476
297.0,0.0,0.0,0.0,0.0,0.0,0.0,0.018568353727459908,0.01469317078590393,-0.01826515980064869,0.9970507025718689,-0.038399048149585724,0.022266019135713577,-0.06260859966278076
298.0,0.0,0.0,0.0,0.0,0.0,0.0,0.09381978958845139,-0.019744940102100372,0.00456218933686614,0.9974566698074341,-0.034213416278362274,0.026398688554763794,-0.05667803809046745
299.0,0.0,0.0,0.0,0.0,0.0,0.0,0.08620129525661469,-0.0055540516041219234,-0.018270429223775864,0.997893214225769,-0.030212469398975372,0.026864521205425262,-0.05074212700128555
300.0,0.0,0.0,0.0,0.0,0.0,0.0,0.07665647566318512,-0.010130898095667362,0.0015456381952390075,0.9983034729957581,-0.02908477745950222,0.025107095018029213,-0.04374752566218376
301.0,0.0,0.0,0.0,0.0,0.0,0.0,0.05196646973490715,0.008169068954885006,0.011176551692187786,0.9986591935157776,-0.029244083911180496,0.022561488673090935,-0.03627496585249901
302.0,0.0,0.0,0.0,0.0,0.0,0.0,0.03339275345206261,0.02873843163251877,-0.0054769921116530895,0.9989594221115112,-0.02813606709241867,0.020068857818841934,-0.029764916747808456
303.0,0.0,0.0,0.0,0.0,0.0,0.0,0.030782921239733696,0.020831657573580742,0.008383085019886494,0.9992208480834961,-0.02620387263596058,0.017562782391905785,-0.023710859939455986
304.0,0.0,0.0,0.0,0.0,0.0,0.0,0.027888083830475807,0.015652209520339966,0.03164283186197281,0.999418318271637,-0.023963872343301773,0.014749469235539436,-0.019272737205028534
305.0,0.0,0.0,0.0,0.0,0.0,0.0,0.038505490869283676,0.0025535172317177057,-0.005617074202746153,0.9995909333229065,-0.021191192790865898,0.011989199556410313,-0.015007652342319489
306.0,0.0,0.0,0.0,0.0,0.0,0.0,0.04628264904022217,-0.021138658747076988,-0.029552798718214035,0.9997305274009705,-0.018052726984024048,0.008428161963820457,-0.011896985583007336
307.0,0.0,0.0,0.0,0.0,0.0,0.0,0.041893694549798965,-0.0342281274497509,-0.010799978859722614,0.9998194575309753,-0.015480215661227703,0.005278400145471096,-0.009676370769739151
308.0,0.0,0.0,0.0,0.0,0.0,0.0,0.036707498133182526,-0.018559981137514114,-0.01146236713975668,0.9998803734779358,-0.013310296460986137,0.00324627966620028,-0.0071770306676626205
309.0,0.0,0.0,0.0,0.0,0.0,0.0,0.0314338319003582,-0.02989906631410122,-0.022893322631716728,0.9999207854270935,-0.011242314241826534,0.002867988543584943,-0.00488293869420886
310.0,0.0,0.0,0.0,0.0,0.0,0.0,0.034957218915224075,-0.047473806887865067,-0.049586404114961624,0.9999359846115112,-0.00969421025365591,0.004346433561295271,-0.0038968082517385483
311.0,0.0,0.0,0.0,0.0,0.0,0.0,0.02222500555217266,-0.030732685700058937,0.012808962725102901,0.9999420642852783,-0.006068730261176825,0.006651425268501043,-0.005905975122004747
312.0,0.0,0.0,0.0,0.0,0.0,0.0,-0.00046959600877016783,0.0027464102022349834,0.013799094595015049,0.9999061822891235,-1.1922578778467141e-05,0.009941022843122482,-0.009437703527510166
313.0,0.0,0.0,0.0,0.0,0.0,0.0,-0.003800783073529601,0.018558319658041,-0.06097111105918884,0.9997993111610413,0.005558019038289785,0.012766452506184578,-0.01440588477998972
314.0,0.0,0.0,0.0,0.0,0.0,0.0,0.0033913403749465942,0.017433062195777893,-0.02238624170422554,0.9996219277381897,0.011208328418433666,0.015012159012258053,-0.020126039162278175
315.0,0.0,0.0,0.0,0.0,0.0,0.0,0.04983556270599365,9.912425412039738e-06,-0.017464986070990562,0.9994292259216309,0.0149510707706213,0.01781017705798149,-0.024510202929377556
316.0,0.0,0.0,0.0,0.0,0.0,0.0,0.043972525745630264,-0.007792090531438589,-0.03225017338991165,0.9993748664855957,0.015191333368420601,0.017646536231040955,-0.02660331130027771
317.0,0.0,0.0,0.0,0.0,0.0,0.0,-0.0015813946956768632,0.03099159710109234,-0.023570789024233818,0.9994218945503235,0.013578389771282673,0.015766210854053497,-0.02688957192003727
318.0,0.0,0.0,0.0,0.0,0.0,0.0,-0.03230171650648117,0.03740029036998749,-0.0008351312135346234,0.9994854927062988,0.011464077048003674,0.01257687620818615,-0.027187995612621307
319.0,0.0,0.0,0.0,0.0,0.0,0.0,-0.06815334409475327,0.02795291878283024,0.06483154743909836,0.9996002912521362,0.009017647244036198,0.008564642630517483,-0.025388751178979874
320.0,0.0,0.0,0.0,0.0,0.0,0.0,-0.0859227254986763,0.027347223833203316,0.035010311752557755,0.9997377395629883,0.006099448539316654,0.006677293684333563,-0.021041523665189743
321.0,0.0,0.0,0.0,0.0,0.0,0.0,-0.10219572484493256,0.013349667191505432,0.02938196435570717,0.9997798204421997,0.005946118850260973,0.007006524596363306,-0.018862858414649963
322.0,0.0,0.0,0.0,0.0,0.0,0.0,-0.056725453585386276,0.016140926629304886,0.0556868277490139,0.9998205900192261,0.008030615746974945,0.007942315191030502,-0.015202784910798073
323.0,0.0,0.0,0.0,0.0,0.0,0.0,-0.028737986460328102,0.03934277594089508,-0.007294893264770508,0.9998390078544617,0.010512033477425575,0.010811583139002323,-0.009729256853461266
324.0,0.0,0.0,0.0,0.0,0.0,0.0,0.027903037145733833,-0.028111333027482033,-0.039556290954351425,0.9998447299003601,0.01331106573343277,0.009432162158191204,-0.006663940846920013
325.0,0.0,0.0,0.0,0.0,0.0,0.0,0.052064646035432816,-0.03122682496905327,-0.027879294008016586,0.9998805522918701,0.013856122270226479,0.0066580092534422874,-0.0016087323892861605
326.0,0.0,0.0,0.0,0.0,0.0,0.0,0.04496349021792412,-0.0013066247338429093,-0.05661771073937416,0.9998888969421387,0.014035005122423172,0.0038312410470098257,0.003258624579757452
327.0,0.0,0.0,0.0,0.0,0.0,0.0,0.05490327253937721,0.00832638330757618,-0.10629165172576904,0.9999053478240967,0.011871443130075932,0.0003075981221627444,0.006954729091376066
328.0,0.0,0.0,0.0,0.0,0.0,0.0,0.043844468891620636,-0.001874139765277505,-0.0903220996260643,0.9999356865882874,0.006928050424903631,-0.0036218157038092613,0.008216509595513344
329.0,0.0,0.0,0.0,0.0,0.0,0.0,0.0386711023747921,-0.012677885591983795,-0.03129761293530464,0.9999008774757385,-0.0012033946113660932,-0.007845832966268063,0.011630610562860966
330.0,0.0,0.0,0.0,0.0,0.0,0.0,0.013225389644503593,0.009539035148918629,-0.06463754922151566,0.9997782111167908,-0.010577074252068996,-0.009977727197110653,0.015235278755426407
331.0,0.0,0.0,0.0,0.0,0.0,0.0,-0.05855175107717514,0.02400885708630085,0.01696384884417057,0.9996123909950256,-0.01930161379277706,-0.010290130041539669,0.017236365005373955
332.0,0.0,0.0,0.0,0.0,0.0,0.0,-0.04354315996170044,0.016630589962005615,0.04179384559392929,0.9995002150535583,-0.02558504045009613,-0.008224863559007645,0.016636235639452934
333.0,0.0,0.0,0.0,0.0,0.0,0.0,-0.03156376630067825,-0.015414847992360592,0.010066352784633636,0.9995073676109314,-0.028064332902431488,-0.005192440934479237,0.013067672029137611
334.0,0.0,0.0,0.0,0.0,0.0,0.0,-0.05964643880724907,-0.03178726136684418,0.07485797256231308,0.9996142387390137,-0.026763657107949257,-0.0014003062387928367,0.007271246053278446
335.0,0.0,0.0,0.0,0.0,0.0,0.0,-0.13515174388885498,0.002349663758650422,0.128264382481575,0.9996686577796936,-0.024694271385669708,0.007174054626375437,0.0010395344579592347
336.0,0.0,0.0,0.0,0.0,0.0,0.0,-0.06824413686990738,-0.005548317916691303,0.12587392330169678,0.9996428489685059,-0.01759713515639305,0.018850453197956085,-0.007018260192126036
337.0,0.0,0.0,0.0,0.0,0.0,0.0,-0.011876914650201797,-0.0249551422894001,0.08515745401382446,0.9994525909423828,-0.009773415513336658,0.028064891695976257,-0.014549696817994118
338.0,0.0,0.0,0.0,0.0,0.0,0.0,-0.0023566402960568666,-0.0026214681565761566,0.04011220484972,0.999313473701477,-0.0019181481329724193,0.03100871481001377,-0.02018001303076744
339.0,0.0,0.0,0.0,0.0,0.0,0.0,0.04989498108625412,0.010560565628111362,-0.03154897689819336,0.9992181062698364,0.005060657858848572,0.031671371310949326,-0.023120194673538208
340.0,0.0,0.0,0.0,0.0,0.0,0.0,0.06974198669195175,-0.04653772711753845,-0.012869899161159992,0.9990051984786987,0.012002226896584034,0.033890776336193085,-0.026382412761449814
341.0,0.0,0.0,0.0,0.0,0.0,0.0,0.024357659742236137,-0.038335710763931274,-0.006016372237354517,0.9987788796424866,0.018272152170538902,0.03507057949900627,-0.029611652716994286
342.0,0.0,0.0,0.0,0.0,0.0,0.0,0.04406832158565521,0.005936142522841692,-0.05123761296272278,0.9987412095069885,0.023330187425017357,0.030775366351008415,-0.0320102721452713
343.0,0.0,0.0,0.0,0.0,0.0,0.0,0.04330325126647949,-0.060684289783239365,-0.04650837182998657,0.9985867738723755,0.02623985894024372,0.027608605101704597,-0.0370672270655632
344.0,0.0,0.0,0.0,0.0,0.0,0.0,0.014086483977735043,-0.05159924924373627,-0.0034088275860995054,0.9983807802200317,0.02666979469358921,0.02863166108727455,-0.041292399168014526
345.0,0.0,0.0,0.0,0.0,0.0,0.0,-0.021707067266106606,-0.006462076213210821,-0.0015724856639280915,0.9982277154922485,0.026233579963445663,0.029851078987121582,-0.04429635778069496
346.0,0.0,0.0,0.0,0.0,0.0,0.0,-0.02329091913998127,0.01061943732202053,0.0026464946568012238,0.9978646636009216,0.029648851603269577,0.02776133082807064,-0.05115102604031563
347.0,0.0,0.0,0.0,0.0,0.0,0.0,0.01991146244108677,-0.027572810649871826,-0.013819940388202667,0.9975663423538208,0.0314180925488472,0.025537466630339622,-0.05676599591970444
348.0,0.0,0.0,0.0,0.0,0.0,0.0,0.027592860162258148,-0.03642478212714195,-0.033046141266822815,0.9973284006118774,0.031456634402275085,0.023295534774661064,-0.0616762638092041
349.0,0.0,0.0,0.0,0.0,0.0,0.0,0.06310072541236877,-0.06747476756572723,0.005601729732006788,0.9970625638961792,0.031225182116031647,0.01765286922454834,-0.06767307966947556
350.0,0.0,0.0,0.0,0.0,0.0,0.0,0.12784314155578613,-0.03868541866540909,-0.09754772484302521,0.9970895051956177,0.028626376762986183,0.0060017709620296955,-0.070403091609478
351.0,0.0,0.0,0.0,0.0,0.0,0.0,0.10596700757741928,-0.06412430107593536,-0.17768874764442444,0.9968028664588928,0.022082902491092682,-0.009853659197688103,-0.07615677267313004
352.0,0.0,0.0,0.0,0.0,0.0,0.0,0.014951804652810097,-0.08675408363342285,-0.028387198224663734,0.9961428642272949,0.01335502415895462,-0.026408681645989418,-0.08260387927293777
353.0,0.0,0.0,0.0,0.0,0.0,0.0,-0.07641253620386124,0.07120306044816971,0.033859118819236755,0.9961805939674377,0.0006485861958935857,-0.033100977540016174,-0.08078955113887787
354.0,0.0,0.0,0.0,0.0,0.0,0.0,-0.17540918290615082,0.21901562809944153,-0.1327829360961914,0.9968834519386292,-0.01647624559700489,-0.025880008935928345,-0.07267159223556519
355.0,0.0,0.0,0.0,0.0,0.0,0.0,-0.21772047877311707,0.13005313277244568,0.07933051139116287,0.9973004460334778,-0.03310943767428398,-0.019244538620114326,-0.06264303624629974
356.0,0.0,0.0,0.0,0.0,0.0,0.0,-0.1456703394651413,0.05880516394972801,0.3015381991863251,0.9976552724838257,-0.04298776388168335,-0.014585793949663639,-0.05122096464037895
357.0,0.0,0.0,0.0,0.0,0.0,0.0,-0.09713109582662582,0.12199888378381729,0.09206072986125946,0.9981385469436646,-0.04644719511270523,-0.004018213599920273,-0.03932546079158783
358.0,0.0,0.0,0.0,0.0,0.0,0.0,-0.0842280164361,0.05628747120499611,0.024616245180368423,0.998528242111206,-0.04273506626486778,0.006798831280320883,-0.032706741243600845
359.0,0.0,0.0,0.0,0.0,0.0,0.0,-0.007954412139952183,0.03193990886211395,0.052625272423028946,0.9988018274307251,-0.033496953547000885,0.016571607440710068,-0.03160277009010315
360.0,0.0,0.0,0.0,0.0,0.0,0.0,0.05609922483563423,0.05784206464886665,0.0741332620382309,0.9990492463111877,-0.022782927379012108,0.019452745094895363,-0.031672872602939606
361.0,0.0,0.0,0.0,0.0,0.0,0.0,0.07297734916210175,0.014570237137377262,0.01788940653204918,0.9992830753326416,-0.014046966098248959,0.01475739199668169,-0.0319221131503582
362.0,0.0,0.0,0.0,0.0,0.0,0.0,0.11455468833446503,-0.06257594376802444,0.006221923045814037,0.9994478821754456,-0.008703366853296757,0.009689210914075375,-0.030559848994016647
363.0,0.0,0.0,0.0,0.0,0.0,0.0,0.0846438780426979,-0.048125822097063065,0.005755669437348843,0.9995110034942627,-0.007027741987258196,0.01138746552169323,-0.0282505564391613
364.0,0.0,0.0,0.0,0.0,0.0,0.0,0.061347369104623795,0.004960355348885059,-0.04049577936530113,0.9995436668395996,-0.00652676448225975,0.014024626463651657,-0.02595342881977558
365.0,0.0,0.0,0.0,0.0,0.0,0.0,0.045493707060813904,-0.0009404236334376037,-0.04574676230549812,0.999592661857605,-0.006077771540731192,0.014342311769723892,-0.023922381922602654
366.0,0.0,0.0,0.0,0.0,0.0,0.0,0.05116266757249832,-0.01524041686207056,-0.03503703325986862,0.9996393918991089,-0.006236826069653034,0.012217259034514427,-0.023083651438355446
367.0,0.0,0.0,0.0,0.0,0.0,0.0,0.009097915142774582,-3.0558814614778385e-05,-0.0010535534238442779,0.9996733069419861,-0.007153643760830164,0.010162060149013996,-0.022340266034007072
368.0,0.0,0.0,0.0,0.0,0.0,0.0,-0.025195101276040077,0.027618082240223885,0.003616005415096879,0.9997056722640991,-0.0081258499994874,0.006787777878344059,-0.021835457533597946
369.0,0.0,0.0,0.0,0.0,0.0,0.0,-0.060151606798172,-0.0013529252028092742,0.05096912384033203,0.9996954202651978,-0.0063719796016812325,0.0033230369444936514,-0.023609481751918793
370.0,0.0,0.0,0.0,0.0,0.0,0.0,-0.068411685526371,0.004338015336543322,0.014148061163723469,0.9996570348739624,-0.00444863922894001,0.0005085323355160654,-0.02580340951681137
371.0,0.0,0.0,0.0,0.0,0.0,0.0,-0.06671983003616333,0.005994867067784071,-0.004266608506441116,0.9996103048324585,-0.002314809476956725,-0.0018919717986136675,-0.027752874419093132
372.0,0.0,0.0,0.0,0.0,0.0,0.0,-0.07708273828029633,0.015075351111590862,-0.014233334921300411,0.9995173811912537,0.0010355953127145767,-0.004263869486749172,-0.030757233500480652
373.0,0.0,0.0,0.0,0.0,0.0,0.0,-0.06767985224723816,-0.0003695049090310931,-0.01963193528354168,0.9993541836738586,0.004592043347656727,-0.00803771335631609,-0.03472146764397621
374.0,0.0,0.0,0.0,0.0,0.0,0.0,-0.08329464495182037,-0.007639321964234114,0.03136970475316048,0.9990890026092529,0.009848318994045258,-0.012703302316367626,-0.03953463211655617
375.0,0.0,0.0,0.0,0.0,0.0,0.0,-0.06840278953313828,-0.04383157193660736,-0.021402766928076744,0.9985927939414978,0.018005961552262306,-0.01823110692203045,-0.0464305654168129
376.0,0.0,0.0,0.0,0.0,0.0,0.0,-0.039511747658252716,-0.053881071507930756,-0.0971071720123291,0.9978458881378174,0.024993259459733963,-0.024391166865825653,-0.055525727570056915
377.0,0.0,0.0,0.0,0.0,0.0,0.0,-0.027613341808319092,-0.08475407212972641,-0.03070823848247528,0.9968045353889465,0.03222539648413658,-0.03151202201843262,-0.06594937294721603
378.0,0.0,0.0,0.0,0.0,0.0,0.0,-0.06318958848714828,-0.058904606848955154,0.010726148262619972,0.995444118976593,0.0398944690823555,-0.0383337177336216,-0.07764225453138351
379.0,0.0,0.0,0.0,0.0,0.0,0.0,-0.011151107028126717,-0.03443928435444832,-0.07916044443845749,0.9938833117485046,0.04698849841952324,-0.04619300737977028,-0.08862708508968353
380.0,0.0,0.0,0.0,0.0,0.0,0.0,0.007568832486867905,-0.03942735120654106,-0.0785454660654068,0.9923864603042603,0.05266794562339783,-0.05461449176073074,-0.09700922667980194
381.0,0.0,0.0,0.0,0.0,0.0,0.0,-0.02418983355164528,-0.06463278830051422,-0.031608160585165024,0.9905763864517212,0.05766906216740608,-0.0635678768157959,-0.10673242807388306
382.0,0.0,0.0,0.0,0.0,0.0,0.0,-0.02043294347822666,-0.033474408090114594,-0.058493293821811676,0.9888221025466919,0.061049774289131165,-0.0729302316904068,-0.11482608318328857
383.0,0.0,0.0,0.0,0.0,0.0,0.0,0.018270675092935562,0.007721309550106525,-0.07109322398900986,0.9870465993881226,0.0636385828256607,-0.08443345129489899,-0.12067271023988724
384.0,0.0,0.0,0.0,0.0,0.0,0.0,0.008531325496733189,-0.008482187055051327,-0.05798803269863129,0.9847550988197327,0.06617394089698792,-0.09712689369916916,-0.12823855876922607
385.0,0.0,0.0,0.0,0.0,0.0,0.0,-0.029129380360245705,0.029614310711622238,-0.06579095870256424,0.9826340675354004,0.0664028748869896,-0.10723874717950821,-0.13608403503894806
386.0,0.0,0.0,0.0,0.0,0.0,0.0,-0.06567765027284622,0.05357998609542847,-0.043264470994472504,0.9807185530662537,0.06477054953575134,-0.11533567309379578,-0.14382565021514893
387.0,0.0,0.0,0.0,0.0,0.0,0.0,-0.10564816743135452,0.08419831097126007,-0.016705188900232315,0.9794299006462097,0.06119599565863609,-0.12056571245193481,-0.1497756540775299
388.0,0.0,0.0,0.0,0.0,0.0,0.0,-0.11780541390180588,0.10031425207853317,0.006157104391604662,0.9787750840187073,0.05793613940477371,-0.12282188981771469,-0.15349335968494415
389.0,0.0,0.0,0.0,0.0,0.0,0.0,-0.10300900042057037,0.09714506566524506,-0.0073677352629601955,0.9785352945327759,0.056296102702617645,-0.1230064406991005,-0.15546582639217377
390.0,0.0,0.0,0.0,0.0,0.0,0.0,-0.061300378292798996,0.11011470854282379,-0.055616751313209534,0.9789271950721741,0.0529913455247879,-0.12152407318353653,-0.15531609952449799
391.0,0.0,0.0,0.0,0.0,0.0,0.0,-0.02542322874069214,0.10837428271770477,-0.09074453264474869,0.9798718094825745,0.047042179852724075,-0.11783417314291,-0.15411347150802612
392.0,0.0,0.0,0.0,0.0,0.0,0.0,-0.03389997407793999,0.07486303895711899,-0.04844088852405548,0.9811487197875977,0.038881801068782806,-0.11296053975820541,-0.1519220471382141
393.0,0.0,0.0,0.0,0.0,0.0,0.0,-0.05716774985194206,0.050493549555540085,0.11284417659044266,0.9822691082954407,0.03368251770734787,-0.1074400395154953,-0.14989516139030457
394.0,0.0,0.0,0.0,0.0,0.0,0.0,-0.05217895656824112,0.07410425692796707,0.11012379825115204,0.9837853908538818,0.03171611577272415,-0.09745064377784729,-0.1471971869468689
395.0,0.0,0.0,0.0,0.0,0.0,0.0,-0.026082128286361694,0.11107445508241653,-0.0053346469067037106,0.9851329922676086,0.03242668882012367,-0.08697546273469925,-0.14454199373722076
396.0,0.0,0.0,0.0,0.0,0.0,0.0,-0.00021204866061452776,0.10798431187868118,0.0007208517054095864,0.9864705801010132,0.033517975360155106,-0.07550555467605591,-0.1415945291519165
397.0,0.0,0.0,0.0,0.0,0.0,0.0,0.008364101871848106,0.09814729541540146,0.03200181946158409,0.9873970746994019,0.03648751601576805,-0.06577587872743607,-0.13924142718315125
398.0,0.0,0.0,0.0,0.0,0.0,0.0,0.02750743366777897,0.0939316675066948,0.0259306188672781,0.9882985353469849,0.03869582340121269,-0.057186249643564224,-0.13600784540176392
399.0,0.0,0.0,0.0,0.0,0.0,0.0,0.060490090399980545,0.06195784732699394,0.006016163621097803,0.9894059300422668,0.03757276386022568,-0.051557205617427826,-0.13041424751281738
400.0,0.0,0.0,0.0,0.0,0.0,0.0,0.0957130491733551,0.016948046162724495,-0.024565281346440315,0.9906924962997437,0.03394187614321709,-0.04529236629605293,-0.12378637492656708
401.0,0.0,0.0,0.0,0.0,0.0,0.0,0.09379808604717255,0.04287220165133476,-0.026835069060325623,0.9923213720321655,0.027812164276838303,-0.036250486969947815,-0.11493322998285294
402.0,0.0,0.0,0.0,0.0,0.0,0.0,0.06506209075450897,0.11520044505596161,-0.06274257600307465,0.9942822456359863,0.019782593473792076,-0.021758684888482094,-0.10265694558620453
403.0,0.0,0.0,0.0,0.0,0.0,0.0,0.07492557168006897,0.1075398251414299,-0.10191379487514496,0.9958493709564209,0.01127638854086399,-0.002178389113396406,-0.09028714895248413
404.0,0.0,0.0,0.0,0.0,0.0,0.0,0.12174326181411743,0.05532185360789299,-0.06087372079491615,0.9965769648551941,0.0026930735912173986,0.016262462362647057,-0.08100790530443192
405.0,0.0,0.0,0.0,0.0,0.0,0.0,0.10400360077619553,0.0462409108877182,-0.05831948295235634,0.9968536496162415,-0.007289184723049402,0.03327101469039917,-0.07158441841602325
406.0,0.0,0.0,0.0,0.0,0.0,0.0,0.05484926328063011,-0.04704468324780464,0.11286191642284393,0.9965396523475647,-0.01358166616410017,0.04264026880264282,-0.07004997879266739
407.0,0.0,0.0,0.0,0.0,0.0,0.0,0.08607875555753708,-0.01220902893692255,0.056210312992334366,0.9963427782058716,-0.02028663083910942,0.05027691274881363,-0.0660506933927536
408.0,0.0,0.0,0.0,0.0,0.0,0.0,0.0725688636302948,-0.007066524121910334,-0.036386050283908844,0.9961640238761902,-0.025784533470869064,0.054897233843803406,-0.0630849227309227
409.0,0.0,0.0,0.0,0.0,0.0,0.0,0.051984045654535294,0.013696921057999134,-0.05595485866069794,0.9958834052085876,-0.032812513411045074,0.05797787010669708,-0.061473947018384933
410.0,0.0,0.0,0.0,0.0,0.0,0.0,0.024547617882490158,0.020875776186585426,0.03776869550347328,0.9956374764442444,-0.03853822872042656,0.060660384595394135,-0.059506069868803024
411.0,0.0,0.0,0.0,0.0,0.0,0.0,0.018170788884162903,0.038243573158979416,0.06493937969207764,0.9954355359077454,-0.041976410895586014,0.06377634406089783,-0.057257864624261856
412.0,0.0,0.0,0.0,0.0,0.0,0.0,0.020254090428352356,0.0302048958837986,0.0205791387706995,0.9951630234718323,-0.04620106518268585,0.06662715971469879,-0.05546960234642029
413.0,0.0,0.0,0.0,0.0,0.0,0.0,0.03823113441467285,-0.017994185909628868,0.05816313251852989,0.9950457811355591,-0.04885299503803253,0.06717980653047562,-0.0546378418803215
414.0,0.0,0.0,0.0,0.0,0.0,0.0,0.04324329271912575,-0.02422928251326084,0.05591583251953125,0.9949828386306763,-0.05043354630470276,0.06736637651920319,-0.05410273000597954
415.0,0.0,0.0,0.0,0.0,0.0,0.0,0.035157460719347,-0.019539769738912582,0.041526976972818375,0.994902491569519,-0.05237960070371628,0.06669612973928452,-0.054552916437387466
416.0,0.0,0.0,0.0,0.0,0.0,0.0,0.039698969572782516,0.02893131412565708,0.017716269940137863,0.9949976801872253,-0.053472135215997696,0.06492025405168533,-0.053901590406894684
417.0,0.0,0.0,0.0,0.0,0.0,0.0,0.017955172806978226,0.011790829710662365,0.03146717697381973,0.9951040744781494,-0.055075742304325104,0.062306102365255356,-0.05339903384447098
418.0,0.0,0.0,0.0,0.0,0.0,0.0,0.020472444593906403,0.02103601209819317,0.022173603996634483,0.9952859878540039,-0.057826388627290726,0.057317208498716354,-0.05268605798482895
419.0,0.0,0.0,0.0,0.0,0.0,0.0,0.0006521976902149618,0.032393068075180054,0.0012928827200084925,0.9955471754074097,-0.0609259158372879,0.05110957846045494,-0.05060398578643799
420.0,0.0,0.0,0.0,0.0,0.0,0.0,-0.02929409220814705,0.04674972966313362,0.025701604783535004,0.9957918524742126,-0.06425914913415909,0.044019803404808044,-0.04827278479933739
421.0,0.0,0.0,0.0,0.0,0.0,0.0,-0.024052830412983894,0.022004546597599983,0.025983551517128944,0.9960119128227234,-0.0670745000243187,0.036299098283052444,-0.046289559453725815
422.0,0.0,0.0,0.0,0.0,0.0,0.0,0.00035726011265069246,0.017149068415164948,0.01653350330889225,0.9961941242218018,-0.06856561452150345,0.029657576233148575,-0.04490917548537254
423.0,0.0,0.0,0.0,0.0,0.0,0.0,-0.0002675410942174494,0.035402920097112656,-0.011790808290243149,0.9963521957397461,-0.06879107654094696,0.024255871772766113,-0.04429047182202339
424.0,0.0,0.0,0.0,0.0,0.0,0.0,-0.003153859404847026,0.015829995274543762,0.0368182398378849,0.9964993000030518,-0.06804544478654861,0.01895301602780819,-0.04471905529499054
425.0,0.0,0.0,0.0,0.0,0.0,0.0,0.01261323131620884,0.027000565081834793,0.013862975873053074,0.9965668320655823,-0.0672905445098877,0.01720166951417923,-0.045060042291879654
426.0,0.0,0.0,0.0,0.0,0.0,0.0,0.028091605752706528,0.016874799504876137,0.016780728474259377,0.9966423511505127,-0.06626404076814651,0.013523485511541367,-0.046151380985975266
427.0,0.0,0.0,0.0,0.0,0.0,0.0,0.024432554841041565,0.0037495456635951996,0.035384651273489,0.996694028377533,-0.06515481323003769,0.01067214272916317,-0.0473509319126606
428.0,0.0,0.0,0.0,0.0,0.0,0.0,0.020293032750487328,0.012115358375012875,-0.00031263043638318777,0.9967049956321716,-0.0645115002989769,0.00736716715618968,-0.04861923307180405
429.0,0.0,0.0,0.0,0.0,0.0,0.0,0.011519604362547398,0.039992302656173706,-0.006182914134114981,0.9966963529586792,-0.06328544020652771,0.00465853326022625,-0.05069446563720703
430.0,0.0,0.0,0.0,0.0,0.0,0.0,-0.005285304039716721,0.018389781937003136,-0.009516675025224686,0.9966228604316711,-0.06206895038485527,0.003262776881456375,-0.053658634424209595
431.0,0.0,0.0,0.0,0.0,0.0,0.0,0.008750204928219318,0.007513907738029957,0.0025323121808469296,0.9965798854827881,-0.05977608636021614,0.0018513549584895372,-0.05703276768326759
432.0,0.0,0.0,0.0,0.0,0.0,0.0,0.017595721408724785,0.014064240269362926,0.001981544541195035,0.9965167045593262,-0.0573042556643486,0.0004250889760442078,-0.06058891862630844
433.0,0.0,0.0,0.0,0.0,0.0,0.0,0.02498687244951725,0.007213481701910496,-0.00533313350751996,0.9964441657066345,-0.055413682013750076,-0.0013202652335166931,-0.0634584128856659
434.0,0.0,0.0,0.0,0.0,0.0,0.0,0.018529314547777176,0.014179594814777374,-0.015514031983911991,0.9963813424110413,-0.053462110459804535,-0.002593789715319872,-0.06603489816188812
435.0,0.0,0.0,0.0,0.0,0.0,0.0,0.021440956741571426,0.01722261682152748,-0.026804782450199127,0.9962911009788513,-0.05183778703212738,-0.003840645542368293,-0.06856710463762283
436.0,0.0,0.0,0.0,0.0,0.0,0.0,0.006036669481545687,0.022376123815774918,-0.033435311168432236,0.9962723255157471,-0.04995870590209961,-0.0041574169881641865,-0.0701989158987999
437.0,0.0,0.0,0.0,0.0,0.0,0.0,0.0039029933977872133,0.024033186957240105,-0.016388721764087677,0.9963040947914124,-0.04687297344207764,-0.003695381572470069,-0.07189084589481354
438.0,0.0,0.0,0.0,0.0,0.0,0.0,0.008850007317960262,0.034190986305475235,-0.028306089341640472,0.9963411092758179,-0.04509580880403519,-0.002770759630948305,-0.07254615426063538
439.0,0.0,0.0,0.0,0.0,0.0,0.0,0.009919552132487297,0.03155066445469856,-0.02254045382142067,0.9964155554771423,-0.04401298239827156,-0.001655288739129901,-0.07222681492567062
440.0,0.0,0.0,0.0,0.0,0.0,0.0,0.015570764429867268,0.03347237408161163,-0.010430016554892063,0.9965588450431824,-0.04346033185720444,-0.0009162352071143687,-0.07056877017021179
441.0,0.0,0.0,0.0,0.0,0.0,0.0,0.006317882798612118,0.014436529017984867,-0.007945248857140541,0.9966726303100586,-0.04340758174657822,-0.0021420088596642017,-0.06895424425601959
442.0,0.0,0.0,0.0,0.0,0.0,0.0,0.0030123230535537004,0.017767710611224174,0.0033083916641771793,0.9967597723007202,-0.04335857555270195,-0.003563683247193694,-0.0676509290933609
443.0,0.0,0.0,0.0,0.0,0.0,0.0,-0.006026029586791992,0.04732837155461311,-0.02683335728943348,0.996873676776886,-0.04286710545420647,-0.0039800843223929405,-0.06625839322805405
444.0,0.0,0.0,0.0,0.0,0.0,0.0,-0.010583697818219662,0.05018787086009979,-0.017015868797898293,0.9969738125801086,-0.04208039864897728,-0.005059964954853058,-0.06517426669597626
445.0,0.0,0.0,0.0,0.0,0.0,0.0,-0.009827881120145321,0.03344050049781799,-0.007796641904860735,0.9970175623893738,-0.04102861508727074,-0.006499249953776598,-0.06504394859075546
446.0,0.0,0.0,0.0,0.0,0.0,0.0,-0.0042466879822313786,0.021512610837817192,-0.012041449546813965,0.9971051812171936,-0.039643168449401855,-0.007992524653673172,-0.06439045816659927
447.0,0.0,0.0,0.0,0.0,0.0,0.0,-0.007961918599903584,0.023182673379778862,-0.003898877650499344,0.9972298741340637,-0.03847445547580719,-0.010111742652952671,-0.06284371763467789
448.0,0.0,0.0,0.0,0.0,0.0,0.0,-0.01611136458814144,0.04330042004585266,-0.01155686192214489,0.9973718523979187,-0.037742599844932556,-0.01246691681444645,-0.060580577701330185
449.0,0.0,0.0,0.0,0.0,0.0,0.0,-0.02778896875679493,0.03570040315389633,-0.00787624903023243,0.9974607825279236,-0.03721891716122627,-0.01513008400797844,-0.05880097299814224
450.0,0.0,0.0,0.0,0.0,0.0,0.0,-0.017582455649971962,0.020795762538909912,0.018158625811338425,0.9976083636283875,-0.03632372245192528,-0.017131483182311058,-0.05625521019101143
451.0,0.0,0.0,0.0,0.0,0.0,0.0,0.007616893388330936,0.03103913739323616,-0.00564504275098443,0.9978117942810059,-0.03434806317090988,-0.018981104716658592,-0.05321307107806206
452.0,0.0,0.0,0.0,0.0,0.0,0.0,-0.007078819442540407,0.0301081370562315,-0.017214741557836533,0.9979634881019592,-0.031678806990385056,-0.022361338138580322,-0.050649918615818024
453.0,0.0,0.0,0.0,0.0,0.0,0.0,-0.024401113390922546,0.0349668487906456,0.006105879321694374,0.9981260895729065,-0.02793755754828453,-0.02664678916335106,-0.047478388994932175
454.0,0.0,0.0,0.0,0.0,0.0,0.0,-0.01902061142027378,0.050416357815265656,-0.007371778134256601,0.9982637166976929,-0.023190055042505264,-0.030674392357468605,-0.04461712762713432
455.0,0.0,0.0,0.0,0.0,0.0,0.0,-0.0249616876244545,0.03731246665120125,-0.009431542828679085,0.9983378052711487,-0.01809939555823803,-0.03371669352054596,-0.043090857565402985
456.0,0.0,0.0,0.0,0.0,0.0,0.0,-0.039355967193841934,0.03371531516313553,0.014425622299313545,0.9984076023101807,-0.013268755748867989,-0.03549163416028023,-0.04179481416940689
457.0,0.0,0.0,0.0,0.0,0.0,0.0,-0.004472715780138969,0.03186845779418945,-0.0004038290644530207,0.9984645247459412,-0.00851997546851635,-0.03679374232888222,-0.04052510857582092
458.0,0.0,0.0,0.0,0.0,0.0,0.0,0.02473011240363121,0.0008539362461306155,-0.013533209450542927,0.9984310865402222,-0.0038428811822086573,-0.0402257926762104,-0.03876252472400665
459.0,0.0,0.0,0.0,0.0,0.0,0.0,0.030072078108787537,-0.022069614380598068,-0.0030567473731935024,0.9982448220252991,0.0008639598381705582,-0.04333493113517761,-0.0403568297624588
460.0,0.0,0.0,0.0,0.0,0.0,0.0,0.04126258194446564,-0.00842365249991417,-0.010459506884217262,0.9980942010879517,0.0038590296171605587,-0.045848168432712555,-0.04112021625041962
461.0,0.0,0.0,0.0,0.0,0.0,0.0,0.03421153500676155,-0.005740016233175993,-0.02591760642826557,0.9979559183120728,0.0055789584293961525,-0.04811732470989227,-0.04168242961168289
462.0,0.0,0.0,0.0,0.0,0.0,0.0,0.025380538776516914,0.0015756668290123343,-0.026371238753199577,0.9978294372558594,0.00526998657733202,-0.051163479685783386,-0.041123539209365845
463.0,0.0,0.0,0.0,0.0,0.0,0.0,0.013205894269049168,0.009951919317245483,-0.046055927872657776,0.997825026512146,0.003172691212967038,-0.05215976759791374,-0.04018736630678177
464.0,0.0,0.0,0.0,0.0,0.0,0.0,-0.014103256165981293,-0.009827252477407455,-0.005650360602885485,0.9978369474411011,0.0012133197160437703,-0.05118834227323532,-0.04122688248753548
465.0,0.0,0.0,0.0,0.0,0.0,0.0,0.025675462558865547,-0.007173996884375811,0.01794489659368992,0.9976434707641602,0.0020688078366219997,-0.05145953223109245,-0.045326605439186096
466.0,0.0,0.0,0.0,0.0,0.0,0.0,0.014981892891228199,0.0013798231957480311,0.016308123245835304,0.9975543022155762,-0.0003863133897539228,-0.05346154049038887,-0.04502188414335251
467.0,0.0,0.0,0.0,0.0,0.0,0.0,-0.029799560084939003,0.03911902382969856,0.009963995777070522,0.9973770976066589,-0.001900600385852158,-0.05570013448596001,-0.04618437960743904
468.0,0.0,0.0,0.0,0.0,0.0,0.0,-0.037769000977277756,0.007800676394253969,0.03670642152428627,0.9970864653587341,-0.0035194011870771646,-0.05756920948624611,-0.049926746636629105
469.0,0.0,0.0,0.0,0.0,0.0,0.0,-0.0459190234541893,0.01710427738726139,0.038641899824142456,0.9968755841255188,-0.0054053314961493015,-0.05915018916130066,-0.052068453282117844
470.0,0.0,0.0,0.0,0.0,0.0,0.0,-0.029116543009877205,0.017364369705319405,0.024415841326117516,0.9967737793922424,-0.004950912669301033,-0.05960869416594505,-0.053521350026130676
471.0,0.0,0.0,0.0,0.0,0.0,0.0,-0.005107805598527193,-0.0050108288414776325,-0.0005615013651549816,0.9966580867767334,-0.003194203833118081,-0.05890965089201927,-0.05649638921022415
472.0,0.0,0.0,0.0,0.0,0.0,0.0,0.015779167413711548,-0.012939997017383575,-0.0105374651029706,0.996593177318573,-0.0018885259050875902,-0.057826507836580276,-0.05877649039030075
473.0,0.0,0.0,0.0,0.0,0.0,0.0,0.019905833527445793,-0.005398008041083813,-0.029737869277596474,0.9965746402740479,-0.0015802801353856921,-0.0567423477768898,-0.06013553962111473
474.0,0.0,0.0,0.0,0.0,0.0,0.0,0.015325037762522697,0.001783539541065693,-0.02719995379447937,0.9966297745704651,-0.003133228048682213,-0.055416908115148544,-0.06039508804678917
475.0,0.0,0.0,0.0,0.0,0.0,0.0,0.014457005076110363,0.03400848060846329,-0.03629029914736748,0.9968962669372559,-0.00586227560415864,-0.05228673666715622,-0.05855986848473549
476.0,0.0,0.0,0.0,0.0,0.0,0.0,0.002053524600341916,0.062276069074869156,-0.03831763193011284,0.9974581003189087,-0.007593401242047548,-0.04422230273485184,-0.055354151874780655
477.0,0.0,0.0,0.0,0.0,0.0,0.0,-0.04341306537389755,0.09593666344881058,-0.02283318340778351,0.9980322122573853,-0.007970352657139301,-0.03310944885015488,-0.05264715477824211
478.0,0.0,0.0,0.0,0.0,0.0,0.0,-0.09344669431447983,0.028482573106884956,0.07549306005239487,0.9982107281684875,-0.00642774160951376,-0.02370605245232582,-0.05451493710279465
479.0,0.0,0.0,0.0,0.0,0.0,0.0,-0.05771871656179428,0.033970803022384644,0.07774413377046585,0.9985199570655823,-0.0030632191337645054,-0.012858140282332897,-0.05275637283921242
480.0,0.0,0.0,0.0,0.0,0.0,0.0,-0.0009856437100097537,0.032979607582092285,0.0023856402840465307,0.9988076090812683,0.001554945483803749,-0.0042501953430473804,-0.04860876873135567
481.0,0.0,0.0,0.0,0.0,0.0,0.0,0.036382000893354416,-0.01288666483014822,-0.009936578571796417,0.9989941716194153,0.005704057868570089,-0.002485147910192609,-0.044407304376363754
482.0,0.0,0.0,0.0,0.0,0.0,0.0,0.01078046578913927,-0.05647929385304451,0.011010460555553436,0.9990833401679993,0.007694924715906382,-0.004205678589642048,-0.041899263858795166
483.0,0.0,0.0,0.0,0.0,0.0,0.0,0.039157845079898834,-0.08149830251932144,0.02609207108616829,0.9991000294685364,0.010187236592173576,-0.0051040565595030785,-0.04085615649819374
484.0,0.0,0.0,0.0,0.0,0.0,0.0,0.05481335148215294,-0.042117565870285034,-0.012896659784018993,0.9991141557693481,0.011937938630580902,-0.006195136811584234,-0.03987625613808632
485.0,0.0,0.0,0.0,0.0,0.0,0.0,0.027947457507252693,0.0045762332156300545,-0.0028893225826323032,0.9990475177764893,0.013409925624728203,-0.010979278944432735,-0.04004634544253349
486.0,0.0,0.0,0.0,0.0,0.0,0.0,-0.018698496744036674,0.03247354179620743,0.011667572893202305,0.9990168213844299,0.014211302623152733,-0.015963194891810417,-0.03884154558181763
487.0,0.0,0.0,0.0,0.0,0.0,0.0,-0.01872190274298191,0.07427843660116196,-0.02661859057843685,0.9991958141326904,0.014565044082701206,-0.016893569380044937,-0.033320698887109756
488.0,0.0,0.0,0.0,0.0,0.0,0.0,0.005200858227908611,0.04158172383904457,-0.06555940955877304,0.999359130859375,0.016047317534685135,-0.015311471186578274,-0.02809574455022812
489.0,0.0,0.0,0.0,0.0,0.0,0.0,0.026447860524058342,-0.008258076384663582,-0.05864126235246658,0.9994790554046631,0.01764378510415554,-0.014263436198234558,-0.022953523322939873
490.0,0.0,0.0,0.0,0.0,0.0,0.0,0.036048050969839096,0.01511880662292242,-0.08987762778997421,0.9996917247772217,0.017082499340176582,-0.011807898059487343,-0.013610911555588245
491.0,0.0,0.0,0.0,0.0,0.0,0.0,0.027874600142240524,-0.04232937470078468,-0.06032354012131691,0.9998437762260437,0.014036241918802261,-0.008993000723421574,-0.0058701131492853165
492.0,0.0,0.0,0.0,0.0,0.0,0.0,0.035763103514909744,-0.028266606852412224,-0.02417866699397564,0.9999098181724548,0.01114239078015089,-0.007407704368233681,0.0011596344411373138
493.0,0.0,0.0,0.0,0.0,0.0,0.0,0.05543889105319977,0.018527328968048096,-0.09973698854446411,0.9999236464500427,0.00615177396684885,-0.0045945351012051105,0.009679319337010384
494.0,0.0,0.0,0.0,0.0,0.0,0.0,0.007647351827472448,0.09497256577014923,-0.1196194514632225,0.999815821647644,-0.0016923054354265332,0.0004754968103952706,0.019111674278974533
495.0,0.0,0.0,0.0,0.0,0.0,0.0,0.010495969094336033,0.08132734894752502,-0.03921821713447571,0.9996122717857361,-0.008591894060373306,0.005759784486144781,0.0258517824113369
496.0,0.0,0.0,0.0,0.0,0.0,0.0,0.013874292373657227,-0.06497903913259506,0.07446059584617615,0.9994960427284241,-0.013779865577816963,0.0074821156449615955,0.02760075218975544
497.0,0.0,0.0,0.0,0.0,0.0,0.0,-0.00480848690494895,-0.04771460220217705,0.03855669125914574,0.9993533492088318,-0.018675634637475014,0.006449245382100344,0.030041173100471497
498.0,0.0,0.0,0.0,0.0,0.0,0.0,-0.007309322245419025,-0.016467461362481117,0.031156660988926888,0.9992048144340515,-0.024024108424782753,0.0070666163228452206,0.03102819435298443
499.0,0.0,0.0,0.0,0.0,0.0,0.0,-0.02502407506108284,-0.03805246949195862,0.10246945172548294,0.999204695224762,-0.026977509260177612,0.008927895687520504,0.02796979248523712
500.0,0.0,0.0,0.0,0.0,0.0,0.0,-0.028776248916983604,-0.00950614083558321,0.048169683665037155,0.9992895722389221,-0.02726089395582676,0.011452062986791134,0.023359045386314392
501.0,0.0,0.0,0.0,0.0,0.0,0.0,-0.032366566359996796,-0.0012477306881919503,0.041714757680892944,0.9994177222251892,-0.025743339210748672,0.014142803847789764,0.017364410683512688
502.0,0.0,0.0,0.0,0.0,0.0,0.0,-0.038164280354976654,0.014267573133111,0.03560040891170502,0.999538242816925,-0.022983528673648834,0.01760087162256241,0.00921971257776022
503.0,0.0,0.0,0.0,0.0,0.0,0.0,-0.010728762485086918,0.031489480286836624,0.03762136027216911,0.999606192111969,-0.020113343372941017,0.01956365630030632,0.0003818668774329126
504.0,0.0,0.0,0.0,0.0,0.0,0.0,0.015354509465396404,0.0627879947423935,-0.00980361457914114,0.9996466040611267,-0.018677834421396255,0.01813575252890587,-0.005407148040831089
505.0,0.0,0.0,0.0,0.0,0.0,0.0,0.03486676514148712,0.05554693192243576,-0.04568503797054291,0.9996728301048279,-0.01894909143447876,0.013845155015587807,-0.010178820230066776
506.0,0.0,0.0,0.0,0.0,0.0,0.0,0.03999171406030655,0.048205506056547165,-0.06112353876233101,0.9996559619903564,-0.019005142152309418,0.012301849201321602,-0.013253028504550457
507.0,0.0,0.0,0.0,0.0,0.0,0.0,0.01236650999635458,0.016373110935091972,-0.031309857964515686,0.9995987415313721,-0.017954595386981964,0.012020292691886425,-0.018320903182029724
508.0,0.0,0.0,0.0,0.0,0.0,0.0,0.013166842982172966,0.02118239924311638,0.001385390292853117,0.9994898438453674,-0.018782326951622963,0.012060824781656265,-0.022838754579424858
509.0,0.0,0.0,0.0,0.0,0.0,0.0,-0.018948901444673538,0.07327065616846085,0.05328596755862236,0.9994387626647949,-0.021798640489578247,0.011977558955550194,-0.022436659783124924
510.0,0.0,0.0,0.0,0.0,0.0,0.0,-0.027194412425160408,0.06754545867443085,0.020074112340807915,0.9994034171104431,-0.021769769489765167,0.011131677776575089,-0.024394692853093147
511.0,0.0,0.0,0.0,0.0,0.0,0.0,-0.018078632652759552,0.04129449278116226,-0.0300137996673584,0.9993258714675903,-0.02031349577009678,0.011324577033519745,-0.02840488776564598
512.0,0.0,0.0,0.0,0.0,0.0,0.0,0.012414785102009773,0.019088592380285263,-0.04944317415356636,0.9992480278015137,-0.018319327384233475,0.010892104357481003,-0.032390814274549484
513.0,0.0,0.0,0.0,0.0,0.0,0.0,0.013044474646449089,-0.024766955524683,0.0018532186513766646,0.9991582036018372,-0.01760091632604599,0.009749713353812695,-0.03575226292014122
514.0,0.0,0.0,0.0,0.0,0.0,0.0,-0.02046666480600834,-0.03912477567791939,0.0712181031703949,0.9990331530570984,-0.018369322642683983,0.009193792007863522,-0.03886708244681358
515.0,0.0,0.0,0.0,0.0,0.0,0.0,-0.006021482869982719,-0.012941201217472553,0.023006586357951164,0.9989458918571472,-0.018954014405608177,0.008958406746387482,-0.04083293676376343
516.0,0.0,0.0,0.0,0.0,0.0,0.0,0.021061919629573822,-0.011924886144697666,-0.03168513625860214,0.9988663196563721,-0.019294066354632378,0.007126476615667343,-0.04293269291520119
517.0,0.0,0.0,0.0,0.0,0.0,0.0,0.005162530578672886,-0.010581223294138908,-0.013827046379446983,0.9987503290176392,-0.020167769864201546,0.0038123636040836573,-0.04556987062096596
518.0,0.0,0.0,0.0,0.0,0.0,0.0,-0.0018065240001305938,-0.01269907783716917,-0.011735653504729271,0.9985941052436829,-0.02173125557601452,0.0006317682564258575,-0.04834314435720444
519.0,0.0,0.0,0.0,0.0,0.0,0.0,0.009848017245531082,-0.03005473129451275,0.019316820427775383,0.9983454346656799,-0.022878451272845268,-0.004609202034771442,-0.052556268870830536
520.0,0.0,0.0,0.0,0.0,0.0,0.0,0.01947113499045372,-0.023783955723047256,0.020475201308727264,0.9980315566062927,-0.02436830662190914,-0.012535975314676762,-0.05640926957130432
521.0,0.0,0.0,0.0,0.0,0.0,0.0,0.011043365113437176,-0.0007482843357138336,-0.034167803823947906,0.9976208209991455,-0.027768200263381004,-0.023016946390271187,-0.05874667689204216
522.0,0.0,0.0,0.0,0.0,0.0,0.0,-0.02329135499894619,0.002877927618101239,-0.007265632972121239,0.9970394372940063,-0.0321638360619545,-0.03342128545045853,-0.06132470816373825
523.0,0.0,0.0,0.0,0.0,0.0,0.0,-0.10518296808004379,0.05374206230044365,0.023072626441717148,0.9964635968208313,-0.03427441045641899,-0.039274442940950394,-0.06590287387371063
524.0,0.0,0.0,0.0,0.0,0.0,0.0,-0.12339410185813904,0.07410647720098495,0.047108978033065796,0.9959338307380676,-0.03236977756023407,-0.04171101003885269,-0.07299250364303589
525.0,0.0,0.0,0.0,0.0,0.0,0.0,-0.07368414849042892,0.06759810447692871,0.026619426906108856,0.9959317445755005,-0.03138568252325058,-0.038785021752119064,-0.07503828406333923
526.0,0.0,0.0,0.0,0.0,0.0,0.0,-0.052376799285411835,0.05591926351189613,-0.012404095381498337,0.9961087107658386,-0.029611792415380478,-0.03303259611129761,-0.07615084946155548
527.0,0.0,0.0,0.0,0.0,0.0,0.0,-0.03770161420106888,0.042978089302778244,-0.005554903764277697,0.9963818788528442,-0.02610612101852894,-0.02540821023285389,-0.07678882032632828
528.0,0.0,0.0,0.0,0.0,0.0,0.0,0.03899673745036125,2.2984262614045292e-05,0.025592273101210594,0.9966621398925781,-0.02229912579059601,-0.01984412409365177,-0.07598556578159332
529.0,0.0,0.0,0.0,0.0,0.0,0.0,0.04729532450437546,-0.01057436317205429,-0.007107419893145561,0.9968518614768982,-0.018128039315342903,-0.017120296135544777,-0.07525814324617386
530.0,0.0,0.0,0.0,0.0,0.0,0.0,0.04673108831048012,-0.04054993763566017,-0.003919518087059259,0.9969469904899597,-0.014740814454853535,-0.01616979017853737,-0.07494951039552689
531.0,0.0,0.0,0.0,0.0,0.0,0.0,0.03905511274933815,-0.038635846227407455,-0.020258521661162376,0.9971871972084045,-0.013455966487526894,-0.012249684892594814,-0.07270649820566177
532.0,0.0,0.0,0.0,0.0,0.0,0.0,0.011113288812339306,0.003996232524514198,-0.01861032471060753,0.9974263906478882,-0.012190484441816807,-0.007676083128899336,-0.07023034244775772
533.0,0.0,0.0,0.0,0.0,0.0,0.0,0.006379126571118832,0.015371070243418217,0.015218623913824558,0.9975393414497375,-0.009685459546744823,-0.003169457195326686,-0.06936613470315933
534.0,0.0,0.0,0.0,0.0,0.0,0.0,-0.008066373877227306,-0.011181825771927834,0.039648495614528656,0.9974609613418579,-0.005915503483265638,0.0009935512207448483,-0.07096203416585922
535.0,0.0,0.0,0.0,0.0,0.0,0.0,0.0016014224383980036,-0.01000248920172453,0.008660221472382545,0.9973315596580505,-0.0021154233254492283,0.003438530955463648,-0.07289332151412964
536.0,0.0,0.0,0.0,0.0,0.0,0.0,0.0023261578753590584,-0.008895281702280045,-0.01382988691329956,0.9971625804901123,0.0009613054571673274,0.0053565604612231255,-0.07508035749197006
537.0,0.0,0.0,0.0,0.0,0.0,0.0,-0.005249131005257368,0.006586904637515545,-0.037231139838695526,0.9969967603683472,0.0032381676137447357,0.007722834590822458,-0.07699033617973328
538.0,0.0,0.0,0.0,0.0,0.0,0.0,0.020188426598906517,0.009260479360818863,-0.036212872713804245,0.9969853758811951,0.004136944189667702,0.010568669997155666,-0.07675273716449738
539.0,0.0,0.0,0.0,0.0,0.0,0.0,0.018119804561138153,-0.01797972060739994,0.03774108737707138,0.996894896030426,0.005353022366762161,0.011585921049118042,-0.07770133018493652
540.0,0.0,0.0,0.0,0.0,0.0,0.0,0.012863485142588615,0.012668530456721783,-0.015308411791920662,0.9968948364257812,0.005392035469412804,0.011118728667497635,-0.07777055352926254
541.0,0.0,0.0,0.0,0.0,0.0,0.0,0.05477422475814819,0.009069794788956642,-0.07651381194591522,0.9969930648803711,0.003822043538093567,0.00796731561422348,-0.07698677480220795
542.0,0.0,0.0,0.0,0.0,0.0,0.0,0.028849607333540916,0.029629958793520927,-0.06907062232494354,0.9971678853034973,-0.0003287069848738611,0.002293639350682497,-0.07517044991254807
543.0,0.0,0.0,0.0,0.0,0.0,0.0,-0.00852886587381363,0.020302802324295044,-0.006224663928151131,0.9970927238464355,-0.006394859869033098,-0.005959148518741131,-0.07569277286529541
544.0,0.0,0.0,0.0,0.0,0.0,0.0,-0.06446987390518188,0.04366821050643921,0.033821992576122284,0.9970464706420898,-0.01317619252949953,-0.012177368625998497,-0.07467465847730637
545.0,0.0,0.0,0.0,0.0,0.0,0.0,-0.07509494572877884,0.08780702203512192,0.015005281195044518,0.9971910715103149,-0.017694532871246338,-0.013520549982786179,-0.07150962948799133
546.0,0.0,0.0,0.0,0.0,0.0,0.0,-0.069214828312397,0.08457984030246735,-0.004239649511873722,0.99721759557724,-0.019407279789447784,-0.01207821723073721,-0.07095591723918915
547.0,0.0,0.0,0.0,0.0,0.0,0.0,-0.029499229043722153,0.03617887571454048,0.028385603800415993,0.9972310662269592,-0.018346209079027176,-0.011105825193226337,-0.0712052583694458
548.0,0.0,0.0,0.0,0.0,0.0,0.0,0.007734476123005152,-0.007821180857717991,0.034443195909261703,0.9973094463348389,-0.016848107799887657,-0.008634600788354874,-0.07082095742225647
549.0,0.0,0.0,0.0,0.0,0.0,0.0,0.02918498031795025,-0.0344410203397274,0.030860716477036476,0.9972970485687256,-0.01527461688965559,-0.005903875920921564,-0.0716259703040123
550.0,0.0,0.0,0.0,0.0,0.0,0.0,0.031768880784511566,-0.02366592362523079,0.004753563553094864,0.997258722782135,-0.01340473908931017,-0.0034573678858578205,-0.0726810172200203
551.0,0.0,0.0,0.0,0.0,0.0,0.0,0.04710753262042999,-0.01714940555393696,-0.0059783984906971455,0.9972066879272461,-0.011411637999117374,-0.0018992177210748196,-0.07378808408975601
552.0,0.0,0.0,0.0,0.0,0.0,0.0,0.035047076642513275,-0.010127495974302292,-0.005795486271381378,0.9972121119499207,-0.009335226379334927,0.00022484602231997997,-0.07402986288070679
553.0,0.0,0.0,0.0,0.0,0.0,0.0,0.03538452461361885,-0.009317773394286633,-0.0008876643260009587,0.9972444772720337,-0.007403004914522171,0.0028289873152971268,-0.07376723736524582
554.0,0.0,0.0,0.0,0.0,0.0,0.0,0.014145265333354473,-0.00869765318930149,0.05073309317231178,0.9972606897354126,-0.005328590050339699,0.006039576139301062,-0.07352548092603683
555.0,0.0,0.0,0.0,0.0,0.0,0.0,0.0039738076739013195,0.034294746816158295,0.010773870162665844,0.9972676634788513,-0.0027916249819099903,0.009187283925712109,-0.07324597239494324
556.0,0.0,0.0,0.0,0.0,0.0,0.0,0.01020351517945528,0.022334644570946693,0.010073548182845116,0.997071385383606,0.000937087694182992,0.010083257220685482,-0.07580217719078064
557.0,0.0,0.0,0.0,0.0,0.0,0.0,0.01824485883116722,0.013419033959507942,0.025150751695036888,0.9968141913414001,0.005234066862612963,0.010948371142148972,-0.07883058488368988
558.0,0.0,0.0,0.0,0.0,0.0,0.0,0.028091207146644592,-0.008031903766095638,0.0178394615650177,0.9965354204177856,0.010892869904637337,0.011598769575357437,-0.08163478225469589
559.0,0.0,0.0,0.0,0.0,0.0,0.0,0.024108560755848885,-0.00724232941865921,0.00767927523702383,0.9962494373321533,0.01665303111076355,0.011359509080648422,-0.08414805680513382
560.0,0.0,0.0,0.0,0.0,0.0,0.0,0.04743720963597298,-0.001969102770090103,-0.02393171191215515,0.9960796236991882,0.021743066608905792,0.010495549999177456,-0.08510246127843857
561.0,0.0,0.0,0.0,0.0,0.0,0.0,0.063266322016716,-0.013085484504699707,-0.01612425036728382,0.9959981441497803,0.025167211890220642,0.006493369583040476,-0.08551382273435593
562.0,0.0,0.0,0.0,0.0,0.0,0.0,0.037214405834674835,0.013667935505509377,-0.014410590752959251,0.9959434270858765,0.026409544050693512,-0.0005194651312194765,-0.08602027595043182
563.0,0.0,0.0,0.0,0.0,0.0,0.0,0.03471178188920021,0.03912054002285004,-0.022566676139831543,0.9957954287528992,0.027868669480085373,-0.007887721993029118,-0.08690711110830307
564.0,0.0,0.0,0.0,0.0,0.0,0.0,0.06930682063102722,0.041995711624622345,-0.11973191052675247,0.9956100583076477,0.02967197448015213,-0.017095256596803665,-0.0871097594499588
565.0,0.0,0.0,0.0,0.0,0.0,0.0,0.035221949219703674,-0.014379399828612804,-0.08943245559930801,0.9953951835632324,0.02785067819058895,-0.027369163930416107,-0.08754648268222809
566.0,0.0,0.0,0.0,0.0,0.0,0.0,-0.0507570244371891,-0.06881041079759598,0.0965261235833168,0.9953317046165466,0.024716712534427643,-0.03402263671159744,-0.0868704691529274
567.0,0.0,0.0,0.0,0.0,0.0,0.0,-0.024727841839194298,0.004858778323978186,0.03717660903930664,0.9958435893058777,0.020521659404039383,-0.03499697148799896,-0.08154800534248352
568.0,0.0,0.0,0.0,0.0,0.0,0.0,0.001612891093827784,0.024771032854914665,-0.05530190467834473,0.9962373375892639,0.01746589131653309,-0.03430936485528946,-0.07764625549316406
569.0,0.0,0.0,0.0,0.0,0.0,0.0,-0.0002027923910645768,-0.03063071332871914,0.003257776377722621,0.9963802099227905,0.01686294749379158,-0.03407866507768631,-0.07603029906749725
570.0,0.0,0.0,0.0,0.0,0.0,0.0,0.0028676094952970743,-0.05205560475587845,0.02983144484460354,0.9965605735778809,0.016862116754055023,-0.03167280927300453,-0.07469131052494049
571.0,0.0,0.0,0.0,0.0,0.0,0.0,-0.000451564381364733,-0.010219110175967216,-0.006022891495376825,0.996894121170044,0.01660376600921154,-0.02790517359972,-0.07174628227949142
572.0,0.0,0.0,0.0,0.0,0.0,0.0,-0.00889638066291809,0.01505135465413332,-0.02061891183257103,0.9973013997077942,0.015269442461431026,-0.023017553612589836,-0.06801754981279373
573.0,0.0,0.0,0.0,0.0,0.0,0.0,-0.0011150927748531103,0.013390873558819294,0.01209346018731594,0.9976789355278015,0.013732989318668842,-0.01943393051624298,-0.06380806118249893
574.0,0.0,0.0,0.0,0.0,0.0,0.0,0.015754707157611847,0.012718578800559044,-0.00851473305374384,0.9981675148010254,0.00909680686891079,-0.014638914726674557,-0.05800376087427139
575.0,0.0,0.0,0.0,0.0,0.0,0.0,0.013032661750912666,0.0033466711174696684,-0.01317053847014904,0.9985935091972351,0.0035014445893466473,-0.009917384944856167,-0.051959216594696045
576.0,0.0,0.0,0.0,0.0,0.0,0.0,-0.010146758519113064,0.0013935458846390247,0.04122215509414673,0.9988759160041809,-0.0020147026516497135,-0.00489501329138875,-0.04709953814744949
577.0,0.0,0.0,0.0,0.0,0.0,0.0,-0.02538876235485077,0.032358575612306595,0.033382244408130646,0.9990641474723816,-0.007785790599882603,0.0017382842488586903,-0.04250790923833847
578.0,0.0,0.0,0.0,0.0,0.0,0.0,-0.002258568536490202,0.03293821960687637,-0.00036942321457900107,0.9990830421447754,-0.01312953606247902,0.006632440723478794,-0.040203746408224106
579.0,0.0,0.0,0.0,0.0,0.0,0.0,-0.017423871904611588,0.046289678663015366,0.00982472114264965,0.9990277290344238,-0.0185684934258461,0.008579334244132042,-0.03905433416366577
580.0,0.0,0.0,0.0,0.0,0.0,0.0,-0.05361521244049072,0.03680574893951416,0.04015755653381348,0.9988812208175659,-0.02387656457722187,0.009876524098217487,-0.039601605385541916
581.0,0.0,0.0,0.0,0.0,0.0,0.0,-0.05459640547633171,0.05911535024642944,0.04578760266304016,0.9987272620201111,-0.02769787609577179,0.011515870690345764,-0.040549587458372116
582.0,0.0,0.0,0.0,0.0,0.0,0.0,-0.026787694543600082,0.04757453128695488,0.03442909196019173,0.9985697269439697,-0.03085746429860592,0.011691736057400703,-0.042069099843502045
583.0,0.0,0.0,0.0,0.0,0.0,0.0,-0.00042877570376731455,0.04557136818766594,-0.024512989446520805,0.9985018372535706,-0.033331602811813354,0.009946457110345364,-0.04223867133259773
584.0,0.0,0.0,0.0,0.0,0.0,0.0,-0.006435737945139408,0.03197036683559418,-0.03764641657471657,0.9983928799629211,-0.035777654498815536,0.008298791944980621,-0.04315905272960663
585.0,0.0,0.0,0.0,0.0,0.0,0.0,0.011539199389517307,0.01919926516711712,-0.032760392874479294,0.9982500672340393,-0.038937103003263474,0.007058061193674803,-0.04393821582198143
586.0,0.0,0.0,0.0,0.0,0.0,0.0,0.006375376135110855,0.010509458370506763,-0.03643196448683739,0.9980065226554871,-0.041686464101076126,0.004283469170331955,-0.047186508774757385
587.0,0.0,0.0,0.0,0.0,0.0,0.0,0.00033722905209288,0.005577883683145046,-0.028078442439436913,0.9977004528045654,-0.04606300964951515,0.0005414154729805887,-0.049711644649505615
588.0,0.0,0.0,0.0,0.0,0.0,0.0,-0.00890517421066761,0.03850346431136131,0.013218245469033718,0.9974068999290466,-0.04910345375537872,-0.004417282994836569,-0.05242568254470825
589.0,0.0,0.0,0.0,0.0,0.0,0.0,-0.029215743765234947,0.059202250093221664,-0.014025772921741009,0.9971625804901123,-0.05327725410461426,-0.007281589321792126,-0.052682891488075256
590.0,0.0,0.0,0.0,0.0,0.0,0.0,-0.03670410066843033,0.06681117415428162,-0.03718224912881851,0.9969801902770996,-0.057536642998456955,-0.008884429931640625,-0.05138668045401573
591.0,0.0,0.0,0.0,0.0,0.0,0.0,-0.025341873988509178,0.05667606741189957,-0.0013936527539044619,0.9968379735946655,-0.06138014793395996,-0.009912329725921154,-0.04947971925139427
592.0,0.0,0.0,0.0,0.0,0.0,0.0,-0.02241024374961853,0.07396632432937622,0.011925692670047283,0.9968899488449097,-0.06339111179113388,-0.0075709884986281395,-0.046202562749385834
593.0,0.0,0.0,0.0,0.0,0.0,0.0,-0.006197922397404909,0.06774091720581055,-0.01567131094634533,0.9970293641090393,-0.06265988945960999,-0.0020102791022509336,-0.044737908989191055
594.0,0.0,0.0,0.0,0.0,0.0,0.0,0.03711957857012749,0.008923106826841831,-0.028031226247549057,0.996941864490509,-0.0643218532204628,0.001618877868168056,-0.044359177350997925
595.0,0.0,0.0,0.0,0.0,0.0,0.0,0.041867535561323166,-0.020671630278229713,0.02163681574165821,0.996806263923645,-0.0661034807562828,0.0029585575684905052,-0.044703029096126556
596.0,0.0,0.0,0.0,0.0,0.0,0.0,0.05120633542537689,0.014096164144575596,0.018367405980825424,0.996738076210022,-0.06821063160896301,0.004187809303402901,-0.042939238250255585
597.0,0.0,0.0,0.0,0.0,0.0,0.0,0.032283540815114975,0.039856065064668655,0.013638261705636978,0.9966573715209961,-0.07039535045623779,0.006329796276986599,-0.040964242070913315
598.0,0.0,0.0,0.0,0.0,0.0,0.0,0.014272860251367092,0.03091408498585224,0.014501425437629223,0.9965474605560303,-0.07279510051012039,0.008156013675034046,-0.03908223286271095
599.0,0.0,0.0,0.0,0.0,0.0,0.0,-0.002313306089490652,0.01415290217846632,0.04907635971903801,0.9964468479156494,-0.07500284910202026,0.009263585321605206,-0.03716624900698662
600.0,0.0,0.0,0.0,0.0,0.0,0.0,0.015359090641140938,0.04884316027164459,-0.01047284621745348,0.9964109659194946,-0.07673278450965881,0.011221270076930523,-0.033925920724868774
601.0,0.0,0.0,0.0,0.0,0.0,0.0,-0.003118577180430293,0.009846151806414127,0.01346967276185751,0.9964442253112793,-0.07676958292722702,0.011898675933480263,-0.03262064605951309
602.0,0.0,0.0,0.0,0.0,0.0,0.0,0.019772106781601906,-0.020985720679163933,0.03419314697384834,0.996460497379303,-0.07634706795215607,0.010791183449327946,-0.03348183259367943
603.0,0.0,0.0,0.0,0.0,0.0,0.0,0.021251633763313293,-0.02224569581449032,0.025196414440870285,0.9963822364807129,-0.07607971131801605,0.0101875439286232,-0.036469463258981705
604.0,0.0,0.0,0.0,0.0,0.0,0.0,0.020395923405885696,-0.02241409197449684,0.03670014813542366,0.9963159561157227,-0.0739264264702797,0.011004088446497917,-0.0420490987598896
605.0,0.0,0.0,0.0,0.0,0.0,0.0,-0.0023651740048080683,-0.04961400851607323,0.06067340075969696,0.9960498213768005,-0.07081727683544159,0.013667008839547634,-0.05179501324892044
606.0,0.0,0.0,0.0,0.0,0.0,0.0,-0.020318612456321716,-0.020887747406959534,0.07468453049659729,0.9955537915229797,-0.06689218431711197,0.018843097612261772,-0.0635792687535286
607.0,0.0,0.0,0.0,0.0,0.0,0.0,-0.011075391434133053,0.056377530097961426,0.05707802250981331,0.9951342344284058,-0.06299886107444763,0.02314569801092148,-0.07213518768548965
608.0,0.0,0.0,0.0,0.0,0.0,0.0,0.01347171701490879,0.11953199654817581,0.013441023416817188,0.9951010346412659,-0.05796780437231064,0.024683061987161636,-0.07618764042854309
609.0,0.0,0.0,0.0,0.0,0.0,0.0,0.02821528911590576,0.1250191032886505,-0.05460992082953453,0.9951379895210266,-0.0519372932612896,0.026894984766840935,-0.07924558967351913
610.0,0.0,0.0,0.0,0.0,0.0,0.0,0.04766123741865158,0.0789722204208374,-0.019858967512845993,0.9952746629714966,-0.045292455703020096,0.02916455827653408,-0.08078580349683762
611.0,0.0,0.0,0.0,0.0,0.0,0.0,0.032591961324214935,0.027112159878015518,-0.041092243045568466,0.9953991174697876,-0.04109925031661987,0.03130296617746353,-0.08069240301847458
612.0,0.0,0.0,0.0,0.0,0.0,0.0,0.059609632939100266,-0.05176730453968048,-0.004201928153634071,0.9954252243041992,-0.03780539333820343,0.030799545347690582,-0.0821651741862297
613.0,0.0,0.0,0.0,0.0,0.0,0.0,0.05275367945432663,-0.040569793432950974,0.011286015622317791,0.9956592321395874,-0.03636705130338669,0.029856452718377113,-0.08030469715595245
614.0,0.0,0.0,0.0,0.0,0.0,0.0,0.04591925069689751,0.01591308042407036,-0.03209925815463066,0.9960076212882996,-0.035609494894742966,0.029101036489009857,-0.07651206105947495
615.0,0.0,0.0,0.0,0.0,0.0,0.0,0.02581222541630268,0.05509411171078682,-0.0629233792424202,0.9964205026626587,-0.03671136125922203,0.025783879682421684,-0.07165110111236572
616.0,0.0,0.0,0.0,0.0,0.0,0.0,-0.012761980295181274,0.019913969561457634,-0.015839535742998123,0.9967572093009949,-0.03706945478916168,0.019637541845440865,-0.06866930425167084
617.0,0.0,0.0,0.0,0.0,0.0,0.0,-0.022256342694163322,0.008291489444673061,0.015198050998151302,0.9969142079353333,-0.03686221316456795,0.015400496311485767,-0.06757356971502304
618.0,0.0,0.0,0.0,0.0,0.0,0.0,-0.028612948954105377,0.058675847947597504,0.01830623485147953,0.9970488548278809,-0.03649689629673958,0.01455430407077074,-0.06595268845558167
619.0,0.0,0.0,0.0,0.0,0.0,0.0,-0.044121239334344864,0.061478253453969955,-0.015041238628327847,0.9972274303436279,-0.03456931933760643,0.016220277175307274,-0.06387075781822205
620.0,0.0,0.0,0.0,0.0,0.0,0.0,-0.012317813001573086,0.05111358314752579,-0.027738364413380623,0.9973021149635315,-0.031589534133672714,0.0184470247477293,-0.06364469230175018
621.0,0.0,0.0,0.0,0.0,0.0,0.0,-0.01115555688738823,0.022221995517611504,0.01649150438606739,0.9972999691963196,-0.027209408581256866,0.023707065731287003,-0.06395168602466583
622.0,0.0,0.0,0.0,0.0,0.0,0.0,0.03158601373434067,0.007400892674922943,0.0338004007935524,0.9973925948143005,-0.021879706531763077,0.031266648322343826,-0.06125251576304436
623.0,0.0,0.0,0.0,0.0,0.0,0.0,0.0036132431123405695,0.01726272702217102,-0.034531861543655396,0.9973709583282471,-0.01779763586819172,0.04026606306433678,-0.05756032094359398
624.0,0.0,0.0,0.0,0.0,0.0,0.0,-0.015540527179837227,-0.018295513466000557,0.02150350995361805,0.997401237487793,-0.013040201738476753,0.04646805673837662,-0.053492750972509384
625.0,0.0,0.0,0.0,0.0,0.0,0.0,0.08107410371303558,-0.0514676570892334,-0.0032297465950250626,0.9974556565284729,-0.006569214165210724,0.05011500045657158,-0.05027352273464203
626.0,0.0,0.0,0.0,0.0,0.0,0.0,0.11081238836050034,-0.0038958084769546986,-0.10263924300670624,0.9977269768714905,-0.00036071144859306514,0.05007398873567581,-0.04509568214416504
627.0,0.0,0.0,0.0,0.0,0.0,0.0,0.06346836686134338,0.025572780519723892,-0.08743324130773544,0.9982588291168213,0.0056799473240971565,0.044136594980955124,-0.03871972858905792
628.0,0.0,0.0,0.0,0.0,0.0,0.0,0.09595970809459686,-0.08160719275474548,-0.061750032007694244,0.9987258911132812,0.006661172024905682,0.03467003256082535,-0.036061741411685944
629.0,0.0,0.0,0.0,0.0,0.0,0.0,0.07952705025672913,-0.09516185522079468,-0.13139021396636963,0.9991058707237244,0.002786352066323161,0.025663074105978012,-0.03348398953676224
630.0,0.0,0.0,0.0,0.0,0.0,0.0,0.07952678948640823,-0.07699539512395859,-0.09847752004861832,0.9993187785148621,-0.0035183518193662167,0.019077206030488014,-0.03139693662524223
631.0,0.0,0.0,0.0,0.0,0.0,0.0,0.10277895629405975,-0.06379812210798264,0.0651887059211731,0.9993457198143005,-0.00833625253289938,0.011277437210083008,-0.033341482281684875
632.0,0.0,0.0,0.0,0.0,0.0,0.0,-0.09560823440551758,-0.052672676742076874,0.18926681578159332,0.9992704391479492,-0.012258096598088741,0.0010219770483672619,-0.03615785390138626
633.0,0.0,0.0,0.0,0.0,0.0,0.0,-0.13102486729621887,-0.00217529758810997,0.13030190765857697,0.998860239982605,-0.01258429978042841,-0.010377194732427597,-0.04485759511590004
634.0,0.0,0.0,0.0,0.0,0.0,0.0,-0.10803858190774918,0.10910923033952713,-0.016409646719694138,0.998447835445404,-0.013274148106575012,-0.02382563054561615,-0.048560623079538345
635.0,0.0,0.0,0.0,0.0,0.0,0.0,-0.1357893943786621,0.08247295767068863,-0.03425069525837898,0.9978126287460327,-0.01201408077031374,-0.037360258400440216,-0.05319708585739136
636.0,0.0,0.0,0.0,0.0,0.0,0.0,-0.10099085420370102,-0.012058524414896965,0.050507254898548126,0.9973245859146118,-0.01021509151905775,-0.04513951763510704,-0.05658388137817383
637.0,0.0,0.0,0.0,0.0,0.0,0.0,-0.08656688779592514,-0.04782910272479057,0.09320472925901413,0.9973847270011902,-0.009218933992087841,-0.04326904937624931,-0.057153500616550446
638.0,0.0,0.0,0.0,0.0,0.0,0.0,-0.06200059875845909,-0.007739085704088211,0.03966747969388962,0.9980153441429138,-0.007331837434321642,-0.035188816487789154,-0.05170414596796036
639.0,0.0,0.0,0.0,0.0,0.0,0.0,-0.03963317349553108,0.006574345286935568,-0.009233628399670124,0.9985789656639099,-0.005383959040045738,-0.02746237814426422,-0.04535121098160744
640.0,0.0,0.0,0.0,0.0,0.0,0.0,-0.019451772794127464,0.051739051938056946,-0.001238588010892272,0.9993775486946106,-0.004097845871001482,-0.018527043983340263,-0.02973903901875019
641.0,0.0,0.0,0.0,0.0,0.0,0.0,0.021661704406142235,0.114255890250206,-0.0496227964758873,0.999962329864502,2.279984073538799e-05,-0.0017290132818743587,-0.008505874313414097
642.0,0.0,0.0,0.0,0.0,0.0,0.0,0.06766155362129211,0.0742575079202652,-0.11807578057050705,0.9997009038925171,0.0051249112002551556,0.020273519679903984,0.01267709955573082
643.0,0.0,0.0,0.0,0.0,0.0,0.0,0.0703573152422905,-0.013776818290352821,-0.0576142854988575,0.9989534020423889,0.01045922003686428,0.03438267111778259,0.02829447202384472
644.0,0.0,0.0,0.0,0.0,0.0,0.0,0.1053580567240715,-0.10017334669828415,0.0015002350555732846,0.9984225630760193,0.015372687950730324,0.04026353731751442,0.03597933053970337
645.0,0.0,0.0,0.0,0.0,0.0,0.0,0.04325259476900101,-0.12441595643758774,0.017688307911157608,0.9981123208999634,0.016445744782686234,0.04344117268919945,0.040169745683670044
646.0,0.0,0.0,0.0,0.0,0.0,0.0,0.07047361880540848,-0.12204466015100479,-0.005977448541671038,0.9979862570762634,0.016153816133737564,0.04275818541646004,0.043978042900562286
647.0,0.0,0.0,0.0,0.0,0.0,0.0,0.058019205927848816,-0.06033151596784592,-0.07043950259685516,0.9978063702583313,0.013978248462080956,0.0430089570581913,0.04834011569619179
648.0,0.0,0.0,0.0,0.0,0.0,0.0,0.0064499350264668465,-0.03296442702412605,-0.0376829095184803,0.9976733326911926,0.010546301491558552,0.04365136846899986,0.05129425227642059
649.0,0.0,0.0,0.0,0.0,0.0,0.0,0.003924149554222822,-0.021843239665031433,0.054127223789691925,0.9976744651794434,0.008042080327868462,0.04344823956489563,0.0518982894718647
650.0,0.0,0.0,0.0,0.0,0.0,0.0,0.013512718491256237,-0.04342911019921303,0.0016269282205030322,0.997757077217102,0.005034690257161856,0.04150449484586716,0.05227270722389221
651.0,0.0,0.0,0.0,0.0,0.0,0.0,-0.007411043159663677,-0.0770815834403038,-0.01588265411555767,0.9979504942893982,0.0015165696386247873,0.036089979112148285,0.052821289747953415
652.0,0.0,0.0,0.0,0.0,0.0,0.0,-0.00859337393194437,-0.016691802069544792,0.002473063301295042,0.9981433749198914,0.00023203525051940233,0.031238233670592308,0.05228566378355026
653.0,0.0,0.0,0.0,0.0,0.0,0.0,-0.00010318299609934911,0.009580877609550953,-0.006827639415860176,0.9983425140380859,-4.8300542403012514e-05,0.027852755039930344,0.05036354809999466
654.0,0.0,0.0,0.0,0.0,0.0,0.0,-0.007684141397476196,0.024060886353254318,-0.005098350811749697,0.9984325766563416,-0.0003895356203429401,0.024736346676945686,0.05020337551832199
655.0,0.0,0.0,0.0,0.0,0.0,0.0,-0.0020010939333587885,0.025365980342030525,-0.023119477555155754,0.9984470009803772,-0.0027010077610611916,0.021311184391379356,0.05140138790011406
656.0,0.0,0.0,0.0,0.0,0.0,0.0,-0.004232130944728851,-0.0149471340700984,0.00031760617275722325,0.9984147548675537,-0.005582745186984539,0.018676552921533585,0.05280066281557083
657.0,0.0,0.0,0.0,0.0,0.0,0.0,-0.005552362650632858,0.003613256849348545,0.01065453514456749,0.9983876347541809,-0.007436555344611406,0.016015125438570976,0.05394648760557175
658.0,0.0,0.0,0.0,0.0,0.0,0.0,-0.02297918312251568,0.007758968509733677,0.013864174485206604,0.9983763098716736,-0.009298195131123066,0.012182680889964104,0.05486263334751129
659.0,0.0,0.0,0.0,0.0,0.0,0.0,-0.03055459074676037,0.01798766851425171,0.03123312070965767,0.9983870387077332,-0.011203715577721596,0.007833600044250488,0.05510646849870682
660.0,0.0,0.0,0.0,0.0,0.0,0.0,-0.0018139552557840943,-0.0011471586767584085,0.01336611993610859,0.998436450958252,-0.012960316613316536,0.003997949417680502,0.054224930703639984
661.0,0.0,0.0,0.0,0.0,0.0,0.0,0.015372821129858494,-0.01126576866954565,-0.011894364841282368,0.9984448552131653,-0.014742040075361729,9.235885227099061e-05,0.053766071796417236
662.0,0.0,0.0,0.0,0.0,0.0,0.0,-0.0005398734356276691,-0.010621747933328152,-0.00940531026571989,0.9984104037284851,-0.01717713288962841,-0.002854060847312212,0.0536012202501297
663.0,0.0,0.0,0.0,0.0,0.0,0.0,-0.016360623762011528,-0.024116795510053635,0.003985516726970673,0.998366117477417,-0.020058495923876762,-0.004969891160726547,0.05327335000038147
664.0,0.0,0.0,0.0,0.0,0.0,0.0,-0.021941864863038063,-0.02980639971792698,0.021557020023465157,0.998382568359375,-0.022364988923072815,-0.0065802400931715965,0.05185231938958168
665.0,0.0,0.0,0.0,0.0,0.0,0.0,-0.023346317932009697,-0.029112298041582108,0.0300284530967474,0.9984229207038879,-0.023875201120972633,-0.008034838363528252,0.05017141252756119
666.0,0.0,0.0,0.0,0.0,0.0,0.0,-0.005912963300943375,-0.012243092060089111,0.010531038977205753,0.9984432458877563,-0.02494041994214058,-0.009077667258679867,0.04905792698264122
667.0,0.0,0.0,0.0,0.0,0.0,0.0,-0.005840706173330545,-0.031055226922035217,0.00875934213399887,0.998497486114502,-0.02588644251227379,-0.009583234786987305,0.04733670502901077
668.0,0.0,0.0,0.0,0.0,0.0,0.0,0.002377233235165477,-0.0388127900660038,0.01981194317340851,0.9985451698303223,-0.026956990361213684,-0.010039442218840122,0.04560311138629913
669.0,0.0,0.0,0.0,0.0,0.0,0.0,0.012968246825039387,-0.03260912373661995,0.008297140710055828,0.9985900521278381,-0.027384579181671143,-0.010282965376973152,0.044300276786088943
670.0,0.0,0.0,0.0,0.0,0.0,0.0,0.0101116131991148,-0.04465220496058464,0.00404949439689517,0.9986310601234436,-0.02876458130776882,-0.009989033453166485,0.04253305494785309
671.0,0.0,0.0,0.0,0.0,0.0,0.0,-0.0037277222145348787,-0.038789261132478714,0.022901233285665512,0.9987108111381531,-0.02989254705607891,-0.009348609484732151,0.03995008394122124
672.0,0.0,0.0,0.0,0.0,0.0,0.0,0.010000874288380146,-0.03883877396583557,0.016924623399972916,0.9988128542900085,-0.030942728742957115,-0.00759313628077507,0.03684856370091438
673.0,0.0,0.0,0.0,0.0,0.0,0.0,-0.009906217455863953,-0.06592848151922226,0.02178434655070305,0.9989376068115234,-0.031830765306949615,-0.004913864191621542,0.03295816481113434
674.0,0.0,0.0,0.0,0.0,0.0,0.0,-0.024668822064995766,-0.06983447819948196,0.04620775580406189,0.999123215675354,-0.0318814292550087,0.0021269437856972218,0.027044115588068962
675.0,0.0,0.0,0.0,0.0,0.0,0.0,-0.0063002826645970345,-0.020829224959015846,0.021747976541519165,0.9991929531097412,-0.032217349857091904,0.010907510295510292,0.02136951871216297
676.0,0.0,0.0,0.0,0.0,0.0,0.0,0.03996610268950462,0.027643971145153046,-0.008768092840909958,0.9991905689239502,-0.03197430819272995,0.017794378101825714,0.016711300238966942
677.0,0.0,0.0,0.0,0.0,0.0,0.0,0.026904426515102386,0.04610957205295563,-0.004267147742211819,0.9991691708564758,-0.03243470564484596,0.021293753758072853,0.012452532537281513
678.0,0.0,0.0,0.0,0.0,0.0,0.0,0.0338006466627121,0.04827640950679779,0.002065224340185523,0.9991407990455627,-0.03234059736132622,0.02413036674261093,0.00945099163800478
679.0,0.0,0.0,0.0,0.0,0.0,0.0,0.033935680985450745,0.030043363571166992,0.005147657822817564,0.9991350769996643,-0.032896738499403,0.024287257343530655,0.007579475175589323
680.0,0.0,0.0,0.0,0.0,0.0,0.0,0.009201648645102978,0.016777414828538895,0.01658017933368683,0.9991729259490967,-0.03347450867295265,0.022112268954515457,0.006627027876675129
681.0,0.0,0.0,0.0,0.0,0.0,0.0,0.03936178609728813,0.019955173134803772,-0.0190407857298851,0.999265193939209,-0.03441431745886803,0.01598314940929413,0.0054550147615373135
682.0,0.0,0.0,0.0,0.0,0.0,0.0,-0.004078307654708624,0.032738097012043,-0.03766103461384773,0.9993000626564026,-0.03600061684846878,0.008786345832049847,0.005166857969015837
683.0,0.0,0.0,0.0,0.0,0.0,0.0,-0.017165083438158035,0.045844025909900665,-0.028562750667333603,0.9993194937705994,-0.036737650632858276,0.0007914889138191938,0.0032556625083088875
684.0,0.0,0.0,0.0,0.0,0.0,0.0,-0.01579670049250126,-0.005918687209486961,0.0004138298099860549,0.9993212819099426,-0.03613676875829697,-0.007085789460688829,-0.0010925550013780594
685.0,0.0,0.0,0.0,0.0,0.0,0.0,0.023797210305929184,-0.015985460951924324,-0.033999428153038025,0.9992042183876038,-0.03764405474066734,-0.011851477436721325,-0.005772198550403118
686.0,0.0,0.0,0.0,0.0,0.0,0.0,0.04737496376037598,-0.057622168213129044,-0.01994149573147297,0.9989856481552124,-0.04067784547805786,-0.014901072718203068,-0.012295609340071678
687.0,0.0,0.0,0.0,0.0,0.0,0.0,-0.06399569660425186,0.014780924655497074,0.14007443189620972,0.9987764954566956,-0.04242412745952606,-0.01634478010237217,-0.019463134929537773
688.0,0.0,0.0,0.0,0.0,0.0,0.0,-0.04719393700361252,0.01067258883267641,0.059993937611579895,0.9985166192054749,-0.04479121416807175,-0.020972738042473793,-0.022768301889300346
689.0,0.0,0.0,0.0,0.0,0.0,0.0,-0.10515262186527252,0.015929872170090675,0.06840188056230545,0.9981029033660889,-0.04815711826086044,-0.026681549847126007,-0.027562934905290604
690.0,0.0,0.0,0.0,0.0,0.0,0.0,-0.10556239634752274,0.03161776065826416,0.05764061585068703,0.9978219270706177,-0.04992583021521568,-0.029679447412490845,-0.031284578144550323
691.0,0.0,0.0,0.0,0.0,0.0,0.0,-0.08260302245616913,0.014135132543742657,0.03814129903912544,0.9977800250053406,-0.04916074126958847,-0.029043098911643028,-0.03428668901324272
692.0,0.0,0.0,0.0,0.0,0.0,0.0,-0.04820377752184868,0.018110834062099457,0.023671966046094894,0.9979381561279297,-0.045625507831573486,-0.02671419456601143,-0.03638087213039398
693.0,0.0,0.0,0.0,0.0,0.0,0.0,-0.04751142859458923,0.03056356869637966,0.02677546627819538,0.9982126355171204,-0.04043203592300415,-0.023381315171718597,-0.037287358194589615
694.0,0.0,0.0,0.0,0.0,0.0,0.0,-0.04029535502195358,0.0065761227160692215,0.011826022528111935,0.9985989332199097,-0.03491120785474777,-0.017120542004704475,-0.03588439151644707
695.0,0.0,0.0,0.0,0.0,0.0,0.0,0.01273434329777956,-0.03370283171534538,0.017078997567296028,0.999119222164154,-0.02716009132564068,-0.009261873550713062,-0.03062114492058754
696.0,0.0,0.0,0.0,0.0,0.0,0.0,0.06991218030452728,-0.059387169778347015,0.01214599423110485,0.9994572401046753,-0.020241528749465942,0.0010665612062439322,-0.025969427078962326
697.0,0.0,0.0,0.0,0.0,0.0,0.0,0.04815250262618065,-0.06322192400693893,-0.016802562400698662,0.9995421767234802,-0.014314829371869564,0.012698529288172722,-0.023435521870851517
698.0,0.0,0.0,0.0,0.0,0.0,0.0,0.038849495351314545,-0.03663196787238121,-0.019472889602184296,0.9994686245918274,-0.008785348385572433,0.02162241004407406,-0.02275485172867775
699.0,0.0,0.0,0.0,0.0,0.0,0.0,0.05038142949342728,-0.05704416334629059,-0.017776694148778915,0.9993710517883301,-0.004097932018339634,0.026480508968234062,-0.023227509111166
700.0,0.0,0.0,0.0,0.0,0.0,0.0,0.025912383571267128,-0.04473496228456497,-0.01871376670897007,0.9992755651473999,-0.0017121345736086369,0.028964092954993248,-0.024625249207019806
701.0,0.0,0.0,0.0,0.0,0.0,0.0,0.006356476340442896,-0.009148439392447472,-0.041280537843704224,0.9991770386695862,-0.0006629872368648648,0.0314246229827404,-0.025638731196522713
702.0,0.0,0.0,0.0,0.0,0.0,0.0,-0.0010726377367973328,-0.029508287087082863,-0.0319247730076313,0.9990823864936829,-0.0006359597318805754,0.03353611379861832,-0.026633020490407944
703.0,0.0,0.0,0.0,0.0,0.0,0.0,0.013134553097188473,-0.035599175840616226,0.0008137062541209161,0.9990984797477722,-0.0014441513922065496,0.03373388573527336,-0.025731926783919334
704.0,0.0,0.0,0.0,0.0,0.0,0.0,0.007937094196677208,-0.007235239259898663,-0.01710088551044464,0.999154269695282,-0.001825712970457971,0.03330035135149956,-0.024051431566476822
705.0,0.0,0.0,0.0,0.0,0.0,0.0,-0.005261746700853109,-0.03875861316919327,0.0036315545439720154,0.9991381168365479,-0.0005580838187597692,0.0328410379588604,-0.02538037672638893
706.0,0.0,0.0,0.0,0.0,0.0,0.0,0.024707192555069923,-0.0218938197940588,-0.03414395824074745,0.9992924332618713,-0.0017225955380126834,0.028576435521245003,-0.024394599720835686
707.0,0.0,0.0,0.0,0.0,0.0,0.0,0.024925513193011284,-0.019916372373700142,-0.046301454305648804,0.999441921710968,-0.0026386319659650326,0.02397093176841736,-0.02311297506093979
708.0,0.0,0.0,0.0,0.0,0.0,0.0,0.003221461083739996,-0.01221403293311596,-0.0386541448533535,0.9996010065078735,-0.006076327059417963,0.016485033556818962,-0.022115811705589294
709.0,0.0,0.0,0.0,0.0,0.0,0.0,-0.04373069852590561,0.0029392612632364035,-0.0464673787355423,0.9996517300605774,-0.011079337447881699,0.00963194202631712,-0.021927425637841225
710.0,0.0,0.0,0.0,0.0,0.0,0.0,-0.10630521178245544,0.012614889070391655,0.022045865654945374,0.9996307492256165,-0.0155488271266222,0.004154149442911148,-0.02189406007528305
711.0,0.0,0.0,0.0,0.0,0.0,0.0,-0.07901384681463242,-0.013459168374538422,0.09972584247589111,0.9996134638786316,-0.016105204820632935,0.0003642287920229137,-0.02265857346355915
712.0,0.0,0.0,0.0,0.0,0.0,0.0,-0.05585895851254463,0.026366574689745903,0.01447093952447176,0.9996772408485413,-0.015764791518449783,0.0003132116107735783,-0.019921105355024338
713.0,0.0,0.0,0.0,0.0,0.0,0.0,-0.03347750008106232,0.0068090795539319515,-0.007971294224262238,0.9997129440307617,-0.012877952307462692,0.0008079665713012218,-0.02018854394555092
714.0,0.0,0.0,0.0,0.0,0.0,0.0,-0.015062845312058926,-0.01890801638364792,0.023893948644399643,0.9997511506080627,-0.011197159998118877,0.0012021004222333431,-0.019257593899965286
715.0,0.0,0.0,0.0,0.0,0.0,0.0,-0.020174842327833176,-0.0019278591498732567,0.029026160016655922,0.9997862577438354,-0.008201947435736656,0.00450221449136734,-0.018435511738061905
716.0,0.0,0.0,0.0,0.0,0.0,0.0,0.0009108858648687601,-0.01499573327600956,0.00869962852448225,0.9997839331626892,-0.003464393550530076,0.008741164579987526,-0.018542427569627762
717.0,0.0,0.0,0.0,0.0,0.0,0.0,0.0434991791844368,-0.024410218000411987,-0.030935142189264297,0.9997748136520386,-0.0005717674503102899,0.011373873800039291,-0.01790931634604931
718.0,0.0,0.0,0.0,0.0,0.0,0.0,0.05932791531085968,-0.04643961787223816,-0.03000544384121895,0.9997572302818298,0.0005668470403179526,0.01260185707360506,-0.018065957352519035
719.0,0.0,0.0,0.0,0.0,0.0,0.0,0.030380163341760635,-0.035532962530851364,-0.020724177360534668,0.999729335308075,-0.00033351060119457543,0.014588543213903904,-0.018118826672434807
720.0,0.0,0.0,0.0,0.0,0.0,0.0,-0.002230968326330185,0.00023883629182819277,-0.0003162765351589769,0.9996823072433472,-0.0015485957264900208,0.017193198204040527,-0.018366597592830658
721.0,0.0,0.0,0.0,0.0,0.0,0.0,-0.016920171678066254,-0.005908041261136532,0.03457299619913101,0.9996315240859985,-0.002339698374271393,0.017721088603138924,-0.020432956516742706
722.0,0.0,0.0,0.0,0.0,0.0,0.0,-0.015607079491019249,-0.00961841270327568,0.04911239817738533,0.9995877146720886,-0.0024474775418639183,0.019463619217276573,-0.02096807211637497
723.0,0.0,0.0,0.0,0.0,0.0,0.0,-0.011168176308274269,0.0009175901068374515,0.010139933787286282,0.9995046854019165,-0.0016077986219897866,0.023560432717204094,-0.020802369341254234
724.0,0.0,0.0,0.0,0.0,0.0,0.0,0.005027088336646557,0.0049994890578091145,-0.003789228852838278,0.9994367361068726,-0.00023414062161464244,0.02593056485056877,-0.021306468173861504
725.0,0.0,0.0,0.0,0.0,0.0,0.0,0.02266225963830948,-0.009627019055187702,-0.014646351337432861,0.9993985295295715,0.00109695119317621,0.026268374174833298,-0.02261478267610073
726.0,0.0,0.0,0.0,0.0,0.0,0.0,0.06605818122625351,-0.06406206637620926,-0.021736502647399902,0.9994500279426575,-0.0007515628240071237,0.022750945761799812,-0.02411508746445179
