,Position_X,Position_Y,Position_Z,Velocity_X,Velocity_Y,Velocity_Z,Acceleration_X,Acceleration_Y,Acceleration_Z,Quaterion_0,Quaterion_1,Quaterion_2,Quaterion_3
51.0,0.0,0.0,0.0,0.0,0.0,0.0,-0.024758601561188698,-0.008294865489006042,-0.012433722615242004,1.0,-1.0408340855860843e-17,2.6020852139652106e-18,-2.0816681711721685e-17
52.0,0.0,0.0,0.0,0.0,0.0,0.0,-0.01624476909637451,-0.010201603174209595,-0.019136788323521614,0.9999993443489075,-0.00021134555572643876,0.0008632714161649346,0.0007553298491984606
53.0,0.0,0.0,0.0,0.0,0.0,0.0,-0.010217045433819294,-0.006993721704930067,-0.0193632785230875,0.9999960660934448,-0.0001799179008230567,0.0015982931945472956,0.0022916714660823345
54.0,0.0,0.0,0.0,0.0,0.0,0.0,-0.0018706133123487234,0.0008080808911472559,-0.006392109207808971,0.9999935626983643,0.00021428929176181555,0.0020399335771799088,0.002946322550997138
55.0,0.0,0.0,0.0,0.0,0.0,0.0,0.0009623831720091403,-0.005033860448747873,-0.006259340327233076,0.9999951124191284,0.000569006719160825,0.0024254166055470705,0.0019004986388608813
56.0,0.0,0.0,0.0,0.0,0.0,0.0,0.003280408214777708,-0.008769489824771881,-0.013154087588191032,0.9999944567680359,0.0007807567017152905,0.0032167797908186913,0.00035256968112662435
57.0,0.0,0.0,0.0,0.0,0.0,0.0,0.016657091677188873,-0.027157889679074287,-0.024026567116379738,0.9999879002571106,0.0006081529427319765,0.004805563949048519,-0.0008332416764460504
58.0,0.0,0.0,0.0,0.0,0.0,0.0,0.07598783075809479,-0.041440196335315704,-0.05712180584669113,0.9999918341636658,-0.00110062665771693,0.0034742155112326145,0.0017633959650993347
59.0,0.0,0.0,0.0,0.0,0.0,0.0,0.0355033203959465,0.0103465486317873,0.024025307968258858,0.999992847442627,-0.0014386491384357214,0.0009384606964886189,0.0033645955845713615
60.0,0.0,0.0,0.0,0.0,0.0,0.0,-0.06627018004655838,0.009788927622139454,0.0319734551012516,0.9999898672103882,-0.0019943327642977238,0.0015735068591311574,0.0037192257586866617
61.0,0.0,0.0,0.0,0.0,0.0,0.0,-0.008545992895960808,-0.0005844695260748267,0.015328549779951572,0.999993622303009,-0.0012826061574742198,0.0015158505411818624,0.002966188360005617
62.0,0.0,0.0,0.0,0.0,0.0,0.0,0.01085681188851595,-0.010788289830088615,0.017400791868567467,0.9999946355819702,-0.0018885266035795212,0.0012886541662737727,0.002348591573536396
63.0,0.0,0.0,0.0,0.0,0.0,0.0,-0.1288153976202011,0.01838274858891964,0.03807275369763374,0.9999936819076538,-0.0015573876444250345,0.0031837986316531897,0.00020159136329311877
64.0,0.0,0.0,0.0,0.0,0.0,0.0,-0.04061627388000488,-0.005167683120816946,0.009941032156348228,0.9999890923500061,-0.0025634095072746277,0.003901662304997444,0.00028560953796841204
65.0,0.0,0.0,0.0,0.0,0.0,0.0,-0.0218010526150465,0.009245195426046848,0.01718849688768387,0.9999862909317017,-0.002496234839782119,0.004402313381433487,0.0013474125880748034
66.0,0.0,0.0,0.0,0.0,0.0,0.0,-0.0055100261233747005,0.0026081029791384935,0.0045034438371658325,0.9999820590019226,-0.0022088440600782633,0.004891782999038696,0.0026515109930187464
67.0,0.0,0.0,0.0,0.0,0.0,0.0,0.0033241980709135532,0.002113612834364176,1.9743986285902793e-06,0.9999757409095764,-0.0019102211808785796,0.005394259467720985,0.003969992510974407
68.0,0.0,0.0,0.0,0.0,0.0,0.0,0.014980020001530647,0.003353916807100177,-0.0016702088760212064,0.9999666213989258,-0.0015225100796669722,0.006036292761564255,0.005295764189213514
69.0,0.0,0.0,0.0,0.0,0.0,0.0,0.02341753989458084,0.00032589348847977817,-0.007527704816311598,0.9999606013298035,-0.000991970649920404,0.0065941219218075275,0.005859761964529753
70.0,0.0,0.0,0.0,0.0,0.0,0.0,0.027908336371183395,-0.005402551963925362,-0.014071526937186718,0.9999569058418274,-0.0005636165733449161,0.006903579458594322,0.006182163953781128
71.0,0.0,0.0,0.0,0.0,0.0,0.0,0.030634406954050064,-0.00907271821051836,-0.02356463298201561,0.9999555349349976,-0.0007514872122555971,0.006897482089698315,0.006384022068232298
72.0,0.0,0.0,0.0,0.0,0.0,0.0,0.029981166124343872,-0.002926150569692254,-0.010944368317723274,0.9999597668647766,-0.0009900589939206839,0.006398425437510014,0.006210041232407093
73.0,0.0,0.0,0.0,0.0,0.0,0.0,0.015780633315443993,0.005961572751402855,0.005414820741862059,0.9999688267707825,-0.0011198567226529121,0.005662438925355673,0.005391667131334543
74.0,0.0,0.0,0.0,0.0,0.0,0.0,0.002253425307571888,0.013238216750323772,0.010837635025382042,0.9999752640724182,-0.0011496219085529447,0.005187519360333681,0.004604869522154331
75.0,0.0,0.0,0.0,0.0,0.0,0.0,0.0033962891902774572,0.012441536411643028,0.014307474717497826,0.999976634979248,-0.0013638981617987156,0.005122693721204996,0.004315095953643322
76.0,0.0,0.0,0.0,0.0,0.0,0.0,0.009134120307862759,0.01084746140986681,0.012736442498862743,0.999975860118866,-0.0012769832974299788,0.005004052072763443,0.004642595071345568
77.0,0.0,0.0,0.0,0.0,0.0,0.0,0.008328350260853767,0.009056386537849903,0.014478083699941635,0.9999708533287048,-0.0011397063499316573,0.004776204004883766,0.005843115504831076
78.0,0.0,0.0,0.0,0.0,0.0,0.0,0.005527211353182793,0.011274900287389755,0.013703682459890842,0.9999620318412781,-0.0012321511749178171,0.0049886684864759445,0.007033940404653549
79.0,0.0,0.0,0.0,0.0,0.0,0.0,0.004221468232572079,0.0129260728135705,0.011484477669000626,0.9999557137489319,-0.0013442934723570943,0.0049300165846943855,0.007904775440692902
80.0,0.0,0.0,0.0,0.0,0.0,0.0,0.008275860920548439,0.0066328649409115314,0.002336011966690421,0.9999497532844543,-0.0010808100923895836,0.004868185613304377,0.008697784505784512
81.0,0.0,0.0,0.0,0.0,0.0,0.0,0.011899424716830254,0.0053607383742928505,-0.006726189982146025,0.9999436736106873,-0.0009572955896146595,0.004890903830528259,0.009368330240249634
82.0,0.0,0.0,0.0,0.0,0.0,0.0,0.0031691112089902163,0.004826964810490608,-0.0034639439545571804,0.9999490976333618,-0.00117406714707613,0.004951958078891039,0.00871244352310896
83.0,0.0,0.0,0.0,0.0,0.0,0.0,0.0005759764462709427,0.004731833003461361,-0.005659778136759996,0.9999522566795349,-0.0007260263664647937,0.004858705215156078,0.008447342552244663
84.0,0.0,0.0,0.0,0.0,0.0,0.0,0.006475106347352266,0.0009558677556924522,-0.015943821519613266,0.99995356798172,-0.000558135739993304,0.004910652991384268,0.008269919082522392
85.0,0.0,0.0,0.0,0.0,0.0,0.0,0.0077852956019341946,-0.0007681139395572245,-0.012037561275064945,0.9999565482139587,-0.00023039767984300852,0.004542774520814419,0.008134196512401104
86.0,0.0,0.0,0.0,0.0,0.0,0.0,6.240259244805202e-05,-0.0009282578248530626,-0.009420976974070072,0.9999508261680603,-0.0001957326749106869,0.004570955876260996,0.008795876987278461
87.0,0.0,0.0,0.0,0.0,0.0,0.0,-0.0014104670844972134,0.0008231073734350502,-0.01029660739004612,0.999946117401123,-0.0005533747607842088,0.004650040529668331,0.009265253320336342
88.0,0.0,0.0,0.0,0.0,0.0,0.0,-0.0011019404046237469,0.0015214913291856647,-0.006712053436785936,0.9999369382858276,-0.0009647732367739081,0.0050100162625312805,0.010001694783568382
89.0,0.0,0.0,0.0,0.0,0.0,0.0,0.002118390519171953,0.003293206449598074,0.001707643736153841,0.9999344944953918,-0.001078238245099783,0.005403894931077957,0.010034230537712574
90.0,0.0,0.0,0.0,0.0,0.0,0.0,0.0015498320572078228,-0.012848488055169582,-0.010539374314248562,0.9999344348907471,-0.0015211771242320538,0.006476917769759893,0.009319211356341839
91.0,0.0,0.0,0.0,0.0,0.0,0.0,0.053167566657066345,-0.031482990831136703,-0.053634777665138245,0.9999091625213623,-0.0028654448688030243,0.006207787897437811,0.011616344563663006
92.0,0.0,0.0,0.0,0.0,0.0,0.0,0.08447713404893875,0.0038031411822885275,0.0174722820520401,0.9999049305915833,-0.0031469427049160004,0.002845689421519637,0.01312202401459217
93.0,0.0,0.0,0.0,0.0,0.0,0.0,-0.06813488155603409,0.006767514161765575,0.0322454497218132,0.9999133944511414,-0.003944600000977516,0.0030297539196908474,0.01218295469880104
94.0,0.0,0.0,0.0,0.0,0.0,0.0,-0.03766945004463196,0.0023546891752630472,0.0016846009530127048,0.9999266266822815,-0.0043175555765628815,0.003696463303640485,0.010696707293391228
95.0,0.0,0.0,0.0,0.0,0.0,0.0,0.022326748818159103,-0.009968617931008339,0.023637011647224426,0.9999325275421143,-0.004926948808133602,0.0034071123227477074,0.009954306297004223
96.0,0.0,0.0,0.0,0.0,0.0,0.0,-6.701573875034228e-05,0.018846668303012848,0.02365127205848694,0.9999274015426636,-0.005021170247346163,0.0026615066453814507,0.010626433417201042
97.0,0.0,0.0,0.0,0.0,0.0,0.0,-0.038760557770729065,0.003934582229703665,0.015689486637711525,0.9999350309371948,-0.004571687895804644,0.003157916245982051,0.009952058084309101
98.0,0.0,0.0,0.0,0.0,0.0,0.0,-0.01679200492799282,0.00441496167331934,0.014166688546538353,0.9999253153800964,-0.004880585242062807,0.004286827519536018,0.010350944474339485
99.0,0.0,0.0,0.0,0.0,0.0,0.0,0.006564538460224867,0.009065628051757812,0.0014141678111627698,0.9999030828475952,-0.0040335762314498425,0.0047702849842607975,0.012440950609743595
100.0,0.0,0.0,0.0,0.0,0.0,0.0,0.01716740056872368,-0.005170960910618305,-0.0041031502187252045,0.9998874664306641,-0.0032298709265887737,0.005162305198609829,0.013709364458918571
101.0,0.0,0.0,0.0,0.0,0.0,0.0,0.034940894693136215,-0.010599841363728046,-0.02792138233780861,0.9998626708984375,-0.003755585290491581,0.0051891738548874855,0.015285666100680828
102.0,0.0,0.0,0.0,0.0,0.0,0.0,0.027873080223798752,-0.008665110915899277,-0.030403759330511093,0.999847412109375,-0.004153879825025797,0.0044381283223629,0.016377834603190422
103.0,0.0,0.0,0.0,0.0,0.0,0.0,0.015669316053390503,-0.001793081290088594,-0.008240501396358013,0.9998491406440735,-0.004224076401442289,0.0042493571527302265,0.01630207896232605
104.0,0.0,0.0,0.0,0.0,0.0,0.0,0.013433880172669888,0.003579972544685006,-0.005216644145548344,0.9998722076416016,-0.004894334357231855,0.0038106392603367567,0.014733529649674892
105.0,0.0,0.0,0.0,0.0,0.0,0.0,0.0049370029009878635,0.005941891111433506,-0.001971644349396229,0.9998970627784729,-0.0052781496196985245,0.0032535360660403967,0.012939606793224812
106.0,0.0,0.0,0.0,0.0,0.0,0.0,-0.005818242207169533,0.015764949843287468,0.014580171555280685,0.9999179840087891,-0.005140958819538355,0.0034024298656731844,0.01122573297470808
107.0,0.0,0.0,0.0,0.0,0.0,0.0,-0.009136144071817398,0.010517102666199207,0.013203893788158894,0.999929666519165,-0.005183229688555002,0.0035664914175868034,0.010055864229798317
108.0,0.0,0.0,0.0,0.0,0.0,0.0,-0.007301160134375095,0.00796064268797636,0.00600228738039732,0.9999231100082397,-0.00559558579698205,0.003686760552227497,0.0104331374168396
109.0,0.0,0.0,0.0,0.0,0.0,0.0,0.0017030156450346112,0.01022233534604311,0.0012893036473542452,0.9999050498008728,-0.005583954509347677,0.0036404819693416357,0.012058170512318611
110.0,0.0,0.0,0.0,0.0,0.0,0.0,-0.0008078002720139921,0.001582947326824069,-0.007242359220981598,0.9998707175254822,-0.005806367378681898,0.003602287033572793,0.014556867070496082
111.0,0.0,0.0,0.0,0.0,0.0,0.0,-0.0003939101879950613,0.005919062532484531,-0.00734224496409297,0.9998311400413513,-0.006268031895160675,0.0034389279317110777,0.016929710283875465
112.0,0.0,0.0,0.0,0.0,0.0,0.0,0.004977335687726736,0.007488603703677654,-0.0034522325731813908,0.9998250603675842,-0.006444750353693962,0.003556602168828249,0.01719408854842186
113.0,0.0,0.0,0.0,0.0,0.0,0.0,0.006238155998289585,0.008928694762289524,-0.0012013977393507957,0.999838650226593,-0.006728135980665684,0.0038746006321161985,0.01619734801352024
114.0,0.0,0.0,0.0,0.0,0.0,0.0,0.0013907410902902484,0.004288783296942711,-0.006281308364123106,0.999858558177948,-0.006566475611180067,0.0037920481991022825,0.015013768337666988
115.0,0.0,0.0,0.0,0.0,0.0,0.0,-8.657507714815438e-05,0.0035443229135125875,-0.001909191138111055,0.9998804926872253,-0.006619608029723167,0.0039183832705020905,0.013410852290689945
116.0,0.0,0.0,0.0,0.0,0.0,0.0,0.0006459513097070158,-2.7123449399368837e-05,0.0007694697706028819,0.9998966455459595,-0.006874744780361652,0.004087246488779783,0.011949335224926472
117.0,0.0,0.0,0.0,0.0,0.0,0.0,-0.008887861855328083,-0.0023115077055990696,-0.002690850291401148,0.999895453453064,-0.0072645689360797405,0.004159101285040379,0.011790399439632893
118.0,0.0,0.0,0.0,0.0,0.0,0.0,-0.014001348055899143,-0.002807390643283725,-0.0026637620758265257,0.9998792409896851,-0.007845891639590263,0.004327800124883652,0.012695216573774815
119.0,0.0,0.0,0.0,0.0,0.0,0.0,-0.008964301086962223,0.002874403726309538,-0.00022734046797268093,0.9998528957366943,-0.008309776894748211,0.004339801147580147,0.014364324510097504
120.0,0.0,0.0,0.0,0.0,0.0,0.0,-0.008730781264603138,0.0005758270272053778,0.0022072100546211004,0.9998325109481812,-0.008383414708077908,0.004279212094843388,0.015694020316004753
121.0,0.0,0.0,0.0,0.0,0.0,0.0,-0.010456688702106476,0.0021897051483392715,0.01005704514682293,0.9998253583908081,-0.008560308255255222,0.0045167081989347935,0.01598851941525936
122.0,0.0,0.0,0.0,0.0,0.0,0.0,-0.0018444721354171634,0.0001616767403902486,0.014740089885890484,0.9998530149459839,-0.00811983086168766,0.005460287444293499,0.014078516513109207
123.0,0.0,0.0,0.0,0.0,0.0,0.0,0.02558804489672184,-0.026401713490486145,-0.02674211375415325,0.9998549818992615,-0.008127909153699875,0.006900549866259098,0.013277458027005196
124.0,0.0,0.0,0.0,0.0,0.0,0.0,0.09488235414028168,-0.04968918114900589,-0.07311296463012695,0.9998158812522888,-0.010230476036667824,0.0041141933761537075,0.015705468133091927
125.0,0.0,0.0,0.0,0.0,0.0,0.0,0.005485351197421551,0.028982922434806824,0.06150616705417633,0.9998531937599182,-0.00884299911558628,0.0021567409858107567,0.014515833929181099
126.0,0.0,0.0,0.0,0.0,0.0,0.0,-0.07223489135503769,0.0025904292706400156,0.01816469058394432,0.9998503923416138,-0.01057943794876337,0.0035045528784394264,0.013229265809059143
127.0,0.0,0.0,0.0,0.0,0.0,0.0,0.01740287058055401,-0.01174637209624052,-0.011682642623782158,0.9998831152915955,-0.008907913230359554,0.0032368204556405544,0.011995675042271614
128.0,0.0,0.0,0.0,0.0,0.0,0.0,0.02336418814957142,-0.015744680538773537,0.00957323145121336,0.999879002571106,-0.01020300667732954,0.0027714038733392954,0.011410553008317947
129.0,0.0,0.0,0.0,0.0,0.0,0.0,-0.019986113533377647,0.013260451145470142,0.006724372506141663,0.999890148639679,-0.010007836855947971,0.0025836981367319822,0.010621964931488037
130.0,0.0,0.0,0.0,0.0,0.0,0.0,-0.028241824358701706,0.0035661302972584963,0.02510499395430088,0.9999024868011475,-0.009585557505488396,0.0035752085968852043,0.009507933631539345
131.0,0.0,0.0,0.0,0.0,0.0,0.0,0.02064497396349907,0.0009293608018197119,0.013131629675626755,0.9998981952667236,-0.00944821909070015,0.004109990317374468,0.009873718954622746
132.0,0.0,0.0,0.0,0.0,0.0,0.0,0.035984139889478683,-0.015253587625920773,-0.024971572682261467,0.9998841881752014,-0.009380624629557133,0.003644512500613928,0.011418935842812061
133.0,0.0,0.0,0.0,0.0,0.0,0.0,0.007568198721855879,-0.026055950671434402,-0.020900491625070572,0.9998724460601807,-0.009611045010387897,0.003656008979305625,0.012220327742397785
134.0,0.0,0.0,0.0,0.0,0.0,0.0,0.0047135683707892895,-0.004519362933933735,-0.0040574087761342525,0.999854564666748,-0.010081986896693707,0.003739335108548403,0.013238858431577682
135.0,0.0,0.0,0.0,0.0,0.0,0.0,0.015307866036891937,-0.014280427247285843,-0.00812423974275589,0.9998514652252197,-0.01074148714542389,0.0030859755352139473,0.013118802569806576
136.0,0.0,0.0,0.0,0.0,0.0,0.0,0.0035142763517796993,-0.01480722427368164,-0.015290485695004463,0.9998573660850525,-0.011784176342189312,0.0027106243651360273,0.011794134974479675
137.0,0.0,0.0,0.0,0.0,0.0,0.0,-0.014771221205592155,0.007907753810286522,0.009409449063241482,0.9998666048049927,-0.012649934738874435,0.0023615104146301746,0.010061887092888355
138.0,0.0,0.0,0.0,0.0,0.0,0.0,-0.01943732611835003,0.014895726926624775,0.024976134300231934,0.9998871088027954,-0.012750986963510513,0.0024373296182602644,0.0075629656203091145
139.0,0.0,0.0,0.0,0.0,0.0,0.0,-0.019206449389457703,0.00814804993569851,0.006421937607228756,0.9998953342437744,-0.012945786118507385,0.0030346254352480173,0.005704457405954599
140.0,0.0,0.0,0.0,0.0,0.0,0.0,-0.008910289965569973,0.007812724448740482,-0.00024864028091542423,0.9998858571052551,-0.013439998961985111,0.0035337014123797417,0.005929944105446339
141.0,0.0,0.0,0.0,0.0,0.0,0.0,0.001283529563806951,0.011526277288794518,0.0024986716452986,0.9998598694801331,-0.014390479773283005,0.004038689658045769,0.007540001533925533
142.0,0.0,0.0,0.0,0.0,0.0,0.0,0.004610602743923664,0.013079877942800522,-0.004699028562754393,0.9998220801353455,-0.01543845422565937,0.004373221192508936,0.009920584969222546
143.0,0.0,0.0,0.0,0.0,0.0,0.0,0.0003738881496246904,0.00931381806731224,-0.019875578582286835,0.9997795820236206,-0.01667274534702301,0.0045051779597997665,0.011939400807023048
144.0,0.0,0.0,0.0,0.0,0.0,0.0,0.003498990321531892,0.006166467908769846,-0.02331693284213543,0.9997188448905945,-0.019006183370947838,0.004590585827827454,0.013413181528449059
145.0,0.0,0.0,0.0,0.0,0.0,0.0,0.007746265735477209,0.011797921732068062,-0.017437294125556946,0.9996578693389893,-0.022119903936982155,0.004875567276030779,0.013080256059765816
146.0,0.0,0.0,0.0,0.0,0.0,0.0,-0.0006278738146647811,0.021367371082305908,-0.01833983138203621,0.9995993375778198,-0.02543404884636402,0.005759633611887693,0.011004863306879997
147.0,0.0,0.0,0.0,0.0,0.0,0.0,0.017881199717521667,0.03362399712204933,-0.005787652451545,0.9995551705360413,-0.027691228315234184,0.006268688011914492,0.009126110002398491
148.0,0.0,0.0,0.0,0.0,0.0,0.0,0.006835563573986292,0.0232982374727726,-0.008053713478147984,0.9994955062866211,-0.030146753415465355,0.006715648341923952,0.007405049167573452
149.0,0.0,0.0,0.0,0.0,0.0,0.0,-0.00632848497480154,0.03027375042438507,-0.010849528014659882,0.9994326233863831,-0.032157961279153824,0.007380848750472069,0.006765986327081919
150.0,0.0,0.0,0.0,0.0,0.0,0.0,0.0027689458802342415,0.03116595186293125,0.009794207289814949,0.999386191368103,-0.033412203192710876,0.007884100079536438,0.006979251746088266
151.0,0.0,0.0,0.0,0.0,0.0,0.0,0.013436383567750454,0.0310011375695467,0.011150555685162544,0.9993441700935364,-0.0343572236597538,0.008396999910473824,0.007776308339089155
152.0,0.0,0.0,0.0,0.0,0.0,0.0,-0.0018641740316525102,0.02831130474805832,0.004097627010196447,0.9993242025375366,-0.034535154700279236,0.009115708991885185,0.008683119900524616
153.0,0.0,0.0,0.0,0.0,0.0,0.0,-0.00606871722266078,0.030215153470635414,0.012507563456892967,0.9992691874504089,-0.03568821772933006,0.009557932615280151,0.009802796877920628
154.0,0.0,0.0,0.0,0.0,0.0,0.0,-0.015035171061754227,0.04968811944127083,0.033714089542627335,0.9992121458053589,-0.03720645606517792,0.00980497244745493,0.00971972942352295
155.0,0.0,0.0,0.0,0.0,0.0,0.0,-0.034569207578897476,0.06823540478944778,0.050588689744472504,0.9991959929466248,-0.03759538382291794,0.010913827456533909,0.008657879196107388
156.0,0.0,0.0,0.0,0.0,0.0,0.0,-0.02716720476746559,0.049415118992328644,0.03158269450068474,0.9991850852966309,-0.03754166513681412,0.012843672186136246,0.007404747419059277
157.0,0.0,0.0,0.0,0.0,0.0,0.0,-0.0010175419738516212,0.031104538589715958,0.01635480672121048,0.9991505742073059,-0.038148682564496994,0.014520077034831047,0.005672695115208626
158.0,0.0,0.0,0.0,0.0,0.0,0.0,-0.0034411372616887093,0.035001810640096664,0.02751772105693817,0.9990977644920349,-0.03894708305597305,0.015779821202158928,0.006129626650363207
159.0,0.0,0.0,0.0,0.0,0.0,0.0,-0.011465639807283878,0.05157211050391197,0.040828920900821686,0.9990025758743286,-0.04025015980005264,0.017854444682598114,0.007405377924442291
160.0,0.0,0.0,0.0,0.0,0.0,0.0,0.03653944656252861,0.03741389140486717,0.005494842771440744,0.9989895820617676,-0.039254672825336456,0.02005687542259693,0.008749766275286674
161.0,0.0,0.0,0.0,0.0,0.0,0.0,0.07045698910951614,-0.027686327695846558,-0.025417516008019447,0.9989516139030457,-0.03874789550900459,0.021527813747525215,0.01143126655369997
162.0,0.0,0.0,0.0,0.0,0.0,0.0,0.02960299700498581,0.001953756669536233,0.007592868525534868,0.9989191889762878,-0.03791158273816109,0.02318665198981762,0.013614377938210964
163.0,0.0,0.0,0.0,0.0,0.0,0.0,0.024617718532681465,0.004575865343213081,0.014027116820216179,0.9988946914672852,-0.03694906458258629,0.025234494358301163,0.014409857802093029
164.0,0.0,0.0,0.0,0.0,0.0,0.0,0.06053835153579712,-0.01146533340215683,-0.008787917904555798,0.9989423155784607,-0.035711031407117844,0.026110650971531868,0.012534240260720253
165.0,0.0,0.0,0.0,0.0,0.0,0.0,0.06551232933998108,-0.02010932005941868,0.00024958187714219093,0.999037504196167,-0.03439626842737198,0.025747818872332573,0.00884950626641512
166.0,0.0,0.0,0.0,0.0,0.0,0.0,0.03531903773546219,-0.02392139472067356,0.0029010807629674673,0.9991447925567627,-0.032900549471378326,0.024563128128647804,0.0048694368451833725
167.0,0.0,0.0,0.0,0.0,0.0,0.0,0.011360366828739643,-0.023731542751193047,0.010798267088830471,0.999212920665741,-0.03181908279657364,0.023654630407691002,0.0012973168632015586
168.0,0.0,0.0,0.0,0.0,0.0,0.0,0.026532143354415894,-0.035121768712997437,-0.01534278318285942,0.9992663860321045,-0.030900830402970314,0.022624703124165535,2.6965504730469547e-05
169.0,0.0,0.0,0.0,0.0,0.0,0.0,0.02959364652633667,-0.055891167372465134,-0.056760549545288086,0.999239981174469,-0.03176264837384224,0.02225651778280735,0.0039034399669617414
170.0,0.0,0.0,0.0,0.0,0.0,0.0,0.032729364931583405,-0.028876913711428642,-0.04728074371814728,0.9991845488548279,-0.0325370654463768,0.0219272393733263,0.009534412994980812
171.0,0.0,0.0,0.0,0.0,0.0,0.0,0.035843588411808014,0.0007841269834898412,-0.027361219748854637,0.9991568326950073,-0.03262943774461746,0.021221673116087914,0.013068221509456635
172.0,0.0,0.0,0.0,0.0,0.0,0.0,0.02797938510775566,-0.027281511574983597,-0.060491349548101425,0.9991135597229004,-0.03391232714056969,0.020329032093286514,0.0144500732421875
173.0,0.0,0.0,0.0,0.0,0.0,0.0,0.030500855296850204,-0.03072592243552208,-0.07074092328548431,0.9990906119346619,-0.035488735884428024,0.018938357010483742,0.014140548184514046
174.0,0.0,0.0,0.0,0.0,0.0,0.0,0.02721535973250866,0.000714602880179882,-0.030279474332928658,0.9991087913513184,-0.035988856106996536,0.01722252368927002,0.013777080923318863
175.0,0.0,0.0,0.0,0.0,0.0,0.0,0.013148555532097816,0.0036849535536020994,-0.015275121666491032,0.9991138577461243,-0.03609132766723633,0.015537446364760399,0.01508888229727745
176.0,0.0,0.0,0.0,0.0,0.0,0.0,0.012518356554210186,0.006697959266602993,-0.019758442416787148,0.9990938901901245,-0.03630908206105232,0.013486159965395927,0.01763644441962242
177.0,0.0,0.0,0.0,0.0,0.0,0.0,0.0016740132123231888,0.006425333209335804,-0.007913902401924133,0.9990602731704712,-0.03643668442964554,0.011654834263026714,0.020376630127429962
178.0,0.0,0.0,0.0,0.0,0.0,0.0,0.005794306751340628,0.007051313295960426,-0.0039647468365728855,0.9990235567092896,-0.03647986799478531,0.009984809905290604,0.022833000868558884
179.0,0.0,0.0,0.0,0.0,0.0,0.0,0.002836506348103285,0.02352004311978817,-0.00717197684571147,0.9990360140800476,-0.03559514507651329,0.00755354855209589,0.024556053802371025
180.0,0.0,0.0,0.0,0.0,0.0,0.0,-0.01400148868560791,0.012187228538095951,0.011999418027698994,0.9991101026535034,-0.03383335471153259,0.004507008939981461,0.024779077619314194
181.0,0.0,0.0,0.0,0.0,0.0,0.0,-0.02652265876531601,-0.0140849519520998,0.004031203221529722,0.9990964531898499,-0.03507009893655777,0.0025668952148407698,0.02386661060154438
182.0,0.0,0.0,0.0,0.0,0.0,0.0,-0.012320819310843945,0.026001274585723877,0.0017250963719561696,0.9991152882575989,-0.035774365067481995,0.0003760445106308907,0.02211347594857216
183.0,0.0,0.0,0.0,0.0,0.0,0.0,-0.004462935961782932,-0.007178516127169132,-1.3219069842307363e-05,0.9991304874420166,-0.036281801760196686,-0.0016978038474917412,0.020474113523960114
184.0,0.0,0.0,0.0,0.0,0.0,0.0,-0.011820687912404537,-0.023425716906785965,-0.02403533272445202,0.9990679621696472,-0.038719724863767624,-0.003260798053815961,0.01880493201315403
185.0,0.0,0.0,0.0,0.0,0.0,0.0,-0.013722781091928482,0.012267598882317543,-0.021839044988155365,0.9989973902702332,-0.04101097583770752,-0.004597400780767202,0.017357978969812393
186.0,0.0,0.0,0.0,0.0,0.0,0.0,0.012402723543345928,0.0015329107409343123,-0.013469954952597618,0.9989162683486938,-0.04266589879989624,-0.006861959584057331,0.0172911174595356
187.0,0.0,0.0,0.0,0.0,0.0,0.0,0.010651192627847195,-0.022395694628357887,-0.026562223210930824,0.9987775683403015,-0.04552017152309418,-0.009023750200867653,0.017040152102708817
188.0,0.0,0.0,0.0,0.0,0.0,0.0,0.021478304639458656,0.0076788198202848434,-0.00473288306966424,0.9986879825592041,-0.04677288979291916,-0.011681654490530491,0.01728256605565548
189.0,0.0,0.0,0.0,0.0,0.0,0.0,0.02478404901921749,0.05448351427912712,0.040678516030311584,0.998734712600708,-0.04443738982081413,-0.015303145162761211,0.017909137532114983
190.0,0.0,0.0,0.0,0.0,0.0,0.0,-0.02748919650912285,0.0718366801738739,0.06144752725958824,0.998931884765625,-0.03878447040915489,-0.018291400745511055,0.017207244411110878
191.0,0.0,0.0,0.0,0.0,0.0,0.0,-0.045696113258600235,0.05172152817249298,0.05422484129667282,0.9991540908813477,-0.03190774470567703,-0.02068273536860943,0.015650402754545212
192.0,0.0,0.0,0.0,0.0,0.0,0.0,-0.029910292476415634,-0.022512486204504967,0.0060591972433030605,0.9992403984069824,-0.028740637004375458,-0.022570475935935974,0.013534077443182468
193.0,0.0,0.0,0.0,0.0,0.0,0.0,-0.0036101529840379953,-0.036534618586301804,-0.01752048172056675,0.9992960095405579,-0.027053026482462883,-0.023609083145856857,0.010847106575965881
194.0,0.0,0.0,0.0,0.0,0.0,0.0,-0.010267101228237152,-0.015918917953968048,0.03930936008691788,0.9993218779563904,-0.025129511952400208,-0.025353780016303062,0.009055647067725658
195.0,0.0,0.0,0.0,0.0,0.0,0.0,-0.09350594133138657,0.027501460164785385,0.05342653766274452,0.9993627667427063,-0.023985734209418297,-0.02520924061536789,0.007952344603836536
196.0,0.0,0.0,0.0,0.0,0.0,0.0,-0.06199422851204872,-0.0007071288418956101,0.039236266165971756,0.9993945956230164,-0.023593086749315262,-0.02485499158501625,0.006051892414689064
197.0,0.0,0.0,0.0,0.0,0.0,0.0,-0.007936778478324413,-0.02304396964609623,0.016655562445521355,0.9994105100631714,-0.024098802357912064,-0.024064788594841957,0.004289071541279554
198.0,0.0,0.0,0.0,0.0,0.0,0.0,0.050365205854177475,-0.022786127403378487,-0.026150017976760864,0.9994394779205322,-0.023681828752160072,-0.023464325815439224,0.003035574220120907
199.0,0.0,0.0,0.0,0.0,0.0,0.0,0.07638881355524063,-0.030992401763796806,0.008093969896435738,0.9994421601295471,-0.021966496482491493,-0.024983901530504227,0.002838380867615342
200.0,0.0,0.0,0.0,0.0,0.0,0.0,-0.019012901932001114,0.025495804846286774,0.03808625042438507,0.9994639158248901,-0.020860102027654648,-0.02521658129990101,0.0011471242178231478
201.0,0.0,0.0,0.0,0.0,0.0,0.0,-0.02259068191051483,-0.018328925594687462,0.001158010447397828,0.9994724988937378,-0.020326664671301842,-0.02530466578900814,-0.0013637111987918615
202.0,0.0,0.0,0.0,0.0,0.0,0.0,-0.020826509222388268,-0.0449509397149086,-0.0235286895185709,0.9994094371795654,-0.022703854367136955,-0.02558293007314205,-0.0033306931145489216
203.0,0.0,0.0,0.0,0.0,0.0,0.0,-0.027535779401659966,-0.0290118046104908,-0.0017149265622720122,0.9992253184318542,-0.029006334021687508,-0.025934560224413872,-0.0059501356445252895
204.0,0.0,0.0,0.0,0.0,0.0,0.0,0.005882361903786659,-0.0728432685136795,-0.018288441002368927,0.9987483620643616,-0.041937828063964844,-0.026737932115793228,-0.005323884077370167
205.0,0.0,0.0,0.0,0.0,0.0,0.0,0.032192375510931015,0.003147069364786148,-0.008390992879867554,0.9979877471923828,-0.055864039808511734,-0.030004629865288734,0.0002744336088653654
206.0,0.0,0.0,0.0,0.0,0.0,0.0,-0.025908010080456734,0.12236300110816956,0.05209980905056,0.9974581599235535,-0.06308653950691223,-0.0325363390147686,0.006253400351852179
207.0,0.0,0.0,0.0,0.0,0.0,0.0,-0.02432204969227314,0.11070191115140915,0.10627011954784393,0.9973408579826355,-0.06460095196962357,-0.03243372216820717,0.009336098097264767
208.0,0.0,0.0,0.0,0.0,0.0,0.0,-0.05116993561387062,0.041590366512537,0.07219566404819489,0.9972378015518188,-0.06761583685874939,-0.02938167378306389,0.009080478921532631
209.0,0.0,0.0,0.0,0.0,0.0,0.0,-0.001660184352658689,0.024632928892970085,0.01505592092871666,0.9973069429397583,-0.06848617643117905,-0.024545425549149513,0.009291031397879124
210.0,0.0,0.0,0.0,0.0,0.0,0.0,0.06061697378754616,0.009328761138021946,0.026589054614305496,0.9974968433380127,-0.06734471768140793,-0.01951533928513527,0.009224086999893188
211.0,0.0,0.0,0.0,0.0,0.0,0.0,0.07668274641036987,0.02421724982559681,0.017232509329915047,0.997750461101532,-0.06464777141809464,-0.015651512891054153,0.008357939310371876
212.0,0.0,0.0,0.0,0.0,0.0,0.0,0.07907726615667343,0.037062957882881165,0.014018058776855469,0.9981939196586609,-0.05798933282494545,-0.012833036482334137,0.0089951753616333
213.0,0.0,0.0,0.0,0.0,0.0,0.0,0.06287579983472824,0.05299123749136925,0.03840135037899017,0.998820960521698,-0.04699889197945595,-0.009768974967300892,0.007299451157450676
214.0,0.0,0.0,0.0,0.0,0.0,0.0,0.0301533080637455,0.04979223012924194,0.035782426595687866,0.9994406700134277,-0.03268124535679817,-0.006034838035702705,0.003628402715548873
215.0,0.0,0.0,0.0,0.0,0.0,0.0,0.08179796487092972,0.009443054907023907,0.03227207437157631,0.9998648762702942,-0.015774643048644066,-0.004529354628175497,0.0012529324740171432
216.0,0.0,0.0,0.0,0.0,0.0,0.0,0.11043209582567215,-0.08960861712694168,-0.06296097487211227,0.9999687671661377,-0.0044057113118469715,-0.006203273311257362,0.002135223476216197
217.0,0.0,0.0,0.0,0.0,0.0,0.0,0.04081138223409653,-0.12856896221637726,-0.10958803445100784,0.9999683499336243,0.001772549469023943,-0.007372037507593632,0.0023763258941471577
218.0,0.0,0.0,0.0,0.0,0.0,0.0,-0.008258333429694176,-0.07137808203697205,-0.031897518783807755,0.9999589323997498,0.004993426147848368,-0.007558911573141813,0.0006111609400250018
219.0,0.0,0.0,0.0,0.0,0.0,0.0,-0.03203519433736801,0.01768389903008938,0.03980519250035286,0.9999352693557739,0.007619054988026619,-0.008247476071119308,-0.0018485867185518146
220.0,0.0,0.0,0.0,0.0,0.0,0.0,-0.018183358013629913,-0.012113464996218681,0.01953778974711895,0.9999042749404907,0.009547203779220581,-0.008726947009563446,-0.0049402969889342785
221.0,0.0,0.0,0.0,0.0,0.0,0.0,0.03585796803236008,-0.05395888909697533,-0.05287433788180351,0.9999041557312012,0.007821042090654373,-0.009481015615165234,-0.006386282853782177
222.0,0.0,0.0,0.0,0.0,0.0,0.0,0.08651154488325119,-0.057652588933706284,-0.0626169890165329,0.9999164342880249,0.004739158321171999,-0.011445395648479462,-0.003772844560444355
223.0,0.0,0.0,0.0,0.0,0.0,0.0,0.0182783380150795,-0.006934628821909428,-0.011950529180467129,0.999891459941864,0.0008537597022950649,-0.0145375682041049,-0.002306821057572961
224.0,0.0,0.0,0.0,0.0,0.0,0.0,-0.08220416307449341,0.05812765657901764,0.04747915640473366,0.9998593926429749,-0.0012385451700538397,-0.0162331722676754,-0.004021354019641876
225.0,0.0,0.0,0.0,0.0,0.0,0.0,-0.05545052886009216,0.03937821090221405,0.07585188746452332,0.999817967414856,-0.0003143067879136652,-0.018023885786533356,-0.006286852527409792
226.0,0.0,0.0,0.0,0.0,0.0,0.0,-0.04071548581123352,0.007390388287603855,0.02062695100903511,0.9997986555099487,0.0004934362950734794,-0.01807299256324768,-0.008720092475414276
227.0,0.0,0.0,0.0,0.0,0.0,0.0,-0.018567362800240517,-0.01245341170579195,-0.01827813684940338,0.9997699856758118,0.002727080835029483,-0.017677081748843193,-0.011844497174024582
228.0,0.0,0.0,0.0,0.0,0.0,0.0,-0.008840342052280903,-0.022682402282953262,-0.011729002930223942,0.9997462630271912,0.003016263246536255,-0.017341595143079758,-0.014064122922718525
229.0,0.0,0.0,0.0,0.0,0.0,0.0,-0.019773634150624275,0.0026758420281112194,-0.019703956320881844,0.9997269511222839,0.0026690419763326645,-0.017191201448440552,-0.015597897581756115
230.0,0.0,0.0,0.0,0.0,0.0,0.0,-0.025644805282354355,-0.03746138513088226,-0.04740222170948982,0.9997535943984985,0.0007079599308781326,-0.016501756384968758,-0.014843909069895744
231.0,0.0,0.0,0.0,0.0,0.0,0.0,-0.027375642210245132,-0.006436576135456562,-0.04315951094031334,0.9997902512550354,-0.001484487671405077,-0.015619401820003986,-0.013167341239750385
232.0,0.0,0.0,0.0,0.0,0.0,0.0,-0.015932021662592888,0.0011173704406246543,-0.03318113088607788,0.9998005032539368,-0.003109895158559084,-0.01590224727988243,-0.011680949479341507
233.0,0.0,0.0,0.0,0.0,0.0,0.0,-0.04635130614042282,0.002386746695265174,-0.03664736822247505,0.9998069405555725,-0.005230655428022146,-0.015153869986534119,-0.011372356675565243
234.0,0.0,0.0,0.0,0.0,0.0,0.0,-0.03864164650440216,-0.0016342943999916315,-0.036323416978120804,0.9997937679290771,-0.006875908467918634,-0.014315614476799965,-0.012668676674365997
235.0,0.0,0.0,0.0,0.0,0.0,0.0,0.0027928389608860016,-0.0291883684694767,-0.05854523926973343,0.9997576475143433,-0.010868886485695839,-0.013451840728521347,-0.013630311004817486
236.0,0.0,0.0,0.0,0.0,0.0,0.0,0.000996971852146089,-0.0012838351540267467,-0.032826296985149384,0.9997047185897827,-0.014112541452050209,-0.012781557627022266,-0.015099607408046722
237.0,0.0,0.0,0.0,0.0,0.0,0.0,0.0017316413577646017,-0.017966028302907944,-0.026323167607188225,0.999617338180542,-0.01913912408053875,-0.012518319301307201,-0.015561660751700401
238.0,0.0,0.0,0.0,0.0,0.0,0.0,0.01817096769809723,-0.008261525072157383,-0.04204278066754341,0.9994269013404846,-0.027489854022860527,-0.013896660879254341,-0.014055551029741764
239.0,0.0,0.0,0.0,0.0,0.0,0.0,-0.005229621659964323,0.023111073300242424,-0.012990090996026993,0.9991642236709595,-0.03576219454407692,-0.016110267490148544,-0.011515944264829159
240.0,0.0,0.0,0.0,0.0,0.0,0.0,-0.04396975040435791,0.03050961345434189,-0.0037679062224924564,0.9988833665847778,-0.0429098941385746,-0.017598720267415047,-0.008994650095701218
241.0,0.0,0.0,0.0,0.0,0.0,0.0,-0.019721342250704765,0.04038739576935768,-0.023676913231611252,0.9985955357551575,-0.048826441168785095,-0.019703343510627747,-0.005878050811588764
242.0,0.0,0.0,0.0,0.0,0.0,0.0,-0.013161538168787956,0.08458096534013748,0.03152532875537872,0.9985160231590271,-0.04965456202626228,-0.02182687632739544,-0.0048812455497682095
243.0,0.0,0.0,0.0,0.0,0.0,0.0,-0.03419971093535423,0.013404713943600655,0.013048763386905193,0.9983254671096802,-0.0526932030916214,-0.023187102749943733,-0.005720194894820452
244.0,0.0,0.0,0.0,0.0,0.0,0.0,-0.022079648450016975,0.00579253863543272,-0.021025460213422775,0.998120903968811,-0.05632629990577698,-0.02338697388768196,-0.005922385957092047
245.0,0.0,0.0,0.0,0.0,0.0,0.0,0.02754494734108448,0.0518762581050396,0.02761046215891838,0.9981013536453247,-0.055777281522750854,-0.02557402476668358,-0.005241937004029751
246.0,0.0,0.0,0.0,0.0,0.0,0.0,-0.013643378391861916,0.010166225023567677,0.012128407135605812,0.9980229139328003,-0.05660267546772957,-0.02701025828719139,-0.004245830234140158
247.0,0.0,0.0,0.0,0.0,0.0,0.0,-0.0025919449981302023,0.037553220987319946,0.01575644128024578,0.9980666041374207,-0.05475893244147301,-0.029264790937304497,-0.0028144665993750095
248.0,0.0,0.0,0.0,0.0,0.0,0.0,-0.010078090243041515,0.04817143827676773,0.06271268427371979,0.9982486963272095,-0.050020791590213776,-0.031468216329813004,-0.0026936724316328764
249.0,0.0,0.0,0.0,0.0,0.0,0.0,0.0056133391335606575,0.02668076567351818,0.03484441339969635,0.9984412789344788,-0.04436003789305687,-0.033741772174835205,-0.0030223343055695295
250.0,0.0,0.0,0.0,0.0,0.0,0.0,-0.016096755862236023,0.0012227834668010473,0.027043987065553665,0.9986899495124817,-0.0364452600479126,-0.035803746432065964,-0.0029661362059414387
251.0,0.0,0.0,0.0,0.0,0.0,0.0,-0.06501476466655731,0.009351510554552078,0.04759801924228668,0.9988875389099121,-0.02905135042965412,-0.0369621142745018,-0.0037122881039977074
252.0,0.0,0.0,0.0,0.0,0.0,0.0,-0.04505418986082077,-0.004685908555984497,0.04439658671617508,0.9990170001983643,-0.02186022698879242,-0.038195062428712845,-0.005439714062958956
253.0,0.0,0.0,0.0,0.0,0.0,0.0,-0.026801330968737602,-0.031106894835829735,0.030186161398887634,0.9990461468696594,-0.01674734055995941,-0.03973362222313881,-0.00695606367662549
254.0,0.0,0.0,0.0,0.0,0.0,0.0,-0.02100052498281002,-0.005308361724019051,0.015535123646259308,0.9990493655204773,-0.012579608708620071,-0.04089426249265671,-0.008365066722035408
255.0,0.0,0.0,0.0,0.0,0.0,0.0,0.0012673375895246863,0.0018209738191217184,0.03786515071988106,0.9990351796150208,-0.006782397162169218,-0.042445894330739975,-0.009048286825418472
256.0,0.0,0.0,0.0,0.0,0.0,0.0,0.004853666760027409,-0.0349728949368,0.006371104158461094,0.9990129470825195,-0.002215762622654438,-0.04382989555597305,-0.006925368681550026
257.0,0.0,0.0,0.0,0.0,0.0,0.0,-0.017838038504123688,-0.0015758125809952617,0.010523339733481407,0.9990115761756897,0.0035150693729519844,-0.04402962699532509,-0.004969741217792034
258.0,0.0,0.0,0.0,0.0,0.0,0.0,0.008599493652582169,-0.021723175421357155,0.028555527329444885,0.9989779591560364,0.008470294065773487,-0.04427555203437805,-0.00339117250405252
259.0,0.0,0.0,0.0,0.0,0.0,0.0,0.01959143579006195,-0.0273481123149395,-0.006818362977355719,0.9989433288574219,0.011670148931443691,-0.04442476108670235,-0.001530586974695325
260.0,0.0,0.0,0.0,0.0,0.0,0.0,0.00948798656463623,-0.04326224699616432,-0.014720368199050426,0.9988856315612793,0.014475989155471325,-0.04490580037236214,-0.0013131567975506186
261.0,0.0,0.0,0.0,0.0,0.0,0.0,0.009341971948742867,-0.032679591327905655,-0.005537119694054127,0.9988366961479187,0.016839880496263504,-0.04516240209341049,-0.0016212271293625236
262.0,0.0,0.0,0.0,0.0,0.0,0.0,0.009964698925614357,-0.015479644760489464,-0.0007215767982415855,0.998746395111084,0.019794514402747154,-0.04589608684182167,-0.002884599147364497
263.0,0.0,0.0,0.0,0.0,0.0,0.0,-0.0033486932516098022,-0.003350940067321062,0.027860518544912338,0.9986364841461182,0.02356811985373497,-0.04634643718600273,-0.004638473503291607
264.0,0.0,0.0,0.0,0.0,0.0,0.0,4.8398123908555135e-05,-0.01589955762028694,-0.004517876077443361,0.9985764622688293,0.02624310739338398,-0.04593513906002045,-0.006817122921347618
265.0,0.0,0.0,0.0,0.0,0.0,0.0,0.03059312328696251,-0.046657733619213104,-0.03620271384716034,0.9984811544418335,0.028237873688340187,-0.046697624027729034,-0.007598943077027798
266.0,0.0,0.0,0.0,0.0,0.0,0.0,0.022093435749411583,-0.05038544535636902,-0.026873761788010597,0.9984828233718872,0.028295407071709633,-0.04690023884177208,-0.005657096393406391
267.0,0.0,0.0,0.0,0.0,0.0,0.0,-0.0010425691725686193,-0.023743227124214172,-0.022093305364251137,0.9985076785087585,0.027682792395353317,-0.04694589972496033,-0.0034938883036375046
268.0,0.0,0.0,0.0,0.0,0.0,0.0,-0.02476884052157402,-0.001437376020476222,0.0028302883729338646,0.9985756874084473,0.027223525568842888,-0.04582970589399338,-0.0024455441161990166
269.0,0.0,0.0,0.0,0.0,0.0,0.0,0.0010153772309422493,0.004406159743666649,0.016545312479138374,0.998579204082489,0.02769872359931469,-0.045464131981134415,-0.0023807298857718706
270.0,0.0,0.0,0.0,0.0,0.0,0.0,0.03017476759850979,-0.026561614125967026,-0.02072230540215969,0.998577356338501,0.02740582637488842,-0.04567546024918556,-0.0024136791471391916
271.0,0.0,0.0,0.0,0.0,0.0,0.0,0.016261957585811615,-0.02359578013420105,-0.013816487975418568,0.998561441898346,0.02738281525671482,-0.04594053328037262,-0.0038179662078619003
272.0,0.0,0.0,0.0,0.0,0.0,0.0,-0.01717897690832615,-0.028002548962831497,-0.011092456057667732,0.9986178874969482,0.02664702571928501,-0.04484079033136368,-0.006474913097918034
273.0,0.0,0.0,0.0,0.0,0.0,0.0,-0.009721051901578903,-0.02820754237473011,-0.02006525918841362,0.9987001419067383,0.025346117094159126,-0.04336676001548767,-0.008670710027217865
274.0,0.0,0.0,0.0,0.0,0.0,0.0,0.02200189419090748,0.01910506561398506,0.020134801045060158,0.9987043142318726,0.025250734761357307,-0.04331062734127045,-0.008753831498324871
275.0,0.0,0.0,0.0,0.0,0.0,0.0,0.00020573576330207288,0.012605352327227592,0.04219896346330643,0.9986698627471924,0.025483684614300728,-0.043919071555137634,-0.008978945203125477
276.0,0.0,0.0,0.0,0.0,0.0,0.0,-0.036260936409235,-0.02341049537062645,-0.01066402718424797,0.9987356662750244,0.023844674229621887,-0.043282218277454376,-0.009260325692594051
277.0,0.0,0.0,0.0,0.0,0.0,0.0,-0.024516234174370766,-0.010580020025372505,-0.002409094711765647,0.9988381266593933,0.021729527041316032,-0.04197080433368683,-0.009468081407248974
278.0,0.0,0.0,0.0,0.0,0.0,0.0,-0.00875385757535696,-0.01628694124519825,0.01044633612036705,0.9989550113677979,0.018909374251961708,-0.04043247550725937,-0.00984133593738079
279.0,0.0,0.0,0.0,0.0,0.0,0.0,-0.015754634514451027,-0.008614159189164639,6.193706212798133e-05,0.9990956783294678,0.016591837629675865,-0.037752676755189896,-0.010357612743973732
280.0,0.0,0.0,0.0,0.0,0.0,0.0,-0.0003978943859692663,0.030408238992094994,0.016715848818421364,0.999150812625885,0.016413314267992973,-0.03620750084519386,-0.010827784426510334
281.0,0.0,0.0,0.0,0.0,0.0,0.0,0.00708293542265892,0.0174416471272707,0.03231733664870262,0.9991366863250732,0.0164601169526577,-0.03615053743124008,-0.012192937545478344
282.0,0.0,0.0,0.0,0.0,0.0,0.0,0.011606301181018353,0.006412590853869915,0.014122774824500084,0.9990978837013245,0.01749834045767784,-0.036078572273254395,-0.013992080464959145
283.0,0.0,0.0,0.0,0.0,0.0,0.0,-0.021254142746329308,-0.023372413590550423,-0.005371886771172285,0.9990761280059814,0.017434539273381233,-0.03552231192588806,-0.0167649295181036
284.0,0.0,0.0,0.0,0.0,0.0,0.0,-0.019787432625889778,-0.00978904403746128,0.014037815853953362,0.9990755319595337,0.016514351591467857,-0.0347747877240181,-0.019150275737047195
285.0,0.0,0.0,0.0,0.0,0.0,0.0,-0.005910719279199839,-0.03851065784692764,-0.015631239861249924,0.9991301894187927,0.013871452771127224,-0.033905696123838425,-0.019930722191929817
286.0,0.0,0.0,0.0,0.0,0.0,0.0,0.008291744627058506,-0.0041085099801421165,-0.012240542098879814,0.9991542100906372,0.012833771295845509,-0.03405551612377167,-0.019149797037243843
287.0,0.0,0.0,0.0,0.0,0.0,0.0,-0.03673016279935837,-0.004817084409296513,0.013765349052846432,0.9991758465766907,0.011492823250591755,-0.034199073910713196,-0.01860896311700344
288.0,0.0,0.0,0.0,0.0,0.0,0.0,-0.07868438214063644,-0.0007149289012886584,-0.00011140866990899667,0.9992307424545288,0.008216545917093754,-0.03359707072377205,-0.018482567742466927
289.0,0.0,0.0,0.0,0.0,0.0,0.0,-0.08114716410636902,0.001148876966908574,0.010197152383625507,0.9992982745170593,0.003414866980165243,-0.03144655376672745,-0.02006586082279682
290.0,0.0,0.0,0.0,0.0,0.0,0.0,-0.02677421271800995,-0.01632503792643547,-0.00020759427570737898,0.9993414878845215,-0.0062783448956906796,-0.028536101803183556,-0.021517183631658554
291.0,0.0,0.0,0.0,0.0,0.0,0.0,-0.02154141291975975,0.00434949342161417,-0.012011689133942127,0.999308705329895,-0.014896835200488567,-0.02425205707550049,-0.02391297183930874
292.0,0.0,0.0,0.0,0.0,0.0,0.0,-0.04233730211853981,0.041795242577791214,0.02510477788746357,0.9993098378181458,-0.01790139451622963,-0.018059199675917625,-0.027082271873950958
293.0,0.0,0.0,0.0,0.0,0.0,0.0,-0.03723423182964325,0.08005021512508392,0.08248715847730637,0.9993429780006409,-0.01684281788766384,-0.013128646649420261,-0.029289409518241882
294.0,0.0,0.0,0.0,0.0,0.0,0.0,-0.023911654949188232,0.09792841225862503,0.07338173687458038,0.999423623085022,-0.011634728871285915,-0.00909358635544777,-0.030568357557058334
295.0,0.0,0.0,0.0,0.0,0.0,0.0,0.011059495620429516,-0.06489713490009308,-0.025325147435069084,0.9994532465934753,-0.010137996636331081,-0.0047899046912789345,-0.031108049675822258
296.0,0.0,0.0,0.0,0.0,0.0,0.0,0.03964214399456978,-0.0029468180146068335,-0.025590023025870323,0.999525249004364,-0.010555565357208252,8.425259147770703e-05,-0.02894854173064232
297.0,0.0,0.0,0.0,0.0,0.0,0.0,0.07083394378423691,0.06063080206513405,0.013731584884226322,0.9996528625488281,-0.004465416539460421,0.0019929183181375265,-0.02589000016450882
298.0,0.0,0.0,0.0,0.0,0.0,0.0,0.05943138524889946,-0.040036529302597046,0.013028076849877834,0.9997159838676453,-0.0031756130047142506,0.003705257549881935,-0.023326750844717026
299.0,0.0,0.0,0.0,0.0,0.0,0.0,0.029564939439296722,0.009335414506494999,-0.0025423334445804358,0.9997595548629761,-0.0026801335625350475,0.005937769077718258,-0.02094034105539322
300.0,0.0,0.0,0.0,0.0,0.0,0.0,0.03602858632802963,0.03878720477223396,0.039605122059583664,0.99973064661026,0.00223570317029953,0.006774195469915867,-0.022087300196290016
301.0,0.0,0.0,0.0,0.0,0.0,0.0,0.040863197296857834,-0.003792803268879652,-0.00016633718041703105,0.9996255040168762,0.005546354688704014,0.0070183430798351765,-0.02586602419614792
302.0,0.0,0.0,0.0,0.0,0.0,0.0,0.030603785067796707,-0.010498938150703907,-0.01016528531908989,0.9994388818740845,0.00904287863522768,0.007182533387094736,-0.03144120052456856
303.0,0.0,0.0,0.0,0.0,0.0,0.0,0.02422548271715641,-0.014747219160199165,0.018435951322317123,0.9992954134941101,0.011515729129314423,0.007352773565798998,-0.03495936095714569
304.0,0.0,0.0,0.0,0.0,0.0,0.0,0.0016342918388545513,-0.015449744649231434,-0.010013091377913952,0.999248743057251,0.012390059418976307,0.008252673782408237,-0.035786136984825134
305.0,0.0,0.0,0.0,0.0,0.0,0.0,0.012442932464182377,-0.028042133897542953,-0.03213794529438019,0.9993159770965576,0.012340731918811798,0.009786328300833702,-0.03346455469727516
306.0,0.0,0.0,0.0,0.0,0.0,0.0,0.03434344753623009,0.0017986053135246038,-0.008904273621737957,0.9994164109230042,0.013305614702403545,0.010415807366371155,-0.029684538021683693
307.0,0.0,0.0,0.0,0.0,0.0,0.0,0.00857732817530632,-0.012161033228039742,-0.02149656042456627,0.9994681477546692,0.013693484477698803,0.010939890518784523,-0.027503320947289467
308.0,0.0,0.0,0.0,0.0,0.0,0.0,0.029513657093048096,-0.033354826271533966,-0.055759165436029434,0.9994732737541199,0.013771865516901016,0.01011520903557539,-0.027588237076997757
309.0,0.0,0.0,0.0,0.0,0.0,0.0,0.03712984174489975,-0.014224182814359665,-0.057586558163166046,0.9994783401489258,0.013891537673771381,0.007975978776812553,-0.02804236114025116
310.0,0.0,0.0,0.0,0.0,0.0,0.0,0.002951363567262888,0.004164115525782108,-0.021784823387861252,0.9994203448295593,0.016633542254567146,0.005441583227366209,-0.029202794656157494
311.0,0.0,0.0,0.0,0.0,0.0,0.0,-0.049468036741018295,-0.0182054340839386,-0.014605022966861725,0.9994553327560425,0.016110792756080627,0.004717831499874592,-0.028415383771061897
312.0,0.0,0.0,0.0,0.0,0.0,0.0,-0.03626708686351776,0.0036392095498740673,-0.03145267069339752,0.9995810389518738,0.014924139715731144,0.0042955996468663216,-0.02443053387105465
313.0,0.0,0.0,0.0,0.0,0.0,0.0,-0.003907103557139635,0.0047201719135046005,-0.030478928238153458,0.999714732170105,0.013821447268128395,0.004251567646861076,-0.019011374562978745
314.0,0.0,0.0,0.0,0.0,0.0,0.0,0.005893012508749962,-0.03336887061595917,-0.04717893898487091,0.9998690485954285,0.009268507361412048,0.004874720703810453,-0.012335273437201977
315.0,0.0,0.0,0.0,0.0,0.0,0.0,-0.0013750542420893908,0.00590864010155201,-0.018749939277768135,0.9999662041664124,0.003582756035029888,0.0037924363277852535,-0.006373200099915266
316.0,0.0,0.0,0.0,0.0,0.0,0.0,-0.05544158071279526,0.046606287360191345,0.0104351956397295,0.9999865293502808,-0.0009634345187805593,0.002454133005812764,-0.004476787056773901
317.0,0.0,0.0,0.0,0.0,0.0,0.0,-0.04682417958974838,0.0774618461728096,0.03457345813512802,0.9999625086784363,-0.0016289444174617529,0.0012499626027420163,-0.008427640423178673
318.0,0.0,0.0,0.0,0.0,0.0,0.0,-0.013399656862020493,0.0523240901529789,0.049792103469371796,0.9999070167541504,0.0023232917301356792,-0.0008506719605065882,-0.013413343578577042
319.0,0.0,0.0,0.0,0.0,0.0,0.0,-0.038205336779356,0.012054288759827614,0.011515515856444836,0.9998369216918945,0.008195508271455765,-0.0025459984317421913,-0.015891138464212418
320.0,0.0,0.0,0.0,0.0,0.0,0.0,-0.048899780958890915,-0.0003002966404892504,0.01717427559196949,0.9997552633285522,0.014964030124247074,-0.0032898064237087965,-0.01595793291926384
321.0,0.0,0.0,0.0,0.0,0.0,0.0,-0.0466013178229332,0.010869967751204967,0.024754999205470085,0.9996628165245056,0.020220838487148285,-0.0038449489511549473,-0.01582946814596653
322.0,0.0,0.0,0.0,0.0,0.0,0.0,-0.008876577019691467,-0.0270675178617239,-0.052572254091501236,0.9995688796043396,0.02494874782860279,-0.003986961208283901,-0.01495705358684063
323.0,0.0,0.0,0.0,0.0,0.0,0.0,0.05062481760978699,-0.04502712935209274,0.07761744409799576,0.999462366104126,0.029133424162864685,-0.0050875297747552395,-0.014155431650578976
324.0,0.0,0.0,0.0,0.0,0.0,0.0,-0.00398932583630085,-0.03382784500718117,-0.016636939719319344,0.9993783831596375,0.030864866450428963,-0.006302303168922663,-0.015827670693397522
325.0,0.0,0.0,0.0,0.0,0.0,0.0,-0.03008848987519741,-0.06236777454614639,-0.06888280063867569,0.9994589686393738,0.026958471164107323,-0.005679908208549023,-0.01796668954193592
326.0,0.0,0.0,0.0,0.0,0.0,0.0,-0.018991369754076004,-0.03312893956899643,-0.06053810194134712,0.9995923638343811,0.019936280325055122,-0.003541660262271762,-0.020128469914197922
327.0,0.0,0.0,0.0,0.0,0.0,0.0,0.00011486933362903073,0.009144899435341358,-0.015272911638021469,0.9997197985649109,0.012608499266207218,-0.0011449947487562895,-0.020000141113996506
328.0,0.0,0.0,0.0,0.0,0.0,0.0,-0.0016780050937086344,-0.02833084762096405,-0.031249679625034332,0.999850332736969,0.0018469771603122354,0.0010570507729426026,-0.01717059686779976
329.0,0.0,0.0,0.0,0.0,0.0,0.0,-0.014252254739403725,0.024069536477327347,-0.030253931879997253,0.9998846054077148,-0.009247913025319576,0.0036791302263736725,-0.01147371344268322
330.0,0.0,0.0,0.0,0.0,0.0,0.0,0.008891776204109192,0.07847584784030914,0.047803252935409546,0.9998745918273926,-0.01287491898983717,0.0043105208314955235,-0.00814709160476923
331.0,0.0,0.0,0.0,0.0,0.0,0.0,-0.006022703368216753,0.010980552062392235,0.028838196769356728,0.9998095631599426,-0.017505168914794922,0.005137335043400526,-0.006934825796633959
332.0,0.0,0.0,0.0,0.0,0.0,0.0,0.014769035391509533,0.025313325226306915,-0.01837770640850067,0.9997608661651611,-0.020120520144701004,0.005840248893946409,-0.006261621136218309
333.0,0.0,0.0,0.0,0.0,0.0,0.0,0.05252973735332489,0.05213477090001106,0.04010401666164398,0.9998443126678467,-0.015421847812831402,0.006232064682990313,-0.005915368907153606
334.0,0.0,0.0,0.0,0.0,0.0,0.0,0.029090987518429756,0.03973589465022087,0.07312621921300888,0.9999572038650513,-0.005192575976252556,0.005892106331884861,-0.0048921857960522175
335.0,0.0,0.0,0.0,0.0,0.0,0.0,-0.04359361529350281,-0.012576752342283726,0.024847596883773804,0.9999668002128601,0.0024291009176522493,0.005584219470620155,-0.00542977312579751
336.0,0.0,0.0,0.0,0.0,0.0,0.0,-0.01910831779241562,-0.03465152159333229,-0.022068625316023827,0.999924898147583,0.00821403507143259,0.006145944353193045,-0.006705690175294876
337.0,0.0,0.0,0.0,0.0,0.0,0.0,0.03652821108698845,-0.05254971608519554,0.00831973273307085,0.9998672008514404,0.013223648071289062,0.006505351513624191,-0.006966811139136553
338.0,0.0,0.0,0.0,0.0,0.0,0.0,-0.0003427607298363,0.003786867717280984,0.049818266183137894,0.9998041391372681,0.01670398749411106,0.006916393991559744,-0.008046724833548069
339.0,0.0,0.0,0.0,0.0,0.0,0.0,-0.046392783522605896,-0.0038058776408433914,-0.017847195267677307,0.9997255206108093,0.019661929458379745,0.007646821439266205,-0.010187598876655102
340.0,0.0,0.0,0.0,0.0,0.0,0.0,-0.03502560779452324,-0.05223044380545616,-0.03468659520149231,0.9996587634086609,0.019905535504221916,0.009151667356491089,-0.014225877821445465
341.0,0.0,0.0,0.0,0.0,0.0,0.0,0.07401979714632034,-0.041069794446229935,-0.036382656544446945,0.9996699690818787,0.017935900017619133,0.01064307987689972,-0.014997509308159351
342.0,0.0,0.0,0.0,0.0,0.0,0.0,0.1288827657699585,-0.026293212547898293,-0.046015314757823944,0.999742329120636,0.016905052587389946,0.007957691326737404,-0.012887030839920044
343.0,0.0,0.0,0.0,0.0,0.0,0.0,-0.05059746652841568,0.0004214553046040237,-0.004743269179016352,0.9997749328613281,0.015203569084405899,0.007540934253484011,-0.012744052335619926
344.0,0.0,0.0,0.0,0.0,0.0,0.0,-0.0779358446598053,0.021724896505475044,0.008908702991902828,0.999735951423645,0.014969740994274616,0.008520515635609627,-0.0152206402271986
345.0,0.0,0.0,0.0,0.0,0.0,0.0,0.04190730303525925,-0.020834164693951607,-0.010767855681478977,0.9997150897979736,0.014772854745388031,0.007644417695701122,-0.01712043210864067
346.0,0.0,0.0,0.0,0.0,0.0,0.0,0.042801566421985626,-0.028417007997632027,-0.04624909907579422,0.9997242093086243,0.01406029425561428,0.006477486342191696,-0.017659272998571396
347.0,0.0,0.0,0.0,0.0,0.0,0.0,-0.011807721108198166,-0.01808827929198742,-0.0389956533908844,0.9997542500495911,0.013136056251823902,0.004772925283759832,-0.01720999926328659
348.0,0.0,0.0,0.0,0.0,0.0,0.0,-0.06239050254225731,-0.03532979637384415,-0.0047689336352050304,0.9997947812080383,0.008299099281430244,0.00286601553671062,-0.018257973715662956
349.0,0.0,0.0,0.0,0.0,0.0,0.0,-0.04132765531539917,-0.06625722348690033,-0.042067334055900574,0.9998160600662231,-0.005042861215770245,0.001147355535067618,-0.01847248151898384
350.0,0.0,0.0,0.0,0.0,0.0,0.0,0.03264942020177841,-0.043605562299489975,-0.05974114313721657,0.9996497631072998,-0.021810928359627724,-0.002808427205309272,-0.014707013964653015
351.0,0.0,0.0,0.0,0.0,0.0,0.0,0.002144572790712118,0.05542019382119179,0.02440921775996685,0.9993197321891785,-0.034622788429260254,-0.00866053719073534,-0.009287921711802483
352.0,0.0,0.0,0.0,0.0,0.0,0.0,-0.10192306339740753,0.07775910943746567,0.058044299483299255,0.9989190697669983,-0.044925447553396225,-0.009099607355892658,-0.007728272117674351
353.0,0.0,0.0,0.0,0.0,0.0,0.0,-0.05412841960787773,0.05244885012507439,0.006252103019505739,0.998534083366394,-0.053125131875276566,-0.007168807554990053,-0.007444864138960838
354.0,0.0,0.0,0.0,0.0,0.0,0.0,0.03364719823002815,0.14111317694187164,0.06086349114775658,0.9985285997390747,-0.053470429033041,-0.005793396849185228,-0.006999836768954992
355.0,0.0,0.0,0.0,0.0,0.0,0.0,0.06826066225767136,0.13731707632541656,0.09656709432601929,0.9988747239112854,-0.04642898216843605,-0.004975358489900827,-0.008213384076952934
356.0,0.0,0.0,0.0,0.0,0.0,0.0,0.06341590732336044,0.051598627120256424,0.05596240609884262,0.9991855621337891,-0.03902995213866234,-0.002478189067915082,-0.009944993071258068
357.0,0.0,0.0,0.0,0.0,0.0,0.0,0.055623576045036316,0.06742965430021286,0.04130130633711815,0.999567985534668,-0.02784646488726139,-0.00048600335139781237,-0.009416485205292702
358.0,0.0,0.0,0.0,0.0,0.0,0.0,0.07200907170772552,0.11006636172533035,0.13343317806720734,0.9998894333839417,-0.011848414316773415,-0.00034604824031703174,-0.008993721567094326
359.0,0.0,0.0,0.0,0.0,0.0,0.0,0.06250400096178055,0.05825277045369148,0.11239498853683472,0.9999723434448242,0.001800718018785119,-0.0008479461539536715,-0.007192512974143028
360.0,0.0,0.0,0.0,0.0,0.0,0.0,0.10110560804605484,-0.09455889463424683,-0.014214052818715572,0.999905526638031,0.01200211700052023,-0.00466521829366684,-0.0048457421362400055
361.0,0.0,0.0,0.0,0.0,0.0,0.0,0.05973929166793823,-0.16330450773239136,-0.060722410678863525,0.9998853802680969,0.01266990415751934,-0.007797823753207922,-0.002858745399862528
362.0,0.0,0.0,0.0,0.0,0.0,0.0,0.029628189280629158,-0.005465084686875343,0.018900800496339798,0.9998361468315125,0.01424260251224041,-0.010980079881846905,-0.0020335789304226637
363.0,0.0,0.0,0.0,0.0,0.0,0.0,-0.01350240409374237,0.005825053434818983,0.058201443403959274,0.9997881054878235,0.014894604682922363,-0.013436847366392612,-0.004627520218491554
364.0,0.0,0.0,0.0,0.0,0.0,0.0,-0.0073497360572218895,-0.03442835435271263,0.00443186005577445,0.9997646808624268,0.013014761731028557,-0.01505491603165865,-0.008654111996293068
365.0,0.0,0.0,0.0,0.0,0.0,0.0,0.030766284093260765,-0.02176518179476261,-0.028922250494360924,0.9997281432151794,0.010178294964134693,-0.01749979890882969,-0.011590502224862576
366.0,0.0,0.0,0.0,0.0,0.0,0.0,0.009020695462822914,0.02559085376560688,0.01505948044359684,0.9996486902236938,0.008569182828068733,-0.01982313022017479,-0.015381820499897003
367.0,0.0,0.0,0.0,0.0,0.0,0.0,-0.03420424833893776,0.02426796965301037,0.025812620297074318,0.9995813369750977,0.006858693435788155,-0.021726498380303383,-0.017844662070274353
368.0,0.0,0.0,0.0,0.0,0.0,0.0,-0.027590366080403328,0.03200146183371544,0.021788742393255234,0.999485433101654,0.009099557995796204,-0.02477993629872799,-0.018232272937893867
369.0,0.0,0.0,0.0,0.0,0.0,0.0,-0.07397614419460297,-0.008017780259251595,0.014014536514878273,0.9994402527809143,0.008869115263223648,-0.026770438998937607,-0.01800379902124405
370.0,0.0,0.0,0.0,0.0,0.0,0.0,-0.09099177271127701,-0.007885402999818325,-0.013145401142537594,0.9994161128997803,0.007347603794187307,-0.027559000998735428,-0.018814457580447197
371.0,0.0,0.0,0.0,0.0,0.0,0.0,-0.07439513504505157,0.008962608873844147,-0.012965872883796692,0.9994165301322937,0.007003904785960913,-0.028026029467582703,-0.0182262621819973
372.0,0.0,0.0,0.0,0.0,0.0,0.0,-0.066647969186306,-0.0053629521280527115,-0.00977213867008686,0.9993881583213806,0.006994700059294701,-0.028327766805887222,-0.019283201545476913
373.0,0.0,0.0,0.0,0.0,0.0,0.0,-0.06884940713644028,-0.0004883218789473176,-0.039252374321222305,0.9993425011634827,0.007473384961485863,-0.028302976861596107,-0.021403027698397636
374.0,0.0,0.0,0.0,0.0,0.0,0.0,-0.059351105242967606,-0.03199354186654091,-0.08179041743278503,0.9993216395378113,0.0073003447614610195,-0.02804509922862053,-0.02271910570561886
375.0,0.0,0.0,0.0,0.0,0.0,0.0,-0.029169024899601936,-0.00641178572550416,-0.05515320971608162,0.9992749691009521,0.008683735504746437,-0.028493063524365425,-0.023713411763310432
376.0,0.0,0.0,0.0,0.0,0.0,0.0,-0.04244425520300865,-0.009040096774697304,-0.0316455252468586,0.999215841293335,0.010169262997806072,-0.028775105252861977,-0.02522232010960579
377.0,0.0,0.0,0.0,0.0,0.0,0.0,-0.05276748910546303,-0.0432119183242321,-0.07809977233409882,0.999274492263794,0.00932526495307684,-0.027235964313149452,-0.024937298148870468
378.0,0.0,0.0,0.0,0.0,0.0,0.0,-0.017848333343863487,-0.03600732237100601,-0.09569761902093887,0.9993347525596619,0.008730190806090832,-0.027174117043614388,-0.02270486019551754
379.0,0.0,0.0,0.0,0.0,0.0,0.0,-0.011546975001692772,-0.01937011629343033,-0.055013399571180344,0.9993776679039001,0.008503886871039867,-0.02733243629336357,-0.020617051050066948
380.0,0.0,0.0,0.0,0.0,0.0,0.0,-0.021238654851913452,-0.01408431213349104,-0.04842003807425499,0.999397873878479,0.007655024528503418,-0.027939993888139725,-0.01910218968987465
381.0,0.0,0.0,0.0,0.0,0.0,0.0,-0.04458596557378769,-0.010081763379275799,-0.034264542162418365,0.9993881583213806,0.006123432889580727,-0.028332948684692383,-0.019580721855163574
382.0,0.0,0.0,0.0,0.0,0.0,0.0,-0.041450295597314835,-0.01387006789445877,-0.03294581174850464,0.9993476271629333,0.002260888461023569,-0.029173491522669792,-0.021163402125239372
383.0,0.0,0.0,0.0,0.0,0.0,0.0,-0.0290161594748497,-0.025361333042383194,-0.043243423104286194,0.9993168115615845,-0.003790624439716339,-0.029326099902391434,-0.022175448015332222
384.0,0.0,0.0,0.0,0.0,0.0,0.0,-0.03031967580318451,0.028773823752999306,-0.01543915830552578,0.9992656111717224,-0.008493988774716854,-0.02948024496436119,-0.022960014641284943
385.0,0.0,0.0,0.0,0.0,0.0,0.0,-0.03663871809840202,0.061583325266838074,0.0636320635676384,0.9991919994354248,-0.009986978024244308,-0.03043137490749359,-0.024279624223709106
386.0,0.0,0.0,0.0,0.0,0.0,0.0,-0.038769472390413284,0.052288968116045,0.04355369508266449,0.9991337060928345,-0.011113178916275501,-0.030902817845344543,-0.025558676570653915
387.0,0.0,0.0,0.0,0.0,0.0,0.0,-0.017808711156249046,0.009637839160859585,0.0028304012957960367,0.9991180896759033,-0.011674913577735424,-0.03105771355330944,-0.02573315054178238
388.0,0.0,0.0,0.0,0.0,0.0,0.0,-0.0014531475026160479,0.014959776774048805,0.009287369437515736,0.9991529583930969,-0.011286293156445026,-0.030557099729776382,-0.0251395795494318
389.0,0.0,0.0,0.0,0.0,0.0,0.0,0.007604483515024185,0.028277792036533356,0.006019410211592913,0.9992401599884033,-0.010002424009144306,-0.028964146971702576,-0.024099523201584816
390.0,0.0,0.0,0.0,0.0,0.0,0.0,0.05638650432229042,0.00019136257469654083,0.008071455173194408,0.9993199110031128,-0.0072168088518083096,-0.028592966496944427,-0.022143661975860596
391.0,0.0,0.0,0.0,0.0,0.0,0.0,0.046882085502147675,-0.01743384078145027,0.0141074750572443,0.9994048476219177,-0.005414482671767473,-0.02714707888662815,-0.020592914894223213
392.0,0.0,0.0,0.0,0.0,0.0,0.0,0.05879763141274452,0.03448628634214401,0.017754491418600082,0.9994623064994812,-0.0007767535280436277,-0.026213865727186203,-0.01968725211918354
393.0,0.0,0.0,0.0,0.0,0.0,0.0,0.05952707678079605,0.008991200476884842,0.05893164873123169,0.999469518661499,0.0047322968021035194,-0.02603202871978283,-0.01899752765893936
394.0,0.0,0.0,0.0,0.0,0.0,0.0,0.024599725380539894,0.021296344697475433,0.05426151305437088,0.9994327425956726,0.010284999385476112,-0.024984069168567657,-0.020133335143327713
395.0,0.0,0.0,0.0,0.0,0.0,0.0,0.04358602315187454,0.03243323042988777,0.062010981142520905,0.9993239045143127,0.01734900288283825,-0.024554532021284103,-0.02117067761719227
396.0,0.0,0.0,0.0,0.0,0.0,0.0,0.06972349435091019,0.025944868102669716,0.08559078723192215,0.9991812109947205,0.022885311394929886,-0.024866992607712746,-0.022259261459112167
397.0,0.0,0.0,0.0,0.0,0.0,0.0,0.04002637043595314,0.00017692959227133542,0.05844755470752716,0.9990352392196655,0.02700035274028778,-0.024669915437698364,-0.024294205009937286
398.0,0.0,0.0,0.0,0.0,0.0,0.0,0.04261726513504982,-0.06289608776569366,0.005008844193071127,0.9990328550338745,0.027511121705174446,-0.023678122088313103,-0.024844225496053696
399.0,0.0,0.0,0.0,0.0,0.0,0.0,0.07092843949794769,-0.050840988755226135,-0.006329478695988655,0.9991500973701477,0.0250410009175539,-0.0248677097260952,-0.021308790892362595
400.0,0.0,0.0,0.0,0.0,0.0,0.0,0.00880974717438221,-0.0074826497584581375,0.018933333456516266,0.9992839097976685,0.022089390084147453,-0.023132041096687317,-0.02020280249416828
401.0,0.0,0.0,0.0,0.0,0.0,0.0,-0.034097738564014435,-0.026222210377454758,0.006246458739042282,0.9994049668312073,0.0185752771794796,-0.019552692770957947,-0.021508388221263885
402.0,0.0,0.0,0.0,0.0,0.0,0.0,0.011081906966865063,-0.03105459176003933,-0.025304656475782394,0.9995495080947876,0.011697725392878056,-0.016308823600411415,-0.022317398339509964
403.0,0.0,0.0,0.0,0.0,0.0,0.0,0.01691604219377041,0.015095431357622147,-0.00391368567943573,0.9995816946029663,0.006874786224216223,-0.013996121473610401,-0.024361472576856613
404.0,0.0,0.0,0.0,0.0,0.0,0.0,0.03789118304848671,-0.035367753356695175,-0.00011095948138972744,0.9996004104614258,-0.0008362797670997679,-0.01222534291446209,-0.025469325482845306
405.0,0.0,0.0,0.0,0.0,0.0,0.0,0.04233832657337189,0.0021167004015296698,-0.02688612788915634,0.9995790123939514,-0.008116981014609337,-0.01108932588249445,-0.025573210790753365
406.0,0.0,0.0,0.0,0.0,0.0,0.0,0.019090916961431503,-0.009507030248641968,-0.02140539139509201,0.9995179772377014,-0.014543171040713787,-0.011765784583985806,-0.024790825322270393
407.0,0.0,0.0,0.0,0.0,0.0,0.0,0.009039599448442459,0.01053792703896761,0.01974697969853878,0.9994295239448547,-0.020714133977890015,-0.012089396826922894,-0.02377334050834179
408.0,0.0,0.0,0.0,0.0,0.0,0.0,0.011059476062655449,0.02219095267355442,0.010779631324112415,0.999306321144104,-0.026727182790637016,-0.013282776810228825,-0.022272028028964996
409.0,0.0,0.0,0.0,0.0,0.0,0.0,-0.0005383242969401181,0.11961352825164795,0.02791561372578144,0.9992854595184326,-0.02774004079401493,-0.015089280903339386,-0.02079850248992443
410.0,0.0,0.0,0.0,0.0,0.0,0.0,-0.00773905124515295,-0.007495905738323927,0.05204758420586586,0.9993148446083069,-0.027066651731729507,-0.016279812902212143,-0.01928200013935566
411.0,0.0,0.0,0.0,0.0,0.0,0.0,-0.014842584729194641,-0.06475716829299927,-0.04423048347234726,0.9990730285644531,-0.03546224534511566,-0.015574876219034195,-0.018799912184476852
412.0,0.0,0.0,0.0,0.0,0.0,0.0,0.004552841652184725,0.10578402876853943,0.013023014180362225,0.9991040825843811,-0.03365465626120567,-0.01692296378314495,-0.019284147769212723
413.0,0.0,0.0,0.0,0.0,0.0,0.0,0.02603200636804104,-0.0004615065408870578,0.05737530067563057,0.9990848302841187,-0.03349658101797104,-0.0185529962182045,-0.019075388088822365
414.0,0.0,0.0,0.0,0.0,0.0,0.0,0.005181517452001572,-0.007101226598024368,-0.03749413043260574,0.9989250302314758,-0.036765724420547485,-0.019849494099617004,-0.02008369006216526
415.0,0.0,0.0,0.0,0.0,0.0,0.0,-0.04663408547639847,0.04616401344537735,0.014656365849077702,0.9989015460014343,-0.03629567474126816,-0.021187959238886833,-0.02074330858886242
416.0,0.0,0.0,0.0,0.0,0.0,0.0,-0.035713858902454376,0.019872678443789482,0.04770907014608383,0.9988642334938049,-0.0367995947599411,-0.022270236164331436,-0.020498668774962425
417.0,0.0,0.0,0.0,0.0,0.0,0.0,-0.03624285012483597,0.011486167088150978,-0.0036951627116650343,0.9987878203392029,-0.03828636556863785,-0.02284010872244835,-0.020869217813014984
418.0,0.0,0.0,0.0,0.0,0.0,0.0,-0.040774907916784286,0.017267612740397453,0.0024186396040022373,0.9987355470657349,-0.03909442946314812,-0.022945938631892204,-0.021749775856733322
419.0,0.0,0.0,0.0,0.0,0.0,0.0,-0.022967105731368065,0.0166633240878582,0.01971990428864956,0.9987092614173889,-0.03918878361582756,-0.02344650961458683,-0.02224058099091053
420.0,0.0,0.0,0.0,0.0,0.0,0.0,-0.024709440767765045,0.0014948741300031543,0.007663728669285774,0.9986629486083984,-0.039823152124881744,-0.023485472425818443,-0.023146554827690125
421.0,0.0,0.0,0.0,0.0,0.0,0.0,-0.02458122745156288,-0.002303237561136484,-0.007617469411343336,0.9986267685890198,-0.04034189134836197,-0.023477425798773766,-0.023785525932908058
422.0,0.0,0.0,0.0,0.0,0.0,0.0,-0.021437985822558403,0.013837270438671112,0.010585444048047066,0.9986459612846375,-0.039831019937992096,-0.023117704316973686,-0.024205032736063004
423.0,0.0,0.0,0.0,0.0,0.0,0.0,0.007792442571371794,0.0009412181098014116,0.020739272236824036,0.9986692070960999,-0.03872174769639969,-0.02373693510890007,-0.024423444643616676
424.0,0.0,0.0,0.0,0.0,0.0,0.0,0.0215595755726099,0.002720066113397479,0.014992964453995228,0.9987533092498779,-0.03666144609451294,-0.024827169254422188,-0.023070573806762695
425.0,0.0,0.0,0.0,0.0,0.0,0.0,-0.0128054553642869,-0.010168126784265041,0.0271409023553133,0.9987874627113342,-0.0346720814704895,-0.025897426530718803,-0.023466182872653008
426.0,0.0,0.0,0.0,0.0,0.0,0.0,-0.034895770251750946,-0.006835231091827154,0.010867107659578323,0.998798668384552,-0.0343397781252861,-0.025783665478229523,-0.023617364466190338
427.0,0.0,0.0,0.0,0.0,0.0,0.0,-0.022531839087605476,0.00954575464129448,0.0008979073027148843,0.9987603425979614,-0.033266667276620865,-0.02590193599462509,-0.02646646276116371
428.0,0.0,0.0,0.0,0.0,0.0,0.0,-0.017855994403362274,-0.003515771823003888,0.0025781849399209023,0.998828113079071,-0.030707329511642456,-0.025645768269896507,-0.027240563184022903
429.0,0.0,0.0,0.0,0.0,0.0,0.0,-0.014441419392824173,0.004199280869215727,0.001066898345015943,0.998909592628479,-0.027705105021595955,-0.025614220649003983,-0.027497559785842896
430.0,0.0,0.0,0.0,0.0,0.0,0.0,-0.02581474743783474,0.0029534732457250357,-0.0037939283065497875,0.9989657998085022,-0.02483724057674408,-0.025653893128037453,-0.028153523802757263
431.0,0.0,0.0,0.0,0.0,0.0,0.0,-0.015171833336353302,0.0006246797856874764,-0.008525382727384567,0.9990641474723816,-0.021567730233073235,-0.025401132181286812,-0.027576008811593056
432.0,0.0,0.0,0.0,0.0,0.0,0.0,0.002233242616057396,-0.015921564772725105,-0.021901197731494904,0.9991294145584106,-0.019301889464259148,-0.025402259081602097,-0.02687450684607029
433.0,0.0,0.0,0.0,0.0,0.0,0.0,-0.012384594418108463,-0.0010123178362846375,-0.02391110360622406,0.9991990327835083,-0.01725642941892147,-0.02548646740615368,-0.025588171556591988
434.0,0.0,0.0,0.0,0.0,0.0,0.0,-0.0255565382540226,0.0030790388118475676,-0.007793431635946035,0.9992772340774536,-0.013608178123831749,-0.025289295241236687,-0.024911241605877876
435.0,0.0,0.0,0.0,0.0,0.0,0.0,-0.01116789598017931,-0.01641540788114071,-0.02034478262066841,0.9993195533752441,-0.011587598361074924,-0.024882882833480835,-0.0246488805860281
436.0,0.0,0.0,0.0,0.0,0.0,0.0,-0.01899489387869835,-0.009766247123479843,-0.03059323877096176,0.9993573427200317,-0.009750762954354286,-0.024442363530397415,-0.024344690144062042
437.0,0.0,0.0,0.0,0.0,0.0,0.0,-0.019538359716534615,-0.007039777003228664,-0.0091671422123909,0.9993820190429688,-0.007878676056861877,-0.023504288867115974,-0.02492823638021946
438.0,0.0,0.0,0.0,0.0,0.0,0.0,-0.001718844287097454,0.021630261093378067,0.0027611691039055586,0.9993980526924133,-0.006321906577795744,-0.022486116737127304,-0.025648385286331177
439.0,0.0,0.0,0.0,0.0,0.0,0.0,-0.0023400033824145794,0.014714864082634449,-0.010458857752382755,0.9993945956230164,-0.004105134401470423,-0.022348547354340553,-0.02635159343481064
440.0,0.0,0.0,0.0,0.0,0.0,0.0,-0.005742367822676897,-0.018949385732412338,-0.014734006486833096,0.9994104504585266,-0.003363175317645073,-0.02166866511106491,-0.026415560394525528
441.0,0.0,0.0,0.0,0.0,0.0,0.0,-0.0024717245250940323,0.011595705524086952,0.0032189497724175453,0.9994440674781799,-0.0021014141384512186,-0.021378036588430405,-0.025496508926153183
442.0,0.0,0.0,0.0,0.0,0.0,0.0,-0.01923581212759018,0.011177810840308666,-0.0005969683406874537,0.9994875192642212,-0.0005837673088535666,-0.021048378199338913,-0.024120869114995003
443.0,0.0,0.0,0.0,0.0,0.0,0.0,-0.022326594218611717,-0.01083278190344572,-0.011587511748075485,0.9995205998420715,-0.0002350231952732429,-0.020163726061582565,-0.02349596470594406
444.0,0.0,0.0,0.0,0.0,0.0,0.0,-0.005686197895556688,0.0072595831006765366,-0.0004093359166290611,0.9995658993721008,-6.531735380121972e-06,-0.018864069133996964,-0.022638019174337387
445.0,0.0,0.0,0.0,0.0,0.0,0.0,-0.0014033932238817215,0.009436694905161858,0.00579150440171361,0.9996026158332825,0.001335727865807712,-0.018367694690823555,-0.021345442160964012
446.0,0.0,0.0,0.0,0.0,0.0,0.0,-0.026139765977859497,-0.006996286101639271,-0.007709852419793606,0.9996352195739746,0.0017857938073575497,-0.01757662743330002,-0.020434491336345673
447.0,0.0,0.0,0.0,0.0,0.0,0.0,-0.030226022005081177,0.002598337596282363,-0.0041692424565553665,0.9996562600135803,0.001772174146026373,-0.01676180213689804,-0.020086131989955902
448.0,0.0,0.0,0.0,0.0,0.0,0.0,-0.016799282282590866,0.022262828424572945,0.024576174095273018,0.9996618032455444,0.0023023320827633142,-0.015874164178967476,-0.02047121897339821
449.0,0.0,0.0,0.0,0.0,0.0,0.0,-0.019064536318182945,0.030621640384197235,0.035892780870199203,0.9996515512466431,0.004870050586760044,-0.014349302276968956,-0.021614890545606613
450.0,0.0,0.0,0.0,0.0,0.0,0.0,-0.02220456302165985,-0.0033732850570231676,0.0038402327336370945,0.999659538269043,0.006445498671382666,-0.012846116907894611,-0.021776536479592323
451.0,0.0,0.0,0.0,0.0,0.0,0.0,-0.0073537928983569145,0.006974644493311644,-0.009795423597097397,0.9997012615203857,0.0076235206797719,-0.011878620833158493,-0.019957231357693672
452.0,0.0,0.0,0.0,0.0,0.0,0.0,-0.00642413180321455,0.023623595014214516,0.021341921761631966,0.9997315406799316,0.01018206961452961,-0.010966815054416656,-0.01769360899925232
453.0,0.0,0.0,0.0,0.0,0.0,0.0,-0.01090314518660307,0.0164838545024395,-0.003185802372172475,0.9997552633285522,0.011965380981564522,-0.009844652377068996,-0.015795757994055748
454.0,0.0,0.0,0.0,0.0,0.0,0.0,-0.003249031025916338,0.019129812717437744,-0.0207988154143095,0.9997032880783081,0.016014138236641884,-0.008735744282603264,-0.01614314131438732
455.0,0.0,0.0,0.0,0.0,0.0,0.0,0.007646181154996157,-0.024333732202649117,-0.01389920711517334,0.9995926022529602,0.019871024414896965,-0.006666215136647224,-0.019378503784537315
456.0,0.0,0.0,0.0,0.0,0.0,0.0,0.0316586047410965,-0.03169428929686546,-0.040499038994312286,0.9995020627975464,0.021467288956046104,-0.00465532299131155,-0.02265104651451111
457.0,0.0,0.0,0.0,0.0,0.0,0.0,0.04630787670612335,-0.04306431859731674,-0.061448514461517334,0.9994203448295593,0.022691961377859116,-0.0038804959040135145,-0.02508273720741272
458.0,0.0,0.0,0.0,0.0,0.0,0.0,0.05551287159323692,-0.04266957566142082,-0.027166569605469704,0.9994173645973206,0.02315390482544899,-0.005108883138746023,-0.02454979531466961
459.0,0.0,0.0,0.0,0.0,0.0,0.0,0.02901884913444519,-0.025889525189995766,-0.013197919353842735,0.9994335174560547,0.023231931030750275,-0.004634839948266745,-0.023908043280243874
460.0,0.0,0.0,0.0,0.0,0.0,0.0,0.00627118581905961,-0.01722276769578457,-0.002224675612524152,0.9994669556617737,0.023342683911323547,-0.004444814752787352,-0.02238948829472065
461.0,0.0,0.0,0.0,0.0,0.0,0.0,0.011411511339247227,-0.03440426290035248,-0.001678704284131527,0.9994746446609497,0.023032916709780693,-0.004220583476126194,-0.02240898460149765
462.0,0.0,0.0,0.0,0.0,0.0,0.0,0.017344674095511436,-0.03512965142726898,-0.009942970238626003,0.999468207359314,0.02244771271944046,-0.003922194242477417,-0.02332499995827675
463.0,0.0,0.0,0.0,0.0,0.0,0.0,0.016326522454619408,-0.019240617752075195,0.017232434824109077,0.9994707703590393,0.021591925993561745,-0.0038489920552819967,-0.02402820810675621
464.0,0.0,0.0,0.0,0.0,0.0,0.0,0.011340290307998657,-0.008708225563168526,0.023159697651863098,0.9995259642601013,0.020155679434537888,-0.003946822136640549,-0.02293466590344906
465.0,0.0,0.0,0.0,0.0,0.0,0.0,0.013674138113856316,0.004032850731164217,0.032732997089624405,0.9995611310005188,0.02004380151629448,-0.004732361529022455,-0.021299108862876892
466.0,0.0,0.0,0.0,0.0,0.0,0.0,-0.009523325599730015,-0.008562649600207806,0.03529031202197075,0.9996002912521362,0.01970364898443222,-0.005448689218610525,-0.01953655481338501
467.0,0.0,0.0,0.0,0.0,0.0,0.0,-0.04275678098201752,-0.00121312343981117,0.03288045525550842,0.9995911717414856,0.021047411486506462,-0.005406441166996956,-0.01858467608690262
468.0,0.0,0.0,0.0,0.0,0.0,0.0,-0.012989845126867294,-0.009151613339781761,0.03659549728035927,0.9995092749595642,0.023795146495103836,-0.005378440022468567,-0.01965239644050598
469.0,0.0,0.0,0.0,0.0,0.0,0.0,0.0012143922504037619,-0.04091165214776993,0.0040991767309606075,0.9994616508483887,0.024990784004330635,-0.0056422119960188866,-0.02049526385962963
470.0,0.0,0.0,0.0,0.0,0.0,0.0,-0.022219497710466385,-0.042831044644117355,-0.023407770320773125,0.9994571208953857,0.02594742178916931,-0.005086340941488743,-0.01965477503836155
471.0,0.0,0.0,0.0,0.0,0.0,0.0,-0.022319374606013298,-0.03797684237360954,-0.013275465928018093,0.9995236992835999,0.024622611701488495,-0.0035178896505385637,-0.018270350992679596
472.0,0.0,0.0,0.0,0.0,0.0,0.0,0.007036466151475906,-0.030448846518993378,-0.0045569525100290775,0.9996256828308105,0.02219630777835846,-0.0019882910419255495,-0.01587619073688984
473.0,0.0,0.0,0.0,0.0,0.0,0.0,-0.009222927503287792,-0.010028518736362457,0.010730561800301075,0.9997522234916687,0.017883839085698128,-0.0003735670179594308,-0.013247941620647907
474.0,0.0,0.0,0.0,0.0,0.0,0.0,-0.03914286941289902,0.002553206868469715,0.017313094809651375,0.9998754858970642,0.01044073048979044,0.0020040073432028294,-0.011665165424346924
475.0,0.0,0.0,0.0,0.0,0.0,0.0,-0.0454997681081295,0.06929931789636612,0.04258336126804352,0.9999199509620667,0.004468156956136227,0.004382299259305,-0.010995261371135712
476.0,0.0,0.0,0.0,0.0,0.0,0.0,0.0008272206177935004,0.06884700059890747,0.04404019936919212,0.999901294708252,0.0043656290508806705,0.0057590496726334095,-0.012052729725837708
477.0,0.0,0.0,0.0,0.0,0.0,0.0,0.026883697137236595,0.018525980412960052,0.02620287612080574,0.9998873472213745,0.006418853998184204,0.00566774932667613,-0.012328199110925198
478.0,0.0,0.0,0.0,0.0,0.0,0.0,-0.010293027386069298,0.03978689759969711,0.040078431367874146,0.9998325705528259,0.010661792941391468,0.00579931540414691,-0.01369564514607191
479.0,0.0,0.0,0.0,0.0,0.0,0.0,-0.029107607901096344,-0.010390015318989754,0.03353038430213928,0.9997475147247314,0.014432545751333237,0.006227793637663126,-0.016058556735515594
480.0,0.0,0.0,0.0,0.0,0.0,0.0,0.01196410320699215,-0.03438173606991768,-0.01059800200164318,0.999692976474762,0.016129545867443085,0.007585725747048855,-0.017213743180036545
481.0,0.0,0.0,0.0,0.0,0.0,0.0,0.0647837221622467,-0.0003000962024088949,-0.020877638831734657,0.9995876550674438,0.019903212785720825,0.006975206080824137,-0.019486477598547935
482.0,0.0,0.0,0.0,0.0,0.0,0.0,0.03292945399880409,-0.035412777215242386,-0.01801162026822567,0.999437153339386,0.022537730634212494,0.005212974734604359,-0.02429608255624771
483.0,0.0,0.0,0.0,0.0,0.0,0.0,-0.01007179543375969,-0.027932599186897278,-0.035457439720630646,0.9992745518684387,0.022985076531767845,0.004031906835734844,-0.030096787959337234
484.0,0.0,0.0,0.0,0.0,0.0,0.0,-0.010345308110117912,-0.0289776511490345,-0.04545632004737854,0.9990136027336121,0.024329595267772675,0.003233010182157159,-0.037006791681051254
485.0,0.0,0.0,0.0,0.0,0.0,0.0,-0.036501724272966385,-0.05569147318601608,-0.039870504289865494,0.9988002777099609,0.02472422644495964,0.005136773455888033,-0.04195786267518997
486.0,0.0,0.0,0.0,0.0,0.0,0.0,-0.04230005294084549,-0.016509465873241425,-0.01069981511682272,0.9986243844032288,0.025285912677645683,0.008671232499182224,-0.04510848969221115
487.0,0.0,0.0,0.0,0.0,0.0,0.0,-0.0007579530938528478,-0.028810860589146614,-0.054845403879880905,0.9986635446548462,0.023738758638501167,0.01130981557071209,-0.0444941483438015
488.0,0.0,0.0,0.0,0.0,0.0,0.0,0.024457119405269623,-0.029883138835430145,-0.06778281182050705,0.9988064169883728,0.02087854966521263,0.012836035341024399,-0.04225044324994087
489.0,0.0,0.0,0.0,0.0,0.0,0.0,0.025058403611183167,-0.0037464050110429525,-0.058623433113098145,0.9988760948181152,0.018867794424295425,0.01458242442458868,-0.04096288979053497
490.0,0.0,0.0,0.0,0.0,0.0,0.0,0.021379869431257248,0.004031578544527292,-0.058604784309864044,0.9989463090896606,0.017501026391983032,0.015131780877709389,-0.03963666036725044
491.0,0.0,0.0,0.0,0.0,0.0,0.0,-0.0013764901086688042,-0.02765732817351818,-0.05585869401693344,0.9990667104721069,0.014271239750087261,0.015216266736388206,-0.03782132267951965
492.0,0.0,0.0,0.0,0.0,0.0,0.0,-0.024469366297125816,-0.006854500155895948,-0.04806607961654663,0.9991915225982666,0.008692402392625809,0.016229676082730293,-0.035741012543439865
493.0,0.0,0.0,0.0,0.0,0.0,0.0,-0.013312422670423985,0.031247224658727646,-0.0019558891654014587,0.9992876648902893,0.005160501692444086,0.017297349870204926,-0.03314189985394478
494.0,0.0,0.0,0.0,0.0,0.0,0.0,-0.00021281933004502207,0.03322340175509453,0.010303450748324394,0.9994233250617981,0.0016641727415844798,0.01766265742480755,-0.02895328961312771
495.0,0.0,0.0,0.0,0.0,0.0,0.0,-0.012210668995976448,-0.0012399170082062483,-0.031221652403473854,0.9995483756065369,-0.003202937077730894,0.018306400626897812,-0.02361372299492359
496.0,0.0,0.0,0.0,0.0,0.0,0.0,0.011970060877501965,0.03350401669740677,-0.00628455076366663,0.9996336698532104,-0.007749223615974188,0.018553514033555984,-0.01811930537223816
497.0,0.0,0.0,0.0,0.0,0.0,0.0,0.011981244198977947,0.043936360627412796,0.011500019580125809,0.9997106194496155,-0.01003666315227747,0.01744166947901249,-0.013185779564082623
498.0,0.0,0.0,0.0,0.0,0.0,0.0,-0.0015129500534385443,0.0338716097176075,0.00667212437838316,0.9997518062591553,-0.010652229189872742,0.016505086794495583,-0.010510741733014584
499.0,0.0,0.0,0.0,0.0,0.0,0.0,0.011407209560275078,0.0176226906478405,-0.0002169476356357336,0.9997819066047668,-0.010203013196587563,0.01574581488966942,-0.009175701066851616
500.0,0.0,0.0,0.0,0.0,0.0,0.0,0.02057359367609024,0.03537562116980553,0.004774449393153191,0.9998387098312378,-0.007012744899839163,0.014737184159457684,-0.0075042531825602055
501.0,0.0,0.0,0.0,0.0,0.0,0.0,-0.01096503809094429,0.012875456362962723,0.028212174773216248,0.9998924732208252,-0.001778436009772122,0.013446084223687649,-0.005572850815951824
502.0,0.0,0.0,0.0,0.0,0.0,0.0,-0.0298618134111166,0.016589120030403137,0.022662198171019554,0.9999162554740906,0.0015164834912866354,0.012179514393210411,-0.004097986035048962
503.0,0.0,0.0,0.0,0.0,0.0,0.0,-0.024837031960487366,0.0003878258867189288,0.012917228043079376,0.9999308586120605,0.0034876109566539526,0.010645702481269836,-0.0035675091203302145
504.0,0.0,0.0,0.0,0.0,0.0,0.0,-0.005286158062517643,-0.007140728645026684,-0.00637374771758914,0.9999436736106873,0.004231081809848547,0.00946896057575941,-0.002258285414427519
505.0,0.0,0.0,0.0,0.0,0.0,0.0,0.00445183552801609,-0.011444497853517532,-0.02184489741921425,0.9999532103538513,0.00364289665594697,0.008961392566561699,-0.0003980383335147053
506.0,0.0,0.0,0.0,0.0,0.0,0.0,0.00333235296420753,0.021872179582715034,0.03071049600839615,0.9999538064002991,0.0035025307442992926,0.00884185265749693,0.0014450630405917764
507.0,0.0,0.0,0.0,0.0,0.0,0.0,-0.011009469628334045,0.04932420700788498,0.0657389909029007,0.99996018409729,0.003531679045408964,0.007872074842453003,0.00227601220831275
508.0,0.0,0.0,0.0,0.0,0.0,0.0,-0.02508966438472271,0.05053018778562546,0.04870458319783211,0.9999693036079407,0.003074245760217309,0.007142487447708845,0.0009039244032464921
509.0,0.0,0.0,0.0,0.0,0.0,0.0,-0.00463262852281332,0.0064800507389009,0.005229902919381857,0.9999728798866272,0.0025447907391935587,0.006893488112837076,-0.0005936934030614793
510.0,0.0,0.0,0.0,0.0,0.0,0.0,0.009362760931253433,-0.005614438559859991,-0.021972471848130226,0.9999702572822571,0.001942013273946941,0.007251223549246788,-0.001782960258424282
511.0,0.0,0.0,0.0,0.0,0.0,0.0,0.028416791930794716,-0.0015033410163596272,-0.01497501041740179,0.9999715089797974,0.0016152224270626903,0.007020778488367796,-0.0022623357363045216
512.0,0.0,0.0,0.0,0.0,0.0,0.0,0.03424592688679695,0.0071824477054178715,0.0003083753981627524,0.9999815225601196,0.0011900223325937986,0.005786600522696972,-0.001469075446948409
513.0,0.0,0.0,0.0,0.0,0.0,0.0,0.014430447481572628,-0.0043730600737035275,-0.0011015025665983558,0.999987781047821,0.0005875742062926292,0.004919575061649084,-0.0003042861935682595
514.0,0.0,0.0,0.0,0.0,0.0,0.0,-0.009598017670214176,0.005667130928486586,0.003504018997773528,0.9999886155128479,0.0005381788359954953,0.004717812407761812,0.00044160819379612803
515.0,0.0,0.0,0.0,0.0,0.0,0.0,-0.0006647450500167906,-0.014285427518188953,-0.01166360080242157,0.9999912977218628,-0.00024151316029019654,0.00409393897280097,0.000759366899728775
516.0,0.0,0.0,0.0,0.0,0.0,0.0,0.019633734598755836,-0.015005219727754593,-0.018660053610801697,0.9999931454658508,-0.0014527172315865755,0.003245414700359106,0.0011195283150300384
517.0,0.0,0.0,0.0,0.0,0.0,0.0,0.014023500494658947,-0.008765465579926968,-0.01135533768683672,0.9999956488609314,-0.002379494719207287,0.0015482165617868304,0.0008160453871823847
518.0,0.0,0.0,0.0,0.0,0.0,0.0,-0.009472992271184921,-0.01266899798065424,-0.0033666365779936314,0.9999880194664001,-0.00489775137975812,8.1676545960363e-05,0.00010563018440734595
519.0,0.0,0.0,0.0,0.0,0.0,0.0,-0.006165917497128248,-0.015227350406348705,-0.018691375851631165,0.9999497532844543,-0.00985478051006794,-0.0017874890472739935,-0.0004333820834290236
520.0,0.0,0.0,0.0,0.0,0.0,0.0,-0.0011787391267716885,0.012769212014973164,0.014229106716811657,0.999874472618103,-0.015203764662146568,-0.004466786980628967,-0.00036983360769227147
521.0,0.0,0.0,0.0,0.0,0.0,0.0,-0.022968493402004242,0.05468473955988884,0.057297274470329285,0.9998113512992859,-0.018393322825431824,-0.006244264077395201,-0.0003010135260410607
522.0,0.0,0.0,0.0,0.0,0.0,0.0,-0.020966650918126106,0.0511801540851593,0.04571104422211647,0.9998349547386169,-0.016929730772972107,-0.006574374157935381,-0.0005690277903340757
523.0,0.0,0.0,0.0,0.0,0.0,0.0,-0.014889031648635864,0.02596600353717804,0.05526212230324745,0.9999072551727295,-0.012048136442899704,-0.006138766184449196,-0.0016595390625298023
524.0,0.0,0.0,0.0,0.0,0.0,0.0,-0.0007223908905871212,0.012339996173977852,0.02528863213956356,0.9999436736106873,-0.008924725465476513,-0.005427968222647905,-0.0018487563356757164
525.0,0.0,0.0,0.0,0.0,0.0,0.0,0.008552939631044865,-0.01678250916302204,-0.016526442021131516,0.9999740719795227,-0.005438797641545534,-0.004621624946594238,-0.0010317665291950107
526.0,0.0,0.0,0.0,0.0,0.0,0.0,0.006512349471449852,0.0045232209376990795,0.023791318759322166,0.9999901652336121,-0.0007716335821896791,-0.0042926957830786705,-0.0009243697277270257
527.0,0.0,0.0,0.0,0.0,0.0,0.0,-0.004342678003013134,0.007351904176175594,-0.0051409658044576645,0.999991238117218,0.002053036354482174,-0.003563280450180173,-0.0008010518504306674
528.0,0.0,0.0,0.0,0.0,0.0,0.0,0.032514721155166626,-0.03849568963050842,-0.04785379394888878,0.9999890327453613,0.003538271877914667,-0.0029132028575986624,-0.0009901811135932803
529.0,0.0,0.0,0.0,0.0,0.0,0.0,0.0331900492310524,-0.035615913569927216,-0.022633781656622887,0.9999812245368958,0.0049332519993186,-0.003511582501232624,-0.0008903958951123059
530.0,0.0,0.0,0.0,0.0,0.0,0.0,0.01225870382040739,-0.011268422938883305,-0.00768889719620347,0.9999744296073914,0.005659254267811775,-0.004363671876490116,-0.00014320049376692623
531.0,0.0,0.0,0.0,0.0,0.0,0.0,-0.01223098486661911,-0.0042252433486282825,-0.004813732113689184,0.9999651312828064,0.006833068560808897,-0.004797834903001785,-3.724778798641637e-05
532.0,0.0,0.0,0.0,0.0,0.0,0.0,-0.0022306726314127445,-0.0022499551996588707,-0.0029492350295186043,0.9999457001686096,0.008877952583134174,-0.005329357925802469,-0.0012365290895104408
533.0,0.0,0.0,0.0,0.0,0.0,0.0,-0.0047196289524436,-0.00940775964409113,0.0020059901289641857,0.999925434589386,0.010510963387787342,-0.005782636348158121,-0.002294351579621434
534.0,0.0,0.0,0.0,0.0,0.0,0.0,-0.013268055394291878,-0.00825414527207613,-0.00683852331712842,0.9999081492424011,0.011718525551259518,-0.00576500128954649,-0.0036228648386895657
535.0,0.0,0.0,0.0,0.0,0.0,0.0,0.003168998984619975,-0.012489345856010914,-0.013981373980641365,0.9998947978019714,0.012541280128061771,-0.006004067603498697,-0.00416491087526083
536.0,0.0,0.0,0.0,0.0,0.0,0.0,-0.0032217614352703094,-0.015973111614584923,-0.005563129670917988,0.999877393245697,0.013693942688405514,-0.006275592837482691,-0.004292275290936232
537.0,0.0,0.0,0.0,0.0,0.0,0.0,-0.012229073792696,0.003535239025950432,-0.003990276250988245,0.9998889565467834,0.013022895902395248,-0.006349064409732819,-0.0034856938291341066
538.0,0.0,0.0,0.0,0.0,0.0,0.0,0.0010858488967642188,0.0012805798323825002,-0.004996809642761946,0.9998931288719177,0.012614460662007332,-0.006834547035396099,-0.0028172051534056664
539.0,0.0,0.0,0.0,0.0,0.0,0.0,-0.006549176760017872,-0.018850848078727722,-0.012176173739135265,0.9999166131019592,0.01034808810800314,-0.007533783093094826,-0.001738863531500101
540.0,0.0,0.0,0.0,0.0,0.0,0.0,-0.01565946452319622,0.002062506042420864,0.0031052434351295233,0.9999409914016724,0.006929778028279543,-0.008130623027682304,-0.0019387999782338738
541.0,0.0,0.0,0.0,0.0,0.0,0.0,-0.001183804008178413,0.009709388017654419,-0.00040383628220297396,0.9999591708183289,0.0019780274014919996,-0.00845628697425127,-0.00251382146961987
542.0,0.0,0.0,0.0,0.0,0.0,0.0,0.008690494112670422,0.03556319326162338,0.0414072722196579,0.9999505877494812,-3.1656454666517675e-05,-0.009298750199377537,-0.0035309249069541693
543.0,0.0,0.0,0.0,0.0,0.0,0.0,-0.017092116177082062,0.045220717787742615,0.0685664489865303,0.999935507774353,-0.0008402750827372074,-0.010197455063462257,-0.004939126782119274
544.0,0.0,0.0,0.0,0.0,0.0,0.0,-0.06143174320459366,0.041567280888557434,0.04799990728497505,0.999924898147583,0.00026886098203249276,-0.00982679147273302,-0.007321103475987911
545.0,0.0,0.0,0.0,0.0,0.0,0.0,-0.042031992226839066,0.00042311521247029305,0.01750245876610279,0.9999240636825562,0.0014914674684405327,-0.007663954980671406,-0.009541633538901806
546.0,0.0,0.0,0.0,0.0,0.0,0.0,0.01921986974775791,-0.01665477827191353,-0.008623986504971981,0.9999380707740784,0.001221315236762166,-0.0050173792988061905,-0.009862898848950863
547.0,0.0,0.0,0.0,0.0,0.0,0.0,0.042781852185726166,-0.008539400063455105,-0.024588415399193764,0.9999650120735168,0.0017356397584080696,-0.0031039975583553314,-0.0075851548463106155
548.0,0.0,0.0,0.0,0.0,0.0,0.0,0.0320969820022583,-0.020216701552271843,-0.028183646500110626,0.999988317489624,0.0023670196533203125,-0.0012283213436603546,-0.004056205041706562
549.0,0.0,0.0,0.0,0.0,0.0,0.0,0.0369672067463398,-0.01741686649620533,-0.024561751633882523,0.9999968409538269,0.0021846326999366283,0.00023336464073508978,-0.0012291037710383534
550.0,0.0,0.0,0.0,0.0,0.0,0.0,0.0322130061686039,0.006036547012627125,-0.01350528746843338,0.9999946355819702,0.003138582920655608,0.0006854950916022062,-0.0006727747386321425
551.0,0.0,0.0,0.0,0.0,0.0,0.0,0.03857637941837311,-0.0075985463336110115,-0.015165066346526146,0.999988853931427,0.004258573520928621,0.0005785890389233828,-0.001962196547538042
552.0,0.0,0.0,0.0,0.0,0.0,0.0,0.0233665332198143,0.0067240577191114426,-0.001257851137779653,0.9999635219573975,0.007047183811664581,-0.00015994076966308057,-0.004836757201701403
553.0,0.0,0.0,0.0,0.0,0.0,0.0,0.004196390509605408,0.013256600126624107,0.018801167607307434,0.9999001026153564,0.011131436564028263,-0.0007584838313050568,-0.008698813617229462
554.0,0.0,0.0,0.0,0.0,0.0,0.0,0.0017075083451345563,0.009436292573809624,0.024189280346035957,0.9998175501823425,0.01492480468004942,-0.001342498348094523,-0.011844726279377937
555.0,0.0,0.0,0.0,0.0,0.0,0.0,0.010973365977406502,0.0011238885344937444,0.026263970881700516,0.999717652797699,0.018880581483244896,-0.002365621505305171,-0.0142306387424469
556.0,0.0,0.0,0.0,0.0,0.0,0.0,-0.014699079096317291,-0.02194831892848015,0.00902812834829092,0.9996533989906311,0.021493496373295784,-0.0019485792145133018,-0.015078515745699406
557.0,0.0,0.0,0.0,0.0,0.0,0.0,0.0028783734887838364,-0.02619900368154049,-0.014318685047328472,0.9996485114097595,0.022592822089791298,-0.000855256337672472,-0.01384452823549509
558.0,0.0,0.0,0.0,0.0,0.0,0.0,0.03957858681678772,0.0045387838035821915,0.014222205616533756,0.9996441006660461,0.024392250925302505,-0.0013660166878253222,-0.010718265548348427
559.0,0.0,0.0,0.0,0.0,0.0,0.0,0.02410014718770981,0.004765263292938471,0.029845086857676506,0.9996122717857361,0.026006843894720078,-0.0031699202954769135,-0.009434009902179241
560.0,0.0,0.0,0.0,0.0,0.0,0.0,0.023020615801215172,-0.022425392642617226,0.003082308452576399,0.9996377825737,0.02462790533900261,-0.004989380948245525,-0.009640716016292572
561.0,0.0,0.0,0.0,0.0,0.0,0.0,0.02374841645359993,-0.02210039086639881,0.01778654381632805,0.9996309876441956,0.023318137973546982,-0.007174684666097164,-0.011957191862165928
562.0,0.0,0.0,0.0,0.0,0.0,0.0,0.0103728286921978,-0.042546845972537994,-0.0016218660166487098,0.9996393918991089,0.01940157078206539,-0.009345811791718006,-0.016048112884163857
563.0,0.0,0.0,0.0,0.0,0.0,0.0,0.0165508184581995,-0.06644339114427567,-0.04667804762721062,0.9996756315231323,0.011312020011246204,-0.009471516124904156,-0.020766006782650948
564.0,0.0,0.0,0.0,0.0,0.0,0.0,0.11413653194904327,-0.03208344802260399,-0.052300337702035904,0.99971604347229,0.005406036041676998,-0.009975243359804153,-0.02095545455813408
565.0,0.0,0.0,0.0,0.0,0.0,0.0,0.11982720345258713,0.012874845415353775,0.015562507323920727,0.9997652769088745,0.0061161392368376255,-0.012390360236167908,-0.016685064882040024
566.0,0.0,0.0,0.0,0.0,0.0,0.0,0.005832443945109844,-0.011280477978289127,-0.0038304501213133335,0.9998032450675964,0.006062591448426247,-0.012972785159945488,-0.013741141185164452
567.0,0.0,0.0,0.0,0.0,0.0,0.0,0.01354382187128067,-0.04718784987926483,-0.07982130348682404,0.9998360276222229,0.004022182431071997,-0.012493479065597057,-0.012465638108551502
568.0,0.0,0.0,0.0,0.0,0.0,0.0,0.06202021986246109,-0.0330064557492733,-0.03867174685001373,0.9998441338539124,0.004791032522916794,-0.01277964934706688,-0.01121510285884142
569.0,0.0,0.0,0.0,0.0,0.0,0.0,0.029503699392080307,-0.02207115851342678,-0.0075758215971291065,0.9998326897621155,0.005738575477153063,-0.013671260327100754,-0.010716631077229977
570.0,0.0,0.0,0.0,0.0,0.0,0.0,-0.030791088938713074,-0.015385571867227554,-0.01296174619346857,0.9998085498809814,0.00585077702999115,-0.013367694802582264,-0.013046571053564548
571.0,0.0,0.0,0.0,0.0,0.0,0.0,-0.025844046846032143,0.008759100921452045,0.006300301291048527,0.9997421503067017,0.007852118462324142,-0.01395872887223959,-0.016097059473395348
572.0,0.0,0.0,0.0,0.0,0.0,0.0,-0.03091730922460556,-0.00809384323656559,0.014713481068611145,0.9996787309646606,0.007933566346764565,-0.01524357870221138,-0.018637359142303467
573.0,0.0,0.0,0.0,0.0,0.0,0.0,-0.03922560065984726,0.00689961900934577,0.00809208583086729,0.9996114373207092,0.007366063538938761,-0.015805890783667564,-0.0217549167573452
574.0,0.0,0.0,0.0,0.0,0.0,0.0,-0.04695240035653114,-0.004084041807800531,0.020987238734960556,0.9995530247688293,0.00577467679977417,-0.016685202717781067,-0.02412884496152401
575.0,0.0,0.0,0.0,0.0,0.0,0.0,-0.056985970586538315,0.017199214547872543,0.02473636157810688,0.999548614025116,0.0036425429861992598,-0.016824059188365936,-0.02461809664964676
576.0,0.0,0.0,0.0,0.0,0.0,0.0,-0.07143272459506989,0.015012982301414013,0.030251365154981613,0.999518096446991,0.001115325023420155,-0.017450861632823944,-0.025640539824962616
577.0,0.0,0.0,0.0,0.0,0.0,0.0,-0.0751517117023468,0.03898272290825844,0.04211973026394844,0.9995020031929016,-0.0030908274929970503,-0.01740511693060398,-0.0261458121240139
578.0,0.0,0.0,0.0,0.0,0.0,0.0,-0.05638612061738968,0.06932412087917328,0.058560460805892944,0.9994383454322815,-0.003789459355175495,-0.018406253308057785,-0.02774215117096901
579.0,0.0,0.0,0.0,0.0,0.0,0.0,-0.056412216275930405,0.0394960455596447,0.046639978885650635,0.9994075894355774,-0.004186457023024559,-0.01909553073346615,-0.028330622240900993
580.0,0.0,0.0,0.0,0.0,0.0,0.0,-0.06963562965393066,0.03141093999147415,0.013074262998998165,0.9993569850921631,-0.004389670677483082,-0.019614292308688164,-0.029688013717532158
581.0,0.0,0.0,0.0,0.0,0.0,0.0,-0.0787370502948761,0.03267690911889076,-0.0032009503338485956,0.9993075132369995,-0.005653619300574064,-0.019025005400180817,-0.03148122876882553
582.0,0.0,0.0,0.0,0.0,0.0,0.0,-0.03382089361548424,0.029461249709129333,-0.005191443488001823,0.9992510080337524,-0.006910320371389389,-0.01921716518700123,-0.032874513417482376
583.0,0.0,0.0,0.0,0.0,0.0,0.0,-0.03716171160340309,0.01832703687250614,-0.0068760528229177,0.9992185831069946,-0.009400635957717896,-0.019776884466409683,-0.03290674090385437
584.0,0.0,0.0,0.0,0.0,0.0,0.0,-0.04569443315267563,0.009037574753165245,-0.028045086190104485,0.9992185235023499,-0.014065926894545555,-0.020084889605641365,-0.031005367636680603
585.0,0.0,0.0,0.0,0.0,0.0,0.0,-0.02836214378476143,0.019179588183760643,-0.02506193518638611,0.9991546273231506,-0.020273443311452866,-0.021119121462106705,-0.028862688690423965
586.0,0.0,0.0,0.0,0.0,0.0,0.0,-0.011911875568330288,0.056721366941928864,0.013595479540526867,0.9991239905357361,-0.023564016446471214,-0.022281669080257416,-0.026454903185367584
587.0,0.0,0.0,0.0,0.0,0.0,0.0,-0.01633935607969761,0.052171193063259125,0.029026592150330544,0.9991021156311035,-0.024188358336687088,-0.02309889905154705,-0.02601456083357334
588.0,0.0,0.0,0.0,0.0,0.0,0.0,-0.02204066328704357,0.00981934554874897,-0.020146656781435013,0.9990503191947937,-0.026686564087867737,-0.022478483617305756,-0.02610173635184765
589.0,0.0,0.0,0.0,0.0,0.0,0.0,-0.0017890214221552014,0.009888183325529099,-0.029219001531600952,0.999009907245636,-0.027948683127760887,-0.022230178117752075,-0.02653207816183567
590.0,0.0,0.0,0.0,0.0,0.0,0.0,-0.01808253675699234,0.02382504567503929,0.020048292353749275,0.9990043044090271,-0.02810671366751194,-0.02104232646524906,-0.027521520853042603
591.0,0.0,0.0,0.0,0.0,0.0,0.0,-0.01427609845995903,0.020607534795999527,0.01253501046448946,0.9990158677101135,-0.028366098180413246,-0.018796226009726524,-0.0284564271569252
592.0,0.0,0.0,0.0,0.0,0.0,0.0,-0.004921290557831526,-0.036718934774398804,-0.03644387423992157,0.9989944696426392,-0.031170543283224106,-0.016965029761195183,-0.02739807404577732
593.0,0.0,0.0,0.0,0.0,0.0,0.0,-0.0029928507283329964,-0.03234117105603218,-0.03451747074723244,0.998974084854126,-0.0355595164000988,-0.01332067884504795,-0.024681784212589264
594.0,0.0,0.0,0.0,0.0,0.0,0.0,0.05393223464488983,0.06897767633199692,0.010124744847416878,0.9989891648292542,-0.03675194829702377,-0.012903077527880669,-0.022445330396294594
595.0,0.0,0.0,0.0,0.0,0.0,0.0,0.03702938184142113,0.004098581150174141,0.022126605734229088,0.9990316033363342,-0.036918897181749344,-0.013378999195992947,-0.019841162487864494
596.0,0.0,0.0,0.0,0.0,0.0,0.0,-0.013886823318898678,-0.007890894077718258,-0.0049810814671218395,0.9989960789680481,-0.039352450519800186,-0.012887619435787201,-0.01709648221731186
597.0,0.0,0.0,0.0,0.0,0.0,0.0,-0.012175031937658787,0.01817980967462063,0.0027951428201049566,0.9990118741989136,-0.0394865982234478,-0.012380619533360004,-0.016215819865465164
598.0,0.0,0.0,0.0,0.0,0.0,0.0,0.004606294445693493,0.005596601404249668,0.021275032311677933,0.9989929795265198,-0.040895696729421616,-0.01127780694514513,-0.014618589542806149
599.0,0.0,0.0,0.0,0.0,0.0,0.0,0.037506792694330215,0.08256285637617111,0.044583018869161606,0.9991148114204407,-0.037540603429079056,-0.011172197759151459,-0.015363538637757301
600.0,0.0,0.0,0.0,0.0,0.0,0.0,0.022054580971598625,0.04135247692465782,0.048748649656772614,0.9992994070053101,-0.03209484741091728,-0.011020387522876263,-0.015797436237335205
601.0,0.0,0.0,0.0,0.0,0.0,0.0,0.00836100522428751,-0.032294757664203644,0.0051275817677378654,0.9993990659713745,-0.029196014627814293,-0.011015873402357101,-0.015103246085345745
602.0,0.0,0.0,0.0,0.0,0.0,0.0,0.019388003274798393,-0.00619500083848834,-0.0019576367922127247,0.9994871020317078,-0.026410289108753204,-0.01109367050230503,-0.014318043366074562
603.0,0.0,0.0,0.0,0.0,0.0,0.0,0.04099923372268677,0.03538992628455162,0.020917877554893494,0.9996421933174133,-0.020792881026864052,-0.011877347715198994,-0.011912036687135696
604.0,0.0,0.0,0.0,0.0,0.0,0.0,0.04516017064452171,0.0020148647017776966,0.017049100250005722,0.9997933506965637,-0.013095376081764698,-0.012872163206338882,-0.008738437667489052
605.0,0.0,0.0,0.0,0.0,0.0,0.0,0.011388630606234074,-0.04528855159878731,-0.025713413953781128,0.999883234500885,-0.00674330024048686,-0.01286325789988041,-0.0047740936279296875
606.0,0.0,0.0,0.0,0.0,0.0,0.0,-0.019664082676172256,-0.021905740723013878,-0.005860429257154465,0.9999207854270935,0.00034818152198567986,-0.012044994160532951,-0.0036265566013753414
607.0,0.0,0.0,0.0,0.0,0.0,0.0,-0.01645018719136715,-0.009815971367061138,0.04561671242117882,0.9998984932899475,0.007277944125235081,-0.010007625445723534,-0.007105797529220581
608.0,0.0,0.0,0.0,0.0,0.0,0.0,-0.006715168710798025,-0.00968390516936779,0.030954087153077126,0.9998500943183899,0.011265802197158337,-0.007522257510572672,-0.010767157189548016
609.0,0.0,0.0,0.0,0.0,0.0,0.0,-0.014733802527189255,-0.013675907626748085,0.016547560691833496,0.9997623562812805,0.013945285230875015,-0.003929737489670515,-0.016299674287438393
610.0,0.0,0.0,0.0,0.0,0.0,0.0,0.03442462161183357,-0.01480697002261877,-0.014905956573784351,0.9996629357337952,0.017337610945105553,-0.0009815363446250558,-0.01930268108844757
611.0,0.0,0.0,0.0,0.0,0.0,0.0,0.06907191872596741,-0.029938608407974243,-0.035867780447006226,0.9996262192726135,0.02037110924720764,-0.0009663700475357473,-0.018207304179668427
612.0,0.0,0.0,0.0,0.0,0.0,0.0,0.004712127614766359,-0.02804562635719776,0.007920477539300919,0.999652087688446,0.02090856060385704,-0.0005197813734412193,-0.01608252339065075
613.0,0.0,0.0,0.0,0.0,0.0,0.0,-0.04509853199124336,-0.007254816126078367,0.01304708980023861,0.9997018575668335,0.019942207261919975,0.0011978511465713382,-0.014030516147613525
614.0,0.0,0.0,0.0,0.0,0.0,0.0,-0.006429750472307205,0.0004943477688357234,-0.005948050878942013,0.9997643828392029,0.01775829866528511,0.0031439727172255516,-0.012077267281711102
615.0,0.0,0.0,0.0,0.0,0.0,0.0,0.0541161373257637,-0.006666914559900761,-0.012997608631849289,0.9997978806495667,0.016237331554293633,0.003781657200306654,-0.011256237514317036
616.0,0.0,0.0,0.0,0.0,0.0,0.0,0.03184524551033974,0.010568428784608841,0.031115541234612465,0.9998242259025574,0.01494569517672062,0.0041429451666772366,-0.010543734766542912
617.0,0.0,0.0,0.0,0.0,0.0,0.0,-0.028810836374759674,0.02644277736544609,0.023058954626321793,0.9997959136962891,0.014609136618673801,0.005343466065824032,-0.012895485386252403
618.0,0.0,0.0,0.0,0.0,0.0,0.0,-0.020228052511811256,-0.018885895609855652,-0.018980463966727257,0.9997613430023193,0.014149563387036324,0.0076399450190365314,-0.01479056291282177
619.0,0.0,0.0,0.0,0.0,0.0,0.0,0.028620069846510887,-0.031933993101119995,-0.022617140784859657,0.9997862577438354,0.01175612397491932,0.010099145583808422,-0.01369642373174429
620.0,0.0,0.0,0.0,0.0,0.0,0.0,0.01649945043027401,-0.0040509975515306,-0.01244010217487812,0.9998566508293152,0.009359815157949924,0.010216351598501205,-0.009733322076499462
621.0,0.0,0.0,0.0,0.0,0.0,0.0,0.001179156475700438,0.010896177962422371,-0.011846059933304787,0.9998900890350342,0.007889779284596443,0.012255067937076092,-0.0026482483372092247
622.0,0.0,0.0,0.0,0.0,0.0,0.0,0.01816963218152523,0.013855946250259876,-0.015042037703096867,0.9998515248298645,0.007300353143364191,0.015019127167761326,0.0042805434204638
623.0,0.0,0.0,0.0,0.0,0.0,0.0,0.0705648735165596,0.026552997529506683,-0.009851740673184395,0.9997909069061279,0.009052731096744537,0.016546539962291718,0.007916858419775963
624.0,0.0,0.0,0.0,0.0,0.0,0.0,0.07106640934944153,0.010799655690789223,-0.033233072608709335,0.9997786283493042,0.010163878090679646,0.015657158568501472,0.009705541655421257
625.0,0.0,0.0,0.0,0.0,0.0,0.0,0.012499083764851093,-0.023188136518001556,-0.044261738657951355,0.9998047351837158,0.008274774998426437,0.015789024531841278,0.008532051928341389
626.0,0.0,0.0,0.0,0.0,0.0,0.0,-0.0034439992159605026,-0.006465753074735403,-0.03498424217104912,0.9998405575752258,0.00380266597494483,0.016286401078104973,0.006261831149458885
627.0,0.0,0.0,0.0,0.0,0.0,0.0,0.024082133546471596,-0.05140421912074089,-0.09459812194108963,0.9998428821563721,-0.003512989729642868,0.01490669883787632,0.008922887966036797
628.0,0.0,0.0,0.0,0.0,0.0,0.0,0.05266180261969566,-0.04078930988907814,-0.07228689640760422,0.9996955394744873,-0.014636948704719543,0.011437642388045788,0.016255337744951248
629.0,0.0,0.0,0.0,0.0,0.0,0.0,0.023428689688444138,0.07453824579715729,0.011059857904911041,0.9994100332260132,-0.02311803214251995,0.005291962064802647,0.02484121546149254
630.0,0.0,0.0,0.0,0.0,0.0,0.0,-0.010714217089116573,0.12849478423595428,0.05549755319952965,0.9993079900741577,-0.02610311657190323,-0.0001404492068104446,0.02649884857237339
631.0,0.0,0.0,0.0,0.0,0.0,0.0,0.0011003718245774508,0.039826370775699615,0.09429168701171875,0.9994000196456909,-0.025167306885123253,-0.004698854871094227,0.023328017443418503
632.0,0.0,0.0,0.0,0.0,0.0,0.0,-0.08297529816627502,0.012978211045265198,0.05400451645255089,0.9995603561401367,-0.023780658841133118,-0.006727518048137426,0.01638183183968067
633.0,0.0,0.0,0.0,0.0,0.0,0.0,-0.09566111862659454,-0.030310099944472313,-0.041942451149225235,0.9997098445892334,-0.022430475801229477,-0.005110461730509996,0.007149668410420418
634.0,0.0,0.0,0.0,0.0,0.0,0.0,0.027319399639964104,-0.02307433821260929,-0.027844885364174843,0.9998357892036438,-0.017836393788456917,-0.003102125832810998,0.000790243037045002
635.0,0.0,0.0,0.0,0.0,0.0,0.0,0.03254445269703865,-0.03052181750535965,0.0015340502141043544,0.9999244809150696,-0.012176984921097755,-0.0006329252501018345,0.0015697204507887363
636.0,0.0,0.0,0.0,0.0,0.0,0.0,-0.05706654489040375,-0.047033436596393585,0.004800753202289343,0.9999359846115112,-0.008548296988010406,0.005760733503848314,0.00467195687815547
637.0,0.0,0.0,0.0,0.0,0.0,0.0,-0.060589227825403214,-0.03258437663316727,-0.04383429139852524,0.9998313188552856,-0.009043354541063309,0.014240475371479988,0.007262473925948143
638.0,0.0,0.0,0.0,0.0,0.0,0.0,0.0034726420417428017,-0.05511980876326561,-0.09166878461837769,0.999656617641449,-0.010801296681165695,0.021918505430221558,0.009467091411352158
639.0,0.0,0.0,0.0,0.0,0.0,0.0,0.038727715611457825,-0.015018719248473644,-0.02546674571931362,0.9995044469833374,-0.012023466639220715,0.02751953899860382,0.009428085759282112
640.0,0.0,0.0,0.0,0.0,0.0,0.0,0.03612612560391426,0.08617663383483887,0.10200274735689163,0.9995452761650085,-0.0053636012598872185,0.029288621619343758,0.004759668838232756
641.0,0.0,0.0,0.0,0.0,0.0,0.0,-0.043848346918821335,0.02998700924217701,0.07216154783964157,0.9995205998420715,0.0006944310152903199,0.030923981219530106,-0.0013432378182187676
642.0,0.0,0.0,0.0,0.0,0.0,0.0,-0.07021000981330872,-0.05044983699917793,-0.05280304327607155,0.9993802905082703,-0.0003442720044404268,0.034718044102191925,-0.005786757916212082
643.0,0.0,0.0,0.0,0.0,0.0,0.0,-0.033096205443143845,-0.037523943930864334,-0.06710822880268097,0.9992091059684753,-0.0018742543179541826,0.03960960730910301,-0.002959170611575246
644.0,0.0,0.0,0.0,0.0,0.0,0.0,0.0703800693154335,-0.018805233761668205,-0.02769310399889946,0.999017059803009,-0.004609762225300074,0.043654751032590866,0.006158245261758566
645.0,0.0,0.0,0.0,0.0,0.0,0.0,0.0532241016626358,0.0028260478284209967,-0.01320724654942751,0.9989323019981384,-0.005825426429510117,0.0444997102022171,0.010958312079310417
646.0,0.0,0.0,0.0,0.0,0.0,0.0,-0.018130771815776825,-0.0028491311240941286,-0.04973374307155609,0.9988734722137451,-0.010841711424291134,0.04403705522418022,0.013963078148663044
647.0,0.0,0.0,0.0,0.0,0.0,0.0,-0.034857362508773804,0.0024593258276581764,0.006938716862350702,0.9988728165626526,-0.012951060198247433,0.044092997908592224,0.01187931653112173
648.0,0.0,0.0,0.0,0.0,0.0,0.0,0.0007641252013854682,0.04084375128149986,0.019227409735322,0.99881911277771,-0.016224276274442673,0.04483204707503319,0.009350023232400417
649.0,0.0,0.0,0.0,0.0,0.0,0.0,-0.009661112911999226,0.03009827435016632,-0.012592758052051067,0.9988964796066284,-0.01826613023877144,0.04304402694106102,0.004408019594848156
650.0,0.0,0.0,0.0,0.0,0.0,0.0,0.008288600482046604,-0.020058775320649147,-0.049125198274850845,0.9989146590232849,-0.019399747252464294,0.042245808988809586,0.0028841050807386637
651.0,0.0,0.0,0.0,0.0,0.0,0.0,-0.0076951514929533005,-0.00017071016191039234,-0.023909490555524826,0.998823881149292,-0.021662063896656036,0.042634252458810806,0.008001009002327919
652.0,0.0,0.0,0.0,0.0,0.0,0.0,-0.03903152421116829,0.03128131106495857,0.020107770338654518,0.9987409114837646,-0.02328621596097946,0.04301666095852852,0.011129303835332394
653.0,0.0,0.0,0.0,0.0,0.0,0.0,-0.008859260007739067,0.025155825540423393,0.00870494730770588,0.9986221194267273,-0.02529071643948555,0.04404383897781372,0.013207323849201202
654.0,0.0,0.0,0.0,0.0,0.0,0.0,0.03297847509384155,-0.002167433500289917,-0.018067389726638794,0.9985520243644714,-0.02698240801692009,0.04392578452825546,0.015374377369880676
655.0,0.0,0.0,0.0,0.0,0.0,0.0,0.018373899161815643,0.015123988501727581,0.008255459368228912,0.9985611438751221,-0.028460752218961716,0.04288080707192421,0.01506209746003151
656.0,0.0,0.0,0.0,0.0,0.0,0.0,0.009845873340964317,0.034178849309682846,0.025628261268138885,0.9986518025398254,-0.028369762003421783,0.041592784225940704,0.01263800822198391
657.0,0.0,0.0,0.0,0.0,0.0,0.0,-0.01196311879903078,0.00030907365726307034,0.005773826967924833,0.998680055141449,-0.028881190344691277,0.041102584451436996,0.010708590969443321
658.0,0.0,0.0,0.0,0.0,0.0,0.0,-0.012161064893007278,0.017645012587308884,0.011516034603118896,0.9986945390701294,-0.029290538281202316,0.0407068133354187,0.009710973128676414
659.0,0.0,0.0,0.0,0.0,0.0,0.0,-0.01595495268702507,-0.0069402530789375305,0.01631828211247921,0.998650312423706,-0.03053087741136551,0.040849391371011734,0.009830750524997711
660.0,0.0,0.0,0.0,0.0,0.0,0.0,-5.547814794226724e-07,-0.0004424884100444615,-0.012665766291320324,0.9984859824180603,-0.03369370102882385,0.041574642062187195,0.012727384455502033
661.0,0.0,0.0,0.0,0.0,0.0,0.0,0.010971961542963982,0.0067010666243731976,0.008131950162351131,0.9984016418457031,-0.034869078546762466,0.041604556143283844,0.015734361484646797
662.0,0.0,0.0,0.0,0.0,0.0,0.0,0.01606019213795662,0.006870617158710957,0.010722097009420395,0.9983199834823608,-0.03602862358093262,0.04180457442998886,0.01765689067542553
663.0,0.0,0.0,0.0,0.0,0.0,0.0,0.004180481191724539,-0.00023294848506338894,0.004699759650975466,0.9982549548149109,-0.037388499826192856,0.04165905714035034,0.018803199753165245
664.0,0.0,0.0,0.0,0.0,0.0,0.0,0.0011114843655377626,-0.0015337752411141992,0.0044138613156974316,0.9982047080993652,-0.03937448188662529,0.0414639487862587,0.0178225040435791
665.0,0.0,0.0,0.0,0.0,0.0,0.0,0.005099709611386061,0.011899294331669807,0.0058404672890901566,0.998202383518219,-0.040719013661146164,0.04117942228913307,0.015440989285707474
666.0,0.0,0.0,0.0,0.0,0.0,0.0,0.02140599675476551,-0.005707547068595886,-0.0022809633519500494,0.9982397556304932,-0.0410766564309597,0.040454741567373276,0.013911174610257149
667.0,0.0,0.0,0.0,0.0,0.0,0.0,0.020560823380947113,-0.0048985290341079235,-0.0076804994605481625,0.9982035160064697,-0.04205482080578804,0.0401303768157959,0.014516901224851608
668.0,0.0,0.0,0.0,0.0,0.0,0.0,0.018488585948944092,0.005049482453614473,0.002393492730334401,0.9981473684310913,-0.042754948139190674,0.040294043719768524,0.015830863267183304
669.0,0.0,0.0,0.0,0.0,0.0,0.0,0.03275700658559799,0.009148196317255497,0.004291835706681013,0.9981274008750916,-0.042647216469049454,0.03966853767633438,0.018691837787628174
670.0,0.0,0.0,0.0,0.0,0.0,0.0,0.04894993454217911,0.006427939049899578,0.001111657707951963,0.9981852769851685,-0.04144608974456787,0.0383598655462265,0.020901601761579514
671.0,0.0,0.0,0.0,0.0,0.0,0.0,0.045042868703603745,0.021661775186657906,0.010305115021765232,0.9983360767364502,-0.038846153765916824,0.0366443432867527,0.021762600168585777
672.0,0.0,0.0,0.0,0.0,0.0,0.0,0.03787441551685333,-0.01121459249407053,0.016529608517885208,0.9985474348068237,-0.03626789152622223,0.03394324332475662,0.020869165658950806
673.0,0.0,0.0,0.0,0.0,0.0,0.0,0.025548944249749184,0.006642884109169245,2.680543730093632e-05,0.9987545013427734,-0.03378590568900108,0.03095162659883499,0.019749077036976814
674.0,0.0,0.0,0.0,0.0,0.0,0.0,0.018023261800408363,0.023716557770967484,0.005221517290920019,0.9990750551223755,-0.028166621923446655,0.027887437492609024,0.01666930504143238
675.0,0.0,0.0,0.0,0.0,0.0,0.0,-0.0029960181564092636,-0.021827025339007378,-0.009885367006063461,0.9992946982383728,-0.023822717368602753,0.02581113949418068,0.013279907405376434
676.0,0.0,0.0,0.0,0.0,0.0,0.0,0.006535694468766451,-0.010458486154675484,0.0030972417443990707,0.9994133710861206,-0.0210034791380167,0.02444835752248764,0.011588595807552338
677.0,0.0,0.0,0.0,0.0,0.0,0.0,0.01689564809203148,0.003524611471220851,0.005096742883324623,0.9995170831680298,-0.018258558586239815,0.02241753786802292,0.011399788782000542
678.0,0.0,0.0,0.0,0.0,0.0,0.0,0.013376745395362377,-0.015999002382159233,-0.012099605984985828,0.9995044469833374,-0.01896686851978302,0.0212709940969944,0.01337780524045229
679.0,0.0,0.0,0.0,0.0,0.0,0.0,0.04039474576711655,0.005630547180771828,0.0006988465902395546,0.999496340751648,-0.01868388243019581,0.019577350467443466,0.016578221693634987
680.0,0.0,0.0,0.0,0.0,0.0,0.0,0.04349743574857712,0.023134198039770126,0.02103419043123722,0.9995000958442688,-0.017534418031573296,0.016768550500273705,0.020271209999918938
681.0,0.0,0.0,0.0,0.0,0.0,0.0,-0.008483276702463627,0.014293421059846878,0.045288000255823135,0.9994759559631348,-0.01816975139081478,0.014645788818597794,0.02243722788989544
682.0,0.0,0.0,0.0,0.0,0.0,0.0,-0.025857888162136078,0.024352921172976494,0.014152993448078632,0.999420702457428,-0.02069973014295101,0.013105923309922218,0.023622319102287292
683.0,0.0,0.0,0.0,0.0,0.0,0.0,0.052165523171424866,0.00919891707599163,0.0025483211502432823,0.9994137287139893,-0.022077985107898712,0.010483469814062119,0.023983124643564224
684.0,0.0,0.0,0.0,0.0,0.0,0.0,0.05716702342033386,-0.017749471589922905,-0.0030200660694390535,0.9993241429328918,-0.02598876692354679,0.006568880286067724,0.02514936402440071
685.0,0.0,0.0,0.0,0.0,0.0,0.0,-0.0003178972692694515,0.03365379571914673,0.011520334519445896,0.9991849064826965,-0.029825571924448013,0.003567090956494212,0.02696411870419979
686.0,0.0,0.0,0.0,0.0,0.0,0.0,-0.02172984555363655,0.07900038361549377,0.068477101624012,0.9993473291397095,-0.027199117466807365,0.0017556353705003858,0.023711225017905235
687.0,0.0,0.0,0.0,0.0,0.0,0.0,-0.023917533457279205,-0.011444048024713993,0.03071150928735733,0.9994623064994812,-0.024890264496207237,0.0035139070823788643,0.021062180399894714
688.0,0.0,0.0,0.0,0.0,0.0,0.0,0.03898086026310921,-0.029982460662722588,-0.019974663853645325,0.9994396567344666,-0.02454425022006035,0.0009695061016827822,0.022739466279745102
689.0,0.0,0.0,0.0,0.0,0.0,0.0,0.025318946689367294,-0.0018439164850860834,0.03164610266685486,0.999517560005188,-0.021398697048425674,5.193570177652873e-05,0.02250562608242035
690.0,0.0,0.0,0.0,0.0,0.0,0.0,-0.03403165936470032,0.01852864772081375,0.059186648577451706,0.999673068523407,-0.016568182036280632,0.0011823490494862199,0.0194423645734787
691.0,0.0,0.0,0.0,0.0,0.0,0.0,-0.005613837856799364,-0.025171449407935143,0.012192126363515854,0.9997784495353699,-0.01342840027064085,0.0035617370158433914,0.015815328806638718
692.0,0.0,0.0,0.0,0.0,0.0,0.0,0.04848786070942879,-0.03367796167731285,-0.015024024061858654,0.9998331069946289,-0.010212207213044167,0.00526483403518796,0.014200703240931034
693.0,0.0,0.0,0.0,0.0,0.0,0.0,0.04708484560251236,-0.014571236446499825,0.0009570990223437548,0.9998770356178284,-0.005845320876687765,0.006488971412181854,0.013029473833739758
694.0,0.0,0.0,0.0,0.0,0.0,0.0,0.019742285832762718,-0.0174520593136549,-0.0007741345907561481,0.9998747110366821,-0.0025071545969694853,0.0078025441616773605,0.01354247611016035
695.0,0.0,0.0,0.0,0.0,0.0,0.0,0.0220305398106575,-0.01737118698656559,-0.011442506685853004,0.999861478805542,-0.0003173401055391878,0.008960137143731117,0.014020070433616638
696.0,0.0,0.0,0.0,0.0,0.0,0.0,0.03408779948949814,-0.021528730168938637,-0.032561566680669785,0.99984210729599,0.0016659654211252928,0.0090585732832551,0.015201124362647533
697.0,0.0,0.0,0.0,0.0,0.0,0.0,0.011210735887289047,-0.015425910241901875,-0.019117332994937897,0.9998366832733154,0.0034694396890699863,0.00910248700529337,0.015223193913698196
698.0,0.0,0.0,0.0,0.0,0.0,0.0,-0.016529593616724014,-0.02391565777361393,-0.030562585219740868,0.9998435378074646,0.003210134105756879,0.010084643959999084,0.014178513549268246
699.0,0.0,0.0,0.0,0.0,0.0,0.0,0.004060337319970131,-0.024025598540902138,-0.04233480989933014,0.9998632669448853,0.0018158199964091182,0.010911049321293831,0.012292229570448399
700.0,0.0,0.0,0.0,0.0,0.0,0.0,0.016905592754483223,-0.016023147851228714,-0.030698338523507118,0.9998862743377686,0.00036957315751351416,0.01088002510368824,0.01043836772441864
701.0,0.0,0.0,0.0,0.0,0.0,0.0,-0.013158622197806835,-0.009283127263188362,-0.008660226128995419,0.9998911619186401,-0.0009169692639261484,0.010557645931839943,0.010265015996992588
702.0,0.0,0.0,0.0,0.0,0.0,0.0,-0.02884870208799839,0.015417836606502533,0.0032870376016944647,0.9998928904533386,-0.0015379743417724967,0.010699659585952759,0.009866390377283096
703.0,0.0,0.0,0.0,0.0,0.0,0.0,0.011205285787582397,0.003956321626901627,-0.01607716642320156,0.9998855590820312,-0.00283408397808671,0.010786647908389568,0.010226622223854065
704.0,0.0,0.0,0.0,0.0,0.0,0.0,-0.006135439034551382,-0.006416568998247385,-0.019249869510531425,0.9998753070831299,-0.0036980127915740013,0.010191048495471478,0.011482711881399155
705.0,0.0,0.0,0.0,0.0,0.0,0.0,-0.03741281479597092,-0.0038973060436546803,-0.015671003609895706,0.9998456835746765,-0.0056805722415447235,0.009950575418770313,0.013316324912011623
706.0,0.0,0.0,0.0,0.0,0.0,0.0,-0.01852618157863617,-0.0031630191951990128,-0.011982000432908535,0.9997965097427368,-0.010670799762010574,0.009426207281649113,0.014291676692664623
707.0,0.0,0.0,0.0,0.0,0.0,0.0,-0.01140094455331564,0.019334137439727783,-0.00803964864462614,0.9997342228889465,-0.014644496142864227,0.010481206700205803,0.014391712844371796
708.0,0.0,0.0,0.0,0.0,0.0,0.0,0.008436262607574463,0.03576024994254112,0.0035067929420620203,0.9996978044509888,-0.01758168824017048,0.009443813003599644,0.014352233149111271
709.0,0.0,0.0,0.0,0.0,0.0,0.0,0.010005113668739796,0.04236012324690819,0.03503378480672836,0.99974125623703,-0.01629542000591755,0.00899914838373661,0.013076575472950935
710.0,0.0,0.0,0.0,0.0,0.0,0.0,-0.01660788059234619,0.03226717561483383,0.021413350477814674,0.9998061656951904,-0.01331303920596838,0.009232115931808949,0.011185236275196075
711.0,0.0,0.0,0.0,0.0,0.0,0.0,-0.017476940527558327,-0.01149082463234663,-0.014305748045444489,0.9998441934585571,-0.011131473816931248,0.009990425780415535,0.009378695860505104
712.0,0.0,0.0,0.0,0.0,0.0,0.0,0.011947727762162685,-0.010424201376736164,-0.0028879675082862377,0.9998645782470703,-0.009140223264694214,0.010586844757199287,0.008669278584420681
713.0,0.0,0.0,0.0,0.0,0.0,0.0,0.025587307289242744,0.009451132267713547,0.014176789671182632,0.9998794794082642,-0.0060815527103841305,0.010859834961593151,0.009282974526286125
714.0,0.0,0.0,0.0,0.0,0.0,0.0,0.013126990757882595,0.002469931961968541,-0.004485194571316242,0.9998883605003357,-0.00263692787848413,0.011464379727840424,0.009211033582687378
715.0,0.0,0.0,0.0,0.0,0.0,0.0,0.013071882538497448,-0.023372022435069084,-0.03613010421395302,0.999888002872467,0.0007251475472003222,0.012141658924520016,0.008720374666154385
716.0,0.0,0.0,0.0,0.0,0.0,0.0,0.03504817932844162,-0.06070970371365547,-0.035403866320848465,0.9998825788497925,0.0011676824651658535,0.012360066175460815,0.00898708775639534
717.0,0.0,0.0,0.0,0.0,0.0,0.0,0.04002663865685463,-0.019659142941236496,-0.010252048261463642,0.9998835325241089,-0.00020784884691238403,0.012208227999508381,0.009161286056041718
718.0,0.0,0.0,0.0,0.0,0.0,0.0,0.013549834489822388,0.012426246888935566,0.02406908944249153,0.99990314245224,-0.00011328456457704306,0.01139123272150755,0.007993893697857857
719.0,0.0,0.0,0.0,0.0,0.0,0.0,-0.00594848720356822,0.003477472113445401,0.02278894931077957,0.9999178647994995,0.001119812484830618,0.011371834203600883,0.005809169262647629
720.0,0.0,0.0,0.0,0.0,0.0,0.0,0.008541297167539597,-0.016388628631830215,0.014917349442839622,0.9999268651008606,0.002575674094259739,0.011322194710373878,0.003401555586606264
721.0,0.0,0.0,0.0,0.0,0.0,0.0,0.017308393493294716,-0.00806873757392168,0.012420686893165112,0.9999340176582336,0.004418585915118456,0.01041493657976389,0.00201557669788599
722.0,0.0,0.0,0.0,0.0,0.0,0.0,-0.01713315024971962,-0.0016155085759237409,0.02010171487927437,0.9999321103096008,0.006018589250743389,0.00984690710902214,0.0016457343008369207
723.0,0.0,0.0,0.0,0.0,0.0,0.0,-0.028409654274582863,-0.0016658728709444404,0.010161642916500568,0.9999194741249084,0.007037756498903036,0.010536527261137962,0.0008009235025383532
