,Position_X,Position_Y,Position_Z,Velocity_X,Velocity_Y,Velocity_Z,Acceleration_X,Acceleration_Y,Acceleration_Z,Quaterion_0,Quaterion_1,Quaterion_2,Quaterion_3
51.0,0.0,0.0,0.0,0.0,0.0,0.0,-0.053890153765678406,-0.013985976576805115,-0.007297351956367493,1.0,0.0,2.7755575615628914e-17,-4.163336342344337e-17
52.0,0.0,0.0,0.0,0.0,0.0,0.0,-0.04723753780126572,-0.015173741616308689,-0.010870376601815224,0.9999996423721313,2.1771138563053682e-05,0.0008110490744002163,-0.0002454435743857175
53.0,0.0,0.0,0.0,0.0,0.0,0.0,-0.040773969143629074,-0.011328206397593021,-0.012746631167829037,0.9999990463256836,0.0006681641680188477,0.0012091032695025206,0.00015046034241095185
54.0,0.0,0.0,0.0,0.0,0.0,0.0,-0.038452085107564926,-0.006742561236023903,-0.011014525778591633,0.9999977946281433,0.0011870318558067083,0.0016834642738103867,0.0004295379912946373
55.0,0.0,0.0,0.0,0.0,0.0,0.0,-0.032000716775655746,-0.0028020653408020735,-0.010580824688076973,0.9999964833259583,0.0015594958094879985,0.002109496621415019,0.00041671079816296697
56.0,0.0,0.0,0.0,0.0,0.0,0.0,0.48174968361854553,-0.8382984399795532,0.041375093162059784,0.9993197321891785,0.021920770406723022,-0.010593920014798641,-0.027699420228600502
57.0,0.0,0.0,0.0,0.0,0.0,0.0,-1.4828428030014038,0.8483381271362305,-0.1966073364019394,0.9873155355453491,0.0744900181889534,-0.03459659591317177,-0.13587753474712372
58.0,0.0,0.0,0.0,0.0,0.0,0.0,-0.4294348955154419,1.2551095485687256,-0.16897188127040863,0.9850712418556213,0.0868954136967659,-0.03070540353655815,-0.14539742469787598
59.0,0.0,0.0,0.0,0.0,0.0,0.0,0.07836845517158508,-0.8205373287200928,0.10549157112836838,0.9849604368209839,0.08187102526426315,-0.031917355954647064,-0.1487571746110916
60.0,0.0,0.0,0.0,0.0,0.0,0.0,-0.14940522611141205,0.14035150408744812,-0.04053936526179314,0.9831541180610657,0.08617260307073593,-0.032418761402368546,-0.15789905190467834
61.0,0.0,0.0,0.0,0.0,0.0,0.0,0.00569565687328577,-0.06820627301931381,-0.031227193772792816,0.9817173480987549,0.0936187282204628,-0.030449271202087402,-0.16291511058807373
62.0,0.0,0.0,0.0,0.0,0.0,0.0,-0.08110243082046509,-0.20805925130844116,-0.03464382514357567,0.9800667762756348,0.09772324562072754,-0.025401482358574867,-0.17110759019851685
63.0,0.0,0.0,0.0,0.0,0.0,0.0,-0.12176273763179779,-0.1801915466785431,-0.028568491339683533,0.9792577624320984,0.09835239499807358,-0.019279826432466507,-0.1761099249124527
64.0,0.0,0.0,0.0,0.0,0.0,0.0,-0.033917274326086044,-0.08352988958358765,-0.007860777899622917,0.9793702363967896,0.0977645218372345,-0.014918696135282516,-0.17621009051799774
65.0,0.0,0.0,0.0,0.0,0.0,0.0,0.020433684810996056,0.017175210639834404,0.011252537369728088,0.9797402024269104,0.09642894566059113,-0.012409557588398457,-0.17508214712142944
66.0,0.0,0.0,0.0,0.0,0.0,0.0,-0.005473986268043518,0.04224393889307976,0.027780795469880104,0.9803415536880493,0.09109774231910706,-0.01011915598064661,-0.17472250759601593
67.0,0.0,0.0,0.0,0.0,0.0,0.0,-0.061218712478876114,0.0886417031288147,0.036044489592313766,0.9824740290641785,0.0754593089222908,-0.006666253786534071,-0.17031970620155334
68.0,0.0,0.0,0.0,0.0,0.0,0.0,-0.10606704652309418,0.10056279599666595,0.04260772466659546,0.9873862266540527,0.0485210046172142,0.002363994251936674,-0.15069156885147095
69.0,0.0,0.0,0.0,0.0,0.0,0.0,0.08776775002479553,-0.2162545919418335,0.30877116322517395,0.994732141494751,0.024747299030423164,0.01810566894710064,-0.09781555086374283
70.0,0.0,0.0,0.0,0.0,0.0,0.0,0.3450241684913635,-0.4801618456840515,-0.058653805404901505,0.9966567754745483,0.04050072282552719,0.01807437650859356,-0.06862086057662964
71.0,0.0,0.0,0.0,0.0,0.0,0.0,0.06898760050535202,0.0480465367436409,-0.13470841944217682,0.9967118501663208,0.04069600626826286,0.016184082254767418,-0.06817343831062317
72.0,0.0,0.0,0.0,0.0,0.0,0.0,0.010303249582648277,-0.029362181201577187,0.06554342806339264,0.9970842599868774,0.036478422582149506,0.01725592650473118,-0.06476448476314545
73.0,0.0,0.0,0.0,0.0,0.0,0.0,0.03083532676100731,-0.0614146813750267,-0.001741750631481409,0.9972676038742065,0.03586042299866676,0.01743435114622116,-0.062190793454647064
74.0,0.0,0.0,0.0,0.0,0.0,0.0,0.006896411068737507,-0.00194339279551059,0.011501449160277843,0.9973660707473755,0.03426176309585571,0.01732616499066353,-0.06153762713074684
75.0,0.0,0.0,0.0,0.0,0.0,0.0,-0.0017672316171228886,-0.00580266397446394,0.02340925671160221,0.9974334239959717,0.032869406044483185,0.01712198182940483,-0.06126347929239273
76.0,0.0,0.0,0.0,0.0,0.0,0.0,0.005409181118011475,0.005044290795922279,0.020484931766986847,0.9975066184997559,0.03212183713912964,0.016664188355207443,-0.06058858707547188
77.0,0.0,0.0,0.0,0.0,0.0,0.0,0.008808004669845104,0.00784512422978878,0.019107192754745483,0.9975967407226562,0.03140173852443695,0.016659289598464966,-0.059473905712366104
78.0,0.0,0.0,0.0,0.0,0.0,0.0,0.00887734442949295,0.0009716904605738819,0.01869279146194458,0.9976787567138672,0.03037799522280693,0.017102178186178207,-0.05849150940775871
79.0,0.0,0.0,0.0,0.0,0.0,0.0,0.017260853201150894,-0.00017903296975418925,0.016615839675068855,0.9977737665176392,0.02950875274837017,0.017061464488506317,-0.05732451379299164
80.0,0.0,0.0,0.0,0.0,0.0,0.0,0.014402618631720543,-0.006061697378754616,0.008251627907156944,0.9978558421134949,0.029321756213903427,0.016701027750968933,-0.05607841908931732
81.0,0.0,0.0,0.0,0.0,0.0,0.0,0.013620773330330849,-0.012029779143631458,0.008129063993692398,0.9978960156440735,0.029628127813339233,0.016185687854886055,-0.05535029619932175
82.0,0.0,0.0,0.0,0.0,0.0,0.0,0.00991248432546854,-0.022315198555588722,0.006322175730019808,0.9979042410850525,0.029752952978014946,0.015477512963116169,-0.05533887445926666
83.0,0.0,0.0,0.0,0.0,0.0,0.0,0.012323422357439995,-0.02429208718240261,0.00310990447178483,0.9979493618011475,0.030004771426320076,0.014897302724421024,-0.05454138293862343
84.0,0.0,0.0,0.0,0.0,0.0,0.0,0.013227232731878757,-0.03290168195962906,-0.0027013802900910378,0.9980008006095886,0.03021049126982689,0.014766700565814972,-0.05351348966360092
85.0,0.0,0.0,0.0,0.0,0.0,0.0,0.010308340191841125,-0.032080382108688354,-0.0003423171292524785,0.9980607032775879,0.02999177761375904,0.014927883632481098,-0.05246615409851074
86.0,0.0,0.0,0.0,0.0,0.0,0.0,0.01237831637263298,-0.02857443317770958,-0.001469542272388935,0.9981426000595093,0.029580973088741302,0.015150954015552998,-0.051058728247880936
87.0,0.0,0.0,0.0,0.0,0.0,0.0,0.008097698912024498,-0.025771990418434143,0.0007820278406143188,0.9981772303581238,0.02922203205525875,0.015142865478992462,-0.0505838505923748
88.0,0.0,0.0,0.0,0.0,0.0,0.0,0.0013427998637780547,-0.024955864995718002,0.004682430066168308,0.9981834888458252,0.02916618250310421,0.015263142995536327,-0.050454944372177124
89.0,0.0,0.0,0.0,0.0,0.0,0.0,0.0808647945523262,-0.15772418677806854,-0.008197065442800522,0.9980778694152832,0.02944207936525345,0.012908653356134892,-0.052981384098529816
90.0,0.0,0.0,0.0,0.0,0.0,0.0,-0.1892332285642624,-0.7912256717681885,0.33007293939590454,0.9911121726036072,0.03714064881205559,-0.013821694999933243,-0.12698353826999664
91.0,0.0,0.0,0.0,0.0,0.0,0.0,-0.8646281361579895,2.1413660049438477,-0.07782869040966034,0.9873532056808472,0.04970934987068176,-0.017264025285840034,-0.14955110847949982
92.0,0.0,0.0,0.0,0.0,0.0,0.0,0.10048651695251465,-0.7121309638023376,-0.03464854136109352,0.9883241057395935,0.047079332172870636,-0.013335485942661762,-0.14429204165935516
93.0,0.0,0.0,0.0,0.0,0.0,0.0,-0.06107798218727112,-0.1396215707063675,-0.02866639755666256,0.9888437986373901,0.04359608516097069,-0.010434355586767197,-0.14206074178218842
94.0,0.0,0.0,0.0,0.0,0.0,0.0,0.013941382989287376,0.14088082313537598,-0.036630671471357346,0.9889521598815918,0.047158222645521164,-0.008592803962528706,-0.140265554189682
95.0,0.0,0.0,0.0,0.0,0.0,0.0,-0.02455548383295536,-0.08655866235494614,-0.05501928552985191,0.9883632659912109,0.05121055990457535,-0.0049469382502138615,-0.14314958453178406
96.0,0.0,0.0,0.0,0.0,0.0,0.0,-0.05612042546272278,0.0017832721350714564,-0.019048400223255157,0.9872033596038818,0.058830250054597855,-0.0011568305781111121,-0.14820775389671326
97.0,0.0,0.0,0.0,0.0,0.0,0.0,-0.10134068131446838,0.08145543187856674,0.009795398451387882,0.9862314462661743,0.06291740387678146,0.003278848947957158,-0.15289680659770966
98.0,0.0,0.0,0.0,0.0,0.0,0.0,-0.14882533252239227,0.27045780420303345,0.035458628088235855,0.9880138635635376,0.05122217908501625,0.00950679648667574,-0.14531201124191284
99.0,0.0,0.0,0.0,0.0,0.0,0.0,0.09696532785892487,0.11333221942186356,0.1737648993730545,0.9952032566070557,0.02551172487437725,0.026403529569506645,-0.0906754583120346
100.0,0.0,0.0,0.0,0.0,0.0,0.0,0.6575925946235657,-0.6582614183425903,0.09636850655078888,0.9974551200866699,0.03783053532242775,0.024747509509325027,-0.05513381212949753
101.0,0.0,0.0,0.0,0.0,0.0,0.0,-0.14828868210315704,-0.15618295967578888,-0.032632965594530106,0.9968360066413879,0.03613013029098511,0.021801864728331566,-0.06735667586326599
102.0,0.0,0.0,0.0,0.0,0.0,0.0,0.04217372462153435,0.017361799255013466,0.02579585090279579,0.9971158504486084,0.03395974636077881,0.023325515910983086,-0.06374207884073257
103.0,0.0,0.0,0.0,0.0,0.0,0.0,0.10924191027879715,-0.076592817902565,-0.023485828191041946,0.9972296953201294,0.035765595734119415,0.02047065831720829,-0.06193007156252861
104.0,0.0,0.0,0.0,0.0,0.0,0.0,0.012471563182771206,-0.05028287693858147,0.007230828981846571,0.9972959756851196,0.03446768969297409,0.020156370475888252,-0.061697859317064285
105.0,0.0,0.0,0.0,0.0,0.0,0.0,0.032161008566617966,-0.032257214188575745,0.013591846451163292,0.9975079298019409,0.03222416713833809,0.020783500745892525,-0.059227026998996735
106.0,0.0,0.0,0.0,0.0,0.0,0.0,0.03105117380619049,-0.01611563190817833,0.020341210067272186,0.9976744055747986,0.030953817069530487,0.02112998627126217,-0.056934088468551636
107.0,0.0,0.0,0.0,0.0,0.0,0.0,0.016786497086286545,-0.015076067298650742,0.022613566368818283,0.9977452158927917,0.030652325600385666,0.021319495514035225,-0.05576889589428902
108.0,0.0,0.0,0.0,0.0,0.0,0.0,0.022065870463848114,-0.020341800525784492,0.01672547310590744,0.9977458715438843,0.031019054353237152,0.0207474697381258,-0.055769842118024826
109.0,0.0,0.0,0.0,0.0,0.0,0.0,0.02256709523499012,-0.025886312127113342,0.015580758452415466,0.9977461099624634,0.03155514597892761,0.019737616181373596,-0.055838506668806076
110.0,0.0,0.0,0.0,0.0,0.0,0.0,0.021359628066420555,-0.031824033707380295,0.013029729016125202,0.9977821707725525,0.03204692155122757,0.019086942076683044,-0.05513102188706398
111.0,0.0,0.0,0.0,0.0,0.0,0.0,0.020320678129792213,-0.04003545269370079,0.00696873152628541,0.9978758096694946,0.0317750982940197,0.018846403807401657,-0.05365726724267006
112.0,0.0,0.0,0.0,0.0,0.0,0.0,0.023225881159305573,-0.03446055203676224,0.007536367978900671,0.997943639755249,0.03109114058315754,0.019136888906359673,-0.05268293246626854
113.0,0.0,0.0,0.0,0.0,0.0,0.0,0.025067495182156563,-0.03538048267364502,0.007497195620089769,0.9979981780052185,0.030454615131020546,0.01944042555987835,-0.0519086979329586
114.0,0.0,0.0,0.0,0.0,0.0,0.0,0.024019436910748482,-0.03443397209048271,0.007156664039939642,0.9980490803718567,0.030328786000609398,0.01914219558238983,-0.05110807716846466
115.0,0.0,0.0,0.0,0.0,0.0,0.0,0.024690525606274605,-0.03344197943806648,0.010123082436621189,0.9980533123016357,0.03082386590540409,0.01866000145673752,-0.05090273171663284
116.0,0.0,0.0,0.0,0.0,0.0,0.0,0.01756785623729229,-0.0390598438680172,0.010738056153059006,0.9980292320251465,0.03103705495595932,0.018180299550294876,-0.05141878128051758
117.0,0.0,0.0,0.0,0.0,0.0,0.0,0.013979543000459671,-0.04127849265933037,0.011913081631064415,0.9980238080024719,0.031162813305854797,0.017933735623955727,-0.05153389647603035
118.0,0.0,0.0,0.0,0.0,0.0,0.0,0.009991214610636234,-0.04064337536692619,0.013863373547792435,0.9980642795562744,0.030671050772070885,0.017975302413105965,-0.051027845591306686
119.0,0.0,0.0,0.0,0.0,0.0,0.0,0.005847384687513113,-0.04190848022699356,0.011680073104798794,0.9981138110160828,0.02988499216735363,0.01831492781639099,-0.05040428414940834
120.0,0.0,0.0,0.0,0.0,0.0,0.0,0.002701919060200453,-0.037212394177913666,0.014078640379011631,0.9981653094291687,0.02933792769908905,0.018329698592424393,-0.04969671368598938
121.0,0.0,0.0,0.0,0.0,0.0,0.0,0.004307197406888008,-0.0346008762717247,0.020856495946645737,0.9981842041015625,0.029162846505641937,0.018391821533441544,-0.049391914159059525
122.0,0.0,0.0,0.0,0.0,0.0,0.0,0.49534210562705994,-0.7959781885147095,-0.025215044617652893,0.9974545836448669,0.02550317719578743,0.002012243028730154,-0.06656116992235184
123.0,0.0,0.0,0.0,0.0,0.0,0.0,-1.7516980171203613,2.0408289432525635,0.022742073982954025,0.9930027723312378,0.01784311607480049,-0.01207681279629469,-0.11610540747642517
124.0,0.0,0.0,0.0,0.0,0.0,0.0,-0.029166866093873978,0.6978265643119812,-0.07740255445241928,0.9923588037490845,0.027978651225566864,-0.009698689915239811,-0.11978147178888321
125.0,0.0,0.0,0.0,0.0,0.0,0.0,0.05158131569623947,-0.9372763633728027,-0.05915249139070511,0.9921882748603821,0.021616529673337936,-0.0050194901414215565,-0.1227651908993721
126.0,0.0,0.0,0.0,0.0,0.0,0.0,-0.05842139199376106,0.21232903003692627,-0.0088994475081563,0.9922932982444763,0.020305031910538673,-0.003415317041799426,-0.1221836656332016
127.0,0.0,0.0,0.0,0.0,0.0,0.0,0.024992497637867928,-0.013289833441376686,-0.031919997185468674,0.9921203851699829,0.021171538159251213,-0.0015204681549221277,-0.12347730249166489
128.0,0.0,0.0,0.0,0.0,0.0,0.0,-0.1263248324394226,0.06998258829116821,-0.0324275940656662,0.9910121560096741,0.023914504796266556,0.0028902795165777206,-0.13157828152179718
129.0,0.0,0.0,0.0,0.0,0.0,0.0,-0.1252438724040985,0.3326440453529358,0.028315475210547447,0.9898383617401123,0.02847311459481716,0.007556016556918621,-0.13911639153957367
130.0,0.0,0.0,0.0,0.0,0.0,0.0,0.545192301273346,-0.23263412714004517,0.17126484215259552,0.9950425624847412,0.042459167540073395,0.024728696793317795,-0.08646154403686523
131.0,0.0,0.0,0.0,0.0,0.0,0.0,0.3620137870311737,-0.6820172667503357,-0.02083086222410202,0.9950722455978394,0.06552349030971527,0.01756107248365879,-0.07231415808200836
132.0,0.0,0.0,0.0,0.0,0.0,0.0,-0.2571774125099182,-0.12434131652116776,0.08836541324853897,0.9948190450668335,0.05841109901666641,0.02057773806154728,-0.080623097717762
133.0,0.0,0.0,0.0,0.0,0.0,0.0,0.1224052757024765,-0.07039154320955276,0.00195047736633569,0.9950549006462097,0.059668220579624176,0.022944673895835876,-0.07602033764123917
134.0,0.0,0.0,0.0,0.0,0.0,0.0,0.045788414776325226,-0.1303410530090332,-0.0036794620100408792,0.9950712323188782,0.06050774082541466,0.020829753950238228,-0.0757535845041275
135.0,0.0,0.0,0.0,0.0,0.0,0.0,-0.001371226622723043,-0.12034741789102554,0.03260001540184021,0.9952048063278198,0.058097533881664276,0.022123534232378006,-0.0755101665854454
136.0,0.0,0.0,0.0,0.0,0.0,0.0,0.03558617830276489,-0.11098847538232803,0.012111902236938477,0.9954243898391724,0.055850472301244736,0.02351686730980873,-0.07388100028038025
137.0,0.0,0.0,0.0,0.0,0.0,0.0,0.01930791512131691,-0.08464961498975754,0.029787978157401085,0.9956181049346924,0.053603094071149826,0.02441868744790554,-0.07262909412384033
138.0,0.0,0.0,0.0,0.0,0.0,0.0,0.003965290263295174,-0.07771151512861252,0.03329770267009735,0.9956940412521362,0.05197811499238014,0.02567213587462902,-0.07233735918998718
139.0,0.0,0.0,0.0,0.0,0.0,0.0,0.005029602441936731,-0.07364077866077423,0.03194505348801613,0.9957281947135925,0.05133542791008949,0.026582058519124985,-0.07199324667453766
140.0,0.0,0.0,0.0,0.0,0.0,0.0,0.01978238672018051,-0.0776093527674675,0.017203520983457565,0.9957258105278015,0.050723422318696976,0.027086015790700912,-0.07227884232997894
141.0,0.0,0.0,0.0,0.0,0.0,0.0,0.03487102687358856,-0.08504202961921692,0.007738418411463499,0.9957258701324463,0.0496540404856205,0.02803710848093033,-0.07265438884496689
142.0,0.0,0.0,0.0,0.0,0.0,0.0,0.04108309745788574,-0.07724205404520035,0.0031041887123137712,0.995761513710022,0.04808687046170235,0.029348626732826233,-0.07269833981990814
143.0,0.0,0.0,0.0,0.0,0.0,0.0,0.06242743134498596,-0.08873453736305237,-0.023400813341140747,0.995847761631012,0.04596494138240814,0.030058935284614563,-0.07260303944349289
144.0,0.0,0.0,0.0,0.0,0.0,0.0,0.06472717225551605,-0.11203504353761673,-0.03632991015911102,0.9959787726402283,0.04360414296388626,0.02981250360608101,-0.07236099243164062
145.0,0.0,0.0,0.0,0.0,0.0,0.0,0.08641590923070908,-0.14253193140029907,-0.06861823797225952,0.9959664344787598,0.041351232677698135,0.028195755556225777,-0.07447215169668198
146.0,0.0,0.0,0.0,0.0,0.0,0.0,0.0849028006196022,-0.09949848055839539,-0.026556385681033134,0.9958219528198242,0.03919731080532074,0.025635121390223503,-0.0783906877040863
147.0,0.0,0.0,0.0,0.0,0.0,0.0,0.057995837181806564,-0.048731084913015366,0.03820071369409561,0.9955717921257019,0.038079194724559784,0.023499274626374245,-0.08267270028591156
148.0,0.0,0.0,0.0,0.0,0.0,0.0,0.033955298364162445,-0.07443927228450775,0.035573944449424744,0.9951540231704712,0.03808433189988136,0.02308143861591816,-0.08766571432352066
149.0,0.0,0.0,0.0,0.0,0.0,0.0,0.02238278090953827,-0.06924709677696228,0.03521446883678436,0.9947231411933899,0.03930354118347168,0.02328346110880375,-0.09186137467622757
150.0,0.0,0.0,0.0,0.0,0.0,0.0,0.007452721707522869,-0.010444166138768196,0.06684757024049759,0.9941983819007874,0.04175933450460434,0.02451642043888569,-0.09604773670434952
151.0,0.0,0.0,0.0,0.0,0.0,0.0,-0.0012239392381161451,-0.012920213863253593,0.08083155751228333,0.9934743642807007,0.045926474034786224,0.026844272390007973,-0.10089118033647537
152.0,0.0,0.0,0.0,0.0,0.0,0.0,-0.007985437288880348,-0.0453057736158371,0.0758378654718399,0.9925559163093567,0.053349148482084274,0.029414014890789986,-0.10545804351568222
153.0,0.0,0.0,0.0,0.0,0.0,0.0,0.02381751500070095,-0.06011403724551201,0.029054991900920868,0.9915675520896912,0.06159399077296257,0.030753707513213158,-0.10979489237070084
154.0,0.0,0.0,0.0,0.0,0.0,0.0,0.00891144759953022,-0.0646899864077568,0.018191147595643997,0.9904150366783142,0.06999583542346954,0.0315728522837162,-0.11481510102748871
155.0,0.0,0.0,0.0,0.0,0.0,0.0,-0.02378908544778824,-0.0590917132794857,0.023791087791323662,0.9892652630805969,0.07642844319343567,0.032831642776727676,-0.12014501541852951
156.0,0.0,0.0,0.0,0.0,0.0,0.0,-0.01117680873721838,-0.07651658356189728,0.02529766783118248,0.9881300330162048,0.08209459483623505,0.03398184850811958,-0.12531709671020508
157.0,0.0,0.0,0.0,0.0,0.0,0.0,0.02154720015823841,-0.13440939784049988,-0.04287958890199661,0.9867324233055115,0.0867910385131836,0.03292929381132126,-0.13320574164390564
158.0,0.0,0.0,0.0,0.0,0.0,0.0,-0.010346751660108566,-0.08388938009738922,0.008670885115861893,0.9845426082611084,0.09349103271961212,0.03252701088786125,-0.14449632167816162
159.0,0.0,0.0,0.0,0.0,0.0,0.0,-0.011069945059716702,-0.09312079846858978,0.01642400398850441,0.9821970462799072,0.10028702020645142,0.03437308594584465,-0.15507763624191284
160.0,0.0,0.0,0.0,0.0,0.0,0.0,-0.001841815304942429,-0.09724343568086624,0.04123733565211296,0.98030024766922,0.10493154078722,0.03517461195588112,-0.16360124945640564
161.0,0.0,0.0,0.0,0.0,0.0,0.0,-0.034143947064876556,-0.019823621958494186,0.10948432236909866,0.9789876341819763,0.1093226745724678,0.03557416424155235,-0.1684272140264511
162.0,0.0,0.0,0.0,0.0,0.0,0.0,-0.004870971664786339,-0.053600672632455826,0.08466494083404541,0.9781181812286377,0.11359483748674393,0.03603695333003998,-0.17053331434726715
163.0,0.0,0.0,0.0,0.0,0.0,0.0,0.01986219547688961,-0.08425665646791458,0.09242541342973709,0.9776827692985535,0.11809477210044861,0.037427715957164764,-0.16967299580574036
164.0,0.0,0.0,0.0,0.0,0.0,0.0,0.031111696735024452,-0.11159007996320724,0.07909614592790604,0.9774348735809326,0.12260076403617859,0.03886674717068672,-0.1675693690776825
165.0,0.0,0.0,0.0,0.0,0.0,0.0,0.028080517426133156,-0.11983414739370346,0.06503654271364212,0.9776773452758789,0.12447717040777206,0.03943726047873497,-0.16462042927742004
166.0,0.0,0.0,0.0,0.0,0.0,0.0,0.03150558099150658,-0.1303090900182724,0.05063323676586151,0.9784340262413025,0.12394244968891144,0.039696529507637024,-0.16040678322315216
167.0,0.0,0.0,0.0,0.0,0.0,0.0,0.020226910710334778,-0.14718717336654663,0.051124315708875656,0.9793332815170288,0.1229090765118599,0.04030798003077507,-0.15549223124980927
168.0,0.0,0.0,0.0,0.0,0.0,0.0,0.011660004034638405,-0.1329258680343628,0.06866493821144104,0.9803575277328491,0.12138427048921585,0.04083646461367607,-0.1499975025653839
169.0,0.0,0.0,0.0,0.0,0.0,0.0,0.0278521329164505,-0.14789019525051117,0.01982608251273632,0.9815908074378967,0.11954158544540405,0.040388088673353195,-0.14337019622325897
170.0,0.0,0.0,0.0,0.0,0.0,0.0,0.04614667594432831,-0.1575840562582016,-0.03296259045600891,0.9833614230155945,0.1143641322851181,0.03901705890893936,-0.13563935458660126
171.0,0.0,0.0,0.0,0.0,0.0,0.0,0.04928479343652725,-0.09520609676837921,-0.017517002299427986,0.9853096604347229,0.10492313653230667,0.03653290495276451,-0.12969745695590973
172.0,0.0,0.0,0.0,0.0,0.0,0.0,0.04069291800260544,-0.053931910544633865,-0.016623666509985924,0.9871375560760498,0.09308920800685883,0.03350024297833443,-0.12558600306510925
173.0,0.0,0.0,0.0,0.0,0.0,0.0,0.04060719162225723,-0.08502242714166641,-0.02716752141714096,0.9889765977859497,0.07909458130598068,0.031355224549770355,-0.12118790298700333
174.0,0.0,0.0,0.0,0.0,0.0,0.0,0.05723796784877777,-0.09540075808763504,-0.021422069519758224,0.9910062551498413,0.06474696099758148,0.029942061752080917,-0.1132146343588829
175.0,0.0,0.0,0.0,0.0,0.0,0.0,0.0348958894610405,-0.04245982691645622,-0.011908348649740219,0.9929019212722778,0.05109391361474991,0.028864454478025436,-0.10344810038805008
176.0,0.0,0.0,0.0,0.0,0.0,0.0,0.009747031144797802,0.02036127634346485,0.028016243129968643,0.9948102831840515,0.0362413115799427,0.029060645028948784,-0.09052136540412903
177.0,0.0,0.0,0.0,0.0,0.0,0.0,0.03463460132479668,0.02396490052342415,0.031941547989845276,0.9965280294418335,0.020078420639038086,0.027477141469717026,-0.07598747313022614
178.0,0.0,0.0,0.0,0.0,0.0,0.0,0.08105359226465225,0.013525385409593582,0.019393334165215492,0.9976755976676941,0.00570579431951046,0.02436498925089836,-0.06338408589363098
179.0,0.0,0.0,0.0,0.0,0.0,0.0,0.08421550691127777,0.0012708777794614434,0.021640809252858162,0.9982630610466003,-0.0076188743114471436,0.02184516377747059,-0.05418344959616661
180.0,0.0,0.0,0.0,0.0,0.0,0.0,0.08109883219003677,-0.0016516057075932622,0.005408409051597118,0.9985466003417969,-0.016841793432831764,0.020743515342473984,-0.04680780693888664
181.0,0.0,0.0,0.0,0.0,0.0,0.0,0.1251731663942337,-0.018507525324821472,-0.05252351239323616,0.9987578392028809,-0.022717326879501343,0.0192903783172369,-0.03993191942572594
182.0,0.0,0.0,0.0,0.0,0.0,0.0,0.11882196366786957,-0.04222768545150757,-0.04858284816145897,0.9988678693771362,-0.02594509720802307,0.01814602129161358,-0.03550710529088974
183.0,0.0,0.0,0.0,0.0,0.0,0.0,0.11215690523386002,-0.06108488887548447,-0.03416626527905464,0.9989160299301147,-0.028417764231562614,0.0180862657725811,-0.03213495761156082
184.0,0.0,0.0,0.0,0.0,0.0,0.0,0.12499799579381943,-0.03737187758088112,-0.04140893742442131,0.9989697337150574,-0.030073273926973343,0.01744680665433407,-0.029176579788327217
185.0,0.0,0.0,0.0,0.0,0.0,0.0,0.10444479435682297,-0.054202064871788025,-0.03025629185140133,0.998996376991272,-0.030701443552970886,0.017399463802576065,-0.027580371126532555
186.0,0.0,0.0,0.0,0.0,0.0,0.0,0.1297277808189392,-0.10940365493297577,-0.0397372767329216,0.999055802822113,-0.028896505013108253,0.018207747489213943,-0.026864269748330116
187.0,0.0,0.0,0.0,0.0,0.0,0.0,0.20208965241909027,-0.1573527455329895,-0.05257438123226166,0.9991050362586975,-0.019735028967261314,0.01877584122121334,-0.032360177487134933
188.0,0.0,0.0,0.0,0.0,0.0,0.0,0.10727500915527344,-0.07753976434469223,0.010288015939295292,0.9987417459487915,-0.003061769064515829,0.0205126591026783,-0.04566368833184242
189.0,0.0,0.0,0.0,0.0,0.0,0.0,-0.03907497227191925,0.038124848157167435,0.08864472061395645,0.9972782731056213,0.019675927236676216,0.023473406210541725,-0.06706748157739639
190.0,0.0,0.0,0.0,0.0,0.0,0.0,-0.18276190757751465,0.07502797991037369,0.12932753562927246,0.9943081736564636,0.044787317514419556,0.028824379667639732,-0.09227990359067917
191.0,0.0,0.0,0.0,0.0,0.0,0.0,-0.2186090052127838,-0.14816249907016754,0.07005194574594498,0.9907869100570679,0.06430230289697647,0.03750411421060562,-0.11313815414905548
192.0,0.0,0.0,0.0,0.0,0.0,0.0,-0.045657820999622345,-0.17030923068523407,-0.027847986668348312,0.987946629524231,0.0739884302020073,0.04219414293766022,-0.12926523387432098
193.0,0.0,0.0,0.0,0.0,0.0,0.0,0.06263129413127899,0.009876190684735775,0.022682299837470055,0.9865602850914001,0.07231266051530838,0.040626563131809235,-0.14078150689601898
194.0,0.0,0.0,0.0,0.0,0.0,0.0,-0.007981255650520325,0.15313895046710968,0.10853707045316696,0.9854413270950317,0.07060371339321136,0.038888100534677505,-0.1496894210577011
195.0,0.0,0.0,0.0,0.0,0.0,0.0,-0.02031186781823635,0.01240058708935976,0.09459758549928665,0.984889805316925,0.06864474713802338,0.037297431379556656,-0.15456357598304749
196.0,0.0,0.0,0.0,0.0,0.0,0.0,0.05327632278203964,-0.016164833679795265,0.06794420629739761,0.984765350818634,0.06475295126438141,0.03418520465493202,-0.15771862864494324
197.0,0.0,0.0,0.0,0.0,0.0,0.0,0.13031497597694397,-0.058960046619176865,-0.01792755164206028,0.9846935868263245,0.06294497102499008,0.02836284600198269,-0.160033717751503
198.0,0.0,0.0,0.0,0.0,0.0,0.0,0.04440420866012573,-0.08448049426078796,0.07345782965421677,0.9845714569091797,0.060058511793613434,0.024875234812498093,-0.1624520719051361
199.0,0.0,0.0,0.0,0.0,0.0,0.0,-0.007434701081365347,-0.052792780101299286,0.13060791790485382,0.9846004247665405,0.05892425402998924,0.02541453018784523,-0.16260701417922974
200.0,0.0,0.0,0.0,0.0,0.0,0.0,0.021682770922780037,-0.044057492166757584,0.10231941938400269,0.9849936962127686,0.06072616949677467,0.027188025414943695,-0.15925946831703186
201.0,0.0,0.0,0.0,0.0,0.0,0.0,0.04348045215010643,-0.07023816555738449,0.025785274803638458,0.9855918288230896,0.061581287533044815,0.02976427972316742,-0.15470242500305176
202.0,0.0,0.0,0.0,0.0,0.0,0.0,0.22675199806690216,-0.21872290968894958,-0.17691652476787567,0.9868605732917786,0.059050075709819794,0.026620125398039818,-0.1480313092470169
203.0,0.0,0.0,0.0,0.0,0.0,0.0,0.29851871728897095,-0.34392625093460083,-0.24270449578762054,0.9884078502655029,0.047592323273420334,0.018094727769494057,-0.14303089678287506
204.0,0.0,0.0,0.0,0.0,0.0,0.0,0.19804024696350098,-0.21813377737998962,-0.13277341425418854,0.9892515540122986,0.02809877321124077,0.006792807020246983,-0.14334236085414886
205.0,0.0,0.0,0.0,0.0,0.0,0.0,0.1344781517982483,-0.07929211109876633,0.008209895342588425,0.9891635179519653,0.010713825933635235,-0.004549652338027954,-0.14636091887950897
206.0,0.0,0.0,0.0,0.0,0.0,0.0,-0.03841926157474518,0.06951823085546494,0.11053270101547241,0.9885010123252869,-0.006299348082393408,-0.012023580260574818,-0.15059535205364227
207.0,0.0,0.0,0.0,0.0,0.0,0.0,-0.1576232761144638,0.2790466547012329,0.22212335467338562,0.9875074625015259,-0.023720653727650642,-0.015168797224760056,-0.15504010021686554
208.0,0.0,0.0,0.0,0.0,0.0,0.0,-0.18006008863449097,0.3715047836303711,0.2653755247592926,0.9865309596061707,-0.03188153728842735,-0.013572786934673786,-0.15985609591007233
209.0,0.0,0.0,0.0,0.0,0.0,0.0,-0.17308537662029266,0.2389240562915802,0.26700931787490845,0.9860913753509521,-0.034495625644922256,-0.009397005662322044,-0.1623104214668274
210.0,0.0,0.0,0.0,0.0,0.0,0.0,-0.08451326191425323,0.2189798355102539,0.24026858806610107,0.9861626029014587,-0.031156577169895172,-0.006288435775786638,-0.1627102494239807
211.0,0.0,0.0,0.0,0.0,0.0,0.0,0.033478643745183945,0.08641661703586578,0.13298478722572327,0.9863316416740417,-0.022466978058218956,-0.0037404943723231554,-0.16319778561592102
212.0,0.0,0.0,0.0,0.0,0.0,0.0,0.041487500071525574,0.21472471952438354,0.1900768131017685,0.9869840145111084,-0.011263248510658741,-0.00012278860958758742,-0.16042284667491913
213.0,0.0,0.0,0.0,0.0,0.0,0.0,-0.005740025546401739,0.2546440660953522,0.2418067455291748,0.9883458018302917,0.0035159194376319647,0.0001668168988544494,-0.15218660235404968
214.0,0.0,0.0,0.0,0.0,0.0,0.0,0.09222283214330673,-0.029665322974324226,0.24822936952114105,0.9897622466087341,0.021769315004348755,0.0037673760671168566,-0.14100125432014465
215.0,0.0,0.0,0.0,0.0,0.0,0.0,0.09780599921941757,-0.47109344601631165,-0.02239733561873436,0.9904403686523438,0.03468770906329155,0.010626471601426601,-0.13308751583099365
216.0,0.0,0.0,0.0,0.0,0.0,0.0,0.14335566759109497,-0.3567698299884796,-0.30572354793548584,0.9907637238502502,0.04241713508963585,0.017359590157866478,-0.12761908769607544
217.0,0.0,0.0,0.0,0.0,0.0,0.0,0.13519789278507233,-0.18916025757789612,-0.227549210190773,0.990118145942688,0.05436484515666962,0.023207347840070724,-0.12716864049434662
218.0,0.0,0.0,0.0,0.0,0.0,0.0,0.17119283974170685,-0.21971455216407776,-0.24287013709545135,0.9882404804229736,0.06735218316316605,0.026392975822091103,-0.13471132516860962
219.0,0.0,0.0,0.0,0.0,0.0,0.0,0.11749577522277832,-0.17670093476772308,-0.13991107046604156,0.9858548641204834,0.07869003713130951,0.024643082171678543,-0.14591707289218903
220.0,0.0,0.0,0.0,0.0,0.0,0.0,0.1404421627521515,-0.1652795374393463,-0.059889405965805054,0.9838863611221313,0.08509106934070587,0.017604373395442963,-0.1562536507844925
221.0,0.0,0.0,0.0,0.0,0.0,0.0,0.10276807844638824,-0.15396760404109955,0.02685013972222805,0.9826180934906006,0.0854744017124176,0.011499881744384766,-0.16438406705856323
222.0,0.0,0.0,0.0,0.0,0.0,0.0,0.007847101427614689,-0.069066621363163,0.030146930366754532,0.9823452234268188,0.08148179203271866,0.007972692139446735,-0.1682121604681015
223.0,0.0,0.0,0.0,0.0,0.0,0.0,0.013395233079791069,-0.0712813213467598,0.06430789828300476,0.9826502799987793,0.07670209556818008,0.006764600053429604,-0.16872766613960266
224.0,0.0,0.0,0.0,0.0,0.0,0.0,-0.11981654167175293,0.08492880314588547,0.06805684417486191,0.9831461310386658,0.07429924607276917,0.009120358154177666,-0.166799858212471
225.0,0.0,0.0,0.0,0.0,0.0,0.0,-0.15555338561534882,0.09074653685092926,0.12145951390266418,0.9838463664054871,0.07292722165584564,0.011863719671964645,-0.16305530071258545
226.0,0.0,0.0,0.0,0.0,0.0,0.0,-0.10751508921384811,-0.0032900930382311344,0.04395725950598717,0.9845156073570251,0.07285244017839432,0.014662881381809711,-0.15877026319503784
227.0,0.0,0.0,0.0,0.0,0.0,0.0,-0.10686936974525452,-0.03597825765609741,0.02397274039685726,0.9848273396492004,0.07302933931350708,0.01677875779569149,-0.15653210878372192
228.0,0.0,0.0,0.0,0.0,0.0,0.0,-0.01396523043513298,-0.08980583399534225,-0.02842627465724945,0.9849144220352173,0.07490240037441254,0.018304970115423203,-0.15491558611392975
229.0,0.0,0.0,0.0,0.0,0.0,0.0,0.007103294134140015,-0.12284140288829803,-0.03705323487520218,0.9847090840339661,0.07635094970464706,0.018330499529838562,-0.15551073849201202
230.0,0.0,0.0,0.0,0.0,0.0,0.0,-0.018913857638835907,-0.1125892847776413,-0.0025682938285171986,0.984632134437561,0.07684431225061417,0.0184734258800745,-0.15573742985725403
231.0,0.0,0.0,0.0,0.0,0.0,0.0,0.04536843299865723,-0.11195994913578033,-0.06649386882781982,0.9845976829528809,0.07776089757680893,0.017309684306383133,-0.15563470125198364
232.0,0.0,0.0,0.0,0.0,0.0,0.0,-0.02891475148499012,-0.11883106082677841,-0.05593658611178398,0.9842463135719299,0.07740925252437592,0.016808412969112396,-0.15806704759597778
233.0,0.0,0.0,0.0,0.0,0.0,0.0,-0.02390589565038681,-0.08728520572185516,-0.007200113497674465,0.9836601614952087,0.07773459702730179,0.01411636732518673,-0.16176949441432953
234.0,0.0,0.0,0.0,0.0,0.0,0.0,0.011085796169936657,-0.08573481440544128,-0.01900877244770527,0.9832216501235962,0.07857915014028549,0.009932640939950943,-0.16433244943618774
235.0,0.0,0.0,0.0,0.0,0.0,0.0,-0.013924089260399342,-0.08529527485370636,0.004208606202155352,0.9829695820808411,0.07854128628969193,0.006110635120421648,-0.1660251021385193
236.0,0.0,0.0,0.0,0.0,0.0,0.0,0.07745788991451263,-0.06790319830179214,-0.0319618321955204,0.98291015625,0.07989470660686493,0.0008003290859051049,-0.16584563255310059
237.0,0.0,0.0,0.0,0.0,0.0,0.0,0.11638551950454712,-0.10683193802833557,-0.04051597788929939,0.9829599261283875,0.08232828974723816,-0.0045702834613621235,-0.16429503262043
238.0,0.0,0.0,0.0,0.0,0.0,0.0,0.11062964797019958,-0.16362999379634857,-0.06883303821086884,0.9833011627197266,0.08295799791812897,-0.00836947001516819,-0.16176192462444305
239.0,0.0,0.0,0.0,0.0,0.0,0.0,0.07206761837005615,-0.09683319926261902,-0.03386825695633888,0.9836808443069458,0.08019421994686127,-0.011120334267616272,-0.16067752242088318
240.0,0.0,0.0,0.0,0.0,0.0,0.0,-0.0056475321762263775,-0.01942250318825245,0.09408766776323318,0.9836541414260864,0.07977627962827682,-0.012203861027956009,-0.1609737128019333
241.0,0.0,0.0,0.0,0.0,0.0,0.0,-0.0656948909163475,-9.093250992009416e-05,0.10254920274019241,0.9832726120948792,0.08308381587266922,-0.009302770718932152,-0.16182434558868408
242.0,0.0,0.0,0.0,0.0,0.0,0.0,-0.07817184180021286,0.0919571965932846,0.11277838051319122,0.9827021360397339,0.08653604239225388,-0.00497801136225462,-0.16365967690944672
243.0,0.0,0.0,0.0,0.0,0.0,0.0,-0.04970617592334747,0.011841386556625366,-0.014514419250190258,0.9821739792823792,0.0851227268576622,-0.0022502560168504715,-0.1675790697336197
244.0,0.0,0.0,0.0,0.0,0.0,0.0,-0.025048155337572098,-0.05989649519324303,-0.06117766723036766,0.9817630052566528,0.07791893929243088,-0.002925892360508442,-0.1733912080526352
245.0,0.0,0.0,0.0,0.0,0.0,0.0,-0.054325301200151443,0.005021387245506048,0.03396181762218475,0.9815158843994141,0.07040069252252579,-0.004078324418514967,-0.17790265381336212
246.0,0.0,0.0,0.0,0.0,0.0,0.0,-0.005266528110951185,-0.037135299295186996,0.00045054135262034833,0.9813197255134583,0.06259354203939438,-0.004669134505093098,-0.18187077343463898
247.0,0.0,0.0,0.0,0.0,0.0,0.0,0.005270996131002903,0.048461124300956726,0.04510163515806198,0.9815476536750793,0.05537913367152214,-0.004533868283033371,-0.1829778403043747
248.0,0.0,0.0,0.0,0.0,0.0,0.0,-0.00937948003411293,0.10040785372257233,0.05755094811320305,0.9817818999290466,0.04907374829053879,-0.0008906173170544207,-0.18356570601463318
249.0,0.0,0.0,0.0,0.0,0.0,0.0,-0.07690909504890442,0.10449820756912231,0.1397414207458496,0.9823005795478821,0.04332002252340317,0.006318056955933571,-0.18212994933128357
250.0,0.0,0.0,0.0,0.0,0.0,0.0,-0.1267455816268921,0.12181822955608368,0.2740933895111084,0.9830606579780579,0.03960011154413223,0.016411375254392624,-0.17819364368915558
251.0,0.0,0.0,0.0,0.0,0.0,0.0,-0.01650722697377205,0.07730361819267273,0.2635948359966278,0.9838116765022278,0.04081464558839798,0.02615497075021267,-0.17252269387245178
252.0,0.0,0.0,0.0,0.0,0.0,0.0,0.12942545115947723,-0.06772614270448685,-0.033022888004779816,0.984745442867279,0.0407705120742321,0.03194412589073181,-0.16611546277999878
253.0,0.0,0.0,0.0,0.0,0.0,0.0,0.19702060520648956,-0.0898718535900116,-0.18050497770309448,0.9859867691993713,0.03638189285993576,0.03125239536166191,-0.15978795289993286
254.0,0.0,0.0,0.0,0.0,0.0,0.0,0.11240148544311523,-0.02053496055305004,-0.10187403857707977,0.9867206811904907,0.03218421712517738,0.030115704983472824,-0.1563366800546646
255.0,0.0,0.0,0.0,0.0,0.0,0.0,0.036579929292201996,-0.037655532360076904,-0.062361281365156174,0.9871366620063782,0.029664626345038414,0.02962901070713997,-0.15428875386714935
256.0,0.0,0.0,0.0,0.0,0.0,0.0,-0.017193377017974854,0.0042143044993281364,0.037112604826688766,0.9875760674476624,0.02890617400407791,0.028961533680558205,-0.15172769129276276
257.0,0.0,0.0,0.0,0.0,0.0,0.0,0.030059393495321274,-0.06144676357507706,0.02310282550752163,0.9880064129829407,0.029485194012522697,0.02768201008439064,-0.14902278780937195
258.0,0.0,0.0,0.0,0.0,0.0,0.0,0.00902977678924799,-0.05337197706103325,0.03964177146553993,0.9884883165359497,0.02852017618715763,0.024397658184170723,-0.14656853675842285
259.0,0.0,0.0,0.0,0.0,0.0,0.0,0.090851791203022,-0.021127168089151382,0.07659067213535309,0.9890268445014954,0.02817790023982525,0.021332401782274246,-0.14344853162765503
260.0,0.0,0.0,0.0,0.0,0.0,0.0,0.0776851698756218,0.012025843374431133,0.06126230210065842,0.9895207285881042,0.030225442722439766,0.018141010776162148,-0.14002981781959534
261.0,0.0,0.0,0.0,0.0,0.0,0.0,0.0723305493593216,0.04667937755584717,0.03583014756441116,0.9900398850440979,0.03375755995512009,0.016618642956018448,-0.1356631964445114
262.0,0.0,0.0,0.0,0.0,0.0,0.0,0.06748978793621063,0.01617036946117878,0.023291422054171562,0.990591287612915,0.03541633114218712,0.015836484730243683,-0.13124395906925201
263.0,0.0,0.0,0.0,0.0,0.0,0.0,0.05044607073068619,0.005700706038624048,0.016844885423779488,0.9911060333251953,0.035079892724752426,0.01598547212779522,-0.1273726522922516
264.0,0.0,0.0,0.0,0.0,0.0,0.0,0.09400878101587296,-0.0877365842461586,-0.001737019163556397,0.9914536476135254,0.03758130967617035,0.01618025451898575,-0.12387853860855103
265.0,0.0,0.0,0.0,0.0,0.0,0.0,0.047648049890995026,-0.06161148473620415,0.016630416736006737,0.9916946887969971,0.038723353296518326,0.015978746116161346,-0.12160398066043854
266.0,0.0,0.0,0.0,0.0,0.0,0.0,0.03763705864548683,-0.05472690984606743,-0.018443327397108078,0.9919746518135071,0.03997183218598366,0.01596824824810028,-0.11888817697763443
267.0,0.0,0.0,0.0,0.0,0.0,0.0,0.036024514585733414,-0.07447828352451324,-0.026835108175873756,0.9922453761100769,0.03904162347316742,0.01512403879314661,-0.11703074723482132
268.0,0.0,0.0,0.0,0.0,0.0,0.0,0.07480488717556,-0.05144835263490677,-0.014647722244262695,0.9926819205284119,0.03829270601272583,0.014108073897659779,-0.11365555971860886
269.0,0.0,0.0,0.0,0.0,0.0,0.0,0.06545206904411316,0.03679106757044792,0.028757119551301003,0.9930309057235718,0.03790012747049332,0.012752811424434185,-0.11086191236972809
270.0,0.0,0.0,0.0,0.0,0.0,0.0,0.03913359344005585,0.024655556306242943,0.028654249384999275,0.9932754635810852,0.03760413080453873,0.01311563327908516,-0.10870647430419922
271.0,0.0,0.0,0.0,0.0,0.0,0.0,0.041360024362802505,0.006228774785995483,-0.008098960854113102,0.9934752583503723,0.036484602838754654,0.01381624210625887,-0.10716800391674042
272.0,0.0,0.0,0.0,0.0,0.0,0.0,0.03408978506922722,0.017353350296616554,0.010484534315764904,0.993660569190979,0.035532429814338684,0.01481548696756363,-0.10562501102685928
273.0,0.0,0.0,0.0,0.0,0.0,0.0,0.0296124666929245,-0.006932882126420736,-0.004039848688989878,0.9939212799072266,0.03341943025588989,0.01563192903995514,-0.10372921079397202
274.0,0.0,0.0,0.0,0.0,0.0,0.0,0.029745789244771004,-0.06447890400886536,-0.008592492900788784,0.9941630363464355,0.03065764345228672,0.01496144849807024,-0.10235685110092163
275.0,0.0,0.0,0.0,0.0,0.0,0.0,0.01184819359332323,0.006282518617808819,0.012332524172961712,0.9942947030067444,0.02873111516237259,0.014211454428732395,-0.10173667222261429
276.0,0.0,0.0,0.0,0.0,0.0,0.0,0.027789797633886337,-0.00858316570520401,0.008177779614925385,0.9943881034851074,0.027676673606038094,0.013579749502241611,-0.101201631128788
277.0,0.0,0.0,0.0,0.0,0.0,0.0,0.051772210747003555,-0.011778331361711025,-0.018087435513734818,0.9945810437202454,0.025348467752337456,0.012317112646996975,-0.10007446259260178
278.0,0.0,0.0,0.0,0.0,0.0,0.0,0.016599897295236588,0.026236658915877342,-0.0017318730242550373,0.9946768283843994,0.02189958468079567,0.010958406142890453,-0.10009187459945679
279.0,0.0,0.0,0.0,0.0,0.0,0.0,-0.029680969193577766,0.08815665543079376,0.04432794451713562,0.9947283267974854,0.018674854189157486,0.010725054889917374,-0.10025765001773834
280.0,0.0,0.0,0.0,0.0,0.0,0.0,-0.013777718879282475,0.026138456538319588,0.021480154246091843,0.9948108196258545,0.017451247200369835,0.011453595012426376,-0.09957592189311981
281.0,0.0,0.0,0.0,0.0,0.0,0.0,0.0062541416846215725,0.011824285611510277,0.013243038207292557,0.994804859161377,0.016411401331424713,0.011065998114645481,-0.09986044466495514
282.0,0.0,0.0,0.0,0.0,0.0,0.0,-0.005004786886274815,0.04307376220822334,0.036426935344934464,0.9947418570518494,0.016816750168800354,0.010864603333175182,-0.10043950378894806
283.0,0.0,0.0,0.0,0.0,0.0,0.0,0.04308450222015381,0.0184469111263752,0.011359409429132938,0.9946469664573669,0.019430119544267654,0.010313894599676132,-0.1009640246629715
284.0,0.0,0.0,0.0,0.0,0.0,0.0,0.08461954444646835,-0.05237523838877678,-0.006938133388757706,0.9945521950721741,0.022007200866937637,0.009588627144694328,-0.10144135355949402
285.0,0.0,0.0,0.0,0.0,0.0,0.0,0.04753826558589935,-0.044341083616018295,-0.006502177100628614,0.9944309592247009,0.021132085472345352,0.009307603351771832,-0.10282917320728302
286.0,0.0,0.0,0.0,0.0,0.0,0.0,-0.01594792678952217,-0.008276648819446564,0.0188412144780159,0.9943277835845947,0.019693681970238686,0.010950163006782532,-0.10394449532032013
287.0,0.0,0.0,0.0,0.0,0.0,0.0,0.02954908274114132,-0.031287625432014465,-0.023587245494127274,0.994154155254364,0.01883869618177414,0.011062498204410076,-0.10573981702327728
288.0,0.0,0.0,0.0,0.0,0.0,0.0,0.059961192309856415,-0.06595829129219055,-0.060379356145858765,0.9938697814941406,0.01786286197602749,0.009760421700775623,-0.10866493731737137
289.0,0.0,0.0,0.0,0.0,0.0,0.0,0.18693219125270844,-0.14879006147384644,-0.15494902431964874,0.9934053421020508,0.015618374571204185,0.003930914215743542,-0.11352086067199707
290.0,0.0,0.0,0.0,0.0,0.0,0.0,0.16574104130268097,-0.18198217451572418,-0.08946780115365982,0.9925382137298584,0.012334264814853668,-0.0037343562580645084,-0.12125159054994583
291.0,0.0,0.0,0.0,0.0,0.0,0.0,-0.10421416163444519,0.11296903342008591,0.12633614242076874,0.9913144707679749,0.008645917288959026,-0.006939983461052179,-0.13104316592216492
292.0,0.0,0.0,0.0,0.0,0.0,0.0,-0.39001721143722534,0.4926818609237671,0.4236963093280792,0.9903028011322021,0.012894622050225735,-0.004240826703608036,-0.13826148211956024
293.0,0.0,0.0,0.0,0.0,0.0,0.0,-0.1992969661951065,0.19253990054130554,0.24504412710666656,0.9896143674850464,0.0283341184258461,0.0050208852626383305,-0.14084354043006897
294.0,0.0,0.0,0.0,0.0,0.0,0.0,0.06891988962888718,-0.02853214368224144,-0.0250560212880373,0.9887736439704895,0.04432572051882744,0.009126812219619751,-0.14240208268165588
295.0,0.0,0.0,0.0,0.0,0.0,0.0,-0.017236068844795227,-0.045388251543045044,-0.02172836661338806,0.9876877069473267,0.05716526880860329,0.012258852832019329,-0.14510288834571838
296.0,0.0,0.0,0.0,0.0,0.0,0.0,0.022271888330578804,-0.1108536571264267,-0.030327601358294487,0.9864668250083923,0.06713328510522842,0.014628423377871513,-0.14886879920959473
297.0,0.0,0.0,0.0,0.0,0.0,0.0,0.06075748801231384,-0.11795462667942047,-0.011936509050428867,0.9854755401611328,0.07600828260183334,0.015965154394507408,-0.1510150283575058
298.0,0.0,0.0,0.0,0.0,0.0,0.0,0.058548133820295334,-0.10085247457027435,0.003958092536777258,0.9845734238624573,0.08165998756885529,0.016311826184391975,-0.15388202667236328
299.0,0.0,0.0,0.0,0.0,0.0,0.0,0.01643986441195011,-0.08455438911914825,0.01087925210595131,0.9836387634277344,0.08612570911645889,0.016283264383673668,-0.1573925018310547
300.0,0.0,0.0,0.0,0.0,0.0,0.0,-0.050540510565042496,-0.02499164082109928,0.03668694943189621,0.9827782511711121,0.09107529371976852,0.01785421185195446,-0.15979017317295074
301.0,0.0,0.0,0.0,0.0,0.0,0.0,-0.015223434194922447,-0.09384563565254211,-0.03507886454463005,0.9821082353591919,0.09568794816732407,0.020080402493476868,-0.16094782948493958
302.0,0.0,0.0,0.0,0.0,0.0,0.0,-0.051147859543561935,-0.060319676995277405,0.030598897486925125,0.9816557765007019,0.09797118604183197,0.022571727633476257,-0.1619996726512909
303.0,0.0,0.0,0.0,0.0,0.0,0.0,-0.0020622320007532835,-0.09181936085224152,-0.0003550338442437351,0.9813957810401917,0.10018555074930191,0.023939143866300583,-0.16202566027641296
304.0,0.0,0.0,0.0,0.0,0.0,0.0,0.010501917451620102,-0.09266307950019836,-0.05257303640246391,0.9811720848083496,0.1009206548333168,0.0240480937063694,-0.16290509700775146
305.0,0.0,0.0,0.0,0.0,0.0,0.0,-0.010983741842210293,-0.0879548043012619,-0.056146394461393356,0.9808855056762695,0.10018518567085266,0.023083465173840523,-0.16520807147026062
306.0,0.0,0.0,0.0,0.0,0.0,0.0,-0.024001074954867363,-0.055745042860507965,-0.018422070890665054,0.9804762005805969,0.09988309442996979,0.021180182695388794,-0.16805237531661987
307.0,0.0,0.0,0.0,0.0,0.0,0.0,-0.039355531334877014,-0.024468230083584785,0.004164484795182943,0.9805960059165955,0.09720871597528458,0.020473148673772812,-0.16901160776615143
308.0,0.0,0.0,0.0,0.0,0.0,0.0,-0.016408681869506836,-0.021113237366080284,-0.003225100925192237,0.9812527894973755,0.09458030015230179,0.020955650135874748,-0.16661101579666138
309.0,0.0,0.0,0.0,0.0,0.0,0.0,-0.030731532722711563,0.021332575008273125,0.019418001174926758,0.9825168251991272,0.09124507755041122,0.02181493118405342,-0.16080674529075623
310.0,0.0,0.0,0.0,0.0,0.0,0.0,-0.1126808300614357,0.0926230251789093,0.1596032828092575,0.985085129737854,0.08354155719280243,0.02279074303805828,-0.1486913412809372
311.0,0.0,0.0,0.0,0.0,0.0,0.0,-0.1686953455209732,0.1469438672065735,0.2747110426425934,0.9886265397071838,0.0797160267829895,0.024206195026636124,-0.1252087503671646
312.0,0.0,0.0,0.0,0.0,0.0,0.0,-0.028734344989061356,0.06349600106477737,0.06715407222509384,0.9921845197677612,0.07318082451820374,0.021503884345293045,-0.09875127673149109
313.0,0.0,0.0,0.0,0.0,0.0,0.0,0.08231722563505173,-0.2586957514286041,-0.15761588513851166,0.9953553080558777,0.05491216853260994,0.01684429682791233,-0.07725915312767029
314.0,0.0,0.0,0.0,0.0,0.0,0.0,0.15302816033363342,-0.14353562891483307,-0.19771572947502136,0.9974936842918396,0.039053358137607574,0.009143408387899399,-0.05828867852687836
315.0,0.0,0.0,0.0,0.0,0.0,0.0,0.15625503659248352,-0.025817494839429855,-0.1894053816795349,0.9985176920890808,0.027783183380961418,0.002383039565756917,-0.04674392566084862
316.0,0.0,0.0,0.0,0.0,0.0,0.0,0.08034919947385788,-0.04048765450716019,-0.15003159642219543,0.9990562200546265,0.015418129973113537,-0.0011621273588389158,-0.040590278804302216
317.0,0.0,0.0,0.0,0.0,0.0,0.0,0.03524082154035568,0.09624911099672318,-0.035855796188116074,0.9992896318435669,0.004409159999340773,-0.00437637884169817,-0.03717438504099846
318.0,0.0,0.0,0.0,0.0,0.0,0.0,-0.11845039576292038,0.20695678889751434,0.10555339604616165,0.9993403553962708,-0.006031210999935865,-0.0058243488892912865,-0.03533531352877617
319.0,0.0,0.0,0.0,0.0,0.0,0.0,-0.15040987730026245,0.28767356276512146,0.1611296683549881,0.9994016289710999,-0.017929818481206894,-0.007420198991894722,-0.028635146096348763
320.0,0.0,0.0,0.0,0.0,0.0,0.0,-0.10419246554374695,0.2604994773864746,0.11783456802368164,0.9992777705192566,-0.03128388151526451,-0.00911711435765028,-0.01954982802271843
321.0,0.0,0.0,0.0,0.0,0.0,0.0,0.031032368540763855,0.03028072603046894,-0.07509546726942062,0.9989905953407288,-0.04215169697999954,-0.01056850515305996,-0.011365773156285286
322.0,0.0,0.0,0.0,0.0,0.0,0.0,0.08176469057798386,0.017335383221507072,-0.1300286501646042,0.9987954497337341,-0.04728769138455391,-0.012957013212144375,-0.0019289208576083183
323.0,0.0,0.0,0.0,0.0,0.0,0.0,0.10695821791887283,0.07470232248306274,-0.15619738399982452,0.9985676407814026,-0.049835205078125,-0.01851796545088291,0.006039770320057869
324.0,0.0,0.0,0.0,0.0,0.0,0.0,0.09216316044330597,0.024800648912787437,-0.1683965027332306,0.9980895519256592,-0.05623786896467209,-0.022923680022358894,0.011409512721002102
325.0,0.0,0.0,0.0,0.0,0.0,0.0,0.13225238025188446,-0.004231735598295927,-0.18150581419467926,0.9976135492324829,-0.061779290437698364,-0.026250187307596207,0.016198907047510147
326.0,0.0,0.0,0.0,0.0,0.0,0.0,0.15385526418685913,-0.06740478426218033,-0.18499338626861572,0.9973829984664917,-0.06359755992889404,-0.028294876217842102,0.019571391865611076
327.0,0.0,0.0,0.0,0.0,0.0,0.0,0.1355714499950409,-0.08678551763296127,-0.17114920914173126,0.9972624778747559,-0.06461051106452942,-0.029785431921482086,0.020153598859906197
328.0,0.0,0.0,0.0,0.0,0.0,0.0,0.07726140320301056,-0.02354002185165882,-0.0802847370505333,0.997261106967926,-0.0661471039056778,-0.028957361355423927,0.016018426045775414
329.0,0.0,0.0,0.0,0.0,0.0,0.0,0.0011320763733237982,0.12704402208328247,0.07013776153326035,0.9975091814994812,-0.06419666856527328,-0.028122974559664726,0.007997475564479828
330.0,0.0,0.0,0.0,0.0,0.0,0.0,-0.01753738336265087,0.14214810729026794,0.08039578050374985,0.9978886842727661,-0.05839814618229866,-0.027982451021671295,-0.005000133533030748
331.0,0.0,0.0,0.0,0.0,0.0,0.0,0.013813850469887257,0.0212133526802063,0.021602701395750046,0.9982873797416687,-0.04319547116756439,-0.030828827992081642,-0.02462163381278515
332.0,0.0,0.0,0.0,0.0,0.0,0.0,-0.008542449213564396,0.008485537022352219,0.014601482078433037,0.9980267882347107,-0.016801560297608376,-0.032339487224817276,-0.05112774297595024
333.0,0.0,0.0,0.0,0.0,0.0,0.0,-0.32932159304618835,0.19540241360664368,0.040229205042123795,0.9964290261268616,0.018102742731571198,-0.02113371528685093,-0.0797194242477417
334.0,0.0,0.0,0.0,0.0,0.0,0.0,-0.43587157130241394,0.31749287247657776,0.2716479003429413,0.9945745468139648,0.04480716586112976,-0.005297203082591295,-0.09373418986797333
335.0,0.0,0.0,0.0,0.0,0.0,0.0,-0.1673777997493744,0.05903738737106323,0.1065182015299797,0.9937434196472168,0.054543521255254745,0.005437279120087624,-0.0973086878657341
336.0,0.0,0.0,0.0,0.0,0.0,0.0,0.0052221608348190784,0.03449534252285957,0.07312008738517761,0.9939691424369812,0.05262702330946922,0.009443799965083599,-0.09574221074581146
337.0,0.0,0.0,0.0,0.0,0.0,0.0,0.06409941613674164,0.04037712141871452,0.01461595669388771,0.9946949481964111,0.047472935169935226,0.010725012049078941,-0.09062618762254715
338.0,0.0,0.0,0.0,0.0,0.0,0.0,0.06525973230600357,0.0010447329841554165,-0.048040471971035004,0.9954103231430054,0.04251159355044365,0.012361619621515274,-0.0848412960767746
339.0,0.0,0.0,0.0,0.0,0.0,0.0,0.07432906329631805,-0.038212332874536514,-0.025806620717048645,0.9961798787117004,0.039812229573726654,0.01491012703627348,-0.07627830654382706
340.0,0.0,0.0,0.0,0.0,0.0,0.0,0.12555359303951263,-0.13416053354740143,-0.007097506430000067,0.9966601729393005,0.03954920545220375,0.017756199464201927,-0.06920266896486282
341.0,0.0,0.0,0.0,0.0,0.0,0.0,0.0982780009508133,-0.06903748214244843,-0.08827105909585953,0.9969490766525269,0.03689400851726532,0.01780729740858078,-0.06643835455179214
342.0,0.0,0.0,0.0,0.0,0.0,0.0,-0.1282564103603363,-0.0021084933541715145,0.02510688081383705,0.9971184134483337,0.03152865171432495,0.02114424854516983,-0.0656818076968193
343.0,0.0,0.0,0.0,0.0,0.0,0.0,0.0274056363850832,-0.015620536170899868,0.009670352563261986,0.9972939491271973,0.02849467098712921,0.02476850524544716,-0.06308680027723312
344.0,0.0,0.0,0.0,0.0,0.0,0.0,0.050316452980041504,0.05451846495270729,0.022676629945635796,0.997348427772522,0.027690904214978218,0.02715056762099266,-0.061583250761032104
345.0,0.0,0.0,0.0,0.0,0.0,0.0,0.03084268979728222,-0.07273362576961517,-0.0321059413254261,0.9974231719970703,0.0258910171687603,0.02951548434793949,-0.06004803627729416
346.0,0.0,0.0,0.0,0.0,0.0,0.0,0.018301131203770638,-0.09110736101865768,-0.07103918492794037,0.9973942041397095,0.021289128810167313,0.03142888844013214,-0.0613488145172596
347.0,0.0,0.0,0.0,0.0,0.0,0.0,0.000703751458786428,-0.05614345148205757,-0.025964537635445595,0.9973139762878418,0.018331609666347504,0.032589394599199295,-0.06298447400331497
348.0,0.0,0.0,0.0,0.0,0.0,0.0,0.32921358942985535,-0.280019074678421,-0.23813986778259277,0.9973902106285095,0.017548102885484695,0.027054348960518837,-0.0645967498421669
349.0,0.0,0.0,0.0,0.0,0.0,0.0,0.4405803680419922,-0.42790478467941284,-0.3137144446372986,0.9972397089004517,0.011403177864849567,0.012314656749367714,-0.07232768088579178
350.0,0.0,0.0,0.0,0.0,0.0,0.0,0.11282315105199814,-0.1456383764743805,0.0030512302182614803,0.9963761568069458,-0.001103652990423143,0.0016597871435806155,-0.08503321558237076
351.0,0.0,0.0,0.0,0.0,0.0,0.0,-0.005057849455624819,0.09289487451314926,0.14505480229854584,0.9950520396232605,-0.011164559982717037,-0.005738365463912487,-0.09856045246124268
352.0,0.0,0.0,0.0,0.0,0.0,0.0,-0.1438380479812622,0.22360838949680328,0.13776381313800812,0.9934978485107422,-0.01727273315191269,-0.00965164415538311,-0.11211976408958435
353.0,0.0,0.0,0.0,0.0,0.0,0.0,-0.3445987105369568,0.38390201330184937,0.2083064317703247,0.9921053647994995,-0.020801277831196785,-0.008835099637508392,-0.12335634976625443
354.0,0.0,0.0,0.0,0.0,0.0,0.0,-0.3621668517589569,0.45527759194374084,0.3295272886753082,0.9915663003921509,-0.017476508393883705,-0.0008647212525829673,-0.12841694056987762
355.0,0.0,0.0,0.0,0.0,0.0,0.0,-0.2776806354522705,0.4878266155719757,0.21171516180038452,0.9916138648986816,-0.011158338747918606,0.010364306159317493,-0.12832771241664886
356.0,0.0,0.0,0.0,0.0,0.0,0.0,-0.14582565426826477,0.3887568414211273,0.0274768378585577,0.9919041395187378,-0.010918897576630116,0.018412191420793533,-0.12517717480659485
357.0,0.0,0.0,0.0,0.0,0.0,0.0,-0.15247395634651184,0.3238258361816406,0.11107584089040756,0.9928955435752869,-0.011709918268024921,0.022761529311537743,-0.11620407551527023
358.0,0.0,0.0,0.0,0.0,0.0,0.0,0.01797829382121563,0.15243932604789734,0.246415913105011,0.9949263334274292,-0.0018469836795702577,0.024257848039269447,-0.09761902689933777
359.0,0.0,0.0,0.0,0.0,0.0,0.0,0.21591049432754517,-0.3332846462726593,0.09529577940702438,0.9962962865829468,0.008269785903394222,0.022036872804164886,-0.08270405977964401
360.0,0.0,0.0,0.0,0.0,0.0,0.0,0.16441741585731506,-0.3172437846660614,-0.16059459745883942,0.996782124042511,0.017297295853495598,0.021531766280531883,-0.07525375485420227
361.0,0.0,0.0,0.0,0.0,0.0,0.0,0.1628361940383911,-0.1847953200340271,-0.2920958697795868,0.996674656867981,0.029201630502939224,0.021498193964362144,-0.07297325134277344
362.0,0.0,0.0,0.0,0.0,0.0,0.0,0.11127324402332306,-0.1474367082118988,-0.2186737060546875,0.9957478642463684,0.04243510216474533,0.021286137402057648,-0.07894805818796158
363.0,0.0,0.0,0.0,0.0,0.0,0.0,0.06432459503412247,-0.038272835314273834,-0.06687363237142563,0.9948245286941528,0.04738009348511696,0.021653229370713234,-0.08723674714565277
364.0,0.0,0.0,0.0,0.0,0.0,0.0,0.06926774978637695,-0.08523403108119965,-0.05540028214454651,0.9941746592521667,0.048782408237457275,0.019135862588882446,-0.09418865293264389
365.0,0.0,0.0,0.0,0.0,0.0,0.0,-0.0050002275966107845,0.020257260650396347,0.026432158425450325,0.9935238361358643,0.049719780683517456,0.01258719339966774,-0.10138939321041107
366.0,0.0,0.0,0.0,0.0,0.0,0.0,-0.00044268451165407896,-0.05383932217955589,0.016782246530056,0.9928311705589294,0.051659658551216125,0.006898521911352873,-0.10756681859493256
367.0,0.0,0.0,0.0,0.0,0.0,0.0,-0.09249706566333771,0.027718739584088326,0.048619914799928665,0.9923356175422668,0.05135625973343849,0.003722568042576313,-0.1123371347784996
368.0,0.0,0.0,0.0,0.0,0.0,0.0,-0.13675545156002045,0.016516726464033127,0.06426853686571121,0.9924151301383972,0.0501624271273613,0.0037414967082440853,-0.11217227578163147
369.0,0.0,0.0,0.0,0.0,0.0,0.0,-0.07419316470623016,-0.009874843060970306,0.018446775153279305,0.9929793477058411,0.04718514531850815,0.003685162402689457,-0.10841266065835953
370.0,0.0,0.0,0.0,0.0,0.0,0.0,-0.0846308246254921,-0.020235298201441765,0.046546000987291336,0.9935794472694397,0.04378685727715492,0.0034871534444391727,-0.1042650043964386
371.0,0.0,0.0,0.0,0.0,0.0,0.0,-0.08243934065103531,-0.019303297623991966,0.0017722961492836475,0.9940796494483948,0.04187842458486557,0.004662392195314169,-0.10015499591827393
372.0,0.0,0.0,0.0,0.0,0.0,0.0,-0.08300677686929703,-0.00459682010114193,-0.0010476349852979183,0.9944818019866943,0.04103510454297066,0.005297510419040918,-0.09640905261039734
373.0,0.0,0.0,0.0,0.0,0.0,0.0,-0.05423952266573906,-0.05113508552312851,-0.03337164595723152,0.9946823120117188,0.04180295392870903,0.004750032909214497,-0.0940067246556282
374.0,0.0,0.0,0.0,0.0,0.0,0.0,-0.06531772017478943,-0.07636531442403793,-0.03752991557121277,0.9947625994682312,0.041773658245801926,0.0038677107077091932,-0.09320466220378876
375.0,0.0,0.0,0.0,0.0,0.0,0.0,-0.05276317894458771,-0.08666684478521347,-0.04032079502940178,0.9949861168861389,0.03892676904797554,0.00352910696528852,-0.09205975383520126
376.0,0.0,0.0,0.0,0.0,0.0,0.0,-0.039678413420915604,-0.09246192872524261,-0.013198156841099262,0.9951657652854919,0.03541408106684685,0.00398307666182518,-0.09152273088693619
377.0,0.0,0.0,0.0,0.0,0.0,0.0,-0.02648758701980114,-0.09255596995353699,-0.01977883093059063,0.9954242706298828,0.03146420046687126,0.006471831817179918,-0.08999801427125931
378.0,0.0,0.0,0.0,0.0,0.0,0.0,0.02318011038005352,-0.07508520781993866,-0.027432400733232498,0.9958098530769348,0.026810791343450546,0.007936212234199047,-0.08707287162542343
379.0,0.0,0.0,0.0,0.0,0.0,0.0,0.03794071078300476,-0.06947208195924759,-0.03168650344014168,0.9960840344429016,0.021787572652101517,0.008584277704358101,-0.0852559506893158
380.0,0.0,0.0,0.0,0.0,0.0,0.0,0.007707401178777218,-0.08480758965015411,-0.019224347546696663,0.9961848855018616,0.017899170517921448,0.009130612947046757,-0.08493199199438095
381.0,0.0,0.0,0.0,0.0,0.0,0.0,0.09336107969284058,-0.11172845959663391,-0.07578571885824203,0.9962115287780762,0.013714754022657871,0.006886819843202829,-0.08560074865818024
382.0,0.0,0.0,0.0,0.0,0.0,0.0,0.12211790680885315,-0.1709699034690857,-0.11615025252103806,0.9961588382720947,0.010829097591340542,0.004454751964658499,-0.0867714211344719
383.0,0.0,0.0,0.0,0.0,0.0,0.0,0.08783194422721863,-0.16451460123062134,-0.10420134663581848,0.9960157871246338,0.00518374377861619,0.003321964992210269,-0.08896293491125107
384.0,0.0,0.0,0.0,0.0,0.0,0.0,-0.012549755163490772,0.04076946899294853,0.019213328137993813,0.9957911968231201,-0.0036794489715248346,0.003160193096846342,-0.09153097867965698
385.0,0.0,0.0,0.0,0.0,0.0,0.0,-0.04458140581846237,0.1447526514530182,0.04747287929058075,0.9955031871795654,-0.011446753516793251,0.003956747706979513,-0.09394300729036331
386.0,0.0,0.0,0.0,0.0,0.0,0.0,-0.040376558899879456,0.18947967886924744,0.04669854789972305,0.9951575994491577,-0.01686227135360241,0.004961776547133923,-0.09670953452587128
387.0,0.0,0.0,0.0,0.0,0.0,0.0,-0.06342992931604385,0.21294860541820526,0.05392958223819733,0.9947741627693176,-0.021064937114715576,0.006300624459981918,-0.099713996052742
388.0,0.0,0.0,0.0,0.0,0.0,0.0,-0.051041360944509506,0.18305052816867828,0.029442228376865387,0.9946222305297852,-0.023377351462841034,0.008416897617280483,-0.10053878277540207
389.0,0.0,0.0,0.0,0.0,0.0,0.0,0.0006744156125932932,0.1526215374469757,-0.0042274161241948605,0.9944955110549927,-0.024969713762402534,0.009186866693198681,-0.10134997963905334
390.0,0.0,0.0,0.0,0.0,0.0,0.0,0.01236614491790533,0.12401024997234344,0.002974052680656314,0.9942152500152588,-0.026587586849927902,0.0076680053025484085,-0.10378574579954147
391.0,0.0,0.0,0.0,0.0,0.0,0.0,0.006047617178410292,0.15399307012557983,0.020193833857774734,0.9940134882926941,-0.026703855022788048,0.006591313052922487,-0.10575162619352341
392.0,0.0,0.0,0.0,0.0,0.0,0.0,-0.014144854620099068,0.19432540237903595,0.04238137602806091,0.9939165115356445,-0.025939511135220528,0.006919613108038902,-0.10681892186403275
393.0,0.0,0.0,0.0,0.0,0.0,0.0,-0.0465896911919117,0.24134016036987305,0.07552887499332428,0.9940130710601807,-0.024846075102686882,0.009024174883961678,-0.10601353645324707
394.0,0.0,0.0,0.0,0.0,0.0,0.0,0.023004235699772835,0.2137233465909958,0.09255266934633255,0.9943222403526306,-0.021698419004678726,0.01125130895525217,-0.10357781499624252
395.0,0.0,0.0,0.0,0.0,0.0,0.0,0.06523976475000381,0.1732204705476761,0.1019890233874321,0.994794487953186,-0.017478907480835915,0.013779785484075546,-0.09944146871566772
396.0,0.0,0.0,0.0,0.0,0.0,0.0,0.12388163059949875,0.06606397032737732,0.12796376645565033,0.9952683448791504,-0.012349041178822517,0.015184911899268627,-0.09517566859722137
397.0,0.0,0.0,0.0,0.0,0.0,0.0,0.1320667862892151,-0.08747388422489166,0.035617291927337646,0.9954109191894531,-0.00920733530074358,0.016276638954877853,-0.0938454195857048
398.0,0.0,0.0,0.0,0.0,0.0,0.0,0.1492336392402649,-0.024140900000929832,-0.05183166265487671,0.9955082535743713,-0.005573345813900232,0.015591277740895748,-0.09322641789913177
399.0,0.0,0.0,0.0,0.0,0.0,0.0,0.16448688507080078,-0.03819678723812103,-0.07534107565879822,0.9954845309257507,-0.00013476292951963842,0.011847330257296562,-0.09418181329965591
400.0,0.0,0.0,0.0,0.0,0.0,0.0,0.1265341192483902,-0.05479823797941208,-0.07958146184682846,0.9947935342788696,0.006300505716353655,0.009844853542745113,-0.10123187303543091
401.0,0.0,0.0,0.0,0.0,0.0,0.0,0.07910297065973282,-0.010037743486464024,-0.07628943026065826,0.993767499923706,0.014529963955283165,0.009010661393404007,-0.1101604551076889
402.0,0.0,0.0,0.0,0.0,0.0,0.0,0.006054729223251343,-0.07720746845006943,-0.06936511397361755,0.9926032423973083,0.018592776730656624,0.009527360089123249,-0.11959204077720642
403.0,0.0,0.0,0.0,0.0,0.0,0.0,0.05271793529391289,-0.03184733912348747,-0.031367093324661255,0.991578221321106,0.022850150242447853,0.006275184452533722,-0.12732037901878357
404.0,0.0,0.0,0.0,0.0,0.0,0.0,0.015275223180651665,-0.02843288891017437,0.009587830863893032,0.9904332160949707,0.026361996307969093,0.0028788920026272535,-0.1354215145111084
405.0,0.0,0.0,0.0,0.0,0.0,0.0,0.016982680186629295,-0.02565580978989601,0.03569551557302475,0.9895544052124023,0.029206687584519386,0.000482172763440758,-0.14117887616157532
406.0,0.0,0.0,0.0,0.0,0.0,0.0,0.022712750360369682,-0.0539926141500473,0.007526156026870012,0.9889289140701294,0.03156847506761551,-0.0015583422500640154,-0.14498373866081238
407.0,0.0,0.0,0.0,0.0,0.0,0.0,-0.016132796183228493,-0.0063225640915334225,0.005800045095384121,0.9882901310920715,0.034248799085617065,-0.0034076489973813295,-0.14866401255130768
408.0,0.0,0.0,0.0,0.0,0.0,0.0,-0.052243348211050034,0.08302678167819977,0.02465161308646202,0.9878808259963989,0.037376467138528824,-0.003586061066016555,-0.15060172975063324
409.0,0.0,0.0,0.0,0.0,0.0,0.0,-0.016939042136073112,0.022778693586587906,0.03979290649294853,0.9877593517303467,0.039314862340688705,-0.0026562234852463007,-0.15092727541923523
410.0,0.0,0.0,0.0,0.0,0.0,0.0,-0.03323528915643692,-0.005832131020724773,0.03506390005350113,0.9876362681388855,0.041166115552186966,-0.0011894756462424994,-0.15125738084316254
411.0,0.0,0.0,0.0,0.0,0.0,0.0,-0.026040980592370033,-0.01774153672158718,0.006266241427510977,0.9873802065849304,0.04408321529626846,-0.00010843607014976442,-0.15210406482219696
412.0,0.0,0.0,0.0,0.0,0.0,0.0,0.023562738671898842,-0.06657100468873978,0.0003705552080646157,0.9871053695678711,0.04721931368112564,-0.0004013818979728967,-0.15295709669589996
413.0,0.0,0.0,0.0,0.0,0.0,0.0,-0.019633065909147263,-0.01361035741865635,0.02388540841639042,0.9868934154510498,0.048375703394412994,-0.0009782513370737433,-0.1539575159549713
414.0,0.0,0.0,0.0,0.0,0.0,0.0,-0.0034275753423571587,-0.02822856232523918,0.005101870745420456,0.9867278933525085,0.05032644420862198,-0.0009264328982681036,-0.15437977015972137
415.0,0.0,0.0,0.0,0.0,0.0,0.0,-0.0016737743280828,-0.04410306364297867,0.012974733486771584,0.9865143299102783,0.05180768296122551,-0.00105624133720994,-0.15526443719863892
416.0,0.0,0.0,0.0,0.0,0.0,0.0,0.02004585601389408,-0.026434678584337234,0.02752581611275673,0.9865469336509705,0.05450442060828209,-0.0024154577404260635,-0.15410763025283813
417.0,0.0,0.0,0.0,0.0,0.0,0.0,-0.00933027546852827,-0.02400847338140011,0.024065235629677773,0.9863929152488708,0.0579393170773983,-0.004112386144697666,-0.15380343794822693
418.0,0.0,0.0,0.0,0.0,0.0,0.0,-0.04958227649331093,-0.025189245119690895,0.018769456073641777,0.985954761505127,0.06029196456074715,-0.004878755193203688,-0.15567995607852936
419.0,0.0,0.0,0.0,0.0,0.0,0.0,-0.06535535305738449,-0.014826304279267788,0.010377130471169949,0.9856314063072205,0.06312854588031769,-0.004330787807703018,-0.15660728514194489
420.0,0.0,0.0,0.0,0.0,0.0,0.0,-0.0890062004327774,-0.0005314807640388608,0.03312550112605095,0.9853503108024597,0.06618432700634003,-0.001875649788416922,-0.15716613829135895
421.0,0.0,0.0,0.0,0.0,0.0,0.0,-0.08710474520921707,0.01377507671713829,0.03490215912461281,0.9853721857070923,0.06928770244121552,0.0013325189938768744,-0.1556934118270874
422.0,0.0,0.0,0.0,0.0,0.0,0.0,-0.08695392310619354,0.020518306642770767,0.042185500264167786,0.985652506351471,0.07114644348621368,0.005106042139232159,-0.15297266840934753
423.0,0.0,0.0,0.0,0.0,0.0,0.0,-0.062339358031749725,0.03350813314318657,0.03908584266901016,0.9859001040458679,0.07343684881925583,0.008782634511590004,-0.15010316669940948
424.0,0.0,0.0,0.0,0.0,0.0,0.0,-0.022580960765480995,0.02307174541056156,-0.001299496740102768,0.9862786531448364,0.07491485029459,0.011041668243706226,-0.1467025876045227
425.0,0.0,0.0,0.0,0.0,0.0,0.0,0.011741694994270802,-0.03792555257678032,-0.01821698434650898,0.9864063262939453,0.07471776753664017,0.010409211739897728,-0.14598394930362701
426.0,0.0,0.0,0.0,0.0,0.0,0.0,0.0052221911028027534,-0.04050910100340843,-0.014738121069967747,0.986345648765564,0.07292994111776352,0.009615418501198292,-0.14734892547130585
427.0,0.0,0.0,0.0,0.0,0.0,0.0,-0.0436401441693306,0.022568799555301666,0.018821274861693382,0.9863676428794861,0.0704277902841568,0.009588872082531452,-0.14841969311237335
428.0,0.0,0.0,0.0,0.0,0.0,0.0,-0.05703045055270195,0.06774936616420746,0.0418313667178154,0.9865390658378601,0.06808645278215408,0.010331930592656136,-0.14831803739070892
429.0,0.0,0.0,0.0,0.0,0.0,0.0,-0.05373622477054596,0.06219644099473953,0.03681859374046326,0.9868491291999817,0.06677834689617157,0.012425938621163368,-0.14667731523513794
430.0,0.0,0.0,0.0,0.0,0.0,0.0,-0.023283835500478745,0.0017370604909956455,0.0282546728849411,0.9873197674751282,0.06571638584136963,0.014771558344364166,-0.143747478723526
431.0,0.0,0.0,0.0,0.0,0.0,0.0,-0.004983169957995415,-0.03927546739578247,0.0026623632293194532,0.9877673983573914,0.06314468383789062,0.01713789440691471,-0.1415395587682724
432.0,0.0,0.0,0.0,0.0,0.0,0.0,0.006226231809705496,-0.07660059630870819,-0.03216799348592758,0.9881902933120728,0.057863976806402206,0.01820266991853714,-0.14071138203144073
433.0,0.0,0.0,0.0,0.0,0.0,0.0,-0.008059409447014332,-0.07544169574975967,-0.040410302579402924,0.989044189453125,0.05085736885666847,0.020149217918515205,-0.13711349666118622
434.0,0.0,0.0,0.0,0.0,0.0,0.0,0.015622752718627453,0.03541569039225578,-0.041094157844781876,0.9896975159645081,0.047654472291469574,0.019969500601291656,-0.1335253268480301
435.0,0.0,0.0,0.0,0.0,0.0,0.0,-0.016780607402324677,0.048435669392347336,-0.02300463616847992,0.9900760650634766,0.04510437697172165,0.01955755054950714,-0.13165594637393951
436.0,0.0,0.0,0.0,0.0,0.0,0.0,-0.010321234352886677,0.010410135611891747,-0.02277354896068573,0.9904413819313049,0.04332835599780083,0.020095568150281906,-0.12940123677253723
437.0,0.0,0.0,0.0,0.0,0.0,0.0,0.02801308035850525,-0.0016796289710327983,-0.03138710558414459,0.990941047668457,0.04073299467563629,0.01926969364285469,-0.12651516497135162
438.0,0.0,0.0,0.0,0.0,0.0,0.0,0.0482504665851593,-0.036511652171611786,-0.003020386677235365,0.9911905527114868,0.03917673975229263,0.018405083566904068,-0.12516991794109344
439.0,0.0,0.0,0.0,0.0,0.0,0.0,0.03423444926738739,-0.029768895357847214,-0.03957230970263481,0.9912883043289185,0.039380379021167755,0.017864340916275978,-0.12441183626651764
440.0,0.0,0.0,0.0,0.0,0.0,0.0,-0.018002022057771683,-0.005439618602395058,-0.025628238916397095,0.9914525747299194,0.03748892620205879,0.018089642748236656,-0.12364960461854935
441.0,0.0,0.0,0.0,0.0,0.0,0.0,-0.020756561309099197,0.03151645138859749,-0.02756468765437603,0.9916236400604248,0.034824974834918976,0.019026782363653183,-0.12291327863931656
442.0,0.0,0.0,0.0,0.0,0.0,0.0,-0.009213882498443127,0.037014447152614594,-0.033104632049798965,0.9920021891593933,0.03091948665678501,0.01874132640659809,-0.12093064188957214
443.0,0.0,0.0,0.0,0.0,0.0,0.0,0.03143776208162308,0.03293362632393837,-0.005041693802922964,0.9922478199005127,0.029381465166807175,0.017604436725378036,-0.11945956945419312
444.0,0.0,0.0,0.0,0.0,0.0,0.0,-0.004217802081257105,0.004872247576713562,-0.007297548931092024,0.9923250675201416,0.027079379186034203,0.01846884936094284,-0.11923552304506302
445.0,0.0,0.0,0.0,0.0,0.0,0.0,-0.015141807496547699,0.0292673222720623,-0.03155539184808731,0.992554247379303,0.024289265275001526,0.018842663615942,-0.11786215007305145
446.0,0.0,0.0,0.0,0.0,0.0,0.0,-0.01627500355243683,0.045140527188777924,-0.023610752075910568,0.9929454326629639,0.019485851749777794,0.01875605620443821,-0.11544724553823471
447.0,0.0,0.0,0.0,0.0,0.0,0.0,-0.006231756415218115,0.04218408837914467,-0.003784099593758583,0.9933092594146729,0.01381715852767229,0.018449710682034492,-0.11316460371017456
448.0,0.0,0.0,0.0,0.0,0.0,0.0,0.002883060136809945,0.025278041139245033,0.01764240674674511,0.9936016201972961,0.009437307715415955,0.01830020360648632,-0.11104834824800491
449.0,0.0,0.0,0.0,0.0,0.0,0.0,0.014789894223213196,0.0493796281516552,-0.0023505683057010174,0.9938527345657349,0.006416107062250376,0.018213853240013123,-0.1090155765414238
450.0,0.0,0.0,0.0,0.0,0.0,0.0,0.02669060416519642,0.0673903152346611,-0.04086554795503616,0.9941145181655884,0.004617819096893072,0.01754997856914997,-0.10680210590362549
451.0,0.0,0.0,0.0,0.0,0.0,0.0,0.016585074365139008,0.04983489215373993,-0.021336629986763,0.9943859577178955,0.0025226599536836147,0.017061451449990273,-0.10440199822187424
452.0,0.0,0.0,0.0,0.0,0.0,0.0,0.00039825381827540696,0.08261296153068542,0.004409349989145994,0.9947261214256287,0.0013769114157184958,0.016178831458091736,-0.10127345472574234
453.0,0.0,0.0,0.0,0.0,0.0,0.0,-0.017153611406683922,0.031064603477716446,-0.008401958271861076,0.9949617981910706,0.001552365138195455,0.015129015780985355,-0.09909575432538986
454.0,0.0,0.0,0.0,0.0,0.0,0.0,-0.042039744555950165,0.01865992322564125,0.03224204108119011,0.9951857328414917,0.002186389174312353,0.01380991842597723,-0.09700379520654678
455.0,0.0,0.0,0.0,0.0,0.0,0.0,-0.020287545397877693,0.01168082281947136,0.0288571547716856,0.9953996539115906,0.003408201737329364,0.013087566941976547,-0.09485004097223282
456.0,0.0,0.0,0.0,0.0,0.0,0.0,0.038808971643447876,-0.020068172365427017,-0.022387128323316574,0.9956455230712891,0.005994487553834915,0.01218454446643591,-0.09222736209630966
457.0,0.0,0.0,0.0,0.0,0.0,0.0,0.06867409497499466,-0.030485769733786583,-0.017188578844070435,0.9958958029747009,0.007915172725915909,0.011377804912626743,-0.08943916857242584
458.0,0.0,0.0,0.0,0.0,0.0,0.0,0.04624650254845619,-0.04543884098529816,0.013100721873342991,0.9962292909622192,0.007992340251803398,0.009867413900792599,-0.08582308143377304
459.0,0.0,0.0,0.0,0.0,0.0,0.0,0.06907947361469269,0.010438764467835426,0.010647108778357506,0.9963719248771667,0.009526683017611504,0.008807949721813202,-0.08411257714033127
460.0,0.0,0.0,0.0,0.0,0.0,0.0,0.07653392851352692,0.01714492216706276,0.006627162452787161,0.9965723156929016,0.010349602438509464,0.00732586020603776,-0.08175002783536911
461.0,0.0,0.0,0.0,0.0,0.0,0.0,0.04643971845507622,0.018032314255833626,-0.001857762923464179,0.9966614842414856,0.011065264232456684,0.005820524413138628,-0.0806846171617508
462.0,0.0,0.0,0.0,0.0,0.0,0.0,0.028780819848179817,-0.003220922313630581,-0.003605260280892253,0.9967078566551208,0.0108325881883502,0.004665920976549387,-0.0802159383893013
463.0,0.0,0.0,0.0,0.0,0.0,0.0,0.03695550188422203,0.0012809621402993798,0.015926172956824303,0.9967325925827026,0.00904911756515503,0.003732586745172739,-0.08017662912607193
464.0,0.0,0.0,0.0,0.0,0.0,0.0,0.02471575140953064,0.011940638534724712,0.0360303595662117,0.9966945648193359,0.0074390992522239685,0.0028419692534953356,-0.0808463990688324
465.0,0.0,0.0,0.0,0.0,0.0,0.0,0.01807587966322899,0.03751474991440773,0.05148407444357872,0.9966482520103455,0.006611769553273916,0.0017147925682365894,-0.08151938766241074
466.0,0.0,0.0,0.0,0.0,0.0,0.0,-0.03338272124528885,0.049669791013002396,0.07995815575122833,0.9965838193893433,0.00549963116645813,0.0012076117563992739,-0.08239640295505524
467.0,0.0,0.0,0.0,0.0,0.0,0.0,-0.048718053847551346,0.0826525017619133,0.09862043708562851,0.9966351985931396,0.005347259342670441,0.001618982874788344,-0.08177851140499115
468.0,0.0,0.0,0.0,0.0,0.0,0.0,-0.010816854424774647,0.059525735676288605,0.007717168424278498,0.9967450499534607,0.006017758045345545,0.002117455005645752,-0.08036656677722931
469.0,0.0,0.0,0.0,0.0,0.0,0.0,-0.04703465849161148,0.027219263836741447,-0.00301528861746192,0.9967435598373413,0.005939089227467775,0.002998308977112174,-0.08036211133003235
470.0,0.0,0.0,0.0,0.0,0.0,0.0,0.007124987430870533,0.010139823891222477,-0.010790347121655941,0.9968293309211731,0.006793753243982792,0.004459603223949671,-0.0791514664888382
471.0,0.0,0.0,0.0,0.0,0.0,0.0,0.06790707260370255,-0.054451774805784225,-0.035777293145656586,0.996911346912384,0.00831463560461998,0.004834213759750128,-0.077946238219738
472.0,0.0,0.0,0.0,0.0,0.0,0.0,0.04688040167093277,-0.07673776149749756,-0.05639133229851723,0.9969282150268555,0.00946899875998497,0.005320167168974876,-0.07756491005420685
473.0,0.0,0.0,0.0,0.0,0.0,0.0,-0.005862098652869463,0.002911666175350547,-0.039666902273893356,0.9969555139541626,0.009681898169219494,0.0058729154989123344,-0.07714772969484329
474.0,0.0,0.0,0.0,0.0,0.0,0.0,-0.03549540042877197,0.04253415763378143,-0.04108786582946777,0.9970554709434509,0.0067835357040166855,0.007332496345043182,-0.07603046298027039
475.0,0.0,0.0,0.0,0.0,0.0,0.0,-0.06287291646003723,0.07385784387588501,0.09433259814977646,0.9973981976509094,0.00032901245867833495,0.008099201135337353,-0.07163107395172119
476.0,0.0,0.0,0.0,0.0,0.0,0.0,-0.14507491886615753,0.25191494822502136,0.2996765673160553,0.9982362985610962,-0.008672058582305908,0.0053937481716275215,-0.058482926338911057
477.0,0.0,0.0,0.0,0.0,0.0,0.0,-0.13032497465610504,0.24426661431789398,0.3187582790851593,0.9992136359214783,-0.012331467121839523,0.0018337615765631199,-0.037641484290361404
478.0,0.0,0.0,0.0,0.0,0.0,0.0,0.022834524512290955,0.017232801765203476,-0.06484753638505936,0.9996756911277771,-0.016174444928765297,-0.0006132562994025648,-0.019664229825139046
479.0,0.0,0.0,0.0,0.0,0.0,0.0,0.06699364632368088,-0.13860872387886047,-0.24171249568462372,0.999671995639801,-0.023421941325068474,-0.006073543336242437,-0.008399932645261288
480.0,0.0,0.0,0.0,0.0,0.0,0.0,0.06445422023534775,-0.10386449843645096,-0.15453560650348663,0.9995737671852112,-0.0258500799536705,-0.013498799875378609,-0.001399167813360691
481.0,0.0,0.0,0.0,0.0,0.0,0.0,0.07027735561132431,-0.06971484422683716,-0.12578806281089783,0.9995757937431335,-0.021979162469506264,-0.018848784267902374,0.0031335027888417244
482.0,0.0,0.0,0.0,0.0,0.0,0.0,0.14639624953269958,-0.20360873639583588,-0.18331000208854675,0.9997550845146179,-0.006768705323338509,-0.021067142486572266,0.00040573481237515807
483.0,0.0,0.0,0.0,0.0,0.0,0.0,0.15517176687717438,-0.26543596386909485,-0.26595690846443176,0.999534010887146,0.02031644620001316,-0.018625609576702118,-0.013117948547005653
484.0,0.0,0.0,0.0,0.0,0.0,0.0,-0.1356140822172165,-0.0022314046509563923,-0.024866750463843346,0.998561441898346,0.03605467081069946,-0.012333551421761513,-0.0377243347465992
485.0,0.0,0.0,0.0,0.0,0.0,0.0,-0.15304696559906006,0.14507581293582916,0.20457898080348969,0.9975009560585022,0.041551169008016586,-0.011482350528240204,-0.055977821350097656
486.0,0.0,0.0,0.0,0.0,0.0,0.0,-0.03970825672149658,0.07563100010156631,0.14185009896755219,0.9965695142745972,0.048597801476716995,-0.01144924946129322,-0.06600400805473328
487.0,0.0,0.0,0.0,0.0,0.0,0.0,-0.012581177987158298,0.0049173468723893166,0.07757167518138885,0.99587082862854,0.05515039712190628,-0.009338675066828728,-0.07150126248598099
488.0,0.0,0.0,0.0,0.0,0.0,0.0,0.027232222259044647,0.023044215515255928,0.04494414106011391,0.9953907132148743,0.06358075141906738,-0.006387739907950163,-0.07151436060667038
489.0,0.0,0.0,0.0,0.0,0.0,0.0,-0.017572060227394104,-0.015926053747534752,-0.000809038057923317,0.9950060248374939,0.06940626353025436,-0.0023931346368044615,-0.07169384509325027
490.0,0.0,0.0,0.0,0.0,0.0,0.0,-0.05961184203624725,-0.0662793219089508,0.03811221569776535,0.9946932196617126,0.07306479662656784,0.003257297445088625,-0.07236195355653763
491.0,0.0,0.0,0.0,0.0,0.0,0.0,0.025014854967594147,-0.12192746996879578,-0.16632318496704102,0.9943698644638062,0.07546264678239822,0.007114926818758249,-0.0740513950586319
492.0,0.0,0.0,0.0,0.0,0.0,0.0,-0.034664977341890335,-0.059898797422647476,-0.06303142756223679,0.9939542412757874,0.07606557011604309,0.010170409455895424,-0.07851821929216385
493.0,0.0,0.0,0.0,0.0,0.0,0.0,-0.07354049384593964,0.003923462703824043,-0.026882728561758995,0.9935883283615112,0.07579446583986282,0.012262986041605473,-0.08299200236797333
494.0,0.0,0.0,0.0,0.0,0.0,0.0,-0.04447457194328308,-0.08761141449213028,-0.1050497367978096,0.9934951663017273,0.0728118047118187,0.012556121684610844,-0.08665120601654053
495.0,0.0,0.0,0.0,0.0,0.0,0.0,-0.06944101303815842,-0.07058301568031311,-0.01940024085342884,0.9934381246566772,0.06865136325359344,0.013083716854453087,-0.09053561091423035
496.0,0.0,0.0,0.0,0.0,0.0,0.0,-0.08595077693462372,-0.04206908866763115,-0.010588524863123894,0.993395209312439,0.06350855529308319,0.013632753863930702,-0.09458424150943756
497.0,0.0,0.0,0.0,0.0,0.0,0.0,-0.06855954229831696,-0.0005416146595962346,0.04341151937842369,0.9934566020965576,0.05982247367501259,0.013210038654506207,-0.09639117866754532
498.0,0.0,0.0,0.0,0.0,0.0,0.0,-0.06572022289037704,0.02687147632241249,0.05915256589651108,0.9935498833656311,0.056408535689115524,0.013691181316971779,-0.09741535782814026
499.0,0.0,0.0,0.0,0.0,0.0,0.0,-0.07537595927715302,0.050657398998737335,0.061423394829034805,0.9937023520469666,0.05313130095601082,0.016086164861917496,-0.09733597189188004
500.0,0.0,0.0,0.0,0.0,0.0,0.0,-0.09671333432197571,0.07098902016878128,0.13450026512145996,0.9941099286079407,0.04869780316948891,0.020531125366687775,-0.09462052583694458
501.0,0.0,0.0,0.0,0.0,0.0,0.0,-0.0634750947356224,0.04438319802284241,0.133344829082489,0.9947237372398376,0.04350624978542328,0.02598300576210022,-0.08920334279537201
502.0,0.0,0.0,0.0,0.0,0.0,0.0,0.046322811394929886,0.0063966987654566765,0.05270374193787575,0.9953920841217041,0.03904792293906212,0.02968006208539009,-0.08239635825157166
503.0,0.0,0.0,0.0,0.0,0.0,0.0,0.07230571657419205,-0.009718932211399078,-0.08398917317390442,0.9958877563476562,0.033897753804922104,0.030939172953367233,-0.07810962945222855
504.0,0.0,0.0,0.0,0.0,0.0,0.0,0.04579773172736168,0.029628297314047813,-0.16622556746006012,0.9963041543960571,0.027966920286417007,0.030906179919838905,-0.07510410994291306
505.0,0.0,0.0,0.0,0.0,0.0,0.0,0.043197937309741974,0.04270853102207184,-0.049392178654670715,0.9966537952423096,0.02291998639702797,0.02993486262857914,-0.072524793446064
506.0,0.0,0.0,0.0,0.0,0.0,0.0,0.025258848443627357,0.052964236587285995,0.02157016284763813,0.9967975616455078,0.018416423350572586,0.030053483322262764,-0.07177887856960297
507.0,0.0,0.0,0.0,0.0,0.0,0.0,0.011774742975831032,0.07645689696073532,-0.022927595302462578,0.9968512654304504,0.015756594017148018,0.030357806012034416,-0.0715378001332283
508.0,0.0,0.0,0.0,0.0,0.0,0.0,0.0060433498583734035,0.03158997371792793,0.011346140876412392,0.9969095587730408,0.013289457187056541,0.030449604615569115,-0.07118812948465347
509.0,0.0,0.0,0.0,0.0,0.0,0.0,0.0009933797409757972,0.03693029284477234,0.02522258274257183,0.9968764185905457,0.011870361864566803,0.03090234473347664,-0.07170571386814117
510.0,0.0,0.0,0.0,0.0,0.0,0.0,0.0515248067677021,-0.01170223206281662,-0.03372102230787277,0.9968798160552979,0.010724661871790886,0.0299860630184412,-0.07222769409418106
511.0,0.0,0.0,0.0,0.0,0.0,0.0,0.05573764815926552,-0.01590464822947979,-0.02015089988708496,0.9969227313995361,0.008412766270339489,0.027964992448687553,-0.07274794578552246
512.0,0.0,0.0,0.0,0.0,0.0,0.0,0.028060434386134148,-0.013963412493467331,0.051795635372400284,0.9968840479850769,0.00465211970731616,0.027158338576555252,-0.07391514629125595
513.0,0.0,0.0,0.0,0.0,0.0,0.0,-0.006224130745977163,0.005734608508646488,0.08565079420804977,0.9968867897987366,0.0007187894661910832,0.027828648686408997,-0.07377130538225174
514.0,0.0,0.0,0.0,0.0,0.0,0.0,0.020650863647460938,-0.02395830675959587,0.029691437259316444,0.9969070553779602,-0.0027070813812315464,0.02916928566992283,-0.07292663305997849
515.0,0.0,0.0,0.0,0.0,0.0,0.0,0.05114953592419624,-0.011396189220249653,-0.01107244286686182,0.9970075488090515,-0.0062519246712327,0.02930908091366291,-0.07125767320394516
516.0,0.0,0.0,0.0,0.0,0.0,0.0,0.029057733714580536,-0.014967533759772778,-0.014972668141126633,0.9970911741256714,-0.010286126285791397,0.029324792325496674,-0.06959550082683563
517.0,0.0,0.0,0.0,0.0,0.0,0.0,0.039595089852809906,-0.012898823246359825,0.0010677670361474156,0.9970362782478333,-0.01459753978997469,0.02907598577439785,-0.06971492618322372
518.0,0.0,0.0,0.0,0.0,0.0,0.0,0.08298365771770477,-0.05944614112377167,-0.03765302151441574,0.9969062805175781,-0.018319278955459595,0.027653245255351067,-0.07125638425350189
519.0,0.0,0.0,0.0,0.0,0.0,0.0,0.07729091495275497,-0.10191255062818527,-0.059294819831848145,0.99671870470047,-0.022366410121321678,0.024658851325511932,-0.07378289103507996
520.0,0.0,0.0,0.0,0.0,0.0,0.0,0.043058451265096664,-0.04388871043920517,-0.056095413863658905,0.9963598847389221,-0.028375495225191116,0.02160073257982731,-0.07743251323699951
521.0,0.0,0.0,0.0,0.0,0.0,0.0,0.027944663539528847,0.042114853858947754,-0.017681116238236427,0.9959253072738647,-0.03341842070221901,0.01863895170390606,-0.08165773004293442
522.0,0.0,0.0,0.0,0.0,0.0,0.0,-0.20780521631240845,0.3146030604839325,0.2522738575935364,0.9956907629966736,-0.036940913647413254,0.01791446842253208,-0.0831475779414177
523.0,0.0,0.0,0.0,0.0,0.0,0.0,-0.11316538602113724,0.2919345498085022,0.20211470127105713,0.9958364367485046,-0.0361643061041832,0.01953817345201969,-0.0813642144203186
524.0,0.0,0.0,0.0,0.0,0.0,0.0,0.03225499391555786,0.07921572029590607,0.021568255499005318,0.9960047602653503,-0.034000515937805176,0.020519962534308434,-0.07998873293399811
525.0,0.0,0.0,0.0,0.0,0.0,0.0,-0.07383682578802109,0.13347318768501282,0.10940717905759811,0.9963449239730835,-0.031486399471759796,0.021868325769901276,-0.0763368308544159
526.0,0.0,0.0,0.0,0.0,0.0,0.0,0.052293166518211365,0.06798076629638672,-0.039609115570783615,0.9968830943107605,-0.02629377692937851,0.022341853007674217,-0.07094334810972214
527.0,0.0,0.0,0.0,0.0,0.0,0.0,0.13525390625,-0.12438840419054031,-0.09377226233482361,0.9973540902137756,-0.02100607566535473,0.020524373278021812,-0.0665040835738182
528.0,0.0,0.0,0.0,0.0,0.0,0.0,0.045277081429958344,-0.12911082804203033,-0.05516260862350464,0.9976176023483276,-0.018252501264214516,0.01964002102613449,-0.06356339901685715
529.0,0.0,0.0,0.0,0.0,0.0,0.0,0.06793401390314102,-0.018658798187971115,-0.043624527752399445,0.9978281855583191,-0.015890948474407196,0.01908714324235916,-0.061009105294942856
530.0,0.0,0.0,0.0,0.0,0.0,0.0,0.03461413085460663,-0.004883964546024799,-0.01723514311015606,0.9979706406593323,-0.014858064241707325,0.01891377381980419,-0.05895928293466568
531.0,0.0,0.0,0.0,0.0,0.0,0.0,-0.0015764017589390278,-0.00013199727982282639,-0.0073862033896148205,0.9981651902198792,-0.013963134028017521,0.019560467451810837,-0.0555739626288414
532.0,0.0,0.0,0.0,0.0,0.0,0.0,0.006804171483963728,0.010002286173403263,0.01385512389242649,0.9982894659042358,-0.01284274272620678,0.020413842052221298,-0.05326022952795029
533.0,0.0,0.0,0.0,0.0,0.0,0.0,-0.010294967330992222,-0.02790249139070511,0.027957631275057793,0.9983766078948975,-0.011983499862253666,0.02174191176891327,-0.05125981196761131
534.0,0.0,0.0,0.0,0.0,0.0,0.0,0.013992452062666416,-0.023652618750929832,-0.022111238911747932,0.9984713792800903,-0.010309135541319847,0.02183222956955433,-0.04972080886363983
535.0,0.0,0.0,0.0,0.0,0.0,0.0,-0.023495202884078026,0.026188157498836517,0.022615157067775726,0.9985530972480774,-0.008348606526851654,0.02197231538593769,-0.04836723953485489
536.0,0.0,0.0,0.0,0.0,0.0,0.0,0.007067599333822727,-0.007301167584955692,-0.0041726622730493546,0.9986236691474915,-0.006240858230739832,0.022593511268496513,-0.04691983014345169
537.0,0.0,0.0,0.0,0.0,0.0,0.0,0.04689870402216911,-0.06929653137922287,-0.0714021772146225,0.9986920952796936,-0.00543907331302762,0.022321561351418495,-0.045678917318582535
538.0,0.0,0.0,0.0,0.0,0.0,0.0,0.028212765231728554,-0.030879711732268333,-0.01918109506368637,0.9988003969192505,-0.005447482690215111,0.022277161478996277,-0.04326152801513672
539.0,0.0,0.0,0.0,0.0,0.0,0.0,0.08522606641054153,-0.06360233575105667,-0.07762720435857773,0.9989005327224731,-0.0063656531274318695,0.020485464483499527,-0.04168415442109108
540.0,0.0,0.0,0.0,0.0,0.0,0.0,0.12120472639799118,-0.12716689705848694,-0.12332993000745773,0.9989289045333862,-0.009235717356204987,0.016044575721025467,-0.04241152107715607
541.0,0.0,0.0,0.0,0.0,0.0,0.0,0.04302382096648216,-0.09553102403879166,-0.026789240539073944,0.9987686276435852,-0.013001594692468643,0.011575170792639256,-0.0464557446539402
542.0,0.0,0.0,0.0,0.0,0.0,0.0,-0.06532289832830429,0.0821797102689743,0.0009562256163917482,0.9984668493270874,-0.017809737473726273,0.00866277702152729,-0.05169101804494858
543.0,0.0,0.0,0.0,0.0,0.0,0.0,-0.11168694496154785,0.2617008686065674,0.0659041553735733,0.998316764831543,-0.018778309226036072,0.006570011842995882,-0.05447898432612419
544.0,0.0,0.0,0.0,0.0,0.0,0.0,-0.11720474064350128,0.10941962152719498,0.017255591228604317,0.998237669467926,-0.018661994487047195,0.0055252425372600555,-0.05606168136000633
545.0,0.0,0.0,0.0,0.0,0.0,0.0,-0.09059350192546844,0.08142105489969254,0.025163745507597923,0.9982327222824097,-0.01865040510892868,0.006332023534923792,-0.05606834590435028
546.0,0.0,0.0,0.0,0.0,0.0,0.0,-0.00614984380081296,0.053021542727947235,0.008450731635093689,0.9982395172119141,-0.016772927716374397,0.005329722538590431,-0.05664101988077164
547.0,0.0,0.0,0.0,0.0,0.0,0.0,-0.013711104169487953,0.01724049635231495,0.0638723373413086,0.998183012008667,-0.01509507093578577,0.004519729875028133,-0.0581599697470665
548.0,0.0,0.0,0.0,0.0,0.0,0.0,0.0017360737547278404,0.036899030208587646,0.06231386587023735,0.998143196105957,-0.013388779014348984,0.0045254467986524105,-0.05924977362155914
549.0,0.0,0.0,0.0,0.0,0.0,0.0,0.030360819771885872,-0.0041987039148807526,0.03871924802660942,0.9982209205627441,-0.00986449234187603,0.004228327888995409,-0.058648984879255295
550.0,0.0,0.0,0.0,0.0,0.0,0.0,0.058063723146915436,-0.027281949296593666,0.006750676315277815,0.9982680678367615,-0.007781967055052519,0.004174350295215845,-0.058165255934000015
551.0,0.0,0.0,0.0,0.0,0.0,0.0,0.0018828820902854204,0.02941116876900196,0.043716322630643845,0.998343825340271,-0.007291041314601898,0.004875566344708204,-0.0568561851978302
552.0,0.0,0.0,0.0,0.0,0.0,0.0,-0.014372345060110092,0.05876760929822922,0.05806298553943634,0.9984363913536072,-0.006642479449510574,0.006083877291530371,-0.05517125502228737
553.0,0.0,0.0,0.0,0.0,0.0,0.0,-0.004235823173075914,0.0815822184085846,0.08755665272474289,0.9985767006874084,-0.005618756636977196,0.00870413240045309,-0.05232224613428116
554.0,0.0,0.0,0.0,0.0,0.0,0.0,0.016172047704458237,0.014787460677325726,0.023617101833224297,0.9987135529518127,-0.0042440034449100494,0.010800806805491447,-0.04936042055487633
555.0,0.0,0.0,0.0,0.0,0.0,0.0,-0.03324810788035393,0.028192458674311638,-0.011842123232781887,0.9987577795982361,-0.003520638681948185,0.012934226542711258,-0.04799225553870201
556.0,0.0,0.0,0.0,0.0,0.0,0.0,0.019137762486934662,-0.02675231732428074,-0.06991466134786606,0.998812735080719,-0.0026978624518960714,0.014106900431215763,-0.04655149579048157
557.0,0.0,0.0,0.0,0.0,0.0,0.0,0.03438081964850426,-0.004855807404965162,-0.05997495353221893,0.9988833069801331,-0.0021166070364415646,0.014857497997581959,-0.044801101088523865
558.0,0.0,0.0,0.0,0.0,0.0,0.0,0.03339305892586708,0.002206441480666399,-0.022558383643627167,0.998988687992096,-0.001130881835706532,0.015473884530365467,-0.04220383241772652
559.0,0.0,0.0,0.0,0.0,0.0,0.0,0.09916022419929504,-0.09549874067306519,-0.038979966193437576,0.9990888833999634,-0.0012078500585630536,0.01524773333221674,-0.039841800928115845
560.0,0.0,0.0,0.0,0.0,0.0,0.0,0.05681273341178894,-0.062281835824251175,-0.08814927190542221,0.9991166591644287,-0.004458419047296047,0.013992764055728912,-0.03937414288520813
561.0,0.0,0.0,0.0,0.0,0.0,0.0,0.07658398896455765,-0.03716116398572922,-0.10178548842668533,0.9991274476051331,-0.007541927974671125,0.011812793090939522,-0.03934648633003235
562.0,0.0,0.0,0.0,0.0,0.0,0.0,0.19608698785305023,-0.17747022211551666,-0.17338444292545319,0.9990968704223633,-0.011495571583509445,0.0052745044231414795,-0.04056953638792038
563.0,0.0,0.0,0.0,0.0,0.0,0.0,0.19712886214256287,-0.19171538949012756,-0.14739206433296204,0.9987338781356812,-0.017787814140319824,-0.0027232160791754723,-0.046979233622550964
564.0,0.0,0.0,0.0,0.0,0.0,0.0,-0.12628211081027985,0.1887708455324173,0.1588572859764099,0.9981584548950195,-0.024999424815177917,-0.006734372116625309,-0.05486162006855011
565.0,0.0,0.0,0.0,0.0,0.0,0.0,-0.23081332445144653,0.2780768871307373,0.2438085675239563,0.9979316592216492,-0.027139542624354362,-0.006273416802287102,-0.05793411657214165
566.0,0.0,0.0,0.0,0.0,0.0,0.0,-0.03436177596449852,0.044677942991256714,0.04821277782320976,0.9979715347290039,-0.027070187032222748,-0.004465926438570023,-0.05745416879653931
567.0,0.0,0.0,0.0,0.0,0.0,0.0,-0.03851575776934624,0.044959597289562225,0.06396898627281189,0.9981118440628052,-0.026394223794341087,-0.0030079230200499296,-0.05538179352879524
568.0,0.0,0.0,0.0,0.0,0.0,0.0,-0.053396813571453094,0.015949595719575882,0.0549350269138813,0.9983009696006775,-0.024335741996765137,-0.00029859860660508275,-0.052948735654354095
569.0,0.0,0.0,0.0,0.0,0.0,0.0,-0.05958002060651779,0.09460443258285522,0.07637836784124374,0.9985808730125427,-0.02017069421708584,0.001740609179250896,-0.04925737902522087
570.0,0.0,0.0,0.0,0.0,0.0,0.0,0.01377797033637762,0.042155370116233826,0.04305611550807953,0.9988837242126465,-0.01366492174565792,0.002315851394087076,-0.04515555873513222
571.0,0.0,0.0,0.0,0.0,0.0,0.0,0.01775924675166607,-0.01121314987540245,0.0448063425719738,0.9991376399993896,-0.006123548373579979,0.0032207262702286243,-0.04094146564602852
572.0,0.0,0.0,0.0,0.0,0.0,0.0,0.08507858961820602,-0.15289698541164398,-0.1273861527442932,0.999295711517334,0.002285868162289262,0.0022786413319408894,-0.037391386926174164
573.0,0.0,0.0,0.0,0.0,0.0,0.0,0.04087228327989578,-0.1415507197380066,-0.1103208139538765,0.9991963505744934,0.008079039864242077,0.0033201859332621098,-0.03911915421485901
574.0,0.0,0.0,0.0,0.0,0.0,0.0,-0.03323474898934364,-0.0716639831662178,-0.08725518733263016,0.9990895986557007,0.012229169718921185,0.004260329995304346,-0.04065018519759178
575.0,0.0,0.0,0.0,0.0,0.0,0.0,-0.10164289176464081,0.012392847798764706,0.03709346428513527,0.9989563822746277,0.016146501526236534,0.006128586828708649,-0.042284250259399414
576.0,0.0,0.0,0.0,0.0,0.0,0.0,-0.05047350749373436,-0.00485291238874197,-0.018108710646629333,0.9987292885780334,0.02008974365890026,0.007171102333813906,-0.04565739259123802
577.0,0.0,0.0,0.0,0.0,0.0,0.0,-0.0179241131991148,0.021081160753965378,-0.05674496665596962,0.9984760880470276,0.02141961269080639,0.005827863235026598,-0.050526659935712814
578.0,0.0,0.0,0.0,0.0,0.0,0.0,-0.06692273914813995,0.08155155926942825,0.009850753471255302,0.998164713382721,0.02121395617723465,0.004114080686122179,-0.05657194182276726
579.0,0.0,0.0,0.0,0.0,0.0,0.0,-0.14922259747982025,0.1383887529373169,0.06523007154464722,0.9978784322738647,0.020611539483070374,0.004523095674812794,-0.06158997491002083
580.0,0.0,0.0,0.0,0.0,0.0,0.0,-0.09461148083209991,0.08477366715669632,0.00944056361913681,0.9977279901504517,0.020053744316101074,0.0058088479563593864,-0.06405120342969894
581.0,0.0,0.0,0.0,0.0,0.0,0.0,-0.03734140843153,0.00799304898828268,-0.0703793466091156,0.997622549533844,0.01865656115114689,0.0063221449963748455,-0.0660380944609642
582.0,0.0,0.0,0.0,0.0,0.0,0.0,-0.042928196489810944,-0.024031605571508408,-0.08088305592536926,0.9974515438079834,0.015410683117806911,0.006483697798103094,-0.06936077773571014
583.0,0.0,0.0,0.0,0.0,0.0,0.0,-0.047237079590559006,-0.05263363942503929,-0.04955633729696274,0.9972891211509705,0.010625055991113186,0.007123159244656563,-0.07246860861778259
584.0,0.0,0.0,0.0,0.0,0.0,0.0,0.03538122773170471,-0.08651824295520782,-0.09641486406326294,0.9970874786376953,0.00675140181556344,0.0053766947239637375,-0.07577518373727798
585.0,0.0,0.0,0.0,0.0,0.0,0.0,0.015788601711392403,-0.0798824280500412,-0.06629286706447601,0.9967963695526123,0.0007026164676062763,0.003228850197046995,-0.07991380989551544
586.0,0.0,0.0,0.0,0.0,0.0,0.0,-0.008708999492228031,0.01701435260474682,-0.006433596834540367,0.9964642524719238,-0.007528917398303747,0.0010609471937641501,-0.08367765694856644
587.0,0.0,0.0,0.0,0.0,0.0,0.0,-0.010328925214707851,0.07169736176729202,0.015932265669107437,0.9960125684738159,-0.01551629975438118,-0.001088117714971304,-0.08784604072570801
588.0,0.0,0.0,0.0,0.0,0.0,0.0,-0.03794044256210327,0.1364130824804306,0.08046013116836548,0.9954327940940857,-0.023048967123031616,-0.002110120840370655,-0.09261263906955719
589.0,0.0,0.0,0.0,0.0,0.0,0.0,-0.0713794156908989,0.1490556299686432,0.09853295981884003,0.9950937032699585,-0.02559662237763405,-0.00124129478354007,-0.09556637704372406
590.0,0.0,0.0,0.0,0.0,0.0,0.0,-0.07754713296890259,0.11397232860326767,0.10151990503072739,0.9948904514312744,-0.02523736283183098,0.0008305709925480187,-0.09775512665510178
591.0,0.0,0.0,0.0,0.0,0.0,0.0,-0.05641527473926544,0.06720633059740067,0.053444888442754745,0.9947792291641235,-0.021869676187634468,0.0035780181642621756,-0.09961475431919098
592.0,0.0,0.0,0.0,0.0,0.0,0.0,-0.0030472250655293465,0.006335612386465073,-0.02090158313512802,0.9947413802146912,-0.01723814196884632,0.00476981932297349,-0.10084424167871475
593.0,0.0,0.0,0.0,0.0,0.0,0.0,0.015092224813997746,-0.06965231150388718,-0.017098208889365196,0.9945691227912903,-0.011198915541172028,0.00587836466729641,-0.10330760478973389
594.0,0.0,0.0,0.0,0.0,0.0,0.0,0.04377167299389839,-0.02688194066286087,0.052993293851614,0.9944086074829102,-0.004723565187305212,0.004429584834724665,-0.10539939254522324
595.0,0.0,0.0,0.0,0.0,0.0,0.0,-0.000646009633783251,0.02101108804345131,0.057059936225414276,0.9940898418426514,0.0034182800445705652,0.002912800293415785,-0.10846909135580063
596.0,0.0,0.0,0.0,0.0,0.0,0.0,-0.013020146638154984,-0.006245708093047142,0.04414725303649902,0.9936527609825134,0.011019788682460785,0.0027207238599658012,-0.11191616207361221
597.0,0.0,0.0,0.0,0.0,0.0,0.0,-0.03502075746655464,0.01680263876914978,0.05277276784181595,0.9933133721351624,0.018000634387135506,0.003114685881882906,-0.11399559676647186
598.0,0.0,0.0,0.0,0.0,0.0,0.0,-0.02443922683596611,0.009337393566966057,0.0017500465037301183,0.9931352734565735,0.021533086895942688,0.003561195218935609,-0.11491888761520386
599.0,0.0,0.0,0.0,0.0,0.0,0.0,-0.01959853433072567,0.026396118104457855,-0.017545366659760475,0.9928352236747742,0.023445865139365196,0.0037919264286756516,-0.11710746586322784
600.0,0.0,0.0,0.0,0.0,0.0,0.0,-0.0012921595480293036,-0.008985857479274273,-0.03647324815392494,0.9925199151039124,0.0247159656137228,0.003340083872899413,-0.11950796842575073
601.0,0.0,0.0,0.0,0.0,0.0,0.0,0.019229544326663017,-0.05495120584964752,-0.06349806487560272,0.9920786023139954,0.026936324313282967,0.00356493704020977,-0.12264417856931686
602.0,0.0,0.0,0.0,0.0,0.0,0.0,0.029483651742339134,-0.09004240483045578,-0.05631810054183006,0.991292417049408,0.031435418874025345,0.005372235551476479,-0.12775950133800507
603.0,0.0,0.0,0.0,0.0,0.0,0.0,-0.07953161746263504,-0.07258643954992294,-0.004479164257645607,0.9899970293045044,0.038400329649448395,0.010742846876382828,-0.13533630967140198
604.0,0.0,0.0,0.0,0.0,0.0,0.0,-0.250703901052475,0.015714479610323906,0.06441260129213333,0.9895668029785156,0.037465956062078476,0.016884496435523033,-0.13809247314929962
605.0,0.0,0.0,0.0,0.0,0.0,0.0,-0.2023889571428299,0.10740604251623154,0.06026853993535042,0.9904739856719971,0.02574644610285759,0.02091362699866295,-0.1336475908756256
606.0,0.0,0.0,0.0,0.0,0.0,0.0,-0.08262824267148972,0.18420973420143127,0.13804741203784943,0.9915428161621094,0.014337083324790001,0.021548347547650337,-0.12717311084270477
607.0,0.0,0.0,0.0,0.0,0.0,0.0,0.006280621513724327,0.15229931473731995,0.0857362225651741,0.9928881525993347,0.010657637380063534,0.02142036147415638,-0.11662456393241882
608.0,0.0,0.0,0.0,0.0,0.0,0.0,0.10124249011278152,0.06433409452438354,-0.03183687478303909,0.9940930604934692,0.012873897328972816,0.019220104441046715,-0.10603702813386917
609.0,0.0,0.0,0.0,0.0,0.0,0.0,0.14986269176006317,-0.05495351552963257,-0.07168643176555634,0.9947267174720764,0.01603003591299057,0.016748448833823204,-0.0999072790145874
610.0,0.0,0.0,0.0,0.0,0.0,0.0,0.10143107175827026,-0.12457431107759476,-0.04065556824207306,0.995097279548645,0.018277302384376526,0.014165833592414856,-0.09616058319807053
611.0,0.0,0.0,0.0,0.0,0.0,0.0,0.030351584777235985,-0.058525603264570236,-0.06775990128517151,0.9954968094825745,0.018315842375159264,0.011389065533876419,-0.0923084020614624
612.0,0.0,0.0,0.0,0.0,0.0,0.0,0.02159823477268219,0.014651074074208736,-0.028886908665299416,0.9958904385566711,0.019844990223646164,0.008908446878194809,-0.08791613578796387
613.0,0.0,0.0,0.0,0.0,0.0,0.0,0.056806184351444244,-0.035340551286935806,-0.11840073764324188,0.9962623119354248,0.020113088190555573,0.0064604016952216625,-0.08375567942857742
614.0,0.0,0.0,0.0,0.0,0.0,0.0,0.06702195107936859,-0.038442838937044144,-0.11399151384830475,0.9964635372161865,0.016439445316791534,0.0029312793631106615,-0.08235131204128265
615.0,0.0,0.0,0.0,0.0,0.0,0.0,-0.07841343432664871,0.08355282247066498,0.06419941782951355,0.9965529441833496,0.013097694143652916,0.000500675814691931,-0.08192066848278046
616.0,0.0,0.0,0.0,0.0,0.0,0.0,-0.15521226823329926,0.13891281187534332,0.046862490475177765,0.9965455532073975,0.014547247439622879,-0.0007690538768656552,-0.08176109939813614
617.0,0.0,0.0,0.0,0.0,0.0,0.0,-0.08035653829574585,0.11142703145742416,0.044189538806676865,0.9965834021568298,0.018094271421432495,-0.0017389333806931973,-0.08056862652301788
618.0,0.0,0.0,0.0,0.0,0.0,0.0,-0.06385129690170288,0.06238918378949165,-0.003485333640128374,0.9965329766273499,0.0206778384745121,-0.0024165729992091656,-0.08055300265550613
619.0,0.0,0.0,0.0,0.0,0.0,0.0,-0.061290111392736435,0.06352952122688293,-0.009682667441666126,0.9965177774429321,0.022338885813951492,-0.0021638863254338503,-0.08030439168214798
620.0,0.0,0.0,0.0,0.0,0.0,0.0,-0.04963209852576256,0.046927861869335175,0.0319012776017189,0.9966155290603638,0.0260907132178545,-0.0008265579817816615,-0.07795058935880661
621.0,0.0,0.0,0.0,0.0,0.0,0.0,-0.033681053668260574,0.03186560422182083,0.03811916336417198,0.9967573285102844,0.028988080099225044,0.0018297642236575484,-0.07503993064165115
622.0,0.0,0.0,0.0,0.0,0.0,0.0,-0.051087886095047,0.14157603681087494,0.1888834834098816,0.9976602792739868,0.027719201520085335,0.0007624399149790406,-0.06249033287167549
623.0,0.0,0.0,0.0,0.0,0.0,0.0,-0.0971391499042511,0.17512883245944977,0.2905818521976471,0.9987797737121582,0.027478424832224846,0.0009627038380131125,-0.04102247953414917
624.0,0.0,0.0,0.0,0.0,0.0,0.0,0.0031512328423559666,0.04071161895990372,0.05177163705229759,0.9994770288467407,0.027384376153349876,0.0030910323839634657,-0.016915570944547653
625.0,0.0,0.0,0.0,0.0,0.0,0.0,0.11201342940330505,-0.13695447146892548,-0.31624144315719604,0.9998672604560852,0.0160622987896204,-0.002634204924106598,0.000731710169930011
626.0,0.0,0.0,0.0,0.0,0.0,0.0,0.1950770914554596,-0.176796093583107,-0.39032334089279175,0.9998190402984619,0.0003216553304810077,-0.01461627334356308,0.012181076221168041
627.0,0.0,0.0,0.0,0.0,0.0,0.0,0.12420397996902466,-0.16418375074863434,-0.3131939768791199,0.9995657205581665,-0.011808902025222778,-0.0213457178324461,0.016529444605112076
628.0,0.0,0.0,0.0,0.0,0.0,0.0,0.11251372843980789,-0.14413128793239594,-0.3304639458656311,0.999301552772522,-0.019853780046105385,-0.026328401640057564,0.017576172947883606
629.0,0.0,0.0,0.0,0.0,0.0,0.0,0.15569473803043365,-0.21294182538986206,-0.36278486251831055,0.9991059303283691,-0.025902237743139267,-0.030712299048900604,0.013159400783479214
630.0,0.0,0.0,0.0,0.0,0.0,0.0,0.13072414696216583,-0.16959114372730255,-0.16032728552818298,0.9990586638450623,-0.0295802503824234,-0.03161466494202614,0.0026791482232511044
631.0,0.0,0.0,0.0,0.0,0.0,0.0,-0.04549651965498924,0.0038078282959759235,0.030455874279141426,0.9991206526756287,-0.02844865433871746,-0.028105992823839188,-0.012598500587046146
632.0,0.0,0.0,0.0,0.0,0.0,0.0,-0.18391934037208557,0.11675573885440826,0.18569865822792053,0.9987474083900452,-0.030099542811512947,-0.024209685623645782,-0.03180523216724396
633.0,0.0,0.0,0.0,0.0,0.0,0.0,-0.29752665758132935,0.25749269127845764,0.38831400871276855,0.9980871081352234,-0.03264110907912254,-0.023134049028158188,-0.04713306948542595
634.0,0.0,0.0,0.0,0.0,0.0,0.0,-0.2709585130214691,0.31292784214019775,0.38665971159935,0.9976676106452942,-0.03146859258413315,-0.020377591252326965,-0.05704336240887642
635.0,0.0,0.0,0.0,0.0,0.0,0.0,-0.29055991768836975,0.2739637792110443,0.4360184073448181,0.9976843595504761,-0.02719101868569851,-0.015273195691406727,-0.06044333428144455
636.0,0.0,0.0,0.0,0.0,0.0,0.0,-0.14364027976989746,0.03970096632838249,0.25064846873283386,0.9980571269989014,-0.019086476415395737,-0.00870957039296627,-0.058667153120040894
637.0,0.0,0.0,0.0,0.0,0.0,0.0,-0.012675028294324875,-0.06209375709295273,0.17240262031555176,0.9983646869659424,-0.009740716777741909,-0.0029878553468734026,-0.05625104159116745
638.0,0.0,0.0,0.0,0.0,0.0,0.0,0.011899488978087902,0.1301901489496231,0.16980938613414764,0.9986895322799683,0.0035379724577069283,0.0016438823658972979,-0.05103094503283501
639.0,0.0,0.0,0.0,0.0,0.0,0.0,0.03677233308553696,0.06888090074062347,-0.05332493782043457,0.9988260865211487,0.020501986145973206,0.004218188114464283,-0.043685320764780045
640.0,0.0,0.0,0.0,0.0,0.0,0.0,0.01816769875586033,0.029831891879439354,-0.21354557573795319,0.9986159801483154,0.03646067902445793,0.006202910095453262,-0.03739016875624657
641.0,0.0,0.0,0.0,0.0,0.0,0.0,0.015170610509812832,-0.08334844559431076,-0.23784655332565308,0.9981784224510193,0.05021938309073448,0.008072221651673317,-0.03244379907846451
642.0,0.0,0.0,0.0,0.0,0.0,0.0,0.012514087371528149,-0.21163354814052582,-0.14486737549304962,0.9976100325584412,0.0604705847799778,0.008951643481850624,-0.032214533537626266
643.0,0.0,0.0,0.0,0.0,0.0,0.0,-0.04186464101076126,-0.21700654923915863,-0.13450835645198822,0.9969378709793091,0.067348912358284,0.009346664883196354,-0.0386238768696785
644.0,0.0,0.0,0.0,0.0,0.0,0.0,-0.03265656158328056,-0.12288789451122284,-0.0402541346848011,0.9963509440422058,0.07229546457529068,0.008552591316401958,-0.044552117586135864
645.0,0.0,0.0,0.0,0.0,0.0,0.0,0.00635516457259655,-0.20081764459609985,-0.12266048043966293,0.9959433674812317,0.0748467668890953,0.007999038323760033,-0.04930681362748146
646.0,0.0,0.0,0.0,0.0,0.0,0.0,-0.055922847241163254,-0.019747357815504074,-0.019756952300667763,0.9957028031349182,0.07460713386535645,0.009740058332681656,-0.053984008729457855
647.0,0.0,0.0,0.0,0.0,0.0,0.0,-0.04526575282216072,-0.01589779555797577,0.034541111439466476,0.9956026077270508,0.07424305379390717,0.010906820185482502,-0.05607788264751434
648.0,0.0,0.0,0.0,0.0,0.0,0.0,-0.03838836029171944,-0.13996942341327667,-0.03660058230161667,0.9956216216087341,0.07146834582090378,0.012825312092900276,-0.05887070298194885
649.0,0.0,0.0,0.0,0.0,0.0,0.0,-0.032783277332782745,-0.07828891277313232,-0.005636110436171293,0.9954941272735596,0.07064253836870193,0.013726002536714077,-0.06175675988197327
650.0,0.0,0.0,0.0,0.0,0.0,0.0,-0.10864823311567307,0.004497697576880455,0.05341570824384689,0.9952011704444885,0.07221593707799911,0.015111765824258327,-0.06426841765642166
651.0,0.0,0.0,0.0,0.0,0.0,0.0,-0.06505634635686874,-0.023534638807177544,-0.01648208685219288,0.994987964630127,0.07305333763360977,0.016804726794362068,-0.06618493050336838
652.0,0.0,0.0,0.0,0.0,0.0,0.0,-0.0225827656686306,-0.031733084470033646,-0.01310840342193842,0.9948291182518005,0.0738174095749855,0.01779945194721222,-0.06745226681232452
653.0,0.0,0.0,0.0,0.0,0.0,0.0,-0.038548793643713,-0.032467328011989594,-0.010847683995962143,0.994682788848877,0.07345588505268097,0.022041380405426025,-0.06873663514852524
654.0,0.0,0.0,0.0,0.0,0.0,0.0,-0.03354543820023537,-0.010373871773481369,-0.006017075851559639,0.9946005344390869,0.07330325245857239,0.023980828002095222,-0.06943564862012863
655.0,0.0,0.0,0.0,0.0,0.0,0.0,-0.047698479145765305,0.015261059626936913,0.022265538573265076,0.9944594502449036,0.0736817941069603,0.025741316378116608,-0.0704212635755539
656.0,0.0,0.0,0.0,0.0,0.0,0.0,-0.04884031042456627,0.03189995884895325,0.03150596842169762,0.9942135214805603,0.07523852586746216,0.02724025957286358,-0.07166583091020584
657.0,0.0,0.0,0.0,0.0,0.0,0.0,-0.0601465217769146,0.003348482074216008,0.04200651869177818,0.9939302206039429,0.07717357575893402,0.028785841539502144,-0.07291994988918304
658.0,0.0,0.0,0.0,0.0,0.0,0.0,-0.03221458941698074,-0.03143830969929695,0.011542915366590023,0.9935958385467529,0.07969780266284943,0.02970576286315918,-0.07438641786575317
659.0,0.0,0.0,0.0,0.0,0.0,0.0,-0.006204727105796337,-0.06598493456840515,-0.047886934131383896,0.9932998418807983,0.08089139312505722,0.029980840161442757,-0.07689961045980453
660.0,0.0,0.0,0.0,0.0,0.0,0.0,-0.017923060804605484,-0.09006410092115402,-0.05621746927499771,0.9929725527763367,0.07954642921686172,0.029703060165047646,-0.08243580162525177
661.0,0.0,0.0,0.0,0.0,0.0,0.0,-0.015048759989440441,-0.03672502562403679,-0.014363288879394531,0.9923672676086426,0.07887951284646988,0.029541753232479095,-0.0900701954960823
662.0,0.0,0.0,0.0,0.0,0.0,0.0,-0.03457178175449371,-0.02115749567747116,0.02598954550921917,0.9914887547492981,0.07992777973413467,0.030480649322271347,-0.09814821928739548
663.0,0.0,0.0,0.0,0.0,0.0,0.0,-0.05787355825304985,-0.04325525462627411,0.05264491215348244,0.9906092286109924,0.0807846412062645,0.03190431371331215,-0.10559505969285965
664.0,0.0,0.0,0.0,0.0,0.0,0.0,-0.047578468918800354,-0.042816162109375,0.027522146701812744,0.9898969531059265,0.08143573999404907,0.03326541557908058,-0.11120065301656723
665.0,0.0,0.0,0.0,0.0,0.0,0.0,-0.030641937628388405,-0.023646686226129532,0.04039638862013817,0.9894574880599976,0.08167874068021774,0.033690035343170166,-0.11475599557161331
666.0,0.0,0.0,0.0,0.0,0.0,0.0,-0.0120233790948987,-0.037047259509563446,0.042689044028520584,0.9890098571777344,0.08246498554944992,0.03458717092871666,-0.1177336722612381
667.0,0.0,0.0,0.0,0.0,0.0,0.0,0.002951200120151043,-0.027355613186955452,0.030630573630332947,0.9886517524719238,0.0842677429318428,0.03630381077528,-0.11895141005516052
668.0,0.0,0.0,0.0,0.0,0.0,0.0,0.022729603573679924,-0.06908083707094193,-0.014561990275979042,0.9884241223335266,0.08351695537567139,0.03751806914806366,-0.1209840327501297
669.0,0.0,0.0,0.0,0.0,0.0,0.0,-0.015184236690402031,-0.030294688418507576,0.0521269217133522,0.9883525371551514,0.08083882927894592,0.03929366543889046,-0.1228005513548851
670.0,0.0,0.0,0.0,0.0,0.0,0.0,-0.012200234457850456,0.0014575764071196318,0.04375172406435013,0.9883618354797363,0.07869961112737656,0.04201585426926613,-0.1232159361243248
671.0,0.0,0.0,0.0,0.0,0.0,0.0,-0.004997012205421925,0.030075768008828163,0.01878955215215683,0.98831707239151,0.07784441858530045,0.04595579952001572,-0.12271309643983841
672.0,0.0,0.0,0.0,0.0,0.0,0.0,-0.02011120691895485,-0.011908442713320255,-0.026949567720294,0.9886479377746582,0.07428119331598282,0.0512990802526474,-0.1201130673289299
673.0,0.0,0.0,0.0,0.0,0.0,0.0,-0.02896217443048954,-0.027484100311994553,-0.04553192853927612,0.9897060990333557,0.06475699692964554,0.05723683908581734,-0.11406836658716202
674.0,0.0,0.0,0.0,0.0,0.0,0.0,-0.032656412571668625,-0.0022652079351246357,-0.007560298778116703,0.991162121295929,0.04998379945755005,0.062066107988357544,-0.10605817288160324
675.0,0.0,0.0,0.0,0.0,0.0,0.0,-0.03835732117295265,0.10144398361444473,0.12544481456279755,0.9932440519332886,0.025921974331140518,0.06158830597996712,-0.09487241506576538
676.0,0.0,0.0,0.0,0.0,0.0,0.0,-0.021072624251246452,0.20341114699840546,0.22872275114059448,0.9954134225845337,-0.004953581839799881,0.05433247610926628,-0.07858258485794067
677.0,0.0,0.0,0.0,0.0,0.0,0.0,0.11319678276777267,0.15076054632663727,0.09102596342563629,0.9969350695610046,-0.02984083630144596,0.04395062476396561,-0.057433996349573135
678.0,0.0,0.0,0.0,0.0,0.0,0.0,0.08375667780637741,0.17570491135120392,0.06321243941783905,0.9973568320274353,-0.05479296296834946,0.03229012340307236,-0.0351429358124733
679.0,0.0,0.0,0.0,0.0,0.0,0.0,0.20584946870803833,0.09532713145017624,-0.0580202117562294,0.9968574643135071,-0.07458079606294632,0.020304076373577118,-0.01735730841755867
680.0,0.0,0.0,0.0,0.0,0.0,0.0,0.20073771476745605,0.0847420021891594,-0.16964219510555267,0.9963910579681396,-0.08373402804136276,0.011799298226833344,-0.007309095002710819
681.0,0.0,0.0,0.0,0.0,0.0,0.0,0.14519916474819183,0.053076956421136856,-0.2388804405927658,0.9956902861595154,-0.09257999807596207,0.004158629570156336,-0.003599019255489111
682.0,0.0,0.0,0.0,0.0,0.0,0.0,0.17042459547519684,0.02095969393849373,-0.16062836349010468,0.995011568069458,-0.09968452900648117,-0.003367643803358078,-0.00211798632517457
683.0,0.0,0.0,0.0,0.0,0.0,0.0,0.160768061876297,-0.02377619966864586,-0.1771891862154007,0.9947310090065002,-0.10213499516248703,-0.008588283322751522,-0.00192610127851367
684.0,0.0,0.0,0.0,0.0,0.0,0.0,0.21324563026428223,-0.11684288084506989,-0.22310510277748108,0.9950388073921204,-0.09843744337558746,-0.013946686871349812,-0.003487384645268321
685.0,0.0,0.0,0.0,0.0,0.0,0.0,0.21088355779647827,-0.15569457411766052,-0.15016816556453705,0.9961175322532654,-0.08627402037382126,-0.013998991809785366,-0.010446940548717976
686.0,0.0,0.0,0.0,0.0,0.0,0.0,0.11510030925273895,-0.08004286885261536,-0.0821819081902504,0.9973732233047485,-0.06768051534891129,-0.008477669209241867,-0.024364104494452477
687.0,0.0,0.0,0.0,0.0,0.0,0.0,-0.12657934427261353,0.13640199601650238,0.1311727613210678,0.9976892471313477,-0.053869929164648056,-0.0019386931089684367,-0.04135965183377266
688.0,0.0,0.0,0.0,0.0,0.0,0.0,-0.3034481108188629,0.34905609488487244,0.3410699963569641,0.9973260164260864,-0.04942759498953819,-0.0012033729581162333,-0.053823329508304596
689.0,0.0,0.0,0.0,0.0,0.0,0.0,-0.2273763120174408,0.31594350934028625,0.26492807269096375,0.996881365776062,-0.04788542911410332,0.0006030277581885457,-0.06271924823522568
690.0,0.0,0.0,0.0,0.0,0.0,0.0,-0.07670514285564423,0.20273582637310028,0.12774427235126495,0.9967474937438965,-0.04528699442744255,0.004024428315460682,-0.06654191762208939
691.0,0.0,0.0,0.0,0.0,0.0,0.0,-0.06512714177370071,0.15507346391677856,0.12567028403282166,0.9970507621765137,-0.04147457703948021,0.0056469556875526905,-0.06432552635669708
692.0,0.0,0.0,0.0,0.0,0.0,0.0,-0.05914635956287384,0.14833946526050568,0.10600399225950241,0.9975264668464661,-0.03711874783039093,0.0066528054885566235,-0.05932248383760452
693.0,0.0,0.0,0.0,0.0,0.0,0.0,0.017219239845871925,0.06420035660266876,0.039961088448762894,0.9979814291000366,-0.03181187063455582,0.007567672524601221,-0.0544423907995224
694.0,0.0,0.0,0.0,0.0,0.0,0.0,0.02698080986738205,-0.0001722373126540333,-0.015300517901778221,0.9984734058380127,-0.02608020417392254,0.008511138148605824,-0.047938354313373566
695.0,0.0,0.0,0.0,0.0,0.0,0.0,0.0856679230928421,-0.06074352562427521,-0.1173957884311676,0.9990052580833435,-0.01929185539484024,0.0061710793524980545,-0.039729565382003784
696.0,0.0,0.0,0.0,0.0,0.0,0.0,-0.008928624913096428,-0.02002744935452938,0.03210271894931793,0.9993131756782532,-0.014762443490326405,0.006009868811815977,-0.033455461263656616
697.0,0.0,0.0,0.0,0.0,0.0,0.0,0.05130252242088318,-0.159830242395401,-0.07985322177410126,0.999488353729248,-0.012229615822434425,0.007545080967247486,-0.028571881353855133
698.0,0.0,0.0,0.0,0.0,0.0,0.0,0.10082242637872696,-0.1476466804742813,-0.10358558595180511,0.9996524453163147,-0.010352608747780323,0.0064185201190412045,-0.02338333986699581
699.0,0.0,0.0,0.0,0.0,0.0,0.0,0.04249553754925728,-0.07110193371772766,-0.0410722978413105,0.9997268319129944,-0.010177422314882278,0.005591421388089657,-0.020282505080103874
700.0,0.0,0.0,0.0,0.0,0.0,0.0,0.002514677820727229,-0.05657046288251877,-0.02760428562760353,0.999712347984314,-0.011864228174090385,0.006314342375844717,-0.019864125177264214
701.0,0.0,0.0,0.0,0.0,0.0,0.0,-0.004380559083074331,0.05033128708600998,0.015145211480557919,0.9997438192367554,-0.012573572807013988,0.00702227046713233,-0.017459791153669357
702.0,0.0,0.0,0.0,0.0,0.0,0.0,0.08282213658094406,0.0434931218624115,-0.08974122256040573,0.9998109340667725,-0.011745383031666279,0.006310917437076569,-0.014153897762298584
703.0,0.0,0.0,0.0,0.0,0.0,0.0,-0.05613943189382553,-0.008929343894124031,-0.0407535694539547,0.9997991919517517,-0.012707477435469627,0.006313823163509369,-0.014152254909276962
704.0,0.0,0.0,0.0,0.0,0.0,0.0,-0.03534402698278427,-0.04177416115999222,-0.016539154574275017,0.9997788071632385,-0.01418892852962017,0.007748010568320751,-0.013454924337565899
705.0,0.0,0.0,0.0,0.0,0.0,0.0,0.10193151980638504,-0.022099290043115616,-0.15035714209079742,0.9997847080230713,-0.015205306001007557,0.004933901596814394,-0.013227979652583599
706.0,0.0,0.0,0.0,0.0,0.0,0.0,0.0765620544552803,-0.07994533330202103,-0.1320340931415558,0.9997374415397644,-0.017455870285630226,0.0006860032444819808,-0.014825403690338135
707.0,0.0,0.0,0.0,0.0,0.0,0.0,0.05322985351085663,-0.07719530910253525,-0.07996337860822678,0.9995860457420349,-0.021123701706528664,-0.0012419936247169971,-0.019490566104650497
708.0,0.0,0.0,0.0,0.0,0.0,0.0,-0.11285583674907684,0.09713241457939148,0.08791051805019379,0.9992758631706238,-0.027454093098640442,-0.0029252059757709503,-0.02618536539375782
709.0,0.0,0.0,0.0,0.0,0.0,0.0,-0.18988552689552307,0.2339305281639099,0.2108793556690216,0.9991382956504822,-0.029851552098989487,-0.002232828876003623,-0.028751928359270096
710.0,0.0,0.0,0.0,0.0,0.0,0.0,-0.08740999549627304,0.08889073133468628,0.09464246779680252,0.9991443157196045,-0.029953530058264732,0.0003724140697158873,-0.028516562655568123
711.0,0.0,0.0,0.0,0.0,0.0,0.0,-0.08232343196868896,0.06423178315162659,0.05442607402801514,0.9991474151611328,-0.029745809733867645,0.003318916540592909,-0.02843775972723961
712.0,0.0,0.0,0.0,0.0,0.0,0.0,-0.048095230013132095,0.09735080599784851,0.0733356773853302,0.9992786645889282,-0.02621091715991497,0.004324499983340502,-0.027143599465489388
713.0,0.0,0.0,0.0,0.0,0.0,0.0,-0.04527558386325836,0.06152939051389694,0.01640268974006176,0.9993898868560791,-0.022280341014266014,0.005341603886336088,-0.026364117860794067
714.0,0.0,0.0,0.0,0.0,0.0,0.0,-0.07739348709583282,0.024694859981536865,0.003602751763537526,0.9994791746139526,-0.018070602789521217,0.007124416995793581,-0.02577050030231476
715.0,0.0,0.0,0.0,0.0,0.0,0.0,0.03696093335747719,-0.03792152553796768,-0.027170255780220032,0.9995986223220825,-0.013907982967793941,0.00868270080536604,-0.023108428344130516
716.0,0.0,0.0,0.0,0.0,0.0,0.0,0.07905282080173492,-0.05723179131746292,-0.08676531165838242,0.9996635913848877,-0.010398689657449722,0.00932955089956522,-0.021855341270565987
717.0,0.0,0.0,0.0,0.0,0.0,0.0,0.015117330476641655,-0.03513782098889351,-0.047455474734306335,0.9996664524078369,-0.010349905118346214,0.010232606902718544,-0.021335681900382042
718.0,0.0,0.0,0.0,0.0,0.0,0.0,-0.00014469500456470996,-0.007922160439193249,-0.012283544056117535,0.9997235536575317,-0.009804777801036835,0.00938549917191267,-0.019201738759875298
719.0,0.0,0.0,0.0,0.0,0.0,0.0,-0.0017840384971350431,0.02962782047688961,0.03743921220302582,0.9997333884239197,-0.00912648718804121,0.009643463417887688,-0.018893662840127945
720.0,0.0,0.0,0.0,0.0,0.0,0.0,-0.06578963249921799,0.09650490432977676,0.02876182273030281,0.9997159838676453,-0.007389354985207319,0.010463543236255646,-0.020101448521018028
721.0,0.0,0.0,0.0,0.0,0.0,0.0,-0.03922642767429352,0.052318274974823,-0.013498417101800442,0.9997149705886841,-0.004472273867577314,0.012142189778387547,-0.020065557211637497
722.0,0.0,0.0,0.0,0.0,0.0,0.0,-0.016299059614539146,0.029172874987125397,-0.05229923874139786,0.9997230172157288,-0.001982169458642602,0.013253285549581051,-0.019347097724676132
723.0,0.0,0.0,0.0,0.0,0.0,0.0,0.05609772354364395,-0.05168245732784271,-0.0016877854941412807,0.9997307658195496,0.0011245952919125557,0.013548513874411583,-0.018805019557476044
724.0,0.0,0.0,0.0,0.0,0.0,0.0,0.06847736984491348,-0.1139335110783577,-0.04661789536476135,0.9997064471244812,0.0017274337587878108,0.01342443935573101,-0.020102733746170998
725.0,0.0,0.0,0.0,0.0,0.0,0.0,0.0896916463971138,-0.06758926808834076,-0.13692787289619446,0.9996834397315979,0.0009580274927429855,0.012411199510097504,-0.021869679912924767
726.0,0.0,0.0,0.0,0.0,0.0,0.0,0.11994019150733948,-0.0901234894990921,-0.15370279550552368,0.9996352791786194,-0.0014504368882626295,0.009382977150380611,-0.025284409523010254
727.0,0.0,0.0,0.0,0.0,0.0,0.0,0.15284815430641174,-0.27199262380599976,-0.16315533220767975,0.99940025806427,-0.007358433213084936,0.004951050970703363,-0.03347707912325859
728.0,0.0,0.0,0.0,0.0,0.0,0.0,0.003606910817325115,-0.10615480691194534,-0.033649884164333344,0.9988304376602173,-0.017322344705462456,0.001162976142950356,-0.04512547329068184
729.0,0.0,0.0,0.0,0.0,0.0,0.0,-0.05565306171774864,0.08690335601568222,0.08623236417770386,0.9980593919754028,-0.024252211675047874,-0.00264746998436749,-0.05729608237743378
730.0,0.0,0.0,0.0,0.0,0.0,0.0,-0.08673223108053207,0.10454482585191727,0.11146614700555801,0.9973533153533936,-0.029099326580762863,-0.005101090297102928,-0.06643699109554291
731.0,0.0,0.0,0.0,0.0,0.0,0.0,-0.1530647873878479,0.2116614580154419,0.16830918192863464,0.9968956112861633,-0.029838941991329193,-0.005395425483584404,-0.07266278564929962
732.0,0.0,0.0,0.0,0.0,0.0,0.0,-0.18212345242500305,0.21602176129817963,0.21449245512485504,0.9966076612472534,-0.026499995961785316,-0.0018977693980559707,-0.07789332419633865
733.0,0.0,0.0,0.0,0.0,0.0,0.0,-0.12108245491981506,0.10559038072824478,0.14711669087409973,0.99647456407547,-0.019025467336177826,0.0029471982270479202,-0.08165643364191055
734.0,0.0,0.0,0.0,0.0,0.0,0.0,-0.011618401855230331,0.0031840994488447905,0.03491569682955742,0.9963344931602478,-0.007999463938176632,0.004896174650639296,-0.08502709865570068
735.0,0.0,0.0,0.0,0.0,0.0,0.0,0.033894993364810944,0.001891054678708315,0.010477198287844658,0.9959490895271301,0.006160936783999205,0.003698578802868724,-0.08963384479284286
