,Position_X,Position_Y,Position_Z,Velocity_X,Velocity_Y,Velocity_Z,Acceleration_X,Acceleration_Y,Acceleration_Z,Quaterion_0,Quaterion_1,Quaterion_2,Quaterion_3
90.0,0.0,0.0,0.0,0.0,0.0,0.0,0.02612113207578659,-0.05372844636440277,0.011102605611085892,1.0,0.0,0.0,0.0
91.0,0.0,0.0,0.0,0.0,0.0,0.0,-0.0010363324545323849,-0.014204271137714386,-0.001198843470774591,1.0,5.421010862427522e-20,-5.421010862427522e-20,2.4352197233561135e-20
92.0,0.0,0.0,0.0,0.0,0.0,0.0,-0.004517265595495701,-0.020245784893631935,-0.008348671719431877,1.0,1.0842021724855044e-19,2.168404344971009e-19,-8.660911885675221e-20
93.0,0.0,0.0,0.0,0.0,0.0,0.0,-0.011970479972660542,-0.010658372193574905,-0.007517002522945404,1.0,-2.168404344971009e-19,-2.168404344971009e-19,8.597384414631148e-20
94.0,0.0,0.0,0.0,0.0,0.0,0.0,-0.011853768490254879,0.0012202621437609196,-0.009152699261903763,1.0,4.336808689942018e-19,5.421010862427522e-20,1.9905274260476058e-20
95.0,0.0,0.0,0.0,0.0,0.0,0.0,-0.006776226218789816,0.002383630257099867,-0.0028518910985440016,1.0,0.0,1.0842021724855044e-19,-1.376428539288238e-19
96.0,0.0,0.0,0.0,0.0,0.0,0.0,-0.005392811726778746,-0.0009428374469280243,-0.003180184867233038,1.0,0.0,0.0,1.0953194799182171e-19
97.0,0.0,0.0,0.0,0.0,0.0,0.0,-0.002593009965494275,-0.008120524697005749,-0.0007275121752172709,1.0,0.0,-1.3552527156068805e-20,-3.6263598054324733e-20
98.0,0.0,0.0,0.0,0.0,0.0,0.0,-0.005437211599200964,-0.005239587277173996,-0.0006276710773818195,1.0,0.0,5.421010862427522e-20,2.456395547037471e-20
99.0,0.0,0.0,0.0,0.0,0.0,0.0,-0.004838969558477402,0.00017049485177267343,-0.0006059573497623205,1.0,-2.168404344971009e-19,-1.0842021724855044e-19,-2.1599340154984659e-19
100.0,0.0,0.0,0.0,0.0,0.0,0.0,-0.0006577088497579098,0.00033176506985910237,0.0020797320175915956,1.0,-2.168404344971009e-19,0.0,-6.547564682275742e-19
101.0,0.0,0.0,0.0,0.0,0.0,0.0,0.0003369063779246062,0.00022084583179093897,0.0018236017785966396,1.0,4.336808689942018e-19,4.336808689942018e-19,-1.3213713977167085e-19
102.0,0.0,0.0,0.0,0.0,0.0,0.0,0.0015149000100791454,4.3128140532644466e-05,0.0014009146252647042,1.0,-2.168404344971009e-19,0.0,-5.785235029746871e-19
103.0,0.0,0.0,0.0,0.0,0.0,0.0,0.0028379512950778008,0.0009030618821270764,0.0012340839020907879,1.0,-2.168404344971009e-19,-2.168404344971009e-19,-1.8634724839594607e-19
104.0,0.0,0.0,0.0,0.0,0.0,0.0,0.0035767429508268833,0.0028174964245408773,0.0009565731161274016,1.0,-1.0842021724855044e-19,2.168404344971009e-19,-1.0249098661777034e-19
105.0,0.0,0.0,0.0,0.0,0.0,0.0,0.004289113916456699,0.0027191033586859703,0.00014379546337295324,1.0,-2.168404344971009e-19,0.0,5.47183283926278e-19
106.0,0.0,0.0,0.0,0.0,0.0,0.0,0.0016123862005770206,0.004112936556339264,-0.0026899343356490135,1.0,1.0842021724855044e-19,-2.168404344971009e-19,-2.558039500707987e-19
107.0,0.0,0.0,0.0,0.0,0.0,0.0,0.0012541668256744742,0.005312854424118996,-0.0026167009491473436,1.0,-1.0842021724855044e-19,0.0,-3.032377951170395e-19
108.0,0.0,0.0,0.0,0.0,0.0,0.0,0.0008324673399329185,0.006549855228513479,-0.0026648768689483404,1.0,1.0842021724855044e-19,1.0842021724855044e-19,2.303929616531697e-19
109.0,0.0,0.0,0.0,0.0,0.0,0.0,-0.00030992133542895317,0.0064203329384326935,-0.0014543276047334075,1.0,0.0,1.0842021724855044e-19,-3.9217625457874106e-19
110.0,0.0,0.0,0.0,0.0,0.0,0.0,5.2851581131108105e-05,0.006204104982316494,-0.0006485759513452649,1.0,1.0842021724855044e-19,-1.0842021724855044e-19,4.713738351470181e-19
111.0,0.0,0.0,0.0,0.0,0.0,0.0,-0.0009191413410007954,0.00432129530236125,-0.0014632742386311293,1.0,2.168404344971009e-19,1.0842021724855044e-19,1.1689054672109345e-19
112.0,0.0,0.0,0.0,0.0,0.0,0.0,-0.0019670065958052874,0.003406097646802664,-0.0011106064775958657,1.0,0.0,-1.0842021724855044e-19,-5.056786695108173e-19
113.0,0.0,0.0,0.0,0.0,0.0,0.0,-0.0019653704948723316,0.004497969523072243,-0.0016459295293316245,1.0,0.0,0.0,4.2859867131067597e-19
114.0,0.0,0.0,0.0,0.0,0.0,0.0,-0.002356683136895299,0.004651876166462898,0.00025654546334408224,1.0,0.0,-2.168404344971009e-19,-3.6845933205562065e-19
115.0,0.0,0.0,0.0,0.0,0.0,0.0,-0.0024676595348864794,0.003802536055445671,0.0011807872215285897,1.0,0.0,0.0,-5.13301966036106e-19
116.0,0.0,0.0,0.0,0.0,0.0,0.0,0.00019423790217842907,0.0009108290541917086,0.0020103291608393192,1.0,1.0842021724855044e-19,-2.168404344971009e-19,-1.7364175418713157e-19
117.0,0.0,0.0,0.0,0.0,0.0,0.0,0.013844790868461132,-0.004940101411193609,0.007207643240690231,1.0,0.0,-1.0842021724855044e-19,-2.7401515843676616e-19
118.0,0.0,0.0,0.0,0.0,0.0,0.0,0.03549201413989067,-0.04178359732031822,0.01391657255589962,1.0,0.0,0.0,-2.727975485750881e-19
119.0,0.0,0.0,0.0,0.0,0.0,0.0,-0.0022128308191895485,0.0080499779433012,0.0006397602264769375,1.0,-2.168404344971009e-19,0.0,1.9058241313221758e-19
120.0,0.0,0.0,0.0,0.0,0.0,0.0,-0.003586846636608243,0.0027744988910853863,-0.002714649075642228,1.0,4.336808689942018e-19,1.0842021724855044e-19,-4.675621868843738e-19
121.0,0.0,0.0,0.0,0.0,0.0,0.0,-0.014715894125401974,0.008785762824118137,-0.011838654987514019,1.0,2.168404344971009e-19,-1.0842021724855044e-19,-9.063252535621014e-20
122.0,0.0,0.0,0.0,0.0,0.0,0.0,-0.01171129196882248,0.012172949500381947,-0.007796337828040123,1.0,-4.336808689942018e-19,0.0,1.8634724839594607e-19
123.0,0.0,0.0,0.0,0.0,0.0,0.0,0.0005030123866163194,0.0019919995684176683,-0.0014942364068701863,1.0,0.0,0.0,2.795208725939191e-19
124.0,0.0,0.0,0.0,0.0,0.0,0.0,0.0026257706340402365,-0.00374516355805099,0.0014064500574022532,1.0,-8.673617379884035e-19,-2.168404344971009e-19,-3.8963515573697816e-20
125.0,0.0,0.0,0.0,0.0,0.0,0.0,-0.005987629760056734,0.0020950159523636103,-0.002904342021793127,1.0,-4.336808689942018e-19,0.0,2.710505431213761e-19
126.0,0.0,0.0,0.0,0.0,0.0,0.0,-0.007288758177310228,0.0081725362688303,-0.005038563162088394,1.0,8.673617379884035e-19,2.168404344971009e-19,-2.879912020664621e-19
127.0,0.0,0.0,0.0,0.0,0.0,0.0,-0.004901723936200142,0.01092271413654089,4.0627965063322335e-05,1.0,-4.336808689942018e-19,0.0,2.0328790734103208e-19
128.0,0.0,0.0,0.0,0.0,0.0,0.0,-0.005092348903417587,0.011329405941069126,0.0007441550260409713,1.0,0.0,-2.168404344971009e-19,-2.625802136488331e-19
129.0,0.0,0.0,0.0,0.0,0.0,0.0,-0.0027564840856939554,0.011051025241613388,0.004002082627266645,1.0,8.673617379884035e-19,-2.168404344971009e-19,1.0130514049161432e-18
130.0,0.0,0.0,0.0,0.0,0.0,0.0,-0.0005069396574981511,0.00852174498140812,0.0061381785199046135,1.0,0.0,0.0,-8.555032767268433e-19
131.0,0.0,0.0,0.0,0.0,0.0,0.0,0.0009154728031717241,0.008354810997843742,0.005625711288303137,1.0,4.336808689942018e-19,0.0,-5.929230630780102e-20
132.0,0.0,0.0,0.0,0.0,0.0,0.0,0.0011487033916637301,0.008354497142136097,0.003826781641691923,1.0,4.336808689942018e-19,-4.336808689942018e-19,6.437450399132683e-20
133.0,0.0,0.0,0.0,0.0,0.0,0.0,-0.0013005457585677505,0.012925620190799236,0.0012108541559427977,1.0,-2.168404344971009e-19,0.0,2.744386749103933e-19
134.0,0.0,0.0,0.0,0.0,0.0,0.0,-0.0034831780940294266,0.013490128330886364,-0.005403522867709398,1.0,-4.336808689942018e-19,0.0,-7.589415207398531e-19
135.0,0.0,0.0,0.0,0.0,0.0,0.0,-0.0016775743570178747,0.016257688403129578,0.0008474494097754359,1.0,0.0,4.336808689942018e-19,4.887380105657313e-19
136.0,0.0,0.0,0.0,0.0,0.0,0.0,-0.003546906402334571,0.01647481694817543,-0.0011298791505396366,1.0,2.168404344971009e-19,0.0,-1.9397054492123478e-19
137.0,0.0,0.0,0.0,0.0,0.0,0.0,-0.006287649739533663,0.012905503623187542,-0.0076296208426356316,1.0,-2.168404344971009e-19,0.0,1.3806637040245096e-19
138.0,0.0,0.0,0.0,0.0,0.0,0.0,-0.006050304044038057,0.011896386742591858,-0.005038404371589422,1.0,0.0,-4.336808689942018e-19,1.728794245346027e-18
139.0,0.0,0.0,0.0,0.0,0.0,0.0,-0.006724901031702757,0.012540072202682495,-0.005820677150040865,1.0,2.168404344971009e-19,-2.168404344971009e-19,-4.1165801236558996e-19
140.0,0.0,0.0,0.0,0.0,0.0,0.0,-0.006399932317435741,0.011879542842507362,-0.004576806910336018,1.0,1.0842021724855044e-19,0.0,2.295459287059154e-19
141.0,0.0,0.0,0.0,0.0,0.0,0.0,-0.005408694501966238,0.010804773308336735,-0.0035621048882603645,1.0,0.0,0.0,-6.805909731188303e-19
142.0,0.0,0.0,0.0,0.0,0.0,0.0,-0.0033821947872638702,0.009528016671538353,-0.003004943486303091,1.0,-2.168404344971009e-19,0.0,3.96199661078199e-19
143.0,0.0,0.0,0.0,0.0,0.0,0.0,0.001991697819903493,0.004747631493955851,-0.001278675626963377,1.0,1.0842021724855044e-19,1.0842021724855044e-19,-6.2765141391543655e-19
144.0,0.0,0.0,0.0,0.0,0.0,0.0,0.00913264974951744,-0.0007022614008747041,0.0033406198490411043,1.0,0.0,2.710505431213761e-20,-2.3374932970666486e-18
145.0,0.0,0.0,0.0,0.0,0.0,0.0,0.04417407140135765,-0.04413103684782982,0.018634038046002388,1.0,-2.168404344971009e-19,-1.0842021724855044e-19,-9.613823951336309e-19
146.0,0.0,0.0,0.0,0.0,0.0,0.0,0.025062065571546555,-0.013433796353638172,0.023656271398067474,1.0,-4.336808689942018e-19,0.0,6.14945919706622e-19
147.0,0.0,0.0,0.0,0.0,0.0,0.0,0.008877117186784744,-0.01580788381397724,-0.003805560292676091,1.0,-4.336808689942018e-19,-8.673617379884035e-19,5.200782296141404e-19
148.0,0.0,0.0,0.0,0.0,0.0,0.0,-0.0045218318700790405,-0.0078025097027421,-0.00850754790008068,1.0,-4.336808689942018e-19,-4.336808689942018e-19,-4.980553729855286e-19
149.0,0.0,0.0,0.0,0.0,0.0,0.0,-0.01946794055402279,0.016491875052452087,-0.012819028459489346,1.0,0.0,-4.336808689942018e-19,5.996993266560446e-19
150.0,0.0,0.0,0.0,0.0,0.0,0.0,-0.010541094467043877,0.003470366820693016,-0.002771927509456873,1.0,-4.336808689942018e-19,-4.336808689942018e-19,2.812149384884277e-19
151.0,0.0,0.0,0.0,0.0,0.0,0.0,-0.0025651059113442898,-0.009073061868548393,0.001703975722193718,1.0,4.336808689942018e-19,4.336808689942018e-19,3.3881317890172014e-20
152.0,0.0,0.0,0.0,0.0,0.0,0.0,-0.010086777620017529,-0.007674294989556074,-0.00666843680664897,1.0,0.0,8.673617379884035e-19,-2.710505431213761e-19
153.0,0.0,0.0,0.0,0.0,0.0,0.0,-0.021521596238017082,-0.0016286070458590984,-0.018093734979629517,1.0,8.673617379884035e-19,8.673617379884035e-19,-9.283481101907132e-19
154.0,0.0,0.0,0.0,0.0,0.0,0.0,-0.022035973146557808,0.006287606433033943,-0.01900300197303295,1.0,1.734723475976807e-18,0.0,-1.043544591017298e-18
155.0,0.0,0.0,0.0,0.0,0.0,0.0,-0.019697843119502068,0.013822617009282112,-0.010682911612093449,1.0,-1.734723475976807e-18,0.0,-3.049318610115481e-19
156.0,0.0,0.0,0.0,0.0,0.0,0.0,-0.01575476862490177,0.016988087445497513,0.0005939978873357177,1.0,0.0,0.0,-8.707498697774207e-19
157.0,0.0,0.0,0.0,0.0,0.0,0.0,-0.009553671814501286,0.013077513314783573,0.010174108669161797,1.0,1.734723475976807e-18,2.168404344971009e-19,-1.6025863362051362e-18
158.0,0.0,0.0,0.0,0.0,0.0,0.0,-0.0033889058977365494,0.008099925704300404,0.013526735827326775,1.0,8.673617379884035e-19,2.710505431213761e-20,-8.610089908839963e-19
159.0,0.0,0.0,0.0,0.0,0.0,0.0,0.0016954763559624553,0.008422864601016045,0.006839799229055643,1.0,0.0,-1.3552527156068805e-20,-4.053052652611827e-19
160.0,0.0,0.0,0.0,0.0,0.0,0.0,-0.0016307878540828824,0.014863815158605576,0.003298437688499689,1.0,0.0,4.0657581468206416e-20,1.7580168820263004e-18
161.0,0.0,0.0,0.0,0.0,0.0,0.0,-0.0050240494310855865,0.01589239202439785,0.00878781545907259,1.0,-8.673617379884035e-19,2.710505431213761e-20,-1.0651439311722827e-18
162.0,0.0,0.0,0.0,0.0,0.0,0.0,-0.0018049932550638914,0.007670571096241474,0.010560817085206509,1.0,0.0,2.710505431213761e-20,-2.2158381900172497e-18
163.0,0.0,0.0,0.0,0.0,0.0,0.0,0.004952925257384777,-0.003335855668410659,0.00710107758641243,1.0,-1.734723475976807e-18,-5.421010862427522e-20,1.8295911660692887e-19
164.0,0.0,0.0,0.0,0.0,0.0,0.0,0.008570851758122444,-0.00860883854329586,0.0023393393494188786,1.0,-1.734723475976807e-18,-2.1175823681357508e-20,-4.598409521745588e-18
165.0,0.0,0.0,0.0,0.0,0.0,0.0,0.008607775904238224,-0.006931712385267019,-0.0016162091633304954,1.0,8.673617379884035e-19,5.421010862427522e-20,5.353248226647178e-19
166.0,0.0,0.0,0.0,0.0,0.0,0.0,0.004889266099780798,-0.0031878012232482433,-1.575850365043152e-05,1.0,8.673617379884035e-19,1.0842021724855044e-19,7.047314121155779e-19
167.0,0.0,0.0,0.0,0.0,0.0,0.0,0.00013952974404674023,0.001234122784808278,-0.002432161010801792,1.0,8.673617379884035e-19,1.0842021724855044e-19,7.792703114739563e-19
168.0,0.0,0.0,0.0,0.0,0.0,0.0,-0.001031692372635007,0.0045426213182508945,-0.002008570358157158,1.0,0.0,4.336808689942018e-19,3.178067618098135e-18
169.0,0.0,0.0,0.0,0.0,0.0,0.0,-0.0033578015863895416,0.009137310087680817,0.0027882170397788286,1.0,-8.673617379884035e-19,0.0,-1.4907779871675686e-18
170.0,0.0,0.0,0.0,0.0,0.0,0.0,-0.0021021266002207994,0.004203984048217535,0.007346312049776316,1.0,-1.734723475976807e-18,0.0,5.421010862427522e-20
171.0,0.0,0.0,0.0,0.0,0.0,0.0,0.00016398548905272037,-0.00582076096907258,0.0030209238175302744,1.0,0.0,0.0,4.302927372051846e-18
172.0,0.0,0.0,0.0,0.0,0.0,0.0,-0.002759295981377363,-0.009268094785511494,-0.0023556577507406473,1.0,0.0,4.336808689942018e-19,1.6737371037744975e-18
173.0,0.0,0.0,0.0,0.0,0.0,0.0,-0.0035602706484496593,-0.00914138462394476,-0.0038913306780159473,1.0,-8.673617379884035e-19,0.0,-2.4801124695605914e-18
174.0,0.0,0.0,0.0,0.0,0.0,0.0,-0.005973984487354755,-0.0017730395775288343,-0.0037375970277935266,1.0,-8.673617379884035e-19,-4.336808689942018e-19,5.014435047745458e-19
175.0,0.0,0.0,0.0,0.0,0.0,0.0,-0.007772008888423443,0.008634035475552082,0.002609920222312212,1.0,8.673617379884035e-19,0.0,3.1170812458958252e-19
176.0,0.0,0.0,0.0,0.0,0.0,0.0,-0.005479132290929556,0.011183963157236576,0.0088123120367527,1.0,0.0,0.0,1.5856456772600502e-18
177.0,0.0,0.0,0.0,0.0,0.0,0.0,-0.003865115577355027,0.008102494291961193,0.005280095152556896,1.0,8.673617379884035e-19,4.336808689942018e-19,1.4365678785432934e-18
178.0,0.0,0.0,0.0,0.0,0.0,0.0,-0.006702246144413948,0.010239320807158947,-0.004769972059875727,1.0,-8.673617379884035e-19,-4.336808689942018e-19,7.589415207398531e-19
179.0,0.0,0.0,0.0,0.0,0.0,0.0,-0.015453987754881382,0.0233474001288414,-0.010808725841343403,1.0,-1.734723475976807e-18,-4.336808689942018e-19,9.0801931945661e-19
180.0,0.0,0.0,0.0,0.0,0.0,0.0,-0.01877870410680771,0.027651865035295486,-0.00678873248398304,1.0,0.0,-4.336808689942018e-19,-1.7753810574450135e-18
181.0,0.0,0.0,0.0,0.0,0.0,0.0,-0.019243622198700905,0.02574906311929226,-0.005776051431894302,1.0,0.0,4.336808689942018e-19,-1.9651164376299768e-18
182.0,0.0,0.0,0.0,0.0,0.0,0.0,-0.014258753508329391,0.01672476902604103,-0.0029435802716761827,1.0,8.673617379884035e-19,0.0,-2.236166980751353e-18
183.0,0.0,0.0,0.0,0.0,0.0,0.0,-0.008297436870634556,0.007759937085211277,1.9207631339668296e-05,1.0,8.673617379884035e-19,0.0,1.951563910473908e-18
184.0,0.0,0.0,0.0,0.0,0.0,0.0,-0.010498438030481339,0.002735544927418232,-0.0031649544835090637,1.0,-8.673617379884035e-19,-2.168404344971009e-19,3.4626706883755798e-18
185.0,0.0,0.0,0.0,0.0,0.0,0.0,-0.011435107327997684,-9.700241207610816e-05,-0.004802231676876545,1.0,-1.734723475976807e-18,-4.336808689942018e-19,1.2400562347802957e-18
186.0,0.0,0.0,0.0,0.0,0.0,0.0,-0.006474460009485483,-0.01425907202064991,-0.009559240192174911,1.0,1.734723475976807e-18,2.168404344971009e-19,-1.5382118322138094e-18
187.0,0.0,0.0,0.0,0.0,0.0,0.0,0.000741254014428705,-0.018667906522750854,0.004173011984676123,1.0,3.469446951953614e-18,1.0842021724855044e-19,-1.5246593050577406e-18
188.0,0.0,0.0,0.0,0.0,0.0,0.0,0.0023322065826505423,-0.011930822394788265,0.0075340853072702885,1.0,1.734723475976807e-18,-1.0842021724855044e-19,4.336808689942018e-19
189.0,0.0,0.0,0.0,0.0,0.0,0.0,-0.0021037475671619177,-0.00486769201233983,0.003859572112560272,1.0,-3.469446951953614e-18,-1.6263032587282567e-19,-1.1993986533120893e-18
190.0,0.0,0.0,0.0,0.0,0.0,0.0,-0.008075266145169735,0.004389094188809395,0.006243804469704628,1.0,-1.734723475976807e-18,-1.0842021724855044e-19,-2.129440829397311e-18
191.0,0.0,0.0,0.0,0.0,0.0,0.0,-0.003061742288991809,0.0033518143463879824,0.009080677293241024,1.0,3.469446951953614e-18,5.421010862427522e-20,5.30242624981192e-19
192.0,0.0,0.0,0.0,0.0,0.0,0.0,0.007302918005734682,-0.008608252741396427,0.012643237598240376,1.0,-1.734723475976807e-18,0.0,-1.5382118322138094e-18
193.0,0.0,0.0,0.0,0.0,0.0,0.0,0.004136602394282818,-0.010719161480665207,0.012977902777493,1.0,0.0,1.0842021724855044e-19,3.63207727782644e-18
194.0,0.0,0.0,0.0,0.0,0.0,0.0,-0.005310880485922098,-0.005072801373898983,-0.0048339758068323135,1.0,0.0,0.0,1.294266343404571e-18
195.0,0.0,0.0,0.0,0.0,0.0,0.0,-0.0005372903542593122,-0.016011781990528107,-0.008505281060934067,1.0,-1.734723475976807e-18,2.168404344971009e-19,3.3881317890172014e-18
196.0,0.0,0.0,0.0,0.0,0.0,0.0,-0.0010370417730882764,-0.014152856543660164,-0.007020633202046156,1.0,0.0,2.168404344971009e-19,-1.7550522667109103e-18
197.0,0.0,0.0,0.0,0.0,0.0,0.0,-0.001152775133959949,-0.008877819404006004,-0.005826439708471298,1.0,-1.734723475976807e-18,0.0,2.55465136891897e-18
198.0,0.0,0.0,0.0,0.0,0.0,0.0,-0.0009451333899050951,-0.007207164075225592,-0.0059822965413331985,1.0,-1.734723475976807e-18,-4.336808689942018e-19,7.860465750519907e-19
199.0,0.0,0.0,0.0,0.0,0.0,0.0,0.0006260784575715661,-0.004976441152393818,-0.0015104996273294091,1.0,1.734723475976807e-18,2.168404344971009e-19,-1.009663273127126e-18
200.0,0.0,0.0,0.0,0.0,0.0,0.0,0.00014492800983134657,-0.0031951002310961485,9.152114944299683e-05,1.0,1.734723475976807e-18,2.168404344971009e-19,-4.4858864886587746e-18
201.0,0.0,0.0,0.0,0.0,0.0,0.0,-0.004796917550265789,0.004798409063369036,-0.00037399132270365953,1.0,-1.734723475976807e-18,-2.168404344971009e-19,4.743384504624082e-19
202.0,0.0,0.0,0.0,0.0,0.0,0.0,-0.006189323496073484,0.009888588450849056,-0.0014420690713450313,1.0,0.0,2.168404344971009e-19,3.4558944247975454e-19
203.0,0.0,0.0,0.0,0.0,0.0,0.0,-0.006676197052001953,0.011934477835893631,0.002475552260875702,1.0,1.734723475976807e-18,-1.0842021724855044e-19,-2.3107058801097313e-18
204.0,0.0,0.0,0.0,0.0,0.0,0.0,-0.00582808768376708,0.01778388023376465,0.008319167420268059,1.0,0.0,-1.0842021724855044e-19,-4.7196675821009615e-18
205.0,0.0,0.0,0.0,0.0,0.0,0.0,-0.001707733259536326,0.0105308648198843,0.005223238840699196,1.0,1.734723475976807e-18,0.0,1.3552527156068805e-19
206.0,0.0,0.0,0.0,0.0,0.0,0.0,0.0036317859776318073,0.0014293985441327095,0.001445043133571744,1.0,0.0,-5.421010862427522e-20,-2.817231582567803e-18
207.0,0.0,0.0,0.0,0.0,0.0,0.0,0.008196664974093437,-0.002989603905007243,0.0018315532943233848,1.0,0.0,2.710505431213761e-20,-1.5246593050577406e-20
208.0,0.0,0.0,0.0,0.0,0.0,0.0,0.009996134787797928,-0.005267547443509102,-0.0010423891944810748,1.0,-8.673617379884035e-19,2.710505431213761e-20,-3.929385842312699e-18
209.0,0.0,0.0,0.0,0.0,0.0,0.0,0.008810285478830338,-0.003329775296151638,-0.0031830533407628536,1.0,0.0,2.710505431213761e-20,3.30215794487089e-18
210.0,0.0,0.0,0.0,0.0,0.0,0.0,0.008586396463215351,-0.00684705376625061,-0.00540448073297739,1.0,8.673617379884035e-19,0.0,1.9566461081574338e-19
211.0,0.0,0.0,0.0,0.0,0.0,0.0,0.005736979190260172,-0.010602439753711224,-0.007354099303483963,1.0,-2.6020852139652106e-18,0.0,2.981555974335137e-19
212.0,0.0,0.0,0.0,0.0,0.0,0.0,0.006401634309440851,-0.007731563411653042,0.002654285868629813,1.0,-1.734723475976807e-18,-5.421010862427522e-20,2.5224641169233064e-18
213.0,0.0,0.0,0.0,0.0,0.0,0.0,0.005021639633923769,-9.570676775183529e-05,0.00775997806340456,1.0,-8.673617379884035e-19,-5.421010862427522e-20,-3.3203691532368573e-18
214.0,0.0,0.0,0.0,0.0,0.0,0.0,0.0039692288264632225,-0.0019367177737876773,0.0017092819325625896,1.0,0.0,0.0,-1.3213713977167085e-19
215.0,0.0,0.0,0.0,0.0,0.0,0.0,0.004779627546668053,-0.003298763418570161,0.0016145177651196718,1.0,8.673617379884035e-19,1.0842021724855044e-19,-1.1248597539537109e-18
216.0,0.0,0.0,0.0,0.0,0.0,0.0,0.006049448158591986,-0.004239795263856649,0.0013317764969542623,1.0,8.673617379884035e-19,1.0842021724855044e-19,7.453889935837843e-19
217.0,0.0,0.0,0.0,0.0,0.0,0.0,0.004904185887426138,-0.0014229996595531702,0.001642630435526371,1.0,0.0,2.168404344971009e-19,-1.111307226797642e-18
218.0,0.0,0.0,0.0,0.0,0.0,0.0,0.0022649590391665697,0.004625147674232721,5.141997098689899e-05,1.0,0.0,2.168404344971009e-19,9.012430558785756e-19
219.0,0.0,0.0,0.0,0.0,0.0,0.0,-0.00216514035128057,0.005120590329170227,-0.007219010964035988,1.0,-8.673617379884035e-19,2.168404344971009e-19,-1.362028979184915e-18
220.0,0.0,0.0,0.0,0.0,0.0,0.0,-0.0012123849010095,0.0031261458061635494,-0.0018067581113427877,1.0,0.0,0.0,-1.666960840196463e-18
221.0,0.0,0.0,0.0,0.0,0.0,0.0,-0.0024085596669465303,-0.000707821047399193,0.0019944526720792055,1.0,1.734723475976807e-18,-2.168404344971009e-19,1.2739375526704677e-18
222.0,0.0,0.0,0.0,0.0,0.0,0.0,-0.0011699724709615111,-0.009069990366697311,0.0015991368563845754,1.0,2.6020852139652106e-18,0.0,1.1926223897340549e-18
223.0,0.0,0.0,0.0,0.0,0.0,0.0,0.0013590813614428043,-0.011528914794325829,-0.0006869328790344298,1.0,0.0,0.0,-7.182839392716467e-19
224.0,0.0,0.0,0.0,0.0,0.0,0.0,0.0019467496313154697,-0.009337326511740685,0.0018018931150436401,1.0,-2.6020852139652106e-18,0.0,4.1674021004911577e-19
225.0,0.0,0.0,0.0,0.0,0.0,0.0,0.0012632702710106969,-0.008273249492049217,0.0011645947815850377,1.0,-8.673617379884035e-19,2.168404344971009e-19,-6.2680438096818225e-19
226.0,0.0,0.0,0.0,0.0,0.0,0.0,-0.0017491282196715474,-0.0037149458657950163,-0.0012674032477661967,1.0,8.673617379884035e-19,0.0,1.0842021724855044e-19
227.0,0.0,0.0,0.0,0.0,0.0,0.0,-0.0047008884139359,-0.002960191573947668,-0.004786227829754353,1.0,8.673617379884035e-19,1.0842021724855044e-19,1.3721933745519665e-18
228.0,0.0,0.0,0.0,0.0,0.0,0.0,-0.007403525989502668,0.00011287697998341173,-0.005987961310893297,1.0,8.673617379884035e-19,1.0842021724855044e-19,-1.2197274440461925e-19
229.0,0.0,0.0,0.0,0.0,0.0,0.0,-0.006900594104081392,-0.004382960498332977,-0.0065230512991547585,1.0,8.673617379884035e-19,2.168404344971009e-19,-1.1858461261560205e-19
230.0,0.0,0.0,0.0,0.0,0.0,0.0,-0.007755097001791,-0.002111847745254636,-0.0012180247576907277,1.0,0.0,-1.0842021724855044e-19,-2.202285662861181e-19
231.0,0.0,0.0,0.0,0.0,0.0,0.0,-0.009963582269847393,-0.0013709672493860126,0.00019526624237187207,1.0,1.734723475976807e-18,1.0842021724855044e-19,-7.420008617947671e-19
232.0,0.0,0.0,0.0,0.0,0.0,0.0,-0.011988136917352676,-0.0002098467230098322,-0.0006065324996598065,1.0,1.734723475976807e-18,0.0,5.268544931921748e-19
233.0,0.0,0.0,0.0,0.0,0.0,0.0,-0.013099460862576962,0.0011324677616357803,-0.002587561961263418,1.0,0.0,2.710505431213761e-20,-1.7872395187065737e-19
234.0,0.0,0.0,0.0,0.0,0.0,0.0,-0.013816587626934052,0.001191722578369081,-0.005459518171846867,1.0,0.0,-1.3552527156068805e-20,1.8084153423879312e-19
235.0,0.0,0.0,0.0,0.0,0.0,0.0,-0.01344701461493969,-0.0006554822903126478,-0.0022972719743847847,1.0,0.0,-5.421010862427522e-20,3.049318610115481e-19
236.0,0.0,0.0,0.0,0.0,0.0,0.0,-0.007987936027348042,-0.0028741799760609865,0.006304558832198381,1.0,0.0,2.710505431213761e-19,-6.505213034913027e-19
237.0,0.0,0.0,0.0,0.0,0.0,0.0,-0.0069182016886770725,-0.006334950216114521,0.004875718615949154,1.0,0.0,0.0,-1.1214716221646936e-18
238.0,0.0,0.0,0.0,0.0,0.0,0.0,-0.002070934046059847,-0.006071596406400204,0.0069184196181595325,1.0,3.469446951953614e-18,1.0842021724855044e-19,-7.047314121155779e-19
239.0,0.0,0.0,0.0,0.0,0.0,0.0,0.009612295776605606,-0.014824536629021168,0.010439659468829632,1.0,3.469446951953614e-18,2.710505431213761e-20,8.792201992499638e-19
240.0,0.0,0.0,0.0,0.0,0.0,0.0,0.00447157071903348,-0.013468695804476738,0.007769251242280006,1.0,1.734723475976807e-18,5.421010862427522e-20,-1.6957599604031093e-18
241.0,0.0,0.0,0.0,0.0,0.0,0.0,-0.017578311264514923,0.013002375140786171,-0.0015524670016020536,1.0,1.734723475976807e-18,5.421010862427522e-20,1.9058241313221758e-18
242.0,0.0,0.0,0.0,0.0,0.0,0.0,-0.011329078115522861,0.008937537670135498,-0.007471660617738962,1.0,-3.469446951953614e-18,-1.0842021724855044e-19,7.182839392716467e-19
243.0,0.0,0.0,0.0,0.0,0.0,0.0,0.0012296204222366214,-0.002341910731047392,-0.0045219180174171925,1.0,-8.673617379884035e-19,-2.168404344971009e-19,3.2932640989247197e-18
244.0,0.0,0.0,0.0,0.0,0.0,0.0,-0.0029190657660365105,0.005389816127717495,-0.009115014225244522,1.0,-1.734723475976807e-18,0.0,-4.2012834183813297e-19
245.0,0.0,0.0,0.0,0.0,0.0,0.0,-0.0007426131051033735,0.007112694438546896,-0.006904808338731527,1.0,-8.673617379884035e-19,-2.168404344971009e-19,1.8092623753351855e-18
246.0,0.0,0.0,0.0,0.0,0.0,0.0,0.0055618504993617535,-0.005134338513016701,-0.006523822899907827,1.0,-8.673617379884035e-19,0.0,-1.6940658945086007e-19
247.0,0.0,0.0,0.0,0.0,0.0,0.0,0.00965207815170288,-0.012115729972720146,-0.002400804776698351,1.0,2.6020852139652106e-18,4.336808689942018e-19,-3.1170812458958252e-18
248.0,0.0,0.0,0.0,0.0,0.0,0.0,0.004343860317021608,-0.0026538195088505745,0.0039884718134999275,1.0,1.734723475976807e-18,8.673617379884035e-19,-1.951563910473908e-18
249.0,0.0,0.0,0.0,0.0,0.0,0.0,0.006522614508867264,-0.006939350161701441,0.0011282151099294424,1.0,0.0,0.0,2.0599841277224584e-18
250.0,0.0,0.0,0.0,0.0,0.0,0.0,0.016596930101513863,-0.018027855083346367,0.004288009367883205,1.0,0.0,8.673617379884035e-19,-2.0057740190981832e-18
251.0,0.0,0.0,0.0,0.0,0.0,0.0,0.005505478475242853,-0.00816259067505598,-0.0006424552411772311,1.0,0.0,0.0,1.9922214919421144e-18
252.0,0.0,0.0,0.0,0.0,0.0,0.0,-0.00046663000830449164,-0.00031580004724673927,-0.0016445128712803125,1.0,-1.734723475976807e-18,8.673617379884035e-19,-2.0057740190981832e-18
253.0,0.0,0.0,0.0,0.0,0.0,0.0,0.002517792396247387,-0.005454844795167446,-0.0029500483069568872,1.0,0.0,-4.336808689942018e-19,-4.87890977618477e-19
254.0,0.0,0.0,0.0,0.0,0.0,0.0,0.0062430924735963345,-0.014376689679920673,-0.01224120706319809,1.0,-3.469446951953614e-18,-4.336808689942018e-19,1.1655173354219173e-18
255.0,0.0,0.0,0.0,0.0,0.0,0.0,0.011626836843788624,-0.017903832718729973,-0.002914280164986849,1.0,3.469446951953614e-18,0.0,1.328147661294743e-18
256.0,0.0,0.0,0.0,0.0,0.0,0.0,0.01342775858938694,-0.015551990829408169,0.0029355466831475496,1.0,-1.734723475976807e-18,0.0,1.1655173354219173e-18
257.0,0.0,0.0,0.0,0.0,0.0,0.0,0.0070433286018669605,-0.007359626237303019,0.0019348225323483348,1.0,-1.734723475976807e-18,8.673617379884035e-19,1.870248747537495e-18
258.0,0.0,0.0,0.0,0.0,0.0,0.0,-0.0049514081329107285,0.010253160260617733,-0.0010780281154438853,1.0,1.734723475976807e-18,0.0,-2.4665599424045226e-18
259.0,0.0,0.0,0.0,0.0,0.0,0.0,-0.0014111842028796673,0.006131963338702917,-0.006581222638487816,1.0,-1.734723475976807e-18,8.673617379884035e-19,-4.87890977618477e-19
260.0,0.0,0.0,0.0,0.0,0.0,0.0,0.00817464292049408,-0.010597382672131062,-0.009990472346544266,1.0,0.0,8.673617379884035e-19,1.7076184216646695e-18
261.0,0.0,0.0,0.0,0.0,0.0,0.0,0.023915953934192657,-0.03186677396297455,0.0002892114862333983,1.0,1.734723475976807e-18,0.0,-8.131516293641283e-20
262.0,0.0,0.0,0.0,0.0,0.0,0.0,0.014626300893723965,-0.026846230030059814,0.011614244431257248,1.0,1.734723475976807e-18,-8.673617379884035e-19,-2.222614453595284e-18
263.0,0.0,0.0,0.0,0.0,0.0,0.0,-0.012798831798136234,0.012154036201536655,0.0017870134906843305,1.0,1.734723475976807e-18,0.0,9.75781955236954e-19
264.0,0.0,0.0,0.0,0.0,0.0,0.0,-0.006929236929863691,0.00466167600825429,-0.010085917077958584,1.0,1.734723475976807e-18,8.673617379884035e-19,-9.486769009248164e-19
265.0,0.0,0.0,0.0,0.0,0.0,0.0,-0.010015254840254784,0.006545567885041237,-0.007880650460720062,1.0,0.0,0.0,-1.1519648082658485e-18
266.0,0.0,0.0,0.0,0.0,0.0,0.0,-0.009142749942839146,0.005257952492684126,-0.002277631312608719,1.0,1.734723475976807e-18,0.0,3.6591823321385775e-19
267.0,0.0,0.0,0.0,0.0,0.0,0.0,-0.002933514304459095,0.0005042378325015306,0.0038312727119773626,1.0,3.469446951953614e-18,0.0,3.3881317890172014e-18
268.0,0.0,0.0,0.0,0.0,0.0,0.0,0.008105057291686535,-0.011826048605144024,0.005241777747869492,1.0,0.0,-2.168404344971009e-19,-1.4907779871675686e-18
269.0,0.0,0.0,0.0,0.0,0.0,0.0,0.007002121303230524,-0.01524585485458374,0.003991858102381229,1.0,1.734723475976807e-18,2.168404344971009e-19,-4.54009659728305e-19
270.0,0.0,0.0,0.0,0.0,0.0,0.0,-0.00084127695299685,-0.006367920432239771,0.006716406904160976,1.0,1.734723475976807e-18,-2.168404344971009e-19,-2.710505431213761e-20
271.0,0.0,0.0,0.0,0.0,0.0,0.0,-0.010618630796670914,0.004956510383635759,0.0026606053579598665,1.0,-1.734723475976807e-18,0.0,9.622294280808852e-19
272.0,0.0,0.0,0.0,0.0,0.0,0.0,-0.011067678220570087,0.008876572363078594,0.000870649004355073,1.0,5.204170427930421e-18,1.0842021724855044e-19,-3.049318610115481e-19
273.0,0.0,0.0,0.0,0.0,0.0,0.0,-0.008795901201665401,0.005652588326483965,0.00013165954442229122,1.0,0.0,-1.0842021724855044e-19,-1.0672615135404184e-18
274.0,0.0,0.0,0.0,0.0,0.0,0.0,-0.0013322917511686683,-0.004769768565893173,0.0006840116111561656,1.0,0.0,0.0,2.371692252312041e-20
275.0,0.0,0.0,0.0,0.0,0.0,0.0,0.0015193772269412875,-0.010783849284052849,0.0028079894836992025,1.0,-3.469446951953614e-18,2.168404344971009e-19,2.1921212674941293e-18
276.0,0.0,0.0,0.0,0.0,0.0,0.0,0.0038820502813905478,-0.011250709183514118,0.006239541806280613,1.0,1.734723475976807e-18,0.0,-3.3881317890172014e-20
277.0,0.0,0.0,0.0,0.0,0.0,0.0,0.0013305044267326593,-0.01057489588856697,0.00087912124581635,1.0,1.734723475976807e-18,-1.0842021724855044e-19,-3.333921680392926e-18
278.0,0.0,0.0,0.0,0.0,0.0,0.0,-0.0009150254772976041,-0.008593510836362839,-0.002403858583420515,1.0,-1.734723475976807e-18,1.0842021724855044e-19,-1.0706496453294356e-18
279.0,0.0,0.0,0.0,0.0,0.0,0.0,0.0019934799056500196,-0.011025452986359596,-0.0013911386486142874,1.0,-1.734723475976807e-18,0.0,-1.179069862577986e-18
280.0,0.0,0.0,0.0,0.0,0.0,0.0,0.001992716919630766,-0.01125767920166254,-0.00023379917547572404,1.0,0.0,0.0,-2.673235981534572e-18
281.0,0.0,0.0,0.0,0.0,0.0,0.0,0.002396923489868641,-0.007906974293291569,-0.0016208362067118287,1.0,0.0,-1.0842021724855044e-19,-1.6771252355635147e-18
282.0,0.0,0.0,0.0,0.0,0.0,0.0,0.0021979501470923424,-0.009042594581842422,-0.003602308453992009,1.0,0.0,0.0,1.2739375526704677e-18
283.0,0.0,0.0,0.0,0.0,0.0,0.0,0.0029170666821300983,-0.008392262272536755,-0.002438304014503956,1.0,-1.734723475976807e-18,-1.0842021724855044e-19,-1.844837759119866e-18
284.0,0.0,0.0,0.0,0.0,0.0,0.0,0.0037886903155595064,-0.009041724726557732,0.00023500747920479625,1.0,1.734723475976807e-18,-8.131516293641283e-20,-2.682553343954369e-18
285.0,0.0,0.0,0.0,0.0,0.0,0.0,0.003353084670379758,-0.007967540994286537,0.00101788982283324,1.0,-3.469446951953614e-18,8.131516293641283e-20,3.4364126670106965e-18
286.0,0.0,0.0,0.0,0.0,0.0,0.0,0.0031564917881041765,-0.005423043388873339,-0.0007152707548812032,1.0,0.0,-1.0842021724855044e-19,-3.372885195966624e-18
287.0,0.0,0.0,0.0,0.0,0.0,0.0,0.006686161272227764,-0.008244380354881287,-4.633629941963591e-06,1.0,-1.734723475976807e-18,-1.6263032587282567e-19,-2.9087111408712674e-18
288.0,0.0,0.0,0.0,0.0,0.0,0.0,0.004237155430018902,-0.009610236622393131,-0.0026107283774763346,1.0,-1.734723475976807e-18,-1.0842021724855044e-19,-1.1146953585866592e-18
289.0,0.0,0.0,0.0,0.0,0.0,0.0,0.00150060944724828,-0.005631574895232916,0.0024282510858029127,1.0,1.734723475976807e-18,5.421010862427522e-20,-3.181455749887152e-18
290.0,0.0,0.0,0.0,0.0,0.0,0.0,0.0035231029614806175,-0.0066102067939937115,0.005146114155650139,1.0,-1.734723475976807e-18,1.0842021724855044e-19,-5.658180087658726e-19
291.0,0.0,0.0,0.0,0.0,0.0,0.0,3.506699067656882e-05,-0.0054048700258135796,-0.0005968984332866967,1.0,0.0,1.0842021724855044e-19,2.6325784000663655e-18
292.0,0.0,0.0,0.0,0.0,0.0,0.0,-0.0010852694977074862,-0.0011656214483082294,-0.00033776037162169814,1.0,0.0,1.0842021724855044e-19,-3.8624702394796095e-19
293.0,0.0,0.0,0.0,0.0,0.0,0.0,0.0009431920479983091,-0.003912966698408127,0.00289590610191226,1.0,1.734723475976807e-18,0.0,3.3881317890172014e-19
294.0,0.0,0.0,0.0,0.0,0.0,0.0,-0.00022250441543292254,-0.0027847241144627333,9.063228935701773e-05,1.0,1.734723475976807e-18,0.0,3.3881317890172014e-19
295.0,0.0,0.0,0.0,0.0,0.0,0.0,-0.002177360700443387,-0.0029439255595207214,-0.0021740575321018696,1.0,-1.734723475976807e-18,-2.168404344971009e-19,3.859082107690592e-18
296.0,0.0,0.0,0.0,0.0,0.0,0.0,-0.0018647955730557442,-0.006249392405152321,-0.001881061471067369,1.0,1.734723475976807e-18,2.168404344971009e-19,-8.809142651444724e-19
297.0,0.0,0.0,0.0,0.0,0.0,0.0,-0.0030980859883129597,-0.010774383321404457,-0.0052734725177288055,1.0,1.734723475976807e-18,1.0842021724855044e-19,5.082197683525802e-20
298.0,0.0,0.0,0.0,0.0,0.0,0.0,-0.0024841343984007835,-0.01073761098086834,-0.004157898016273975,1.0,1.734723475976807e-18,-3.2526065174565133e-19,-8.843023969334896e-19
299.0,0.0,0.0,0.0,0.0,0.0,0.0,-0.001552731147967279,-0.0038927290588617325,-0.002805724274367094,1.0,0.0,2.168404344971009e-19,1.0808140406964872e-18
300.0,0.0,0.0,0.0,0.0,0.0,0.0,-0.008856023661792278,0.0007077417685650289,-0.006630905903875828,1.0,1.734723475976807e-18,2.168404344971009e-19,-4.2012834183813297e-19
301.0,0.0,0.0,0.0,0.0,0.0,0.0,-0.011355515569448471,0.001933478401042521,-0.00777905248105526,1.0,0.0,2.168404344971009e-19,-8.944667923005412e-19
302.0,0.0,0.0,0.0,0.0,0.0,0.0,-0.00896927434951067,0.0006193405715748668,-0.011301014572381973,1.0,1.734723475976807e-18,-2.168404344971009e-19,3.347474207548995e-18
303.0,0.0,0.0,0.0,0.0,0.0,0.0,-0.00010079272760776803,0.006334354169666767,-0.0023037667851895094,1.0,1.734723475976807e-18,0.0,1.3552527156068805e-20
304.0,0.0,0.0,0.0,0.0,0.0,0.0,0.0028611556626856327,0.016055339947342873,0.0020174989476799965,1.0,-3.469446951953614e-18,0.0,-1.0977546996415732e-18
305.0,0.0,0.0,0.0,0.0,0.0,0.0,0.002128607127815485,0.021156305447220802,0.007560607511550188,1.0,0.0,-4.336808689942018e-19,1.4907779871675686e-18
306.0,0.0,0.0,0.0,0.0,0.0,0.0,0.006737216841429472,0.018448268994688988,0.01532993745058775,1.0,0.0,0.0,-2.2632720350634905e-18
307.0,0.0,0.0,0.0,0.0,0.0,0.0,0.011072991415858269,0.0066469768062233925,0.011509711854159832,1.0,0.0,0.0,-2.439454888092385e-19
308.0,0.0,0.0,0.0,0.0,0.0,0.0,0.012298593297600746,-0.002378676785156131,0.009005301631987095,1.0,-1.734723475976807e-18,0.0,-4.472333961502706e-19
309.0,0.0,0.0,0.0,0.0,0.0,0.0,0.012090638279914856,-0.007406427524983883,0.007041850592941046,1.0,1.734723475976807e-18,-4.336808689942018e-19,-1.2739375526704677e-18
310.0,0.0,0.0,0.0,0.0,0.0,0.0,0.008649451658129692,-0.006440905854105949,0.003780335420742631,1.0,1.734723475976807e-18,-4.336808689942018e-19,-3.74049749507499e-18
311.0,0.0,0.0,0.0,0.0,0.0,0.0,0.007070560939610004,-0.006314999423921108,0.004070907831192017,1.0,-1.734723475976807e-18,4.336808689942018e-19,1.5449880957918438e-18
312.0,0.0,0.0,0.0,0.0,0.0,0.0,0.0047746519558131695,-0.004481949377804995,0.0017459136433899403,1.0,1.734723475976807e-18,4.336808689942018e-19,3.9979955110402976e-18
313.0,0.0,0.0,0.0,0.0,0.0,0.0,0.0015540241729468107,0.002654146868735552,0.0015073342947289348,1.0,1.734723475976807e-18,0.0,-1.5178830414797062e-18
314.0,0.0,0.0,0.0,0.0,0.0,0.0,-0.0016906332457438111,0.00957823358476162,-0.00021667160035576671,1.0,-1.734723475976807e-18,0.0,-1.5720931501039814e-18
315.0,0.0,0.0,0.0,0.0,0.0,0.0,-0.003975764382630587,0.009742069989442825,-0.0032083187252283096,1.0,-1.734723475976807e-18,1.0842021724855044e-18,4.0657581468206416e-19
316.0,0.0,0.0,0.0,0.0,0.0,0.0,-0.002125861356034875,0.009071008302271366,0.003175431629642844,1.0,1.734723475976807e-18,-4.336808689942018e-19,8.402566836762659e-19
317.0,0.0,0.0,0.0,0.0,0.0,0.0,-0.0033925380557775497,0.00913180410861969,0.0006935844430699944,1.0,0.0,2.168404344971009e-19,-1.1722935989999517e-18
318.0,0.0,0.0,0.0,0.0,0.0,0.0,-0.0018658662447705865,0.007646113634109497,-3.000536707986612e-05,1.0,1.734723475976807e-18,-2.168404344971009e-19,-2.2327788489623357e-18
319.0,0.0,0.0,0.0,0.0,0.0,0.0,-0.0057605961337685585,0.009918424300849438,0.0033229629043489695,1.0,0.0,-1.0842021724855044e-19,-5.183841637196318e-18
320.0,0.0,0.0,0.0,0.0,0.0,0.0,-0.014297286048531532,0.00960967130959034,-0.01677280105650425,1.0,1.734723475976807e-18,0.0,6.776263578034403e-19
321.0,0.0,0.0,0.0,0.0,0.0,0.0,-0.004571595229208469,0.0036470601335167885,-0.0012439637212082744,1.0,0.0,-1.0842021724855044e-19,-2.0396553369883552e-18
322.0,0.0,0.0,0.0,0.0,0.0,0.0,-0.003414679551497102,0.004256948363035917,0.005457987077534199,1.0,-1.734723475976807e-18,1.0842021724855044e-19,1.91260039490021e-18
323.0,0.0,0.0,0.0,0.0,0.0,0.0,-0.0025033007841557264,-0.00053298135753721,-0.0007411465048789978,1.0,8.673617379884035e-19,2.710505431213761e-20,9.431711867676634e-19
324.0,0.0,0.0,0.0,0.0,0.0,0.0,-0.0009299339726567268,-0.0006354745710268617,0.0014227873180061579,1.0,-8.673617379884035e-19,-5.421010862427522e-20,2.862971361719535e-18
325.0,0.0,0.0,0.0,0.0,0.0,0.0,-0.0026960442773997784,-0.0009381919517181814,-0.008557874709367752,1.0,-8.673617379884035e-19,-1.0842021724855044e-19,3.049318610115481e-20
326.0,0.0,0.0,0.0,0.0,0.0,0.0,-0.009737099520862103,0.014315465465188026,0.009825141169130802,1.0,1.734723475976807e-18,0.0,-6.437450399132683e-19
327.0,0.0,0.0,0.0,0.0,0.0,0.0,-0.026463737711310387,0.03497583791613579,-0.015485480427742004,1.0,0.0,-5.421010862427522e-20,1.421321285492716e-18
328.0,0.0,0.0,0.0,0.0,0.0,0.0,-0.001110699842683971,0.0022703013382852077,-0.009752918966114521,1.0,-1.734723475976807e-18,-5.421010862427522e-20,1.6991480921921265e-18
329.0,0.0,0.0,0.0,0.0,0.0,0.0,0.001413946971297264,0.0017449203878641129,0.007617086637765169,1.0,-2.6020852139652106e-18,-1.0842021724855044e-19,3.5744790374131474e-19
330.0,0.0,0.0,0.0,0.0,0.0,0.0,-0.004564544651657343,0.007977756671607494,-0.0023082131519913673,1.0,1.734723475976807e-18,-5.421010862427522e-20,-1.565316886525947e-18
331.0,0.0,0.0,0.0,0.0,0.0,0.0,-0.003058362752199173,0.007960914634168148,0.0023437421768903732,1.0,0.0,-5.421010862427522e-20,-1.3671111768684407e-18
332.0,0.0,0.0,0.0,0.0,0.0,0.0,0.003916859161108732,-0.0015256736660376191,0.0032387811224907637,1.0,-8.673617379884035e-19,0.0,1.531435568635775e-18
333.0,0.0,0.0,0.0,0.0,0.0,0.0,0.00040796014945954084,0.002203521318733692,0.0022405562922358513,1.0,-8.673617379884035e-19,-1.0842021724855044e-19,-4.111497925972374e-18
334.0,0.0,0.0,0.0,0.0,0.0,0.0,-0.000266159389866516,0.0005430211313068867,-0.002441431162878871,1.0,8.673617379884035e-19,5.421010862427522e-20,1.4026865606531214e-18
335.0,0.0,0.0,0.0,0.0,0.0,0.0,0.00038450091960839927,0.0026562910061329603,-0.003931471612304449,1.0,8.673617379884035e-19,0.0,-2.583450489125616e-18
336.0,0.0,0.0,0.0,0.0,0.0,0.0,0.005662753712385893,0.0028749362099915743,-0.003293151268735528,1.0,0.0,5.421010862427522e-20,-9.16489648929153e-19
337.0,0.0,0.0,0.0,0.0,0.0,0.0,0.00801799539476633,-0.005335330031812191,0.0017530249897390604,1.0,-2.6020852139652106e-18,0.0,3.1153871800013166e-18
338.0,0.0,0.0,0.0,0.0,0.0,0.0,-0.0009715937194414437,0.013421451672911644,0.006191614083945751,1.0,0.0,1.0842021724855044e-19,-1.960034239946451e-18
339.0,0.0,0.0,0.0,0.0,0.0,0.0,-0.013790443539619446,0.015579414553940296,-0.018548205494880676,1.0,0.0,5.421010862427522e-20,-9.283481101907132e-19
340.0,0.0,0.0,0.0,0.0,0.0,0.0,0.003655933542177081,0.0018119653686881065,0.0012371946359053254,1.0,8.673617379884035e-19,-2.710505431213761e-20,-4.408806490458633e-18
341.0,0.0,0.0,0.0,0.0,0.0,0.0,0.0017531038029119372,0.0011735925218090415,0.003674934385344386,1.0,8.673617379884035e-19,0.0,-5.658180087658726e-19
342.0,0.0,0.0,0.0,0.0,0.0,0.0,-0.0018868065671995282,0.0038792695850133896,-0.0002478135866113007,1.0,0.0,2.710505431213761e-20,1.1892342579450377e-18
343.0,0.0,0.0,0.0,0.0,0.0,0.0,0.001882752520032227,0.0020244144834578037,0.002702901139855385,1.0,0.0,-5.421010862427522e-20,-1.1096131609031334e-18
344.0,0.0,0.0,0.0,0.0,0.0,0.0,0.00491171283647418,-0.00402632262557745,0.00029551851912401617,1.0,1.734723475976807e-18,8.131516293641283e-20,-1.796556881126371e-18
345.0,0.0,0.0,0.0,0.0,0.0,0.0,0.004116806201636791,-0.008336362428963184,-0.002177477814257145,1.0,-8.673617379884035e-19,1.3552527156068805e-20,2.5508397206563255e-18
346.0,0.0,0.0,0.0,0.0,0.0,0.0,0.008789354003965855,-0.007063934579491615,0.0018877130933105946,1.0,-8.673617379884035e-19,1.3552527156068805e-20,-2.3843977465208555e-18
347.0,0.0,0.0,0.0,0.0,0.0,0.0,0.007519453763961792,-0.005554182454943657,-0.0003895715344697237,1.0,-8.673617379884035e-19,1.3552527156068805e-20,8.190808599949084e-19
348.0,0.0,0.0,0.0,0.0,0.0,0.0,0.0030829627066850662,-0.0025887794326990843,-0.0022509610280394554,1.0,8.673617379884035e-19,2.710505431213761e-20,-4.849263623030869e-19
349.0,0.0,0.0,0.0,0.0,0.0,0.0,0.0007702195434831083,0.0023615024983882904,0.00013378549192566425,1.0,8.673617379884035e-19,2.710505431213761e-20,-4.0657581468206416e-19
350.0,0.0,0.0,0.0,0.0,0.0,0.0,-0.0028943552169948816,0.005259247496724129,-0.0011190143413841724,1.0,8.673617379884035e-19,0.0,1.2586909596198903e-18
351.0,0.0,0.0,0.0,0.0,0.0,0.0,-0.0010788465151563287,0.003920912742614746,-4.3579725570452865e-06,1.0,0.0,5.421010862427522e-20,3.014590259278055e-18
352.0,0.0,0.0,0.0,0.0,0.0,0.0,0.0013880135957151651,-0.0009016040130518377,0.0012117403093725443,1.0,-8.673617379884035e-19,0.0,-1.542446996950081e-18
353.0,0.0,0.0,0.0,0.0,0.0,0.0,-0.0018162261694669724,0.0013933704467490315,0.00045405354467220604,1.0,0.0,5.421010862427522e-20,1.3992984288641042e-18
354.0,0.0,0.0,0.0,0.0,0.0,0.0,-0.004828217905014753,0.005775901488959789,-0.0006958591984584928,1.0,8.673617379884035e-19,0.0,-1.3992984288641042e-18
355.0,0.0,0.0,0.0,0.0,0.0,0.0,-0.00528814597055316,0.005301599390804768,0.0009689131984487176,1.0,8.673617379884035e-19,0.0,-6.352747104407253e-19
356.0,0.0,0.0,0.0,0.0,0.0,0.0,-0.01030790712684393,0.010083618573844433,0.001005449565127492,1.0,2.6020852139652106e-18,-5.421010862427522e-20,4.0996394647108136e-19
357.0,0.0,0.0,0.0,0.0,0.0,0.0,-0.00688845245167613,0.005832957569509745,-0.001531166722998023,1.0,2.6020852139652106e-18,-1.3552527156068805e-20,-2.640201696591654e-18
358.0,0.0,0.0,0.0,0.0,0.0,0.0,0.00015891676594037563,-0.0009550608810968697,0.0017021758249029517,1.0,1.734723475976807e-18,2.710505431213761e-20,5.590417451878382e-20
359.0,0.0,0.0,0.0,0.0,0.0,0.0,0.00018861950957216322,-0.0012529862578958273,0.007578156888484955,1.0,0.0,-2.710505431213761e-20,4.518920773601692e-19
360.0,0.0,0.0,0.0,0.0,0.0,0.0,-0.007686289492994547,0.005767734721302986,0.004543175455182791,1.0,-1.734723475976807e-18,-1.3552527156068805e-20,6.407804245978782e-19
361.0,0.0,0.0,0.0,0.0,0.0,0.0,-0.015246768482029438,0.0073740738444030285,-0.009282901883125305,1.0,-2.6020852139652106e-18,-5.421010862427522e-20,3.601584091725285e-18
362.0,0.0,0.0,0.0,0.0,0.0,0.0,-0.009304087609052658,0.0037738457322120667,-0.002676414093002677,1.0,-1.734723475976807e-18,5.421010862427522e-20,1.7584403984999275e-18
363.0,0.0,0.0,0.0,0.0,0.0,0.0,-0.006406146567314863,0.00054793746676296,-0.003011704422533512,1.0,-8.673617379884035e-19,0.0,-1.0333801956502464e-18
364.0,0.0,0.0,0.0,0.0,0.0,0.0,-0.0010917854961007833,-0.0026779836043715477,-0.00256419088691473,1.0,-8.673617379884035e-19,2.168404344971009e-19,-1.582257545471033e-18
365.0,0.0,0.0,0.0,0.0,0.0,0.0,0.005339873488992453,-0.00654611736536026,0.002639531856402755,1.0,-8.673617379884035e-19,0.0,-1.1722935989999517e-18
366.0,0.0,0.0,0.0,0.0,0.0,0.0,0.005742119625210762,-0.008134945295751095,0.001979673746973276,1.0,0.0,6.505213034913027e-19,1.7279472123987727e-18
367.0,0.0,0.0,0.0,0.0,0.0,0.0,0.0066580986604094505,-0.00829799473285675,0.004809660371392965,1.0,8.673617379884035e-19,0.0,5.89534931288993e-19
368.0,0.0,0.0,0.0,0.0,0.0,0.0,0.005344919860363007,-0.0032186664175242186,0.0062236487865448,1.0,-8.673617379884035e-19,2.168404344971009e-19,-9.961107459710572e-19
369.0,0.0,0.0,0.0,0.0,0.0,0.0,-0.0003817057586275041,0.005375164560973644,0.0042011793702840805,1.0,-8.673617379884035e-19,-2.168404344971009e-19,1.6263032587282567e-18
370.0,0.0,0.0,0.0,0.0,0.0,0.0,-0.002314477227628231,0.00880030170083046,0.002617256250232458,1.0,8.673617379884035e-19,0.0,-1.1926223897340549e-18
371.0,0.0,0.0,0.0,0.0,0.0,0.0,-0.003083655843511224,0.01132299192249775,0.001622824463993311,1.0,0.0,2.168404344971009e-19,2.1006417091906648e-19
372.0,0.0,0.0,0.0,0.0,0.0,0.0,0.0013156207278370857,0.006505218800157309,0.0012993613490834832,1.0,8.673617379884035e-19,4.336808689942018e-19,-2.5275463146068322e-18
373.0,0.0,0.0,0.0,0.0,0.0,0.0,0.005784754641354084,-0.002811422338709235,-0.0006297490908764303,1.0,-8.673617379884035e-19,0.0,-7.250602028496811e-19
374.0,0.0,0.0,0.0,0.0,0.0,0.0,0.004994421266019344,-0.006705255247652531,-0.0014406119007617235,1.0,-8.673617379884035e-19,1.0842021724855044e-19,1.904130065427667e-18
375.0,0.0,0.0,0.0,0.0,0.0,0.0,0.0007273316150531173,-0.005640232935547829,0.0007745508337393403,1.0,-1.734723475976807e-18,1.0842021724855044e-19,3.530433324155924e-18
376.0,0.0,0.0,0.0,0.0,0.0,0.0,-0.0029526613652706146,-0.003425859147682786,0.0015055068070068955,1.0,1.734723475976807e-18,-1.0842021724855044e-19,-2.1650162131819917e-18
377.0,0.0,0.0,0.0,0.0,0.0,0.0,-0.008357197977602482,-0.0007338804425671697,-0.0023105673026293516,1.0,1.734723475976807e-18,1.0842021724855044e-19,2.2344729148568443e-18
378.0,0.0,0.0,0.0,0.0,0.0,0.0,-0.007296669762581587,-0.003209300572052598,-0.004558539483696222,1.0,-1.734723475976807e-18,-1.6263032587282567e-19,-9.994988777600744e-19
379.0,0.0,0.0,0.0,0.0,0.0,0.0,-0.0061808242462575436,-0.0028479103930294514,-0.0030500434804707766,1.0,0.0,8.131516293641283e-20,-3.3517093722852664e-18
380.0,0.0,0.0,0.0,0.0,0.0,0.0,-0.005078061483800411,-0.0029649112839251757,-0.0010832849657163024,1.0,-1.734723475976807e-18,4.404571325722362e-20,2.8041025718853613e-18
381.0,0.0,0.0,0.0,0.0,0.0,0.0,-0.006978308781981468,-0.0003598848998080939,-0.0007103255484253168,1.0,0.0,8.470329472543003e-20,3.0671063020078215e-18
382.0,0.0,0.0,0.0,0.0,0.0,0.0,-0.007548942230641842,0.0021090167574584484,-0.00355249154381454,1.0,-1.734723475976807e-18,-9.486769009248164e-20,-1.8579667698023078e-18
383.0,0.0,0.0,0.0,0.0,0.0,0.0,-0.010236535221338272,0.003407219657674432,-0.00026581931160762906,1.0,-1.734723475976807e-18,-4.0657581468206416e-20,2.6192376311471102e-18
384.0,0.0,0.0,0.0,0.0,0.0,0.0,-0.005695656407624483,0.006782246753573418,0.0058593470603227615,1.0,-1.734723475976807e-18,-1.3552527156068805e-20,3.4209543157233055e-18
385.0,0.0,0.0,0.0,0.0,0.0,0.0,-0.0010020910995081067,-0.0003818338445853442,-0.0034635611809790134,1.0,1.734723475976807e-18,-3.3881317890172014e-20,1.9757043494706555e-19
386.0,0.0,0.0,0.0,0.0,0.0,0.0,0.0033143276814371347,-0.005428023170679808,0.003506910754367709,1.0,1.734723475976807e-18,-2.710505431213761e-20,-4.362219678359647e-18
387.0,0.0,0.0,0.0,0.0,0.0,0.0,0.0012061870656907558,0.0013504258822649717,0.005889880005270243,1.0,-1.734723475976807e-18,-5.421010862427522e-20,-1.421321285492716e-18
388.0,0.0,0.0,0.0,0.0,0.0,0.0,0.00019853624689858407,0.003527216613292694,0.007208072114735842,1.0,-1.734723475976807e-18,0.0,6.776263578034403e-19
389.0,0.0,0.0,0.0,0.0,0.0,0.0,-0.0033744333777576685,-3.356040906510316e-05,-0.001059614005498588,1.0,0.0,-4.336808689942018e-19,-3.516880796999855e-18
390.0,0.0,0.0,0.0,0.0,0.0,0.0,-0.0013800131855532527,-0.0034918952733278275,-0.005463287699967623,1.0,8.673617379884035e-19,-2.168404344971009e-19,-1.5517643593698782e-18
391.0,0.0,0.0,0.0,0.0,0.0,0.0,0.0008964884327724576,-0.0019518800545483828,0.0020777075551450253,1.0,-8.673617379884035e-19,4.336808689942018e-19,2.087089182034596e-18
392.0,0.0,0.0,0.0,0.0,0.0,0.0,0.00297162844799459,-0.001478808932006359,0.0027793196495622396,1.0,0.0,2.168404344971009e-19,-2.574980159653073e-19
393.0,0.0,0.0,0.0,0.0,0.0,0.0,0.0061056301929056644,-0.008442184887826443,0.0014209821820259094,1.0,-8.673617379884035e-19,4.336808689942018e-19,-3.1238575094738597e-18
394.0,0.0,0.0,0.0,0.0,0.0,0.0,0.006587381009012461,-0.008012752048671246,0.003849529894068837,1.0,-8.673617379884035e-19,-4.336808689942018e-19,2.4936649967166602e-18
395.0,0.0,0.0,0.0,0.0,0.0,0.0,-2.572166886238847e-05,0.0003275297931395471,-0.0012701995437964797,1.0,0.0,0.0,1.2197274440461925e-18
396.0,0.0,0.0,0.0,0.0,0.0,0.0,-0.007584260310977697,0.007992320694029331,-0.005366655997931957,1.0,-2.6020852139652106e-18,0.0,2.425902360936316e-18
397.0,0.0,0.0,0.0,0.0,0.0,0.0,-0.0060301898047327995,0.008214138448238373,-0.005350375548005104,1.0,8.673617379884035e-19,8.673617379884035e-19,-3.63207727782644e-18
398.0,0.0,0.0,0.0,0.0,0.0,0.0,-0.0001373219129163772,0.0016951356083154678,-0.003587400307878852,1.0,-8.673617379884035e-19,0.0,-2.4530074152484538e-18
399.0,0.0,0.0,0.0,0.0,0.0,0.0,-0.0016553400782868266,-0.0025377285201102495,-0.007366658188402653,1.0,-8.673617379884035e-19,-4.336808689942018e-19,1.5449880957918438e-18
400.0,0.0,0.0,0.0,0.0,0.0,0.0,0.0011850757291540504,-0.008737524971365929,-0.006543286610394716,1.0,-2.6020852139652106e-18,0.0,1.7753810574450135e-18
401.0,0.0,0.0,0.0,0.0,0.0,0.0,0.013346873223781586,-0.013157223351299763,0.0021222627256065607,1.0,-8.673617379884035e-19,0.0,-3.5236570605778894e-19
402.0,0.0,0.0,0.0,0.0,0.0,0.0,0.014854509383440018,-0.012693926692008972,0.002718693343922496,1.0,8.673617379884035e-19,0.0,3.0086610286472748e-18
403.0,0.0,0.0,0.0,0.0,0.0,0.0,0.0033132208045572042,-0.0035392078571021557,-0.0038176889065653086,1.0,0.0,0.0,9.215718466126788e-19
404.0,0.0,0.0,0.0,0.0,0.0,0.0,-0.005030129104852676,0.003346429206430912,-0.005930701270699501,1.0,0.0,-8.673617379884035e-19,-3.3881317890172014e-18
405.0,0.0,0.0,0.0,0.0,0.0,0.0,-0.002674571704119444,0.002003774279728532,-0.0006388425827026367,1.0,-1.734723475976807e-18,0.0,2.7376104855258987e-18
406.0,0.0,0.0,0.0,0.0,0.0,0.0,-0.002232191152870655,-0.002951561938971281,9.711374877952039e-05,1.0,1.734723475976807e-18,8.673617379884035e-19,-6.993104012531504e-18
407.0,0.0,0.0,0.0,0.0,0.0,0.0,-0.0011433102190494537,0.00021152869157958776,0.006480804644525051,1.0,0.0,0.0,2.3310346708438345e-18
408.0,0.0,0.0,0.0,0.0,0.0,0.0,0.0026595094241201878,-0.00363600323908031,0.008438634686172009,1.0,0.0,0.0,2.710505431213761e-19
409.0,0.0,0.0,0.0,0.0,0.0,0.0,0.0030389686580747366,-0.005281632766127586,0.001984519185498357,1.0,-3.469446951953614e-18,0.0,-2.7376104855258987e-18
410.0,0.0,0.0,0.0,0.0,0.0,0.0,0.0044269864447414875,-0.003832024522125721,-0.0071779461577534676,1.0,1.734723475976807e-18,-8.673617379884035e-19,4.336808689942018e-19
411.0,0.0,0.0,0.0,0.0,0.0,0.0,0.004711161367595196,-0.0022673318162560463,-0.007581381592899561,1.0,0.0,0.0,-7.047314121155779e-19
412.0,0.0,0.0,0.0,0.0,0.0,0.0,0.004888786468654871,-0.0035026913974434137,-0.006216723471879959,1.0,0.0,0.0,-7.047314121155779e-19
413.0,0.0,0.0,0.0,0.0,0.0,0.0,0.005007708445191383,-0.0012263436801731586,0.0004093664756510407,1.0,-1.734723475976807e-18,-8.673617379884035e-19,-2.439454888092385e-19
414.0,0.0,0.0,0.0,0.0,0.0,0.0,-0.0009530395036563277,0.0025882062036544085,0.0037966964300721884,1.0,-1.734723475976807e-18,0.0,4.0657581468206416e-19
415.0,0.0,0.0,0.0,0.0,0.0,0.0,-0.0024115019477903843,0.0008791632135398686,-0.0017351721180602908,1.0,-1.734723475976807e-18,0.0,4.445228907190568e-18
416.0,0.0,0.0,0.0,0.0,0.0,0.0,0.003360364818945527,-0.005255125463008881,-0.005574194714426994,1.0,0.0,8.673617379884035e-19,3.415236843329339e-18
417.0,0.0,0.0,0.0,0.0,0.0,0.0,0.008974887430667877,-0.009343504905700684,-0.0012475944822654128,1.0,-1.734723475976807e-18,-1.734723475976807e-18,-2.0599841277224584e-18
418.0,0.0,0.0,0.0,0.0,0.0,0.0,0.004529399797320366,-0.006029883865267038,-0.004191102460026741,1.0,-1.734723475976807e-18,-8.673617379884035e-19,-3.686287386450715e-18
419.0,0.0,0.0,0.0,0.0,0.0,0.0,0.0014875826891511679,-0.004657977260649204,-0.0031065642833709717,1.0,0.0,-8.673617379884035e-19,1.0191500421363742e-17
420.0,0.0,0.0,0.0,0.0,0.0,0.0,0.0018807357409968972,-0.0037518013268709183,0.002849557204172015,1.0,-1.734723475976807e-18,-8.673617379884035e-19,-2.0599841277224584e-18
421.0,0.0,0.0,0.0,0.0,0.0,0.0,-0.00017950538313016295,-0.0056914365850389,0.0009745669667609036,1.0,-1.734723475976807e-18,8.673617379884035e-19,-1.4907779871675686e-18
422.0,0.0,0.0,0.0,0.0,0.0,0.0,-0.0018705527763813734,-0.005767928436398506,-0.0007282443693839014,1.0,1.734723475976807e-18,0.0,-5.421010862427522e-19
423.0,0.0,0.0,0.0,0.0,0.0,0.0,-0.001925417804159224,-0.0013897746102884412,0.0031862398609519005,1.0,0.0,0.0,2.4665599424045226e-18
424.0,0.0,0.0,0.0,0.0,0.0,0.0,0.006844613701105118,-0.006060824263840914,0.007715936284512281,1.0,3.469446951953614e-18,8.673617379884035e-19,-1.4094628242311558e-18
425.0,0.0,0.0,0.0,0.0,0.0,0.0,0.0012175018200650811,-0.004801930394023657,0.0036322001833468676,1.0,3.469446951953614e-18,8.673617379884035e-19,2.439454888092385e-18
426.0,0.0,0.0,0.0,0.0,0.0,0.0,-0.004032100550830364,-0.0009041564189828932,-0.002772057196125388,1.0,-1.734723475976807e-18,-8.673617379884035e-19,1.599198204416119e-18
427.0,0.0,0.0,0.0,0.0,0.0,0.0,0.0044526271522045135,-0.00806761346757412,0.0035554771311581135,1.0,3.469446951953614e-18,0.0,-1.4365678785432934e-18
428.0,0.0,0.0,0.0,0.0,0.0,0.0,-0.002711150562390685,-0.001804210478439927,0.0008567529148422182,1.0,-5.204170427930421e-18,8.673617379884035e-19,-1.4907779871675686e-18
429.0,0.0,0.0,0.0,0.0,0.0,0.0,-0.007774466648697853,0.00544703146442771,-0.0016387657960876822,1.0,0.0,0.0,9.215718466126788e-19
430.0,0.0,0.0,0.0,0.0,0.0,0.0,-0.004538769833743572,0.003752725198864937,0.002119207987561822,1.0,0.0,-8.673617379884035e-19,-2.5478751053409354e-18
431.0,0.0,0.0,0.0,0.0,0.0,0.0,-0.003312699729576707,0.00466835917904973,0.0029348169919103384,1.0,3.469446951953614e-18,0.0,-2.1412992906588713e-18
432.0,0.0,0.0,0.0,0.0,0.0,0.0,-0.00251517491415143,0.002405480481684208,0.0010757539421319962,1.0,0.0,0.0,-4.87890977618477e-19
433.0,0.0,0.0,0.0,0.0,0.0,0.0,0.0028127648402005434,-0.0019801079761236906,0.002513397019356489,1.0,3.469446951953614e-18,0.0,2.656295322589486e-18
434.0,0.0,0.0,0.0,0.0,0.0,0.0,0.0036256557796150446,-0.004349451512098312,0.003381981747224927,1.0,1.734723475976807e-18,-8.673617379884035e-19,1.599198204416119e-18
435.0,0.0,0.0,0.0,0.0,0.0,0.0,0.00261586531996727,-0.002670731395483017,0.005935976281762123,1.0,0.0,0.0,-7.318364664277155e-19
436.0,0.0,0.0,0.0,0.0,0.0,0.0,-0.008231247775256634,0.005083158146589994,-0.002961986232548952,1.0,1.734723475976807e-18,8.673617379884035e-19,-1.7889335846010823e-18
437.0,0.0,0.0,0.0,0.0,0.0,0.0,-0.011476542800664902,0.012274475768208504,-0.0028747462201863527,1.0,-3.469446951953614e-18,8.673617379884035e-19,5.421010862427522e-18
438.0,0.0,0.0,0.0,0.0,0.0,0.0,0.0006454818067140877,0.0015492327511310577,-0.003586701350286603,1.0,-3.469446951953614e-18,0.0,-2.981555974335137e-19
439.0,0.0,0.0,0.0,0.0,0.0,0.0,0.004644963890314102,-0.0029875526670366526,-0.004934819880872965,1.0,2.6020852139652106e-18,8.673617379884035e-19,-4.7704895589362195e-18
440.0,0.0,0.0,0.0,0.0,0.0,0.0,0.007096287794411182,-0.0018228451954200864,0.00011249039380345494,1.0,1.734723475976807e-18,8.673617379884035e-19,1.5449880957918438e-18
441.0,0.0,0.0,0.0,0.0,0.0,0.0,0.010305305011570454,-0.0032546210568398237,-0.004174130968749523,1.0,-2.6020852139652106e-18,1.734723475976807e-18,-5.421010862427522e-20
442.0,0.0,0.0,0.0,0.0,0.0,0.0,0.007803267799317837,-0.006256541237235069,-0.009777126833796501,1.0,0.0,8.673617379884035e-19,1.7076184216646695e-18
443.0,0.0,0.0,0.0,0.0,0.0,0.0,0.0027588908560574055,-0.008307262323796749,-0.010087089613080025,1.0,-1.734723475976807e-18,8.673617379884035e-19,-4.689174395999807e-18
444.0,0.0,0.0,0.0,0.0,0.0,0.0,0.003294935915619135,-0.008060876280069351,-0.0052635520696640015,1.0,1.734723475976807e-18,0.0,-3.1712913545201005e-18
445.0,0.0,0.0,0.0,0.0,0.0,0.0,0.011047353968024254,-0.01348790805786848,-0.00013042007049079984,1.0,3.469446951953614e-18,0.0,-3.3068166260807885e-18
446.0,0.0,0.0,0.0,0.0,0.0,0.0,0.01723824068903923,-0.019835960119962692,0.0070854658260941505,1.0,-1.734723475976807e-18,0.0,1.8973538018496328e-18
447.0,0.0,0.0,0.0,0.0,0.0,0.0,0.0047944169491529465,-0.010088752023875713,0.004303822293877602,1.0,0.0,-8.673617379884035e-19,-1.5449880957918438e-18
448.0,0.0,0.0,0.0,0.0,0.0,0.0,-0.009482949040830135,0.0033007548190653324,-0.005129418335855007,1.0,-1.734723475976807e-18,4.336808689942018e-19,-1.2197274440461925e-18
449.0,0.0,0.0,0.0,0.0,0.0,0.0,-0.010560298338532448,0.002744059544056654,-0.00651430431753397,1.0,3.469446951953614e-18,-1.3010426069826053e-18,-2.1955093992831465e-18
450.0,0.0,0.0,0.0,0.0,0.0,0.0,-0.00981513224542141,0.005425372626632452,-0.00263578281737864,1.0,-3.469446951953614e-18,0.0,-1.1519648082658485e-18
451.0,0.0,0.0,0.0,0.0,0.0,0.0,-0.0001849144755396992,-0.00455458415672183,0.0008590323268435895,1.0,0.0,4.336808689942018e-19,6.776263578034403e-20
452.0,0.0,0.0,0.0,0.0,0.0,0.0,-0.0014584856107831001,-0.00703367730602622,0.0005494819488376379,1.0,0.0,0.0,7.182839392716467e-19
453.0,0.0,0.0,0.0,0.0,0.0,0.0,-0.0024567232467234135,-0.006151651497930288,0.001370796817354858,1.0,0.0,0.0,-1.6263032587282567e-18
454.0,0.0,0.0,0.0,0.0,0.0,0.0,-0.004351077135652304,-0.0018995555583387613,0.0017155788373202085,1.0,0.0,0.0,-4.20128341838133e-18
455.0,0.0,0.0,0.0,0.0,0.0,0.0,-0.007266652304679155,0.004287593998014927,0.0030527510680258274,1.0,3.469446951953614e-18,0.0,1.2197274440461925e-19
456.0,0.0,0.0,0.0,0.0,0.0,0.0,-0.007953980937600136,0.005120878107845783,0.0014382752124220133,1.0,-1.734723475976807e-18,-2.168404344971009e-19,4.20128341838133e-18
457.0,0.0,0.0,0.0,0.0,0.0,0.0,-0.0035369752440601587,0.00022641637769993395,0.002184842713177204,1.0,-1.734723475976807e-18,0.0,4.675621868843738e-19
458.0,0.0,0.0,0.0,0.0,0.0,0.0,0.0008857764187268913,-0.005801035091280937,0.006008227355778217,1.0,1.734723475976807e-18,-2.168404344971009e-19,-5.082197683525802e-19
459.0,0.0,0.0,0.0,0.0,0.0,0.0,0.004918682388961315,-0.0038667162880301476,0.010638666339218616,1.0,0.0,0.0,-1.2536087619363645e-18
460.0,0.0,0.0,0.0,0.0,0.0,0.0,0.003679078072309494,0.0015149142127484083,0.006925240159034729,1.0,0.0,0.0,1.7618285302889447e-19
461.0,0.0,0.0,0.0,0.0,0.0,0.0,0.0023547434248030186,0.002939266851171851,-0.0006432817317545414,1.0,0.0,-1.0842021724855044e-19,9.24959978401696e-19
462.0,0.0,0.0,0.0,0.0,0.0,0.0,0.006787179037928581,0.0006968725356273353,0.004161637742072344,1.0,1.734723475976807e-18,1.0842021724855044e-19,-2.2836008257975937e-18
463.0,0.0,0.0,0.0,0.0,0.0,0.0,0.007228504400700331,-0.002573115285485983,0.0016371792880818248,1.0,-8.673617379884035e-19,0.0,4.54009659728305e-19
464.0,0.0,0.0,0.0,0.0,0.0,0.0,0.00862864125519991,-0.006135969422757626,-0.001412473153322935,1.0,8.673617379884035e-19,0.0,3.1170812458958252e-18
465.0,0.0,0.0,0.0,0.0,0.0,0.0,0.00706492131575942,-0.0037616149056702852,-0.0030307152774184942,1.0,-1.734723475976807e-18,0.0,3.1577388273640317e-18
466.0,0.0,0.0,0.0,0.0,0.0,0.0,0.0040865312330424786,0.00196848064661026,-0.0030194304417818785,1.0,0.0,-4.336808689942018e-19,-1.0706496453294356e-18
467.0,0.0,0.0,0.0,0.0,0.0,0.0,0.006217251997441053,-0.0012279836228117347,-0.0013799441512674093,1.0,8.673617379884035e-19,0.0,-9.825582188149884e-19
468.0,0.0,0.0,0.0,0.0,0.0,0.0,0.0035354928113520145,0.002331421012058854,-0.00218991213478148,1.0,0.0,-4.336808689942018e-19,-1.0842021724855044e-18
469.0,0.0,0.0,0.0,0.0,0.0,0.0,0.0004990592715330422,0.0013078717747703195,-0.006809549406170845,1.0,-8.673617379884035e-19,0.0,-5.692061405548898e-19
470.0,0.0,0.0,0.0,0.0,0.0,0.0,0.0004764562181662768,0.0013684439472854137,-0.004233440384268761,1.0,0.0,0.0,-1.9922214919421144e-18
471.0,0.0,0.0,0.0,0.0,0.0,0.0,0.005790832452476025,-0.0014960075495764613,-0.0012812925269827247,1.0,8.673617379884035e-19,4.336808689942018e-19,-1.1519648082658485e-18
472.0,0.0,0.0,0.0,0.0,0.0,0.0,0.008995268493890762,-0.007083709351718426,0.001654521212913096,1.0,0.0,-4.336808689942018e-19,-4.2012834183813297e-19
473.0,0.0,0.0,0.0,0.0,0.0,0.0,0.004464087076485157,-0.005004092585295439,0.0010351730743423104,1.0,0.0,1.3010426069826053e-18,-4.607859233063394e-19
474.0,0.0,0.0,0.0,0.0,0.0,0.0,0.0023807233665138483,-0.004895573016256094,-0.0005427275318652391,1.0,1.734723475976807e-18,0.0,2.2090619264392153e-18
475.0,0.0,0.0,0.0,0.0,0.0,0.0,-0.001175554352812469,-0.0019358418649062514,-0.0013198810629546642,1.0,0.0,0.0,1.179069862577986e-18
476.0,0.0,0.0,0.0,0.0,0.0,0.0,-0.0009448279743082821,-0.004237952176481485,-0.002898470964282751,1.0,0.0,0.0,1.2739375526704677e-18
477.0,0.0,0.0,0.0,0.0,0.0,0.0,-0.006735935341566801,0.0034843969624489546,-0.003323560580611229,1.0,0.0,-8.673617379884035e-19,-5.421010862427522e-19
478.0,0.0,0.0,0.0,0.0,0.0,0.0,-0.001231984468176961,0.0024372893385589123,0.005744812544435263,1.0,1.734723475976807e-18,-4.336808689942018e-19,1.9244588561617704e-18
479.0,0.0,0.0,0.0,0.0,0.0,0.0,-0.0006767509621568024,-0.005213986150920391,-0.002177128568291664,1.0,3.469446951953614e-18,4.336808689942018e-19,-6.776263578034403e-19
480.0,0.0,0.0,0.0,0.0,0.0,0.0,-0.003712528385221958,-0.0039180065505206585,-0.006688671186566353,1.0,-1.734723475976807e-18,-4.336808689942018e-19,-2.574980159653073e-18
481.0,0.0,0.0,0.0,0.0,0.0,0.0,0.002509224694222212,-0.0036990728694945574,0.005541389808058739,1.0,-1.734723475976807e-18,-8.673617379884035e-19,-1.5449880957918438e-18
482.0,0.0,0.0,0.0,0.0,0.0,0.0,-0.0024696411564946175,-0.0005195503472350538,0.005134431179612875,1.0,0.0,-4.336808689942018e-19,-1.0570971181733668e-18
483.0,0.0,0.0,0.0,0.0,0.0,0.0,-0.004177825525403023,0.008101570419967175,0.008436222560703754,1.0,0.0,4.336808689942018e-19,1.111307226797642e-18
484.0,0.0,0.0,0.0,0.0,0.0,0.0,0.002019984880462289,-0.00016972368757706136,0.004684231244027615,1.0,0.0,-8.673617379884035e-19,4.580754178751256e-18
485.0,0.0,0.0,0.0,0.0,0.0,0.0,-0.006379188969731331,0.0014355657622218132,-0.0050237150862813,1.0,1.734723475976807e-18,8.673617379884035e-19,4.87890977618477e-19
486.0,0.0,0.0,0.0,0.0,0.0,0.0,-0.006276625208556652,0.004480747506022453,-0.0023792136926203966,1.0,3.469446951953614e-18,-8.673617379884035e-19,3.06287113727155e-18
487.0,0.0,0.0,0.0,0.0,0.0,0.0,-0.006061805412173271,0.009074932895600796,-0.0035532917827367783,1.0,-1.734723475976807e-18,0.0,1.8973538018496328e-19
488.0,0.0,0.0,0.0,0.0,0.0,0.0,-0.0016568610444664955,0.0032067836727946997,-0.007298386190086603,1.0,0.0,-4.336808689942018e-19,-6.911788849595091e-19
489.0,0.0,0.0,0.0,0.0,0.0,0.0,0.007044157478958368,-0.0015816021477803588,0.0012332828482612967,1.0,1.734723475976807e-18,-4.336808689942018e-19,1.7753810574450135e-18
490.0,0.0,0.0,0.0,0.0,0.0,0.0,0.007448691409081221,-0.001563653931953013,0.00247806403785944,1.0,-1.734723475976807e-18,-4.336808689942018e-19,1.2468324983583301e-18
491.0,0.0,0.0,0.0,0.0,0.0,0.0,0.004663293715566397,5.1989783969474956e-05,-0.0020393484737724066,1.0,1.734723475976807e-18,4.336808689942018e-19,6.911788849595091e-19
492.0,0.0,0.0,0.0,0.0,0.0,0.0,0.0009778576204553246,0.003976950887590647,-0.004598662722855806,1.0,1.734723475976807e-18,-4.336808689942018e-19,1.2197274440461925e-19
493.0,0.0,0.0,0.0,0.0,0.0,0.0,-0.00017098509124480188,0.004638708662241697,-0.0016900328919291496,1.0,-3.469446951953614e-18,0.0,9.75781955236954e-19
494.0,0.0,0.0,0.0,0.0,0.0,0.0,-0.003225557506084442,0.0042562601156532764,-0.0031754053197801113,1.0,0.0,0.0,-1.0028870095490916e-18
495.0,0.0,0.0,0.0,0.0,0.0,0.0,-0.006487362552434206,0.0062581938691437244,-0.0032335633877664804,1.0,0.0,4.336808689942018e-19,-1.748276003132876e-18
496.0,0.0,0.0,0.0,0.0,0.0,0.0,-0.0035853073932230473,0.0030078652780503035,7.094534521456808e-05,1.0,0.0,4.336808689942018e-19,3.645629804982509e-18
497.0,0.0,0.0,0.0,0.0,0.0,0.0,-0.0015922513557597995,-0.001057883258908987,0.002153639681637287,1.0,3.469446951953614e-18,-4.336808689942018e-19,5.963111948670274e-19
498.0,0.0,0.0,0.0,0.0,0.0,0.0,-0.00384872080758214,0.0014666845090687275,0.0006437053089030087,1.0,0.0,-4.336808689942018e-19,-1.5449880957918438e-18
499.0,0.0,0.0,0.0,0.0,0.0,0.0,0.00010194850619882345,-0.0070179421454668045,-0.0008840280934236944,1.0,-3.469446951953614e-18,0.0,-4.743384504624082e-19
500.0,0.0,0.0,0.0,0.0,0.0,0.0,-0.005151619669049978,0.003933836240321398,0.011207175441086292,1.0,0.0,4.336808689942018e-19,-7.724940478959219e-19
501.0,0.0,0.0,0.0,0.0,0.0,0.0,-0.011231884360313416,0.005906965117901564,0.0015628364635631442,1.0,1.734723475976807e-18,-2.168404344971009e-19,1.748276003132876e-18
502.0,0.0,0.0,0.0,0.0,0.0,0.0,-0.010966815985739231,0.006578273139894009,-0.0016384923364967108,1.0,-1.734723475976807e-18,-2.168404344971009e-19,-5.082197683525802e-19
503.0,0.0,0.0,0.0,0.0,0.0,0.0,-0.00736700464040041,0.00759303430095315,-0.0003057343128602952,1.0,1.734723475976807e-18,2.168404344971009e-19,-8.538092108323347e-19
504.0,0.0,0.0,0.0,0.0,0.0,0.0,-0.0033044798765331507,0.007439795415848494,0.0028214326594024897,1.0,-1.734723475976807e-18,0.0,3.1916201452542037e-18
505.0,0.0,0.0,0.0,0.0,0.0,0.0,0.002331398194655776,0.0008848892757669091,0.007951190695166588,1.0,-1.734723475976807e-18,-2.168404344971009e-19,1.4365678785432934e-18
506.0,0.0,0.0,0.0,0.0,0.0,0.0,0.002532815095037222,-0.0018163357162848115,0.0047003235667943954,1.0,0.0,2.168404344971009e-19,4.2012834183813297e-19
507.0,0.0,0.0,0.0,0.0,0.0,0.0,0.0036632195115089417,-0.006163045763969421,0.0003681691305246204,1.0,-1.734723475976807e-18,0.0,4.946672411965114e-19
508.0,0.0,0.0,0.0,0.0,0.0,0.0,0.002827600110322237,-0.003077117260545492,0.0013828823575749993,1.0,0.0,0.0,-5.421010862427522e-20
509.0,0.0,0.0,0.0,0.0,0.0,0.0,0.0028845949564129114,-0.0016525109531357884,0.0035369577817618847,1.0,3.469446951953614e-18,2.168404344971009e-19,-2.0735366548785272e-18
510.0,0.0,0.0,0.0,0.0,0.0,0.0,0.00492864241823554,-0.004107603803277016,0.00020185702305752784,1.0,-1.734723475976807e-18,-2.168404344971009e-19,1.599198204416119e-18
511.0,0.0,0.0,0.0,0.0,0.0,0.0,0.0013683141442015767,-0.0028176496271044016,-0.0034395363181829453,1.0,-1.734723475976807e-18,0.0,5.963111948670274e-19
512.0,0.0,0.0,0.0,0.0,0.0,0.0,0.00018611631821841002,-0.0019896940793842077,-0.005066879093647003,1.0,-1.734723475976807e-18,4.336808689942018e-19,2.222614453595284e-18
513.0,0.0,0.0,0.0,0.0,0.0,0.0,0.000557087769266218,-0.0024535648990422487,-0.0014010410523042083,1.0,3.469446951953614e-18,4.336808689942018e-19,-4.9060148304969076e-18
514.0,0.0,0.0,0.0,0.0,0.0,0.0,0.002861353801563382,-0.004046740476042032,-0.001351183163933456,1.0,-1.734723475976807e-18,-4.336808689942018e-19,-8.809142651444724e-19
515.0,0.0,0.0,0.0,0.0,0.0,0.0,0.009282642044126987,-0.005920997820794582,0.00445645721629262,1.0,0.0,4.336808689942018e-19,-2.7376104855258987e-18
516.0,0.0,0.0,0.0,0.0,0.0,0.0,-0.003053756430745125,0.004226027522236109,-0.00859521422535181,1.0,-1.734723475976807e-18,4.336808689942018e-19,-9.215718466126788e-19
517.0,0.0,0.0,0.0,0.0,0.0,0.0,-0.0031299490947276354,0.003840451594442129,-0.00536536518484354,1.0,1.734723475976807e-18,0.0,1.6534083130403943e-18
518.0,0.0,0.0,0.0,0.0,0.0,0.0,-0.0022637227084487677,0.0008477083756588399,-0.0021375033538788557,1.0,5.204170427930421e-18,0.0,-1.5720931501039814e-18
519.0,0.0,0.0,0.0,0.0,0.0,0.0,0.0018750197486951947,-0.004173274151980877,-0.0016830096719786525,1.0,0.0,0.0,-2.981555974335137e-19
520.0,0.0,0.0,0.0,0.0,0.0,0.0,0.004371029790490866,-0.0019259483087807894,0.005161685403436422,1.0,5.204170427930421e-18,0.0,1.748276003132876e-18
521.0,0.0,0.0,0.0,0.0,0.0,0.0,0.001490513444878161,0.0015133634442463517,-0.0009311557514593005,1.0,1.734723475976807e-18,8.673617379884035e-19,-1.0706496453294356e-18
522.0,0.0,0.0,0.0,0.0,0.0,0.0,-0.003597862320020795,0.0002090746129397303,-0.007656054571270943,1.0,1.734723475976807e-18,-4.336808689942018e-19,-2.358139725155972e-18
523.0,0.0,0.0,0.0,0.0,0.0,0.0,-0.003588021034374833,0.001205537817440927,-0.006798869464546442,1.0,0.0,0.0,-9.622294280808852e-19
524.0,0.0,0.0,0.0,0.0,0.0,0.0,0.0013730705250054598,0.0028585330583155155,0.0016805692575871944,1.0,1.734723475976807e-18,-4.336808689942018e-19,3.889575293791747e-18
525.0,0.0,0.0,0.0,0.0,0.0,0.0,0.003915952518582344,0.0008494094363413751,0.00668152142316103,1.0,0.0,0.0,-4.0657581468206416e-20
526.0,0.0,0.0,0.0,0.0,0.0,0.0,0.0032134288921952248,-0.0021942921448498964,0.00508843781426549,1.0,-1.734723475976807e-18,0.0,-1.328147661294743e-18
527.0,0.0,0.0,0.0,0.0,0.0,0.0,-0.0007863126811571419,-0.0006558793829753995,0.0021458016708493233,1.0,0.0,0.0,-2.303929616531697e-18
528.0,0.0,0.0,0.0,0.0,0.0,0.0,0.004699436482042074,-0.0033469179179519415,0.005352567415684462,1.0,0.0,2.168404344971009e-19,-2.8189256484623115e-18
529.0,0.0,0.0,0.0,0.0,0.0,0.0,0.00033613204141147435,-0.00025677360827103257,-0.001382918213494122,1.0,3.469446951953614e-18,4.336808689942018e-19,-9.351243737687476e-19
530.0,0.0,0.0,0.0,0.0,0.0,0.0,-0.003500767983496189,0.005545166786760092,-0.0003735383797902614,1.0,0.0,-4.336808689942018e-19,-1.0842021724855044e-18
531.0,0.0,0.0,0.0,0.0,0.0,0.0,-0.0032568771857768297,0.0022444133646786213,-0.0004758132272399962,1.0,3.469446951953614e-18,4.336808689942018e-19,-3.2526065174565133e-19
532.0,0.0,0.0,0.0,0.0,0.0,0.0,-0.002773899119347334,0.0009595827432349324,0.003558849450200796,1.0,0.0,4.336808689942018e-19,2.9544509200229996e-18
533.0,0.0,0.0,0.0,0.0,0.0,0.0,-4.6514029236277565e-05,0.002399556105956435,0.003930214326828718,1.0,3.469446951953614e-18,0.0,-1.2197274440461925e-18
534.0,0.0,0.0,0.0,0.0,0.0,0.0,0.0009439048008061945,0.0038208758924156427,0.0036965934559702873,1.0,-1.734723475976807e-18,-4.336808689942018e-19,3.564314642046096e-18
535.0,0.0,0.0,0.0,0.0,0.0,0.0,0.00017354972078464925,0.002739003160968423,0.002301272237673402,1.0,1.734723475976807e-18,-4.336808689942018e-19,-4.0657581468206416e-19
536.0,0.0,0.0,0.0,0.0,0.0,0.0,0.002048224676400423,-0.0045197331346571445,-0.001672709477134049,1.0,3.469446951953614e-18,-4.336808689942018e-19,-6.098637220230962e-19
537.0,0.0,0.0,0.0,0.0,0.0,0.0,-0.003267446765676141,-0.006023081485182047,-0.004619625397026539,1.0,1.734723475976807e-18,0.0,-1.1519648082658485e-18
538.0,0.0,0.0,0.0,0.0,0.0,0.0,-0.004121820442378521,0.00258519034832716,-0.001277251518331468,1.0,1.734723475976807e-18,0.0,-1.5449880957918438e-18
539.0,0.0,0.0,0.0,0.0,0.0,0.0,0.0030516244005411863,-0.0028293211944401264,0.007048473693430424,1.0,1.734723475976807e-18,-8.673617379884035e-19,2.6020852139652106e-18
540.0,0.0,0.0,0.0,0.0,0.0,0.0,-0.011870083399116993,0.010034991428256035,0.0018527284264564514,1.0,1.734723475976807e-18,8.673617379884035e-19,-1.870248747537495e-18
541.0,0.0,0.0,0.0,0.0,0.0,0.0,-0.015483938157558441,0.014567053876817226,-0.002626836998388171,1.0,1.734723475976807e-18,1.734723475976807e-18,-2.168404344971009e-18
542.0,0.0,0.0,0.0,0.0,0.0,0.0,-0.005198498256504536,0.003919409122318029,-5.15145220560953e-05,1.0,0.0,0.0,3.0899761915836876e-18
543.0,0.0,0.0,0.0,0.0,0.0,0.0,-0.0032130794133991003,-0.0018721426604315639,-0.0017729246756061912,1.0,0.0,8.673617379884035e-19,-1.599198204416119e-18
544.0,0.0,0.0,0.0,0.0,0.0,0.0,-0.006151036825031042,0.004506927449256182,-0.0017798473127186298,1.0,0.0,-8.673617379884035e-19,-4.87890977618477e-19
545.0,0.0,0.0,0.0,0.0,0.0,0.0,-0.007563306950032711,0.005965875927358866,-0.004213929641991854,1.0,-1.734723475976807e-18,-1.734723475976807e-18,-2.0057740190981832e-18
546.0,0.0,0.0,0.0,0.0,0.0,0.0,-0.0026371919084340334,0.0019548649434000254,-0.004231231287121773,1.0,-1.734723475976807e-18,0.0,1.5449880957918438e-18
547.0,0.0,0.0,0.0,0.0,0.0,0.0,0.0016855119029060006,-0.002921040402725339,1.77279653144069e-05,1.0,1.734723475976807e-18,-8.673617379884035e-19,1.6263032587282567e-18
548.0,0.0,0.0,0.0,0.0,0.0,0.0,-0.0012122585903853178,-0.002414708025753498,-0.001770894043147564,1.0,-1.734723475976807e-18,-8.673617379884035e-19,1.81603863891322e-18
549.0,0.0,0.0,0.0,0.0,0.0,0.0,-0.0019049695692956448,-0.0018455690005794168,-0.0032644476741552353,1.0,1.734723475976807e-18,0.0,-1.6534083130403943e-18
550.0,0.0,0.0,0.0,0.0,0.0,0.0,0.002406194806098938,-0.008509587496519089,-0.003029023529961705,1.0,1.734723475976807e-18,0.0,2.710505431213761e-19
551.0,0.0,0.0,0.0,0.0,0.0,0.0,0.0010706069879233837,-0.003383677452802658,-0.0018164545763283968,1.0,-3.469446951953614e-18,-8.673617379884035e-19,1.2197274440461925e-18
552.0,0.0,0.0,0.0,0.0,0.0,0.0,-0.0020707782823592424,0.0032261675223708153,0.0009311531321145594,1.0,1.734723475976807e-18,-8.673617379884035e-19,-2.1412992906588713e-18
553.0,0.0,0.0,0.0,0.0,0.0,0.0,-0.005458897911012173,0.0031798691488802433,0.0004932822193950415,1.0,1.734723475976807e-18,0.0,-2.6291902682773483e-18
554.0,0.0,0.0,0.0,0.0,0.0,0.0,-0.00722340727224946,0.01119090523570776,-0.0010556332999840379,1.0,1.734723475976807e-18,8.673617379884035e-19,-5.421010862427522e-19
555.0,0.0,0.0,0.0,0.0,0.0,0.0,0.004388263449072838,-0.003907148260623217,0.00046350760385394096,1.0,5.204170427930421e-18,0.0,2.6834003769016235e-18
556.0,0.0,0.0,0.0,0.0,0.0,0.0,0.007660427130758762,-0.017107395455241203,0.00037732586497440934,1.0,-1.734723475976807e-18,1.734723475976807e-18,1.3010426069826053e-18
557.0,0.0,0.0,0.0,0.0,0.0,0.0,-0.0005900480900891125,-0.005866022314876318,0.004294185899198055,1.0,3.469446951953614e-18,8.673617379884035e-19,7.860465750519907e-19
558.0,0.0,0.0,0.0,0.0,0.0,0.0,-0.003555266885086894,0.0027195243164896965,0.004639104008674622,1.0,-1.734723475976807e-18,-8.673617379884035e-19,2.087089182034596e-18
559.0,0.0,0.0,0.0,0.0,0.0,0.0,0.0012144676875323057,5.7817884226096794e-05,0.0028380800504237413,1.0,1.734723475976807e-18,-8.673617379884035e-19,-1.8431436932253575e-18
560.0,0.0,0.0,0.0,0.0,0.0,0.0,0.010104211047291756,-0.010488487780094147,0.0009966462384909391,1.0,0.0,0.0,-8.131516293641283e-19
561.0,0.0,0.0,0.0,0.0,0.0,0.0,0.006926217582076788,-0.008401830680668354,0.0008589499047957361,1.0,1.734723475976807e-18,-1.734723475976807e-18,-3.2526065174565133e-19
562.0,0.0,0.0,0.0,0.0,0.0,0.0,0.003236107062548399,-0.004071514122188091,0.0007033541332930326,1.0,-3.469446951953614e-18,0.0,-1.0028870095490916e-18
563.0,0.0,0.0,0.0,0.0,0.0,0.0,0.0006951136747375131,-0.002881597960367799,-0.002650771290063858,1.0,1.734723475976807e-18,-8.673617379884035e-19,-1.6534083130403943e-18
564.0,0.0,0.0,0.0,0.0,0.0,0.0,-0.0016202577389776707,-0.002028175862506032,-0.00672342162579298,1.0,0.0,8.673617379884035e-19,-1.1655173354219173e-18
565.0,0.0,0.0,0.0,0.0,0.0,0.0,-0.0008124033338390291,-0.0004516412445809692,-0.0058998847380280495,1.0,0.0,8.673617379884035e-19,-3.903127820947816e-18
566.0,0.0,0.0,0.0,0.0,0.0,0.0,0.001891417196020484,-0.003849086817353964,-0.0011283477069810033,1.0,0.0,0.0,-2.9002408113987244e-18
567.0,0.0,0.0,0.0,0.0,0.0,0.0,0.003328589489683509,-0.00674367044121027,0.0002577982086222619,1.0,0.0,-8.673617379884035e-19,1.2197274440461925e-18
568.0,0.0,0.0,0.0,0.0,0.0,0.0,0.0005941495765000582,-0.007220872677862644,-0.0017937602242454886,1.0,1.734723475976807e-18,1.734723475976807e-18,-2.9544509200229996e-18
569.0,0.0,0.0,0.0,0.0,0.0,0.0,0.0009479887667112052,-0.007952437736093998,0.0028867367655038834,1.0,-1.734723475976807e-18,8.673617379884035e-19,-8.673617379884035e-19
570.0,0.0,0.0,0.0,0.0,0.0,0.0,0.0005078736576251686,-0.008102712221443653,0.0026076133362948895,1.0,-1.734723475976807e-18,8.673617379884035e-19,-2.710505431213761e-18
571.0,0.0,0.0,0.0,0.0,0.0,0.0,-0.010011219419538975,0.0022939087357372046,-0.0037919606547802687,1.0,-3.469446951953614e-18,0.0,-1.7076184216646695e-18
572.0,0.0,0.0,0.0,0.0,0.0,0.0,-0.011055702343583107,0.007111063692718744,-0.000783672381658107,1.0,1.734723475976807e-18,0.0,-7.318364664277155e-19
573.0,0.0,0.0,0.0,0.0,0.0,0.0,-0.007662793155759573,0.003114484716206789,-0.00010444819781696424,1.0,-1.734723475976807e-18,0.0,-1.6263032587282567e-19
574.0,0.0,0.0,0.0,0.0,0.0,0.0,-0.004386820364743471,0.0020506649743765593,0.0006777578382752836,1.0,0.0,0.0,-4.797594613248357e-18
575.0,0.0,0.0,0.0,0.0,0.0,0.0,-0.000842637789901346,-0.0013164372649043798,0.0001662527647567913,1.0,-1.734723475976807e-18,0.0,-4.336808689942018e-19
576.0,0.0,0.0,0.0,0.0,0.0,0.0,0.003521194215863943,-0.010034394450485706,0.001895098714157939,1.0,-1.734723475976807e-18,8.673617379884035e-19,-3.876022766635678e-18
577.0,0.0,0.0,0.0,0.0,0.0,0.0,0.008466332219541073,-0.01589997671544552,0.0024835974909365177,1.0,0.0,-4.336808689942018e-19,1.1384122811097797e-18
578.0,0.0,0.0,0.0,0.0,0.0,0.0,0.0060103838331997395,-0.014686423353850842,0.0020580661948770285,1.0,1.734723475976807e-18,0.0,4.9060148304969076e-18
579.0,0.0,0.0,0.0,0.0,0.0,0.0,-0.005757779814302921,-0.0016349374782294035,-3.8264563045231625e-05,1.0,-3.469446951953614e-18,-4.336808689942018e-19,1.1655173354219173e-18
580.0,0.0,0.0,0.0,0.0,0.0,0.0,-0.022239504382014275,0.017514478415250778,-0.0028080656193196774,1.0,-1.734723475976807e-18,0.0,-2.168404344971009e-19
581.0,0.0,0.0,0.0,0.0,0.0,0.0,-0.021424150094389915,0.015445887111127377,-0.004605714697390795,1.0,1.734723475976807e-18,4.336808689942018e-19,3.7947076036992655e-19
582.0,0.0,0.0,0.0,0.0,0.0,0.0,-0.0060611916705966,-0.0032695047557353973,-0.005743086338043213,1.0,-3.469446951953614e-18,0.0,3.347474207548995e-18
583.0,0.0,0.0,0.0,0.0,0.0,0.0,0.008333642967045307,-0.016851669177412987,0.004285825416445732,1.0,0.0,0.0,-2.9815559743351372e-18
584.0,0.0,0.0,0.0,0.0,0.0,0.0,0.0032894336618483067,-0.0050510382279753685,0.014207253232598305,1.0,1.734723475976807e-18,4.336808689942018e-19,-3.3881317890172014e-19
585.0,0.0,0.0,0.0,0.0,0.0,0.0,-0.005429974757134914,0.0075050643645226955,-0.0009877356933429837,1.0,0.0,-4.336808689942018e-19,-1.260385025514399e-18
586.0,0.0,0.0,0.0,0.0,0.0,0.0,-0.008382490836083889,0.004482954740524292,-0.007930404506623745,1.0,0.0,0.0,1.3688052427629493e-18
587.0,0.0,0.0,0.0,0.0,0.0,0.0,-0.008152456022799015,0.004475717432796955,-0.00575017835944891,1.0,-1.734723475976807e-18,-2.168404344971009e-19,-1.3688052427629493e-18
588.0,0.0,0.0,0.0,0.0,0.0,0.0,0.0009388973121531308,-0.0032161062117666006,0.0016828406369313598,1.0,0.0,4.336808689942018e-19,-7.318364664277155e-19
589.0,0.0,0.0,0.0,0.0,0.0,0.0,0.0034521205816417933,-0.008085700683295727,0.0013181051472201943,1.0,-1.734723475976807e-18,0.0,-6.911788849595091e-19
590.0,0.0,0.0,0.0,0.0,0.0,0.0,0.0025858490262180567,-0.008185050450265408,0.0030370906461030245,1.0,0.0,0.0,-1.8973538018496328e-19
591.0,0.0,0.0,0.0,0.0,0.0,0.0,-0.003480516141280532,-0.0024446076713502407,0.0008031668257899582,1.0,0.0,0.0,6.911788849595091e-19
592.0,0.0,0.0,0.0,0.0,0.0,0.0,-0.006162928882986307,-0.00024026223400142044,0.0004978497745469213,1.0,-5.204170427930421e-18,-2.168404344971009e-19,-3.7947076036992655e-19
593.0,0.0,0.0,0.0,0.0,0.0,0.0,-0.006362737622112036,-0.003121440764516592,-0.003350622020661831,1.0,1.734723475976807e-18,4.336808689942018e-19,1.1384122811097797e-18
594.0,0.0,0.0,0.0,0.0,0.0,0.0,-0.0014125960879027843,-0.006531065795570612,0.0010300854919478297,1.0,0.0,2.168404344971009e-19,-3.3949080525952358e-18
595.0,0.0,0.0,0.0,0.0,0.0,0.0,-0.001654737046919763,-0.0008247560472227633,0.005186753813177347,1.0,1.734723475976807e-18,0.0,-1.4907779871675686e-19
596.0,0.0,0.0,0.0,0.0,0.0,0.0,-0.00393842114135623,0.0021483099553734064,0.005542648024857044,1.0,-3.469446951953614e-18,2.168404344971009e-19,-2.4936649967166602e-18
597.0,0.0,0.0,0.0,0.0,0.0,0.0,-0.004043109714984894,0.0002718227624427527,-0.0004085215332452208,1.0,1.734723475976807e-18,4.336808689942018e-19,-2.3852447794681098e-18
598.0,0.0,0.0,0.0,0.0,0.0,0.0,-0.002079644473269582,0.0012302958639338613,0.0014294778229668736,1.0,-1.734723475976807e-18,0.0,2.0735366548785272e-18
599.0,0.0,0.0,0.0,0.0,0.0,0.0,0.0034371500369161367,-0.0065019079484045506,0.00263907085172832,1.0,1.734723475976807e-18,4.336808689942018e-19,2.168404344971009e-19
600.0,0.0,0.0,0.0,0.0,0.0,0.0,0.011174444109201431,-0.01778845489025116,0.006751493085175753,1.0,3.469446951953614e-18,4.336808689942018e-19,-1.6263032587282567e-19
601.0,0.0,0.0,0.0,0.0,0.0,0.0,0.005123959854245186,-0.012755920179188251,0.0021826892625540495,1.0,1.734723475976807e-18,4.336808689942018e-19,1.9651164376299768e-18
602.0,0.0,0.0,0.0,0.0,0.0,0.0,-0.0022720969282090664,-0.0021689916029572487,0.0006652420852333307,1.0,0.0,-4.336808689942018e-19,5.163512846462215e-18
603.0,0.0,0.0,0.0,0.0,0.0,0.0,-0.009227234870195389,0.005436218809336424,-0.0033749407157301903,1.0,3.469446951953614e-18,0.0,1.599198204416119e-18
604.0,0.0,0.0,0.0,0.0,0.0,0.0,-0.01684122160077095,0.014394130557775497,-0.00670476071536541,1.0,1.734723475976807e-18,-4.336808689942018e-19,3.7947076036992655e-19
605.0,0.0,0.0,0.0,0.0,0.0,0.0,0.0008392874151468277,-0.005116469692438841,-0.005745310336351395,1.0,1.734723475976807e-18,-4.336808689942018e-19,-3.211948935988307e-18
606.0,0.0,0.0,0.0,0.0,0.0,0.0,0.014000056311488152,-0.01604612171649933,0.005437546409666538,1.0,0.0,0.0,-1.1926223897340549e-18
607.0,0.0,0.0,0.0,0.0,0.0,0.0,0.006314375903457403,-0.005076576955616474,0.006527759600430727,1.0,-1.734723475976807e-18,4.336808689942018e-19,-2.0464316005663896e-18
608.0,0.0,0.0,0.0,0.0,0.0,0.0,0.0005592217203229666,0.00017332581046503037,-0.0026083027478307486,1.0,0.0,0.0,1.4772254600114998e-18
609.0,0.0,0.0,0.0,0.0,0.0,0.0,-0.0020752621348947287,0.003275923663750291,-0.00846345629543066,1.0,-1.734723475976807e-18,4.336808689942018e-19,5.624298769768554e-18
610.0,0.0,0.0,0.0,0.0,0.0,0.0,0.003476952901110053,-0.0010135096963495016,-0.0035710635129362345,1.0,5.204170427930421e-18,-4.336808689942018e-19,-2.6020852139652106e-18
611.0,0.0,0.0,0.0,0.0,0.0,0.0,0.014790198765695095,-0.015459361486136913,0.003073361236602068,1.0,0.0,-4.336808689942018e-19,-1.7076184216646695e-18
612.0,0.0,0.0,0.0,0.0,0.0,0.0,0.008763041347265244,-0.009503666311502457,0.002908354625105858,1.0,-3.469446951953614e-18,-4.336808689942018e-19,4.960224939121183e-18
613.0,0.0,0.0,0.0,0.0,0.0,0.0,0.007513449992984533,-0.0009051114320755005,0.0033388566225767136,1.0,-1.734723475976807e-18,-4.336808689942018e-19,3.4423418976414766e-18
614.0,0.0,0.0,0.0,0.0,0.0,0.0,0.000729747989680618,0.005568993277847767,-0.0010075843892991543,1.0,-1.734723475976807e-18,-8.673617379884035e-19,-1.8973538018496328e-18
615.0,0.0,0.0,0.0,0.0,0.0,0.0,-0.005513081327080727,0.009417369961738586,-0.004001110326498747,1.0,-1.734723475976807e-18,-8.673617379884035e-19,1.9244588561617704e-18
616.0,0.0,0.0,0.0,0.0,0.0,0.0,-0.006317204795777798,0.010414361022412777,0.0001315108238486573,1.0,0.0,8.673617379884035e-19,-2.032879073410321e-18
617.0,0.0,0.0,0.0,0.0,0.0,0.0,-0.0031432281248271465,0.005489423405379057,0.0058179013431072235,1.0,-5.204170427930421e-18,-1.734723475976807e-18,-8.131516293641283e-19
618.0,0.0,0.0,0.0,0.0,0.0,0.0,-0.002928100759163499,0.002047921298071742,0.0017768811667338014,1.0,0.0,0.0,1.599198204416119e-18
619.0,0.0,0.0,0.0,0.0,0.0,0.0,-0.004798389505594969,0.004417191259562969,-0.004078013356775045,1.0,0.0,0.0,-1.8973538018496328e-18
620.0,0.0,0.0,0.0,0.0,0.0,0.0,-0.0020185676403343678,0.0044924477115273476,-0.006944556720554829,1.0,1.734723475976807e-18,8.673617379884035e-19,-1.2197274440461925e-18
621.0,0.0,0.0,0.0,0.0,0.0,0.0,0.0065857586450874805,-0.005006562918424606,0.000230572244618088,1.0,-1.734723475976807e-18,0.0,-1.463672932855431e-18
622.0,0.0,0.0,0.0,0.0,0.0,0.0,-0.005360580049455166,0.003972129430621862,-0.005073930602520704,1.0,5.204170427930421e-18,-8.673617379884035e-19,-1.328147661294743e-18
623.0,0.0,0.0,0.0,0.0,0.0,0.0,-0.006097337231040001,0.01028671208769083,-0.0019589788280427456,1.0,3.469446951953614e-18,0.0,-6.613633252161577e-18
624.0,0.0,0.0,0.0,0.0,0.0,0.0,-0.010866797529160976,0.01719013974070549,-0.00457765394821763,1.0,1.734723475976807e-18,-8.673617379884035e-19,-9.75781955236954e-19
625.0,0.0,0.0,0.0,0.0,0.0,0.0,0.0002656730357557535,0.005461772903800011,-0.003476895624771714,1.0,3.469446951953614e-18,3.469446951953614e-18,-4.0657581468206416e-19
626.0,0.0,0.0,0.0,0.0,0.0,0.0,0.012227402068674564,-0.008954950608313084,0.004010757897049189,1.0,-5.204170427930421e-18,8.673617379884035e-19,-5.3939058081153846e-18
627.0,0.0,0.0,0.0,0.0,0.0,0.0,0.006608461495488882,-0.009208629839122295,-0.0001563471305416897,1.0,0.0,-8.673617379884035e-19,4.391018798566293e-18
628.0,0.0,0.0,0.0,0.0,0.0,0.0,0.0013421252369880676,-0.007519221398979425,-0.000737409689463675,1.0,0.0,-8.673617379884035e-19,-2.168404344971009e-19
629.0,0.0,0.0,0.0,0.0,0.0,0.0,0.0016084045637398958,-0.0049356515519320965,-6.524478521896526e-05,1.0,3.469446951953614e-18,0.0,5.2583805365546965e-18
630.0,0.0,0.0,0.0,0.0,0.0,0.0,0.0027365004643797874,-0.0018495232798159122,0.0038504372350871563,1.0,0.0,-1.734723475976807e-18,7.589415207398531e-19
631.0,0.0,0.0,0.0,0.0,0.0,0.0,0.001557153882458806,0.0003888931532856077,0.004338940139859915,1.0,1.734723475976807e-18,8.673617379884035e-19,-1.951563910473908e-18
632.0,0.0,0.0,0.0,0.0,0.0,0.0,-0.0019257235107943416,0.002841728739440441,0.002493395935744047,1.0,1.734723475976807e-18,1.734723475976807e-18,-1.734723475976807e-18
633.0,0.0,0.0,0.0,0.0,0.0,0.0,-0.002161275828257203,0.0013203067937865853,-0.001439225859940052,1.0,-3.469446951953614e-18,-8.673617379884035e-19,-1.0299920638612292e-18
634.0,0.0,0.0,0.0,0.0,0.0,0.0,-0.0006720699020661414,-0.0015679163625463843,-0.002120204735547304,1.0,1.734723475976807e-18,0.0,1.6263032587282567e-18
635.0,0.0,0.0,0.0,0.0,0.0,0.0,-0.003118213266134262,-0.0014608395285904408,-0.003808694425970316,1.0,3.469446951953614e-18,1.734723475976807e-18,-5.637851296924623e-18
636.0,0.0,0.0,0.0,0.0,0.0,0.0,-0.004210179205983877,0.0024647528771311045,-0.0006870820070616901,1.0,3.469446951953614e-18,0.0,2.8189256484623115e-18
637.0,0.0,0.0,0.0,0.0,0.0,0.0,-0.004316400736570358,0.004776321817189455,0.0012954430421814322,1.0,0.0,-8.673617379884035e-19,2.0057740190981832e-18
638.0,0.0,0.0,0.0,0.0,0.0,0.0,-0.010878940112888813,0.010830890387296677,-0.0007946332334540784,1.0,0.0,-8.673617379884035e-19,-4.824699667560495e-18
639.0,0.0,0.0,0.0,0.0,0.0,0.0,-0.010604574345052242,0.010119779035449028,0.0022495437879115343,1.0,1.734723475976807e-18,0.0,-4.065758146820642e-18
640.0,0.0,0.0,0.0,0.0,0.0,0.0,-0.01045604795217514,0.009178876876831055,0.004293056204915047,1.0,1.734723475976807e-18,-8.673617379884035e-19,-2.4665599424045226e-18
641.0,0.0,0.0,0.0,0.0,0.0,0.0,-0.01364625059068203,0.010163437575101852,0.0005280192708596587,1.0,1.734723475976807e-18,0.0,-5.827586677109586e-18
642.0,0.0,0.0,0.0,0.0,0.0,0.0,-0.005154229234904051,0.0021186121739447117,0.004527802113443613,1.0,1.734723475976807e-18,0.0,-1.7618285302889447e-18
643.0,0.0,0.0,0.0,0.0,0.0,0.0,-0.004429556429386139,0.0026085074059665203,0.004259530920535326,1.0,5.204170427930421e-18,4.336808689942018e-19,2.791820594150174e-18
644.0,0.0,0.0,0.0,0.0,0.0,0.0,-0.002628966700285673,0.00807201862335205,-0.0015380328986793756,1.0,-5.204170427930421e-18,4.336808689942018e-19,3.0086610286472748e-18
645.0,0.0,0.0,0.0,0.0,0.0,0.0,0.006373974960297346,0.004645729903131723,0.0002752289001364261,1.0,0.0,-4.336808689942018e-19,-4.174178364069192e-18
646.0,0.0,0.0,0.0,0.0,0.0,0.0,0.010843216441571712,0.002482812386006117,-0.0008100905106402934,1.0,-1.734723475976807e-18,4.336808689942018e-19,4.038653092508504e-18
647.0,0.0,0.0,0.0,0.0,0.0,0.0,0.011183668859302998,-1.8832276964531047e-06,0.0017546300077810884,1.0,-1.734723475976807e-18,0.0,3.333921680392926e-18
648.0,0.0,0.0,0.0,0.0,0.0,0.0,0.0174595694988966,0.000880162522662431,0.012631310150027275,1.0,0.0,4.336808689942018e-19,1.6263032587282567e-19
649.0,0.0,0.0,0.0,0.0,0.0,0.0,0.013901284895837307,0.00842834822833538,0.011119483970105648,1.0,-3.469446951953614e-18,0.0,1.0842021724855044e-18
650.0,0.0,0.0,0.0,0.0,0.0,0.0,0.012495088391005993,0.0037054589483886957,0.001738729071803391,1.0,0.0,-8.673617379884035e-19,-8.402566836762659e-19
651.0,0.0,0.0,0.0,0.0,0.0,0.0,-0.00019393779803067446,0.006081887986510992,-0.008912730030715466,1.0,0.0,0.0,2.710505431213761e-19
652.0,0.0,0.0,0.0,0.0,0.0,0.0,-0.009864477440714836,0.012331102043390274,-0.01510015968233347,1.0,0.0,0.0,-6.2341624917916505e-19
653.0,0.0,0.0,0.0,0.0,0.0,0.0,-0.006088900379836559,0.00792743917554617,-0.012498368509113789,1.0,0.0,0.0,1.9244588561617704e-18
654.0,0.0,0.0,0.0,0.0,0.0,0.0,-0.003520953468978405,0.002072813455015421,-0.007682286202907562,1.0,-1.734723475976807e-18,8.673617379884035e-19,-8.673617379884035e-19
655.0,0.0,0.0,0.0,0.0,0.0,0.0,0.0003068707010243088,-0.0023839082568883896,-0.007678722031414509,1.0,1.734723475976807e-18,0.0,-2.9815559743351372e-18
656.0,0.0,0.0,0.0,0.0,0.0,0.0,0.006780766882002354,-0.012569732964038849,-0.0018456748221069574,1.0,1.734723475976807e-18,-8.673617379884035e-19,4.336808689942018e-19
657.0,0.0,0.0,0.0,0.0,0.0,0.0,0.0051652234978973866,-0.014869621954858303,0.0039920206181705,1.0,0.0,-8.673617379884035e-19,4.174178364069192e-18
658.0,0.0,0.0,0.0,0.0,0.0,0.0,-0.0012261585798114538,-0.014866353943943977,0.0032429092098027468,1.0,0.0,8.673617379884035e-19,7.508100044462118e-18
659.0,0.0,0.0,0.0,0.0,0.0,0.0,-0.003129304386675358,-0.0166523028165102,0.004202519543468952,1.0,3.469446951953614e-18,8.673617379884035e-19,-1.8973538018496328e-18
660.0,0.0,0.0,0.0,0.0,0.0,0.0,-0.003304683370515704,-0.016169898211956024,0.004726639948785305,1.0,1.734723475976807e-18,8.673617379884035e-19,-8.673617379884035e-19
661.0,0.0,0.0,0.0,0.0,0.0,0.0,-0.00919238943606615,-0.0063399956561625,0.0021807141602039337,1.0,-1.734723475976807e-18,0.0,-2.7376104855258987e-18
662.0,0.0,0.0,0.0,0.0,0.0,0.0,-0.020460208877921104,0.010655436664819717,0.000182075280463323,1.0,3.469446951953614e-18,-4.336808689942018e-19,-1.2197274440461925e-18
663.0,0.0,0.0,0.0,0.0,0.0,0.0,-0.02175804041326046,0.020821761339902878,0.002039155922830105,1.0,0.0,-4.336808689942018e-19,1.4365678785432934e-18
664.0,0.0,0.0,0.0,0.0,0.0,0.0,-0.015705730766057968,0.020878588780760765,0.0006725045968778431,1.0,3.469446951953614e-18,0.0,-2.3310346708438345e-18
665.0,0.0,0.0,0.0,0.0,0.0,0.0,-0.009141398593783379,0.014537086710333824,0.0032814270816743374,1.0,1.734723475976807e-18,0.0,6.342582709040201e-18
666.0,0.0,0.0,0.0,0.0,0.0,0.0,-0.0013051537098363042,0.0008046907605603337,0.007780479732900858,1.0,-1.734723475976807e-18,0.0,-3.482999479109683e-18
667.0,0.0,0.0,0.0,0.0,0.0,0.0,0.002880590967833996,-0.0072371577844023705,0.012348558753728867,1.0,0.0,0.0,1.212951180468158e-18
668.0,0.0,0.0,0.0,0.0,0.0,0.0,0.005797970108687878,-0.008128918707370758,0.008212576620280743,1.0,-1.734723475976807e-18,0.0,3.665958595716612e-18
669.0,0.0,0.0,0.0,0.0,0.0,0.0,0.005493177101016045,-0.0007966572302393615,0.0038753522094339132,1.0,-3.469446951953614e-18,2.168404344971009e-19,1.1655173354219173e-18
670.0,0.0,0.0,0.0,0.0,0.0,0.0,-8.86701891431585e-05,0.007976003922522068,-0.0007329041254706681,1.0,1.734723475976807e-18,4.336808689942018e-19,5.244828009398628e-18
671.0,0.0,0.0,0.0,0.0,0.0,0.0,-0.002300808671861887,0.014134430326521397,-0.0027940671425312757,1.0,0.0,0.0,2.9408983928669308e-18
672.0,0.0,0.0,0.0,0.0,0.0,0.0,0.001694512669928372,0.009679888375103474,-0.0012152367271482944,1.0,-5.204170427930421e-18,-4.336808689942018e-19,-5.434563389583591e-18
673.0,0.0,0.0,0.0,0.0,0.0,0.0,0.007132259663194418,0.001188007416203618,0.0013415247667580843,1.0,1.734723475976807e-18,4.336808689942018e-19,6.342582709040201e-18
674.0,0.0,0.0,0.0,0.0,0.0,0.0,0.009025923907756805,-0.004644506610929966,-0.005305954720824957,1.0,0.0,-1.3010426069826053e-18,-2.6834003769016235e-18
675.0,0.0,0.0,0.0,0.0,0.0,0.0,0.014409742318093777,-0.006204394157975912,-0.005985293537378311,1.0,0.0,0.0,-2.1955093992831465e-18
676.0,0.0,0.0,0.0,0.0,0.0,0.0,0.013740711845457554,-0.00702650984749198,-0.01176665909588337,1.0,3.469446951953614e-18,8.673617379884035e-19,-3.1712913545201005e-18
677.0,0.0,0.0,0.0,0.0,0.0,0.0,0.009116465225815773,0.0009393074433319271,-0.0035682334564626217,1.0,1.734723475976807e-18,0.0,5.773376568485311e-18
678.0,0.0,0.0,0.0,0.0,0.0,0.0,0.010935818776488304,-1.685842653387226e-05,-0.013719378039240837,1.0,-1.734723475976807e-18,0.0,3.9302328752599536e-18
679.0,0.0,0.0,0.0,0.0,0.0,0.0,0.019841192290186882,-0.009431426413357258,-0.0023399158380925655,1.0,0.0,-8.673617379884035e-19,1.9244588561617704e-18
680.0,0.0,0.0,0.0,0.0,0.0,0.0,0.0013702930882573128,0.007062319666147232,-0.00969008170068264,1.0,3.469446951953614e-18,8.673617379884035e-19,-1.0299920638612292e-18
681.0,0.0,0.0,0.0,0.0,0.0,0.0,-0.00585941132158041,0.021689709275960922,-0.0057701412588357925,1.0,0.0,0.0,-8.375461782450522e-18
682.0,0.0,0.0,0.0,0.0,0.0,0.0,-0.005921549163758755,0.019009854644536972,-0.004325592890381813,1.0,-1.734723475976807e-18,0.0,-1.1384122811097797e-18
683.0,0.0,0.0,0.0,0.0,0.0,0.0,-0.005373172927647829,0.012666362337768078,-0.010035843588411808,1.0,1.734723475976807e-18,0.0,-1.2197274440461925e-18
684.0,0.0,0.0,0.0,0.0,0.0,0.0,0.013095146045088768,-0.007859964855015278,-0.0017572575015947223,1.0,0.0,0.0,-5.936006894358137e-18
685.0,0.0,0.0,0.0,0.0,0.0,0.0,0.017850128933787346,-0.01733003556728363,0.005229529924690723,1.0,-3.469446951953614e-18,1.734723475976807e-18,-1.599198204416119e-18
686.0,0.0,0.0,0.0,0.0,0.0,0.0,0.010016894899308681,-0.01106167584657669,0.005159374792128801,1.0,0.0,0.0,2.710505431213761e-20
687.0,0.0,0.0,0.0,0.0,0.0,0.0,0.004270619247108698,-0.0031266077421605587,0.002494091633707285,1.0,5.204170427930421e-18,4.336808689942018e-19,2.520770051028798e-18
688.0,0.0,0.0,0.0,0.0,0.0,0.0,-0.005820320453494787,0.007777722552418709,0.0007217881502583623,1.0,-1.734723475976807e-18,0.0,2.7647155398380363e-18
689.0,0.0,0.0,0.0,0.0,0.0,0.0,-0.012479506433010101,0.017541978508234024,0.0029099013190716505,1.0,-1.734723475976807e-18,0.0,-6.2341624917916505e-19
690.0,0.0,0.0,0.0,0.0,0.0,0.0,-0.009206553921103477,0.01758967898786068,0.006350055802613497,1.0,-1.734723475976807e-18,0.0,-2.2632720350634905e-18
691.0,0.0,0.0,0.0,0.0,0.0,0.0,-0.0023531413171440363,0.009544975124299526,0.006950298324227333,1.0,0.0,4.336808689942018e-19,9.64939933512099e-18
692.0,0.0,0.0,0.0,0.0,0.0,0.0,0.0011700810864567757,-0.0030950456857681274,0.0050519658252596855,1.0,1.734723475976807e-18,-4.336808689942018e-19,-3.0899761915836876e-18
693.0,0.0,0.0,0.0,0.0,0.0,0.0,0.002520845038816333,-0.008713229559361935,-0.0002007212460739538,1.0,-3.469446951953614e-18,8.673617379884035e-19,-4.445228907190568e-18
694.0,0.0,0.0,0.0,0.0,0.0,0.0,-0.0008555537788197398,-0.0053285290487110615,-0.004599368199706078,1.0,0.0,0.0,-3.835365185167472e-18
695.0,0.0,0.0,0.0,0.0,0.0,0.0,-0.008849063888192177,0.004999193362891674,-0.004736366681754589,1.0,-3.469446951953614e-18,0.0,-5.014435047745458e-19
696.0,0.0,0.0,0.0,0.0,0.0,0.0,-0.006691664457321167,0.009673550724983215,0.0016356161795556545,1.0,1.734723475976807e-18,0.0,-5.285485590866834e-18
697.0,0.0,0.0,0.0,0.0,0.0,0.0,-0.009192309342324734,0.012722340412437916,0.006315051112323999,1.0,0.0,-4.336808689942018e-19,2.032879073410321e-18
698.0,0.0,0.0,0.0,0.0,0.0,0.0,-0.010428772307932377,0.014916684478521347,0.012460567057132721,1.0,5.204170427930421e-18,0.0,-1.4365678785432934e-18
699.0,0.0,0.0,0.0,0.0,0.0,0.0,-0.013261609710752964,0.011639106087386608,0.010943473316729069,1.0,0.0,0.0,3.198396408832238e-18
700.0,0.0,0.0,0.0,0.0,0.0,0.0,-0.021060293540358543,0.006575912702828646,-0.0027605807408690453,1.0,0.0,0.0,-2.2497195079074217e-18
701.0,0.0,0.0,0.0,0.0,0.0,0.0,-0.014128104783594608,-0.000498940993566066,0.00646772189065814,1.0,3.469446951953614e-18,8.673617379884035e-19,4.2825985813177425e-18
702.0,0.0,0.0,0.0,0.0,0.0,0.0,-0.003973024897277355,-0.01197931356728077,0.0037251710891723633,1.0,1.734723475976807e-18,-4.336808689942018e-19,-2.6020852139652106e-18
703.0,0.0,0.0,0.0,0.0,0.0,0.0,0.004096433985978365,-0.020832857117056847,-0.004072516690939665,1.0,1.734723475976807e-18,0.0,-1.3552527156068805e-20
704.0,0.0,0.0,0.0,0.0,0.0,0.0,-0.003622649237513542,-0.013984287157654762,-0.006168097257614136,1.0,1.734723475976807e-18,2.168404344971009e-19,-1.111307226797642e-18
705.0,0.0,0.0,0.0,0.0,0.0,0.0,-0.002225652802735567,-0.0005965187447145581,-0.00026469939621165395,1.0,1.734723475976807e-18,2.168404344971009e-19,4.621411760219463e-18
706.0,0.0,0.0,0.0,0.0,0.0,0.0,-0.0016608367441222072,0.001292529283091426,0.0014209143118932843,1.0,1.734723475976807e-18,-2.168404344971009e-19,-6.342582709040201e-18
707.0,0.0,0.0,0.0,0.0,0.0,0.0,-0.008913659490644932,0.009572166949510574,-0.0037357278633862734,1.0,0.0,2.168404344971009e-19,1.9244588561617704e-18
708.0,0.0,0.0,0.0,0.0,0.0,0.0,-0.013363346457481384,0.016948649659752846,-0.004280015826225281,1.0,3.469446951953614e-18,0.0,-5.421010862427522e-19
709.0,0.0,0.0,0.0,0.0,0.0,0.0,-0.022948790341615677,0.035716693848371506,-0.0069738770835101604,1.0,0.0,-4.336808689942018e-19,-4.5197678065489466e-18
710.0,0.0,0.0,0.0,0.0,0.0,0.0,-0.01968967914581299,0.04100248962640762,-0.0007662519928999245,1.0,-1.734723475976807e-18,-1.0842021724855044e-19,-4.289374844895777e-18
711.0,0.0,0.0,0.0,0.0,0.0,0.0,-0.009804725646972656,0.042315635830163956,0.00630151154473424,1.0,0.0,1.0842021724855044e-19,-3.3627208005995723e-18
712.0,0.0,0.0,0.0,0.0,0.0,0.0,0.011198321357369423,0.012045551091432571,0.0021781702525913715,1.0,0.0,1.0842021724855044e-19,-3.6253010142484055e-19
713.0,0.0,0.0,0.0,0.0,0.0,0.0,0.006811266299337149,0.002402307465672493,-0.0033676745370030403,1.0,3.469446951953614e-18,0.0,8.334804200982315e-19
714.0,0.0,0.0,0.0,0.0,0.0,0.0,0.007401457522064447,0.0009176034363918006,-0.0014349143020808697,1.0,-1.734723475976807e-18,0.0,1.1045309632196076e-18
715.0,0.0,0.0,0.0,0.0,0.0,0.0,0.020031632855534554,-0.014350613579154015,-0.00014133269723970443,1.0,-1.734723475976807e-18,-2.168404344971009e-19,-1.0164395367051604e-19
716.0,0.0,0.0,0.0,0.0,0.0,0.0,0.0214413870126009,-0.01831771247088909,0.00094103958690539,1.0,-1.734723475976807e-18,-4.336808689942018e-19,-9.994988777600744e-18
717.0,0.0,0.0,0.0,0.0,0.0,0.0,0.01982981339097023,-0.019782889634370804,-0.0011251115938648582,1.0,1.734723475976807e-18,2.168404344971009e-19,4.8382521947165635e-18
718.0,0.0,0.0,0.0,0.0,0.0,0.0,0.015873203054070473,-0.0169892106205225,0.00035343156196177006,1.0,-3.469446951953614e-18,4.336808689942018e-19,-1.7279472123987727e-18
719.0,0.0,0.0,0.0,0.0,0.0,0.0,0.005280709359794855,-0.009516353718936443,-0.0004593634221237153,1.0,-1.734723475976807e-18,-4.336808689942018e-19,-2.879912020664621e-18
720.0,0.0,0.0,0.0,0.0,0.0,0.0,-0.004180232994258404,-0.0015593435382470489,-0.002524653449654579,1.0,1.734723475976807e-18,0.0,-3.903127820947816e-18
721.0,0.0,0.0,0.0,0.0,0.0,0.0,-0.005240490194410086,-0.0010533442255109549,0.001576250302605331,1.0,0.0,-4.336808689942018e-19,-4.899238566918873e-18
722.0,0.0,0.0,0.0,0.0,0.0,0.0,-0.006297766696661711,0.0004356847784947604,0.006046927999705076,1.0,5.204170427930421e-18,-4.336808689942018e-19,-4.594306705907325e-18
723.0,0.0,0.0,0.0,0.0,0.0,0.0,-0.013354531489312649,0.012645081616938114,0.007479106541723013,1.0,1.734723475976807e-18,2.168404344971009e-19,-2.5478751053409354e-18
724.0,0.0,0.0,0.0,0.0,0.0,0.0,-0.01982746832072735,0.02023140899837017,0.0035803872160613537,1.0,0.0,4.336808689942018e-19,4.587530442329291e-18
725.0,0.0,0.0,0.0,0.0,0.0,0.0,-0.015395215712487698,0.022494861856102943,0.0032363287173211575,1.0,-1.734723475976807e-18,4.336808689942018e-19,-7.860465750519907e-19
726.0,0.0,0.0,0.0,0.0,0.0,0.0,-0.010330388322472572,0.021255886182188988,0.004003222566097975,1.0,1.734723475976807e-18,-2.168404344971009e-19,-3.23227772672241e-18
727.0,0.0,0.0,0.0,0.0,0.0,0.0,-0.010813811793923378,0.022610552608966827,0.0011485316790640354,1.0,3.469446951953614e-18,-2.168404344971009e-19,-1.8228149024912543e-18
728.0,0.0,0.0,0.0,0.0,0.0,0.0,-0.007644225377589464,0.01953897811472416,0.00043361427378840744,1.0,-1.734723475976807e-18,0.0,5.719166459861036e-18
729.0,0.0,0.0,0.0,0.0,0.0,0.0,-0.00283542787656188,0.01650584675371647,0.0012188791297376156,1.0,0.0,-4.336808689942018e-19,5.990217002982412e-18
730.0,0.0,0.0,0.0,0.0,0.0,0.0,-0.0024815970100462437,0.01210110168904066,-0.0006228043930605054,1.0,3.469446951953614e-18,2.168404344971009e-19,5.908901840045999e-18
731.0,0.0,0.0,0.0,0.0,0.0,0.0,-0.0008569356868974864,0.011036578565835953,-0.002657204167917371,1.0,0.0,-4.336808689942018e-19,-3.584643432780199e-18
732.0,0.0,0.0,0.0,0.0,0.0,0.0,0.0061319307424128056,0.0057120597921311855,0.0005731773562729359,1.0,0.0,-4.336808689942018e-19,-1.7618285302889447e-19
733.0,0.0,0.0,0.0,0.0,0.0,0.0,0.006756550166755915,0.001807300723157823,-0.0004717546107713133,1.0,0.0,-2.168404344971009e-19,1.1858461261560205e-18
734.0,0.0,0.0,0.0,0.0,0.0,0.0,0.0015800477704033256,0.005198521073907614,-0.005218008067458868,1.0,0.0,2.168404344971009e-19,7.440337408681774e-18
735.0,0.0,0.0,0.0,0.0,0.0,0.0,0.0008913552155718207,0.004515577107667923,-0.007098047528415918,1.0,0.0,1.0842021724855044e-19,-3.4897757426877174e-18
736.0,0.0,0.0,0.0,0.0,0.0,0.0,0.004765882156789303,-0.0006030451622791588,-0.005208123475313187,1.0,-5.204170427930421e-18,-3.2526065174565133e-19,1.5178830414797062e-18
737.0,0.0,0.0,0.0,0.0,0.0,0.0,0.004572959616780281,-0.003290347056463361,-0.000909083872102201,1.0,1.734723475976807e-18,2.168404344971009e-19,-3.4558944247975454e-18
738.0,0.0,0.0,0.0,0.0,0.0,0.0,-0.0007288079359568655,0.0019450718536973,-0.00037333532236516476,1.0,-1.734723475976807e-18,1.0842021724855044e-19,-1.9651164376299768e-19
739.0,0.0,0.0,0.0,0.0,0.0,0.0,-0.0017391612054780126,0.0056615411303937435,0.004675931762903929,1.0,-1.734723475976807e-18,-1.0842021724855044e-19,5.353248226647178e-19
740.0,0.0,0.0,0.0,0.0,0.0,0.0,-0.003159661078825593,0.008476588875055313,0.004591151140630245,1.0,1.734723475976807e-18,-1.0842021724855044e-19,-4.6688456052657035e-18
741.0,0.0,0.0,0.0,0.0,0.0,0.0,-0.007304496597498655,0.013576922938227654,-0.000925026077311486,1.0,0.0,2.168404344971009e-19,1.328147661294743e-18
742.0,0.0,0.0,0.0,0.0,0.0,0.0,-0.008163899183273315,0.017372533679008484,0.00235414644703269,1.0,0.0,-4.336808689942018e-19,1.2197274440461925e-18
743.0,0.0,0.0,0.0,0.0,0.0,0.0,-0.008821508847177029,0.018069401383399963,0.003939810674637556,1.0,0.0,-4.336808689942018e-19,-4.87890977618477e-19
744.0,0.0,0.0,0.0,0.0,0.0,0.0,-0.01081766840070486,0.014337506145238876,-0.009482480585575104,1.0,1.734723475976807e-18,6.505213034913027e-19,-1.2536087619363645e-18
745.0,0.0,0.0,0.0,0.0,0.0,0.0,-0.008198007941246033,0.0076621416956186295,-0.007384280674159527,1.0,-1.734723475976807e-18,8.673617379884035e-19,3.333921680392926e-18
746.0,0.0,0.0,0.0,0.0,0.0,0.0,0.00011516753875184804,0.008439344353973866,0.005878040101379156,1.0,0.0,8.673617379884035e-19,-4.269046054161674e-18
747.0,0.0,0.0,0.0,0.0,0.0,0.0,0.006072943098843098,4.118523429497145e-05,0.0072474488988518715,1.0,-1.734723475976807e-18,-2.168404344971009e-19,-4.607859233063394e-18
748.0,0.0,0.0,0.0,0.0,0.0,0.0,0.0008272040286101401,0.00011076583177782595,0.001074792118743062,1.0,3.469446951953614e-18,0.0,-1.9651164376299768e-18
749.0,0.0,0.0,0.0,0.0,0.0,0.0,7.407990051433444e-05,0.0008472918998450041,0.002134425099939108,1.0,-3.469446951953614e-18,4.336808689942018e-19,1.7753810574450135e-18
750.0,0.0,0.0,0.0,0.0,0.0,0.0,-0.0058715613558888435,0.004126868676394224,-0.0008352766162715852,1.0,1.734723475976807e-18,4.336808689942018e-19,4.1131919918668824e-18
751.0,0.0,0.0,0.0,0.0,0.0,0.0,-0.009009727276861668,0.007777517661452293,-0.0028408693615347147,1.0,1.734723475976807e-18,2.168404344971009e-19,-2.371692252312041e-18
752.0,0.0,0.0,0.0,0.0,0.0,0.0,-0.008762538433074951,0.009941497817635536,-0.0005889067542739213,1.0,0.0,2.168404344971009e-19,2.5953089503871762e-18
753.0,0.0,0.0,0.0,0.0,0.0,0.0,-0.011265410110354424,0.014314796775579453,-0.004368870984762907,1.0,0.0,2.168404344971009e-19,-4.811147140404426e-19
754.0,0.0,0.0,0.0,0.0,0.0,0.0,-0.004674657713621855,0.008576705120503902,-0.005317365750670433,1.0,1.734723475976807e-18,0.0,1.6466320494623599e-18
755.0,0.0,0.0,0.0,0.0,0.0,0.0,0.0005190911469981074,0.000983425765298307,-0.0024534089025110006,1.0,0.0,3.2526065174565133e-19,1.3823577699190182e-18
756.0,0.0,0.0,0.0,0.0,0.0,0.0,-0.0023518046364188194,0.002791336039081216,-0.0005998263950459659,1.0,3.469446951953614e-18,0.0,-7.995991022080595e-19
757.0,0.0,0.0,0.0,0.0,0.0,0.0,-0.005568038672208786,0.0064223515801131725,-0.0032276371493935585,1.0,-1.734723475976807e-18,4.336808689942018e-19,-3.7947076036992655e-19
758.0,0.0,0.0,0.0,0.0,0.0,0.0,-0.004892546683549881,0.007581233512610197,-6.607008253922686e-05,1.0,-1.734723475976807e-18,4.336808689942018e-19,7.860465750519907e-19
759.0,0.0,0.0,0.0,0.0,0.0,0.0,-0.0020765233784914017,0.003969668876379728,0.0001674680970609188,1.0,-3.469446951953614e-18,-2.168404344971009e-19,8.402566836762659e-19
760.0,0.0,0.0,0.0,0.0,0.0,0.0,0.0026242551393806934,-0.0019438524032011628,4.1315310227219015e-05,1.0,0.0,-4.336808689942018e-19,-2.710505431213761e-19
761.0,0.0,0.0,0.0,0.0,0.0,0.0,0.009041794575750828,-0.006984209641814232,0.006181527394801378,1.0,0.0,0.0,1.6263032587282567e-19
762.0,0.0,0.0,0.0,0.0,0.0,0.0,0.007021438796073198,-0.0043073841370642185,0.0035069917794317007,1.0,0.0,-4.336808689942018e-19,-2.168404344971009e-19
763.0,0.0,0.0,0.0,0.0,0.0,0.0,0.006286158692091703,-0.003569351974874735,0.0017659558216109872,1.0,-5.204170427930421e-18,0.0,1.3552527156068805e-19
764.0,0.0,0.0,0.0,0.0,0.0,0.0,0.0013249421026557684,0.0009320917306467891,0.002993069589138031,1.0,-3.469446951953614e-18,8.673617379884035e-19,5.963111948670274e-19
765.0,0.0,0.0,0.0,0.0,0.0,0.0,0.0004470010753720999,0.00308427307754755,0.004556236322969198,1.0,-3.469446951953614e-18,-4.336808689942018e-19,2.087089182034596e-18
766.0,0.0,0.0,0.0,0.0,0.0,0.0,-0.00270274979993701,0.007812286727130413,0.002498387824743986,1.0,3.469446951953614e-18,-4.336808689942018e-19,-4.174178364069192e-18
767.0,0.0,0.0,0.0,0.0,0.0,0.0,-0.0012436362449079752,0.003011900931596756,0.002104297513142228,1.0,-3.469446951953614e-18,4.336808689942018e-19,3.5101045334218206e-18
768.0,0.0,0.0,0.0,0.0,0.0,0.0,-0.0020280578173696995,0.00434018624946475,0.0018122520996257663,1.0,0.0,-4.336808689942018e-19,1.7618285302889447e-19
769.0,0.0,0.0,0.0,0.0,0.0,0.0,-0.0029496399220079184,0.0033548863139003515,-0.004673287272453308,1.0,1.734723475976807e-18,0.0,-1.4501204056993622e-18
770.0,0.0,0.0,0.0,0.0,0.0,0.0,0.007553156930953264,-0.0027875376399606466,0.004728532861918211,1.0,0.0,2.168404344971009e-19,1.5178830414797062e-18
771.0,0.0,0.0,0.0,0.0,0.0,0.0,0.009728447534143925,-0.007214453537017107,0.009169924072921276,1.0,3.469446951953614e-18,-2.168404344971009e-19,-2.202285662861181e-18
772.0,0.0,0.0,0.0,0.0,0.0,0.0,3.289738060630043e-06,-0.0019979283679276705,0.0035076593048870564,1.0,0.0,-2.168404344971009e-19,1.3484764520288461e-18
773.0,0.0,0.0,0.0,0.0,0.0,0.0,-0.003213205374777317,0.0022255866788327694,0.006144972052425146,1.0,-3.469446951953614e-18,2.168404344971009e-19,2.0328790734103208e-20
774.0,0.0,0.0,0.0,0.0,0.0,0.0,-0.012269782833755016,0.012815328314900398,-0.00017137828399427235,1.0,-3.469446951953614e-18,3.2526065174565133e-19,1.9651164376299768e-19
775.0,0.0,0.0,0.0,0.0,0.0,0.0,-0.00897610280662775,0.0060662985779345036,-0.011129509657621384,1.0,3.469446951953614e-18,2.168404344971009e-19,-3.1170812458958252e-19
776.0,0.0,0.0,0.0,0.0,0.0,0.0,-0.0024960062000900507,-0.0013716332614421844,-0.006120574660599232,1.0,0.0,-3.2526065174565133e-19,-2.1345230270808369e-19
777.0,0.0,0.0,0.0,0.0,0.0,0.0,-0.00497290538623929,0.00653145182877779,-0.002471016487106681,1.0,0.0,5.421010862427522e-20,7.250602028496811e-19
778.0,0.0,0.0,0.0,0.0,0.0,0.0,0.00010310205834684893,0.0038873390294611454,0.0009881674777716398,1.0,1.734723475976807e-18,0.0,-3.615136618881354e-18
779.0,0.0,0.0,0.0,0.0,0.0,0.0,-0.002100152662023902,0.010766081511974335,0.003629684913903475,1.0,0.0,0.0,-1.4039571100740028e-19
780.0,0.0,0.0,0.0,0.0,0.0,0.0,-0.007687730714678764,0.007915922440588474,-0.011961357668042183,1.0,-1.734723475976807e-18,-4.0657581468206416e-20,5.0101998830091865e-19
781.0,0.0,0.0,0.0,0.0,0.0,0.0,-0.0004237757239025086,-0.005124399438500404,-0.011341539211571217,1.0,1.734723475976807e-18,-2.0328790734103208e-20,-1.7664872114988434e-18
782.0,0.0,0.0,0.0,0.0,0.0,0.0,0.008921975269913673,-0.015761831775307655,-0.00022006155631970614,1.0,0.0,-1.3552527156068805e-19,6.847996680755001e-19
783.0,0.0,0.0,0.0,0.0,0.0,0.0,0.010060256347060204,-0.018120666965842247,0.0011562376748770475,1.0,1.734723475976807e-18,1.3552527156068805e-20,-1.4746843611697369e-18
784.0,0.0,0.0,0.0,0.0,0.0,0.0,0.007479126565158367,-0.009090278297662735,0.002662456361576915,1.0,1.734723475976807e-18,-5.421010862427522e-20,-4.0793106739767104e-18
785.0,0.0,0.0,0.0,0.0,0.0,0.0,0.0048527889885008335,-0.0050579216331243515,0.002165081212297082,1.0,0.0,-5.421010862427522e-20,2.541098841762901e-18
786.0,0.0,0.0,0.0,0.0,0.0,0.0,0.0023329502437263727,-0.006174325942993164,-0.0027030445635318756,1.0,1.734723475976807e-18,-5.421010862427522e-20,8.368685518872487e-19
787.0,0.0,0.0,0.0,0.0,0.0,0.0,0.0038410492707043886,-0.008015559986233711,-0.0025950728449970484,1.0,0.0,-1.6263032587282567e-19,-6.708500942254059e-19
788.0,0.0,0.0,0.0,0.0,0.0,0.0,0.007415454369038343,-0.012056935578584671,0.00035138713428750634,1.0,3.469446951953614e-18,0.0,1.2536087619363645e-19
789.0,0.0,0.0,0.0,0.0,0.0,0.0,0.009527616202831268,-0.01534221787005663,0.0028590529691427946,1.0,1.734723475976807e-18,2.168404344971009e-19,-1.0570971181733668e-18
790.0,0.0,0.0,0.0,0.0,0.0,0.0,0.008820354007184505,-0.015014312230050564,-0.0007006701780483127,1.0,0.0,0.0,9.622294280808852e-19
791.0,0.0,0.0,0.0,0.0,0.0,0.0,0.006227187346667051,-0.011279682628810406,-0.0010529441060498357,1.0,-1.734723475976807e-18,-2.168404344971009e-19,3.686287386450715e-18
792.0,0.0,0.0,0.0,0.0,0.0,0.0,0.006094296928495169,-0.010555149987339973,-0.0007008184329606593,1.0,-1.734723475976807e-18,-2.168404344971009e-19,4.2690460541616737e-19
793.0,0.0,0.0,0.0,0.0,0.0,0.0,0.004001816734671593,-0.007987468503415585,-0.00011276207078481093,1.0,-1.734723475976807e-18,1.0842021724855044e-19,-1.5111067779016718e-18
794.0,0.0,0.0,0.0,0.0,0.0,0.0,0.0006803124560974538,-0.005813516676425934,-0.002207784214988351,1.0,0.0,0.0,-6.301925127571995e-19
795.0,0.0,0.0,0.0,0.0,0.0,0.0,-0.0014287589583545923,-0.0023225455079227686,-0.004658254329115152,1.0,0.0,-2.168404344971009e-19,-2.5275463146068322e-18
796.0,0.0,0.0,0.0,0.0,0.0,0.0,-0.004195482470095158,0.0039804293774068356,-0.0053773135878145695,1.0,0.0,0.0,1.5449880957918438e-18
797.0,0.0,0.0,0.0,0.0,0.0,0.0,-0.0017155027016997337,0.0010390894021838903,-0.0033104645553976297,1.0,0.0,0.0,-2.2768245622195593e-18
798.0,0.0,0.0,0.0,0.0,0.0,0.0,-0.0036620155442506075,0.0056298947893083096,-0.0015026263426989317,1.0,0.0,1.0842021724855044e-19,9.317362419797304e-19
799.0,0.0,0.0,0.0,0.0,0.0,0.0,-0.005201073829084635,0.012286760844290257,-0.000950394372921437,1.0,1.734723475976807e-18,1.0842021724855044e-19,3.494857940371243e-18
800.0,0.0,0.0,0.0,0.0,0.0,0.0,-0.0007363897748291492,0.010771363042294979,-0.002818032633513212,1.0,3.469446951953614e-18,-2.710505431213761e-20,1.3129010682441655e-18
801.0,0.0,0.0,0.0,0.0,0.0,0.0,0.003153417259454727,0.010194516740739346,0.0007745829643681645,1.0,1.734723475976807e-18,2.710505431213761e-20,-1.8143445730187113e-18
802.0,0.0,0.0,0.0,0.0,0.0,0.0,0.0044923098757863045,0.010105257853865623,0.007857795804738998,1.0,0.0,0.0,-7.420008617947671e-19
803.0,0.0,0.0,0.0,0.0,0.0,0.0,0.005913556087762117,0.0016886430094018579,0.006857591215521097,1.0,0.0,0.0,5.5768649247223134e-18
804.0,0.0,0.0,0.0,0.0,0.0,0.0,0.015377969481050968,-0.02079470083117485,0.0002461362164467573,1.0,1.734723475976807e-18,-1.0842021724855044e-19,1.4094628242311558e-18
805.0,0.0,0.0,0.0,0.0,0.0,0.0,0.01651132106781006,-0.025666261091828346,0.010204321704804897,1.0,-1.734723475976807e-18,-3.2526065174565133e-19,2.032879073410321e-18
806.0,0.0,0.0,0.0,0.0,0.0,0.0,-0.004404165782034397,-0.0012811085907742381,-0.003539979923516512,1.0,0.0,-3.2526065174565133e-19,-8.809142651444724e-20
807.0,0.0,0.0,0.0,0.0,0.0,0.0,-0.011835082434117794,0.0019292457727715373,-0.015846164897084236,1.0,0.0,-2.168404344971009e-19,1.328147661294743e-18
808.0,0.0,0.0,0.0,0.0,0.0,0.0,-0.008313298225402832,0.0013923071091994643,-0.009255493059754372,1.0,-3.469446951953614e-18,-4.336808689942018e-19,3.781155076543197e-18
809.0,0.0,0.0,0.0,0.0,0.0,0.0,0.0016548598650842905,-0.005681690759956837,-0.0007231924682855606,1.0,3.469446951953614e-18,0.0,-5.421010862427522e-19
810.0,0.0,0.0,0.0,0.0,0.0,0.0,0.005352085456252098,-0.005043859127908945,0.008083993569016457,1.0,1.734723475976807e-18,4.336808689942018e-19,-3.97089045672816e-18
811.0,0.0,0.0,0.0,0.0,0.0,0.0,0.0016261738492175937,-0.0004344605840742588,0.007204393390566111,1.0,-1.734723475976807e-18,1.3010426069826053e-18,5.963111948670274e-19
812.0,0.0,0.0,0.0,0.0,0.0,0.0,-0.0053079985082149506,0.005821012891829014,0.0017327499808743596,1.0,1.734723475976807e-18,-8.673617379884035e-19,1.6263032587282567e-18
813.0,0.0,0.0,0.0,0.0,0.0,0.0,-0.0038563376292586327,0.008179346099495888,-0.0008512992644682527,1.0,1.734723475976807e-18,-8.673617379884035e-19,-8.131516293641283e-20
814.0,0.0,0.0,0.0,0.0,0.0,0.0,0.004723164718598127,0.004270730074495077,0.0027218458708375692,1.0,0.0,-1.734723475976807e-18,-1.6805133673525319e-18
815.0,0.0,0.0,0.0,0.0,0.0,0.0,0.017683330923318863,-0.01394686195999384,0.0071197133511304855,1.0,3.469446951953614e-18,8.673617379884035e-19,3.2526065174565133e-19
816.0,0.0,0.0,0.0,0.0,0.0,0.0,0.010562112554907799,-0.009071091189980507,0.009452559985220432,1.0,-3.469446951953614e-18,0.0,-2.4665599424045226e-18
817.0,0.0,0.0,0.0,0.0,0.0,0.0,0.009929534047842026,-0.004906758200377226,0.00810268521308899,1.0,0.0,8.673617379884035e-19,-1.0842021724855044e-19
818.0,0.0,0.0,0.0,0.0,0.0,0.0,0.012129360809922218,-0.007495231926441193,0.008944905363023281,1.0,-1.734723475976807e-18,4.336808689942018e-19,-2.710505431213761e-20
819.0,0.0,0.0,0.0,0.0,0.0,0.0,0.0043873256072402,-0.0013913310831412673,0.0049380832351744175,1.0,0.0,-4.336808689942018e-19,2.0735366548785272e-18
820.0,0.0,0.0,0.0,0.0,0.0,0.0,0.002064939122647047,0.0005774651071988046,0.00042913222569040954,1.0,0.0,8.673617379884035e-19,2.3852447794681098e-18
821.0,0.0,0.0,0.0,0.0,0.0,0.0,0.0022408475633710623,-0.003398889908567071,-0.003090823069214821,1.0,-1.734723475976807e-18,-1.0842021724855044e-18,-1.179069862577986e-18
822.0,0.0,0.0,0.0,0.0,0.0,0.0,0.0006797663518227637,0.0014663382899016142,-0.00015285304107237607,1.0,-1.734723475976807e-18,0.0,-1.0570971181733668e-18
823.0,0.0,0.0,0.0,0.0,0.0,0.0,0.0007585819694213569,9.024344763020054e-05,-0.001181050785817206,1.0,-5.204170427930421e-18,0.0,-2.1074179727686992e-18
824.0,0.0,0.0,0.0,0.0,0.0,0.0,-0.0016471202252432704,-0.002569755772128701,-0.012089715339243412,1.0,0.0,1.0842021724855044e-19,-1.4704491964334654e-18
825.0,0.0,0.0,0.0,0.0,0.0,0.0,0.004411436151713133,-0.004714609123766422,-0.009043269790709019,1.0,-1.734723475976807e-18,2.168404344971009e-19,1.768604793866979e-18
826.0,0.0,0.0,0.0,0.0,0.0,0.0,0.0039675794541835785,-0.004387316294014454,-0.0048205796629190445,1.0,0.0,-1.4907779871675686e-19,7.153193239562566e-19
827.0,0.0,0.0,0.0,0.0,0.0,0.0,-0.0010326822521165013,-0.0031654536724090576,-0.007218478713184595,1.0,3.469446951953614e-18,2.710505431213761e-20,4.717973516206453e-19
828.0,0.0,0.0,0.0,0.0,0.0,0.0,-0.002422640100121498,-0.001957111293449998,-0.003583605168387294,1.0,1.734723475976807e-18,5.421010862427522e-20,1.3552527156068805e-18
829.0,0.0,0.0,0.0,0.0,0.0,0.0,-0.0033261533826589584,-0.0011111227795481682,0.00022389677178580314,1.0,-1.734723475976807e-18,-1.0842021724855044e-19,-1.1316360175317453e-18
830.0,0.0,0.0,0.0,0.0,0.0,0.0,-0.007892482914030552,0.002313996898010373,-0.005234740674495697,1.0,-1.734723475976807e-18,-5.421010862427522e-20,-6.403569081242511e-19
831.0,0.0,0.0,0.0,0.0,0.0,0.0,-0.0043706451542675495,-0.0018302802927792072,-0.001023012213408947,1.0,-1.734723475976807e-18,-1.0842021724855044e-19,-9.215718466126788e-19
832.0,0.0,0.0,0.0,0.0,0.0,0.0,-0.00312736164778471,7.098522928572493e-06,0.0014064490096643567,1.0,1.734723475976807e-18,5.421010862427522e-20,1.378969638130001e-18
833.0,0.0,0.0,0.0,0.0,0.0,0.0,-0.0019159592920914292,-0.002639380283653736,-0.0013739115092903376,1.0,0.0,1.0842021724855044e-19,2.7714918034160707e-18
834.0,0.0,0.0,0.0,0.0,0.0,0.0,0.0012909085489809513,-0.004459239076822996,0.0006877202540636063,1.0,0.0,1.0842021724855044e-19,1.650020181251377e-18
835.0,0.0,0.0,0.0,0.0,0.0,0.0,0.00014362296496983618,-0.0006118591409176588,0.0037534793373197317,1.0,0.0,0.0,1.785545452812065e-18
836.0,0.0,0.0,0.0,0.0,0.0,0.0,-0.00235217553563416,0.004254776984453201,-0.0012588915415108204,1.0,0.0,0.0,-1.6398557858843255e-18
837.0,0.0,0.0,0.0,0.0,0.0,0.0,-0.007181140594184399,0.011025589890778065,0.0004679187259171158,1.0,-5.204170427930421e-18,-2.168404344971009e-19,-2.4191260973582818e-18
838.0,0.0,0.0,0.0,0.0,0.0,0.0,-0.007294403854757547,0.013351868838071823,-0.001664910581894219,1.0,0.0,-1.0842021724855044e-19,7.420008617947671e-19
839.0,0.0,0.0,0.0,0.0,0.0,0.0,0.002524021314457059,0.0010562138631939888,0.0016824124613776803,1.0,1.734723475976807e-18,0.0,-2.5614276324970042e-18
840.0,0.0,0.0,0.0,0.0,0.0,0.0,-0.00189564551692456,0.006879137363284826,0.0023212628439068794,1.0,0.0,0.0,-1.2536087619363645e-19
841.0,0.0,0.0,0.0,0.0,0.0,0.0,-0.004004425834864378,0.006436099298298359,-0.0027466516476124525,1.0,1.734723475976807e-18,-1.0842021724855044e-19,-6.437450399132683e-19
842.0,0.0,0.0,0.0,0.0,0.0,0.0,0.0016848378581926227,0.0003787723835557699,-0.0009888367494568229,1.0,1.734723475976807e-18,-1.0842021724855044e-19,-1.7957098481791167e-18
843.0,0.0,0.0,0.0,0.0,0.0,0.0,0.0025001319590955973,-0.001398094929754734,-0.0032863966189324856,1.0,1.734723475976807e-18,2.168404344971009e-19,2.710505431213761e-20
844.0,0.0,0.0,0.0,0.0,0.0,0.0,0.0040884241461753845,-0.006537065841257572,-0.0034555476158857346,1.0,3.469446951953614e-18,0.0,-3.3949080525952358e-18
845.0,0.0,0.0,0.0,0.0,0.0,0.0,0.004176776856184006,-0.008195661939680576,-0.00044663652079179883,1.0,-1.734723475976807e-18,0.0,-3.300040362502754e-18
846.0,0.0,0.0,0.0,0.0,0.0,0.0,0.004203059710562229,-0.007911191321909428,0.00020675209816545248,1.0,1.734723475976807e-18,2.168404344971009e-19,-3.4626706883755798e-18
847.0,0.0,0.0,0.0,0.0,0.0,0.0,0.005241577047854662,-0.009677133522927761,0.0014748915564268827,1.0,1.734723475976807e-18,2.168404344971009e-19,-4.336808689942018e-19
848.0,0.0,0.0,0.0,0.0,0.0,0.0,0.003304740646854043,-0.01136005762964487,0.0019858372397720814,1.0,0.0,2.168404344971009e-19,-9.893344823930228e-19
849.0,0.0,0.0,0.0,0.0,0.0,0.0,0.0030159803573042154,-0.011089234612882137,0.0034236900974065065,1.0,1.734723475976807e-18,2.168404344971009e-19,5.421010862427522e-20
850.0,0.0,0.0,0.0,0.0,0.0,0.0,0.0001649999903747812,-0.007677888497710228,-0.001160144922323525,1.0,1.734723475976807e-18,4.336808689942018e-19,4.2148359455373985e-18
851.0,0.0,0.0,0.0,0.0,0.0,0.0,0.0002867845178116113,-0.007922656834125519,-0.007565946318209171,1.0,-3.469446951953614e-18,4.336808689942018e-19,-2.087089182034596e-18
852.0,0.0,0.0,0.0,0.0,0.0,0.0,-0.00034240417880937457,-0.008294750936329365,-0.0028430456295609474,1.0,0.0,0.0,4.228388472693467e-18
853.0,0.0,0.0,0.0,0.0,0.0,0.0,-0.0019844325724989176,-0.005080905742943287,0.0005137394182384014,1.0,-1.734723475976807e-18,0.0,2.168404344971009e-18
854.0,0.0,0.0,0.0,0.0,0.0,0.0,-0.0023983391001820564,-0.0021865624003112316,-0.0029809174593538046,1.0,-1.734723475976807e-18,-4.336808689942018e-19,2.5343225781848666e-18
