,Position_X,Position_Y,Position_Z,Velocity_X,Velocity_Y,Velocity_Z,Acceleration_X,Acceleration_Y,Acceleration_Z,Quaterion_0,Quaterion_1,Quaterion_2,Quaterion_3
90.0,0.0,0.0,0.0,0.0,0.0,0.0,-0.006869874894618988,-0.0026612302754074335,-0.0015662324149161577,1.0,-1.734723475976807e-18,6.938893903907228e-18,-6.938893903907228e-18
91.0,0.0,0.0,0.0,0.0,0.0,0.0,-0.004812390077859163,-0.001865777070634067,-0.0014774954179301858,0.9999987483024597,0.00035834405571222305,0.001486755907535553,0.0004104968684259802
92.0,0.0,0.0,0.0,0.0,0.0,0.0,-0.0029649008065462112,-0.0042165592312812805,-0.006905844435095787,0.9999967813491821,0.000883672502823174,0.002358316211029887,0.0003424155293032527
93.0,0.0,0.0,0.0,0.0,0.0,0.0,0.004205296281725168,-0.005068531259894371,-0.018678544089198112,0.9999958872795105,0.0012509772786870599,0.0024645980447530746,0.0007256274693645537
94.0,0.0,0.0,0.0,0.0,0.0,0.0,0.008179903030395508,-0.020024288445711136,-0.044645678251981735,0.9999980330467224,0.000651398440822959,0.0017469580052420497,0.0006864662282168865
95.0,0.0,0.0,0.0,0.0,0.0,0.0,0.0125136598944664,-0.0025919799227267504,0.020500587299466133,0.9999995827674866,0.00016693481302354485,0.000550881028175354,0.0006906151538714767
96.0,0.0,0.0,0.0,0.0,0.0,0.0,0.009610556066036224,-0.0010530977742746472,0.012582393363118172,0.9999992847442627,-0.00021378173551056534,-0.0009594696457497776,0.0006702154059894383
97.0,0.0,0.0,0.0,0.0,0.0,0.0,0.0019427173538133502,-0.007058074697852135,0.029698902741074562,0.9999977350234985,-0.0008831234881654382,-0.0019060319755226374,0.00035380531335249543
98.0,0.0,0.0,0.0,0.0,0.0,0.0,-4.9584737098484766e-06,-0.008555040694773197,0.02493136189877987,0.9999964237213135,-0.0013134016189724207,-0.002327457768842578,0.00019423327466938645
99.0,0.0,0.0,0.0,0.0,0.0,0.0,-0.0016634813509881496,-0.008108029142022133,0.014283107593655586,0.999994158744812,-0.001674183877184987,-0.0029720363672822714,0.00030754992621950805
100.0,0.0,0.0,0.0,0.0,0.0,0.0,-0.002923234598711133,-0.005593091249465942,0.009303411468863487,0.9999915957450867,-0.0021454652305692434,-0.0034501764457672834,0.0005014914204366505
101.0,0.0,0.0,0.0,0.0,0.0,0.0,-7.25600984878838e-05,0.0077360449358820915,0.007770986761897802,0.9999918937683105,-0.002133262576535344,-0.0033796795178204775,0.0004993784823454916
102.0,0.0,0.0,0.0,0.0,0.0,0.0,-0.0013107574777677655,0.010608644224703312,0.009261942468583584,0.9999930262565613,-0.001772180199623108,-0.003230690723285079,0.0006348890601657331
103.0,0.0,0.0,0.0,0.0,0.0,0.0,-0.0021920320577919483,0.009464244358241558,0.003525502048432827,0.9999956488609314,-0.0015114889247342944,-0.0024249886628240347,0.0007513798773288727
104.0,0.0,0.0,0.0,0.0,0.0,0.0,-0.0031688562594354153,0.011213705874979496,-0.003824318293482065,0.9999960660934448,-0.001265603699721396,-0.0022423926275223494,0.001120073487982154
105.0,0.0,0.0,0.0,0.0,0.0,0.0,-0.005520080681890249,0.013671486638486385,-0.00796769093722105,0.9999962449073792,-0.001196045777760446,-0.0019506888929754496,0.001518066506832838
106.0,0.0,0.0,0.0,0.0,0.0,0.0,-0.004864325746893883,0.015887374058365822,-0.009574874304234982,0.9999970197677612,-0.0006213950109668076,-0.0013953440356999636,0.001892870757728815
107.0,0.0,0.0,0.0,0.0,0.0,0.0,-0.004541327245533466,0.016428867354989052,-0.010186558589339256,0.999996542930603,-7.733160600764677e-05,-0.0008835290209390223,0.002486513229086995
108.0,0.0,0.0,0.0,0.0,0.0,0.0,-0.004473854321986437,0.017195461317896843,-0.009002219885587692,0.999995768070221,0.00027681703795678914,-0.0007365031633526087,0.0027928915806114674
109.0,0.0,0.0,0.0,0.0,0.0,0.0,-0.0026390869170427322,0.01646420732140541,-0.009071013890206814,0.999995768070221,0.0006010299548506737,-0.0008010708261281252,0.0027270906139165163
110.0,0.0,0.0,0.0,0.0,0.0,0.0,-0.0015746834687888622,0.016591861844062805,-0.007569548673927784,0.9999937415122986,0.0011490453034639359,-0.0004977219505235553,0.0032997443340718746
111.0,0.0,0.0,0.0,0.0,0.0,0.0,-0.0006664674147032201,0.01630113273859024,-0.004235062748193741,0.9999896883964539,0.0014829877763986588,-0.0006272690952755511,0.004238905850797892
112.0,0.0,0.0,0.0,0.0,0.0,0.0,0.0009869849309325218,0.014261195436120033,-0.0027919316198676825,0.9999856352806091,0.0019274059450253844,-0.0007057363982312381,0.004948535468429327
113.0,0.0,0.0,0.0,0.0,0.0,0.0,0.0013715667882934213,0.015243232250213623,0.0003602737560868263,0.9999840259552002,0.002216917695477605,-0.0006274696788750589,0.005161662586033344
114.0,0.0,0.0,0.0,0.0,0.0,0.0,0.00034830046934075654,0.014552603475749493,0.0005153277888894081,0.9999822974205017,0.00243767281062901,-0.00029927960713393986,0.005421951413154602
115.0,0.0,0.0,0.0,0.0,0.0,0.0,0.0006802446441724896,0.011248067021369934,0.0006965752691030502,0.9999822378158569,0.0023448492866009474,-9.724871051730588e-05,0.005482202395796776
116.0,0.0,0.0,0.0,0.0,0.0,0.0,0.0007486571557819843,0.010601230897009373,0.0036402889527380466,0.9999833106994629,0.0022706741001456976,-8.192448876798153e-05,0.005313045810908079
117.0,0.0,0.0,0.0,0.0,0.0,0.0,-4.953881580149755e-05,0.009251357987523079,0.0025882762856781483,0.9999837875366211,0.0023918114602565765,0.00019361772865522653,0.005158299580216408
118.0,0.0,0.0,0.0,0.0,0.0,0.0,-0.001302030635997653,0.006250958889722824,0.001458772225305438,0.9999840259552002,0.0028508331160992384,0.0016629749443382025,0.004582282621413469
119.0,0.0,0.0,0.0,0.0,0.0,0.0,-0.0012940415181219578,0.0039005952421575785,0.0006160459597595036,0.9999811053276062,0.003111449768766761,0.0026695034466683865,0.004577139858156443
120.0,0.0,0.0,0.0,0.0,0.0,0.0,-0.0018267941195517778,0.0012519161682575941,-0.005242637358605862,0.999976396560669,0.003629110287874937,0.003540223464369774,0.004640852566808462
121.0,0.0,0.0,0.0,0.0,0.0,0.0,0.004982666112482548,-0.000355978641891852,-0.02587173320353031,0.9999729990959167,0.003978435415774584,0.003220910904929042,0.00527008855715394
122.0,0.0,0.0,0.0,0.0,0.0,0.0,0.0036966607440263033,-0.024520087987184525,-0.06212223321199417,0.9999810457229614,0.0034247790463268757,0.002618436235934496,0.004394346382468939
123.0,0.0,0.0,0.0,0.0,0.0,0.0,0.005258442368358374,-0.009454327635467052,0.017042584717273712,0.9999852180480957,0.003329635364934802,0.0024872212670743465,0.0035134742502123117
124.0,0.0,0.0,0.0,0.0,0.0,0.0,0.007106911391019821,-0.0007945504039525986,0.012549512088298798,0.9999882578849792,0.0032987783197313547,0.0025391902308911085,0.0024910832289606333
125.0,0.0,0.0,0.0,0.0,0.0,0.0,0.0009391261846758425,-0.008918358944356441,0.02374442107975483,0.9999921321868896,0.0027391230687499046,0.0022893601562827826,0.0017325779190286994
126.0,0.0,0.0,0.0,0.0,0.0,0.0,0.0020791504066437483,-0.0068448008969426155,0.017331445589661598,0.999994695186615,0.002039669081568718,0.0017506234580650926,0.0018309529405087233
127.0,0.0,0.0,0.0,0.0,0.0,0.0,0.004907106980681419,-0.0030481715220957994,0.0025819512084126472,0.9999953508377075,0.0012282890966162086,0.0011494852369651198,0.002551260171458125
128.0,0.0,0.0,0.0,0.0,0.0,0.0,0.00532121304422617,0.003063277807086706,0.000972148438449949,0.9999949336051941,0.000606875924859196,0.000973098271060735,0.0029627156909555197
129.0,0.0,0.0,0.0,0.0,0.0,0.0,0.0034600510261952877,0.005607524421066046,0.01695430837571621,0.9999954700469971,-0.00011308635293971747,0.0005918976967222989,0.0029563175048679113
130.0,0.0,0.0,0.0,0.0,0.0,0.0,0.003017417388036847,0.00621354253962636,0.014128534123301506,0.9999955892562866,-0.0006614499725401402,0.0006687122513540089,0.0028178372886031866
131.0,0.0,0.0,0.0,0.0,0.0,0.0,0.0037521030753850937,0.011393793858587742,0.011035707779228687,0.9999948143959045,-0.0010048982221633196,0.0008287949021905661,0.0029387702234089375
132.0,0.0,0.0,0.0,0.0,0.0,0.0,-0.001564802834764123,0.013436720706522465,0.00813163723796606,0.9999933242797852,-0.0010824574856087565,0.0012841036077588797,0.0032461967784911394
133.0,0.0,0.0,0.0,0.0,0.0,0.0,-0.0033054824452847242,0.015365736559033394,0.003524934407323599,0.9999915957450867,-0.000870907970238477,0.0017488088924437761,0.0036053380463272333
134.0,0.0,0.0,0.0,0.0,0.0,0.0,-0.003357882145792246,0.01856926642358303,-0.0011463598348200321,0.9999884963035583,-0.0006314144702628255,0.0021338872611522675,0.004241111222654581
135.0,0.0,0.0,0.0,0.0,0.0,0.0,-0.0023875904735177755,0.020626965910196304,-0.00639188289642334,0.9999808669090271,-4.7497949708485976e-05,0.002337278099730611,0.005729686468839645
136.0,0.0,0.0,0.0,0.0,0.0,0.0,-0.0028543269727379084,0.021141598001122475,-0.008740752935409546,0.9999740719795227,0.000126533632283099,0.0027241369243711233,0.006664859596639872
137.0,0.0,0.0,0.0,0.0,0.0,0.0,-0.0019306668546050787,0.021786946803331375,-0.005981280002743006,0.9999741315841675,0.0006515629356727004,0.003147088922560215,0.006435703951865435
138.0,0.0,0.0,0.0,0.0,0.0,0.0,-0.0018494210671633482,0.01920081488788128,-0.009188491851091385,0.9999722838401794,0.0010910724522545934,0.0029924993868917227,0.006725574843585491
139.0,0.0,0.0,0.0,0.0,0.0,0.0,-0.0006615229067392647,0.021394595503807068,-0.001023000106215477,0.9999712109565735,0.001687076990492642,0.0028870748355984688,0.00680769607424736
140.0,0.0,0.0,0.0,0.0,0.0,0.0,-4.06714498240035e-05,0.01690617948770523,-0.0022644016426056623,0.9999714493751526,0.0023459293879568577,0.00274136895313859,0.00664178654551506
141.0,0.0,0.0,0.0,0.0,0.0,0.0,0.0009947189828380942,0.016678400337696075,0.0016250342596322298,0.9999740123748779,0.0028063019271939993,0.0022779342252761126,0.006235737819224596
142.0,0.0,0.0,0.0,0.0,0.0,0.0,0.0018623988144099712,0.01558294240385294,0.004134004935622215,0.999972403049469,0.003337964415550232,0.0023131195921450853,0.0062236906960606575
143.0,0.0,0.0,0.0,0.0,0.0,0.0,0.0028171290177851915,0.012780096381902695,0.005036110058426857,0.9999698400497437,0.0037713919300585985,0.0024992479011416435,0.00631617521867156
144.0,0.0,0.0,0.0,0.0,0.0,0.0,0.003759510815143585,0.00909731350839138,0.006502175237983465,0.9999672174453735,0.004306258168071508,0.00286305439658463,0.0062346565537154675
145.0,0.0,0.0,0.0,0.0,0.0,0.0,0.0042730881832540035,0.005212780088186264,0.007527139037847519,0.9999604225158691,0.005293835885822773,0.0048948791809380054,0.005213831551373005
146.0,0.0,0.0,0.0,0.0,0.0,0.0,0.0050172810442745686,0.001852116547524929,0.003418663749471307,0.9999449849128723,0.0057892207987606525,0.00706877326592803,0.0051463390700519085
147.0,0.0,0.0,0.0,0.0,0.0,0.0,0.005727638024836779,-0.0006188572151586413,-0.004110715817660093,0.9999381899833679,0.0058870334178209305,0.008349151350557804,0.004387472756206989
148.0,0.0,0.0,0.0,0.0,0.0,0.0,0.009468723088502884,-0.002468363381922245,-0.01683730073273182,0.9999194741249084,0.006798442453145981,0.009497555904090405,0.0049641430377960205
149.0,0.0,0.0,0.0,0.0,0.0,0.0,0.017870668321847916,-0.01682644709944725,-0.08234066516160965,0.9999176859855652,0.006509315222501755,0.009551635012030602,0.005572434514760971
150.0,0.0,0.0,0.0,0.0,0.0,0.0,0.022147614508867264,0.0062481071799993515,0.0005726191448047757,0.9999257326126099,0.006597473286092281,0.00865203607827425,0.005487001966685057
151.0,0.0,0.0,0.0,0.0,0.0,0.0,0.022985190153121948,0.008056008256971836,-0.005904557183384895,0.999935507774353,0.006947478745132685,0.007486993446946144,0.004966928157955408
152.0,0.0,0.0,0.0,0.0,0.0,0.0,0.012498777359724045,-0.0055235521867871284,0.013126528821885586,0.999947726726532,0.006351459305733442,0.006065309513360262,0.0052300975657999516
153.0,0.0,0.0,0.0,0.0,0.0,0.0,0.0048540933057665825,-0.0031134511809796095,0.031130371615290642,0.9999571442604065,0.0059068892151117325,0.004569448530673981,0.005468135233968496
154.0,0.0,0.0,0.0,0.0,0.0,0.0,0.002380124991759658,-0.011915754526853561,0.011880533769726753,0.999965488910675,0.005535648204386234,0.0035491385497152805,0.005072503350675106
155.0,0.0,0.0,0.0,0.0,0.0,0.0,0.006321472581475973,-0.014078485779464245,0.0008358802297152579,0.9999725222587585,0.004891486372798681,0.0025544175878167152,0.004944772459566593
156.0,0.0,0.0,0.0,0.0,0.0,0.0,0.008243280462920666,-0.006994495168328285,0.015349776484072208,0.9999791383743286,0.004208659753203392,0.001682030619122088,0.004599695559591055
157.0,0.0,0.0,0.0,0.0,0.0,0.0,0.004800502676516771,-0.008062203414738178,0.021375373005867004,0.999986469745636,0.0035567658487707376,0.0009358434472233057,0.0036718789488077164
158.0,0.0,0.0,0.0,0.0,0.0,0.0,0.0020789694972336292,-0.006614720914512873,0.022408129647374153,0.9999889731407166,0.0030891955830156803,0.0007172779878601432,0.003468041541054845
159.0,0.0,0.0,0.0,0.0,0.0,0.0,-0.0005738524487242103,-0.008468893356621265,0.018617553636431694,0.9999917149543762,0.00260914396494627,0.0014914256753399968,0.002749429550021887
160.0,0.0,0.0,0.0,0.0,0.0,0.0,-0.003676280379295349,-0.007693692576140165,0.01611565425992012,0.9999920129776001,0.002348643494769931,0.0028498454485088587,0.0015280534280464053
161.0,0.0,0.0,0.0,0.0,0.0,0.0,-0.002665938576683402,-0.005346816964447498,0.008361687883734703,0.9999902248382568,0.0021295074839144945,0.0036824510898441076,0.0011690466199070215
162.0,0.0,0.0,0.0,0.0,0.0,0.0,-0.0013905735686421394,-0.0020466982387006283,-0.0046849423088133335,0.9999862909317017,0.002253651386126876,0.004601145163178444,0.0010429124813526869
163.0,0.0,0.0,0.0,0.0,0.0,0.0,-0.0019722352735698223,-0.0006181830540299416,-0.016085220500826836,0.9999826550483704,0.002671938156709075,0.0051803686656057835,0.0008137560798786581
164.0,0.0,0.0,0.0,0.0,0.0,0.0,-0.001905627897940576,0.0032520778477191925,-0.015541503205895424,0.9999759197235107,0.0029420002829283476,0.006248681806027889,0.0006788135506212711
165.0,0.0,0.0,0.0,0.0,0.0,0.0,7.894129521446303e-05,0.010133561678230762,-0.003927640151232481,0.9999672174453735,0.0031086220405995846,0.00738363154232502,0.0011490334291011095
166.0,0.0,0.0,0.0,0.0,0.0,0.0,0.004555996973067522,0.01767556741833687,-0.004660384729504585,0.9999590516090393,0.003764914348721504,0.007827842608094215,0.0025181532837450504
167.0,0.0,0.0,0.0,0.0,0.0,0.0,0.006296033039689064,0.021865561604499817,-0.014134731143712997,0.999949038028717,0.004363272804766893,0.008043247275054455,0.00425881939008832
168.0,0.0,0.0,0.0,0.0,0.0,0.0,0.009470338001847267,0.024785753339529037,-0.023555686697363853,0.9999398589134216,0.004818035755306482,0.008073929697275162,0.005646899808198214
169.0,0.0,0.0,0.0,0.0,0.0,0.0,0.01320142112672329,0.021176276728510857,-0.02092529647052288,0.9999340176582336,0.004958225879818201,0.00799693912267685,0.006583866663277149
170.0,0.0,0.0,0.0,0.0,0.0,0.0,0.012066474184393883,0.01673242636024952,-0.012403350323438644,0.9999301433563232,0.005136743187904358,0.00751267746090889,0.007539540529251099
171.0,0.0,0.0,0.0,0.0,0.0,0.0,0.01078161969780922,0.016572434455156326,-0.002576465019956231,0.9999285340309143,0.0050453804433345795,0.007080905605107546,0.00820227712392807
172.0,0.0,0.0,0.0,0.0,0.0,0.0,0.010908211581408978,0.013400240801274776,0.004551335237920284,0.9999294877052307,0.004948589950799942,0.00685665849596262,0.008337567560374737
173.0,0.0,0.0,0.0,0.0,0.0,0.0,0.009610911831259727,0.012305716052651405,0.012296308763325214,0.9999290704727173,0.0048194644041359425,0.006578168366104364,0.008682839572429657
174.0,0.0,0.0,0.0,0.0,0.0,0.0,0.008709891699254513,0.012698385864496231,0.007656080648303032,0.9999227523803711,0.004769899882376194,0.006051012314856052,0.009754425846040249
175.0,0.0,0.0,0.0,0.0,0.0,0.0,0.007871872745454311,0.009001688100397587,-0.0013095870381221175,0.9999105334281921,0.004849659278988838,0.005375944543629885,0.011245399713516235
176.0,0.0,0.0,0.0,0.0,0.0,0.0,0.00787047203630209,0.0074454681016504765,-0.002307528629899025,0.9999065399169922,0.004580602049827576,0.004935712553560734,0.011895407922565937
177.0,0.0,0.0,0.0,0.0,0.0,0.0,0.008510671555995941,0.005204963963478804,-0.00024129309167619795,0.9999123215675354,0.004132622387260199,0.005237219389528036,0.011437389999628067
178.0,0.0,0.0,0.0,0.0,0.0,0.0,0.005909707862883806,0.0017216901760548353,0.0030398003291338682,0.9999176859855652,0.0035850764252245426,0.0054028877057135105,0.011069175787270069
179.0,0.0,0.0,0.0,0.0,0.0,0.0,0.0010514879832044244,-0.002877977676689625,0.004890740849077702,0.9999244213104248,0.0028982183430343866,0.005080642178654671,0.010813785716891289
180.0,0.0,0.0,0.0,0.0,0.0,0.0,-0.0009442383889108896,-0.0046509308740496635,0.00756471324712038,0.9999334812164307,0.001914603402838111,0.004824935458600521,0.010297873057425022
181.0,0.0,0.0,0.0,0.0,0.0,0.0,0.0007797450525686145,-0.006542491260915995,-0.0010370330419391394,0.9999478459358215,0.0011169619392603636,0.004247621633112431,0.009212921373546124
182.0,0.0,0.0,0.0,0.0,0.0,0.0,0.00181835878174752,-0.005750793498009443,-0.0017800916684791446,0.999961256980896,0.0005290717235766351,0.004038138780742884,0.007799785118550062
183.0,0.0,0.0,0.0,0.0,0.0,0.0,-0.001567195518873632,-0.0038112150505185127,0.010953417979180813,0.9999697804450989,0.0001192025447380729,0.003581373021006584,0.00688473554328084
184.0,0.0,0.0,0.0,0.0,0.0,0.0,-0.0036681867204606533,-0.0011543860891833901,0.018142402172088623,0.999975860118866,-0.00045090849744156003,0.002771482802927494,0.006358461454510689
185.0,0.0,0.0,0.0,0.0,0.0,0.0,-0.006060665939003229,0.00019658778910525143,0.02230597287416458,0.9999805092811584,-0.0008502719574607909,0.0020979251712560654,0.00581008568406105
186.0,0.0,0.0,0.0,0.0,0.0,0.0,-0.0031829052604734898,-0.0018118383595719934,0.010777389630675316,0.9999839067459106,-0.000821885303594172,0.0020997817628085613,0.005189552903175354
187.0,0.0,0.0,0.0,0.0,0.0,0.0,0.0045613739639520645,0.009162669070065022,0.014703884720802307,0.9999849200248718,-0.00043849041685462,0.002642694627866149,0.004794465843588114
188.0,0.0,0.0,0.0,0.0,0.0,0.0,0.007167377974838018,0.012380670756101608,0.012275990098714828,0.9999815225601196,-7.41745243431069e-05,0.0030973844695836306,0.005216971039772034
189.0,0.0,0.0,0.0,0.0,0.0,0.0,0.008098377846181393,0.014551921747624874,0.01388807687908411,0.9999720454216003,0.0006239845533855259,0.00354331755079329,0.0065626357682049274
190.0,0.0,0.0,0.0,0.0,0.0,0.0,0.005346410442143679,0.013140937313437462,-0.010627244599163532,0.9999613165855408,0.0008330747950822115,0.004291550721973181,0.0076230550184845924
191.0,0.0,0.0,0.0,0.0,0.0,0.0,0.004810802638530731,0.004497551824897528,-0.014803515747189522,0.9999549984931946,0.0008204832556657493,0.005391711834818125,0.007748882751911879
192.0,0.0,0.0,0.0,0.0,0.0,0.0,0.0039073568768799305,0.0021444004960358143,-0.0161198228597641,0.9999544620513916,0.0004626426671165973,0.006549028679728508,0.006913159042596817
193.0,0.0,0.0,0.0,0.0,0.0,0.0,0.0005455882055684924,-0.0021070768125355244,-0.015895714983344078,0.9999527335166931,0.00040749096660874784,0.007285098545253277,0.0064167445525527
194.0,0.0,0.0,0.0,0.0,0.0,0.0,0.00015549240924883634,-0.0029099134262651205,-0.005104466341435909,0.9999496936798096,0.00020564494479913265,0.00771355303004384,0.00641289260238409
195.0,0.0,0.0,0.0,0.0,0.0,0.0,0.0015905286418274045,-0.0019509537378326058,-0.005883790086954832,0.9999476671218872,0.0005321917124092579,0.008249844424426556,0.0060292985290288925
196.0,0.0,0.0,0.0,0.0,0.0,0.0,0.005683178547769785,-0.003993116784840822,-0.021589944139122963,0.9999449849128723,0.0009078141301870346,0.008901300840079784,0.0054729110561311245
197.0,0.0,0.0,0.0,0.0,0.0,0.0,0.009872275404632092,-0.0034058713354170322,-0.004862385801970959,0.9999424815177917,0.0011602077865973115,0.008907082490622997,0.005868802312761545
198.0,0.0,0.0,0.0,0.0,0.0,0.0,0.011515110731124878,-0.00013472606951836497,0.001117607345804572,0.9999402165412903,0.001416791114024818,0.008566749282181263,0.006635321769863367
199.0,0.0,0.0,0.0,0.0,0.0,0.0,0.014922312460839748,0.001773810014128685,-0.008505081757903099,0.9999431371688843,0.0013664194848388433,0.008004783652722836,0.006905665621161461
200.0,0.0,0.0,0.0,0.0,0.0,0.0,0.016133049502968788,0.004346274305135012,0.0025644816923886538,0.9999462366104126,0.0010859788162633777,0.0071121277287602425,0.007453235797584057
201.0,0.0,0.0,0.0,0.0,0.0,0.0,0.01490345411002636,0.0035464493557810783,0.005827687680721283,0.9999471306800842,0.0008598957792855799,0.006361996755003929,0.008039623498916626
202.0,0.0,0.0,0.0,0.0,0.0,0.0,0.015041783452033997,0.0008508680621162057,0.005998425651341677,0.9999446272850037,0.00033529248321428895,0.005611254367977381,0.008894256316125393
203.0,0.0,0.0,0.0,0.0,0.0,0.0,0.014448684640228748,0.0023274128325283527,0.007674650754779577,0.999945342540741,-8.918586536310613e-05,0.004415331408381462,0.009470600634813309
204.0,0.0,0.0,0.0,0.0,0.0,0.0,0.011817297898232937,0.0019924421794712543,0.008734588511288166,0.9999495148658752,-0.000847717747092247,0.003866031300276518,0.009233847260475159
205.0,0.0,0.0,0.0,0.0,0.0,0.0,0.009187913499772549,0.0023163307923823595,0.014134975150227547,0.9999502897262573,-0.0014356147730723023,0.003072406630963087,0.009381935931742191
206.0,0.0,0.0,0.0,0.0,0.0,0.0,0.007080468814820051,0.0004195283690933138,0.010684581473469734,0.9999507665634155,-0.0016203576233237982,0.00247178110294044,0.009467069990932941
207.0,0.0,0.0,0.0,0.0,0.0,0.0,0.0039644138887524605,0.003369054524227977,0.015298728831112385,0.9999568462371826,-0.001601616502739489,0.00258701597340405,0.008771192282438278
208.0,0.0,0.0,0.0,0.0,0.0,0.0,0.0030813750345259905,0.004058405756950378,0.025080019608139992,0.9999545812606812,-0.0013074729358777404,0.002747143618762493,0.009033389389514923
209.0,0.0,0.0,0.0,0.0,0.0,0.0,0.005317318718880415,0.00430754479020834,0.008166387677192688,0.9999467134475708,-0.0008034039638005197,0.003207447938621044,0.009771416895091534
210.0,0.0,0.0,0.0,0.0,0.0,0.0,0.007732417434453964,0.005070025566965342,-0.0023177331313490868,0.9999405741691589,-0.00014520043623633683,0.0038714432157576084,0.010183705016970634
211.0,0.0,0.0,0.0,0.0,0.0,0.0,0.009218252263963223,0.006247682496905327,-0.010802830569446087,0.9999299645423889,0.000754545908421278,0.004334661643952131,0.01097751036286354
212.0,0.0,0.0,0.0,0.0,0.0,0.0,0.010881081223487854,0.007143265567719936,-0.015819430351257324,0.9999219179153442,0.0015743101248517632,0.004474484361708164,0.011567190289497375
213.0,0.0,0.0,0.0,0.0,0.0,0.0,0.013353780843317509,0.008791696280241013,-0.011563776060938835,0.9999104738235474,0.0024108258076012135,0.004794912412762642,0.012258077971637249
214.0,0.0,0.0,0.0,0.0,0.0,0.0,0.01112088281661272,0.011373316869139671,-0.012624547816812992,0.9999021887779236,0.0028115075547248125,0.004660671576857567,0.012888727709650993
215.0,0.0,0.0,0.0,0.0,0.0,0.0,0.007546897511929274,0.004489780869334936,-0.01870902068912983,0.9998978972434998,0.0028699764516204596,0.004503479227423668,0.013251290656626225
216.0,0.0,0.0,0.0,0.0,0.0,0.0,0.006840826012194157,-0.0026450883597135544,-0.010357632301747799,0.999891996383667,0.0028610837180167437,0.0046822079457342625,0.013630585744976997
217.0,0.0,0.0,0.0,0.0,0.0,0.0,0.0073019517585635185,-0.0009382315329276025,-0.0013509870041161776,0.9998927712440491,0.0024780025705695152,0.004754697438329458,0.013628114946186543
218.0,0.0,0.0,0.0,0.0,0.0,0.0,0.007771402131766081,-0.0018233807059004903,-0.005770763847976923,0.999889075756073,0.0021402877755463123,0.0047367229126393795,0.01395541150122881
219.0,0.0,0.0,0.0,0.0,0.0,0.0,0.009871753863990307,-0.004060353152453899,-0.00011549415648914874,0.9998859763145447,0.0019104271195828915,0.004320998210459948,0.014339137822389603
220.0,0.0,0.0,0.0,0.0,0.0,0.0,0.011570407077670097,-0.004791771527379751,0.005008474458009005,0.9998868107795715,0.001393296872265637,0.00376858189702034,0.014493769966065884
221.0,0.0,0.0,0.0,0.0,0.0,0.0,0.01385482121258974,-0.002233711304143071,0.009829366579651833,0.9998914003372192,0.0011978456750512123,0.0032466177362948656,0.014322482980787754
222.0,0.0,0.0,0.0,0.0,0.0,0.0,0.011350114829838276,-0.0017057457007467747,0.011796267703175545,0.9998953342437744,0.0014652549289166927,0.0026077975053340197,0.014153947122395039
223.0,0.0,0.0,0.0,0.0,0.0,0.0,0.009852791205048561,-0.005406592506915331,0.01100883912295103,0.9998946785926819,0.0019376191776245832,0.0017667674692347646,0.01427224837243557
224.0,0.0,0.0,0.0,0.0,0.0,0.0,0.007859917357563972,-0.004347559530287981,0.009828261099755764,0.9998878836631775,0.0023721428588032722,0.0012191550340503454,0.014733046293258667
225.0,0.0,0.0,0.0,0.0,0.0,0.0,0.0052968584932386875,0.0002343685773666948,0.013311644084751606,0.9998846054077148,0.0028325163293629885,0.0007077194168232381,0.01490909606218338
226.0,0.0,0.0,0.0,0.0,0.0,0.0,0.00680137425661087,0.0005445913993753493,0.008950769901275635,0.9998774528503418,0.003302361350506544,0.0001871943095466122,0.015298587270081043
227.0,0.0,0.0,0.0,0.0,0.0,0.0,0.005732878111302853,-0.0036511290818452835,-0.005515457130968571,0.9998739957809448,0.0035635000094771385,-2.9344633730943315e-05,0.015468106605112553
228.0,0.0,0.0,0.0,0.0,0.0,0.0,0.0043836794793605804,-0.00486892880871892,-0.004226819612085819,0.9998744130134583,0.003529297187924385,-0.0005686182412318885,0.015440679155290127
229.0,0.0,0.0,0.0,0.0,0.0,0.0,0.0020648310892283916,-0.006118411663919687,-0.005328499246388674,0.9998905658721924,0.0034267334267497063,-0.0006424173479899764,0.014376572333276272
230.0,0.0,0.0,0.0,0.0,0.0,0.0,0.0017038898076862097,-0.009610891342163086,-0.006484788842499256,0.9999086260795593,0.003130251308903098,-0.0005880100652575493,0.013138369657099247
231.0,0.0,0.0,0.0,0.0,0.0,0.0,0.0013415332650765777,-0.008486171253025532,-0.003498117672279477,0.9999158382415771,0.0030389181338250637,-0.0009177351021207869,0.01257959846407175
232.0,0.0,0.0,0.0,0.0,0.0,0.0,0.001504989922977984,-0.013175928965210915,-0.004777913447469473,0.9999235272407532,0.0029743583872914314,-0.000795791856944561,0.011973204091191292
233.0,0.0,0.0,0.0,0.0,0.0,0.0,0.0022718182299286127,-0.011273100972175598,-0.0028053484857082367,0.9999369382858276,0.002603990724310279,-0.0006983433850109577,0.010901294648647308
234.0,0.0,0.0,0.0,0.0,0.0,0.0,0.0002965844760183245,-0.01061073038727045,7.614278729306534e-05,0.9999462366104126,0.002030720468610525,-0.0010892008431255817,0.010111472569406033
235.0,0.0,0.0,0.0,0.0,0.0,0.0,-0.0017835372127592564,-0.00973613653331995,0.0021959305740892887,0.999955415725708,0.001336152432486415,-0.0011814662721008062,0.00927294697612524
236.0,0.0,0.0,0.0,0.0,0.0,0.0,-0.0010723170125856996,-0.008701465092599392,0.004260443150997162,0.9999666213989258,0.0007923650555312634,-0.000730007013771683,0.008097986690700054
237.0,0.0,0.0,0.0,0.0,0.0,0.0,-0.0011939331889152527,-0.005690738558769226,0.003971346188336611,0.9999715089797974,0.0002140784345101565,-0.00010097568883793429,0.007543909829109907
238.0,0.0,0.0,0.0,0.0,0.0,0.0,-0.0008380013168789446,-0.0045527308247983456,0.003785698674619198,0.9999781250953674,-0.0002719452022574842,0.0006115367286838591,0.006577474530786276
239.0,0.0,0.0,0.0,0.0,0.0,0.0,-0.0021778857335448265,-0.002074101008474827,0.0021289512515068054,0.999981164932251,-0.0005369743448682129,0.001838676631450653,0.005825177766382694
240.0,0.0,0.0,0.0,0.0,0.0,0.0,-0.002314869547262788,-0.0018524586921557784,-0.0021632628049701452,0.9999819993972778,-0.0006113272975198925,0.0032420705538243055,0.005010019987821579
241.0,0.0,0.0,0.0,0.0,0.0,0.0,0.0005273032584227622,-0.001626354642212391,-0.00302996882237494,0.9999791979789734,-0.0011888003209605813,0.003998049534857273,0.004912948235869408
242.0,0.0,0.0,0.0,0.0,0.0,0.0,0.0028701305855065584,-0.00012013260857202113,-0.008673997595906258,0.9999783039093018,-0.0018519938457757235,0.003955095075070858,0.004917026963084936
243.0,0.0,0.0,0.0,0.0,0.0,0.0,0.004716815892606974,-0.00045781818334944546,-0.0347791463136673,0.9999754428863525,-0.0026102326810359955,0.004370222799479961,0.004805020522326231
244.0,0.0,0.0,0.0,0.0,0.0,0.0,0.001295657828450203,-0.00491679459810257,-0.02523452788591385,0.999973475933075,-0.0030164518393576145,0.004864648915827274,0.004500284790992737
245.0,0.0,0.0,0.0,0.0,0.0,0.0,0.000164578013936989,0.0031676848884671926,0.019022854045033455,0.999971866607666,-0.003602670505642891,0.004374443553388119,0.004909811075776815
246.0,0.0,0.0,0.0,0.0,0.0,0.0,0.00428213132545352,0.0004722225130535662,0.0025664514396339655,0.9999715089797974,-0.003904725192114711,0.004050032701343298,0.005021118558943272
247.0,0.0,0.0,0.0,0.0,0.0,0.0,0.012865814380347729,-0.0024085678160190582,0.00037979063927195966,0.9999727010726929,-0.00368597568012774,0.004416764248162508,0.004629079252481461
248.0,0.0,0.0,0.0,0.0,0.0,0.0,0.014898793771862984,0.0022169833537191153,0.015431116335093975,0.9999713897705078,-0.003330807900056243,0.004473274573683739,0.005117330700159073
249.0,0.0,0.0,0.0,0.0,0.0,0.0,0.016091112047433853,0.006079433020204306,0.01437577698379755,0.999972403049469,-0.00288610951974988,0.004150448366999626,0.005442274734377861
250.0,0.0,0.0,0.0,0.0,0.0,0.0,0.018628720194101334,0.006060639396309853,-0.004870944190770388,0.9999738335609436,-0.0023745805956423283,0.004161842633038759,0.0054084910079836845
251.0,0.0,0.0,0.0,0.0,0.0,0.0,0.01846444606781006,0.001685678493231535,-0.006238813977688551,0.9999753832817078,-0.0018549036467447877,0.004311325494199991,0.005214263219386339
252.0,0.0,0.0,0.0,0.0,0.0,0.0,0.015213454142212868,0.00860500242561102,0.014969661831855774,0.9999737739562988,-0.0017926000291481614,0.003907853737473488,0.005831190384924412
253.0,0.0,0.0,0.0,0.0,0.0,0.0,0.019076768308877945,0.009985684417188168,0.004498572554439306,0.9999690651893616,-0.001643672469072044,0.0033570611849427223,0.006910828873515129
254.0,0.0,0.0,0.0,0.0,0.0,0.0,0.024690259248018265,0.011094693094491959,-0.017639823257923126,0.9999694228172302,-0.0014574453234672546,0.0025157781783491373,0.007263885345309973
255.0,0.0,0.0,0.0,0.0,0.0,0.0,0.023811647668480873,0.02159232273697853,-0.0011579362908378243,0.9999718070030212,-0.0013687193859368563,0.0022290151100605726,0.007030019536614418
256.0,0.0,0.0,0.0,0.0,0.0,0.0,0.020719265565276146,0.027836425229907036,0.01129211112856865,0.9999738335609436,-0.0011849040165543556,0.002509794430807233,0.0066734300926327705
257.0,0.0,0.0,0.0,0.0,0.0,0.0,0.01690000481903553,0.017955921590328217,0.01434258557856083,0.9999729990959167,-0.001470017246901989,0.0038676916155964136,0.006069333292543888
258.0,0.0,0.0,0.0,0.0,0.0,0.0,0.016674209386110306,0.008829150348901749,-0.0043008760549128056,0.999968409538269,-0.0017598842969164252,0.0050718882121145725,0.0058646961115300655
259.0,0.0,0.0,0.0,0.0,0.0,0.0,0.013697236776351929,-0.0012752617476508021,-0.005631648935377598,0.9999621510505676,-0.0026752667035907507,0.00608794903382659,0.00559989782050252
260.0,0.0,0.0,0.0,0.0,0.0,0.0,0.01119215227663517,-0.003941445145756006,-0.005250384099781513,0.999959409236908,-0.0032059671357274055,0.006778942886739969,0.0049909558147192
261.0,0.0,0.0,0.0,0.0,0.0,0.0,0.0065360646694898605,-0.010638690553605556,0.004113327711820602,0.9999568462371826,-0.003486823523417115,0.00718811945989728,0.004748780280351639
262.0,0.0,0.0,0.0,0.0,0.0,0.0,0.0022313296794891357,-0.006284236442297697,0.038296207785606384,0.9999527931213379,-0.003325935686007142,0.007395954802632332,0.00535166822373867
263.0,0.0,0.0,0.0,0.0,0.0,0.0,0.00912184827029705,-0.0028152139857411385,0.02429472655057907,0.9999464750289917,-0.002841007662937045,0.006825210526585579,0.0072397831827402115
264.0,0.0,0.0,0.0,0.0,0.0,0.0,0.011639202944934368,-0.008676419965922832,-0.0055394829250872135,0.9999435544013977,-0.002483825432136655,0.005870230030268431,0.008496417663991451
265.0,0.0,0.0,0.0,0.0,0.0,0.0,0.01622886024415493,-0.00998201034963131,-0.036345966160297394,0.9999455809593201,-0.0024719801731407642,0.004846961237490177,0.008898291736841202
266.0,0.0,0.0,0.0,0.0,0.0,0.0,0.006465306505560875,-0.0133937057107687,-0.007426784839481115,0.9999502301216125,-0.0030664491932839155,0.0030283816158771515,0.008991695009171963
267.0,0.0,0.0,0.0,0.0,0.0,0.0,0.003985723480582237,-0.0018899852875620127,0.04799767956137657,0.9999447464942932,-0.003671596059575677,0.0009209044510498643,0.009804386645555496
268.0,0.0,0.0,0.0,0.0,0.0,0.0,0.00220380537211895,-0.007886599749326706,0.010179965756833553,0.9999361038208008,-0.0043733566999435425,-0.00034914168645627797,0.010418079793453217
269.0,0.0,0.0,0.0,0.0,0.0,0.0,-0.0015464092139154673,0.0027236086316406727,0.016942137852311134,0.9999250769615173,-0.004349900875240564,-0.001247804844751954,0.011373958550393581
270.0,0.0,0.0,0.0,0.0,0.0,0.0,-0.004609303083270788,0.007711207494139671,0.017135975882411003,0.9999080300331116,-0.003983423579484224,-0.0018151469994336367,0.01283008512109518
271.0,0.0,0.0,0.0,0.0,0.0,0.0,-0.003510319162160158,0.011546183377504349,0.0035455257166177034,0.9998924732208252,-0.003517602803185582,-0.0021459865383803844,0.014070785604417324
272.0,0.0,0.0,0.0,0.0,0.0,0.0,-0.00020203077292535454,0.006572945974767208,-0.020982835441827774,0.9998828768730164,-0.0034871057141572237,-0.002485784003511071,0.014687880873680115
273.0,0.0,0.0,0.0,0.0,0.0,0.0,-0.002833344740793109,0.0008283610222861171,-0.027656635269522667,0.9998904466629028,-0.0035625784657895565,-0.002455455483868718,0.014149409718811512
274.0,0.0,0.0,0.0,0.0,0.0,0.0,-0.007275944575667381,-0.000236713036429137,-0.011075574904680252,0.9998974800109863,-0.0038340301252901554,-0.002790721831843257,0.013512774370610714
275.0,0.0,0.0,0.0,0.0,0.0,0.0,-0.009646182879805565,-0.0013331588124856353,0.0046743364073336124,0.9999081492424011,-0.004248578101396561,-0.0024967780336737633,0.01261915359646082
276.0,0.0,0.0,0.0,0.0,0.0,0.0,-0.008973343297839165,-0.0007185974973253906,0.0061028157360851765,0.9999202489852905,-0.004393976181745529,-0.0019900291226804256,0.011672752909362316
277.0,0.0,0.0,0.0,0.0,0.0,0.0,-0.006784492637962103,-0.0011386622209101915,0.007550234906375408,0.999921441078186,-0.004671411123126745,-0.001760806073434651,0.01150326244533062
278.0,0.0,0.0,0.0,0.0,0.0,0.0,-0.0034317707177251577,0.0012300095986574888,-0.00852176919579506,0.9999164342880249,-0.004794986918568611,-0.0018161095213145018,0.011864724569022655
279.0,0.0,0.0,0.0,0.0,0.0,0.0,-0.001329978695139289,0.004334543365985155,-0.00879690982401371,0.9999200105667114,-0.004921015817672014,-0.001608785125426948,0.011539612896740437
280.0,0.0,0.0,0.0,0.0,0.0,0.0,0.0022705092560499907,0.007208941504359245,-0.003739072708413005,0.9999198913574219,-0.005117809399962425,-0.001822468708269298,0.011433765292167664
281.0,0.0,0.0,0.0,0.0,0.0,0.0,0.0027621204499155283,0.0037595375906676054,-0.0020899970550090075,0.9999121427536011,-0.005447853822261095,-0.0024959782604128122,0.01182178221642971
282.0,0.0,0.0,0.0,0.0,0.0,0.0,0.004203888587653637,0.003020994132384658,0.0033970153890550137,0.9999098181724548,-0.005902302451431751,-0.0031387764029204845,0.011649028398096561
283.0,0.0,0.0,0.0,0.0,0.0,0.0,0.005084839649498463,0.007319797296077013,0.008891435340046883,0.9999102354049683,-0.005915513727813959,-0.0038411440327763557,0.0113912895321846
284.0,0.0,0.0,0.0,0.0,0.0,0.0,0.006757508497685194,0.003533987095579505,0.007941171526908875,0.9999063014984131,-0.0060188136994838715,-0.004382808227092028,0.011484028771519661
285.0,0.0,0.0,0.0,0.0,0.0,0.0,0.006692963186651468,0.004489467944949865,0.01036051195114851,0.9998995065689087,-0.005946436896920204,-0.005136453080922365,0.01178951095789671
286.0,0.0,0.0,0.0,0.0,0.0,0.0,0.0037662764079868793,0.0012657898478209972,0.007889708504080772,0.9999030232429504,-0.005899754352867603,-0.0055226231925189495,0.011342243291437626
287.0,0.0,0.0,0.0,0.0,0.0,0.0,0.0026294903364032507,0.002380130812525749,0.005523881874978542,0.9999076724052429,-0.005933706648647785,-0.005907905288040638,0.010705103166401386
288.0,0.0,0.0,0.0,0.0,0.0,0.0,0.0026367329992353916,0.0025303582660853863,0.0012843337608501315,0.9999111294746399,-0.005854929331690073,-0.00601250771433115,0.01035966258496046
289.0,0.0,0.0,0.0,0.0,0.0,0.0,0.00182541913818568,0.004117168486118317,0.007551525253802538,0.9999098777770996,-0.0057290117256343365,-0.006072852294892073,0.010514594614505768
290.0,0.0,0.0,0.0,0.0,0.0,0.0,0.00030169583624228835,0.005579773802310228,0.0029703802429139614,0.9999096989631653,-0.005392859224230051,-0.006180435419082642,0.010642784647643566
291.0,0.0,0.0,0.0,0.0,0.0,0.0,0.0012216950999572873,0.004682554397732019,-0.008213820867240429,0.9999074339866638,-0.0047947498969733715,-0.005914765875786543,0.011271057650446892
292.0,0.0,0.0,0.0,0.0,0.0,0.0,-0.0017108607571572065,0.0039813704788684845,-0.006930860690772533,0.9999006986618042,-0.0040662772953510284,-0.005928480066359043,0.01211804524064064
293.0,0.0,0.0,0.0,0.0,0.0,0.0,-0.004578370600938797,0.004010795149952173,-0.003687594085931778,0.9999009370803833,-0.0037306263111531734,-0.005712419748306274,0.01230962947010994
294.0,0.0,0.0,0.0,0.0,0.0,0.0,-0.004434643313288689,0.0035492663737386465,-0.009487668052315712,0.999903678894043,-0.0035640252754092216,-0.005469865631312132,0.012248164042830467
295.0,0.0,0.0,0.0,0.0,0.0,0.0,-0.006091728340834379,0.0033213410060852766,-0.007554041221737862,0.9999020099639893,-0.0030391651671379805,-0.005326239857822657,0.012586090713739395
296.0,0.0,0.0,0.0,0.0,0.0,0.0,-0.005910678766667843,0.004432486370205879,-0.006909598596394062,0.9999005794525146,-0.002969505498185754,-0.005236118100583553,0.012746035121381283
297.0,0.0,0.0,0.0,0.0,0.0,0.0,-0.006402149330824614,0.0038816530723124743,-0.009276262484490871,0.9998966455459595,-0.002894903998821974,-0.005148557014763355,0.013111306354403496
298.0,0.0,0.0,0.0,0.0,0.0,0.0,-0.004107788670808077,0.004429088905453682,-0.006119114812463522,0.9999006986618042,-0.0028346069157123566,-0.004819104447960854,0.01293489895761013
299.0,0.0,0.0,0.0,0.0,0.0,0.0,-0.0036250054836273193,0.004580923356115818,-0.0020575975067913532,0.9999020099639893,-0.002652151510119438,-0.005044860765337944,0.012790920212864876
300.0,0.0,0.0,0.0,0.0,0.0,0.0,-0.002294134348630905,0.004413184244185686,0.0022185116540640593,0.9999014735221863,-0.0025365068577229977,-0.005718526430428028,0.012562161311507225
301.0,0.0,0.0,0.0,0.0,0.0,0.0,-0.0013292672811076045,0.0033222835045307875,0.001510676578618586,0.9999018311500549,-0.0026681844610720873,-0.0062815905548632145,0.012236521579325199
302.0,0.0,0.0,0.0,0.0,0.0,0.0,-0.0003666562552098185,0.0009503016481176019,0.006765938829630613,0.9999008774757385,-0.002669528592377901,-0.007019150070846081,0.011909464374184608
303.0,0.0,0.0,0.0,0.0,0.0,0.0,0.0007451814017258584,-0.0007224375149235129,0.009047226049005985,0.9998996257781982,-0.002691842382773757,-0.007711227051913738,0.011582925915718079
304.0,0.0,0.0,0.0,0.0,0.0,0.0,0.00032335202558897436,0.0006797247915528715,0.022919610142707825,0.9998983144760132,-0.003008123254403472,-0.008166614919900894,0.011289775371551514
305.0,0.0,0.0,0.0,0.0,0.0,0.0,-0.00247380998916924,-0.0043737515807151794,0.022410674020648003,0.9999068379402161,-0.0036010199692100286,-0.008196866139769554,0.010301550850272179
306.0,0.0,0.0,0.0,0.0,0.0,0.0,-0.0033703199587762356,-0.005240048281848431,0.01359422504901886,0.9999207258224487,-0.004473197739571333,-0.007716428022831678,0.008887830190360546
307.0,0.0,0.0,0.0,0.0,0.0,0.0,-0.0029382421635091305,-0.005114381201565266,0.007146009709686041,0.9999379515647888,-0.005215518642216921,-0.006726227235049009,0.0071875727735459805
308.0,0.0,0.0,0.0,0.0,0.0,0.0,-0.004503948614001274,-0.0061908443458378315,0.0033274157904088497,0.9999513030052185,-0.005638167727738619,-0.005341054406017065,0.006081197410821915
309.0,0.0,0.0,0.0,0.0,0.0,0.0,-0.00535284960642457,-0.001210179878398776,0.004382480401545763,0.9999632835388184,-0.005628565326333046,-0.003958383109420538,0.005101470742374659
310.0,0.0,0.0,0.0,0.0,0.0,0.0,-0.00688209431245923,-0.0024028916377574205,-0.001203620107844472,0.9999701976776123,-0.005260534584522247,-0.0027838125824928284,0.004917176906019449
311.0,0.0,0.0,0.0,0.0,0.0,0.0,-0.003671684768050909,0.005028946790844202,-0.014838610775768757,0.9999710321426392,-0.004527226090431213,-0.0018872796790674329,0.005821939557790756
312.0,0.0,0.0,0.0,0.0,0.0,0.0,-0.0014882500981912017,0.014824802055954933,-0.019512929022312164,0.9999663829803467,-0.0036673061549663544,-0.0012054058024659753,0.00723142409697175
313.0,0.0,0.0,0.0,0.0,0.0,0.0,0.00039119666325859725,0.0236576609313488,-0.017583686858415604,0.9999614357948303,-0.0027858191169798374,-0.0004278324486222118,0.008314970880746841
314.0,0.0,0.0,0.0,0.0,0.0,0.0,-0.0014943635324016213,0.02519885078072548,-0.01259392499923706,0.9999509453773499,-0.0022620183881372213,-0.00031753219082020223,0.009630557149648666
315.0,0.0,0.0,0.0,0.0,0.0,0.0,-0.003294588066637516,0.024732263758778572,-0.0130938570946455,0.9999387264251709,-0.002062804764136672,-0.0007428935496136546,0.010852312669157982
316.0,0.0,0.0,0.0,0.0,0.0,0.0,-0.0025292481295764446,0.021892454475164413,-0.010712466202676296,0.999926745891571,-0.0016057838220149279,-0.00036749086575582623,0.01198624074459076
317.0,0.0,0.0,0.0,0.0,0.0,0.0,-0.003973489627242088,0.019105296581983566,-0.009992428123950958,0.9999234080314636,-0.0014179777354001999,2.172460335714277e-05,0.012293120846152306
318.0,0.0,0.0,0.0,0.0,0.0,0.0,-0.005879788193851709,0.014697804115712643,-0.005567414220422506,0.9999147653579712,-0.0015487669734284282,0.0001224815205205232,0.012963811866939068
319.0,0.0,0.0,0.0,0.0,0.0,0.0,-0.008763614110648632,0.011506072245538235,-0.009639848954975605,0.9999074339866638,-0.001572799519635737,0.0002164375182474032,0.013509429059922695
320.0,0.0,0.0,0.0,0.0,0.0,0.0,-0.007976884953677654,0.009148324839770794,-0.00907210260629654,0.9999106526374817,-0.001865257858298719,0.00010980041406583041,0.013236717320978642
321.0,0.0,0.0,0.0,0.0,0.0,0.0,-0.008151826448738575,0.011014309711754322,-0.010384517721831799,0.9999056458473206,-0.0020594613160938025,8.782800432527438e-05,0.013577772304415703
322.0,0.0,0.0,0.0,0.0,0.0,0.0,-0.006256489083170891,0.013941960409283638,-0.008599529042840004,0.9998980164527893,-0.0023082366678863764,-0.00011962233838858083,0.01408750656992197
323.0,0.0,0.0,0.0,0.0,0.0,0.0,-0.0034657674841582775,0.012688457034528255,0.016703078523278236,0.9998946189880371,-0.0027644725050777197,-0.00018663538503460586,0.014248518273234367
324.0,0.0,0.0,0.0,0.0,0.0,0.0,-0.005382060073316097,0.010868688113987446,-0.0046489546075463295,0.9998942613601685,-0.0030350293964147568,-0.00020319526083767414,0.01421856228262186
325.0,0.0,0.0,0.0,0.0,0.0,0.0,-0.006446757819503546,0.006493761204183102,-0.000998478615656495,0.9998936057090759,-0.003445647656917572,-0.00027851949562318623,0.014173135161399841
326.0,0.0,0.0,0.0,0.0,0.0,0.0,-0.002027587266638875,0.00488570611923933,0.00856166984885931,0.9998888373374939,-0.003784079337492585,-0.0005296105518937111,0.014415147714316845
327.0,0.0,0.0,0.0,0.0,0.0,0.0,-0.002455751644447446,0.0018596082227304578,-0.0015829842304810882,0.9998781085014343,-0.0044690752401947975,-0.0015205605886876583,0.014881175942718983
328.0,0.0,0.0,0.0,0.0,0.0,0.0,-0.001474667340517044,-0.0035731811076402664,-0.004738694988191128,0.9998811483383179,-0.0049672797322273254,-0.0023009334690868855,0.014410813339054585
329.0,0.0,0.0,0.0,0.0,0.0,0.0,-0.002881595864892006,-0.00021977044525556266,-0.01851866953074932,0.9998875260353088,-0.00537882000207901,-0.0024284571409225464,0.013790619559586048
330.0,0.0,0.0,0.0,0.0,0.0,0.0,-0.007481749169528484,-0.0015984955243766308,0.03299291431903839,0.9998943209648132,-0.005748979281634092,-0.0027017248794436455,0.013072692789137363
331.0,0.0,0.0,0.0,0.0,0.0,0.0,-0.006918739061802626,0.00034839080763049424,0.031260475516319275,0.9998965263366699,-0.005738267675042152,-0.003141986206173897,0.012812756933271885
332.0,0.0,0.0,0.0,0.0,0.0,0.0,-0.0044663334265351295,-0.0042753745801746845,-0.02185450866818428,0.9998952150344849,-0.006014180835336447,-0.0028416658751666546,0.01285918615758419
333.0,0.0,0.0,0.0,0.0,0.0,0.0,-0.00420280359685421,0.0009176674066111445,0.0041882009245455265,0.9998921155929565,-0.006048411596566439,-0.002658448414877057,0.013115180656313896
334.0,0.0,0.0,0.0,0.0,0.0,0.0,-0.004108384717255831,0.01065771747380495,0.004858790896832943,0.9998903274536133,-0.005807194393128157,-0.002446641679853201,0.013400863856077194
335.0,0.0,0.0,0.0,0.0,0.0,0.0,-0.0008362967055290937,0.015170136466622353,0.008052096702158451,0.9998902678489685,-0.005439025815576315,-0.002209480619058013,0.013595868833363056
336.0,0.0,0.0,0.0,0.0,0.0,0.0,0.0024324345868080854,0.01591040939092636,-0.0024456046521663666,0.9998909831047058,-0.005197048652917147,-0.0019830779638141394,0.0136712696403265
337.0,0.0,0.0,0.0,0.0,0.0,0.0,0.0011646030470728874,0.018156882375478745,0.005217166617512703,0.9998840093612671,-0.004873136058449745,-0.0020281565375626087,0.01428839098662138
338.0,0.0,0.0,0.0,0.0,0.0,0.0,-0.0008222273318096995,0.020441096276044846,0.004745359532535076,0.9998718500137329,-0.004848487209528685,-0.002158252289518714,0.015102958306670189
339.0,0.0,0.0,0.0,0.0,0.0,0.0,0.00040618679486215115,0.02011377550661564,0.0025616860948503017,0.9998553991317749,-0.0045392573811113834,-0.002562387613579631,0.01618391089141369
340.0,0.0,0.0,0.0,0.0,0.0,0.0,0.0017984563019126654,0.018356928601861,-0.008866283111274242,0.9998483657836914,-0.004008471965789795,-0.002455017762258649,0.01676398143172264
341.0,0.0,0.0,0.0,0.0,0.0,0.0,-0.0025953378062695265,0.011127318255603313,-0.01783142052590847,0.9998527765274048,-0.003940306603908539,-0.00203508953563869,0.01657608337700367
342.0,0.0,0.0,0.0,0.0,0.0,0.0,-0.0010546529665589333,0.013408878818154335,0.019422926008701324,0.9998602867126465,-0.0034550789278000593,-0.001882534590549767,0.01624234765768051
343.0,0.0,0.0,0.0,0.0,0.0,0.0,-0.0062101371586322784,0.005249921698123217,0.003995867446064949,0.9998673796653748,-0.003239347832277417,-0.001960806082934141,0.015839695930480957
344.0,0.0,0.0,0.0,0.0,0.0,0.0,-0.00024360191309824586,-9.170675912173465e-05,-0.0067017534747719765,0.9998772740364075,-0.0031890589743852615,-0.0016435827128589153,0.015247469767928123
345.0,0.0,0.0,0.0,0.0,0.0,0.0,-0.0004581352404784411,-0.002749590203166008,0.003409560304135084,0.9998788237571716,-0.0032000953797250986,-0.001617896487005055,0.01514138001948595
346.0,0.0,0.0,0.0,0.0,0.0,0.0,-0.0010707267792895436,-0.0037888132501393557,0.004010082222521305,0.9998767375946045,-0.0031000308226794004,-0.001406045164912939,0.015322432853281498
347.0,0.0,0.0,0.0,0.0,0.0,0.0,0.0007354785338975489,0.004832081031054258,0.0020480898674577475,0.9998753666877747,-0.0027379589155316353,-0.001136276638135314,0.015502107329666615
348.0,0.0,0.0,0.0,0.0,0.0,0.0,0.005271620117127895,0.010726133361458778,-0.0011470307363197207,0.9998764395713806,-0.00220112525857985,-0.0007305904873646796,0.015549116767942905
349.0,0.0,0.0,0.0,0.0,0.0,0.0,0.0069555239751935005,0.007536273915320635,-0.0016745274187996984,0.9998737573623657,-0.0018454788951203227,4.991531022824347e-05,0.01577928476035595
350.0,0.0,0.0,0.0,0.0,0.0,0.0,0.0067216819152235985,0.004833854269236326,-0.005522340536117554,0.9998739361763,-0.0014576442772522569,0.0003440753207542002,0.01580609567463398
351.0,0.0,0.0,0.0,0.0,0.0,0.0,0.0049367439933121204,0.001546488027088344,-0.01054286863654852,0.999880313873291,-0.0011513675563037395,0.0003507444926071912,0.015420987270772457
352.0,0.0,0.0,0.0,0.0,0.0,0.0,0.0020645910408347845,-0.0017707269871607423,-0.008952092379331589,0.9998879432678223,-0.0009262776002287865,0.0005883976118639112,0.014931591227650642
353.0,0.0,0.0,0.0,0.0,0.0,0.0,0.0003211058210581541,-0.004921662155538797,-0.004655044991523027,0.9998959898948669,-0.001107275951653719,0.0008334108861163259,0.01435716450214386
354.0,0.0,0.0,0.0,0.0,0.0,0.0,0.00035499577643349767,-0.004995311144739389,0.0003632106527220458,0.9999064803123474,-0.0015256138285622,0.0009655191679485142,0.013555473648011684
355.0,0.0,0.0,0.0,0.0,0.0,0.0,0.0024129024241119623,-0.0021574320271611214,0.003844295162707567,0.9999066591262817,-0.0016661222325637937,0.0008318698965013027,0.013535995036363602
356.0,0.0,0.0,0.0,0.0,0.0,0.0,0.0028840498998761177,-0.005451747681945562,-0.0012654956663027406,0.9999076128005981,-0.002081957645714283,0.000730290892533958,0.013409989885985851
357.0,0.0,0.0,0.0,0.0,0.0,0.0,0.0031556279864162207,-0.00420150812715292,0.00014341292262542993,0.999914824962616,-0.002437790622934699,0.0007601731922477484,0.012799933552742004
358.0,0.0,0.0,0.0,0.0,0.0,0.0,0.0003787664172705263,-0.0019493522122502327,0.004498248919844627,0.9999184608459473,-0.0027462837751954794,0.000941460020840168,0.012432361952960491
359.0,0.0,0.0,0.0,0.0,0.0,0.0,-0.001077141030691564,-0.0007553290924988687,0.005704272072762251,0.9999181032180786,-0.0028954814188182354,0.001398501917719841,0.012381733395159245
360.0,0.0,0.0,0.0,0.0,0.0,0.0,-0.0015059876022860408,0.001645315089263022,0.015450005419552326,0.9999111294746399,-0.0029398349579423666,0.0010198390809819102,0.012966358102858067
361.0,0.0,0.0,0.0,0.0,0.0,0.0,-0.0004444759979378432,0.0036411071196198463,-0.00026501569664105773,0.999904453754425,-0.003138640196993947,0.0002964487357530743,0.013451841659843922
362.0,0.0,0.0,0.0,0.0,0.0,0.0,-0.0013596711214631796,0.0007590005989186466,-0.012383583933115005,0.9999021887779236,-0.003425504779443145,0.0001289062201976776,0.01355957891792059
363.0,0.0,0.0,0.0,0.0,0.0,0.0,-0.0024308220017701387,0.003993415739387274,-0.004328920505940914,0.9998950958251953,-0.003853036556392908,-0.00032293505501002073,0.013952960260212421
364.0,0.0,0.0,0.0,0.0,0.0,0.0,0.00030265116947703063,0.00883551873266697,0.019620753824710846,0.9998928904533386,-0.003733118763193488,-0.0006494031986221671,0.014135776087641716
365.0,0.0,0.0,0.0,0.0,0.0,0.0,-0.0009130840771831572,0.007298614364117384,0.016292616724967957,0.9998912811279297,-0.0037596505135297775,-0.0011941511183977127,0.01420688722282648
366.0,0.0,0.0,0.0,0.0,0.0,0.0,-0.0003565406077541411,0.006785273086279631,0.01580352894961834,0.9998912811279297,-0.003554113209247589,-0.0013281633146107197,0.014250734820961952
367.0,0.0,0.0,0.0,0.0,0.0,0.0,0.0017418815987184644,0.008182701654732227,0.010490684770047665,0.9998852014541626,-0.0029561587143689394,-0.0011498320382088423,0.01481278333812952
368.0,0.0,0.0,0.0,0.0,0.0,0.0,0.0016496048774570227,0.0023344617802649736,-0.0019655751530081034,0.9998829364776611,-0.002457466209307313,-0.0008480477845296264,0.015080172568559647
369.0,0.0,0.0,0.0,0.0,0.0,0.0,0.0018847390310838819,-0.0025132528971880674,-0.012852724641561508,0.999889075756073,-0.002039023907855153,-0.0004415687290020287,0.014743992127478123
370.0,0.0,0.0,0.0,0.0,0.0,0.0,0.0022196313366293907,-0.0011002982500940561,-0.01716604456305504,0.9998943209648132,-0.0015422109281644225,-6.072457108530216e-05,0.014457139186561108
371.0,0.0,0.0,0.0,0.0,0.0,0.0,0.0033605946227908134,-0.007387089543044567,-0.010067136026918888,0.9999008774757385,-0.001056245993822813,-5.0448201363906264e-05,0.014040431007742882
372.0,0.0,0.0,0.0,0.0,0.0,0.0,0.001931883511133492,-0.0060961260460317135,-0.006548857782036066,0.9999076128005981,-0.0011332189897075295,7.199798710644245e-05,0.013539435341954231
373.0,0.0,0.0,0.0,0.0,0.0,0.0,3.7526668165810406e-05,-0.00775916688144207,-0.0007386307115666568,0.9999138116836548,-0.0011824093526229262,0.00048426221474073827,0.013068927451968193
374.0,0.0,0.0,0.0,0.0,0.0,0.0,-0.0014562370488420129,-0.010097768157720566,0.0016820214223116636,0.9999171495437622,-0.0009678064961917698,0.0010220579570159316,0.012798232026398182
375.0,0.0,0.0,0.0,0.0,0.0,0.0,5.059474005975062e-06,-0.005295290146023035,0.00577846122905612,0.999920129776001,-0.0006408041226677597,0.0010566302808001637,0.012572436593472958
376.0,0.0,0.0,0.0,0.0,0.0,0.0,0.001320581533946097,-0.0024289744906127453,-0.006991713307797909,0.9999229907989502,-0.0005622180760838091,0.0008259519236162305,0.012362595647573471
377.0,0.0,0.0,0.0,0.0,0.0,0.0,0.0010139847872778773,-0.0016368604265153408,-0.016711803153157234,0.9999171495437622,-0.0004251226782798767,0.0005964875454083085,0.012845155782997608
378.0,0.0,0.0,0.0,0.0,0.0,0.0,0.001767595298588276,0.0006657610647380352,-0.01799212209880352,0.9999097585678101,-2.045706241915468e-05,0.0006799267721362412,0.01341386791318655
379.0,0.0,0.0,0.0,0.0,0.0,0.0,0.0019091054564341903,0.0026990182232111692,-0.013587911613285542,0.9999070167541504,-2.6011952286353335e-05,0.0009357567760162055,0.013600588776171207
380.0,0.0,0.0,0.0,0.0,0.0,0.0,0.0007555633201263845,0.005009829066693783,-0.005182065535336733,0.9999030232429504,-0.00035276036942377687,0.000797779590357095,0.013899609446525574
381.0,0.0,0.0,0.0,0.0,0.0,0.0,-0.0008143516024574637,0.007330696564167738,0.0023297539446502924,0.9998872876167297,-0.0008593261591158807,0.000352951989043504,0.01497598271816969
382.0,0.0,0.0,0.0,0.0,0.0,0.0,0.0003552449052222073,0.0039739604108035564,-0.0008489931933581829,0.9998828172683716,-0.0015828295145183802,-9.339222742710263e-06,0.015221591107547283
383.0,0.0,0.0,0.0,0.0,0.0,0.0,0.004521395079791546,0.0021425075829029083,0.0030264423694461584,0.9998766183853149,-0.0020018224604427814,-2.0153491277596913e-05,0.015578767284750938
384.0,0.0,0.0,0.0,0.0,0.0,0.0,0.0038774313870817423,0.0018398526590317488,0.004979398567229509,0.999873161315918,-0.0027541392482817173,-0.00021647827816195786,0.015686625614762306
385.0,0.0,0.0,0.0,0.0,0.0,0.0,0.0022236830554902554,-0.0013981567462906241,0.013365563005208969,0.999870240688324,-0.003823412349447608,-0.000952044443693012,0.015616034157574177
386.0,0.0,0.0,0.0,0.0,0.0,0.0,0.002734884386882186,-0.00048679494648240507,0.014285800978541374,0.999866783618927,-0.004116876516491175,-0.0012679279316216707,0.015743708238005638
387.0,0.0,0.0,0.0,0.0,0.0,0.0,-0.0030875683296471834,-0.0034113232977688313,0.01890668272972107,0.9998716115951538,-0.004385556560009718,-0.0011340264463797212,0.01537149865180254
388.0,0.0,0.0,0.0,0.0,0.0,0.0,-0.00015292740135919303,-0.004511713515967131,0.018561353906989098,0.9998800158500671,-0.004817002918571234,-0.0002438821829855442,0.014715498313307762
389.0,0.0,0.0,0.0,0.0,0.0,0.0,0.00158898183144629,-0.0054217190481722355,-0.013063873164355755,0.9998829960823059,-0.00507523026317358,0.00043060441385023296,0.014417449943721294
390.0,0.0,0.0,0.0,0.0,0.0,0.0,-0.0007860120967961848,-0.010603437200188637,-0.014976956881582737,0.9998825192451477,-0.005432660225778818,0.0009333161870017648,0.01429680734872818
391.0,0.0,0.0,0.0,0.0,0.0,0.0,-0.0018894390668720007,-0.002258813939988613,-0.007212677039206028,0.9998795390129089,-0.005469697527587414,0.0016361016314476728,0.014437993988394737
392.0,0.0,0.0,0.0,0.0,0.0,0.0,-0.0027611895930022,0.0035701608285307884,-0.005376768764108419,0.9998713135719299,-0.0055168080143630505,0.0019174932967871428,0.014937254600226879
393.0,0.0,0.0,0.0,0.0,0.0,0.0,-0.001067306031472981,0.006680430378764868,-0.006379358004778624,0.9998646378517151,-0.005553551483899355,0.0021584604401141405,0.015328858979046345
394.0,0.0,0.0,0.0,0.0,0.0,0.0,-0.0005173766403459013,0.009581772610545158,-0.012440619990229607,0.999859631061554,-0.005378045607358217,0.0020330799743533134,0.01573442481458187
395.0,0.0,0.0,0.0,0.0,0.0,0.0,0.00034107640385627747,0.011270318180322647,0.001394980470649898,0.9998503923416138,-0.005100607872009277,0.001741101499646902,0.0164317823946476
396.0,0.0,0.0,0.0,0.0,0.0,0.0,0.003043663688004017,0.011761768721044064,0.0005388483987189829,0.9998469352722168,-0.005104961339384317,0.0019355814438313246,0.01662108302116394
397.0,0.0,0.0,0.0,0.0,0.0,0.0,0.004500704817473888,0.012696684338152409,-0.006643196102231741,0.999856173992157,-0.005051121581345797,0.0015784547431394458,0.01610572077333927
398.0,0.0,0.0,0.0,0.0,0.0,0.0,0.0036341692321002483,0.003584684571251273,-0.003797024954110384,0.9998689889907837,-0.004948943853378296,0.0011280940379947424,0.01537359319627285
399.0,0.0,0.0,0.0,0.0,0.0,0.0,0.00018775308853946626,-0.0010739278513938189,-0.0007069625426083803,0.9998761415481567,-0.005220047663897276,0.0009825651068240404,0.014810853637754917
400.0,0.0,0.0,0.0,0.0,0.0,0.0,-0.002638929057866335,0.0013504771050065756,0.007504921406507492,0.9998779892921448,-0.005460125394165516,-2.9258575523272157e-05,0.014634356833994389
401.0,0.0,0.0,0.0,0.0,0.0,0.0,-0.0013967974809929729,-0.001370131503790617,0.011606195941567421,0.9998762607574463,-0.005457584280520678,-0.00043860921869054437,0.014743984676897526
402.0,0.0,0.0,0.0,0.0,0.0,0.0,0.002671209629625082,0.0024330737069249153,0.008723804727196693,0.9998765587806702,-0.005115380976349115,9.806706657400355e-05,0.014850993640720844
403.0,0.0,0.0,0.0,0.0,0.0,0.0,0.00380375306122005,0.009237819351255894,0.007719030603766441,0.9998824000358582,-0.004413742572069168,0.0008593489765189588,0.014657135121524334
404.0,0.0,0.0,0.0,0.0,0.0,0.0,0.005409250035881996,0.005420784931629896,-0.0024892159271985292,0.9998921751976013,-0.004015315789729357,0.0012287668650969863,0.014066480100154877
405.0,0.0,0.0,0.0,0.0,0.0,0.0,0.008999558165669441,0.0026521787513047457,-0.020499827340245247,0.9999040365219116,-0.004364976659417152,0.0009088934166356921,0.013118164613842964
406.0,0.0,0.0,0.0,0.0,0.0,0.0,0.008645209483802319,-0.004141225013881922,-0.02189457416534424,0.9999105334281921,-0.004714694339782,9.04676562640816e-05,0.01251269318163395
407.0,0.0,0.0,0.0,0.0,0.0,0.0,0.008492686785757542,-0.005423266440629959,0.004377277102321386,0.9999158978462219,-0.005489923059940338,-0.0003398947883397341,0.011743104085326195
408.0,0.0,0.0,0.0,0.0,0.0,0.0,0.003774382174015045,0.0057752542197704315,0.017797084525227547,0.9999106526374817,-0.00617940491065383,-0.0016609536251053214,0.011732940562069416
409.0,0.0,0.0,0.0,0.0,0.0,0.0,0.0009589256951585412,0.005838983226567507,0.014665452763438225,0.9998995065689087,-0.006244334392249584,-0.002314528450369835,0.012509272433817387
410.0,0.0,0.0,0.0,0.0,0.0,0.0,-0.0005099113914184272,0.004638161975890398,0.01583799347281456,0.9998914003372192,-0.006325703579932451,-0.00211895233951509,0.013137112371623516
411.0,0.0,0.0,0.0,0.0,0.0,0.0,-0.0012511033564805984,0.008238905109465122,0.014324572868645191,0.9998858571052551,-0.0062096379697322845,-0.002589341951534152,0.013516344130039215
412.0,0.0,0.0,0.0,0.0,0.0,0.0,-0.0018018694827333093,0.01204042136669159,0.008978581055998802,0.9998835325241089,-0.005910294130444527,-0.0025883258786052465,0.013826640322804451
413.0,0.0,0.0,0.0,0.0,0.0,0.0,0.0016087263356894255,0.007927211001515388,0.002390551147982478,0.9998852610588074,-0.005508267320692539,-0.002464031334966421,0.01388606708496809
414.0,0.0,0.0,0.0,0.0,0.0,0.0,0.003829402383416891,0.006175873335450888,-0.0061257947236299515,0.9998794198036194,-0.0052192858420312405,-0.0027061589062213898,0.014362826012074947
415.0,0.0,0.0,0.0,0.0,0.0,0.0,0.001603085664100945,0.006317534483969212,-0.005344843026250601,0.999872088432312,-0.0052030328661203384,-0.0031139010097831488,0.014800762757658958
416.0,0.0,0.0,0.0,0.0,0.0,0.0,0.0028312020003795624,0.0020063710398972034,-0.008060268126428127,0.9998694062232971,-0.005245941691100597,-0.0030898989643901587,0.01497338991612196
417.0,0.0,0.0,0.0,0.0,0.0,0.0,0.0010585928102955222,0.003491900162771344,-0.002676639473065734,0.9998674392700195,-0.005136073101311922,-0.0032802901696413755,0.015090882778167725
418.0,0.0,0.0,0.0,0.0,0.0,0.0,-0.002255205065011978,0.011984821408987045,0.013214269652962685,0.9998595714569092,-0.005185126792639494,-0.0037636812776327133,0.015472778119146824
419.0,0.0,0.0,0.0,0.0,0.0,0.0,-0.0015156663721427321,0.01071534026414156,0.01131573785096407,0.999849796295166,-0.005134869366884232,-0.004298253916203976,0.01597577892243862
420.0,0.0,0.0,0.0,0.0,0.0,0.0,0.0010612121550366282,0.008402878418564796,-0.005645046476274729,0.9998348951339722,-0.004822819493710995,-0.004694455768913031,0.016879282891750336
421.0,0.0,0.0,0.0,0.0,0.0,0.0,0.0017888775328174233,0.0049334135837852955,-0.005869633052498102,0.9998206496238708,-0.004744654521346092,-0.005220070015639067,0.017577461898326874
422.0,0.0,0.0,0.0,0.0,0.0,0.0,-0.00040006512426771224,0.0026840909849852324,-0.0006575497100129724,0.9998142719268799,-0.004461147356778383,-0.005749792326241732,0.017845943570137024
423.0,0.0,0.0,0.0,0.0,0.0,0.0,-0.0029236034024506807,0.00030850895564071834,-0.0016888247337192297,0.999815821647644,-0.004361070692539215,-0.005837128031998873,0.017753442749381065
424.0,0.0,0.0,0.0,0.0,0.0,0.0,-0.003351797815412283,-0.0008791911532171071,0.0016391711542382836,0.9998337626457214,-0.004384391941130161,-0.00535939633846283,0.016859207302331924
425.0,0.0,0.0,0.0,0.0,0.0,0.0,-0.0030145805794745684,0.00043044405174441636,0.002191528445109725,0.9998366236686707,-0.0040359036065638065,-0.005184732843190432,0.016834858804941177
426.0,0.0,0.0,0.0,0.0,0.0,0.0,-0.005239556077867746,-0.005511017050594091,0.000239799395785667,0.9998410940170288,-0.004259223584085703,-0.0049866242334246635,0.016574781388044357
427.0,0.0,0.0,0.0,0.0,0.0,0.0,-0.005139668472111225,-0.00832446850836277,0.005530994851142168,0.9998608231544495,-0.004585274029523134,-0.0038797298911958933,0.015564609318971634
428.0,0.0,0.0,0.0,0.0,0.0,0.0,-0.0005289927939884365,-0.009765214286744595,-0.010695140808820724,0.9998660683631897,-0.0049110595136880875,-0.0027354685589671135,0.015366515144705772
429.0,0.0,0.0,0.0,0.0,0.0,0.0,-0.004565036855638027,-0.006725171580910683,-0.0018301000818610191,0.9998627305030823,-0.005228033289313316,-0.002678886754438281,0.015488159842789173
430.0,0.0,0.0,0.0,0.0,0.0,0.0,-0.0046708551235497,-0.006311226170510054,-0.0011551073985174298,0.9998627305030823,-0.005706998985260725,-0.003077558008953929,0.0152449244633317
431.0,0.0,0.0,0.0,0.0,0.0,0.0,-0.003401842899620533,-0.0039224145002663136,-0.012738979421555996,0.9998722672462463,-0.0060835713520646095,-0.003082452341914177,0.014447517693042755
432.0,0.0,0.0,0.0,0.0,0.0,0.0,-0.0050630755722522736,-0.007938507944345474,-0.0040207188576459885,0.999876081943512,-0.006328586023300886,-0.0028543295338749886,0.01412792969495058
433.0,0.0,0.0,0.0,0.0,0.0,0.0,-0.005460458807647228,-0.005617763381451368,0.005091387778520584,0.9998815655708313,-0.00664546201005578,-0.0024678457994014025,0.013650909997522831
434.0,0.0,0.0,0.0,0.0,0.0,0.0,-0.006507338024675846,-0.0041701835580170155,0.005752563010901213,0.9998984336853027,-0.007057428825646639,-0.0018504125764593482,0.012245132587850094
435.0,0.0,0.0,0.0,0.0,0.0,0.0,-0.006390358321368694,-0.0015581940533593297,0.009261691942811012,0.9999093413352966,-0.007171483710408211,-0.001410817727446556,0.011311537586152554
436.0,0.0,0.0,0.0,0.0,0.0,0.0,-0.004073509015142918,-0.0019520599162206054,0.0013988956343382597,0.9999043941497803,-0.00731535442173481,-0.001414113794453442,0.011645285412669182
437.0,0.0,0.0,0.0,0.0,0.0,0.0,-0.0007777364226058125,6.970907998038456e-05,-0.0031085568480193615,0.9998916983604431,-0.007714043837040663,-0.0021612539421766996,0.012354766950011253
438.0,0.0,0.0,0.0,0.0,0.0,0.0,-0.002294840756803751,0.0014331479324027896,-0.0032765851356089115,0.9998878240585327,-0.007889519445598125,-0.0026695767883211374,0.012437843717634678
439.0,0.0,0.0,0.0,0.0,0.0,0.0,-0.00394505774602294,0.0027461955323815346,-0.0028976788744330406,0.9998891353607178,-0.008207414299249649,-0.0032571647316217422,0.01199379749596119
440.0,0.0,0.0,0.0,0.0,0.0,0.0,-0.007004863116890192,0.006618933752179146,0.016931861639022827,0.9998895525932312,-0.008056068792939186,-0.0033008046448230743,0.0120535958558321
441.0,0.0,0.0,0.0,0.0,0.0,0.0,-0.004787192679941654,0.01230010949075222,0.034825362265110016,0.999886691570282,-0.007346561644226313,-0.0029354833532124758,0.012790127657353878
442.0,0.0,0.0,0.0,0.0,0.0,0.0,-0.000544354843441397,0.01290306355804205,0.008265294134616852,0.9998875260353088,-0.006879714783281088,-0.0029547009617090225,0.012980647385120392
443.0,0.0,0.0,0.0,0.0,0.0,0.0,-0.0007630496402271092,0.010585248470306396,-0.006433907430619001,0.999893307685852,-0.006070445291697979,-0.002978134900331497,0.012955596670508385
444.0,0.0,0.0,0.0,0.0,0.0,0.0,0.00018291223386768252,0.01088959164917469,-0.008270733058452606,0.9998989701271057,-0.004988646134734154,-0.0030043807346373796,0.012958967126905918
445.0,0.0,0.0,0.0,0.0,0.0,0.0,0.0017633427632972598,0.005985368974506855,-0.016936345025897026,0.9999067187309265,-0.004186889156699181,-0.003109584329649806,0.012619107030332088
446.0,0.0,0.0,0.0,0.0,0.0,0.0,0.003064897144213319,0.005929757375270128,-0.01406138390302658,0.9999103546142578,-0.0030045234598219395,-0.0029780229087918997,0.012703672051429749
447.0,0.0,0.0,0.0,0.0,0.0,0.0,0.0041463254019618034,0.004648969043046236,-0.005123619455844164,0.9999027848243713,-0.001824426930397749,-0.002827988937497139,0.013529418036341667
448.0,0.0,0.0,0.0,0.0,0.0,0.0,0.005874039139598608,0.0047959228977561,0.002463993150740862,0.9998896718025208,-0.0011260706232860684,-0.003535684198141098,0.01438163686543703
449.0,0.0,0.0,0.0,0.0,0.0,0.0,0.008734307251870632,0.0016105168033391237,-0.0055478159338235855,0.9998733401298523,-0.0010058863554149866,-0.004360385704785585,0.015271245501935482
450.0,0.0,0.0,0.0,0.0,0.0,0.0,0.009203709661960602,-0.0005374905304051936,-0.014002310112118721,0.9998560547828674,-0.0012400472769513726,-0.004875428508967161,0.016203049570322037
451.0,0.0,0.0,0.0,0.0,0.0,0.0,0.0012098754523321986,0.0013150690356269479,0.0034756422974169254,0.999843418598175,-0.0016797550488263369,-0.005985275376588106,0.016562756150960922
452.0,0.0,0.0,0.0,0.0,0.0,0.0,-0.004181230906397104,0.002347152214497328,0.013330069370567799,0.9998299479484558,-0.0022027448285371065,-0.006553533021360636,0.017089566215872765
453.0,0.0,0.0,0.0,0.0,0.0,0.0,0.018106864765286446,-0.0035784158390015364,0.1328618973493576,0.9998106956481934,-0.002146148355677724,-0.007258219178766012,0.01792091317474842
454.0,0.0,0.0,0.0,0.0,0.0,0.0,-0.005359066184610128,-0.0028331156354397535,0.014462653547525406,0.9998011589050293,-0.002260242123156786,-0.007187599316239357,0.01845521666109562
455.0,0.0,0.0,0.0,0.0,0.0,0.0,-0.002955649746581912,-0.0031619383953511715,-0.0021331668831408024,0.9998013973236084,-0.0024856864474713802,-0.007163428235799074,0.01842871494591236
456.0,0.0,0.0,0.0,0.0,0.0,0.0,-0.0008807510603219271,-0.0034442555624991655,0.0012964525958523154,0.9998080134391785,-0.002774447901174426,-0.006987081840634346,0.018097758293151855
457.0,0.0,0.0,0.0,0.0,0.0,0.0,-0.0006571557023562491,-0.006527080666273832,0.003601781325414777,0.9998098611831665,-0.002831714227795601,-0.007083333563059568,0.017943838611245155
458.0,0.0,0.0,0.0,0.0,0.0,0.0,-0.005877981893718243,-0.007810796145349741,0.00457254983484745,0.999804675579071,-0.0032313435804098845,-0.0076706730760633945,0.017922529950737953
459.0,0.0,0.0,0.0,0.0,0.0,0.0,-0.008485480211675167,-0.005458706524223089,0.010310240089893341,0.9998052716255188,-0.0036467660684138536,-0.007772330194711685,0.017763597890734673
460.0,0.0,0.0,0.0,0.0,0.0,0.0,-0.007948711514472961,-0.0069293491542339325,0.008122407831251621,0.9998130202293396,-0.0036946709733456373,-0.007109586615115404,0.017601611092686653
461.0,0.0,0.0,0.0,0.0,0.0,0.0,-0.008591064251959324,-0.007146563846617937,-0.0012932047247886658,0.9998132586479187,-0.004043410532176495,-0.006714576855301857,0.017660701647400856
462.0,0.0,0.0,0.0,0.0,0.0,0.0,-0.005893014837056398,-0.008166917599737644,-0.0025680698454380035,0.9998209476470947,-0.004237471614032984,-0.006114821881055832,0.017394913360476494
463.0,0.0,0.0,0.0,0.0,0.0,0.0,-0.006213001906871796,-0.008196338079869747,-0.004906557034701109,0.9998252987861633,-0.004637108650058508,-0.005736918188631535,0.0171711053699255
464.0,0.0,0.0,0.0,0.0,0.0,0.0,-0.007128928322345018,-0.004630021285265684,-0.0037655080668628216,0.9998346567153931,-0.0046274070627987385,-0.005422614049166441,0.01672796718776226
465.0,0.0,0.0,0.0,0.0,0.0,0.0,-0.007766277063637972,-0.002661513164639473,-0.011331292800605297,0.9998356699943542,-0.004444523248821497,-0.004693625029176474,0.016934173181653023
466.0,0.0,0.0,0.0,0.0,0.0,0.0,-0.004651281982660294,0.0031426073983311653,-0.008321557193994522,0.999830424785614,-0.004000535234808922,-0.004254835192114115,0.01746145635843277
467.0,0.0,0.0,0.0,0.0,0.0,0.0,-0.0035923048853874207,0.003973235841840506,-0.010247846134006977,0.9998358488082886,-0.0034909266978502274,-0.004088494461029768,0.017304949462413788
468.0,0.0,0.0,0.0,0.0,0.0,0.0,-0.0033403285779058933,0.004157988354563713,-0.012773505412042141,0.9998419880867004,-0.003195167751982808,-0.003736821236088872,0.017079386860132217
469.0,0.0,0.0,0.0,0.0,0.0,0.0,-0.0013789832592010498,0.005445173475891352,-0.007210331968963146,0.9998499155044556,-0.002778450958430767,-0.003342284122481942,0.016767874360084534
470.0,0.0,0.0,0.0,0.0,0.0,0.0,-0.0015211873687803745,0.00683446554467082,-0.006538699846714735,0.9998483657836914,-0.002560902386903763,-0.003503852989524603,0.016865568235516548
471.0,0.0,0.0,0.0,0.0,0.0,0.0,-0.0013824456837028265,0.0032945405691862106,-0.00781787559390068,0.9998533129692078,-0.002087023574858904,-0.0035529187880456448,0.016624754294753075
472.0,0.0,0.0,0.0,0.0,0.0,0.0,-0.0003531681140884757,0.006151947192847729,0.0022637781221419573,0.9998582005500793,-0.001348471618257463,-0.003335659857839346,0.01645010896027088
473.0,0.0,0.0,0.0,0.0,0.0,0.0,-2.323939770576544e-05,0.0035671009682118893,0.002058041049167514,0.9998599886894226,-0.000911281444132328,-0.003134910250082612,0.01641388237476349
474.0,0.0,0.0,0.0,0.0,0.0,0.0,0.0007302220910787582,0.005067054647952318,0.0028404220938682556,0.9998617768287659,-0.00043020001612603664,-0.003004910657182336,0.016340702772140503
475.0,0.0,0.0,0.0,0.0,0.0,0.0,0.0026384955272078514,0.001775618176907301,-0.0009584823856130242,0.9998612403869629,-0.00015660565986763686,-0.003124447073787451,0.016359874978661537
476.0,0.0,0.0,0.0,0.0,0.0,0.0,0.0025964572560042143,0.00017638392455410212,-0.005956669338047504,0.9998582601547241,-8.032321784412488e-05,-0.0031452998518943787,0.016535639762878418
477.0,0.0,0.0,0.0,0.0,0.0,0.0,0.0011664230842143297,0.002208113670349121,-0.002314795507118106,0.9998504519462585,-0.00016899533511605114,-0.0033358007203787565,0.01696517877280712
478.0,0.0,0.0,0.0,0.0,0.0,0.0,0.0003750326868612319,0.0020257518626749516,0.002989084692671895,0.9998555779457092,-0.000470934493932873,-0.003700240748003125,0.01657947525382042
479.0,0.0,0.0,0.0,0.0,0.0,0.0,0.00043629403808154166,0.0021585901267826557,0.007640233729034662,0.9998586773872375,-0.0007874271250329912,-0.00428211223334074,0.01623380556702614
480.0,0.0,0.0,0.0,0.0,0.0,0.0,-0.001464450964704156,0.0003886331687681377,0.0054991780780255795,0.999859094619751,-0.0012609000550583005,-0.004320109728723764,0.016164766624569893
481.0,0.0,0.0,0.0,0.0,0.0,0.0,-0.003766546258702874,-0.0015969256637617946,0.01686895824968815,0.999854564666748,-0.0015013421652838588,-0.004138006828725338,0.016470205038785934
482.0,0.0,0.0,0.0,0.0,0.0,0.0,-0.001808716682717204,0.00039643680793233216,0.009074129164218903,0.9998458027839661,-0.0016802502796053886,-0.00395890511572361,0.0170232392847538
483.0,0.0,0.0,0.0,0.0,0.0,0.0,0.0002686537045519799,-0.0023138723336160183,0.0028126416727900505,0.9998465776443481,-0.0020637873094528913,-0.0036534734535962343,0.016999971121549606
484.0,0.0,0.0,0.0,0.0,0.0,0.0,-0.0027340089436620474,-0.002886470640078187,-0.0002974420494865626,0.9998583793640137,-0.0027308487333357334,-0.002583041088655591,0.016399258747696877
485.0,0.0,0.0,0.0,0.0,0.0,0.0,-0.0035398690961301327,-0.0003594182198867202,-0.008278626948595047,0.9998640418052673,-0.0031318478286266327,-0.0017416588962078094,0.016097133979201317
486.0,0.0,0.0,0.0,0.0,0.0,0.0,-0.00501225283369422,0.00012413293006829917,-0.002937854267656803,0.9998586773872375,-0.003527021734043956,-0.0016264934092760086,0.016355717554688454
487.0,0.0,0.0,0.0,0.0,0.0,0.0,-0.006267494987696409,0.001366534736007452,0.0030299965292215347,0.9998469948768616,-0.003865980077534914,-0.0019429331878200173,0.016942661255598068
488.0,0.0,0.0,0.0,0.0,0.0,0.0,-0.003110670717433095,0.005769444163888693,-0.013999293558299541,0.9998464584350586,-0.004082459956407547,-0.00237286021001637,0.016874345019459724
489.0,0.0,0.0,0.0,0.0,0.0,0.0,-0.002777224639430642,0.007299795281141996,0.004946078639477491,0.9998422265052795,-0.0038500844966620207,-0.003037284826859832,0.01706901751458645
490.0,0.0,0.0,0.0,0.0,0.0,0.0,0.001387895317748189,0.011343386955559254,0.017419328913092613,0.9998362064361572,-0.003523816354572773,-0.0035459271166473627,0.017388805747032166
491.0,0.0,0.0,0.0,0.0,0.0,0.0,0.00022083520889282227,0.012780367396771908,0.018141651526093483,0.9998301863670349,-0.0033410966861993074,-0.0035091042518615723,0.017781930044293404
492.0,0.0,0.0,0.0,0.0,0.0,0.0,-0.002307167509570718,0.009364140219986439,-0.002745696110650897,0.9998189210891724,-0.00286971521563828,-0.004003916867077351,0.01837996207177639
493.0,0.0,0.0,0.0,0.0,0.0,0.0,0.00017680853488855064,0.005915958434343338,-0.008266939781606197,0.9998205304145813,-0.002365513239055872,-0.003693027189001441,0.01842489279806614
494.0,0.0,0.0,0.0,0.0,0.0,0.0,0.0009140282054431736,0.006478800438344479,-0.0077829607762396336,0.9998162388801575,-0.0018351176986470819,-0.003785208100453019,0.018697800114750862
495.0,0.0,0.0,0.0,0.0,0.0,0.0,5.481200787471607e-05,0.00504054082557559,-0.006247819866985083,0.9998117685317993,-0.0015582966152578592,-0.004104080144315958,0.018900029361248016
496.0,0.0,0.0,0.0,0.0,0.0,0.0,-0.0025757532566785812,0.0019881962798535824,-0.006525076925754547,0.9998093247413635,-0.001351223443634808,-0.004224875476211309,0.01901412382721901
497.0,0.0,0.0,0.0,0.0,0.0,0.0,-0.003916442859917879,0.009091946296393871,0.00267212581820786,0.9998030066490173,-0.0013807996874675155,-0.004567473661154509,0.01926414854824543
498.0,0.0,0.0,0.0,0.0,0.0,0.0,-0.0059421430341899395,0.009699903428554535,0.004897293634712696,0.9997844696044922,-0.0014351403806358576,-0.005246330983936787,0.020032338798046112
499.0,0.0,0.0,0.0,0.0,0.0,0.0,-0.008762490935623646,0.004511094652116299,0.0020465191919356585,0.9997773766517639,-0.001301681506447494,-0.005146919749677181,0.020418910309672356
500.0,0.0,0.0,0.0,0.0,0.0,0.0,-0.00636584497988224,0.006736300885677338,0.001359616289846599,0.999772846698761,-0.0014041794929653406,-0.004627977963536978,0.02075590379536152
501.0,0.0,0.0,0.0,0.0,0.0,0.0,-0.007255608215928078,0.0025091180577874184,-0.0027857485692948103,0.9997620582580566,-0.0015601327177137136,-0.004718895070254803,0.02124147117137909
502.0,0.0,0.0,0.0,0.0,0.0,0.0,-0.006331486161798239,0.0015004894230514765,-0.0003369850164745003,0.9997438192367554,-0.0011364301899448037,-0.005077023059129715,0.0220272745937109
503.0,0.0,0.0,0.0,0.0,0.0,0.0,-0.007306743413209915,-0.005239794962108135,-0.023068828508257866,0.999741792678833,-0.0014423348475247622,-0.0049795047380030155,0.022119497880339622
504.0,0.0,0.0,0.0,0.0,0.0,0.0,-0.009648610837757587,0.002504088683053851,0.010382622480392456,0.9997485280036926,-0.001991440774872899,-0.005457533057779074,0.02165345847606659
505.0,0.0,0.0,0.0,0.0,0.0,0.0,-0.01132716704159975,0.0033809130545705557,0.009744645096361637,0.9997387528419495,-0.0025060675106942654,-0.006376525387167931,0.021805109456181526
506.0,0.0,0.0,0.0,0.0,0.0,0.0,-0.01227592770010233,0.00016917182074394077,0.010539558716118336,0.9997432231903076,-0.00267860502935946,-0.006231276318430901,0.021619809791445732
507.0,0.0,0.0,0.0,0.0,0.0,0.0,-0.010991033166646957,-0.0006944660563021898,0.003963070455938578,0.9997534155845642,-0.002683610888198018,-0.005745734553784132,0.02127765119075775
508.0,0.0,0.0,0.0,0.0,0.0,0.0,-0.009103195741772652,-0.0015912892995402217,-0.002099707955494523,0.9997572302818298,-0.002550816396251321,-0.005161745473742485,0.021259088069200516
509.0,0.0,0.0,0.0,0.0,0.0,0.0,-0.007910827174782753,-0.0007239527185447514,-0.007132393773645163,0.9997618794441223,-0.002103540115058422,-0.004428069572895765,0.021259158849716187
510.0,0.0,0.0,0.0,0.0,0.0,0.0,-0.005126133561134338,-0.0011252854019403458,-0.010502664372324944,0.9997658133506775,-0.001767024747096002,-0.0036819151137024164,0.021241992712020874
511.0,0.0,0.0,0.0,0.0,0.0,0.0,-0.005641483701765537,0.0003471935633569956,-0.014767605811357498,0.9997699856758118,-0.0019978173077106476,-0.0034000698942691088,0.02108100615441799
512.0,0.0,0.0,0.0,0.0,0.0,0.0,-0.005715617444366217,0.0007840318139642477,-0.009914879687130451,0.9997742176055908,-0.0022762808948755264,-0.003098773770034313,0.020896626636385918
513.0,0.0,0.0,0.0,0.0,0.0,0.0,-0.0038501531817018986,0.0021776992361992598,-0.009238065220415592,0.9997670650482178,-0.0024739557411521673,-0.0031468600500375032,0.02120782621204853
514.0,0.0,0.0,0.0,0.0,0.0,0.0,-0.002874090801924467,0.0011810878058895469,-0.009158074855804443,0.9997656941413879,-0.0028865342028439045,-0.003026797669008374,0.021235192194581032
515.0,0.0,0.0,0.0,0.0,0.0,0.0,-0.0011195364641025662,0.0020597600378096104,-0.00465169083327055,0.9997695684432983,-0.002923676511272788,-0.0025612295139580965,0.021109849214553833
516.0,0.0,0.0,0.0,0.0,0.0,0.0,-0.00027498655254021287,0.00492821354418993,0.00035356904845684767,0.9997602105140686,-0.0029257324058562517,-0.0025702284183353186,0.021547071635723114
517.0,0.0,0.0,0.0,0.0,0.0,0.0,2.9656921469722874e-05,0.00556543143466115,0.005722702946513891,0.9997613430023193,-0.0032871365547180176,-0.0027064247988164425,0.021424828097224236
518.0,0.0,0.0,0.0,0.0,0.0,0.0,4.4928161514690146e-05,0.005653318017721176,-0.006961239501833916,0.9997698664665222,-0.003597061848267913,-0.0032121872063726187,0.020904256030917168
519.0,0.0,0.0,0.0,0.0,0.0,0.0,0.004220104310661554,0.0036268101539462805,0.0009132568957284093,0.9997704029083252,-0.0035217367112636566,-0.003915121778845787,0.020767737179994583
520.0,0.0,0.0,0.0,0.0,0.0,0.0,0.0025411066599190235,0.0037276246584951878,0.018356868997216225,0.9997605681419373,-0.003583995858207345,-0.0043406980112195015,0.021145734935998917
521.0,0.0,0.0,0.0,0.0,0.0,0.0,0.0015460005961358547,0.0032620441634207964,0.019326403737068176,0.9997431039810181,-0.0039778235368430614,-0.00526392413303256,0.021684326231479645
522.0,0.0,0.0,0.0,0.0,0.0,0.0,0.0008932503405958414,0.00500783696770668,0.01788473315536976,0.9997390508651733,-0.0037808730266988277,-0.005946765653789043,0.021732723340392113
523.0,0.0,0.0,0.0,0.0,0.0,0.0,0.00028639513766393065,0.004066758789122105,0.005682641174644232,0.9997420907020569,-0.003283614991232753,-0.0061414181254804134,0.02160402201116085
524.0,0.0,0.0,0.0,0.0,0.0,0.0,-0.0002389904111623764,0.0016191295580938458,0.010273235850036144,0.9997518658638,-0.002950133988633752,-0.006227710749953985,0.021184906363487244
525.0,0.0,0.0,0.0,0.0,0.0,0.0,-0.001980648608878255,0.0024105452466756105,0.0014334702864289284,0.9997487664222717,-0.0029280914459377527,-0.006271679420024157,0.021316034719347954
526.0,0.0,0.0,0.0,0.0,0.0,0.0,-0.002470010658726096,0.0025999092031270266,0.002791146282106638,0.9997367262840271,-0.0024142994079738855,-0.006205294746905565,0.021955953910946846
527.0,0.0,0.0,0.0,0.0,0.0,0.0,-0.005969939287751913,0.0008811203297227621,0.0027622689958661795,0.9997271299362183,-0.0023037423379719257,-0.006200924050062895,0.022402245551347733
528.0,0.0,0.0,0.0,0.0,0.0,0.0,-0.008883483707904816,-0.00043692922918125987,-0.006411667913198471,0.9997261762619019,-0.002331298543140292,-0.005618596449494362,0.022594185546040535
529.0,0.0,0.0,0.0,0.0,0.0,0.0,-0.008261559531092644,0.0028631160967051983,-0.01239864993840456,0.9997316598892212,-0.0022086689714342356,-0.004633331671357155,0.022582868114113808
530.0,0.0,0.0,0.0,0.0,0.0,0.0,-0.007006692700088024,0.0073160347528755665,-0.009056460112333298,0.9997358322143555,-0.0019851650577038527,-0.00392517726868391,0.02256503701210022
531.0,0.0,0.0,0.0,0.0,0.0,0.0,-0.008812463842332363,0.010194358415901661,-0.013055985793471336,0.9997357726097107,-0.0018904611933976412,-0.0034803389571607113,0.02263331599533558
532.0,0.0,0.0,0.0,0.0,0.0,0.0,-0.005635549779981375,0.003339465707540512,-0.017643319442868233,0.9997553825378418,-0.0020279414020478725,-0.0030365176498889923,0.02181505225598812
533.0,0.0,0.0,0.0,0.0,0.0,0.0,-0.004876749124377966,0.0028562648221850395,-0.006384964566677809,0.999771773815155,-0.0021935387048870325,-0.002678803401067853,0.021077383309602737
534.0,0.0,0.0,0.0,0.0,0.0,0.0,-0.00624132389202714,0.003006148384884,-0.003171495860442519,0.9997903108596802,-0.0025520052295178175,-0.0022927052341401577,0.020184693858027458
535.0,0.0,0.0,0.0,0.0,0.0,0.0,-0.005568444728851318,0.00092189951101318,-0.002773082349449396,0.9998029470443726,-0.0028457236476242542,-0.0016570480074733496,0.019580133259296417
536.0,0.0,0.0,0.0,0.0,0.0,0.0,-0.0032308315858244896,-0.0010290349600836635,0.0017559165135025978,0.9998173713684082,-0.003229193389415741,-0.001101018046028912,0.018799902871251106
537.0,0.0,0.0,0.0,0.0,0.0,0.0,-0.002409862820059061,-0.0006708930595777929,-0.001629218808375299,0.999824583530426,-0.0034895718563348055,-0.0010457881726324558,0.018365370109677315
538.0,0.0,0.0,0.0,0.0,0.0,0.0,-0.004242962226271629,-0.00023180599964689463,-0.004491813015192747,0.999835193157196,-0.0034666031133383512,-0.0010189214954152703,0.01778568886220455
539.0,0.0,0.0,0.0,0.0,0.0,0.0,-0.0036722137592732906,0.001476092147640884,-0.0042052678763866425,0.9998459815979004,-0.0032494140323251486,-0.00011345477832946926,0.01724577508866787
540.0,0.0,0.0,0.0,0.0,0.0,0.0,-0.0006851619691587985,-0.0001086081174435094,-0.018241124227643013,0.9998376965522766,-0.0028965219389647245,-0.0003772149211727083,0.017782507464289665
541.0,0.0,0.0,0.0,0.0,0.0,0.0,-0.004956382792443037,-0.00844444241374731,-0.013041454367339611,0.9998287558555603,-0.003163272049278021,-0.00042370145092718303,0.01822320558130741
542.0,0.0,0.0,0.0,0.0,0.0,0.0,-0.0049043637700378895,-0.008813757449388504,-0.015244820155203342,0.9998311996459961,-0.004090873524546623,-0.0003779270628001541,0.01790357381105423
543.0,0.0,0.0,0.0,0.0,0.0,0.0,-0.004111186135560274,-0.0038087493740022182,-0.01783171482384205,0.9998343586921692,-0.004781556315720081,-0.0002628608199302107,0.017559422180056572
544.0,0.0,0.0,0.0,0.0,0.0,0.0,-0.007331028115004301,0.007767627481371164,0.013460163958370686,0.9998360276222229,-0.005120095331221819,-0.0002702024357859045,0.017365414649248123
545.0,0.0,0.0,0.0,0.0,0.0,0.0,-0.02965940721333027,0.008924797177314758,-0.10777068138122559,0.9998374581336975,-0.005778222810477018,0.0008386144181713462,0.017054514959454536
546.0,0.0,0.0,0.0,0.0,0.0,0.0,4.5048647734802216e-05,0.010638146661221981,0.0013783661415800452,0.9998406767845154,-0.00598295871168375,0.0006982502527534962,0.01679117977619171
547.0,0.0,0.0,0.0,0.0,0.0,0.0,0.0034020766615867615,0.010192632675170898,0.0016868258826434612,0.9998470544815063,-0.0060557229444384575,0.00033228113898076117,0.016401221975684166
548.0,0.0,0.0,0.0,0.0,0.0,0.0,0.0022103022783994675,0.009606015868484974,0.010425504297018051,0.9998437166213989,-0.005796933546662331,-0.0003822628641501069,0.016690287739038467
549.0,0.0,0.0,0.0,0.0,0.0,0.0,0.015988366678357124,0.12933160364627838,0.007922920398414135,0.9998357892036438,-0.0030933269299566746,-0.0019781463779509068,0.0177510604262352
550.0,0.0,0.0,0.0,0.0,0.0,0.0,0.004106880631297827,0.0032561433035880327,0.007432210724800825,0.9998400211334229,-0.0029379643965512514,-0.0021771530155092478,0.017504161223769188
551.0,0.0,0.0,0.0,0.0,0.0,0.0,0.00423972075805068,0.0027918354608118534,0.0021946588531136513,0.9998409152030945,-0.002874895464628935,-0.002531594131141901,0.0174119733273983
552.0,0.0,0.0,0.0,0.0,0.0,0.0,0.004011916927993298,0.005393446888774633,0.009783315472304821,0.9998443722724915,-0.002943934639915824,-0.002796471817418933,0.017164545133709908
553.0,0.0,0.0,0.0,0.0,0.0,0.0,0.0032797406893223524,0.005309573840349913,0.015028340741991997,0.9998440742492676,-0.0027713861782103777,-0.0031682357657700777,0.017152966931462288
554.0,0.0,0.0,0.0,0.0,0.0,0.0,0.0021680251229554415,0.002021313877776265,-0.0044655026867985725,0.9998397827148438,-0.0031251711770892143,-0.0034648787695914507,0.017271962016820908
555.0,0.0,0.0,0.0,0.0,0.0,0.0,-0.0009515358251519501,-0.005001234356313944,-0.0033135167323052883,0.9998423457145691,-0.004046713002026081,-0.0034020135644823313,0.016941094771027565
556.0,0.0,0.0,0.0,0.0,0.0,0.0,-0.001010316889733076,5.013573172618635e-05,0.0007482855580747128,0.9998463988304138,-0.00412218039855361,-0.002973912050947547,0.016763731837272644
557.0,0.0,0.0,0.0,0.0,0.0,0.0,-0.0022414710838347673,-0.005073063541203737,0.009570612572133541,0.9998364448547363,-0.004071204457432032,-0.002659060526639223,0.017417563125491142
558.0,0.0,0.0,0.0,0.0,0.0,0.0,0.00024881158606149256,0.00029535379144363105,0.02010694332420826,0.9998354911804199,-0.004110115580260754,-0.0023959570098668337,0.017506111413240433
559.0,0.0,0.0,0.0,0.0,0.0,0.0,0.005796090699732304,0.003756471909582615,-0.0032314287964254618,0.9998451471328735,-0.003953367471694946,-0.0021691496949642897,0.01699875481426716
560.0,0.0,0.0,0.0,0.0,0.0,0.0,0.004580347798764706,0.00022498256294056773,-0.015652477741241455,0.9998584389686584,-0.0037742385175079107,-0.0021763353142887354,0.01625797338783741
561.0,0.0,0.0,0.0,0.0,0.0,0.0,0.001126935356296599,-0.00042883140849880874,0.0043480852618813515,0.9998681545257568,-0.0037358684930950403,-0.0021977457217872143,0.0156455859541893
562.0,0.0,0.0,0.0,0.0,0.0,0.0,0.002308119088411331,-0.003369895974174142,0.016482125967741013,0.9998762011528015,-0.0034942850470542908,-0.0018324913689866662,0.015232685022056103
563.0,0.0,0.0,0.0,0.0,0.0,0.0,0.005481339991092682,-0.006274402141571045,0.00561388349160552,0.999875545501709,-0.003272905247285962,-0.001735591678880155,0.01533341035246849
564.0,0.0,0.0,0.0,0.0,0.0,0.0,0.006230839993804693,-0.007752862758934498,-0.01101130060851574,0.9998728036880493,-0.0032968809828162193,-0.0023855953477323055,0.015412556938827038
565.0,0.0,0.0,0.0,0.0,0.0,0.0,0.004214608110487461,-0.0055539957247674465,-0.0034659067168831825,0.9998776912689209,-0.003428584896028042,-0.002781843999400735,0.01499912515282631
566.0,0.0,0.0,0.0,0.0,0.0,0.0,0.004348549991846085,-0.0027903553564101458,0.0009032234665937722,0.9998864531517029,-0.0031564112287014723,-0.0029821989592164755,0.014425931498408318
567.0,0.0,0.0,0.0,0.0,0.0,0.0,0.005908458959311247,-0.00328555004671216,0.0020941414404660463,0.9998883008956909,-0.003111690515652299,-0.003190546063706279,0.014254585839807987
568.0,0.0,0.0,0.0,0.0,0.0,0.0,0.004453436471521854,-0.0007653561769984663,0.008630006574094296,0.9998924136161804,-0.0029469786677509546,-0.003387629287317395,0.01396316196769476
569.0,0.0,0.0,0.0,0.0,0.0,0.0,0.0045885127037763596,-0.00280958553776145,0.010814027860760689,0.9998918175697327,-0.0029693376272916794,-0.0033845342695713043,0.013996381312608719
570.0,0.0,0.0,0.0,0.0,0.0,0.0,0.005460971966385841,0.0008661603205837309,0.0048566702753305435,0.9998895525932312,-0.002678254386410117,-0.003350868122652173,0.014221180230379105
571.0,0.0,0.0,0.0,0.0,0.0,0.0,0.005032859742641449,-9.875893010757864e-05,-0.0002760252682492137,0.9998778700828552,-0.0024374318309128284,-0.0034785803873091936,0.015030459500849247
572.0,0.0,0.0,0.0,0.0,0.0,0.0,0.0025175693444907665,0.0012902015587314963,-0.00032363709760829806,0.9998754858970642,-0.0023271674290299416,-0.004030072130262852,0.015073679387569427
573.0,0.0,0.0,0.0,0.0,0.0,0.0,0.0009555512224324048,0.0028545844834297895,-0.0053792125545442104,0.9998792409896851,-0.0025770918000489473,-0.00436428701505065,0.01468830369412899
574.0,0.0,0.0,0.0,0.0,0.0,0.0,0.0012229325948283076,-0.000833318626973778,-0.0038242924492806196,0.9998858571052551,-0.00255716685205698,-0.004688502289354801,0.014137069694697857
575.0,0.0,0.0,0.0,0.0,0.0,0.0,-0.004097585566341877,-0.002990575274452567,0.010384432040154934,0.9998871684074402,-0.002784307347610593,-0.004918385297060013,0.013918676413595676
576.0,0.0,0.0,0.0,0.0,0.0,0.0,-0.004291904158890247,-0.004042144864797592,0.008825475350022316,0.9999008178710938,-0.0024502770975232124,-0.004611739423125982,0.013075475580990314
577.0,0.0,0.0,0.0,0.0,0.0,0.0,-0.003977627493441105,-0.008783631958067417,0.004355359822511673,0.9999052286148071,-0.0019385420018807054,-0.003862455254420638,0.01305910013616085
578.0,0.0,0.0,0.0,0.0,0.0,0.0,-0.0034861175809055567,-0.008194618858397007,0.0027852903585880995,0.9999040365219116,-0.0014043338596820831,-0.0035346488002687693,0.013320710510015488
579.0,0.0,0.0,0.0,0.0,0.0,0.0,-0.0010874231811612844,-0.006010611541569233,-0.005393416155129671,0.9999055862426758,-0.0009362465934827924,-0.00307219079695642,0.013358724303543568
580.0,0.0,0.0,0.0,0.0,0.0,0.0,0.0028326346073299646,-0.007858943194150925,-0.01581571437418461,0.9998983144760132,-0.000875343510415405,-0.0031400558073073626,0.013882060535252094
581.0,0.0,0.0,0.0,0.0,0.0,0.0,0.0033556767739355564,-0.010890647768974304,-0.02682827040553093,0.9998923540115356,-0.0013631799956783652,-0.003975770436227322,0.014054411090910435
582.0,0.0,0.0,0.0,0.0,0.0,0.0,0.0023245506454259157,-0.00977711658924818,-0.023378901183605194,0.9998906850814819,-0.001987047027796507,-0.004548348020762205,0.01393811870366335
583.0,0.0,0.0,0.0,0.0,0.0,0.0,-0.0019440710311755538,-0.002848014933988452,0.0034971905406564474,0.9998969435691833,-0.002491418272256851,-0.004134245682507753,0.013518469408154488
584.0,0.0,0.0,0.0,0.0,0.0,0.0,-0.007872521877288818,0.006420680321753025,0.030772225931286812,0.9998919367790222,-0.0026191887445747852,-0.004094110336154699,0.013872082345187664
585.0,0.0,0.0,0.0,0.0,0.0,0.0,-0.0037926328368484974,0.005252161528915167,0.035636015236377716,0.9998809695243835,-0.0027263944502919912,-0.003928543534129858,0.014661221764981747
586.0,0.0,0.0,0.0,0.0,0.0,0.0,0.001727565540932119,0.0016989465802907944,0.0009854298550635576,0.9998719692230225,-0.00279039959423244,-0.004197970032691956,0.015178171917796135
587.0,0.0,0.0,0.0,0.0,0.0,0.0,0.0017964133294299245,-0.0011790263233706355,-0.020915105938911438,0.9998601675033569,-0.0028653480112552643,-0.0051475707441568375,0.015642432495951653
588.0,0.0,0.0,0.0,0.0,0.0,0.0,-0.0006769056199118495,-0.005830137990415096,0.010107086040079594,0.9998673796653748,-0.0030961581505835056,-0.005186158232390881,0.015120532363653183
589.0,0.0,0.0,0.0,0.0,0.0,0.0,0.00010245545854559168,-0.00444019353017211,0.003718768944963813,0.9998770356178284,-0.0030313292518258095,-0.00504329614341259,0.014530029147863388
590.0,0.0,0.0,0.0,0.0,0.0,0.0,-0.0010486608371138573,-0.0004938284400850534,0.007943772710859776,0.9998754262924194,-0.002618394559249282,-0.004882419016212225,0.014779088087379932
591.0,0.0,0.0,0.0,0.0,0.0,0.0,-0.0005673532723449171,-0.0021708158310502768,0.0056881229393184185,0.9998708963394165,-0.0020913935732096434,-0.004698026459664106,0.015220405533909798
592.0,0.0,0.0,0.0,0.0,0.0,0.0,0.00024691439466550946,-0.004408370703458786,-0.002980365650728345,0.9998736381530762,-0.0017704671481624246,-0.0041749849915504456,0.015234893187880516
593.0,0.0,0.0,0.0,0.0,0.0,0.0,0.0018736380152404308,-0.006506357342004776,-0.012963598594069481,0.9998780488967896,-0.001581286545842886,-0.0037818613927811384,0.01506851427257061
594.0,0.0,0.0,0.0,0.0,0.0,0.0,0.0002757349284365773,-0.0016982108354568481,-0.008958633057773113,0.9998753666877747,-0.0011723317438736558,-0.003511162241920829,0.015348256565630436
595.0,0.0,0.0,0.0,0.0,0.0,0.0,-0.0007461123168468475,0.00018150713003706187,-0.005990483332425356,0.9998635053634644,-0.0010509847197681665,-0.003190861316397786,0.01617228239774704
596.0,0.0,0.0,0.0,0.0,0.0,0.0,-0.0010045988019555807,-0.0001386590738547966,-0.003898533759638667,0.9998659491539001,-0.001140371197834611,-0.002897040918469429,0.016074053943157196
597.0,0.0,0.0,0.0,0.0,0.0,0.0,-0.0006333626224659383,-0.0016607394209131598,-0.005146631505340338,0.9998698830604553,-0.0012506848433986306,-0.0023389761336147785,0.015902196988463402
598.0,0.0,0.0,0.0,0.0,0.0,0.0,0.00029265967896208167,-0.007971380837261677,-0.008443322964012623,0.999875009059906,-0.001469866605475545,-0.001583570847287774,0.015661045908927917
599.0,0.0,0.0,0.0,0.0,0.0,0.0,-0.0007272319635376334,-0.009763642214238644,-0.0028394756373018026,0.9998871088027954,-0.0017764103831723332,-0.0006915316917002201,0.014898017048835754
600.0,0.0,0.0,0.0,0.0,0.0,0.0,0.0006013819365762174,-0.011747651733458042,0.0027332198806107044,0.9999043941497803,-0.0019458660390228033,-0.0001948288263520226,0.013691657222807407
601.0,0.0,0.0,0.0,0.0,0.0,0.0,0.0019516751635819674,-0.013900724239647388,-0.0008343251538462937,0.9999050498008728,-0.0023283178452402353,-0.00016751485236454755,0.013581760227680206
602.0,0.0,0.0,0.0,0.0,0.0,0.0,0.002856988925486803,-0.011497434228658676,0.0032091946341097355,0.999901294708252,-0.0023891888558864594,-0.00015415997768286616,0.013844062574207783
603.0,0.0,0.0,0.0,0.0,0.0,0.0,0.007772047538310289,-0.009174198843538761,-0.003859272925183177,0.9999073147773743,-0.0024769450537860394,2.0302371922298335e-05,0.013384704478085041
604.0,0.0,0.0,0.0,0.0,0.0,0.0,0.010596769861876965,-0.009823431260883808,-0.014910281635820866,0.9999052882194519,-0.003047204576432705,-0.0004165887658018619,0.013401770032942295
605.0,0.0,0.0,0.0,0.0,0.0,0.0,0.007127222139388323,-0.011083362624049187,-0.007622965611517429,0.9999033808708191,-0.003790849121287465,-0.0012199205812066793,0.013319839723408222
606.0,0.0,0.0,0.0,0.0,0.0,0.0,0.005713741760700941,-0.006408084649592638,0.00961510930210352,0.9999074339866638,-0.004154871217906475,-0.001389813143759966,0.01287719327956438
607.0,0.0,0.0,0.0,0.0,0.0,0.0,0.002575852209702134,-0.007546930108219385,0.019643843173980713,0.999911904335022,-0.004804327618330717,-0.0010801939060911536,0.012318364344537258
608.0,0.0,0.0,0.0,0.0,0.0,0.0,0.00020013847097288817,0.002455841051414609,0.033961109817028046,0.9999158382415771,-0.0049272687174379826,-0.0007957424386404455,0.011971068568527699
609.0,0.0,0.0,0.0,0.0,0.0,0.0,0.006013602018356323,-0.0023260510060936213,0.002521057613193989,0.9999152421951294,-0.004994172137230635,-0.0008877539075911045,0.011990941129624844
610.0,0.0,0.0,0.0,0.0,0.0,0.0,0.009154081344604492,-0.01107837539166212,-0.01341549027711153,0.9999175667762756,-0.005178146529942751,-0.001089407131075859,0.011697206646203995
611.0,0.0,0.0,0.0,0.0,0.0,0.0,0.006336181424558163,-0.00283766258507967,0.004198879934847355,0.9999225735664368,-0.004839485511183739,-0.001072186278179288,0.011411731131374836
612.0,0.0,0.0,0.0,0.0,0.0,0.0,0.0056169601157307625,0.0034412273671478033,0.005757680628448725,0.9999228715896606,-0.004194736480712891,-0.0007071503205224872,0.011655373498797417
613.0,0.0,0.0,0.0,0.0,0.0,0.0,0.0031781550496816635,0.0061615887098014355,0.005540757905691862,0.9999308586120605,-0.003606461687013507,-0.00014029760495759547,0.01118780393153429
614.0,0.0,0.0,0.0,0.0,0.0,0.0,0.0035240394063293934,0.006679868791252375,-0.011239656247198582,0.9999363422393799,-0.0026939986273646355,0.0005848343134857714,0.01094293873757124
615.0,0.0,0.0,0.0,0.0,0.0,0.0,0.00520070968195796,0.005850084125995636,-0.033424295485019684,0.9999363422393799,-0.0022548281121999025,0.0008522691205143929,0.011027074418962002
616.0,0.0,0.0,0.0,0.0,0.0,0.0,0.003060070564970374,0.0013852865668013692,-0.02026355266571045,0.99993896484375,-0.0023829429410398006,0.0008345250389538705,0.01075479295104742
617.0,0.0,0.0,0.0,0.0,0.0,0.0,0.002193121938034892,0.0017681067110970616,-0.015864958986639977,0.9999391436576843,-0.0029854816384613514,9.452399535803124e-05,0.010615171864628792
618.0,0.0,0.0,0.0,0.0,0.0,0.0,0.0009458349086344242,0.00359060219489038,-0.0026855345349758863,0.9999344348907471,-0.0034664724953472614,-0.00031817928538657725,0.01089642196893692
619.0,0.0,0.0,0.0,0.0,0.0,0.0,-0.0012677476042881608,0.00865236110985279,0.006454640068113804,0.9999255537986755,-0.003655937034636736,-0.0007755507249385118,0.011610208079218864
620.0,0.0,0.0,0.0,0.0,0.0,0.0,-0.003078075824305415,0.009937331080436707,0.010843725875020027,0.9999161958694458,-0.003972842823714018,-0.0010004423093050718,0.012271909974515438
621.0,0.0,0.0,0.0,0.0,0.0,0.0,-0.0040153684094548225,0.01470852829515934,0.007861267775297165,0.9999207258224487,-0.003967571072280407,-0.0006532834959216416,0.01192831713706255
622.0,0.0,0.0,0.0,0.0,0.0,0.0,-0.0026187694165855646,0.007942928932607174,0.0027139729354530573,0.999916672706604,-0.003948037512600422,-0.000628361536655575,0.012262510135769844
623.0,0.0,0.0,0.0,0.0,0.0,0.0,0.0020317595917731524,0.002480901312083006,0.007716560270637274,0.9999123215675354,-0.003876187838613987,-0.0006528671365231276,0.01264834776520729
624.0,0.0,0.0,0.0,0.0,0.0,0.0,0.006684313528239727,-0.0017653185641393065,-0.0005977351102046669,0.9999110102653503,-0.004304164554923773,-0.0010733995586633682,0.012572354637086391
625.0,0.0,0.0,0.0,0.0,0.0,0.0,0.005513090640306473,0.0016250014305114746,-0.005812642630189657,0.9999171495437622,-0.0048941257409751415,-0.0018139068270102143,0.011754878796637058
626.0,0.0,0.0,0.0,0.0,0.0,0.0,0.0017905409913510084,-0.002966601401567459,0.014049043878912926,0.9999256730079651,-0.004883147776126862,-0.0018641863716766238,0.011004702188074589
627.0,0.0,0.0,0.0,0.0,0.0,0.0,0.0007313049281947315,-0.001484674634411931,0.01807170733809471,0.9999245405197144,-0.004867063835263252,-0.0016557262279093266,0.011160504072904587
628.0,0.0,0.0,0.0,0.0,0.0,0.0,0.000682938436511904,-0.0012907839845865965,0.024207383394241333,0.9999262690544128,-0.004504379816353321,-0.0012134421849623322,0.011209954507648945
629.0,0.0,0.0,0.0,0.0,0.0,0.0,0.004200120456516743,0.0031757561955600977,-0.0023904701229184866,0.9999224543571472,-0.0039316038601100445,-0.001052691601216793,0.011754469946026802
630.0,0.0,0.0,0.0,0.0,0.0,0.0,0.007952198386192322,0.004578232765197754,-0.011288636364042759,0.9999163746833801,-0.00346302124671638,-0.0014032394392415881,0.012386350892484188
631.0,0.0,0.0,0.0,0.0,0.0,0.0,0.005960345733910799,0.005269517656415701,-0.006492325570434332,0.9999186396598816,-0.003157616825774312,-0.0015707117272540927,0.012250526808202267
632.0,0.0,0.0,0.0,0.0,0.0,0.0,0.0027100408915430307,0.005153985228389502,-0.003261268837377429,0.9999135136604309,-0.003329317783936858,-0.0023475426714867353,0.012487799860537052
633.0,0.0,0.0,0.0,0.0,0.0,0.0,0.003332566237077117,0.005569202825427055,0.00012019416317343712,0.9999079704284668,-0.0034251362085342407,-0.0030145731288939714,0.012781345285475254
634.0,0.0,0.0,0.0,0.0,0.0,0.0,0.0034552260767668486,0.0041286274790763855,0.003298200899735093,0.9999085664749146,-0.0030734031461179256,-0.0026791079435497522,0.01289826724678278
635.0,0.0,0.0,0.0,0.0,0.0,0.0,0.0023082862608134747,-0.0026914365589618683,0.0018970402888953686,0.9999082684516907,-0.0030035795643925667,-0.0025516548193991184,0.012950141914188862
636.0,0.0,0.0,0.0,0.0,0.0,0.0,0.00026836825418286026,-0.0029038325883448124,0.004158479627221823,0.9999062418937683,-0.002957054879516363,-0.0028338779229670763,0.013055610470473766
637.0,0.0,0.0,0.0,0.0,0.0,0.0,-0.0008358436753042042,-0.0026190271601080894,0.0003561265184544027,0.9999068379402161,-0.0027019274421036243,-0.0028117026668041945,0.013081301935017109
638.0,0.0,0.0,0.0,0.0,0.0,0.0,0.00012283617979846895,-0.0055950540117919445,-0.008753197267651558,0.9999075531959534,-0.002646738663315773,-0.002480564173310995,0.013093733228743076
639.0,0.0,0.0,0.0,0.0,0.0,0.0,-0.0011570720234885812,-0.006894852500408888,-0.009873656556010246,0.9999046325683594,-0.002567196497693658,-0.002476335968822241,0.013340170495212078
640.0,0.0,0.0,0.0,0.0,0.0,0.0,-0.004053371958434582,-0.004395587369799614,-0.004263320472091436,0.9999051690101624,-0.002932206494733691,-0.00284507661126554,0.013149461708962917
641.0,0.0,0.0,0.0,0.0,0.0,0.0,-0.00395590253174305,-0.005385407246649265,-0.0027236102614551783,0.9998992085456848,-0.0034903495106846094,-0.00350391143001616,0.013296368531882763
642.0,0.0,0.0,0.0,0.0,0.0,0.0,-0.0056478590704500675,-0.006678013596683741,0.008208494633436203,0.9998931288719177,-0.004141431767493486,-0.0039030800107866526,0.013451838865876198
643.0,0.0,0.0,0.0,0.0,0.0,0.0,-0.0051962644793093204,-0.0025782473385334015,0.011240811087191105,0.9998847842216492,-0.004828962963074446,-0.004569636657834053,0.0136486841365695
644.0,0.0,0.0,0.0,0.0,0.0,0.0,-0.004180244170129299,4.994570554117672e-05,0.019729800522327423,0.9998756051063538,-0.0053904177621006966,-0.004872534424066544,0.01399382296949625
645.0,0.0,0.0,0.0,0.0,0.0,0.0,-0.0031091789714992046,0.002033132826909423,0.025326214730739594,0.999875009059906,-0.005473828874528408,-0.0048747980035841465,0.0140004837885499
646.0,0.0,0.0,0.0,0.0,0.0,0.0,-0.0011126353638246655,0.0008793839369900525,0.011724229902029037,0.9998709559440613,-0.005704205017536879,-0.004797395784407854,0.01422724686563015
647.0,0.0,0.0,0.0,0.0,0.0,0.0,-0.0013010362163186073,0.0024439608678221703,0.014860708266496658,0.9998793005943298,-0.005423318594694138,-0.004073928575962782,0.013975324109196663
648.0,0.0,0.0,0.0,0.0,0.0,0.0,0.0025854776613414288,0.002834441838786006,0.011985660530626774,0.9998950958251953,-0.0047646695747971535,-0.0030026938766241074,0.013342680409550667
649.0,0.0,0.0,0.0,0.0,0.0,0.0,0.007357302587479353,-0.00028190246666781604,-0.006565875373780727,0.9999024271965027,-0.004464111756533384,-0.001933213323354721,0.013096094131469727
650.0,0.0,0.0,0.0,0.0,0.0,0.0,0.00629796227440238,-0.006458936259150505,-0.01776852272450924,0.9999130964279175,-0.003948902245610952,-0.000734821252990514,0.012553905136883259
651.0,0.0,0.0,0.0,0.0,0.0,0.0,0.006754267029464245,-0.0068026515655219555,-0.019695764407515526,0.9999199509620667,-0.003115615341812372,-0.00015614514995831996,0.012256141752004623
652.0,0.0,0.0,0.0,0.0,0.0,0.0,0.006646645721048117,-0.004060154315084219,-0.016797926276922226,0.9999281167984009,-0.002032011980190873,-0.00023259109002538025,0.011809500865638256
653.0,0.0,0.0,0.0,0.0,0.0,0.0,0.006226059049367905,-0.0031770982313901186,-0.012294686399400234,0.9999379515647888,-0.0008467338629998267,-0.00020219867292325944,0.011113015003502369
654.0,0.0,0.0,0.0,0.0,0.0,0.0,0.0064869835041463375,-0.0035988648887723684,-0.02550501376390457,0.9999440908432007,0.00012792272900696844,-0.0007280184072442353,0.010558352805674076
655.0,0.0,0.0,0.0,0.0,0.0,0.0,0.00202738749794662,-0.001725460635498166,-0.005674824118614197,0.9999463558197021,0.0009537599398754537,-0.0014537600800395012,0.010203545913100243
656.0,0.0,0.0,0.0,0.0,0.0,0.0,-0.0015536226565018296,0.006778005976229906,0.004242501221597195,0.9999387860298157,0.0016163955442607403,-0.0022766164038330317,0.010692549869418144
657.0,0.0,0.0,0.0,0.0,0.0,0.0,-0.0004214047221466899,0.010607808828353882,0.0025666863657534122,0.9999273419380188,0.0023365886881947517,-0.0027493888046592474,0.011500219814479351
658.0,0.0,0.0,0.0,0.0,0.0,0.0,0.0029547957237809896,0.014659262262284756,0.007198312319815159,0.9999206066131592,0.0028842436149716377,-0.0028726221062242985,0.011925852857530117
659.0,0.0,0.0,0.0,0.0,0.0,0.0,0.005618231371045113,0.0150954844430089,0.0017493037739768624,0.9999061822891235,0.0032748195808380842,-0.0031582796946167946,0.012912526726722717
660.0,0.0,0.0,0.0,0.0,0.0,0.0,0.007582695223391056,0.012602975592017174,-0.012048832140862942,0.999883770942688,0.003234975039958954,-0.003841072553768754,0.014392543584108353
661.0,0.0,0.0,0.0,0.0,0.0,0.0,0.006323148030787706,0.01440013200044632,-0.0016472513088956475,0.9998633861541748,0.0030173424165695906,-0.004498347174376249,0.01561018917709589
662.0,0.0,0.0,0.0,0.0,0.0,0.0,0.0030518474522978067,0.014977937564253807,0.00962203461676836,0.99982750415802,0.0020720199681818485,-0.005886662285774946,0.0174898449331522
663.0,0.0,0.0,0.0,0.0,0.0,0.0,0.0036073867231607437,0.00949140079319477,0.011742551811039448,0.99980628490448,0.000985894468612969,-0.007122076116502285,0.018308548256754875
664.0,0.0,0.0,0.0,0.0,0.0,0.0,0.0011677806032821536,-0.0007883288781158626,0.011067490093410015,0.9998087882995605,6.204862438607961e-05,-0.007851309143006802,0.017901360988616943
665.0,0.0,0.0,0.0,0.0,0.0,0.0,-0.0032313100527971983,-0.00845139380544424,0.015500925481319427,0.9998217821121216,-0.001026773126795888,-0.008183818310499191,0.016967974603176117
666.0,0.0,0.0,0.0,0.0,0.0,0.0,-0.007403576746582985,-0.013654479756951332,0.02819955348968506,0.9998525381088257,-0.0015987306833267212,-0.007918204180896282,0.0151574881747365
667.0,0.0,0.0,0.0,0.0,0.0,0.0,-0.013389218598604202,-0.025185564532876015,0.017675859853625298,0.9998704195022583,-0.0021764221601188183,-0.00764830969274044,0.013986648060381413
668.0,0.0,0.0,0.0,0.0,0.0,0.0,-0.014422351494431496,-0.024793365970253944,-0.0009910144144669175,0.9998878836631775,-0.001978376181796193,-0.006580504588782787,0.013307875022292137
669.0,0.0,0.0,0.0,0.0,0.0,0.0,-0.011283069849014282,-0.020714053884148598,-0.007424754090607166,0.9999082088470459,-0.0012619878398254514,-0.004850556142628193,0.01258914452046156
670.0,0.0,0.0,0.0,0.0,0.0,0.0,-0.008406780660152435,-0.01773456670343876,-0.015753358602523804,0.999920666217804,-0.0010803908808156848,-0.0029963799752295017,0.012184297665953636
671.0,0.0,0.0,0.0,0.0,0.0,0.0,-0.006859023589640856,-0.011194877326488495,-0.01788479834794998,0.9999279379844666,-0.0013199294917285442,-0.0020416050683707,0.011750335805118084
672.0,0.0,0.0,0.0,0.0,0.0,0.0,-0.005984432529658079,-0.007866904139518738,-0.024252763018012047,0.9999291300773621,-0.0015819265972822905,-0.0018144715577363968,0.011654886417090893
673.0,0.0,0.0,0.0,0.0,0.0,0.0,-0.003949236124753952,-0.008361159823834896,-0.027551887556910515,0.9999297261238098,-0.001522598322480917,-0.000917942903470248,0.011716079898178577
674.0,0.0,0.0,0.0,0.0,0.0,0.0,-0.003118407679721713,-0.005993739701807499,-0.017292575910687447,0.9999334216117859,-0.001355535234324634,2.3084763597580604e-05,0.0114583820104599
675.0,0.0,0.0,0.0,0.0,0.0,0.0,-0.0017993722576647997,-0.0016171300085261464,-0.007667907513678074,0.9999336004257202,-0.0007496485486626625,0.0007099440554156899,0.011467311531305313
676.0,0.0,0.0,0.0,0.0,0.0,0.0,0.003070079255849123,5.2222228987375274e-05,-0.005433698650449514,0.9999319911003113,6.164891237858683e-05,0.001151686068624258,0.011601501144468784
677.0,0.0,0.0,0.0,0.0,0.0,0.0,0.00840493943542242,-0.002992874477058649,-0.006978448014706373,0.9999263286590576,0.0005299704498611391,0.0009026960469782352,0.012090384028851986
678.0,0.0,0.0,0.0,0.0,0.0,0.0,0.01262430939823389,-6.015803592163138e-05,0.0022991879377514124,0.9999201893806458,0.0008719614706933498,0.00019554542086552829,0.012606377713382244
679.0,0.0,0.0,0.0,0.0,0.0,0.0,0.017155291512608528,0.007189313415437937,0.005341643001884222,0.9999158978462219,0.0016642400296404958,-0.0002475442015565932,0.012864443473517895
680.0,0.0,0.0,0.0,0.0,0.0,0.0,0.014622313901782036,0.00891165155917406,-0.002435786882415414,0.999905526638031,0.002181917428970337,-0.000527258263900876,0.013569865375757217
681.0,0.0,0.0,0.0,0.0,0.0,0.0,0.014139121398329735,0.010481584817171097,0.01815701834857464,0.9998974204063416,0.0023739258758723736,-0.0015672213630750775,0.014042512513697147
682.0,0.0,0.0,0.0,0.0,0.0,0.0,0.016736168414354324,0.011468282900750637,0.003577753435820341,0.9998943209648132,0.0025880432222038507,-0.0029550071340054274,0.013999554328620434
683.0,0.0,0.0,0.0,0.0,0.0,0.0,0.01771269179880619,0.0033500841818749905,-0.004427226725965738,0.9998971819877625,0.0024925642646849155,-0.004342974163591862,0.01344310026615858
684.0,0.0,0.0,0.0,0.0,0.0,0.0,0.010438447818160057,0.0009127176599577069,0.027551939710974693,0.9999017119407654,0.002541785594075918,-0.005337723530828953,0.0127065759152174
685.0,0.0,0.0,0.0,0.0,0.0,0.0,0.005660240072757006,0.001575062284246087,0.037356626242399216,0.999897837638855,0.0031526247039437294,-0.005677018780261278,0.012732487171888351
686.0,0.0,0.0,0.0,0.0,0.0,0.0,0.0056872982531785965,0.0036538892891258,0.03596615791320801,0.999896228313446,0.0036596832796931267,-0.005170141812413931,0.012926592491567135
687.0,0.0,0.0,0.0,0.0,0.0,0.0,0.008042853325605392,0.004463007673621178,0.021926194429397583,0.999895453453064,0.004429554101079702,-0.004177513998001814,0.0131097212433815
688.0,0.0,0.0,0.0,0.0,0.0,0.0,0.009530670940876007,0.005949392914772034,-0.0117212338373065,0.999893307685852,0.005272471811622381,-0.0030851345509290695,0.013268930837512016
689.0,0.0,0.0,0.0,0.0,0.0,0.0,0.007699744310230017,0.00802569929510355,-0.020205508917570114,0.9998852014541626,0.005743499379605055,-0.0029706989880651236,0.01369321346282959
690.0,0.0,0.0,0.0,0.0,0.0,0.0,0.006633502896875143,0.006838276982307434,-0.014442119747400284,0.9998728036880493,0.006852395832538605,-0.0036692654248327017,0.013920139521360397
691.0,0.0,0.0,0.0,0.0,0.0,0.0,0.0007312706438824534,-0.023306163027882576,-0.027954578399658203,0.9998857975006104,0.006972343195229769,-0.003460556035861373,0.01295375544577837
692.0,0.0,0.0,0.0,0.0,0.0,0.0,-0.002600231906399131,-0.006607444491237402,0.0017498093657195568,0.9998810291290283,0.009507461450994015,-0.0037018691655248404,0.011576798744499683
693.0,0.0,0.0,0.0,0.0,0.0,0.0,-0.006052141077816486,-0.02066168375313282,0.014122091233730316,0.9998868703842163,0.009884427301585674,-0.0032398856710642576,0.010864020325243473
694.0,0.0,0.0,0.0,0.0,0.0,0.0,-0.004088956862688065,-0.029459604993462563,0.016091343015432358,0.9999017119407654,0.009061232209205627,-0.0020817832555621862,0.01049091201275587
695.0,0.0,0.0,0.0,0.0,0.0,0.0,-0.0023234994150698185,-0.01543864980340004,-0.005386036355048418,0.9999123215675354,0.00826600007712841,-0.0007226871093735099,0.010316138155758381
696.0,0.0,0.0,0.0,0.0,0.0,0.0,0.000366733584087342,-0.01368523109704256,-0.011728965677320957,0.9999186396598816,0.008126573637127876,0.00010120017395820469,0.00984163023531437
697.0,0.0,0.0,0.0,0.0,0.0,0.0,0.004407563712447882,-0.016344914212822914,-0.022185716778039932,0.9999262690544128,0.007699671201407909,0.0007212006603367627,0.009352757595479488
698.0,0.0,0.0,0.0,0.0,0.0,0.0,0.0032069366425275803,-0.010672393254935741,-0.018783876672387123,0.999933123588562,0.007038160227239132,0.0005356539040803909,0.00914941169321537
699.0,0.0,0.0,0.0,0.0,0.0,0.0,-0.0014717117883265018,-0.01270250789821148,-0.00655346130952239,0.9999421238899231,0.0062436009757220745,0.00036184050259180367,0.008758440613746643
700.0,0.0,0.0,0.0,0.0,0.0,0.0,-0.0010561569361016154,-0.0149802565574646,-0.012733726762235165,0.9999512434005737,0.0054344781674444675,0.0004970002337358892,0.008220196701586246
701.0,0.0,0.0,0.0,0.0,0.0,0.0,-0.0012673905584961176,-0.013271015137434006,0.0004751265514642,0.9999589920043945,0.004611964337527752,0.00010292228398611769,0.007798476610332727
702.0,0.0,0.0,0.0,0.0,0.0,0.0,-0.0006512215477414429,-0.007165471091866493,0.010387778282165527,0.9999573826789856,0.004083412233740091,-0.0005785376415587962,0.00826773326843977
703.0,0.0,0.0,0.0,0.0,0.0,0.0,0.0016689765034243464,-0.00196159933693707,0.025287827476859093,0.9999496340751648,0.004089915193617344,-0.0009361377451568842,0.009101705625653267
704.0,0.0,0.0,0.0,0.0,0.0,0.0,0.00043485144851729274,0.0017535750521346927,0.025015084072947502,0.9999414682388306,0.003912295680493116,-0.0008505405276082456,0.010044333525002003
705.0,0.0,0.0,0.0,0.0,0.0,0.0,0.001283786608837545,0.006008754950016737,0.0270710252225399,0.9999323487281799,0.0037967402022331953,-0.0006495799752883613,0.010966528207063675
706.0,0.0,0.0,0.0,0.0,0.0,0.0,0.007460156921297312,0.00403676787391305,0.01134522259235382,0.999924898147583,0.0033952463418245316,-0.0007762963650748134,0.011737280525267124
707.0,0.0,0.0,0.0,0.0,0.0,0.0,0.010490136221051216,-0.0011701600160449743,-0.01814342848956585,0.9999176263809204,0.0028347757179290056,-0.001259330310858786,0.012448866851627827
708.0,0.0,0.0,0.0,0.0,0.0,0.0,0.006979797035455704,-0.005961803253740072,0.003539016004651785,0.9999096989631653,0.0022444589994847775,-0.0016470634145662189,0.013146967627108097
709.0,0.0,0.0,0.0,0.0,0.0,0.0,0.006129860877990723,-0.00754022691398859,0.002347632311284542,0.9999072551727295,0.0015459819696843624,-0.0025055205915123224,0.013293534517288208
710.0,0.0,0.0,0.0,0.0,0.0,0.0,0.0042387936264276505,-0.012340953573584557,-0.004356075078248978,0.9999046325683594,0.0005329113337211311,-0.003377016866579652,0.013368088752031326
711.0,0.0,0.0,0.0,0.0,0.0,0.0,0.0026595271192491055,-0.013516108505427837,0.008591100573539734,0.9999075531959534,-0.00021256081527099013,-0.004248438868671656,0.012911799363791943
712.0,0.0,0.0,0.0,0.0,0.0,0.0,-0.0007722864393144846,-0.016793042421340942,0.0165767390280962,0.9999282956123352,-0.0008395733893848956,-0.00452457694336772,0.011051071807742119
713.0,0.0,0.0,0.0,0.0,0.0,0.0,-0.006359376013278961,-0.01494717225432396,0.03764980658888817,0.9999352097511292,-0.0005453507765196264,-0.004894611891359091,0.010266260243952274
714.0,0.0,0.0,0.0,0.0,0.0,0.0,-0.006001647096127272,-0.013456610031425953,0.03465895354747772,0.9999372959136963,0.0005413588951341808,-0.005017191171646118,0.009988664649426937
715.0,0.0,0.0,0.0,0.0,0.0,0.0,0.002758470829576254,-0.007234384771436453,0.04014017805457115,0.9999457597732544,0.002382727339863777,-0.0046356432139873505,0.009014502167701721
716.0,0.0,0.0,0.0,0.0,0.0,0.0,0.009096316061913967,-0.007295585237443447,-0.014144603163003922,0.9999464154243469,0.004244678188115358,-0.0041694943793118,0.008459722623229027
717.0,0.0,0.0,0.0,0.0,0.0,0.0,0.011026705615222454,-0.006947650574147701,-0.012083887122571468,0.9999376535415649,0.00647612614557147,-0.003511965973302722,0.008379535749554634
718.0,0.0,0.0,0.0,0.0,0.0,0.0,0.014667965471744537,0.00035499935620464385,-0.001058648806065321,0.9999189972877502,0.008701602928340435,-0.0020210114307701588,0.009062114171683788
719.0,0.0,0.0,0.0,0.0,0.0,0.0,0.01471715047955513,-0.0025350379291921854,-0.02972540445625782,0.9998956322669983,0.010459978133440018,-0.0005985439638607204,0.009934362024068832
720.0,0.0,0.0,0.0,0.0,0.0,0.0,0.013491819612681866,-0.0021589987445622683,-0.039264969527721405,0.9998742938041687,0.011480990797281265,-0.00022438967425841838,0.010920216329395771
721.0,0.0,0.0,0.0,0.0,0.0,0.0,0.012364749796688557,-0.0036337957717478275,-0.03672222048044205,0.9998615384101868,0.011805476620793343,0.0004371457325760275,0.011719104833900928
722.0,0.0,0.0,0.0,0.0,0.0,0.0,0.009361385367810726,-0.0011920586694031954,-0.033098045736551285,0.9998520612716675,0.01168808899819851,0.0010965940309688449,0.012567246332764626
723.0,0.0,0.0,0.0,0.0,0.0,0.0,0.006022184621542692,0.003051535924896598,-0.018109312281012535,0.999839186668396,0.011276297271251678,0.000678494106978178,0.01391859445720911
724.0,0.0,0.0,0.0,0.0,0.0,0.0,0.001804984756745398,0.0006956816068850458,-0.006678448989987373,0.999825656414032,0.010494917631149292,0.0002138132113032043,0.015434905886650085
725.0,0.0,0.0,0.0,0.0,0.0,0.0,0.0002796866756398231,-0.002659143414348364,-0.0033253380097448826,0.9998248815536499,0.009567665867507458,0.00011199852451682091,0.016080142930150032
726.0,0.0,0.0,0.0,0.0,0.0,0.0,-0.0033109646756201982,-0.009096703492105007,-0.0002624483313411474,0.999839186668396,0.008317106403410435,-0.0002307750837644562,0.015888096764683723
727.0,0.0,0.0,0.0,0.0,0.0,0.0,-0.006196513306349516,-0.009217256680130959,0.01536546740680933,0.9998566508293152,0.007028511725366116,-0.0003419909917283803,0.015398822724819183
728.0,0.0,0.0,0.0,0.0,0.0,0.0,-0.008318877778947353,-0.009532172232866287,0.018012866377830505,0.999871015548706,0.006361460313200951,-0.00034559855703264475,0.014747983776032925
729.0,0.0,0.0,0.0,0.0,0.0,0.0,-0.005591970402747393,-0.009629976935684681,0.008535276167094707,0.9998834133148193,0.005658059846609831,-0.00013644478167407215,0.014175248332321644
730.0,0.0,0.0,0.0,0.0,0.0,0.0,-0.0037703481502830982,-0.012177517637610435,0.007086186669766903,0.9998928904533386,0.005178546067327261,-0.00023095551296137273,0.013683921657502651
731.0,0.0,0.0,0.0,0.0,0.0,0.0,-0.004795047454535961,-0.009812006726861,0.009015759453177452,0.9998988509178162,0.005238001700490713,-0.0005865558632649481,0.013208228163421154
732.0,0.0,0.0,0.0,0.0,0.0,0.0,-0.003734628204256296,-0.008646443486213684,0.0005173893296159804,0.9999105334281921,0.005381986033171415,-1.8675866613193648e-06,0.012238102033734322
733.0,0.0,0.0,0.0,0.0,0.0,0.0,-0.0009627021499909461,-0.006393600255250931,0.0020024587865918875,0.9999121427536011,0.005798649042844772,0.0007646080921404064,0.011896607466042042
734.0,0.0,0.0,0.0,0.0,0.0,0.0,0.001650705118663609,-0.004161500371992588,-0.0015308576403185725,0.9998993873596191,0.006333092227578163,0.0010518906638026237,0.012638166546821594
735.0,0.0,0.0,0.0,0.0,0.0,0.0,0.004922786727547646,-0.00285445642657578,-0.001801261561922729,0.9998900890350342,0.006838252767920494,0.0013473903527483344,0.01307996641844511
736.0,0.0,0.0,0.0,0.0,0.0,0.0,0.008134272880852222,0.0010663438588380814,-0.013689447194337845,0.9998822212219238,0.007286719046533108,0.0014406343689188361,0.01342986710369587
737.0,0.0,0.0,0.0,0.0,0.0,0.0,0.008861575275659561,0.0023369374684989452,-0.010093099437654018,0.9998673796653748,0.007526405155658722,0.0010811950778588653,0.014396920800209045
738.0,0.0,0.0,0.0,0.0,0.0,0.0,0.008620744571089745,0.006201399024575949,-0.0006886259652674198,0.9998497366905212,0.008048417046666145,0.000872735574375838,0.0153147391974926
739.0,0.0,0.0,0.0,0.0,0.0,0.0,0.010443323291838169,0.004211535211652517,-0.0024262783117592335,0.999839723110199,0.008362877182662487,0.0003110347024630755,0.01582106202840805
740.0,0.0,0.0,0.0,0.0,0.0,0.0,0.00953900907188654,0.0025836355052888393,-0.006148653104901314,0.9998301267623901,0.008103208616375923,-0.000474357046186924,0.016538728028535843
741.0,0.0,0.0,0.0,0.0,0.0,0.0,0.0080187376588583,-1.2062985661032144e-05,-0.0023035688791424036,0.9998217225074768,0.007753645069897175,-0.0012985770590603352,0.017168786376714706
742.0,0.0,0.0,0.0,0.0,0.0,0.0,0.006577100604772568,-0.003112280508503318,0.00819024071097374,0.9998261332511902,0.007252087350934744,-0.0018977243453264236,0.017072010785341263
743.0,0.0,0.0,0.0,0.0,0.0,0.0,0.0053685856983065605,-0.0052656326442956924,0.009868704713881016,0.9998360276222229,0.0066925520077347755,-0.0023509899619966745,0.016659492626786232
744.0,0.0,0.0,0.0,0.0,0.0,0.0,0.0016366069903597236,-0.012374654412269592,0.006213282234966755,0.9998441338539124,0.0062264082953333855,-0.0027437431272119284,0.016292540356516838
745.0,0.0,0.0,0.0,0.0,0.0,0.0,0.0006070425733923912,-0.012203783728182316,0.012563828378915787,0.9998515844345093,0.005847503896802664,-0.0030432662460952997,0.015918495133519173
746.0,0.0,0.0,0.0,0.0,0.0,0.0,-0.0008299400215037167,-0.007717279717326164,0.01343722827732563,0.9998474717140198,0.005852732807397842,-0.0033007380552589893,0.016116132959723473
747.0,0.0,0.0,0.0,0.0,0.0,0.0,-0.0011854066979140043,-0.010426120832562447,0.015487158671021461,0.9998421669006348,0.006333975121378899,-0.003035782603546977,0.01632007397711277
748.0,0.0,0.0,0.0,0.0,0.0,0.0,-0.002237532986328006,-0.007175892125815153,-0.003898272756487131,0.9998438954353333,0.006440720520913601,-0.002274389611557126,0.01629559136927128
749.0,0.0,0.0,0.0,0.0,0.0,0.0,-0.005176474805921316,-0.00871021393686533,-0.007894261740148067,0.999840259552002,0.006518845446407795,-0.001450815936550498,0.01657477580010891
750.0,0.0,0.0,0.0,0.0,0.0,0.0,-0.0034072091802954674,-0.006944565102458,-0.016053490340709686,0.9998282194137573,0.0062784901820123196,-0.0007215390796773136,0.01741669327020645
751.0,0.0,0.0,0.0,0.0,0.0,0.0,-0.0010419146856293082,-0.0006375621305778623,-0.02080538310110569,0.9998118281364441,0.006033477373421192,-0.0003391792706679553,0.018430205062031746
752.0,0.0,0.0,0.0,0.0,0.0,0.0,-0.00045148213393986225,0.00021112446847837418,-0.013808810152113438,0.9998008012771606,0.00580455781891942,0.0002403225953457877,0.01909150369465351
753.0,0.0,0.0,0.0,0.0,0.0,0.0,-0.0012310412712395191,0.0034727377351373434,-0.012323860079050064,0.999787449836731,0.005302057135850191,0.00031268931343220174,0.0199214406311512
754.0,0.0,0.0,0.0,0.0,0.0,0.0,-0.0015195439336821437,0.004764909390360117,-0.002249623415991664,0.999783456325531,0.00489106634631753,0.0005046979058533907,0.02022499032318592
