,Position_X,Position_Y,Position_Z,Velocity_X,Velocity_Y,Velocity_Z,Acceleration_X,Acceleration_Y,Acceleration_Z,Quaterion_0,Quaterion_1,Quaterion_2,Quaterion_3
90.0,0.0,0.0,0.0,0.0,0.0,0.0,-0.007038228213787079,0.009106822311878204,-0.0003603190998546779,1.0,1.3877787807814457e-17,1.925929944387236e-34,-2.7755575615628914e-17
91.0,0.0,0.0,0.0,0.0,0.0,0.0,-0.006394862197339535,0.00791601650416851,0.0011539880651980639,0.9999992847442627,0.00031892990227788687,0.001094440813176334,0.0003679122601170093
92.0,0.0,0.0,0.0,0.0,0.0,0.0,-0.002304115565493703,0.008591225370764732,-0.0055906870402395725,0.9999983906745911,0.000692905334290117,0.0015655518509447575,0.00056195113575086
93.0,0.0,0.0,0.0,0.0,0.0,0.0,0.0012573418207466602,0.005048085004091263,-0.010270786471664906,0.9999976754188538,0.001445588655769825,0.0011968892067670822,0.0010463956277817488
94.0,0.0,0.0,0.0,0.0,0.0,0.0,0.017429322004318237,-0.012582065537571907,-0.040107373148202896,0.9999983310699463,0.0012908014468848705,-2.8553218726301566e-05,0.0012832852080464363
95.0,0.0,0.0,0.0,0.0,0.0,0.0,0.008645586669445038,-0.0027164523489773273,-0.006127257831394672,0.9999973177909851,0.0007331231026910245,-0.0016839603194966912,0.0013946995604783297
96.0,0.0,0.0,0.0,0.0,0.0,0.0,-0.005148398224264383,0.015715470537543297,0.005531872622668743,0.9999877214431763,0.0011213659308850765,-0.0044152988120913506,0.0019410083768889308
97.0,0.0,0.0,0.0,0.0,0.0,0.0,-0.0121656758710742,-0.007033380679786205,0.05284985154867172,0.9999745488166809,0.0011910590110346675,-0.00652054138481617,0.002633199794217944
98.0,0.0,0.0,0.0,0.0,0.0,0.0,-0.012737130746245384,0.0004756773996632546,0.010885428637266159,0.9999650120735168,0.0009725710842758417,-0.00764338206499815,0.0032644406892359257
99.0,0.0,0.0,0.0,0.0,0.0,0.0,-0.013908316381275654,0.0004863433714490384,0.0059014116413891315,0.9999503493309021,0.0009052471141330898,-0.00879202876240015,0.004602219443768263
100.0,0.0,0.0,0.0,0.0,0.0,0.0,-0.014749381691217422,-0.000915814540348947,0.010697995312511921,0.9999371767044067,0.0007769633084535599,-0.00962486956268549,0.005694686900824308
101.0,0.0,0.0,0.0,0.0,0.0,0.0,-0.012844267301261425,0.00930390041321516,0.0023972736671566963,0.9999389052391052,0.0005075901281088591,-0.009479807689785957,0.005664072465151548
102.0,0.0,0.0,0.0,0.0,0.0,0.0,-0.01590823009610176,0.01736847311258316,0.004977921023964882,0.999939501285553,0.0005057909875176847,-0.009259795770049095,0.005914682522416115
103.0,0.0,0.0,0.0,0.0,0.0,0.0,-0.015212388709187508,0.01575087383389473,0.0096650505438447,0.999950647354126,0.0003733705380000174,-0.008163748309016228,0.005650986451655626
104.0,0.0,0.0,0.0,0.0,0.0,0.0,-0.013187299482524395,0.019201774150133133,-0.005938893649727106,0.9999579191207886,0.00036979198921471834,-0.007266192696988583,0.005583290010690689
105.0,0.0,0.0,0.0,0.0,0.0,0.0,-0.012666858732700348,0.019022328779101372,-0.007286624517291784,0.9999596476554871,0.0008712711278349161,-0.006764966994524002,0.0058500333689153194
106.0,0.0,0.0,0.0,0.0,0.0,0.0,-0.010182998143136501,0.020883427932858467,-0.0067180125042796135,0.9999671578407288,0.0009474955149926245,-0.005668533034622669,0.005711488891392946
107.0,0.0,0.0,0.0,0.0,0.0,0.0,-0.010117272846400738,0.022403772920370102,-0.009560743346810341,0.9999728202819824,0.0011741123162209988,-0.004713110625743866,0.00554940989241004
108.0,0.0,0.0,0.0,0.0,0.0,0.0,-0.009501081891357899,0.020937930792570114,-0.00765868229791522,0.9999685883522034,0.0018245314713567495,-0.00475339638069272,0.0060759237967431545
109.0,0.0,0.0,0.0,0.0,0.0,0.0,-0.008985702879726887,0.02141278237104416,-0.005916194524616003,0.9999667406082153,0.002163567114621401,-0.004535779356956482,0.006420510821044445
110.0,0.0,0.0,0.0,0.0,0.0,0.0,-0.008535967208445072,0.02047250233590603,-0.005968987476080656,0.9999585747718811,0.0026895843911916018,-0.00460147624835372,0.007382361218333244
111.0,0.0,0.0,0.0,0.0,0.0,0.0,-0.00990208238363266,0.020522605627775192,-0.0032540387474000454,0.9999399185180664,0.003309652442112565,-0.005398288834840059,0.008947539143264294
112.0,0.0,0.0,0.0,0.0,0.0,0.0,-0.011160026304423809,0.019458258524537086,-0.002754451707005501,0.9999245405197144,0.003777705132961273,-0.005750688258558512,0.010178176686167717
113.0,0.0,0.0,0.0,0.0,0.0,0.0,-0.0114893214777112,0.019632020965218544,0.00070109375519678,0.9999139904975891,0.0040465774945914745,-0.005893817637115717,0.010992350056767464
114.0,0.0,0.0,0.0,0.0,0.0,0.0,-0.011504042893648148,0.019559048116207123,0.0027183606289327145,0.9999091625213623,0.00389825738966465,-0.006015232764184475,0.011412517167627811
115.0,0.0,0.0,0.0,0.0,0.0,0.0,-0.010703105479478836,0.01852024905383587,0.0020594196394085884,0.9999039173126221,0.003696450963616371,-0.0060530658811330795,0.011909538879990578
116.0,0.0,0.0,0.0,0.0,0.0,0.0,-0.011379650793969631,0.018114382401108742,0.002648419002071023,0.9999048709869385,0.003581724828109145,-0.005726879462599754,0.012026017531752586
117.0,0.0,0.0,0.0,0.0,0.0,0.0,-0.010179383680224419,0.018691319972276688,0.0022077620960772038,0.999915599822998,0.0033253501169383526,-0.004713128320872784,0.011643048375844955
118.0,0.0,0.0,0.0,0.0,0.0,0.0,-0.01051629614084959,0.01506231538951397,0.001999878091737628,0.9999209642410278,0.004229409154504538,-0.003254733281210065,0.011382094584405422
119.0,0.0,0.0,0.0,0.0,0.0,0.0,-0.010932625271379948,0.010669345036149025,0.001287678605876863,0.9999129176139832,0.004934518598020077,-0.002370787551626563,0.012005115859210491
120.0,0.0,0.0,0.0,0.0,0.0,0.0,-0.008446029387414455,0.009198566898703575,-0.001807051827199757,0.9999162554740906,0.005176888778805733,-0.001031157560646534,0.0118184769526124
121.0,0.0,0.0,0.0,0.0,0.0,0.0,-0.0029222145676612854,0.0037610107101500034,-0.01331435889005661,0.999898374080658,0.0059243920259177685,-0.0014146261382848024,0.012891900725662708
122.0,0.0,0.0,0.0,0.0,0.0,0.0,0.012869260273873806,-0.02018541283905506,-0.05139234662055969,0.9998918771743774,0.006495499983429909,-0.003022711491212249,0.012842522002756596
123.0,0.0,0.0,0.0,0.0,0.0,0.0,0.002123514423146844,-0.015772052109241486,-0.011932059191167355,0.9998971223831177,0.006048446986824274,-0.003891749307513237,0.012408839538693428
124.0,0.0,0.0,0.0,0.0,0.0,0.0,-0.010727590881288052,0.011716647073626518,-0.004435211420059204,0.9999102354049683,0.0058175139129161835,-0.004182884469628334,0.01132215652614832
125.0,0.0,0.0,0.0,0.0,0.0,0.0,-0.016335634514689445,-0.01463808212429285,0.06397256255149841,0.9999080300331116,0.005566836334764957,-0.005204407032579184,0.011219245381653309
126.0,0.0,0.0,0.0,0.0,0.0,0.0,-0.009836429730057716,-0.007373544853180647,-0.003853918518871069,0.9998818039894104,0.006040051579475403,-0.006862583104521036,0.012363268993794918
127.0,0.0,0.0,0.0,0.0,0.0,0.0,-0.010417125187814236,-1.3413755368674174e-05,-0.005974088329821825,0.9998700022697449,0.005572405643761158,-0.007535475306212902,0.013119947165250778
128.0,0.0,0.0,0.0,0.0,0.0,0.0,-0.01172125805169344,0.0026681465096771717,0.0051015447825193405,0.9998573064804077,0.00477566197514534,-0.008344707079231739,0.013890352100133896
129.0,0.0,0.0,0.0,0.0,0.0,0.0,-0.016065198928117752,0.007523486390709877,0.009091108106076717,0.9998539686203003,0.004141359124332666,-0.008933890610933304,0.013964476995170116
130.0,0.0,0.0,0.0,0.0,0.0,0.0,-0.015384404920041561,0.009425926953554153,0.012164243496954441,0.9998700022697449,0.0027891439385712147,-0.008174529299139977,0.013616652227938175
131.0,0.0,0.0,0.0,0.0,0.0,0.0,-0.019012466073036194,0.019061759114265442,0.0069045997224748135,0.9998645186424255,0.002645844593644142,-0.008195089176297188,0.014026738703250885
132.0,0.0,0.0,0.0,0.0,0.0,0.0,-0.017990056425333023,0.01713959127664566,0.0045074475929141045,0.9998635649681091,0.002755828434601426,-0.0077437530271708965,0.014329439960420132
133.0,0.0,0.0,0.0,0.0,0.0,0.0,-0.01660432294011116,0.018755216151475906,0.0021330611780285835,0.9998672604560852,0.0025023948401212692,-0.006795665714889765,0.014593668282032013
134.0,0.0,0.0,0.0,0.0,0.0,0.0,-0.015936773270368576,0.021874163299798965,-0.004737272392958403,0.9998565912246704,0.002866292605176568,-0.006702687591314316,0.015284691005945206
135.0,0.0,0.0,0.0,0.0,0.0,0.0,-0.016131676733493805,0.020695654675364494,-0.006124488543719053,0.9998164176940918,0.003691775258630514,-0.007087117526680231,0.01741398684680462
136.0,0.0,0.0,0.0,0.0,0.0,0.0,-0.0183626227080822,0.01941821351647377,-0.006825396791100502,0.9997888207435608,0.004142090678215027,-0.007447527721524239,0.018700486049056053
137.0,0.0,0.0,0.0,0.0,0.0,0.0,-0.018998881801962852,0.018783709034323692,-0.007392034865915775,0.9997721314430237,0.005024531856179237,-0.008053026162087917,0.01911884732544422
138.0,0.0,0.0,0.0,0.0,0.0,0.0,-0.020925462245941162,0.014550144784152508,-0.008982096798717976,0.9997519254684448,0.005225158296525478,-0.007955293171107769,0.02013702318072319
139.0,0.0,0.0,0.0,0.0,0.0,0.0,-0.017705608159303665,0.02548981085419655,-0.005875375121831894,0.9997413754463196,0.005401177331805229,-0.007830405607819557,0.020657086744904518
140.0,0.0,0.0,0.0,0.0,0.0,0.0,-0.019545383751392365,0.01936916634440422,-0.0005577231640927494,0.9997262954711914,0.005829901434481144,-0.008770721964538097,0.020890438929200172
141.0,0.0,0.0,0.0,0.0,0.0,0.0,-0.02147076092660427,0.013714666478335857,0.0010320305591449142,0.9997138381004333,0.006136754062026739,-0.009324438869953156,0.021157575771212578
142.0,0.0,0.0,0.0,0.0,0.0,0.0,-0.021789269521832466,0.01810590922832489,0.003032197244465351,0.9997097253799438,0.006241159047931433,-0.009272818453609943,0.02134270779788494
143.0,0.0,0.0,0.0,0.0,0.0,0.0,-0.020478330552577972,0.014840050600469112,0.005126424599438906,0.9996932744979858,0.006557351443916559,-0.009372234344482422,0.02196829579770565
144.0,0.0,0.0,0.0,0.0,0.0,0.0,-0.0191199854016304,0.012739535421133041,0.006406127940863371,0.9996941089630127,0.006571496836841106,-0.008965959772467613,0.022093523293733597
145.0,0.0,0.0,0.0,0.0,0.0,0.0,-0.01683352142572403,0.01254807598888874,0.0053924499079585075,0.9997390508651733,0.0068137976340949535,-0.006195481400936842,0.020904917269945145
146.0,0.0,0.0,0.0,0.0,0.0,0.0,-0.014351666904985905,0.009964524768292904,0.0034151498693972826,0.9997659921646118,0.006767400540411472,-0.0030637653544545174,0.020315906032919884
147.0,0.0,0.0,0.0,0.0,0.0,0.0,-0.008275508880615234,0.005902381148189306,-0.002920278813689947,0.9997963309288025,0.0067786709405481815,-0.0005968553014099598,0.019001830369234085
148.0,0.0,0.0,0.0,0.0,0.0,0.0,-0.004369207192212343,0.005440599750727415,-0.011503643356263638,0.9997784495353699,0.007343057543039322,0.0009869802743196487,0.019701490178704262
149.0,0.0,0.0,0.0,0.0,0.0,0.0,0.0190749429166317,-0.01878409832715988,-0.0442424938082695,0.9997510313987732,0.007508213631808758,0.0009961233008652925,0.02098832279443741
150.0,0.0,0.0,0.0,0.0,0.0,0.0,0.026795951649546623,-0.011237148195505142,-0.04925224184989929,0.9997589588165283,0.007184178102761507,7.60885450290516e-05,0.020744750276207924
151.0,0.0,0.0,0.0,0.0,0.0,0.0,-0.0017834894824773073,0.031569141894578934,-0.01427757740020752,0.9997830986976624,0.0076174307614564896,-0.00025313111837022007,0.019380582496523857
152.0,0.0,0.0,0.0,0.0,0.0,0.0,0.0007555983611382544,-0.012676462531089783,0.0450243316590786,0.9997895956039429,0.007157441228628159,-0.001536757918074727,0.019161280244588852
153.0,0.0,0.0,0.0,0.0,0.0,0.0,-0.010035055689513683,0.007617645896971226,0.01748533919453621,0.9997791051864624,0.007187739014625549,-0.0032064728438854218,0.01948876492679119
154.0,0.0,0.0,0.0,0.0,0.0,0.0,-0.016186321154236794,0.00027370612951926887,0.0041672466322779655,0.9997881054878235,0.007124640978872776,-0.004776536021381617,0.018714284524321556
155.0,0.0,0.0,0.0,0.0,0.0,0.0,-0.00503442483022809,-0.013650580309331417,0.012695522978901863,0.9997767210006714,0.006582426838576794,-0.006074891425669193,0.01913733221590519
156.0,0.0,0.0,0.0,0.0,0.0,0.0,-0.008278634399175644,0.002272308338433504,0.002650959650054574,0.9997705221176147,0.005993157159537077,-0.006847746204584837,0.019393542781472206
157.0,0.0,0.0,0.0,0.0,0.0,0.0,-0.012949593365192413,-0.0009302287944592535,0.013066594488918781,0.9997849464416504,0.005056893453001976,-0.007032117806375027,0.01884322427213192
158.0,0.0,0.0,0.0,0.0,0.0,0.0,-0.019917968660593033,0.003980924375355244,0.023964708670973778,0.9997630715370178,0.0047594765201210976,-0.007690878584980965,0.01979556307196617
159.0,0.0,0.0,0.0,0.0,0.0,0.0,-0.020359430462121964,0.0019825913477689028,0.014130030758678913,0.9997590184211731,0.004550782963633537,-0.007528305519372225,0.020112095400691032
160.0,0.0,0.0,0.0,0.0,0.0,0.0,-0.01857632026076317,0.0042778789065778255,0.011740541085600853,0.9997957944869995,0.0036051964852958918,-0.005437344778329134,0.019126921892166138
161.0,0.0,0.0,0.0,0.0,0.0,0.0,-0.014412558637559414,0.007499379571527243,0.008600582368671894,0.9998094439506531,0.0030447652097791433,-0.0035077794454991817,0.018959246575832367
162.0,0.0,0.0,0.0,0.0,0.0,0.0,-0.009028244763612747,0.008533895947039127,-0.0029626970645040274,0.9998093247413635,0.0029119295068085194,-0.002068321453407407,0.01919763721525669
163.0,0.0,0.0,0.0,0.0,0.0,0.0,-0.00710087176412344,0.009340272285044193,-0.012821577489376068,0.9997958540916443,0.0032809185795485973,-0.0010687747271731496,0.01990903727710247
164.0,0.0,0.0,0.0,0.0,0.0,0.0,-0.0053719026036560535,0.011572514660656452,-0.02077917568385601,0.9997798800468445,0.003460196778178215,0.0002440187963657081,0.02068953774869442
165.0,0.0,0.0,0.0,0.0,0.0,0.0,-0.007234128192067146,0.018698588013648987,-0.012174262665212154,0.9997584223747253,0.0037997434847056866,0.0018717502243816853,0.021567268297076225
166.0,0.0,0.0,0.0,0.0,0.0,0.0,-0.008380814455449581,0.025665124878287315,0.0006104750791564584,0.999707818031311,0.0043670679442584515,0.003349094185978174,0.023536359891295433
167.0,0.0,0.0,0.0,0.0,0.0,0.0,-0.005512766074389219,0.027135398238897324,-0.004709784407168627,0.9996349811553955,0.0052744424901902676,0.004083947278559208,0.02618004009127617
168.0,0.0,0.0,0.0,0.0,0.0,0.0,-0.001650315709412098,0.028174368664622307,-0.019964542239904404,0.9995815753936768,0.005709005985409021,0.00496247923001647,0.02791784517467022
169.0,0.0,0.0,0.0,0.0,0.0,0.0,0.0007349168881773949,0.029415078461170197,-0.02423027902841568,0.9995399713516235,0.006130800116807222,0.005068136844784021,0.029267536476254463
170.0,0.0,0.0,0.0,0.0,0.0,0.0,-0.0017420382937416434,0.02077474631369114,-0.012457121163606644,0.9994972348213196,0.0068107242695987225,0.004077936057001352,0.0306965634226799
171.0,0.0,0.0,0.0,0.0,0.0,0.0,-0.002324348548427224,0.018409863114356995,-0.0033094848040491343,0.9994764924049377,0.007096945308148861,0.003653723979368806,0.03135322406888008
172.0,0.0,0.0,0.0,0.0,0.0,0.0,-0.00407587643712759,0.01730176992714405,0.0048790182918310165,0.9994619488716125,0.007371831685304642,0.003036103444173932,0.031815964728593826
173.0,0.0,0.0,0.0,0.0,0.0,0.0,-0.008097872138023376,0.017265796661376953,0.009193380363285542,0.9994498491287231,0.007150053046643734,0.0027797387447208166,0.032264381647109985
174.0,0.0,0.0,0.0,0.0,0.0,0.0,-0.00685889832675457,0.01934259943664074,0.00920169148594141,0.9994428753852844,0.006923648063093424,0.002846034010872245,0.03252631798386574
175.0,0.0,0.0,0.0,0.0,0.0,0.0,-0.006076239515095949,0.012137748301029205,-0.0013768189819529653,0.9993847012519836,0.007837317883968353,0.00164687295909971,0.03414711728692055
176.0,0.0,0.0,0.0,0.0,0.0,0.0,-0.007824652828276157,0.0049860854633152485,-0.002952971262857318,0.9993438720703125,0.008516550995409489,0.00041574955685064197,0.03519982099533081
177.0,0.0,0.0,0.0,0.0,0.0,0.0,-0.010761789977550507,0.0029881740920245647,-0.0014944636495783925,0.9993500709533691,0.008495122194290161,-0.00022203099797479808,0.035029564052820206
178.0,0.0,0.0,0.0,0.0,0.0,0.0,-0.012654712423682213,1.1464509952929802e-05,0.0013315478572621942,0.9993509650230408,0.008294187486171722,-0.0009243612876161933,0.03504032641649246
179.0,0.0,0.0,0.0,0.0,0.0,0.0,-0.013102751225233078,-0.0024994439445436,0.004859042353928089,0.9993729591369629,0.007759558502584696,-0.0012597483582794666,0.03452388197183609
180.0,0.0,0.0,0.0,0.0,0.0,0.0,-0.012005999684333801,-0.003777202684432268,0.006002461072057486,0.9994087815284729,0.007219911087304354,-0.0018655506428331137,0.03356412798166275
181.0,0.0,0.0,0.0,0.0,0.0,0.0,-0.01187934447079897,-0.0070984517224133015,0.0035403622314333916,0.9994556307792664,0.006194514222443104,-0.0024573849514126778,0.03231075778603554
182.0,0.0,0.0,0.0,0.0,0.0,0.0,-0.009549186564981937,-0.00749934883788228,-0.0027923027519136667,0.9995130896568298,0.005217358004301786,-0.0028966120444238186,0.030627960339188576
183.0,0.0,0.0,0.0,0.0,0.0,0.0,-0.014550521038472652,-0.0025890381075441837,0.0029968691524118185,0.9995344281196594,0.004685616120696068,-0.003587741870433092,0.029932886362075806
184.0,0.0,0.0,0.0,0.0,0.0,0.0,-0.01949048601090908,-0.000784783624112606,0.012473401613533497,0.9995447397232056,0.004258891101926565,-0.004337416496127844,0.029554639011621475
185.0,0.0,0.0,0.0,0.0,0.0,0.0,-0.019460108131170273,0.00015224456728901714,0.016017572954297066,0.9995492100715637,0.0035748048685491085,-0.004420959856361151,0.029480161145329475
186.0,0.0,0.0,0.0,0.0,0.0,0.0,-0.02147790975868702,-0.010708493180572987,0.017588337883353233,0.9994779229164124,0.003232106799259782,-0.004323651548475027,0.031853001564741135
187.0,0.0,0.0,0.0,0.0,0.0,0.0,-0.009918484836816788,0.015561841428279877,0.008031371049582958,0.9994387030601501,0.0027975833509117365,-0.002859909553080797,0.03326282650232315
188.0,0.0,0.0,0.0,0.0,0.0,0.0,-0.01701080985367298,0.02055472321808338,0.013967469334602356,0.9994446635246277,0.003050395054742694,-0.0022306139580905437,0.03310563415288925
189.0,0.0,0.0,0.0,0.0,0.0,0.0,-0.015930699184536934,0.01169741339981556,0.015369923785328865,0.9993810057640076,0.003516069846227765,-0.0014039016095921397,0.0349758043885231
190.0,0.0,0.0,0.0,0.0,0.0,0.0,-0.01468544453382492,0.022160327062010765,0.0005438958760350943,0.999345600605011,0.003478897036984563,0.00026938613154925406,0.03600422665476799
191.0,0.0,0.0,0.0,0.0,0.0,0.0,-0.008570139296352863,0.0071150450967252254,-0.02242545410990715,0.9993334412574768,0.003285421757027507,0.0016064386582002044,0.03632022440433502
192.0,0.0,0.0,0.0,0.0,0.0,0.0,-0.010058584623038769,0.006189065519720316,-0.014955220744013786,0.9993368983268738,0.002615785226225853,0.0033627976663410664,0.03615754842758179
193.0,0.0,0.0,0.0,0.0,0.0,0.0,-0.008593207225203514,0.006339781917631626,-0.024515429511666298,0.9993441700935364,0.0018245929386466742,0.00598563440144062,0.03566700592637062
194.0,0.0,0.0,0.0,0.0,0.0,0.0,-0.008758214302361012,0.002701987512409687,-0.013678567484021187,0.9993047714233398,0.0009377342648804188,0.007607611827552319,0.03648314252495766
195.0,0.0,0.0,0.0,0.0,0.0,0.0,-0.007256954908370972,0.0022026305086910725,-0.007503678556531668,0.9992643594741821,0.0010204449063166976,0.008914289064705372,0.03728210926055908
196.0,0.0,0.0,0.0,0.0,0.0,0.0,0.002267511561512947,0.00022534688469022512,-0.019531600177288055,0.9992582201957703,0.0004416672163642943,0.010705389082431793,0.03698865696787834
197.0,0.0,0.0,0.0,0.0,0.0,0.0,0.006104025524109602,-0.0010602115653455257,-0.019384345039725304,0.9992220401763916,-0.00027213807334192097,0.011709542013704777,0.0376562774181366
198.0,0.0,0.0,0.0,0.0,0.0,0.0,-0.0005403511459007859,0.007494483608752489,0.008550543338060379,0.9991747736930847,-0.0003956536529585719,0.012033754959702492,0.03878863900899887
199.0,0.0,0.0,0.0,0.0,0.0,0.0,0.00042882244451902807,0.008486730977892876,-0.0009326044237241149,0.9991500377655029,-0.00016169693844858557,0.011179274879395962,0.03967580571770668
200.0,0.0,0.0,0.0,0.0,0.0,0.0,-0.0016638663364574313,0.0051115998066961765,0.0020017458591610193,0.9991071820259094,0.0004747063503600657,0.009458430111408234,0.0411687046289444
201.0,0.0,0.0,0.0,0.0,0.0,0.0,-0.0035329151432961226,0.009624281898140907,0.0075082965195178986,0.9990893006324768,0.00035502007813192904,0.008801091462373734,0.041748881340026855
202.0,0.0,0.0,0.0,0.0,0.0,0.0,-0.0013581890380010009,0.007431101985275745,0.004738894756883383,0.9990807771682739,-2.709847285586875e-05,0.008251192048192024,0.042063113301992416
203.0,0.0,0.0,0.0,0.0,0.0,0.0,-0.0001305821060668677,0.007428633980453014,0.005492618773132563,0.9990885257720947,-0.00025030694087035954,0.007082864176481962,0.04209531098604202
204.0,0.0,0.0,0.0,0.0,0.0,0.0,-0.0014240313321352005,0.008975527249276638,0.007063770666718483,0.999136209487915,-0.0009381793206557631,0.006480481009930372,0.041035011410713196
205.0,0.0,0.0,0.0,0.0,0.0,0.0,-0.004879843443632126,0.008021720685064793,0.011293464340269566,0.9991692900657654,-0.0008634794503450394,0.004809169098734856,0.04045698419213295
206.0,0.0,0.0,0.0,0.0,0.0,0.0,-0.00856892392039299,0.005714276805520058,0.010082727298140526,0.9991710782051086,-0.00019885347865056247,0.0031380117870867252,0.040582723915576935
207.0,0.0,0.0,0.0,0.0,0.0,0.0,-0.01034668181091547,0.007013595663011074,0.0059580751694738865,0.9991905093193054,0.0006154955481179059,0.002046097768470645,0.04016967862844467
208.0,0.0,0.0,0.0,0.0,0.0,0.0,-0.011296371929347515,0.007935982197523117,0.019615840166807175,0.9992094039916992,0.000952826114371419,0.002277600346133113,0.03967766836285591
209.0,0.0,0.0,0.0,0.0,0.0,0.0,-0.006215226836502552,0.00752097275108099,0.013852120377123356,0.9992170333862305,0.0011753735598176718,0.0032092840410768986,0.03941565379500389
210.0,0.0,0.0,0.0,0.0,0.0,0.0,-0.0027531045489013195,0.00588388554751873,-0.0012968250084668398,0.999206006526947,0.001738089369609952,0.0038876605685800314,0.039610378444194794
211.0,0.0,0.0,0.0,0.0,0.0,0.0,0.00013129737635608763,0.0074697756208479404,-0.011116405948996544,0.9991930723190308,0.002643896732479334,0.004440875258296728,0.039831843227148056
212.0,0.0,0.0,0.0,0.0,0.0,0.0,0.003520878264680505,0.008779196999967098,-0.013880863785743713,0.9991869330406189,0.002856944454833865,0.0055661858059465885,0.039827801287174225
213.0,0.0,0.0,0.0,0.0,0.0,0.0,0.004345600958913565,0.01213484350591898,-0.009303987957537174,0.9991666078567505,0.0031281374394893646,0.006275564432144165,0.04020730406045914
214.0,0.0,0.0,0.0,0.0,0.0,0.0,0.0019999004434794188,0.014730499126017094,-0.007913169451057911,0.999136745929718,0.0036376365460455418,0.006600326392799616,0.040852420032024384
215.0,0.0,0.0,0.0,0.0,0.0,0.0,0.002510962774977088,0.007398067973554134,-0.013071922585368156,0.999134361743927,0.0034940179903060198,0.007630479987710714,0.040744081139564514
216.0,0.0,0.0,0.0,0.0,0.0,0.0,0.0029973341152071953,-0.00165221793577075,-0.007441665045917034,0.9990975260734558,0.003724936628714204,0.007456943392753601,0.041646555066108704
217.0,0.0,0.0,0.0,0.0,0.0,0.0,0.0021246413234621286,0.0019583418034017086,-4.7165798605419695e-05,0.9990867972373962,0.00355910649523139,0.007370594888925552,0.041936442255973816
218.0,0.0,0.0,0.0,0.0,0.0,0.0,0.0021772158797830343,0.004395606927573681,-0.004156309179961681,0.9990845322608948,0.0031365836039185524,0.007777438033372164,0.04194783419370651
219.0,0.0,0.0,0.0,0.0,0.0,0.0,0.003521084552630782,0.00045100299757905304,-0.004162902478128672,0.9990675449371338,0.00310589000582695,0.007291707210242748,0.042441874742507935
220.0,0.0,0.0,0.0,0.0,0.0,0.0,0.0055519333109259605,-0.001254185801371932,0.0020698721054941416,0.9990572929382324,0.0028397839050740004,0.007108228746801615,0.042727820575237274
221.0,0.0,0.0,0.0,0.0,0.0,0.0,0.0054572769440710545,0.0013817957369610667,0.004863728769123554,0.9990459680557251,0.0025540415663272142,0.006834689062088728,0.04305654764175415
222.0,0.0,0.0,0.0,0.0,0.0,0.0,0.003311133710667491,0.005233722738921642,0.006964079570025206,0.9990246891975403,0.002809884026646614,0.005978728178888559,0.04365881532430649
223.0,0.0,0.0,0.0,0.0,0.0,0.0,0.0013419458409771323,-0.0012121712788939476,0.009856069460511208,0.9989824891090393,0.0034695120994001627,0.005396595224738121,0.044638942927122116
224.0,0.0,0.0,0.0,0.0,0.0,0.0,0.002252609236165881,0.00014412234304472804,0.006258727982640266,0.9989400506019592,0.003847226034849882,0.005464423447847366,0.045543015003204346
225.0,0.0,0.0,0.0,0.0,0.0,0.0,-0.001211053691804409,0.0012577088782563806,0.008163603954017162,0.998896598815918,0.0040959930047392845,0.005457455292344093,0.04646402969956398
226.0,0.0,0.0,0.0,0.0,0.0,0.0,-0.0017729838145896792,-0.001150906435213983,0.015643838793039322,0.9988245368003845,0.004462080541998148,0.0056878929026424885,0.04792796075344086
227.0,0.0,0.0,0.0,0.0,0.0,0.0,0.0009837886318564415,-0.002724562305957079,0.003333896165713668,0.9987549185752869,0.004794114734977484,0.005925067234784365,0.04929981008172035
228.0,0.0,0.0,0.0,0.0,0.0,0.0,0.0019999246578663588,-0.0069469003938138485,-0.004399833269417286,0.99870365858078,0.00470228074118495,0.0059022377245128155,0.05033974349498749
229.0,0.0,0.0,0.0,0.0,0.0,0.0,-4.101749073015526e-05,-0.005236851051449776,-0.00291383801959455,0.9987084269523621,0.004476254340261221,0.006400021258741617,0.05020417645573616
230.0,0.0,0.0,0.0,0.0,0.0,0.0,-0.0004533767350949347,-0.006680748425424099,-0.004448396153748035,0.9987185597419739,0.003996291197836399,0.0071332636289298534,0.049942463636398315
231.0,0.0,0.0,0.0,0.0,0.0,0.0,-0.000367076339898631,-0.006315238773822784,-0.00588372815400362,0.9986893534660339,0.003909441642463207,0.00690099410712719,0.05056341737508774
232.0,0.0,0.0,0.0,0.0,0.0,0.0,-0.004411873407661915,-0.014790190383791924,-0.0022612265311181545,0.9986425638198853,0.00391486007720232,0.006194555666297674,0.05156777426600456
233.0,0.0,0.0,0.0,0.0,0.0,0.0,-0.0027658550534397364,-0.013273094780743122,-0.0018749048467725515,0.9986172914505005,0.003371675033122301,0.006413508206605911,0.05206901207566261
234.0,0.0,0.0,0.0,0.0,0.0,0.0,-0.0013855068245902658,-0.014615479856729507,0.0021265775430947542,0.9986320734024048,0.002045960398390889,0.007358575239777565,0.05172460153698921
235.0,0.0,0.0,0.0,0.0,0.0,0.0,-0.003386781085282564,-0.012491615489125252,0.003407116746529937,0.9986233115196228,0.0009517166763544083,0.007482944056391716,0.05191013962030411
236.0,0.0,0.0,0.0,0.0,0.0,0.0,-0.00665081012994051,-0.005722696892917156,0.004548774566501379,0.99864262342453,-0.0004354313132353127,0.007927545346319675,0.05147566646337509
237.0,0.0,0.0,0.0,0.0,0.0,0.0,-0.008389146067202091,-0.003726510563865304,0.006152287125587463,0.9986391663551331,-0.0014772167196497321,0.008333483710885048,0.05146205052733421
238.0,0.0,0.0,0.0,0.0,0.0,0.0,-0.010524987243115902,0.0017347090179100633,0.0004138177610002458,0.9986454248428345,-0.0021888541523367167,0.009125364013016224,0.05117751285433769
239.0,0.0,0.0,0.0,0.0,0.0,0.0,-0.01027822308242321,0.002540889196097851,0.00040295079816132784,0.9986602067947388,-0.0024590936955064535,0.009965624660253525,0.05071847140789032
240.0,0.0,0.0,0.0,0.0,0.0,0.0,-0.010605203919112682,0.0033217070158571005,-0.0011127566685900092,0.998657763004303,-0.002465792465955019,0.010938121937215328,0.05056675896048546
241.0,0.0,0.0,0.0,0.0,0.0,0.0,-0.010924354195594788,0.002985974308103323,-0.0033042067661881447,0.9986482262611389,-0.0027583856135606766,0.010819134302437305,0.05076438561081886
242.0,0.0,0.0,0.0,0.0,0.0,0.0,-0.006190812680870295,0.00016859329480212182,-0.0037467554211616516,0.9986758232116699,-0.003085670992732048,0.010681710205972195,0.05022929981350899
243.0,0.0,0.0,0.0,0.0,0.0,0.0,0.0010598718654364347,0.0006572174606844783,-0.01935223676264286,0.9987810254096985,-0.0031459874007850885,0.010487840510904789,0.04813001677393913
244.0,0.0,0.0,0.0,0.0,0.0,0.0,-0.0026795361191034317,-0.013679243624210358,-0.02637629024684429,0.9989662170410156,-0.0025363494642078876,0.008151406422257423,0.04464886710047722
245.0,0.0,0.0,0.0,0.0,0.0,0.0,-0.017743585631251335,-0.0036482324358075857,0.011153615079820156,0.9991808533668518,-0.0015916901174932718,0.005209817085415125,0.040098536759614944
246.0,0.0,0.0,0.0,0.0,0.0,0.0,-0.020625697448849678,-0.00018203527724836022,0.021597303450107574,0.9994218945503235,-0.0003608497208915651,0.0027213054709136486,0.03388639912009239
247.0,0.0,0.0,0.0,0.0,0.0,0.0,-0.004622670356184244,-0.009100456722080708,-0.005646373610943556,0.9995996952056885,0.0009091182728298008,0.0003579117183107883,0.028275368735194206
248.0,0.0,0.0,0.0,0.0,0.0,0.0,-0.004041843581944704,0.0004252300423104316,-0.000944996892940253,0.9996587634086609,0.0021428533364087343,-0.0010695933597162366,0.026012569665908813
249.0,0.0,0.0,0.0,0.0,0.0,0.0,-0.0025803232565522194,0.006034323945641518,0.003987993113696575,0.9996922016143799,0.0030573802068829536,-0.0014715741854161024,0.02457289583981037
250.0,0.0,0.0,0.0,0.0,0.0,0.0,0.002028599614277482,0.0002716443850658834,0.002149074338376522,0.9997091889381409,0.003986313473433256,-0.001414828235283494,0.023741990327835083
251.0,0.0,0.0,0.0,0.0,0.0,0.0,0.009084069170057774,-0.008170741610229015,-0.010926797986030579,0.9996982216835022,0.004398546181619167,-0.0011133275693282485,0.024141263216733932
252.0,0.0,0.0,0.0,0.0,0.0,0.0,0.0003430242359172553,-0.0026966738514602184,0.0035305670462548733,0.999642014503479,0.005072643049061298,-0.0020331568084657192,0.026190847158432007
253.0,0.0,0.0,0.0,0.0,0.0,0.0,-0.004404926672577858,0.00038783883792348206,0.01800505258142948,0.9995657801628113,0.005585629492998123,-0.0025842422619462013,0.02881770022213459
254.0,0.0,0.0,0.0,0.0,0.0,0.0,0.008907046169042587,-0.0021982660982757807,-0.009724407456815243,0.9995513558387756,0.0054294574074447155,-0.002594707068055868,0.029338935390114784
255.0,0.0,0.0,0.0,0.0,0.0,0.0,0.002340559847652912,0.002849535783752799,-0.0025916241575032473,0.9995492696762085,0.005289801396429539,-0.0026121456176042557,0.029431257396936417
256.0,0.0,0.0,0.0,0.0,0.0,0.0,-0.0051606870256364346,0.009306875988841057,0.024308478459715843,0.9995177388191223,0.005649566184729338,-0.002771456725895405,0.030407128855586052
257.0,0.0,0.0,0.0,0.0,0.0,0.0,-0.006548162084072828,0.014395411126315594,0.018197769299149513,0.9994860291481018,0.006199368275702,-0.0024682513903826475,0.03135651722550392
258.0,0.0,0.0,0.0,0.0,0.0,0.0,-0.0022582695819437504,0.007184186484664679,-0.0018717347411438823,0.9994776248931885,0.006237638182938099,-0.002474042819812894,0.03161313384771347
259.0,0.0,0.0,0.0,0.0,0.0,0.0,0.00602406682446599,-0.005957234650850296,-0.00728456350043416,0.9994690418243408,0.005446269176900387,-0.002049678470939398,0.03205682337284088
260.0,0.0,0.0,0.0,0.0,0.0,0.0,0.008848809637129307,-0.003287847386673093,-0.007922183722257614,0.9994474649429321,0.005198701750487089,-0.0018469846108928323,0.032778531312942505
261.0,0.0,0.0,0.0,0.0,0.0,0.0,0.009498408995568752,-0.008225969970226288,-0.009982006624341011,0.9993934631347656,0.005519112106412649,-0.0015075585106387734,0.03434770926833153
262.0,0.0,0.0,0.0,0.0,0.0,0.0,-0.0013004257343709469,0.00019571739539969712,0.01275121234357357,0.9992343783378601,0.006052800919860601,-0.0006467202911153436,0.0386459156870842
263.0,0.0,0.0,0.0,0.0,0.0,0.0,-0.002988058840855956,0.005943101365119219,0.02004348859190941,0.9990295171737671,0.006225884892046452,0.000545002578292042,0.0435979962348938
264.0,0.0,0.0,0.0,0.0,0.0,0.0,0.008506732061505318,-0.00895153358578682,-0.006771576125174761,0.9989185929298401,0.005764969624578953,0.0018520425073802471,0.04609958827495575
265.0,0.0,0.0,0.0,0.0,0.0,0.0,0.01575547456741333,-0.01898050121963024,-0.012600221671164036,0.9988706111907959,0.0056319995783269405,0.0013456911547109485,0.04715836048126221
266.0,0.0,0.0,0.0,0.0,0.0,0.0,0.015297671779990196,-0.026582343503832817,-0.017215868458151817,0.9989475607872009,0.004818934481590986,-0.0005646981881000102,0.04560840502381325
267.0,0.0,0.0,0.0,0.0,0.0,0.0,-0.0068982308730483055,-0.006902028806507587,0.048529233783483505,0.9990774393081665,0.0038268074858933687,-0.0012938437284901738,0.042754556983709335
268.0,0.0,0.0,0.0,0.0,0.0,0.0,-0.005031441804021597,-0.007584557868540287,0.025943459942936897,0.9991862177848816,0.0033910851925611496,-0.001664420822635293,0.040156200528144836
269.0,0.0,0.0,0.0,0.0,0.0,0.0,-0.00022041464399080724,-0.00502403499558568,-0.0032910697627812624,0.9992908239364624,0.003620555391535163,-0.0022507933899760246,0.03740920498967171
270.0,0.0,0.0,0.0,0.0,0.0,0.0,-0.008374919183552265,-0.004338774364441633,0.016583237797021866,0.9993719458580017,0.003979467321187258,-0.002254251390695572,0.03513912856578827
271.0,0.0,0.0,0.0,0.0,0.0,0.0,-0.004763205535709858,0.002495385240763426,0.007793462835252285,0.9993883967399597,0.004662568215280771,-0.0026310584507882595,0.03455376625061035
272.0,0.0,0.0,0.0,0.0,0.0,0.0,-0.0002690240798983723,0.0003663189127109945,-0.010370660573244095,0.9994385838508606,0.005136387422680855,-0.0024650036357343197,0.03301597014069557
273.0,0.0,0.0,0.0,0.0,0.0,0.0,0.007799104321748018,-0.013032392598688602,-0.031311213970184326,0.9995254278182983,0.0046468861401081085,-0.0021870722994208336,0.030372940003871918
274.0,0.0,0.0,0.0,0.0,0.0,0.0,0.0017258130246773362,-0.01190003752708435,-0.013265302404761314,0.9995889663696289,0.004239604342728853,-0.0024569930974394083,0.028245417401194572
275.0,0.0,0.0,0.0,0.0,0.0,0.0,-0.004769505467265844,-0.009361573494970798,0.004830016288906336,0.9996304512023926,0.003849510569125414,-0.0023919015657156706,0.026800883933901787
276.0,0.0,0.0,0.0,0.0,0.0,0.0,-0.004943524487316608,-0.006973050069063902,0.006563916336745024,0.99965900182724,0.0033092726953327656,-0.0018976113060489297,0.025830771774053574
277.0,0.0,0.0,0.0,0.0,0.0,0.0,-0.0024999184533953667,-0.0069700139574706554,0.008243161253631115,0.999664843082428,0.0030492511577904224,-0.0010726948967203498,0.02568540908396244
278.0,0.0,0.0,0.0,0.0,0.0,0.0,0.0001145698333857581,-0.008496271446347237,-0.0006097526056692004,0.9996505379676819,0.0030785929411649704,-0.0009781989501789212,0.02623491920530796
279.0,0.0,0.0,0.0,0.0,0.0,0.0,0.0026340081822127104,-0.008204454556107521,-0.008443586528301239,0.9996618032455444,0.002899571554735303,-0.0010537452762946486,0.025819944217801094
280.0,0.0,0.0,0.0,0.0,0.0,0.0,0.0038171368651092052,-0.004633811768144369,0.0011215516133233905,0.9996572732925415,0.002645551459863782,-0.0013825499918311834,0.026008430868387222
281.0,0.0,0.0,0.0,0.0,0.0,0.0,0.005153140518814325,-0.00431785685941577,-0.0014629366341978312,0.9996503591537476,0.002194239292293787,-0.001593328546732664,0.026301227509975433
282.0,0.0,0.0,0.0,0.0,0.0,0.0,0.004986187443137169,-0.004258913919329643,-0.0025760456919670105,0.9996350407600403,0.0013084742240607738,-0.0012345496797934175,0.026953691616654396
283.0,0.0,0.0,0.0,0.0,0.0,0.0,0.006612344179302454,0.009077495895326138,0.004483404569327831,0.9996469616889954,0.001173239666968584,-0.0013554294127970934,0.026509027928113937
284.0,0.0,0.0,0.0,0.0,0.0,0.0,0.006273695733398199,-0.0029930139426141977,0.008370497263967991,0.9996488690376282,0.0011555039091035724,-0.001699413056485355,0.02641618810594082
285.0,0.0,0.0,0.0,0.0,0.0,0.0,0.00880485586822033,-0.002612351905554533,0.007556628901511431,0.9996274709701538,0.001210509450174868,-0.002299240790307522,0.027165241539478302
286.0,0.0,0.0,0.0,0.0,0.0,0.0,0.008600052446126938,-0.00437063118442893,0.009052209556102753,0.9996399879455566,0.0010428816312924027,-0.001818605698645115,0.026751382276415825
287.0,0.0,0.0,0.0,0.0,0.0,0.0,0.00990100484341383,-0.006402895320206881,0.0055815428495407104,0.9996455907821655,0.0007681558490730822,-0.001456534257158637,0.02657255530357361
288.0,0.0,0.0,0.0,0.0,0.0,0.0,0.010118803009390831,-0.006178279407322407,0.0026325536891818047,0.9996261596679688,0.0009565838845446706,-0.0015368579188361764,0.027280891314148903
289.0,0.0,0.0,0.0,0.0,0.0,0.0,0.007830435410141945,-0.0009621410863474011,0.0038916270714253187,0.999604344367981,0.000940591620747,-0.0010365757625550032,0.028093639761209488
290.0,0.0,0.0,0.0,0.0,0.0,0.0,0.006423568353056908,0.0026240763254463673,0.007169877178966999,0.9995815753936768,0.0007732164231128991,0.00019899674225598574,0.028910817578434944
291.0,0.0,0.0,0.0,0.0,0.0,0.0,0.007872544229030609,0.003807753324508667,-0.0022128585260361433,0.999535858631134,0.001310266088694334,0.0009538006270304322,0.03041943907737732
292.0,0.0,0.0,0.0,0.0,0.0,0.0,0.007709958124905825,-0.00019228910969104618,-0.007568150758743286,0.9994973540306091,0.0018444290617480874,0.0016368331853300333,0.03160528838634491
293.0,0.0,0.0,0.0,0.0,0.0,0.0,0.005594845861196518,-0.00105636240914464,-0.0004589329182635993,0.9994871020317078,0.0019514941377565265,0.0024097173009067774,0.03187273442745209
294.0,0.0,0.0,0.0,0.0,0.0,0.0,0.006665522698312998,-0.00022402169997803867,-0.000825948896817863,0.9995064735412598,0.0016127345152199268,0.003336836351081729,0.03119225986301899
295.0,0.0,0.0,0.0,0.0,0.0,0.0,0.006182556506246328,-0.00031017253058962524,-0.003383234841749072,0.9995209574699402,0.0018013148801401258,0.003613081993535161,0.030686531215906143
296.0,0.0,0.0,0.0,0.0,0.0,0.0,0.005226881708949804,0.002352820010855794,0.0004971383023075759,0.9995311498641968,0.0019447767408564687,0.0036841395776718855,0.030330924317240715
297.0,0.0,0.0,0.0,0.0,0.0,0.0,0.004994323942810297,0.0046328105963766575,-0.004850828554481268,0.9995476007461548,0.0020849681459367275,0.0036630709655582905,0.029778970405459404
298.0,0.0,0.0,0.0,0.0,0.0,0.0,0.004361401312053204,0.002653455827385187,-0.004673549439758062,0.9995675683021545,0.0027534838300198317,0.0027652436401695013,0.02914712205529213
299.0,0.0,0.0,0.0,0.0,0.0,0.0,0.002576426137238741,0.0023937777150422335,0.00045388442231342196,0.9996067881584167,0.0031756656244397163,0.002157662995159626,0.027774611487984657
300.0,0.0,0.0,0.0,0.0,0.0,0.0,0.0016656480729579926,0.00242163660004735,0.002667211927473545,0.9996629357337952,0.003138625295832753,0.001282618846744299,0.025737421587109566
301.0,0.0,0.0,0.0,0.0,0.0,0.0,0.0003542088088579476,-0.00031175045296549797,0.00645051896572113,0.9996907711029053,0.00350650935433805,-0.00034357598633505404,0.024615008383989334
302.0,0.0,0.0,0.0,0.0,0.0,0.0,0.0027006142772734165,-0.008389370515942574,0.00386249553412199,0.9997100830078125,0.0041664279997348785,-0.002467875136062503,0.023584363982081413
303.0,0.0,0.0,0.0,0.0,0.0,0.0,0.0025703678838908672,-0.0080504035577178,0.007650574669241905,0.9997426867485046,0.004019393119961023,-0.0036488466430455446,0.022020895034074783
304.0,0.0,0.0,0.0,0.0,0.0,0.0,0.0006423655431717634,-0.006749053951352835,0.01774165779352188,0.9997726082801819,0.0034057190641760826,-0.00439361110329628,0.02058827504515648
305.0,0.0,0.0,0.0,0.0,0.0,0.0,-0.0026205650065094233,-0.006699505262076855,0.02459452673792839,0.9997998476028442,0.002814501291140914,-0.005042465403676033,0.019152125343680382
306.0,0.0,0.0,0.0,0.0,0.0,0.0,0.0003828050394076854,-0.01036514900624752,0.018369242548942566,0.9998409152030945,0.001957129454240203,-0.00487033324316144,0.017042404040694237
307.0,0.0,0.0,0.0,0.0,0.0,0.0,0.0028287339955568314,-0.007399325724691153,0.006974608637392521,0.9998950362205505,0.0007467794348485768,-0.0034159235656261444,0.014065127819776535
308.0,0.0,0.0,0.0,0.0,0.0,0.0,0.00559862470254302,-0.000822654168587178,-0.00259781233035028,0.9999271631240845,-5.748637340730056e-05,-0.002089630113914609,0.011883719824254513
309.0,0.0,0.0,0.0,0.0,0.0,0.0,0.001768298912793398,0.004555703606456518,-0.0044736918061971664,0.9999405741691589,0.0005448557203635573,-0.001992917852476239,0.010707835666835308
310.0,0.0,0.0,0.0,0.0,0.0,0.0,0.002977064810693264,-0.005541997030377388,-0.0013170953607186675,0.9999347925186157,0.0013884780928492546,-0.0015959821175783873,0.011220659129321575
311.0,0.0,0.0,0.0,0.0,0.0,0.0,0.00798109732568264,0.0024319817312061787,-0.01312084961682558,0.9999188184738159,0.002219246467575431,-0.0008344633970409632,0.01251594815403223
312.0,0.0,0.0,0.0,0.0,0.0,0.0,0.00699591776356101,0.008052092045545578,-0.014277050271630287,0.9999039769172668,0.002994510345160961,-7.803977496223524e-05,0.013529784977436066
313.0,0.0,0.0,0.0,0.0,0.0,0.0,0.007034798618406057,0.01768922060728073,-0.014769444242119789,0.9998927712440491,0.0036750927101820707,0.00068286171881482,0.014160226099193096
314.0,0.0,0.0,0.0,0.0,0.0,0.0,0.0035531348548829556,0.02079922705888748,-0.00863692257553339,0.9998772144317627,0.0041379379108548164,0.0010061155771836638,0.015075952745974064
315.0,0.0,0.0,0.0,0.0,0.0,0.0,-0.0011372336884960532,0.023823829367756844,-0.0061844573356211185,0.9998485445976257,0.004894542042165995,0.0004497757472563535,0.01669391244649887
316.0,0.0,0.0,0.0,0.0,0.0,0.0,0.0001808064989745617,0.019388047978281975,-0.007966089062392712,0.999818742275238,0.005639297422021627,0.00010743760503828526,0.0181829072535038
317.0,0.0,0.0,0.0,0.0,0.0,0.0,-0.0017603846499696374,0.018095849081873894,-0.008151869289577007,0.9997981190681458,0.005753020755946636,0.000286790105747059,0.019246945157647133
318.0,0.0,0.0,0.0,0.0,0.0,0.0,-0.005240187048912048,0.015460435301065445,-0.00804358720779419,0.9997732043266296,0.005678222514688969,0.0005723438807763159,0.020517339929938316
319.0,0.0,0.0,0.0,0.0,0.0,0.0,-0.00416148966178298,0.011496437713503838,-0.004923835396766663,0.9997562766075134,0.005169295240193605,0.0011828485876321793,0.021428925916552544
320.0,0.0,0.0,0.0,0.0,0.0,0.0,-0.003460545092821121,0.010960524901747704,-0.009119153954088688,0.9997453093528748,0.004543540067970753,0.0012012023944407701,0.022069063037633896
321.0,0.0,0.0,0.0,0.0,0.0,0.0,-0.0031512363348156214,0.010549685917794704,-0.003861378412693739,0.9997144341468811,0.004409794230014086,0.0012763384729623795,0.023448562249541283
322.0,0.0,0.0,0.0,0.0,0.0,0.0,-0.003209969261661172,0.014019758440554142,-0.005653019528836012,0.9996889233589172,0.0038058687932789326,0.0017010843148455024,0.024586958810687065
323.0,0.0,0.0,0.0,0.0,0.0,0.0,-0.0038235848769545555,0.01687636598944664,0.0010771660599857569,0.9996854662895203,0.003267803695052862,0.0016094850143417716,0.024813732132315636
324.0,0.0,0.0,0.0,0.0,0.0,0.0,-0.01067260093986988,0.015241839922964573,0.01730855368077755,0.999695897102356,0.0028699145186692476,0.0018966867355629802,0.024415651336312294
325.0,0.0,0.0,0.0,0.0,0.0,0.0,-0.00503337848931551,0.008080322295427322,-0.004343114793300629,0.9997060894966125,0.002860495587810874,0.0018341690301895142,0.024001464247703552
326.0,0.0,0.0,0.0,0.0,0.0,0.0,-0.004244781564921141,0.009615197777748108,0.00411962391808629,0.9997037053108215,0.0028788347262889147,0.0013091529253870249,0.02413150481879711
327.0,0.0,0.0,0.0,0.0,0.0,0.0,-0.00159989926032722,0.0034500579349696636,0.001501319813542068,0.9997159242630005,0.002121574943885207,0.00036969580105505884,0.023736324161291122
328.0,0.0,0.0,0.0,0.0,0.0,0.0,0.0017791552236303687,-0.01478460431098938,-0.0021022253204137087,0.999735414981842,0.0014881623210385442,-0.0001561409590067342,0.022952426224946976
329.0,0.0,0.0,0.0,0.0,0.0,0.0,0.0036455856170505285,-0.0006340010440908372,-0.0010282067814841866,0.9997569918632507,0.0005741215427406132,0.00028841907624155283,0.022037340328097343
330.0,0.0,0.0,0.0,0.0,0.0,0.0,0.0004898961051367223,0.005251787137240171,-0.0023341490887105465,0.9998008012771606,0.0008303513168357313,-0.001505509251728654,0.019884908571839333
331.0,0.0,0.0,0.0,0.0,0.0,0.0,-0.018219681456685066,-0.0007736758561804891,0.04214081913232803,0.9998102188110352,0.0014001874951645732,-0.002986896550282836,0.01919865421950817
332.0,0.0,0.0,0.0,0.0,0.0,0.0,-0.0009964947821572423,-0.0067970906384289265,-0.008079685270786285,0.9998241662979126,0.001155804144218564,-0.002127937041223049,0.018596066161990166
333.0,0.0,0.0,0.0,0.0,0.0,0.0,0.004398033022880554,-0.007209679111838341,-0.014565594494342804,0.9998255968093872,0.0009630037820897996,-0.002303057350218296,0.018504155799746513
334.0,0.0,0.0,0.0,0.0,0.0,0.0,-0.006257441360503435,0.006368065252900124,0.009735955856740475,0.9997999668121338,0.0015699787763878703,-0.0030547825153917074,0.019701547920703888
335.0,0.0,0.0,0.0,0.0,0.0,0.0,-0.006877546198666096,0.011686715297400951,0.0034747777972370386,0.9997693300247192,0.001900064991787076,-0.003322329604998231,0.021134821698069572
336.0,0.0,0.0,0.0,0.0,0.0,0.0,-0.003693285631015897,0.014878522604703903,0.005329403560608625,0.9997620582580566,0.0013720515416935086,-0.0025035350117832422,0.02162383869290352
337.0,0.0,0.0,0.0,0.0,0.0,0.0,-0.0010261235293000937,0.015575372613966465,0.0003468235663603991,0.9997599124908447,0.0009906738996505737,-0.0011926728766411543,0.02185884304344654
338.0,0.0,0.0,0.0,0.0,0.0,0.0,-0.00207332125864923,0.01760181225836277,0.006720808334648609,0.9997519850730896,0.00030775388586334884,-0.000267309311311692,0.022264739498496056
339.0,0.0,0.0,0.0,0.0,0.0,0.0,-0.004703261889517307,0.020593440160155296,0.005492163822054863,0.9997179508209229,0.000586727459449321,-0.0009078801376745105,0.023723479360342026
340.0,0.0,0.0,0.0,0.0,0.0,0.0,-0.0011297069722786546,0.017682086676359177,-0.0011899181408807635,0.9997034072875977,0.0010828361846506596,-0.0012641908833757043,0.024297263473272324
341.0,0.0,0.0,0.0,0.0,0.0,0.0,0.003075545420870185,0.010736718773841858,-0.02925933338701725,0.9997141361236572,0.0010082576191052794,-0.001314792549237609,0.0238504558801651
342.0,0.0,0.0,0.0,0.0,0.0,0.0,-0.0049995314329862595,0.016219640150666237,0.009874972514808178,0.9997150301933289,0.001171434880234301,-0.001742188585922122,0.023779109120368958
343.0,0.0,0.0,0.0,0.0,0.0,0.0,-0.011097392998635769,0.011557696387171745,0.01456578727811575,0.9997008442878723,0.0010759665165096521,-0.0013421893818303943,0.02439642883837223
344.0,0.0,0.0,0.0,0.0,0.0,0.0,0.0009466611663810909,0.0012638355838134885,-0.004049889277666807,0.9996820688247681,0.0006277706124819815,-0.00024609072715975344,0.02520918659865856
345.0,0.0,0.0,0.0,0.0,0.0,0.0,0.0006925384514033794,0.0003775899240281433,-0.003907244652509689,0.999629557132721,0.00038203384610824287,0.000444988691015169,0.02720937877893448
346.0,0.0,0.0,0.0,0.0,0.0,0.0,0.00023084219719748944,-0.000668814405798912,-0.002258565276861191,0.9995681047439575,0.00029038841603323817,0.0015150575200095773,0.029345490038394928
347.0,0.0,0.0,0.0,0.0,0.0,0.0,0.003018665127456188,0.00910375826060772,0.005934405606240034,0.9995296001434326,-0.00042595158447511494,0.003508690744638443,0.030458733439445496
348.0,0.0,0.0,0.0,0.0,0.0,0.0,-0.0016886858502402902,0.014273948967456818,0.003744869725778699,0.9995081424713135,-0.00020808920089621097,0.004089784808456898,0.03108781948685646
349.0,0.0,0.0,0.0,0.0,0.0,0.0,0.003268204629421234,0.008475108072161674,-0.0009264661348424852,0.9994765520095825,0.0002011673350352794,0.004540367517620325,0.03202969580888748
350.0,0.0,0.0,0.0,0.0,0.0,0.0,0.0049669742584228516,0.008187631145119667,0.0005188939394429326,0.9994643926620483,0.0006391398492269218,0.004650561138987541,0.03238552436232567
351.0,0.0,0.0,0.0,0.0,0.0,0.0,0.003415394341573119,0.0010736610274761915,-0.0034799936693161726,0.999440610408783,0.001667558215558529,0.0037316333036869764,0.03319162130355835
352.0,0.0,0.0,0.0,0.0,0.0,0.0,0.002594053978100419,0.0011280883336439729,-0.006534423213452101,0.9994539618492126,0.0016986128175631166,0.0039245509542524815,0.032765623182058334
353.0,0.0,0.0,0.0,0.0,0.0,0.0,0.0018068511271849275,-0.001717868261039257,-0.0034897560253739357,0.9994839429855347,0.0013070707209408283,0.004262756556272507,0.03181176260113716
354.0,0.0,0.0,0.0,0.0,0.0,0.0,0.0007164746639318764,-0.002607590053230524,0.00226137088611722,0.9995081424713135,0.0007493366720154881,0.004318614024668932,0.031051138415932655
355.0,0.0,0.0,0.0,0.0,0.0,0.0,0.0015599203761667013,0.0026607902254909277,0.005864783655852079,0.9995290637016296,0.00013186018622945994,0.004838390741497278,0.03030100092291832
356.0,0.0,0.0,0.0,0.0,0.0,0.0,0.0017922486877068877,-0.00225889403373003,0.001148699433542788,0.9995304942131042,-7.95214218669571e-05,0.0038824353832751513,0.03039460815489292
357.0,0.0,0.0,0.0,0.0,0.0,0.0,-0.00043887319043278694,-0.00390977319329977,-0.0008485863218083978,0.9995195269584656,0.00033374381018802524,0.002301856642588973,0.03090653568506241
358.0,0.0,0.0,0.0,0.0,0.0,0.0,-0.00574836740270257,0.002246476011350751,0.0023763729259371758,0.9995205402374268,0.00016607996076345444,0.0019605483394116163,0.030899222940206528
359.0,0.0,0.0,0.0,0.0,0.0,0.0,-0.006481340155005455,0.0037580160424113274,0.0033341278322041035,0.9995281100273132,-0.00026648546918295324,0.0023946308065205812,0.03062230534851551
360.0,0.0,0.0,0.0,0.0,0.0,0.0,-0.00846133567392826,0.006346949841827154,0.008527484722435474,0.9995126724243164,-0.0005601741140708327,0.002460572635754943,0.031110171228647232
361.0,0.0,0.0,0.0,0.0,0.0,0.0,-0.00916655920445919,0.008956138975918293,0.008847692981362343,0.9995066523551941,-0.0008814711472950876,0.002577846171334386,0.031289566308259964
362.0,0.0,0.0,0.0,0.0,0.0,0.0,-0.0005598785937763751,0.004259282723069191,-0.012250040657818317,0.9994983077049255,-0.001555980765260756,0.003087179735302925,0.031481895595788956
363.0,0.0,0.0,0.0,0.0,0.0,0.0,-0.0014760937774553895,0.00706302747130394,-0.013773306272923946,0.9994668364524841,-0.0017466000281274319,0.002140660537406802,0.032531559467315674
364.0,0.0,0.0,0.0,0.0,0.0,0.0,-0.010119512677192688,0.013980201445519924,0.00918434839695692,0.9994233250617981,-0.0011562772560864687,0.0005478246603161097,0.033933836966753006
365.0,0.0,0.0,0.0,0.0,0.0,0.0,-0.016682937741279602,0.013902131468057632,0.018906105309724808,0.9993733763694763,-0.0005085979937575758,-0.0007044688682071865,0.03538381680846214
366.0,0.0,0.0,0.0,0.0,0.0,0.0,-0.016241110861301422,0.010072050616145134,0.011063382029533386,0.9993356466293335,3.403913797228597e-05,-0.0012314524501562119,0.03642049431800842
367.0,0.0,0.0,0.0,0.0,0.0,0.0,-0.015213562175631523,0.012066259980201721,0.010843873955309391,0.9993088841438293,0.0010285020107403398,-0.0011113827349618077,0.03714148327708244
368.0,0.0,0.0,0.0,0.0,0.0,0.0,-0.008953433483839035,0.0048172250390052795,0.0030922233127057552,0.9993157982826233,0.0011393846943974495,0.00011060963151976466,0.03696669638156891
369.0,0.0,0.0,0.0,0.0,0.0,0.0,-0.0031471916008740664,0.00023112708004191518,-0.012323500588536263,0.9993438720703125,0.0010474951704964042,0.0013568889116868377,0.036180634051561356
370.0,0.0,0.0,0.0,0.0,0.0,0.0,-0.0005998612032271922,0.002850276418030262,-0.01776142604649067,0.9993623495101929,0.0014411121373996139,0.0015088921645656228,0.035642050206661224
371.0,0.0,0.0,0.0,0.0,0.0,0.0,-0.0032066041603684425,-0.01017496082931757,-0.005860786885023117,0.9993780255317688,0.0016298112459480762,0.001527665532194078,0.03519410640001297
372.0,0.0,0.0,0.0,0.0,0.0,0.0,0.00022885756334289908,-0.005330650135874748,-0.005399203859269619,0.9993710517883301,0.0017067687585949898,0.0018835347145795822,0.035369642078876495
373.0,0.0,0.0,0.0,0.0,0.0,0.0,-0.0009567059460096061,-0.006148754619061947,-0.0022813251707702875,0.9993718862533569,0.0018035428365692496,0.0022908083628863096,0.03531625121831894
374.0,0.0,0.0,0.0,0.0,0.0,0.0,-0.0020182915031909943,-0.009801105596125126,-0.0009688850259408355,0.9993802309036255,0.0015872042858973145,0.0031571961008012295,0.035024646669626236
375.0,0.0,0.0,0.0,0.0,0.0,0.0,-0.002805024618282914,-8.226111822295934e-05,0.006335132755339146,0.9993909001350403,0.0013125570258125663,0.004270897246897221,0.0346120186150074
376.0,0.0,0.0,0.0,0.0,0.0,0.0,-0.0028193597681820393,0.004642568062990904,0.001427383511327207,0.999390184879303,0.0015678554773330688,0.004832181613892317,0.03454521670937538
377.0,0.0,0.0,0.0,0.0,0.0,0.0,0.0011732425773516297,-0.0006866496405564249,-0.00978800468146801,0.9993431568145752,0.0024811062030494213,0.004080865997821093,0.035921406000852585
378.0,0.0,0.0,0.0,0.0,0.0,0.0,0.002133117290213704,0.0026331483386456966,-0.013981787487864494,0.9993377923965454,0.0024741659872233868,0.004244720097631216,0.03604907542467117
379.0,0.0,0.0,0.0,0.0,0.0,0.0,-0.0015900747384876013,0.003778658341616392,-0.01082750502973795,0.9993705749511719,0.0027588249649852514,0.0034222376998513937,0.035199347883462906
380.0,0.0,0.0,0.0,0.0,0.0,0.0,-0.006275620311498642,0.005344673525542021,-0.0022631483152508736,0.9993982911109924,0.002964624436572194,0.002026680391281843,0.03449590876698494
381.0,0.0,0.0,0.0,0.0,0.0,0.0,-0.008667891845107079,0.010437678545713425,0.00595236849039793,0.9994503855705261,0.0020475038327276707,0.0015431271167472005,0.03304854780435562
382.0,0.0,0.0,0.0,0.0,0.0,0.0,-0.00920120719820261,0.010483605787158012,0.0036836809013038874,0.9995005130767822,0.0011978881666436791,0.0010239630937576294,0.031561367213726044
383.0,0.0,0.0,0.0,0.0,0.0,0.0,-0.008340802974998951,0.0077063823118805885,0.0001499657955719158,0.9995192885398865,0.0013937344774603844,-0.0006194052984938025,0.03096143528819084
384.0,0.0,0.0,0.0,0.0,0.0,0.0,-0.00619993032887578,0.007345348596572876,-0.001728439936414361,0.999569296836853,0.001154916943050921,-0.0021387243177741766,0.029244204983115196
385.0,0.0,0.0,0.0,0.0,0.0,0.0,-0.007074282504618168,0.006140998564660549,0.00513329915702343,0.9996404051780701,0.00012599967885762453,-0.0025994405150413513,0.026686877012252808
386.0,0.0,0.0,0.0,0.0,0.0,0.0,-0.005933734122663736,0.004713840316981077,0.01884782686829567,0.9996795654296875,6.648372072959319e-05,-0.0027656317688524723,0.025162257254123688
387.0,0.0,0.0,0.0,0.0,0.0,0.0,-0.009218157269060612,-0.0004881922504864633,0.0054858895018696785,0.9997148513793945,8.063624409260228e-05,-0.0029558390378952026,0.023690240457654
388.0,0.0,0.0,0.0,0.0,0.0,0.0,-0.004453197121620178,-0.002613222459331155,0.01572856493294239,0.999749481678009,-0.00021283562819007784,-0.0024749119766056538,0.022241706028580666
389.0,0.0,0.0,0.0,0.0,0.0,0.0,0.00042814991320483387,-0.0033839265815913677,0.0030064964666962624,0.9997567534446716,-0.0004160365497227758,-0.0018609734252095222,0.02196860872209072
390.0,0.0,0.0,0.0,0.0,0.0,0.0,0.004584639333188534,-0.012847025878727436,-0.026750363409519196,0.9997354745864868,-0.00024629419203847647,-0.001988097792491317,0.02290811762213707
391.0,0.0,0.0,0.0,0.0,0.0,0.0,-0.0015106206992641091,-0.006324660032987595,-0.01499276515096426,0.9996926784515381,-7.830352842574939e-05,-0.0020817832555621862,0.024701034650206566
392.0,0.0,0.0,0.0,0.0,0.0,0.0,-0.007414679974317551,0.004811638966202736,-0.008950617164373398,0.9996299743652344,2.9430215363390744e-05,-0.0023459335789084435,0.027100957930088043
393.0,0.0,0.0,0.0,0.0,0.0,0.0,-0.01056559756398201,0.0069784680381417274,-0.003769260598346591,0.9995756149291992,-2.703579048102256e-05,-0.002128585008904338,0.029050057753920555
394.0,0.0,0.0,0.0,0.0,0.0,0.0,-0.008468066342175007,0.007748191244900227,-0.006261944770812988,0.9995354413986206,0.0001758173602866009,-0.0017155548557639122,0.030424127355217934
395.0,0.0,0.0,0.0,0.0,0.0,0.0,-0.01018618792295456,0.009166511707007885,-0.002296679187566042,0.9994738698005676,0.0009045973420143127,-0.002092596609145403,0.03235216438770294
396.0,0.0,0.0,0.0,0.0,0.0,0.0,-0.009536882862448692,0.010306674055755138,0.006717441137880087,0.9994551539421082,0.0009368041646666825,-0.002058184938505292,0.03293092921376228
397.0,0.0,0.0,0.0,0.0,0.0,0.0,-0.004365736618638039,0.00996019970625639,-0.0023535785730928183,0.9994570016860962,0.0008852899773046374,-0.0018904275493696332,0.03288334980607033
398.0,0.0,0.0,0.0,0.0,0.0,0.0,-0.005204920191317797,-0.00201454502530396,-0.0025207947473973036,0.9994404315948486,0.0011451155878603458,-0.0024504095781594515,0.03333733603358269
399.0,0.0,0.0,0.0,0.0,0.0,0.0,-0.003485816763713956,-0.00885422807186842,-0.0013994850451126695,0.9994094967842102,0.00036363457911647856,-0.002630708273500204,0.03425579145550728
400.0,0.0,0.0,0.0,0.0,0.0,0.0,-0.010150115005671978,-0.0009821354178711772,0.006394004449248314,0.999377429485321,-8.030377648537979e-05,-0.002583226654678583,0.035186685621738434
401.0,0.0,0.0,0.0,0.0,0.0,0.0,-0.010513462126255035,-0.002803526120260358,0.012347444891929626,0.9993256330490112,-8.485266880597919e-05,-0.0017963231075555086,0.03667193278670311
402.0,0.0,0.0,0.0,0.0,0.0,0.0,-0.006195925176143646,0.0037226334679871798,0.002975886221975088,0.9992648959159851,-0.0007334992405958474,0.00014598469715565443,0.03832657262682915
403.0,0.0,0.0,0.0,0.0,0.0,0.0,-0.00888410396873951,0.011628060601651669,0.000726074620615691,0.999216616153717,-0.0014477705117315054,0.0024665286764502525,0.03946793079376221
404.0,0.0,0.0,0.0,0.0,0.0,0.0,-0.006504862103611231,0.005021350923925638,-0.00012140603212174028,0.9991814494132996,-0.0018303089309483767,0.0035789653193205595,0.040250927209854126
405.0,0.0,0.0,0.0,0.0,0.0,0.0,-0.0003450930234976113,-0.001817904761992395,-0.0023486732970923185,0.999165952205658,-0.0019250797340646386,0.003315187292173505,0.04065411165356636
406.0,0.0,0.0,0.0,0.0,0.0,0.0,0.005963655188679695,-0.015323048457503319,-0.011967427097260952,0.9992024302482605,-0.0026136443484574556,0.0027439536061137915,0.03974815458059311
407.0,0.0,0.0,0.0,0.0,0.0,0.0,0.004114261828362942,-0.010758419521152973,-0.000904323358554393,0.9992613196372986,-0.004676692187786102,0.0036061129067093134,0.037974800914525986
408.0,0.0,0.0,0.0,0.0,0.0,0.0,-0.005464944057166576,0.019685616716742516,0.0176989808678627,0.9993413686752319,-0.004723359365016222,0.002279045293107629,0.03590523451566696
409.0,0.0,0.0,0.0,0.0,0.0,0.0,-0.008218254894018173,0.004615049343556166,0.01551903784275055,0.9994533061981201,-0.003595800371840596,-1.2851196515839547e-05,0.03286458179354668
410.0,0.0,0.0,0.0,0.0,0.0,0.0,-0.010588206350803375,0.0016354072140529752,0.01084085088223219,0.999549925327301,-0.003132942598313093,-0.0008783639641478658,0.02982713282108307
411.0,0.0,0.0,0.0,0.0,0.0,0.0,-0.011742762289941311,0.009673845954239368,0.013429907150566578,0.9996258020401001,-0.0020072637125849724,-0.0028535875026136637,0.02713102661073208
412.0,0.0,0.0,0.0,0.0,0.0,0.0,-0.01039094291627407,0.01064219605177641,0.007449324708431959,0.9996912479400635,-0.001078111818060279,-0.0041597685776650906,0.02447257936000824
413.0,0.0,0.0,0.0,0.0,0.0,0.0,-0.0062647429294884205,0.009567473083734512,-8.241851901402697e-05,0.9997388124465942,-0.0004516514018177986,-0.00427577830851078,0.02244558185338974
414.0,0.0,0.0,0.0,0.0,0.0,0.0,-0.0006603849469684064,0.0034010307863354683,-0.005710226017981768,0.9997293949127197,0.00034061286714859307,-0.005073858890682459,0.02269895188510418
415.0,0.0,0.0,0.0,0.0,0.0,0.0,-0.001552634290419519,0.0036646630614995956,-0.010681760497391224,0.9997112154960632,0.0006835754029452801,-0.00558211887255311,0.023361345753073692
416.0,0.0,0.0,0.0,0.0,0.0,0.0,-0.002096162410452962,0.0006506285862997174,-0.003695022314786911,0.999693751335144,0.0008064916473813355,-0.005792461335659027,0.024047119542956352
417.0,0.0,0.0,0.0,0.0,0.0,0.0,-0.0011808039853349328,-0.003009936073794961,-0.0016909865662455559,0.999639093875885,0.0010323917958885431,-0.0064657870680093765,0.026054155081510544
418.0,0.0,0.0,0.0,0.0,0.0,0.0,-0.006023779045790434,0.007111625280231237,0.0035281202290207148,0.9996134042739868,0.0005284285289235413,-0.005943413823843002,0.02715112641453743
419.0,0.0,0.0,0.0,0.0,0.0,0.0,-0.009311126545071602,0.010837800800800323,0.01260528527200222,0.9995810389518738,0.00046179554192349315,-0.00544273154810071,0.02841801568865776
420.0,0.0,0.0,0.0,0.0,0.0,0.0,-0.005973275750875473,0.0037570029962807894,0.005776772741228342,0.9995208978652954,0.0010950496653094888,-0.00578060420230031,0.03038931079208851
421.0,0.0,0.0,0.0,0.0,0.0,0.0,-0.0010364176705479622,0.0006695378688164055,-0.0046156165190041065,0.9994997978210449,0.0011935790535062551,-0.005802447441965342,0.031063701957464218
422.0,0.0,0.0,0.0,0.0,0.0,0.0,-0.0013845129869878292,0.000422255223384127,-0.00040752303902991116,0.9994896650314331,0.0014032515464350581,-0.005904762540012598,0.03135902062058449
423.0,0.0,0.0,0.0,0.0,0.0,0.0,-0.0022807500790804625,-0.0022463202476501465,4.153943882556632e-05,0.9995006918907166,0.0013382816687226295,-0.005586677230894566,0.031073307618498802
424.0,0.0,0.0,0.0,0.0,0.0,0.0,-0.002556195016950369,-0.0018856724491342902,0.003937471657991409,0.9995583295822144,0.00045853955089114606,-0.004285657312721014,0.02940201386809349
425.0,0.0,0.0,0.0,0.0,0.0,0.0,-0.0034406986087560654,0.002700050361454487,0.003966918680816889,0.9995777010917664,0.0007239902042783797,-0.004393701907247305,0.028711654245853424
426.0,0.0,0.0,0.0,0.0,0.0,0.0,-0.0068780817091465,-0.008320339024066925,0.004024829249829054,0.9996026158332825,0.0005003599799238145,-0.0040632677264511585,0.02789016254246235
427.0,0.0,0.0,0.0,0.0,0.0,0.0,-0.003542202292010188,-0.005471132695674896,0.0017694428097456694,0.9996384382247925,-0.00026078143855556846,-0.0030713125597685575,0.026707995682954788
428.0,0.0,0.0,0.0,0.0,0.0,0.0,0.0007351369131356478,-0.006082646548748016,-0.004825793672353029,0.9996416568756104,-0.0005621604504995048,-0.002620250917971134,0.026633920148015022
429.0,0.0,0.0,0.0,0.0,0.0,0.0,0.0005871336325071752,-0.007030741777271032,-0.015402561984956264,0.9996343851089478,-0.0011597351403906941,-0.002589668845757842,0.026886815205216408
430.0,0.0,0.0,0.0,0.0,0.0,0.0,-0.006561462767422199,-0.004358000122010708,0.0035988767631351948,0.9996234774589539,-0.0018440807471051812,-0.0019189899321645498,0.027307653799653053
431.0,0.0,0.0,0.0,0.0,0.0,0.0,0.0013603916158899665,-0.003061233554035425,-0.010602208785712719,0.9996256828308105,-0.002511077094823122,-0.0011883837869390845,0.02721676044166088
432.0,0.0,0.0,0.0,0.0,0.0,0.0,0.0001101504240068607,-0.004277201369404793,-0.01134983729571104,0.9996397495269775,-0.003050638362765312,-0.0006074561388231814,0.02666129358112812
433.0,0.0,0.0,0.0,0.0,0.0,0.0,-0.006816322915256023,-0.0030075202230364084,0.00868257787078619,0.9996420741081238,-0.0026618402916938066,-0.0015603435458615422,0.02657131850719452
434.0,0.0,0.0,0.0,0.0,0.0,0.0,-0.0068748099729418755,-0.0040273298509418964,0.005146596115082502,0.9996536374092102,-0.0022023224737495184,-0.002277482533827424,0.026124440133571625
435.0,0.0,0.0,0.0,0.0,0.0,0.0,-0.004171980544924736,-0.002434033900499344,0.002069072797894478,0.9996923804283142,-0.0025428486987948418,-0.001653820974752307,0.024619098752737045
436.0,0.0,0.0,0.0,0.0,0.0,0.0,-0.004157636314630508,-0.0025865293573588133,0.004735876340419054,0.9996980428695679,-0.0026804336812347174,-0.0014983704313635826,0.024377213791012764
437.0,0.0,0.0,0.0,0.0,0.0,0.0,-0.0017909726593643427,-0.0033582381438463926,-0.0023354189470410347,0.999690055847168,-0.002659320831298828,-0.0022621036041527987,0.02464962564408779
438.0,0.0,0.0,0.0,0.0,0.0,0.0,0.0009038780117407441,-0.002893519587814808,-0.006561370566487312,0.9996939301490784,-0.0027935090474784374,-0.002537136198952794,0.024446701630949974
439.0,0.0,0.0,0.0,0.0,0.0,0.0,-0.0005976343527436256,-0.0013663095887750387,-0.0003932960971724242,0.9996776580810547,-0.002672456204891205,-0.003436126746237278,0.02501077391207218
440.0,0.0,0.0,0.0,0.0,0.0,0.0,-0.007677728310227394,0.004996761213988066,0.0038691358640789986,0.9996328949928284,-0.002432377077639103,-0.004022737964987755,0.026678303256630898
441.0,0.0,0.0,0.0,0.0,0.0,0.0,-0.01515460666269064,0.019873635843396187,0.026114553213119507,0.9995198249816895,-0.0019489256665110588,-0.0030097069684416056,0.03077773191034794
442.0,0.0,0.0,0.0,0.0,0.0,0.0,-0.009262066334486008,0.01578722707927227,0.016631538048386574,0.9993950128555298,-0.0021442805882543325,-0.0005570611101575196,0.03470774367451668
443.0,0.0,0.0,0.0,0.0,0.0,0.0,0.0007923577213659883,0.011482186615467072,-0.017600247636437416,0.9992956519126892,-0.002176289213821292,0.001511384267359972,0.037434421479701996
444.0,0.0,0.0,0.0,0.0,0.0,0.0,-0.0021957687567919493,0.010909470729529858,-0.010319552384316921,0.9991757869720459,-0.002202106174081564,0.0031360562425106764,0.040407050400972366
445.0,0.0,0.0,0.0,0.0,0.0,0.0,0.0026783128269016743,0.00217946944758296,-0.001533745089545846,0.9990852475166321,-0.0019468053942546248,0.003498126519843936,0.04257329925894737
446.0,0.0,0.0,0.0,0.0,0.0,0.0,0.004635229706764221,-0.0007540999795310199,-0.002915604505687952,0.9990251660346985,-0.001409413293004036,0.0038910191506147385,0.04394736513495445
447.0,0.0,0.0,0.0,0.0,0.0,0.0,0.0009139803587459028,3.9446989831048995e-05,0.0015140738105401397,0.9989628195762634,-0.0006387415924109519,0.004196907393634319,0.0453336164355278
448.0,0.0,0.0,0.0,0.0,0.0,0.0,0.0011429613223299384,0.000651917711365968,0.00989211443811655,0.9989211559295654,6.252675666473806e-05,0.0032309722155332565,0.04632324352860451
449.0,0.0,0.0,0.0,0.0,0.0,0.0,0.0031798023264855146,-0.0016174266347661614,0.003762036794796586,0.9988895058631897,0.000523636641446501,0.001984209520742297,0.04706747457385063
450.0,0.0,0.0,0.0,0.0,0.0,0.0,0.010896489024162292,-0.005939066410064697,-0.008419129066169262,0.9989393353462219,3.990329059888609e-05,0.0018479317659512162,0.04600752517580986
451.0,0.0,0.0,0.0,0.0,0.0,0.0,0.004807991441339254,-0.002436242066323757,-0.0016122881788760424,0.9990317225456238,-0.00010389395174570382,0.0008759656921029091,0.0439881756901741
452.0,0.0,0.0,0.0,0.0,0.0,0.0,-0.01087025087326765,0.0026372054126113653,0.021378912031650543,0.9990666508674622,0.00016743791638873518,-0.0005528186447918415,0.04318763688206673
453.0,0.0,0.0,0.0,0.0,0.0,0.0,-0.009718374349176884,0.0009506657952442765,0.01121202576905489,0.9991387128829956,0.00026332857669331133,-0.0011604848550632596,0.041474707424640656
454.0,0.0,0.0,0.0,0.0,0.0,0.0,-0.012185621075332165,0.0023615718819200993,0.010306956246495247,0.9992193579673767,0.0005608444334939122,-0.0019411557586863637,0.03945377841591835
455.0,0.0,0.0,0.0,0.0,0.0,0.0,-0.005703816190361977,-0.0060747843235731125,0.00016126336413435638,0.9992630481719971,0.0006843627779744565,-0.0023155768867582083,0.038308680057525635
456.0,0.0,0.0,0.0,0.0,0.0,0.0,0.0004905230598524213,-0.0036453770007938147,-0.0016447582747787237,0.9993330240249634,0.0005395282059907913,-0.0025453432463109493,0.03642186522483826
457.0,0.0,0.0,0.0,0.0,0.0,0.0,-0.0016624320996925235,-0.006824679672718048,0.0018166042864322662,0.9993880987167358,0.00045808011782355607,-0.002988551976159215,0.034848324954509735
458.0,0.0,0.0,0.0,0.0,0.0,0.0,-0.001310253981500864,-0.010003774426877499,-0.001131103141233325,0.9994235038757324,0.00015689498104620725,-0.003128491109237075,0.033804167062044144
459.0,0.0,0.0,0.0,0.0,0.0,0.0,-0.004329279996454716,-0.0029571829363703728,0.00329518411308527,0.9994632601737976,-0.00021192585700191557,-0.002544187009334564,0.03266080841422081
460.0,0.0,0.0,0.0,0.0,0.0,0.0,-0.006562467664480209,-0.000762410752940923,0.008061687462031841,0.9994910359382629,-0.0007291966467164457,-0.0013839585008099675,0.031860873103141785
461.0,0.0,0.0,0.0,0.0,0.0,0.0,-0.0012329950695857406,-0.0037064363714307547,0.0006131191621534526,0.9994924068450928,-0.0007580881356261671,-0.0007212484488263726,0.03184167295694351
462.0,0.0,0.0,0.0,0.0,0.0,0.0,0.001309140119701624,-0.0033714990131556988,-0.006159588228911161,0.9995057582855225,-0.0008779198979027569,0.00022157041530590504,0.031421318650245667
463.0,0.0,0.0,0.0,0.0,0.0,0.0,0.004308456555008888,-0.005054107867181301,-0.0027802344411611557,0.9995166659355164,-0.0009439911809749901,0.0009410939528606832,0.031061822548508644
464.0,0.0,0.0,0.0,0.0,0.0,0.0,0.0037869105581194162,-0.0019931758288294077,-0.005426397547125816,0.9995193481445312,-0.0007617765804752707,0.001481476123444736,0.030953653156757355
465.0,0.0,0.0,0.0,0.0,0.0,0.0,0.0019736499525606632,0.0022317790426313877,-0.010176824405789375,0.9995191097259521,-0.0005193826509639621,0.002226924989372492,0.03092229925096035
466.0,0.0,0.0,0.0,0.0,0.0,0.0,0.002231299178674817,0.004728659521788359,-0.008348758332431316,0.9995026588439941,0.000345625972840935,0.0024548580404371023,0.031437117606401443
467.0,0.0,0.0,0.0,0.0,0.0,0.0,0.003176338504999876,0.006794349290430546,-0.0032976872753351927,0.9994921684265137,0.0010126857087016106,0.0027558812871575356,0.031730372458696365
468.0,0.0,0.0,0.0,0.0,0.0,0.0,0.007050848565995693,0.0021628784015774727,-0.009280011989176273,0.9994989633560181,0.0014108788454905152,0.0029551959596574306,0.0314810574054718
469.0,0.0,0.0,0.0,0.0,0.0,0.0,0.005662520416080952,0.00412398437038064,-0.004918377846479416,0.9995018839836121,0.00221735006198287,0.0020747885573655367,0.031413208693265915
470.0,0.0,0.0,0.0,0.0,0.0,0.0,0.0014097091043367982,0.005875628907233477,-0.00014471751637756824,0.9994872212409973,0.003168828319758177,0.0011078647803515196,0.03184680640697479
471.0,0.0,0.0,0.0,0.0,0.0,0.0,0.002773798769339919,0.00023039845109451562,-0.00664150295779109,0.9994766712188721,0.004348180256783962,-0.00010704869055189192,0.03205261752009392
472.0,0.0,0.0,0.0,0.0,0.0,0.0,0.0016503222286701202,0.003760105697438121,-0.000541413202881813,0.9994825124740601,0.005309380125254393,-0.000706673483364284,0.03171602264046669
473.0,0.0,0.0,0.0,0.0,0.0,0.0,0.00019648355373647064,-0.0025911894626915455,0.007790774572640657,0.9995156526565552,0.005425478797405958,-0.00017811229918152094,0.03064575232565403
474.0,0.0,0.0,0.0,0.0,0.0,0.0,0.0012504971818998456,0.0025444324128329754,0.005345245823264122,0.9995138645172119,0.0059518408961594105,6.596026651095599e-05,0.030601108446717262
475.0,0.0,0.0,0.0,0.0,0.0,0.0,0.001993353944271803,-0.000320255960104987,0.007232882082462311,0.9994943737983704,0.0070901974104344845,-0.0008911050972528756,0.03097902424633503
476.0,0.0,0.0,0.0,0.0,0.0,0.0,0.002893220167607069,-0.00727728521451354,-0.0002727862447500229,0.9994903206825256,0.0077385203912854195,-0.0019932349678128958,0.030906345695257187
477.0,0.0,0.0,0.0,0.0,0.0,0.0,0.0017592014046385884,-0.005757942795753479,-0.0014271249528974295,0.99949049949646,0.008084992878139019,-0.0031213639304041862,0.030720343813300133
478.0,0.0,0.0,0.0,0.0,0.0,0.0,0.0008314538281410933,-0.0021277277264744043,0.0003156544698867947,0.9995372295379639,0.007582437712699175,-0.0033807873260229826,0.029266448691487312
479.0,0.0,0.0,0.0,0.0,0.0,0.0,-0.0051624346524477005,-0.0017090520123019814,0.008643975481390953,0.9995666742324829,0.007659805007278919,-0.004572535399347544,0.02805224433541298
480.0,0.0,0.0,0.0,0.0,0.0,0.0,-0.003519921563565731,-0.004938147962093353,0.003974009770900011,0.9996113181114197,0.007237642537802458,-0.00493723014369607,0.026459457352757454
481.0,0.0,0.0,0.0,0.0,0.0,0.0,-0.004452635068446398,-0.003672933904454112,0.01197084505110979,0.9996652007102966,0.006360009778290987,-0.004130878020077944,0.024738339707255363
482.0,0.0,0.0,0.0,0.0,0.0,0.0,-0.0018868868937715888,0.0006538041634485126,0.012179325334727764,0.9996728301048279,0.005908756982535124,-0.0037635616026818752,0.02459506131708622
483.0,0.0,0.0,0.0,0.0,0.0,0.0,0.0014792303554713726,-0.003768262220546603,-0.0012571086408570409,0.9996958374977112,0.005506947170943022,-0.0035327780060470104,0.023777522146701813
484.0,0.0,0.0,0.0,0.0,0.0,0.0,-0.000986592029221356,-0.009142438881099224,0.002262017922475934,0.999710738658905,0.004856514278799295,-0.0026179468259215355,0.02340782806277275
485.0,0.0,0.0,0.0,0.0,0.0,0.0,-5.263836283120327e-05,-0.005170278251171112,-0.009651398286223412,0.9996875524520874,0.0045392573811113834,-0.0023896985221654177,0.02446010336279869
486.0,0.0,0.0,0.0,0.0,0.0,0.0,-0.0006581009365618229,0.000308344722725451,-0.008873983286321163,0.9996535778045654,0.004151876550167799,-0.0021327021531760693,0.025905394926667213
487.0,0.0,0.0,0.0,0.0,0.0,0.0,-0.003494784003123641,-0.003737791208550334,0.0037314826622605324,0.9995532035827637,0.0034066117368638515,-0.0016229687025770545,0.029645180329680443
488.0,0.0,0.0,0.0,0.0,0.0,0.0,0.0005673115374520421,0.006007839925587177,-0.009347326122224331,0.999493420124054,0.0028196724597364664,-0.0014604574535042048,0.03166353702545166
489.0,0.0,0.0,0.0,0.0,0.0,0.0,-0.0016162196407094598,0.003934228327125311,-0.0025840564630925655,0.9994969367980957,0.0027763424441218376,-0.001661791349761188,0.0315486341714859
490.0,0.0,0.0,0.0,0.0,0.0,0.0,-0.004069661255925894,0.012327518314123154,0.020171506330370903,0.9995093941688538,0.0024512449745088816,-0.0011177945416420698,0.031201522797346115
491.0,0.0,0.0,0.0,0.0,0.0,0.0,-0.004478503484278917,0.015201209113001823,0.021347438916563988,0.9995132684707642,0.0026329534593969584,-0.00044256076216697693,0.031082062050700188
492.0,0.0,0.0,0.0,0.0,0.0,0.0,7.038144394755363e-05,0.01061561144888401,0.00099462759681046,0.9994977116584778,0.003499558661133051,-0.0007040774798952043,0.03148661553859711
493.0,0.0,0.0,0.0,0.0,0.0,0.0,0.006416216026991606,0.0003219410718884319,-0.005492097698152065,0.9995136260986328,0.0039697675965726376,-0.0006265395786613226,0.030923759564757347
494.0,0.0,0.0,0.0,0.0,0.0,0.0,0.005934238899499178,0.004650614224374294,-0.0031942708883434534,0.9995041489601135,0.004325196146965027,-0.0007606585277244449,0.031173987314105034
495.0,0.0,0.0,0.0,0.0,0.0,0.0,0.004363981541246176,0.005843979772180319,-0.006672476418316364,0.9995034337043762,0.0045078652910888195,-0.0008696630829945207,0.03116777166724205
496.0,0.0,0.0,0.0,0.0,0.0,0.0,0.0005258378223516047,-0.009243570268154144,-0.004407384432852268,0.9994636178016663,0.004550912417471409,-0.0010906157549470663,0.03241187706589699
497.0,0.0,0.0,0.0,0.0,0.0,0.0,8.398430509259924e-05,0.006107466295361519,-0.0016026643570512533,0.9993608593940735,0.00509961973875761,-0.0018615094013512135,0.0353328175842762
498.0,0.0,0.0,0.0,0.0,0.0,0.0,-0.008313534781336784,0.01705239713191986,0.00731497211381793,0.9993175268173218,0.0060942270793020725,-0.0033611729741096497,0.036276061087846756
499.0,0.0,0.0,0.0,0.0,0.0,0.0,-0.011637442745268345,-0.005687098018825054,0.004812534432858229,0.9992866516113281,0.006544436793774366,-0.003658220637589693,0.03701058030128479
500.0,0.0,0.0,0.0,0.0,0.0,0.0,-0.010425292886793613,0.0012064920738339424,0.003766789799556136,0.9992464780807495,0.0064941090531647205,-0.0029782496858388186,0.03814950957894325
501.0,0.0,0.0,0.0,0.0,0.0,0.0,-0.008341177366673946,-0.001063237083144486,-0.004498585127294064,0.999204158782959,0.006443950347602367,-0.002931824652478099,0.03925154730677605
502.0,0.0,0.0,0.0,0.0,0.0,0.0,-0.00843236967921257,-0.0018571821274235845,-0.003932864870876074,0.9991647005081177,0.006431078538298607,-0.0027135254349559546,0.04026137292385101
503.0,0.0,0.0,0.0,0.0,0.0,0.0,-0.006140123587101698,-0.007277754135429859,-0.014338551089167595,0.9991682767868042,0.00576433539390564,-0.0022175186313688755,0.04030292108654976
504.0,0.0,0.0,0.0,0.0,0.0,0.0,-0.005505637731403112,-0.00689306203275919,-0.009500144049525261,0.9991928935050964,0.004995746072381735,-0.002047809772193432,0.03980718180537224
505.0,0.0,0.0,0.0,0.0,0.0,0.0,-0.013605715706944466,0.0021142412442713976,0.016232548281550407,0.9992078542709351,0.004483734257519245,-0.001398825435899198,0.039517998695373535
506.0,0.0,0.0,0.0,0.0,0.0,0.0,-0.012091767974197865,-0.0027373172342777252,0.014593375846743584,0.9992104172706604,0.004150611348450184,-0.0010192056652158499,0.039502594619989395
507.0,0.0,0.0,0.0,0.0,0.0,0.0,-0.009663564153015614,-0.003235021373257041,0.004319437779486179,0.9992150068283081,0.003957753535360098,-8.132064249366522e-05,0.0394153855741024
508.0,0.0,0.0,0.0,0.0,0.0,0.0,-0.006046572234481573,-0.003743284149095416,-0.005371773149818182,0.9992145895957947,0.004329451359808445,0.0006989369285292923,0.039381179958581924
509.0,0.0,0.0,0.0,0.0,0.0,0.0,-0.0029647473711520433,-0.005077186040580273,-0.007247091270983219,0.9991998076438904,0.004780761897563934,0.0010536181507632136,0.03969762846827507
510.0,0.0,0.0,0.0,0.0,0.0,0.0,-0.0029108242597430944,-0.008851137012243271,-0.0043782261200249195,0.9991733431816101,0.005326463840901852,0.0008813804597593844,0.04029102995991707
511.0,0.0,0.0,0.0,0.0,0.0,0.0,0.0002464322024025023,-0.008370775729417801,-0.0059971255250275135,0.9992096424102783,0.004674662370234728,0.001978408545255661,0.03942124545574188
512.0,0.0,0.0,0.0,0.0,0.0,0.0,0.0027902047149837017,-0.003250163746997714,-0.008982529863715172,0.9992733001708984,0.003612792119383812,0.0036184778437018394,0.03777243196964264
513.0,0.0,0.0,0.0,0.0,0.0,0.0,0.002916249679401517,0.0010097080375999212,-0.007331386208534241,0.999298632144928,0.0029285945929586887,0.004368835594505072,0.03707515075802803
514.0,0.0,0.0,0.0,0.0,0.0,0.0,0.002928114729002118,0.00011302895291009918,-0.006200549658387899,0.999300479888916,0.0030919916462153196,0.004060921724885702,0.03704703971743584
515.0,0.0,0.0,0.0,0.0,0.0,0.0,0.0033479533158242702,-0.00299564516171813,-0.005119068548083305,0.9992828965187073,0.0034190802834928036,0.003626823192462325,0.03753781318664551
516.0,0.0,0.0,0.0,0.0,0.0,0.0,0.00044754237751476467,0.0008687282097525895,-0.0020881020464003086,0.9992285370826721,0.0035679691936820745,0.003030311781913042,0.03899131715297699
517.0,0.0,0.0,0.0,0.0,0.0,0.0,-2.587648486951366e-05,0.0016942421207204461,0.004732598550617695,0.9991978406906128,0.0032936015632003546,0.0027819632086902857,0.03981154039502144
518.0,0.0,0.0,0.0,0.0,0.0,0.0,0.0029000090435147285,0.004022643901407719,0.001770565751940012,0.9992333650588989,0.0027224349323660135,0.0029671958182007074,0.03893861174583435
519.0,0.0,0.0,0.0,0.0,0.0,0.0,0.005244195461273193,-0.0028876736760139465,-0.001542667392641306,0.9992705583572388,0.002502444200217724,0.0020244300831109285,0.03805006667971611
520.0,0.0,0.0,0.0,0.0,0.0,0.0,0.005274694412946701,-0.0008421462844125926,0.014541183598339558,0.9992817044258118,0.001994532998651266,0.0018966831266880035,0.03779473155736923
521.0,0.0,0.0,0.0,0.0,0.0,0.0,0.0019241193076595664,0.006541260983794928,0.01806623861193657,0.9993183016777039,0.0013723134761676192,0.0018233723239973187,0.036844365298748016
522.0,0.0,0.0,0.0,0.0,0.0,0.0,0.002721223281696439,0.0016628846060484648,0.018284820020198822,0.9993335604667664,0.0019708648324012756,0.0008203809265978634,0.036436527967453
523.0,0.0,0.0,0.0,0.0,0.0,0.0,0.002270688535645604,0.001116989180445671,0.011426916345953941,0.9993411302566528,0.0025610176380723715,0.00019985406834166497,0.036200329661369324
524.0,0.0,0.0,0.0,0.0,0.0,0.0,0.0041922288946807384,-0.0018686432158574462,0.010395176708698273,0.9993354082107544,0.0028105759993195534,0.00014385902613867074,0.0363391749560833
525.0,0.0,0.0,0.0,0.0,0.0,0.0,0.0048331934958696365,-0.0015634747687727213,0.004086778033524752,0.9993146657943726,0.0028977002948522568,0.00042499994742684066,0.03689629212021828
526.0,0.0,0.0,0.0,0.0,0.0,0.0,0.0020236747805029154,0.0026438480708748102,-0.0003424769383855164,0.9992827773094177,0.003134540282189846,0.000936327560339123,0.03772544860839844
527.0,0.0,0.0,0.0,0.0,0.0,0.0,-0.001691664569079876,0.002207694575190544,0.006082872394472361,0.9992400407791138,0.0031414958648383617,0.0016472554998472333,0.0388149656355381
528.0,0.0,0.0,0.0,0.0,0.0,0.0,0.001219920115545392,-0.00012037176929879934,-0.004133226349949837,0.9992244839668274,0.0030376343056559563,0.003115458879619837,0.03913429379463196
529.0,0.0,0.0,0.0,0.0,0.0,0.0,0.0032660658471286297,0.005610131658613682,-0.01537315733730793,0.9992020130157471,0.002870358992367983,0.004308897070586681,0.039601121097803116
530.0,0.0,0.0,0.0,0.0,0.0,0.0,-0.00024239224148914218,0.009329326450824738,-0.011858451180160046,0.9991767406463623,0.002935361349955201,0.005336569156497717,0.04010846093297005
531.0,0.0,0.0,0.0,0.0,0.0,0.0,-0.0019290870986878872,0.008050652220845222,-0.0014627495547756553,0.9991621971130371,0.0026722063776105642,0.0057473741471767426,0.04042917862534523
532.0,0.0,0.0,0.0,0.0,0.0,0.0,0.0029256902635097504,0.0033842932898551226,-0.006142792291939259,0.9991719126701355,0.0024350672028958797,0.0058409119956195354,0.04019354283809662
533.0,0.0,0.0,0.0,0.0,0.0,0.0,0.001963444519788027,-0.0006835052627138793,-0.005993155762553215,0.9991441369056702,0.003083815099671483,0.0051347422413527966,0.040927305817604065
534.0,0.0,0.0,0.0,0.0,0.0,0.0,-0.0026542204432189465,0.0029692475218325853,-0.0027996015269309282,0.9991436004638672,0.002981771482154727,0.005083403084427118,0.040953755378723145
535.0,0.0,0.0,0.0,0.0,0.0,0.0,-0.00013124581892043352,0.0035626308526843786,-0.0012516052229329944,0.9991816282272339,0.002637211699038744,0.005203319247812033,0.040022268891334534
536.0,0.0,0.0,0.0,0.0,0.0,0.0,-0.0025783691089600325,-0.0071569811552762985,0.003406804520636797,0.9992092251777649,0.0022813945543020964,0.005352951120585203,0.039330266416072845
537.0,0.0,0.0,0.0,0.0,0.0,0.0,0.002214288804680109,-0.006294284015893936,0.004096257500350475,0.9992425441741943,0.001839548465795815,0.00631705904379487,0.03835579752922058
538.0,0.0,0.0,0.0,0.0,0.0,0.0,0.0038692806847393513,-0.0026072529144585133,-0.00374972028657794,0.9992835521697998,0.0019566386472433805,0.00645878491923213,0.03723748028278351
539.0,0.0,0.0,0.0,0.0,0.0,0.0,-0.00032928725704550743,4.303567766328342e-05,-0.0054451096802949905,0.999315083026886,0.0025236508809030056,0.006638681516051292,0.03631693497300148
540.0,0.0,0.0,0.0,0.0,0.0,0.0,0.002863857662305236,-0.006359671242535114,-0.004513718653470278,0.9993320107460022,0.003313962835818529,0.0059962100349366665,0.035892270505428314
541.0,0.0,0.0,0.0,0.0,0.0,0.0,0.0012991642579436302,-0.019273720681667328,-0.01034341100603342,0.999376654624939,0.003649435006082058,0.004741088021546602,0.0347939133644104
542.0,0.0,0.0,0.0,0.0,0.0,0.0,-0.0023300559259951115,-0.017398592084646225,0.0005306125967763364,0.9994564056396484,0.0031578128691762686,0.004247101489454508,0.032542161643505096
543.0,0.0,0.0,0.0,0.0,0.0,0.0,0.00789346732199192,-0.011471478268504143,-0.019666269421577454,0.9995542764663696,0.0024592960253357887,0.00401496235281229,0.029477622359991074
544.0,0.0,0.0,0.0,0.0,0.0,0.0,-0.001694042468443513,0.0012165890075266361,-0.0028907444793730974,0.9996252059936523,0.0020490004681050777,0.003256053663790226,0.02710004895925522
545.0,0.0,0.0,0.0,0.0,0.0,0.0,-0.013340910896658897,0.015601028688251972,0.017299719154834747,0.999684751033783,0.0015206412645056844,0.003086706390604377,0.02487196959555149
546.0,0.0,0.0,0.0,0.0,0.0,0.0,-0.004519158508628607,0.011540563777089119,0.0041613392531871796,0.9997298121452332,0.0013634455390274525,0.0027743815444409847,0.023034751415252686
547.0,0.0,0.0,0.0,0.0,0.0,0.0,0.00218782527372241,0.00744481198489666,-0.0018602923955768347,0.9997657537460327,0.0011442980030551553,0.002261260524392128,0.021487869322299957
548.0,0.0,0.0,0.0,0.0,0.0,0.0,0.0005567186162807047,0.008242130279541016,0.010163752362132072,0.9997764825820923,0.0011364729143679142,0.0016524733509868383,0.021041885018348694
549.0,0.0,0.0,0.0,0.0,0.0,0.0,0.003025246784090996,0.009837362915277481,0.011053808964788914,0.999783992767334,0.001098871580325067,0.0016633369959890842,0.020683296024799347
550.0,0.0,0.0,0.0,0.0,0.0,0.0,0.007280795834958553,0.010700811631977558,0.007465263828635216,0.9998122453689575,0.00040261278627440333,0.0025668859016150236,0.019200440496206284
551.0,0.0,0.0,0.0,0.0,0.0,0.0,0.009603669866919518,0.007417325396090746,0.0051686461083590984,0.9998349547386169,0.00040132677531801164,0.0027378671802580357,0.01795313134789467
552.0,0.0,0.0,0.0,0.0,0.0,0.0,0.00889197550714016,0.009527556598186493,0.009246653877198696,0.9998521208763123,0.0007563284016214311,0.0020122297573834658,0.017063871026039124
553.0,0.0,0.0,0.0,0.0,0.0,0.0,0.004714605864137411,0.007834473624825478,0.014699381776154041,0.9998594522476196,0.0009276711498387158,0.0014615512918680906,0.016670426353812218
554.0,0.0,0.0,0.0,0.0,0.0,0.0,0.007606756407767534,0.005760651547461748,0.007292848080396652,0.9998558759689331,0.0006808486068621278,0.0017874337499961257,0.016871478408575058
555.0,0.0,0.0,0.0,0.0,0.0,0.0,0.010610649362206459,-0.0010766637278720737,-0.009192529134452343,0.9998548030853271,4.8205234634224325e-05,0.001758676371537149,0.01694779098033905
556.0,0.0,0.0,0.0,0.0,0.0,0.0,0.006489274092018604,0.003903129370883107,-0.001955123385414481,0.9998282790184021,-0.00027615897124633193,0.0021154333371669054,0.018404163420200348
557.0,0.0,0.0,0.0,0.0,0.0,0.0,0.006303091067820787,0.0038927101995795965,-0.0028499732725322247,0.9997718334197998,-0.0004730903310701251,0.002399930264800787,0.021219562739133835
558.0,0.0,0.0,0.0,0.0,0.0,0.0,0.001943917595781386,0.011409667320549488,0.012044529430568218,0.9996562004089355,-0.0007846613880246878,0.0031949118711054325,0.026011886075139046
559.0,0.0,0.0,0.0,0.0,0.0,0.0,0.007601952645927668,0.013749039731919765,0.0027642238419502974,0.9995681643486023,-0.001612114137969911,0.005338503047823906,0.028851989656686783
560.0,0.0,0.0,0.0,0.0,0.0,0.0,0.01602054014801979,0.0035527804866433144,-0.017975013703107834,0.9995564818382263,-0.002466472564265132,0.007135364692658186,0.028805488720536232
561.0,0.0,0.0,0.0,0.0,0.0,0.0,0.008481478318572044,0.0011790143325924873,-0.0009794054785743356,0.999553918838501,-0.002322852611541748,0.006807687692344189,0.028983980417251587
562.0,0.0,0.0,0.0,0.0,0.0,0.0,0.0007904917583800852,0.004251512698829174,0.024055471643805504,0.9995405077934265,-0.001730696065351367,0.006558643188327551,0.029540924355387688
563.0,0.0,0.0,0.0,0.0,0.0,0.0,0.0055432673543691635,0.0019970384892076254,0.010591785423457623,0.9995212554931641,-0.001703730784356594,0.007252403534948826,0.03002982772886753
564.0,0.0,0.0,0.0,0.0,0.0,0.0,0.013187620788812637,-0.0010063361842185259,-0.011976593174040318,0.9995216131210327,-0.0020322217606008053,0.007711402140557766,0.02988390251994133
565.0,0.0,0.0,0.0,0.0,0.0,0.0,0.013503456488251686,-0.0008023694972507656,-0.009276906959712505,0.9995442628860474,-0.002646692330017686,0.008048747666180134,0.028968583792448044
566.0,0.0,0.0,0.0,0.0,0.0,0.0,0.01089230366051197,0.003310184460133314,0.002271593315526843,0.9995600581169128,-0.002819271292537451,0.007995781488716602,0.028420167043805122
567.0,0.0,0.0,0.0,0.0,0.0,0.0,0.011926994659006596,0.004108536057174206,0.003508885158225894,0.9995678067207336,-0.0027361882384866476,0.007806750014424324,0.02820753864943981
568.0,0.0,0.0,0.0,0.0,0.0,0.0,0.012813054956495762,0.008354495279490948,0.007441661320626736,0.9995865225791931,-0.0027155771385878325,0.007779369130730629,0.02754492498934269
569.0,0.0,0.0,0.0,0.0,0.0,0.0,0.007983880117535591,0.0032263556495308876,0.01185307465493679,0.9995622038841248,-0.002797893714159727,0.00767641281709075,0.028434166684746742
570.0,0.0,0.0,0.0,0.0,0.0,0.0,0.011990497820079327,0.008567044511437416,0.003118731314316392,0.9995161890983582,-0.0022567331325262785,0.007492509204894304,0.030098656192421913
571.0,0.0,0.0,0.0,0.0,0.0,0.0,0.011552411131560802,0.006385395769029856,0.0011717521119862795,0.9994511604309082,-0.001883402350358665,0.006931711919605732,0.03233503922820091
572.0,0.0,0.0,0.0,0.0,0.0,0.0,0.008606568910181522,0.005006647668778896,-0.0013117999769747257,0.9993913769721985,-0.0015086793573573232,0.00582377053797245,0.03435831516981125
573.0,0.0,0.0,0.0,0.0,0.0,0.0,0.0036492319777607918,0.00954895094037056,-0.0011295826407149434,0.9993733763694763,-0.002030914882197976,0.006074707023799419,0.03481196239590645
574.0,0.0,0.0,0.0,0.0,0.0,0.0,0.00666631106287241,0.004492098465561867,0.0016981272492557764,0.9993780851364136,-0.002475885208696127,0.006382952909916639,0.03459266945719719
575.0,0.0,0.0,0.0,0.0,0.0,0.0,0.0021172019187361,0.001818318385630846,0.0055945273488759995,0.9993754625320435,-0.0027931975200772285,0.006176277529448271,0.034681178629398346
576.0,0.0,0.0,0.0,0.0,0.0,0.0,-0.0007084328099153936,0.0033463125582784414,0.012122471816837788,0.9993824362754822,-0.0025483518838882446,0.006553643848747015,0.034427158534526825
577.0,0.0,0.0,0.0,0.0,0.0,0.0,0.0015173511346802115,-0.0010942636290565133,0.007649858016520739,0.9993609189987183,-0.0021313028410077095,0.007238434161990881,0.03493936359882355
578.0,0.0,0.0,0.0,0.0,0.0,0.0,0.004086341243237257,-0.001602467498742044,0.0034807396586984396,0.9993450045585632,-0.0018118491861969233,0.007986310869455338,0.03524744138121605
579.0,0.0,0.0,0.0,0.0,0.0,0.0,0.006420043762773275,-0.0013347893254831433,-0.0007244545849971473,0.9993448853492737,-0.00114289834164083,0.00843467190861702,0.03517599031329155
580.0,0.0,0.0,0.0,0.0,0.0,0.0,0.0077534508891403675,-0.003072039457038045,-0.00622075330466032,0.9993463754653931,-0.00113852194044739,0.008040282875299454,0.03522331267595291
581.0,0.0,0.0,0.0,0.0,0.0,0.0,0.00836725439876318,-0.009278908371925354,-0.015144668519496918,0.9993863701820374,-0.001501135528087616,0.0072126081213355064,0.03424239531159401
582.0,0.0,0.0,0.0,0.0,0.0,0.0,0.012949698604643345,-0.013924521394073963,-0.019362609833478928,0.9993968605995178,-0.002522424329072237,0.007087403908371925,0.03390336409211159
583.0,0.0,0.0,0.0,0.0,0.0,0.0,0.005513966083526611,0.011811264790594578,-0.006794951856136322,0.9994485378265381,-0.002884048270061612,0.0061017051339149475,0.0325121209025383
584.0,0.0,0.0,0.0,0.0,0.0,0.0,-0.01382710412144661,0.01650320366024971,0.022754816338419914,0.9995068907737732,-0.002055395394563675,0.0040573617443442345,0.031065434217453003
585.0,0.0,0.0,0.0,0.0,0.0,0.0,-0.016234776005148888,0.012538091279566288,0.030412137508392334,0.9995172619819641,-0.001754901371896267,0.0034839629661291838,0.030817514285445213
586.0,0.0,0.0,0.0,0.0,0.0,0.0,-0.004478125832974911,0.012870433740317822,0.011672771535813808,0.9995253682136536,-0.0017980451229959726,0.003742494387552142,0.030520429834723473
587.0,0.0,0.0,0.0,0.0,0.0,0.0,0.006243553478270769,0.0008490242180414498,-0.019162651151418686,0.9995390176773071,-0.0014822222292423248,0.0030511070508509874,0.03016749583184719
588.0,0.0,0.0,0.0,0.0,0.0,0.0,0.006894769612699747,-0.0019353197421878576,-0.016147397458553314,0.9995710253715515,-0.001592798507772386,0.0024269185960292816,0.029144462198019028
589.0,0.0,0.0,0.0,0.0,0.0,0.0,-0.0010598666267469525,0.003286208026111126,0.01483068335801363,0.9995986223220825,-0.0019651700276881456,0.0022869626991450787,0.028165770694613457
590.0,0.0,0.0,0.0,0.0,0.0,0.0,0.0008052843622863293,0.006995405536144972,-0.0027804342098534107,0.9996267557144165,-0.0020083512645214796,0.0029362926725298166,0.027083314955234528
591.0,0.0,0.0,0.0,0.0,0.0,0.0,-0.0010783510515466332,0.0055589983239769936,0.011600223369896412,0.9996427297592163,-0.0009196903556585312,0.0027228507678955793,0.02657586894929409
592.0,0.0,0.0,0.0,0.0,0.0,0.0,0.0016838221345096827,-0.0017280695028603077,0.012052609585225582,0.999636709690094,6.886390474392101e-05,0.0018022280419245362,0.026890544220805168
593.0,0.0,0.0,0.0,0.0,0.0,0.0,0.006680987309664488,-0.0036357599310576916,-0.009551060386002064,0.9996651411056519,0.0006487654172815382,0.0012114510172978044,0.02584255300462246
594.0,0.0,0.0,0.0,0.0,0.0,0.0,0.004235315602272749,-0.005044579040259123,-0.011306624859571457,0.9996544718742371,0.0017132529756054282,3.3270542189711705e-05,0.026227321475744247
595.0,0.0,0.0,0.0,0.0,0.0,0.0,-0.0025078202597796917,-0.00041182697168551385,-0.0015040732687339187,0.9996238946914673,0.0022415437269955873,-0.0004078205383848399,0.027329571545124054
596.0,0.0,0.0,0.0,0.0,0.0,0.0,-0.005704689770936966,0.004383774008601904,-0.0020093307830393314,0.9996258616447449,0.0020855695474892855,-2.4148414013325237e-05,0.0272707249969244
597.0,0.0,0.0,0.0,0.0,0.0,0.0,-0.005028513725847006,0.0033017315436154604,-0.005408482626080513,0.999614953994751,0.0022305131424218416,0.00035738121368922293,0.027652621269226074
598.0,0.0,0.0,0.0,0.0,0.0,0.0,-0.000694061687681824,-0.005174078978598118,-0.00991094671189785,0.9995996952056885,0.0022302044089883566,0.0006071237730793655,0.02819950319826603
599.0,0.0,0.0,0.0,0.0,0.0,0.0,-0.0005787285626865923,-0.0074184006080031395,-0.008444521576166153,0.999608039855957,0.0018611388513818383,0.0009305814164690673,0.027917936444282532
600.0,0.0,0.0,0.0,0.0,0.0,0.0,-0.0019912361167371273,-0.005697347689419985,0.0017485381104052067,0.9996297359466553,0.0013556929770857096,0.0017942647682502866,0.02711537480354309
601.0,0.0,0.0,0.0,0.0,0.0,0.0,0.00029829517006874084,-0.006861234083771706,-0.0009998125024139881,0.9996342062950134,0.0008027874282561243,0.0027482351288199425,0.026889242231845856
602.0,0.0,0.0,0.0,0.0,0.0,0.0,0.0009429615456610918,-0.006084431894123554,0.0007843436906114221,0.9996160864830017,0.0006570661207661033,0.0031573926098644733,0.02752292901277542
603.0,0.0,0.0,0.0,0.0,0.0,0.0,0.003471706761047244,-0.004481652285903692,-0.00192965567111969,0.9996026158332825,0.0005578952841460705,0.002961463062092662,0.02802618034183979
604.0,0.0,0.0,0.0,0.0,0.0,0.0,0.005972341168671846,-0.00747991818934679,-0.007541036233305931,0.9996047616004944,1.761215753504075e-05,0.0019868083763867617,0.02803867496550083
605.0,0.0,0.0,0.0,0.0,0.0,0.0,0.0018139439634978771,-0.008651879616081715,-0.005128593184053898,0.9996129870414734,-9.778133971849456e-05,0.00012428862100932747,0.027819164097309113
606.0,0.0,0.0,0.0,0.0,0.0,0.0,-0.004205677192658186,-0.004140154924243689,0.0048928027972579,0.9996381402015686,0.00030455400701612234,-0.001396839739754796,0.026860656216740608
607.0,0.0,0.0,0.0,0.0,0.0,0.0,-0.009929618798196316,-0.006336105987429619,0.012666060589253902,0.9996645450592041,-8.888040611054748e-05,-0.0017152802320197225,0.025843506678938866
608.0,0.0,0.0,0.0,0.0,0.0,0.0,-0.012855881825089455,0.004521124996244907,0.020441249012947083,0.9996716976165771,-0.00017943498096428812,-0.001744716428220272,0.025559647008776665
609.0,0.0,0.0,0.0,0.0,0.0,0.0,-0.010898591950535774,0.0028207844588905573,0.01387441623955965,0.9996614456176758,-7.54658758523874e-05,-0.0017958061071112752,0.02595807984471321
610.0,0.0,0.0,0.0,0.0,0.0,0.0,0.005001605022698641,-0.015501727350056171,-0.013033286668360233,0.9996335506439209,0.0003494192787911743,-0.0021758631337434053,0.026981299743056297
611.0,0.0,0.0,0.0,0.0,0.0,0.0,0.0024164763744920492,-0.005591820925474167,-0.005591980647295713,0.9996134638786316,0.00044565164716914296,-0.001705296104773879,0.02774159237742424
612.0,0.0,0.0,0.0,0.0,0.0,0.0,-0.002209913218393922,0.0007780296145938337,0.0015597393503412604,0.999557614326477,0.0010245785815641284,-0.000993004534393549,0.029705267399549484
613.0,0.0,0.0,0.0,0.0,0.0,0.0,-0.008667663671076298,0.004214867949485779,0.008224104531109333,0.999491810798645,0.0013547753915190697,0.00038035435136407614,0.03184506297111511
614.0,0.0,0.0,0.0,0.0,0.0,0.0,-0.006772865075618029,0.007372809574007988,0.004746361169964075,0.9994503855705261,0.0011496436782181263,0.003092115977779031,0.03298381343483925
615.0,0.0,0.0,0.0,0.0,0.0,0.0,0.006126402877271175,0.00015155044093262404,-0.01730719767510891,0.9994583129882812,0.0010993847390636802,0.004565741401165724,0.032576195895671844
616.0,0.0,0.0,0.0,0.0,0.0,0.0,0.003007241291925311,-0.004194288514554501,-0.019520852714776993,0.9995031952857971,0.0010950153227895498,0.0041679758578538895,0.03122279979288578
617.0,0.0,0.0,0.0,0.0,0.0,0.0,0.002221203176304698,-0.006268199533224106,-0.0021823938004672527,0.9995546340942383,0.0010490065906196833,0.0031754695810377598,0.029647646471858025
618.0,0.0,0.0,0.0,0.0,0.0,0.0,-0.000997752184048295,-0.0007958810892887414,-0.0007111643208190799,0.9996035099029541,0.0010292853694409132,0.0022211477626115084,0.028043964877724648
619.0,0.0,0.0,0.0,0.0,0.0,0.0,-0.009677107445895672,0.00526357302442193,0.001553686335682869,0.9996339678764343,0.0020675670821219683,-0.0001518453354947269,0.02696852572262287
620.0,0.0,0.0,0.0,0.0,0.0,0.0,-0.013082584366202354,0.002627146430313587,0.006049138028174639,0.9996548295021057,0.0025040479376912117,-0.001191422576084733,0.02612103335559368
621.0,0.0,0.0,0.0,0.0,0.0,0.0,-0.013485945761203766,0.016209058463573456,0.0048001911491155624,0.999696671962738,0.0026470383163541555,-0.001427832874469459,0.02443927340209484
622.0,0.0,0.0,0.0,0.0,0.0,0.0,-0.013570467941462994,0.005618839990347624,0.005272140726447105,0.9997039437294006,0.0033657001331448555,-0.002749354811385274,0.02393302135169506
623.0,0.0,0.0,0.0,0.0,0.0,0.0,-0.008698406629264355,-0.0027985954657197,-0.0008767127292230725,0.9996899366378784,0.00382843054831028,-0.004029813222587109,0.024265306070446968
624.0,0.0,0.0,0.0,0.0,0.0,0.0,-0.005577017553150654,-0.004149135667830706,0.006163790822029114,0.9996916055679321,0.0032635233364999294,-0.0040690782479941845,0.024273788556456566
625.0,0.0,0.0,0.0,0.0,0.0,0.0,0.0030450669582933187,-0.0038517042994499207,-0.01653641276061535,0.9997157454490662,0.0024961235467344522,-0.003962774761021137,0.023374265059828758
626.0,0.0,0.0,0.0,0.0,0.0,0.0,-0.0048189121298491955,-0.006193746346980333,0.005821356549859047,0.9997131824493408,0.0021576667204499245,-0.0037341564893722534,0.0235558170825243
627.0,0.0,0.0,0.0,0.0,0.0,0.0,-0.006290835328400135,-0.003160845721140504,0.018907202407717705,0.9996747970581055,0.001260165125131607,-0.0024969158694148064,0.025346141308546066
628.0,0.0,0.0,0.0,0.0,0.0,0.0,-0.009214174002408981,0.003611154854297638,0.015889829024672508,0.9995911121368408,0.0008882635738700628,-0.0008332285797223449,0.02856265939772129
629.0,0.0,0.0,0.0,0.0,0.0,0.0,-0.002851995173841715,0.004682844504714012,0.004965876694768667,0.9994743466377258,0.0007041074568405747,0.0015701026422902942,0.03237423673272133
630.0,0.0,0.0,0.0,0.0,0.0,0.0,0.008432410657405853,0.0011884248815476894,-0.01672424003481865,0.9993903040885925,0.000639932113699615,0.0029650083743035793,0.03478652238845825
631.0,0.0,0.0,0.0,0.0,0.0,0.0,0.005647534970194101,0.0015090674860402942,-0.00440302025526762,0.9993548393249512,0.00019860139582306147,0.0038642336148768663,0.035704512149095535
632.0,0.0,0.0,0.0,0.0,0.0,0.0,0.0009650778374634683,0.002911238232627511,0.008206764236092567,0.9993046522140503,-0.00014939435641281307,0.004264977760612965,0.03703876957297325
633.0,0.0,0.0,0.0,0.0,0.0,0.0,0.0015932722017168999,0.0025304544251412153,0.0031163471285253763,0.9992740750312805,-0.0005298573523759842,0.00449359929189086,0.03782510384917259
634.0,0.0,0.0,0.0,0.0,0.0,0.0,0.0028765015304088593,0.005401164293289185,0.004637307487428188,0.9992843866348267,-0.0008938387036323547,0.005045791622251272,0.03747429698705673
635.0,0.0,0.0,0.0,0.0,0.0,0.0,0.0027366429567337036,-0.00121499749366194,0.0031974483281373978,0.9993045926094055,-0.0011344276135787368,0.0051850732415914536,0.036904580891132355
636.0,0.0,0.0,0.0,0.0,0.0,0.0,0.0002152333181584254,-0.0008098507532849908,0.005285987630486488,0.9993066191673279,-0.0011178835993632674,0.005287932697683573,0.03683729097247124
637.0,0.0,0.0,0.0,0.0,0.0,0.0,-0.0006922914762981236,0.002581072738394141,0.0023368324618786573,0.9992972612380981,-0.0006830563652329147,0.005168515257537365,0.037117764353752136
638.0,0.0,0.0,0.0,0.0,0.0,0.0,-2.982948444696376e-06,-0.0019174468470737338,-0.004664262756705284,0.9992867708206177,-3.714063132065348e-05,0.004508242942392826,0.03749225661158562
639.0,0.0,0.0,0.0,0.0,0.0,0.0,-0.0009427388431504369,-0.005171201191842556,-0.009535947814583778,0.999284565448761,-5.152048834133893e-05,0.004061475396156311,0.037599243223667145
640.0,0.0,0.0,0.0,0.0,0.0,0.0,-0.0032046951819211245,-0.004827462136745453,-0.0046184188686311245,0.9992894530296326,-3.3319538488285616e-05,0.0030460115522146225,0.03756682574748993
641.0,0.0,0.0,0.0,0.0,0.0,0.0,-0.006239243783056736,-0.004524135962128639,-0.0011031348258256912,0.9992680549621582,0.0002941620768979192,0.0011469755554571748,0.038232266902923584
642.0,0.0,0.0,0.0,0.0,0.0,0.0,-0.010426159016788006,-0.005668513011187315,0.003166971495375037,0.9992818832397461,0.00024093472165986896,-2.7181031327927485e-05,0.03788751736283302
643.0,0.0,0.0,0.0,0.0,0.0,0.0,-0.010413527488708496,-0.0013325319159775972,0.008519873954355717,0.9993095993995667,-0.00032371599809266627,-0.0007112704333849251,0.03713800013065338
644.0,0.0,0.0,0.0,0.0,0.0,0.0,-0.009032553993165493,0.001316218520514667,0.008280706591904163,0.9993298053741455,-0.0005230015376582742,-0.001636715023778379,0.03656769543886185
645.0,0.0,0.0,0.0,0.0,0.0,0.0,-0.014487270265817642,0.002588993636891246,0.0182900819927454,0.9993464350700378,-0.00024301752273458987,-0.002614010591059923,0.03605371713638306
646.0,0.0,0.0,0.0,0.0,0.0,0.0,-0.00821281224489212,-0.0007202144479379058,0.012545913457870483,0.9993380904197693,-0.00025502502103336155,-0.002502601593732834,0.03628753870725632
647.0,0.0,0.0,0.0,0.0,0.0,0.0,-0.003792301518842578,0.0016640687827020884,0.00703916372731328,0.9993658661842346,-0.0004225688462611288,-0.00169566145632416,0.035564154386520386
648.0,0.0,0.0,0.0,0.0,0.0,0.0,-0.003962704446166754,0.00551696727052331,0.00972178764641285,0.9994178414344788,-0.0004738568386528641,0.0002839652297552675,0.034113407135009766
649.0,0.0,0.0,0.0,0.0,0.0,0.0,0.004778250120580196,0.0025492957793176174,-0.0045580496080219746,0.9994388222694397,-0.0005004120175726712,0.0022148359566926956,0.033414438366889954
650.0,0.0,0.0,0.0,0.0,0.0,0.0,0.011885818094015121,-0.004709700122475624,-0.016457004472613335,0.9994531273841858,0.00015582580817863345,0.0035844827070832253,0.0328703373670578
651.0,0.0,0.0,0.0,0.0,0.0,0.0,0.013583596795797348,-0.010646483860909939,-0.01991991698741913,0.9994472861289978,0.0012672781012952328,0.0039204987697303295,0.03298809379339218
652.0,0.0,0.0,0.0,0.0,0.0,0.0,0.01452337671071291,-0.007007197011262178,-0.0163279976695776,0.9994535446166992,0.0021583521738648415,0.004012072924524546,0.032733164727687836
653.0,0.0,0.0,0.0,0.0,0.0,0.0,0.013592793606221676,-0.0035172696225345135,-0.0057556102983653545,0.9994731545448303,0.0026991143822669983,0.004583506844937801,0.03201606124639511
654.0,0.0,0.0,0.0,0.0,0.0,0.0,0.01649392955005169,-0.007839696481823921,-0.014809191226959229,0.9994797706604004,0.003553466871380806,0.004160298965871334,0.03178609907627106
655.0,0.0,0.0,0.0,0.0,0.0,0.0,0.009668820537626743,-0.0062843444757163525,-0.010840519331395626,0.9994766712188721,0.00473204767331481,0.0030050778295844793,0.03184856101870537
656.0,0.0,0.0,0.0,0.0,0.0,0.0,-0.0022790224757045507,0.0021473343949764967,0.012077483348548412,0.999458372592926,0.005509344860911369,0.0024573274422436953,0.03234405443072319
657.0,0.0,0.0,0.0,0.0,0.0,0.0,-0.0031322957947850227,0.007537534926086664,0.013534337282180786,0.9994452595710754,0.005835494492202997,0.0030616738367825747,0.03264966234564781
658.0,0.0,0.0,0.0,0.0,0.0,0.0,-0.0015979658346623182,0.011599874123930931,0.010857895016670227,0.9994044899940491,0.006170003674924374,0.0028785509057343006,0.03382760286331177
659.0,0.0,0.0,0.0,0.0,0.0,0.0,0.00010927749826805666,0.014883797615766525,0.005041511729359627,0.999353289604187,0.0063510462641716,0.002835630439221859,0.03527351841330528
660.0,0.0,0.0,0.0,0.0,0.0,0.0,0.005495624151080847,0.014313344843685627,-0.006657588295638561,0.999328076839447,0.005617964547127485,0.0035730001982301474,0.036041539162397385
661.0,0.0,0.0,0.0,0.0,0.0,0.0,0.005818965844810009,0.015389501117169857,-0.002313462318852544,0.9992947578430176,0.004841445479542017,0.00354916718788445,0.03706345707178116
662.0,0.0,0.0,0.0,0.0,0.0,0.0,-0.0024740402586758137,0.020554544404149055,0.01314124558120966,0.9992170333862305,0.004361354745924473,0.0026701658498495817,0.039234459400177
663.0,0.0,0.0,0.0,0.0,0.0,0.0,-0.005427813623100519,0.02136252634227276,0.006553215906023979,0.9991970062255859,0.003064265940338373,0.002073658397421241,0.039896056056022644
664.0,0.0,0.0,0.0,0.0,0.0,0.0,-0.0054264552891254425,0.007903097197413445,0.008473214693367481,0.9992006421089172,0.0013619769597426057,0.0020077829249203205,0.03990105167031288
665.0,0.0,0.0,0.0,0.0,0.0,0.0,-6.138390745036304e-05,-0.0019425594946369529,0.008201374672353268,0.9991428852081299,-0.0003712097241077572,0.002454484114423394,0.041314780712127686
666.0,0.0,0.0,0.0,0.0,0.0,0.0,-0.005706166382879019,0.013375603593885899,0.014141726307570934,0.999197781085968,-0.0011848508147522807,0.002725316444411874,0.039934832602739334
667.0,0.0,0.0,0.0,0.0,0.0,0.0,-0.01311534084379673,-0.010253170505166054,0.01954754814505577,0.9992556571960449,-0.0007841138285584748,0.0023528998717665672,0.03849632665514946
668.0,0.0,0.0,0.0,0.0,0.0,0.0,-0.005262835416942835,-0.019011452794075012,-0.000573022523894906,0.9992543458938599,-0.00022230338072404265,0.002945792628452182,0.038495779037475586
669.0,0.0,0.0,0.0,0.0,0.0,0.0,-0.002924660686403513,-0.010659627616405487,-0.00880403071641922,0.9992725253105164,0.00022652717598248273,0.004591706674546003,0.03785492107272148
670.0,0.0,0.0,0.0,0.0,0.0,0.0,8.236307621700689e-05,-0.014291027560830116,-0.013563768938183784,0.9992873072624207,0.00040946932858787477,0.006194550544023514,0.037233125418424606
671.0,0.0,0.0,0.0,0.0,0.0,0.0,0.004467629361897707,-0.014181312173604965,-0.00878242589533329,0.9993094801902771,0.00029540853574872017,0.007289291359484196,0.03643219172954559
672.0,0.0,0.0,0.0,0.0,0.0,0.0,0.007192824501544237,-0.008550657890737057,-0.007585261948406696,0.9993434548377991,-0.00010626669973134995,0.008282201364636421,0.0352703258395195
673.0,0.0,0.0,0.0,0.0,0.0,0.0,0.00839649885892868,-0.0069375778548419476,-0.02143879421055317,0.9993901252746582,0.00016854553541634232,0.008177517913281918,0.03394383564591408
674.0,0.0,0.0,0.0,0.0,0.0,0.0,0.0032289850059896708,-0.0053779915906488895,-0.017279572784900665,0.9994566440582275,0.0009150050464086235,0.006915312260389328,0.032207779586315155
675.0,0.0,0.0,0.0,0.0,0.0,0.0,-0.0010689196642488241,0.0026571296621114016,-0.005933757871389389,0.9995436072349548,0.0015529112424701452,0.0063632274977862835,0.02948985993862152
676.0,0.0,0.0,0.0,0.0,0.0,0.0,-0.000778426241595298,0.00629934947937727,-0.0027973477263003588,0.9996403455734253,0.0026558726094663143,0.0056810760870575905,0.026068784296512604
677.0,0.0,0.0,0.0,0.0,0.0,0.0,0.008448869921267033,-0.0015797041123732924,-0.0024225544184446335,0.9997021555900574,0.003586073871701956,0.004425182938575745,0.023731237277388573
678.0,0.0,0.0,0.0,0.0,0.0,0.0,0.009779510088264942,-2.4432349164271727e-05,0.0007579741068184376,0.9997581839561462,0.00420676963403821,0.003759281476959586,0.02125108242034912
679.0,0.0,0.0,0.0,0.0,0.0,0.0,0.014604669064283371,0.005179490894079208,0.0025065781082957983,0.9998032450675964,0.005161049775779247,0.003126544412225485,0.018887097015976906
680.0,0.0,0.0,0.0,0.0,0.0,0.0,0.015391597524285316,0.005509812850505114,0.005421287380158901,0.9998064041137695,0.006013889331370592,0.002113710856065154,0.01861155778169632
681.0,0.0,0.0,0.0,0.0,0.0,0.0,0.011480835266411304,0.010039274580776691,0.01094764657318592,0.9998100399971008,0.005936950445175171,0.0011406780686229467,0.0185293760150671
682.0,0.0,0.0,0.0,0.0,0.0,0.0,0.009365739300847054,0.017423920333385468,0.008221622556447983,0.9998049736022949,0.006648705806583166,-0.0007233513751998544,0.01858333684504032
683.0,0.0,0.0,0.0,0.0,0.0,0.0,0.017322605475783348,0.00016218678501900285,-0.004877845291048288,0.9997955560684204,0.007089659571647644,-0.0029794794972985983,0.01869819313287735
684.0,0.0,0.0,0.0,0.0,0.0,0.0,0.01052756980061531,0.00032133530476130545,0.018828701227903366,0.9997884631156921,0.007362488191574812,-0.004434805829077959,0.01868511736392975
685.0,0.0,0.0,0.0,0.0,0.0,0.0,0.002044219058007002,0.0011212744284421206,0.03515360876917839,0.9997583627700806,0.007892590947449207,-0.004903217777609825,0.01992207020521164
686.0,0.0,0.0,0.0,0.0,0.0,0.0,0.0005554971285164356,0.007515403907746077,0.0301323551684618,0.9997442364692688,0.00769747793674469,-0.0037059930618852377,0.020932134240865707
687.0,0.0,0.0,0.0,0.0,0.0,0.0,-0.00018854446534533054,0.007019880693405867,0.030444318428635597,0.9996837973594666,0.008538542315363884,-0.0029232006054371595,0.02347344346344471
688.0,0.0,0.0,0.0,0.0,0.0,0.0,0.008969496004283428,0.006251635495573282,-0.006053409539163113,0.9996271729469299,0.008692224510014057,-0.0010496143950149417,0.025861335918307304
689.0,0.0,0.0,0.0,0.0,0.0,0.0,0.020764276385307312,0.02173912338912487,-0.025832045823335648,0.9995861053466797,0.00890296045690775,-0.0004822366463486105,0.027346570044755936
690.0,0.0,0.0,0.0,0.0,0.0,0.0,-0.001795023214071989,0.0883055105805397,-0.01715201698243618,0.9995863437652588,0.017285214737057686,-0.010801834054291248,0.020287934690713882
691.0,0.0,0.0,0.0,0.0,0.0,0.0,-0.018867477774620056,-0.07827504724264145,-0.024316798895597458,0.9994927644729614,0.021731887012720108,-0.018912332132458687,0.013566000387072563
692.0,0.0,0.0,0.0,0.0,0.0,0.0,-0.011725028045475483,-0.037957098335027695,-0.006242373958230019,0.9995502829551697,0.020282739773392677,-0.01973198726773262,0.009934484958648682
693.0,0.0,0.0,0.0,0.0,0.0,0.0,-0.02097860351204872,-0.01764577254652977,0.021522635594010353,0.9995589256286621,0.02043653279542923,-0.02002583257853985,0.007948373444378376
694.0,0.0,0.0,0.0,0.0,0.0,0.0,-0.012185113504529,-0.09050245583057404,0.042592067271471024,0.9996545910835266,0.017474500462412834,-0.014638173393905163,0.013073029927909374
695.0,0.0,0.0,0.0,0.0,0.0,0.0,0.010845204815268517,-0.019732413813471794,0.00014614997780881822,0.9996752142906189,0.011172885075211525,-0.004745162557810545,0.02240596152842045
696.0,0.0,0.0,0.0,0.0,0.0,0.0,0.0059252153150737286,0.047589026391506195,-0.026552798226475716,0.9996073842048645,0.007835691794753075,0.0008969944901764393,0.026889069005846977
697.0,0.0,0.0,0.0,0.0,0.0,0.0,0.007186188828200102,0.00532443867996335,-0.02226300537586212,0.9995720386505127,0.006516543682664633,0.003366587683558464,0.028312942013144493
698.0,0.0,0.0,0.0,0.0,0.0,0.0,0.005512448493391275,0.0026602831203490496,-0.018095605075359344,0.9995694160461426,0.005324049852788448,0.004856531508266926,0.028442947193980217
699.0,0.0,0.0,0.0,0.0,0.0,0.0,-0.002382812788709998,-0.0015109233791008592,0.0015166617231443524,0.9995971918106079,0.004816059023141861,0.004921189043670893,0.027534162625670433
700.0,0.0,0.0,0.0,0.0,0.0,0.0,0.001983011607080698,-0.00811372697353363,-0.0050833928398787975,0.9996477961540222,0.004005666356533766,0.004475975409150124,0.025852439925074577
701.0,0.0,0.0,0.0,0.0,0.0,0.0,-0.00031287368619814515,-0.006650529336184263,-0.004186893813312054,0.9996926784515381,0.003880265401676297,0.0029267463833093643,0.024306518957018852
702.0,0.0,0.0,0.0,0.0,0.0,0.0,-0.0035165545996278524,-0.003333652624860406,0.00736930500715971,0.9997223019599915,0.004142711404711008,0.0009213559678755701,0.02317589521408081
703.0,0.0,0.0,0.0,0.0,0.0,0.0,-0.007670625578612089,0.007058402989059687,0.018668361008167267,0.999758243560791,0.004329579882323742,-0.00030933914240449667,0.021552229300141335
704.0,0.0,0.0,0.0,0.0,0.0,0.0,-0.012740482576191425,0.008806874044239521,0.023215901106595993,0.9997950196266174,0.003910773433744907,-0.00041424675146117806,0.019854731857776642
705.0,0.0,0.0,0.0,0.0,0.0,0.0,-0.014916067942976952,0.014883043244481087,0.02050534076988697,0.9998016357421875,0.004114982206374407,-0.0010900547495111823,0.019452231004834175
706.0,0.0,0.0,0.0,0.0,0.0,0.0,-0.011047953739762306,0.016328275203704834,0.01201790850609541,0.9997836351394653,0.004759952425956726,-0.0016897822497412562,0.02017432451248169
707.0,0.0,0.0,0.0,0.0,0.0,0.0,-0.001454501529224217,0.00451292609795928,-0.013104597106575966,0.9997559785842896,0.004759672563523054,-0.002372784772887826,0.021436691284179688
708.0,0.0,0.0,0.0,0.0,0.0,0.0,-0.0009580418118275702,-0.0025283759459853172,-0.024684041738510132,0.9997347593307495,0.004458921495825052,-0.002935549011453986,0.022400911897420883
709.0,0.0,0.0,0.0,0.0,0.0,0.0,-0.00785712618380785,0.002666900400072336,0.008435986004769802,0.9997178316116333,0.0037611457519233227,-0.0033599112648516893,0.02320958487689495
710.0,0.0,0.0,0.0,0.0,0.0,0.0,-0.0012217670446261764,-0.004936005920171738,-0.013546469621360302,0.9997088313102722,0.0026720219757407904,-0.004112108610570431,0.023622019216418266
711.0,0.0,0.0,0.0,0.0,0.0,0.0,-0.004423945676535368,-0.00721831014379859,-0.0004936550394631922,0.9997207522392273,0.0015898270066827536,-0.004969397559762001,0.023048320785164833
712.0,0.0,0.0,0.0,0.0,0.0,0.0,-0.007328661624342203,-0.009336104616522789,0.011895599775016308,0.9997338056564331,0.0013057986507192254,-0.005869018845260143,0.022275984287261963
713.0,0.0,0.0,0.0,0.0,0.0,0.0,-0.014120038598775864,-0.004457876086235046,0.01671764999628067,0.9997097253799438,0.0017720318865031004,-0.0063274698331952095,0.023178063333034515
714.0,0.0,0.0,0.0,0.0,0.0,0.0,-0.01345088891685009,-0.0030814579222351313,0.015281052328646183,0.9996554255485535,0.002547984244301915,-0.005767759867012501,0.025479236617684364
715.0,0.0,0.0,0.0,0.0,0.0,0.0,-0.011048924177885056,0.0027266032993793488,0.030989015474915504,0.9995755553245544,0.0035237425472587347,-0.003995708655565977,0.028641358017921448
716.0,0.0,0.0,0.0,0.0,0.0,0.0,0.003242880804464221,-0.003194012213498354,-0.0005244832136668265,0.9995478987693787,0.004991582594811916,-0.0021475497633218765,0.029568316414952278
717.0,0.0,0.0,0.0,0.0,0.0,0.0,0.00947356503456831,-0.01793094538152218,-0.01258881576359272,0.9995498061180115,0.006583613343536854,-0.001349995261989534,0.029241768643260002
718.0,0.0,0.0,0.0,0.0,0.0,0.0,0.0010332349920645356,-0.007421895861625671,0.028204824775457382,0.9995222091674805,0.008246430195868015,-7.805455970810726e-05,0.02978699654340744
719.0,0.0,0.0,0.0,0.0,0.0,0.0,0.008226897567510605,-0.00686520105227828,-0.006066822446882725,0.9994744658470154,0.010129347443580627,0.0010649730684235692,0.030771728605031967
720.0,0.0,0.0,0.0,0.0,0.0,0.0,0.012400388717651367,-0.004573219921439886,-0.035038162022829056,0.9994609355926514,0.01141242403537035,0.001505888532847166,0.030741695314645767
721.0,0.0,0.0,0.0,0.0,0.0,0.0,0.007337632123380899,-0.010631165467202663,-0.024661043658852577,0.9994909763336182,0.0115239592269063,0.00142950180452317,0.02970726042985916
722.0,0.0,0.0,0.0,0.0,0.0,0.0,0.004973116796463728,-0.0040016681887209415,-0.023875029757618904,0.9995017647743225,0.01167238038033247,0.0010298227425664663,0.029304929077625275
723.0,0.0,0.0,0.0,0.0,0.0,0.0,-0.005025338381528854,0.004813913255929947,-0.014841658994555473,0.9994975328445435,0.01201507169753313,-0.0004178148810751736,0.029321227222681046
724.0,0.0,0.0,0.0,0.0,0.0,0.0,-0.011584355495870113,0.005827813874930143,-0.006117331329733133,0.9995262622833252,0.011139274574816227,-0.0010163410333916545,0.0286738108843565
725.0,0.0,0.0,0.0,0.0,0.0,0.0,-0.011073057539761066,0.009095054119825363,-0.0061852289363741875,0.999584436416626,0.009846567176282406,-0.0004614916106220335,0.02708866074681282
726.0,0.0,0.0,0.0,0.0,0.0,0.0,-0.008233830332756042,0.0016092505538836122,-0.00836420338600874,0.999610424041748,0.009154725819826126,-0.0011151619255542755,0.0263427272439003
727.0,0.0,0.0,0.0,0.0,0.0,0.0,-0.012788108550012112,-0.000792379432823509,0.0039028567261993885,0.9996081590652466,0.008729212917387486,-0.002318647690117359,0.026495473459362984
728.0,0.0,0.0,0.0,0.0,0.0,0.0,-0.016770953312516212,0.0004117718490306288,0.008163654245436192,0.9996314644813538,0.00759868836030364,-0.0023387265391647816,0.025953644886612892
729.0,0.0,0.0,0.0,0.0,0.0,0.0,-0.01478173490613699,-0.0003208158886991441,0.0105492128059268,0.9996511340141296,0.006821042392402887,-0.002165983198210597,0.025422699749469757
730.0,0.0,0.0,0.0,0.0,0.0,0.0,-0.009089818224310875,-0.005399777553975582,0.0019930442795157433,0.9996497631072998,0.006977329030632973,-0.0024235956370830536,0.02541503868997097
731.0,0.0,0.0,0.0,0.0,0.0,0.0,-0.0069238608703017235,-0.004211475607007742,0.002989570377394557,0.999653697013855,0.007214711979031563,-0.0023055856581777334,0.025198539718985558
732.0,0.0,0.0,0.0,0.0,0.0,0.0,-0.00719933956861496,-0.0005806187982670963,0.0019286249298602343,0.999666154384613,0.0077256145887076855,-0.002282595494762063,0.024545960128307343
733.0,0.0,0.0,0.0,0.0,0.0,0.0,-0.005377986468374729,-0.0018891183426603675,0.004069110378623009,0.9996515512466431,0.00868432130664587,-0.002545736962929368,0.024798747152090073
734.0,0.0,0.0,0.0,0.0,0.0,0.0,-0.004423287231475115,-0.001293680747039616,-0.001149758929386735,0.999603271484375,0.009682072326540947,-0.0026850795838981867,0.026306182146072388
735.0,0.0,0.0,0.0,0.0,0.0,0.0,-0.0030655227601528168,0.0005531481583602726,0.0007693251245655119,0.9995747804641724,0.010012971237301826,-0.002221062546595931,0.027295684441924095
736.0,0.0,0.0,0.0,0.0,0.0,0.0,0.001949831610545516,0.0031096467282623053,5.908460479986388e-06,0.9995521903038025,0.010187524370849133,-0.0015535366255789995,0.028091739863157272
737.0,0.0,0.0,0.0,0.0,0.0,0.0,0.003501333761960268,0.005129831377416849,-0.014233982190489769,0.9995027184486389,0.01066780649125576,-0.002149934647604823,0.02959352359175682
738.0,0.0,0.0,0.0,0.0,0.0,0.0,-0.0019432486733421683,0.008758182637393475,-0.002962541999295354,0.9994508028030396,0.011404018849134445,-0.0028066583909094334,0.03098287247121334
739.0,0.0,0.0,0.0,0.0,0.0,0.0,-0.002385817700996995,0.008626287803053856,0.0072005935944616795,0.9994059801101685,0.011844289489090443,-0.0032661317382007837,0.0321965366601944
740.0,0.0,0.0,0.0,0.0,0.0,0.0,0.0001942732196766883,0.0090973861515522,-0.0040499125607311726,0.9993908405303955,0.011511530727148056,-0.00355491298250854,0.032745346426963806
741.0,0.0,0.0,0.0,0.0,0.0,0.0,0.00023108565073926002,0.00710585992783308,-0.005618205759674311,0.9994123578071594,0.011145636439323425,-0.0033804774284362793,0.032231785356998444
742.0,0.0,0.0,0.0,0.0,0.0,0.0,-0.00016911890998017043,0.0009296848438680172,0.006162942852824926,0.9994293451309204,0.010965175926685333,-0.0037334889639168978,0.03172764927148819
743.0,0.0,0.0,0.0,0.0,0.0,0.0,-0.0018570666434243321,0.001690603094175458,0.01149920653551817,0.9994445443153381,0.010573423467576504,-0.004377092234790325,0.03130002319812775
744.0,0.0,0.0,0.0,0.0,0.0,0.0,-0.0001908699341583997,-0.010960068553686142,0.009126727469265461,0.9994917511940002,0.009101888164877892,-0.0035814426373690367,0.030342552810907364
745.0,0.0,0.0,0.0,0.0,0.0,0.0,0.002498502377420664,-0.0037370019126683474,0.007066640071570873,0.9995118379592896,0.007798352278769016,-0.0028560038190335035,0.030114633962512016
746.0,0.0,0.0,0.0,0.0,0.0,0.0,-0.002719275187700987,0.011823901906609535,0.008709954097867012,0.999514639377594,0.008386950008571148,-0.003455426311120391,0.0298004150390625
747.0,0.0,0.0,0.0,0.0,0.0,0.0,-0.005600898526608944,-0.0041761756874620914,0.0127604054287076,0.9995173215866089,0.009200545027852058,-0.0037519880570471287,0.02943417802453041
748.0,0.0,0.0,0.0,0.0,0.0,0.0,-0.0058964029885828495,-0.0026114266365766525,0.01095446664839983,0.9995201230049133,0.009693183936178684,-0.0032273230608552694,0.02924731932580471
749.0,0.0,0.0,0.0,0.0,0.0,0.0,-0.004038066603243351,-0.0053716679103672504,-0.006961709354072809,0.9995197057723999,0.010098906233906746,-0.0024504619650542736,0.029193339869379997
750.0,0.0,0.0,0.0,0.0,0.0,0.0,-0.00016517001495230943,-0.00507596880197525,-0.0084847342222929,0.9994993209838867,0.010097666643559933,-0.0016440796898677945,0.029939547181129456
751.0,0.0,0.0,0.0,0.0,0.0,0.0,0.002422030782327056,0.0018581771291792393,-0.02200319990515709,0.9994816184043884,0.010025502182543278,-0.0007802901091054082,0.030582822859287262
752.0,0.0,0.0,0.0,0.0,0.0,0.0,-0.0003240865480620414,0.002812132705003023,-0.012671224772930145,0.9994592070579529,0.00970420427620411,-0.00020176557882223278,0.03141605108976364
753.0,0.0,0.0,0.0,0.0,0.0,0.0,-0.0007554065086878836,0.004915471188724041,-0.00883793830871582,0.9994388222694397,0.009175521321594715,-0.00022145151160657406,0.03220972418785095
754.0,0.0,0.0,0.0,0.0,0.0,0.0,-0.004955511074513197,0.010088494047522545,-0.006448064930737019,0.9994372129440308,0.008255397900938988,7.183945126598701e-05,0.0325138196349144
755.0,0.0,0.0,0.0,0.0,0.0,0.0,-0.00519818440079689,0.008611650206148624,0.0017012159805744886,0.9994219541549683,0.007995323278009892,0.00015100944438017905,0.03304119035601616
756.0,0.0,0.0,0.0,0.0,0.0,0.0,-0.0021673620212823153,0.010180355049669743,0.0003866901679430157,0.9993855953216553,0.0072542293928563595,0.0009418585104867816,0.03427651897072792
757.0,0.0,0.0,0.0,0.0,0.0,0.0,-0.0018217621836811304,0.011532864533364773,0.008425555191934109,0.9992907047271729,0.006730032619088888,0.0018131782999262214,0.03700464218854904
