,Position_X,Position_Y,Position_Z,Velocity_X,Velocity_Y,Velocity_Z,Acceleration_X,Acceleration_Y,Acceleration_Z,Quaterion_0,Quaterion_1,Quaterion_2,Quaterion_3
90.0,0.0,0.0,0.0,0.0,0.0,0.0,-0.0005893530324101448,-0.0077172815799713135,-0.04991002380847931,1.0,6.938893903907228e-18,9.62964972193618e-35,-2.7755575615628914e-17
91.0,0.0,0.0,0.0,0.0,0.0,0.0,-0.0010264227166771889,-0.008647439070045948,-0.00997517816722393,0.9999995827674866,-0.00043337259558029473,0.0003008703060913831,0.0007252190844155848
92.0,0.0,0.0,0.0,0.0,0.0,0.0,0.0026684824842959642,-0.0008138478151522577,0.01826038397848606,0.9999993443489075,-8.112456271192059e-05,0.0003014134999830276,0.0010943392990157008
93.0,0.0,0.0,0.0,0.0,0.0,0.0,-0.004453268367797136,-0.006434030830860138,0.011879393830895424,0.9999985098838806,3.724039197550155e-05,0.00015007922775112092,0.0017203261377289891
94.0,0.0,0.0,0.0,0.0,0.0,0.0,-0.011774624697864056,-0.00664899218827486,0.028270140290260315,0.9999983310699463,7.858547905925661e-05,5.6566495914012194e-05,0.0018134464044123888
95.0,0.0,0.0,0.0,0.0,0.0,0.0,-0.012050396762788296,-0.005517286714166403,0.019680006429553032,0.9999986886978149,0.0002073784708045423,0.00015730434097349644,0.001601148396730423
96.0,0.0,0.0,0.0,0.0,0.0,0.0,-0.014578098431229591,-0.005862781777977943,0.011269204318523407,0.999998927116394,0.0002945310843642801,0.0003748977615032345,0.0013948993291705847
97.0,0.0,0.0,0.0,0.0,0.0,0.0,-0.008739444427192211,0.0009718096116557717,0.00702881533652544,0.9999987483024597,0.000714244379196316,0.0007883511134423316,0.0011518504470586777
98.0,0.0,0.0,0.0,0.0,0.0,0.0,-0.0021193150896579027,0.009589503519237041,0.008981244638562202,0.9999984502792358,0.001141941174864769,0.000759325223043561,0.0011172285303473473
99.0,0.0,0.0,0.0,0.0,0.0,0.0,-0.008257737383246422,0.008054034784436226,0.005629954393953085,0.999997079372406,0.0016616141656413674,0.0008410192094743252,0.0015327890869230032
100.0,0.0,0.0,0.0,0.0,0.0,0.0,-0.007828562520444393,0.010523793287575245,0.0008969248738139868,0.9999963045120239,0.002141481963917613,0.0010397108271718025,0.0013020761543884873
101.0,0.0,0.0,0.0,0.0,0.0,0.0,-0.007375577464699745,0.011983201839029789,-0.005289115477353334,0.9999952912330627,0.0026288367807865143,0.001347204321064055,0.000814166443888098
102.0,0.0,0.0,0.0,0.0,0.0,0.0,-0.008035404607653618,0.013159961439669132,-0.008686922490596771,0.9999932646751404,0.003281746059656143,0.001524086925201118,0.0006319905514828861
103.0,0.0,0.0,0.0,0.0,0.0,0.0,-0.005588662810623646,0.015027928166091442,-0.011454032734036446,0.9999907612800598,0.003874631132930517,0.00181560346391052,0.00042763500823639333
104.0,0.0,0.0,0.0,0.0,0.0,0.0,-0.006074178963899612,0.014577160589396954,-0.011266336776316166,0.9999874830245972,0.004554469138383865,0.0020501427352428436,0.0002711610577534884
105.0,0.0,0.0,0.0,0.0,0.0,0.0,-0.006238177884370089,0.013858333230018616,-0.011790886521339417,0.9999851584434509,0.004772679414600134,0.0026075926143676043,0.00028593128081411123
106.0,0.0,0.0,0.0,0.0,0.0,0.0,-0.004077593330293894,0.013482848182320595,-0.011796575970947742,0.9999823570251465,0.00521274097263813,0.002821919973939657,0.00045069147017784417
107.0,0.0,0.0,0.0,0.0,0.0,0.0,-0.002395819639787078,0.013500068336725235,-0.009754648432135582,0.9999796748161316,0.005573000758886337,0.003006900427863002,0.0007155375787988305
108.0,0.0,0.0,0.0,0.0,0.0,0.0,-0.0023235429544001818,0.012300071306526661,-0.006029865704476833,0.9999768733978271,0.00588413467630744,0.003240071702748537,0.0010654802899807692
109.0,0.0,0.0,0.0,0.0,0.0,0.0,-0.0022010342217981815,0.01123153418302536,-0.0038016033358871937,0.9999754428863525,0.006111739203333855,0.0032695899717509747,0.0010542554082348943
110.0,0.0,0.0,0.0,0.0,0.0,0.0,-0.000911414681468159,0.009737337939441204,-0.0014817683259025216,0.9999718070030212,0.006506653968244791,0.0033772275783121586,0.0016269765328615904
111.0,0.0,0.0,0.0,0.0,0.0,0.0,-0.0012561548501253128,0.009444364346563816,-0.0008759276825003326,0.9999681115150452,0.0069127497263252735,0.0032103306148201227,0.0023804246447980404
112.0,0.0,0.0,0.0,0.0,0.0,0.0,-0.0010755277471616864,0.008400282822549343,0.0003086992655880749,0.999964714050293,0.007202990353107452,0.0029793065041303635,0.003127685049548745
113.0,0.0,0.0,0.0,0.0,0.0,0.0,-0.0017545967129990458,0.007336296606808901,0.0011195344850420952,0.9999618530273438,0.007394544780254364,0.0029384985100477934,0.003595392219722271
114.0,0.0,0.0,0.0,0.0,0.0,0.0,-0.002585306763648987,0.00409721489995718,0.001268854015506804,0.9999620914459229,0.007326279301196337,0.0027925025206059217,0.003788075176998973
115.0,0.0,0.0,0.0,0.0,0.0,0.0,-0.004999058321118355,0.0004332427051849663,-0.000458889058791101,0.9999619722366333,0.007229795679450035,0.0029086379799991846,0.003920089919120073
116.0,0.0,0.0,0.0,0.0,0.0,0.0,-0.007046230137348175,-0.0005410200683400035,-0.003068887861445546,0.9999626278877258,0.007266106083989143,0.0030473230872303247,0.003559701843187213
117.0,0.0,0.0,0.0,0.0,0.0,0.0,-0.00786631926894188,-0.002853308105841279,-0.01318336185067892,0.9999619722366333,0.00727032870054245,0.0035377598833292723,0.003266260726377368
118.0,0.0,0.0,0.0,0.0,0.0,0.0,0.003293130546808243,-0.011296994984149933,-0.06665021181106567,0.9999584555625916,0.007314149755984545,0.004521042574197054,0.003025962971150875
119.0,0.0,0.0,0.0,0.0,0.0,0.0,-0.004564411006867886,-0.017552264034748077,-0.0166774895042181,0.9999606609344482,0.006463029887527227,0.004730199463665485,0.0038114525377750397
120.0,0.0,0.0,0.0,0.0,0.0,0.0,0.002073985291644931,-0.003861232427880168,0.01971162110567093,0.9999595880508423,0.006297898478806019,0.004353713244199753,0.004717304836958647
121.0,0.0,0.0,0.0,0.0,0.0,0.0,-0.008706655353307724,-0.012679877690970898,0.003181232837960124,0.999956488609314,0.006104182917624712,0.003984539769589901,0.005822735372930765
122.0,0.0,0.0,0.0,0.0,0.0,0.0,-0.00981818325817585,-0.01255407277494669,0.018049834296107292,0.999955952167511,0.0058581652119755745,0.004133830312639475,0.006059158593416214
123.0,0.0,0.0,0.0,0.0,0.0,0.0,-0.0028263276908546686,-0.0067793745547533035,0.008028761483728886,0.9999558329582214,0.005947554484009743,0.004275727551430464,0.005885045975446701
124.0,0.0,0.0,0.0,0.0,0.0,0.0,-0.0001645241427468136,-0.0040041254833340645,-0.0021208098623901606,0.9999544024467468,0.005934227257966995,0.0047702789306640625,0.005769268609583378
125.0,0.0,0.0,0.0,0.0,0.0,0.0,0.0038361113984137774,-0.0008144672610796988,0.008442750200629234,0.9999532103538513,0.005944715812802315,0.0048410347662866116,0.005895440466701984
126.0,0.0,0.0,0.0,0.0,0.0,0.0,0.0014219447039067745,0.0007256966782733798,0.015704330056905746,0.999951958656311,0.006032984703779221,0.004750314634293318,0.006096016615629196
127.0,0.0,0.0,0.0,0.0,0.0,0.0,0.0009604498627595603,0.0034872228279709816,0.014037033542990685,0.99994957447052,0.006251947022974491,0.004600204527378082,0.006373746786266565
128.0,0.0,0.0,0.0,0.0,0.0,0.0,0.0015044441679492593,0.00656436663120985,0.011887573637068272,0.9999482035636902,0.0062512424774467945,0.004631636664271355,0.006565779447555542
129.0,0.0,0.0,0.0,0.0,0.0,0.0,-0.0010921484790742397,0.009091014042496681,0.008191367611289024,0.999950110912323,0.00644935155287385,0.004548847209662199,0.006124474108219147
130.0,0.0,0.0,0.0,0.0,0.0,0.0,-0.0006748585728928447,0.010808630846440792,0.0013421876356005669,0.9999501705169678,0.00661857333034277,0.004822983406484127,0.0057129752822220325
131.0,0.0,0.0,0.0,0.0,0.0,0.0,-0.0007703549927100539,0.012691712938249111,-0.004245050251483917,0.999948263168335,0.007098302245140076,0.005098147317767143,0.005207993555814028
132.0,0.0,0.0,0.0,0.0,0.0,0.0,-0.0010209637694060802,0.015418636612594128,-0.009315266273915768,0.9999436140060425,0.0073978654108941555,0.005519041325896978,0.005254016723483801
133.0,0.0,0.0,0.0,0.0,0.0,0.0,-0.0016415913123637438,0.015038692392408848,-0.00855592917650938,0.9999396204948425,0.007829160429537296,0.005513209383934736,0.005386056378483772
134.0,0.0,0.0,0.0,0.0,0.0,0.0,-0.0024352730251848698,0.014902031049132347,-0.010768626816570759,0.999937117099762,0.008106685243546963,0.00552125321701169,0.005442085210233927
135.0,0.0,0.0,0.0,0.0,0.0,0.0,-0.003060347633436322,0.013703446835279465,-0.007895834743976593,0.9999271035194397,0.008524458855390549,0.005353807937353849,0.00667274696752429
136.0,0.0,0.0,0.0,0.0,0.0,0.0,-0.001549235195852816,0.013436028733849525,-0.0041368575766682625,0.9999207854270935,0.00882046390324831,0.005286826752126217,0.00726036261767149
137.0,0.0,0.0,0.0,0.0,0.0,0.0,-0.004049457143992186,0.010931898839771748,-0.005008264444768429,0.9999212622642517,0.008995598182082176,0.005267958622425795,0.006988388020545244
138.0,0.0,0.0,0.0,0.0,0.0,0.0,-0.001919770729728043,0.011456278152763844,-0.0023769764229655266,0.9999170303344727,0.00932854600250721,0.005242200568318367,0.007171155884861946
139.0,0.0,0.0,0.0,0.0,0.0,0.0,-0.00016942236106842756,0.009149521589279175,-0.0003530370304360986,0.9999158382415771,0.009511329233646393,0.004931317176669836,0.007319508120417595
140.0,0.0,0.0,0.0,0.0,0.0,0.0,-0.00012513293768279254,0.006447168532758951,0.0019808874931186438,0.9999168515205383,0.009570324793457985,0.004743339493870735,0.007226437330245972
141.0,0.0,0.0,0.0,0.0,0.0,0.0,-0.00030511440127156675,0.002699059434235096,0.0031322906725108624,0.9999189376831055,0.0096112797036767,0.0046023414470255375,0.006967020686715841
142.0,0.0,0.0,0.0,0.0,0.0,0.0,-0.0017691378016024828,0.0007900745258666575,0.003243653103709221,0.9999181032180786,0.009625302627682686,0.004691879730671644,0.0070136780850589275
143.0,0.0,0.0,0.0,0.0,0.0,0.0,-0.0017298638122156262,-0.002054984215646982,-0.004928120411932468,0.9999151229858398,0.009754307568073273,0.0048296526074409485,0.007160885725170374
144.0,0.0,0.0,0.0,0.0,0.0,0.0,-0.00016986698028631508,-0.0030449258629232645,-0.012332100421190262,0.999915361404419,0.009598610922694206,0.004967478569597006,0.007240318693220615
145.0,0.0,0.0,0.0,0.0,0.0,0.0,0.005662079434841871,-0.015365992672741413,-0.059569697827100754,0.9999104738235474,0.009792041033506393,0.00629966426640749,0.006597263738512993
146.0,0.0,0.0,0.0,0.0,0.0,0.0,0.01808410882949829,-0.0081729581579566,-0.050194960087537766,0.9999075531959534,0.00901851337403059,0.006906003225594759,0.007473086006939411
147.0,0.0,0.0,0.0,0.0,0.0,0.0,0.023398863151669502,0.008542042225599289,0.00588515680283308,0.9999099373817444,0.00895906612277031,0.006717422045767307,0.007395043969154358
148.0,0.0,0.0,0.0,0.0,0.0,0.0,0.012190536595880985,-0.006596509367227554,-0.018838930875062943,0.9999047517776489,0.008787990547716618,0.006436529103666544,0.008476916700601578
149.0,0.0,0.0,0.0,0.0,0.0,0.0,0.0016390675446018577,-0.009099374525249004,0.020558150485157967,0.9999012351036072,0.008501378819346428,0.0057571036741137505,0.009595870971679688
150.0,0.0,0.0,0.0,0.0,0.0,0.0,-0.004488004837185144,-0.009826533496379852,0.020291954278945923,0.9999036192893982,0.008278158493340015,0.005671710707247257,0.009596624411642551
151.0,0.0,0.0,0.0,0.0,0.0,0.0,-0.005379734095185995,-0.01867005228996277,-0.003983982373028994,0.999906599521637,0.007951673120260239,0.005928158760070801,0.009398549795150757
152.0,0.0,0.0,0.0,0.0,0.0,0.0,0.004069891292601824,-0.011096089147031307,0.006665812339633703,0.9999056458473206,0.007666807156056166,0.005414353217929602,0.010031312704086304
153.0,0.0,0.0,0.0,0.0,0.0,0.0,-0.0007758489227853715,-0.010333053767681122,0.015080884099006653,0.9999039173126221,0.007332153618335724,0.0048506781458854675,0.010718997567892075
154.0,0.0,0.0,0.0,0.0,0.0,0.0,-0.005136820487678051,-0.010687150992453098,0.016546180471777916,0.9999082684516907,0.0071242935955524445,0.004391270224004984,0.010649329051375389
155.0,0.0,0.0,0.0,0.0,0.0,0.0,-0.008779154159128666,-0.008773437701165676,0.018008915707468987,0.9999114274978638,0.007018182426691055,0.0038883681409060955,0.010615943931043148
156.0,0.0,0.0,0.0,0.0,0.0,0.0,-0.013215608894824982,-0.008478847332298756,0.016765614971518517,0.9999184608459473,0.0067689972929656506,0.0040956768207252026,0.010023651644587517
157.0,0.0,0.0,0.0,0.0,0.0,0.0,-0.013893373310565948,-0.0063870190642774105,0.01284142304211855,0.9999249577522278,0.006772670429199934,0.004531525075435638,0.00914839655160904
158.0,0.0,0.0,0.0,0.0,0.0,0.0,-0.011521853506565094,-0.003540447913110256,0.003157146042212844,0.9999223947525024,0.007022680714726448,0.005047488491982222,0.008971081115305424
159.0,0.0,0.0,0.0,0.0,0.0,0.0,-0.00907854177057743,-0.0004671601636800915,-0.010622337460517883,0.9999223947525024,0.00715989014133811,0.005712608806788921,0.008443081751465797
160.0,0.0,0.0,0.0,0.0,0.0,0.0,-0.0076821777038276196,0.0020511674229055643,-0.018475810065865517,0.9999226927757263,0.007151318248361349,0.006621143780648708,0.007720836903899908
161.0,0.0,0.0,0.0,0.0,0.0,0.0,-0.005455954931676388,0.006513184402137995,-0.008889860473573208,0.9999178051948547,0.007383823394775391,0.007187581155449152,0.007622258737683296
162.0,0.0,0.0,0.0,0.0,0.0,0.0,-0.0005606869817711413,0.011881859041750431,-0.0025819221045821905,0.9999122023582458,0.007759964559227228,0.007587099447846413,0.007601821795105934
163.0,0.0,0.0,0.0,0.0,0.0,0.0,0.007251267321407795,0.015373128466308117,-0.011638372205197811,0.9999035596847534,0.008599293418228626,0.007756032980978489,0.007662242278456688
164.0,0.0,0.0,0.0,0.0,0.0,0.0,0.01339462399482727,0.01764007657766342,-0.020335620269179344,0.999894380569458,0.009355729445815086,0.007930436171591282,0.007794239558279514
165.0,0.0,0.0,0.0,0.0,0.0,0.0,0.016899442300200462,0.01759364828467369,-0.025163430720567703,0.9998869299888611,0.009770156815648079,0.008108044043183327,0.008059334009885788
166.0,0.0,0.0,0.0,0.0,0.0,0.0,0.016450192779302597,0.014036490581929684,-0.01946350559592247,0.999876081943512,0.01018404122442007,0.008120470680296421,0.008838416077196598
167.0,0.0,0.0,0.0,0.0,0.0,0.0,0.014893009327352047,0.009290017187595367,-0.01063232496380806,0.9998652935028076,0.010489307343959808,0.007746580988168716,0.009968480095267296
168.0,0.0,0.0,0.0,0.0,0.0,0.0,0.01429867371916771,0.007776555605232716,-0.0010833283886313438,0.9998589754104614,0.010655084624886513,0.007395484950393438,0.010671162977814674
169.0,0.0,0.0,0.0,0.0,0.0,0.0,0.01061169896274805,0.007452992256730795,0.006898587103933096,0.9998569488525391,0.010432237759232521,0.007042145822197199,0.011298371478915215
170.0,0.0,0.0,0.0,0.0,0.0,0.0,0.010088477283716202,0.005940521135926247,0.01098098699003458,0.999851405620575,0.01056036725640297,0.006533972918987274,0.011955088935792446
171.0,0.0,0.0,0.0,0.0,0.0,0.0,0.01185803022235632,0.004127240739762783,0.0008912745979614556,0.9998462796211243,0.010650570504367352,0.006158791016787291,0.012491879984736443
172.0,0.0,0.0,0.0,0.0,0.0,0.0,0.010255060158669949,0.0006944388733245432,-0.00585484504699707,0.9998485445976257,0.010533400811254978,0.005849414970725775,0.012560026720166206
173.0,0.0,0.0,0.0,0.0,0.0,0.0,0.009714863263070583,0.00013444454816635698,-0.00659460062161088,0.9998523592948914,0.010242478922009468,0.005350157152861357,0.01271779090166092
174.0,0.0,0.0,0.0,0.0,0.0,0.0,0.0057112062349915504,-0.001904003438539803,-0.003146802308037877,0.9998492002487183,0.009898865595459938,0.0047196634113788605,0.013466753996908665
175.0,0.0,0.0,0.0,0.0,0.0,0.0,-0.001608949969522655,-0.005356509704142809,0.0017339877085760236,0.9998401403427124,0.009592685848474503,0.004328467883169651,0.014455299824476242
176.0,0.0,0.0,0.0,0.0,0.0,0.0,-0.005333965644240379,-0.0070208050310611725,0.0062898071482777596,0.9998367428779602,0.00904475525021553,0.0041585881263017654,0.015079344622790813
177.0,0.0,0.0,0.0,0.0,0.0,0.0,-0.005913453176617622,-0.007755942177027464,0.0031091300770640373,0.999845027923584,0.008543676696717739,0.004306721966713667,0.014778089709579945
178.0,0.0,0.0,0.0,0.0,0.0,0.0,-0.005936034023761749,-0.00828667264431715,-0.006325406953692436,0.9998541474342346,0.007869590073823929,0.004237508866935968,0.014554332010447979
179.0,0.0,0.0,0.0,0.0,0.0,0.0,-0.009471077471971512,-0.006135711912065744,0.00210524327121675,0.9998560547828674,0.007332414388656616,0.0043096235021948814,0.014682606793940067
180.0,0.0,0.0,0.0,0.0,0.0,0.0,-0.014940534718334675,-0.006015430204570293,0.013656016439199448,0.9998602867126465,0.006693666335195303,0.004503877833485603,0.014640993438661098
181.0,0.0,0.0,0.0,0.0,0.0,0.0,-0.01518093142658472,-0.004547538235783577,0.0162991750985384,0.9998695254325867,0.006066662259399891,0.004537464119493961,0.014267094433307648
182.0,0.0,0.0,0.0,0.0,0.0,0.0,-0.013512196950614452,-0.004879137501120567,0.019724732264876366,0.9998769760131836,0.00583249144256115,0.005019896663725376,0.013669036328792572
183.0,0.0,0.0,0.0,0.0,0.0,0.0,-0.003975612111389637,-0.004272388760000467,0.007462970446795225,0.9998769760131836,0.005881077144294977,0.005173692479729652,0.013587790541350842
184.0,0.0,0.0,0.0,0.0,0.0,0.0,0.007035728078335524,0.003617535112425685,0.00895342044532299,0.9998791217803955,0.006019369699060917,0.005161035340279341,0.013376071117818356
185.0,0.0,0.0,0.0,0.0,0.0,0.0,0.008721841499209404,0.004242161754518747,0.016928888857364655,0.9998847842216492,0.006272374652326107,0.004801550880074501,0.012959718704223633
186.0,0.0,0.0,0.0,0.0,0.0,0.0,0.00988075789064169,0.0075546628795564175,0.005247887689620256,0.9998895525932312,0.006890847813338041,0.004493786487728357,0.012374848127365112
187.0,0.0,0.0,0.0,0.0,0.0,0.0,0.008394104428589344,0.0037368270568549633,-0.016211627051234245,0.9998934864997864,0.007392078638076782,0.004737436771392822,0.011659355834126472
188.0,0.0,0.0,0.0,0.0,0.0,0.0,0.005800276063382626,0.0004705770406872034,-0.011236554011702538,0.9998918771743774,0.007655128370970488,0.004945431370288134,0.011543056927621365
189.0,0.0,0.0,0.0,0.0,0.0,0.0,0.0016301622381433845,-0.0019678801763802767,-0.015898440033197403,0.9998833537101746,0.007991367019712925,0.00503591587767005,0.01200160849839449
190.0,0.0,0.0,0.0,0.0,0.0,0.0,-0.0036425371654331684,-0.006580431014299393,-0.007940782234072685,0.9998792409896851,0.007793127559125423,0.005189984571188688,0.012402990832924843
191.0,0.0,0.0,0.0,0.0,0.0,0.0,-0.004413148388266563,-0.007552791386842728,-0.00015761388931423426,0.9998817443847656,0.00779356574639678,0.005409027449786663,0.01210090797394514
192.0,0.0,0.0,0.0,0.0,0.0,0.0,4.927220652461983e-05,-0.007642162498086691,-0.014214941300451756,0.9998902082443237,0.007570476736873388,0.005934901535511017,0.011266802437603474
193.0,0.0,0.0,0.0,0.0,0.0,0.0,0.0036660160403698683,-0.007067437749356031,-0.021367870271205902,0.9998894333839417,0.007443254813551903,0.006253789644688368,0.01124747097492218
194.0,0.0,0.0,0.0,0.0,0.0,0.0,0.006078631151467562,-0.004479343071579933,0.000125152466353029,0.999888002872467,0.007263164035975933,0.0058733937330543995,0.011694874614477158
195.0,0.0,0.0,0.0,0.0,0.0,0.0,0.010572436265647411,-0.0023726874496787786,-0.010239550843834877,0.9998853206634521,0.007542302366346121,0.005510392598807812,0.011914452537894249
196.0,0.0,0.0,0.0,0.0,0.0,0.0,0.014764850959181786,-0.0006007269839756191,-0.008729013614356518,0.9998860955238342,0.0076850284822285175,0.0049235280603170395,0.012013541534543037
197.0,0.0,0.0,0.0,0.0,0.0,0.0,0.0138337891548872,-0.0001116031053243205,0.0030100177973508835,0.9998798370361328,0.007619439624249935,0.0045068529434502125,0.012729671783745289
198.0,0.0,0.0,0.0,0.0,0.0,0.0,0.013070988468825817,-0.0003415569954086095,0.0030420925468206406,0.9998690485954285,0.007843069732189178,0.00398437213152647,0.013581432402133942
199.0,0.0,0.0,0.0,0.0,0.0,0.0,0.012340337969362736,-0.0008563901646994054,0.0054047973826527596,0.9998697638511658,0.007811440154910088,0.003285629441961646,0.01373538188636303
200.0,0.0,0.0,0.0,0.0,0.0,0.0,0.01137914415448904,-0.0003726925060618669,0.007442770525813103,0.9998698830604553,0.00758812390267849,0.0027372660115361214,0.013967730104923248
201.0,0.0,0.0,0.0,0.0,0.0,0.0,0.006156229879707098,-0.00048092170618474483,0.012185429222881794,0.9998647570610046,0.0074218991212546825,0.002357929013669491,0.014488470740616322
202.0,0.0,0.0,0.0,0.0,0.0,0.0,0.0038211210630834103,-0.000534163205884397,0.01331633422523737,0.9998565912246704,0.007457287050783634,0.0019200878450646996,0.01508085522800684
203.0,0.0,0.0,0.0,0.0,0.0,0.0,-0.0021541512105613947,-0.0005561606376431882,0.011716109700500965,0.99985271692276,0.007311678491532803,0.0015767297009006143,0.015444624237716198
204.0,0.0,0.0,0.0,0.0,0.0,0.0,-0.0023501182440668344,0.003034609369933605,0.02292013354599476,0.9998599290847778,0.0068504782393574715,0.0015127112856134772,0.015197188593447208
205.0,0.0,0.0,0.0,0.0,0.0,0.0,0.0009503993205726147,0.00479156943038106,0.019234787672758102,0.9998620748519897,0.006507746875286102,0.0013303206069394946,0.015223967842757702
206.0,0.0,0.0,0.0,0.0,0.0,0.0,0.002952451352030039,0.005197606515139341,0.0006698009092360735,0.9998611211776733,0.006698299199342728,0.00105540722142905,0.01521973218768835
207.0,0.0,0.0,0.0,0.0,0.0,0.0,0.004000080283731222,0.007838294841349125,-0.010609541088342667,0.999870240688324,0.006681462284177542,0.0010402400512248278,0.01462190505117178
208.0,0.0,0.0,0.0,0.0,0.0,0.0,0.006693876814097166,0.008611519820988178,-0.018294550478458405,0.9998708367347717,0.006772667169570923,0.0010821460746228695,0.014531783759593964
209.0,0.0,0.0,0.0,0.0,0.0,0.0,0.007810002192854881,0.008461312390863895,-0.015858324244618416,0.9998677968978882,0.006855424959212542,0.0007460851920768619,0.014723186381161213
210.0,0.0,0.0,0.0,0.0,0.0,0.0,0.009368999861180782,0.010808140970766544,-0.013327989727258682,0.9998652338981628,0.006961717735975981,0.0005997713888064027,0.014852442778646946
211.0,0.0,0.0,0.0,0.0,0.0,0.0,0.008408812806010246,0.008547688834369183,-0.0201629176735878,0.9998596906661987,0.007311797700822353,0.0003925515920855105,0.015064275823533535
212.0,0.0,0.0,0.0,0.0,0.0,0.0,0.0007268570479936898,1.521970989415422e-05,-0.02263101004064083,0.9998587369918823,0.0071391998790204525,8.445558341918513e-05,0.015220544300973415
213.0,0.0,0.0,0.0,0.0,0.0,0.0,-0.001377306180074811,-0.0013651438057422638,-0.006448158994317055,0.999857485294342,0.007008146960288286,-0.00010436044249217957,0.015355975367128849
214.0,0.0,0.0,0.0,0.0,0.0,0.0,0.0009891815716400743,0.0006841862923465669,-0.00280556152574718,0.9998578429222107,0.006612377241253853,-0.00029348675161600113,0.015507514588534832
215.0,0.0,0.0,0.0,0.0,0.0,0.0,-0.0002640624006744474,-0.0016169328009709716,-0.004395860712975264,0.9998577237129211,0.006305721588432789,-0.00045288499677553773,0.015639780089259148
216.0,0.0,0.0,0.0,0.0,0.0,0.0,0.001418239320628345,-0.0030226935632526875,0.001051759347319603,0.9998503923416138,0.0061281281523406506,-0.000973499205429107,0.016145924106240273
217.0,0.0,0.0,0.0,0.0,0.0,0.0,0.003004759317263961,-0.0016465620137751102,0.005683094263076782,0.9998533129692078,0.005680976901203394,-0.0011944040888920426,0.01611337997019291
218.0,0.0,0.0,0.0,0.0,0.0,0.0,0.002252299338579178,0.0003294866473879665,0.010475394316017628,0.9998477697372437,0.00542293768376112,-0.0015294390032067895,0.016513751819729805
219.0,0.0,0.0,0.0,0.0,0.0,0.0,-0.001144267967902124,-0.001685776049271226,0.010174714028835297,0.9998401403427124,0.005275392439216375,-0.001974758692085743,0.01696913316845894
220.0,0.0,0.0,0.0,0.0,0.0,0.0,-0.004345391411334276,-0.002069372683763504,0.008626394905149937,0.9998403787612915,0.0050452533178031445,-0.0021212745923548937,0.01700969599187374
221.0,0.0,0.0,0.0,0.0,0.0,0.0,-0.0038497191853821278,0.000870679272338748,0.009267143905162811,0.9998394846916199,0.005032800137996674,-0.0023681498132646084,0.017030486837029457
222.0,0.0,0.0,0.0,0.0,0.0,0.0,-0.006153488531708717,0.00047813510173000395,0.0097866365686059,0.999837338924408,0.0052478620782494545,-0.0028130728751420975,0.017026493325829506
223.0,0.0,0.0,0.0,0.0,0.0,0.0,-0.004191118758171797,0.0008994820527732372,-0.0034599141217768192,0.9998301267623901,0.005714582744985819,-0.002975373761728406,0.017268545925617218
224.0,0.0,0.0,0.0,0.0,0.0,0.0,-0.005434697959572077,-0.0016483954386785626,-0.008990266360342503,0.9998186230659485,0.005891445092856884,-0.003051087260246277,0.017851436510682106
225.0,0.0,0.0,0.0,0.0,0.0,0.0,-0.007279770914465189,-0.002047221641987562,-0.006191844120621681,0.9998056292533875,0.005951127503067255,-0.0031973484437912703,0.018524933606386185
226.0,0.0,0.0,0.0,0.0,0.0,0.0,-0.010711782611906528,-0.004151834174990654,-0.006922701373696327,0.999798059463501,0.006001519504934549,-0.003268786473199725,0.018896736204624176
227.0,0.0,0.0,0.0,0.0,0.0,0.0,-0.01189425028860569,-0.00467619439586997,-0.007449682801961899,0.9997857213020325,0.006028164643794298,-0.003126436145976186,0.019552910700440407
228.0,0.0,0.0,0.0,0.0,0.0,0.0,-0.014445088803768158,-0.005133776925504208,-0.005735734943300486,0.9997841715812683,0.005716222804039717,-0.0030371721368283033,0.01974240131676197
229.0,0.0,0.0,0.0,0.0,0.0,0.0,-0.01559813879430294,-0.008382242172956467,-0.0064393300563097,0.9997962713241577,0.005494176875799894,-0.0028705387376248837,0.019210105761885643
230.0,0.0,0.0,0.0,0.0,0.0,0.0,-0.014465759508311749,-0.008127901703119278,-0.004526988603174686,0.9998116493225098,0.005114289000630379,-0.0023061141837388277,0.018578214570879936
231.0,0.0,0.0,0.0,0.0,0.0,0.0,-0.017675116658210754,-0.008885270915925503,-0.0016313295345753431,0.999810516834259,0.004849888384342194,-0.002227906370535493,0.01872195489704609
232.0,0.0,0.0,0.0,0.0,0.0,0.0,-0.016564462333917618,-0.006173797883093357,0.00177892972715199,0.9998067021369934,0.004718972835689783,-0.002280056942254305,0.01894809491932392
233.0,0.0,0.0,0.0,0.0,0.0,0.0,-0.016747169196605682,-0.005507238674908876,0.0047744461335241795,0.9998128414154053,0.004350338131189346,-0.002027111826464534,0.018739735707640648
234.0,0.0,0.0,0.0,0.0,0.0,0.0,-0.016140172258019447,-0.003714839229360223,0.004105736035853624,0.9998165369033813,0.0043141660280525684,-0.0019747100304812193,0.01855676807463169
235.0,0.0,0.0,0.0,0.0,0.0,0.0,-0.016959138214588165,-0.003081191796809435,0.0031658948864787817,0.9998247027397156,0.004161841701716185,-0.0018985593924298882,0.01815684698522091
236.0,0.0,0.0,0.0,0.0,0.0,0.0,-0.015924939885735512,0.0005636883433908224,0.001366369891911745,0.999836802482605,0.004121528007090092,-0.0015186755917966366,0.017524054273962975
237.0,0.0,0.0,0.0,0.0,0.0,0.0,-0.012896129861474037,0.0007862967904657125,-0.0005122669972479343,0.9998391270637512,0.004177282564342022,-0.0012392696226015687,0.0173992570489645
238.0,0.0,0.0,0.0,0.0,0.0,0.0,-0.011464765295386314,-0.0002792878949549049,-0.0031723256688565016,0.9998506903648376,0.004180128686130047,-0.0010505864629521966,0.016731582581996918
239.0,0.0,0.0,0.0,0.0,0.0,0.0,-0.008136739954352379,0.0002612167736515403,-0.018108965829014778,0.9998605251312256,0.004183328244835138,-0.00041093226172961295,0.016164999455213547
240.0,0.0,0.0,0.0,0.0,0.0,0.0,-0.00453141238540411,0.0013015990843996406,-0.03789215534925461,0.9998677372932434,0.003968729637563229,0.00012065126793459058,0.015770237892866135
241.0,0.0,0.0,0.0,0.0,0.0,0.0,-0.014057423919439316,0.001683289767242968,-0.0025338169652968645,0.9998701810836792,0.003182818880304694,-4.042507862322964e-05,0.01579352281987667
242.0,0.0,0.0,0.0,0.0,0.0,0.0,-0.015052307397127151,-0.0003150934062432498,0.01297555398195982,0.999871551990509,0.0024808875750750303,-2.6305982828489505e-05,0.015833599492907524
243.0,0.0,0.0,0.0,0.0,0.0,0.0,-0.004265797324478626,-0.0033258937764912844,-0.005984362214803696,0.9998758435249329,0.0017866172129288316,0.0003655249602161348,0.015650957822799683
244.0,0.0,0.0,0.0,0.0,0.0,0.0,0.0012915731640532613,0.0007554502226412296,0.009662394411861897,0.9998757243156433,0.0012880590511485934,0.0004301437584217638,0.015708571299910545
245.0,0.0,0.0,0.0,0.0,0.0,0.0,0.0039564017206430435,0.0024142104666680098,0.016280043870210648,0.9998772740364075,0.0011275658616796136,0.0003722709370777011,0.015620189718902111
246.0,0.0,0.0,0.0,0.0,0.0,0.0,0.007568664383143187,0.0037112939171493053,0.00402231328189373,0.9998828768730164,0.001159594627097249,0.00046668521827086806,0.015254088677465916
247.0,0.0,0.0,0.0,0.0,0.0,0.0,0.011121917515993118,0.0018535711569711566,-0.016807325184345245,0.9998891949653625,0.0010614263592287898,0.0007103123934939504,0.014830990694463253
248.0,0.0,0.0,0.0,0.0,0.0,0.0,0.009975275956094265,0.004474037326872349,0.0015584747307002544,0.9998858571052551,0.0010848671663552523,0.0010909857228398323,0.015030480921268463
249.0,0.0,0.0,0.0,0.0,0.0,0.0,0.007770468480885029,0.006028326693922281,0.013722583651542664,0.9998893737792969,0.0013487715041264892,0.001371295191347599,0.014747615903615952
250.0,0.0,0.0,0.0,0.0,0.0,0.0,0.016255062073469162,0.003929914440959692,-0.011751621030271053,0.9998958706855774,0.0013936258619651198,0.001542413141578436,0.01428145170211792
251.0,0.0,0.0,0.0,0.0,0.0,0.0,0.017450721934437752,0.008587249554693699,-0.0036737308837473392,0.9998952746391296,0.0016033558640629053,0.0016573963221162558,0.01428975723683834
252.0,0.0,0.0,0.0,0.0,0.0,0.0,0.013175129890441895,0.00981029961258173,0.01538062747567892,0.9998875260353088,0.001713364850729704,0.0015604343498125672,0.014819937758147717
253.0,0.0,0.0,0.0,0.0,0.0,0.0,0.015716195106506348,0.011718089692294598,0.021117420867085457,0.9998769164085388,0.0021053084637969732,0.0011996545363217592,0.015502025373280048
254.0,0.0,0.0,0.0,0.0,0.0,0.0,0.018595043569803238,0.00900288112461567,0.0053888908587396145,0.9998739361763,0.0025207728613168,0.000946648942772299,0.015645962208509445
255.0,0.0,0.0,0.0,0.0,0.0,0.0,0.01679415814578533,0.006410122849047184,-0.009517699480056763,0.9998757243156433,0.002597688464447856,0.0009139318135567009,0.015522525645792484
256.0,0.0,0.0,0.0,0.0,0.0,0.0,0.014470181427896023,0.0035054064355790615,-0.01190340518951416,0.9998686909675598,0.002789169317111373,0.000699480006005615,0.015945564955472946
257.0,0.0,0.0,0.0,0.0,0.0,0.0,0.010727943852543831,-0.00045185250928625464,-0.009243899025022984,0.9998669624328613,0.002421514131128788,0.0005964332376606762,0.016121331602334976
258.0,0.0,0.0,0.0,0.0,0.0,0.0,0.001643338124267757,-0.0008683938067406416,0.019351065158843994,0.9998629093170166,0.0018665732350200415,0.0002474788052495569,0.016450226306915283
259.0,0.0,0.0,0.0,0.0,0.0,0.0,0.0013736262917518616,0.0014196316478773952,0.03155876696109772,0.9998614192008972,0.0014649389777332544,-0.00015650670684408396,0.016581406816840172
260.0,0.0,0.0,0.0,0.0,0.0,0.0,0.008387523703277111,-0.0030039132107049227,0.0005000787787139416,0.9998623728752136,0.0014352742582559586,-0.0006006808253005147,0.016515880823135376
261.0,0.0,0.0,0.0,0.0,0.0,0.0,0.010761157609522343,-0.0066608283668756485,-0.026912562549114227,0.9998632073402405,0.0017713254783302546,-0.000763143238145858,0.016427084803581238
262.0,0.0,0.0,0.0,0.0,0.0,0.0,0.01165685523301363,-0.005407427903264761,-0.04363435134291649,0.9998531937599182,0.0017170505598187447,-0.0010749829234555364,0.01701689325273037
263.0,0.0,0.0,0.0,0.0,0.0,0.0,-0.002847070572897792,-0.005406124051660299,0.029286399483680725,0.9998314380645752,0.0014046968426555395,-0.0020029135048389435,0.018195895478129387
264.0,0.0,0.0,0.0,0.0,0.0,0.0,-0.006749521940946579,-0.009156039915978909,0.029996776953339577,0.9998136162757874,0.0012365321163088083,-0.0030088252387940884,0.019033344462513924
265.0,0.0,0.0,0.0,0.0,0.0,0.0,-0.006506926380097866,-0.0044541689567267895,0.010541449300944805,0.9998122453689575,0.001061657560057938,-0.0037726745940744877,0.018977684900164604
266.0,0.0,0.0,0.0,0.0,0.0,0.0,-0.009461719542741776,0.00319290766492486,0.023161815479397774,0.9998201727867126,0.0008139836718328297,-0.0044788275845348835,0.018408987671136856
267.0,0.0,0.0,0.0,0.0,0.0,0.0,-0.009847312234342098,0.0037260819226503372,0.012970245443284512,0.9998303055763245,0.0009188567055389285,-0.004679548088461161,0.017795877531170845
268.0,0.0,0.0,0.0,0.0,0.0,0.0,-0.005798437632620335,0.003763861022889614,-0.0027685300447046757,0.9998494982719421,0.0009308765293098986,-0.004608044866472483,0.01670173369348049
269.0,0.0,0.0,0.0,0.0,0.0,0.0,-0.005711016245186329,-0.001716836472041905,-0.027726855129003525,0.999859631061554,0.0009689120925031602,-0.004447140730917454,0.01612415350973606
270.0,0.0,0.0,0.0,0.0,0.0,0.0,-0.011569642461836338,-0.003212661948055029,-0.017543982714414597,0.9998629093170166,0.0008341217180714011,-0.004382377024739981,0.01594533957540989
271.0,0.0,0.0,0.0,0.0,0.0,0.0,-0.017113683745265007,-0.0033497463446110487,0.0012836570385843515,0.9998617768287659,0.0006075268029235303,-0.004482417367398739,0.015995996072888374
272.0,0.0,0.0,0.0,0.0,0.0,0.0,-0.02002587914466858,-0.004470850806683302,0.008611786179244518,0.9998666644096375,0.00026310086832381785,-0.004248153883963823,0.01576302945613861
273.0,0.0,0.0,0.0,0.0,0.0,0.0,-0.018066145479679108,-0.003440305357798934,0.011157805100083351,0.9998788833618164,7.82863498898223e-05,-0.003925031516700983,0.015057769604027271
274.0,0.0,0.0,0.0,0.0,0.0,0.0,-0.012523631565272808,-0.0031501699704676867,0.002700632903724909,0.9998905062675476,-9.991497790906578e-05,-0.0037003715988248587,0.01432748418301344
275.0,0.0,0.0,0.0,0.0,0.0,0.0,-0.007585363462567329,-0.002262795576825738,-0.008547835052013397,0.9999029040336609,-8.927262388169765e-05,-0.00335433310829103,0.013521811924874783
276.0,0.0,0.0,0.0,0.0,0.0,0.0,-0.00466308044269681,0.0002715633891057223,-0.00344050582498312,0.9999127388000488,-0.00015281239757314324,-0.0030774862971156836,0.012844185344874859
277.0,0.0,0.0,0.0,0.0,0.0,0.0,-0.0019467847887426615,0.0003290036111138761,-0.0030125731136649847,0.9999130368232727,-0.00018636640743352473,-0.002805120311677456,0.012881170958280563
278.0,0.0,0.0,0.0,0.0,0.0,0.0,-0.0004481507057789713,-0.00012026509648421779,0.0032317512668669224,0.9999076128005981,-0.00019028237147722393,-0.0029769944958388805,0.013258221559226513
279.0,0.0,0.0,0.0,0.0,0.0,0.0,0.0026703584007918835,0.001101854257285595,0.0066279638558626175,0.9999094605445862,-0.0002529879566282034,-0.00325961085036397,0.013055157847702503
280.0,0.0,0.0,0.0,0.0,0.0,0.0,0.0037777931429445744,0.0004953130264766514,0.008645809255540371,0.999910295009613,-0.00024195865262299776,-0.003419033018872142,0.012952378019690514
281.0,0.0,0.0,0.0,0.0,0.0,0.0,0.0024420053232461214,-0.0002894116041716188,0.010116666555404663,0.9999045729637146,-0.00019811769016087055,-0.0037977048195898533,0.013280990533530712
282.0,0.0,0.0,0.0,0.0,0.0,0.0,0.0008281245827674866,-0.0014056942891329527,0.009467292577028275,0.9999067187309265,-0.00033869341132231057,-0.004102801438421011,0.013024411164224148
283.0,0.0,0.0,0.0,0.0,0.0,0.0,-0.0020523739513009787,-0.004667854402214289,0.006842237897217274,0.9999118447303772,-0.00033662395435385406,-0.003986230120062828,0.012654295191168785
284.0,0.0,0.0,0.0,0.0,0.0,0.0,-0.0006446631159633398,-0.003498530713841319,0.003470218274742365,0.9999122619628906,-0.0006078087608329952,-0.003910403233021498,0.012641161680221558
285.0,0.0,0.0,0.0,0.0,0.0,0.0,4.546551645034924e-05,-0.000781357754021883,0.0041252486407756805,0.9999100565910339,-0.00031954256701283157,-0.004117709118872881,0.012755823321640491
286.0,0.0,0.0,0.0,0.0,0.0,0.0,-0.0026248665526509285,-2.595024307083804e-05,0.006519485730677843,0.9999154210090637,-0.00016008311649784446,-0.003828079206869006,0.012428400106728077
287.0,0.0,0.0,0.0,0.0,0.0,0.0,-0.00045505003072321415,0.0015290504088625312,-0.0016591165913268924,0.9999228119850159,-0.00019098990014754236,-0.0036105685867369175,0.011888358741998672
288.0,0.0,0.0,0.0,0.0,0.0,0.0,0.0011781846405938268,0.0032212778460234404,-0.008721212856471539,0.9999268651008606,-3.414376260479912e-05,-0.0035482123494148254,0.01156269945204258
289.0,0.0,0.0,0.0,0.0,0.0,0.0,-0.0054188622161746025,0.0009293269249610603,-0.005649787373840809,0.9999305605888367,0.00013147806748747826,-0.003263364313170314,0.011325517669320107
290.0,0.0,0.0,0.0,0.0,0.0,0.0,-0.0074241929687559605,0.0023490944877266884,-0.007723984774202108,0.999932587146759,0.00025809716316871345,-0.002992077497765422,0.01121252030134201
291.0,0.0,0.0,0.0,0.0,0.0,0.0,-0.0056387740187346935,0.0031949051190167665,-0.011456755921244621,0.999926745891571,0.0005073769716545939,-0.0029010644648224115,0.011739538982510567
292.0,0.0,0.0,0.0,0.0,0.0,0.0,-0.008840043097734451,0.0013820671010762453,-0.007644140161573887,0.9999170303344727,0.0010534911416471004,-0.0028132100123912096,0.012523273006081581
293.0,0.0,0.0,0.0,0.0,0.0,0.0,-0.007576357573270798,0.0034873259719461203,-0.009212403558194637,0.9999167323112488,0.0011309098917990923,-0.0024952664971351624,0.012611518613994122
294.0,0.0,0.0,0.0,0.0,0.0,0.0,-0.0070148007944226265,0.0027149447705596685,-0.0070069399662315845,0.99991774559021,0.0011239709565415978,-0.0024151839315891266,0.012548169121146202
295.0,0.0,0.0,0.0,0.0,0.0,0.0,-0.005461407825350761,0.0021254834719002247,-0.004241651855409145,0.9999139308929443,0.001313604530878365,-0.002426679478958249,0.012828572653234005
296.0,0.0,0.0,0.0,0.0,0.0,0.0,-0.0043161045759916306,0.0005857193609699607,-0.0019096533069387078,0.999912440776825,0.0014290680410340428,-0.002510362770408392,0.012910816818475723
297.0,0.0,0.0,0.0,0.0,0.0,0.0,-0.0011872041504830122,-0.000559746811632067,0.0019337058765813708,0.9999082684516907,0.001572117325849831,-0.002695101546123624,0.013180471956729889
298.0,0.0,0.0,0.0,0.0,0.0,0.0,-0.00035100869718007743,-0.004825398325920105,-0.00040040138992480934,0.9999122023582458,0.0013432548148557544,-0.0026342293713241816,0.012920115143060684
299.0,0.0,0.0,0.0,0.0,0.0,0.0,-0.0015025411266833544,-0.004995548631995916,0.0055988384410738945,0.9999184608459473,0.0013680591946467757,-0.0025475588627159595,0.012436755001544952
300.0,0.0,0.0,0.0,0.0,0.0,0.0,-0.0026798804756253958,-0.005543516483157873,0.014205886982381344,0.9999237060546875,0.0010966405970975757,-0.0028935126028954983,0.011961848475039005
301.0,0.0,0.0,0.0,0.0,0.0,0.0,-0.005528210662305355,-0.006944763474166393,0.02258209139108658,0.9999266862869263,0.0009369012550450861,-0.0031870806124061346,0.011647019535303116
302.0,0.0,0.0,0.0,0.0,0.0,0.0,-0.007329253945499659,-0.00898959580808878,0.015035904012620449,0.9999330639839172,0.0010359574807807803,-0.0031890820246189833,0.011070904321968555
303.0,0.0,0.0,0.0,0.0,0.0,0.0,-0.006355790421366692,-0.007343533914536238,0.009849832393229008,0.9999386668205261,0.0009108954691328108,-0.003042380791157484,0.01060937438160181
304.0,0.0,0.0,0.0,0.0,0.0,0.0,-0.007415497209876776,-0.004079258535057306,0.00960065983235836,0.9999439716339111,0.0006177429459057748,-0.002572624245658517,0.01025078259408474
305.0,0.0,0.0,0.0,0.0,0.0,0.0,-0.007947348989546299,-0.001984521048143506,0.00975296925753355,0.9999529719352722,0.0003974233113694936,-0.00202562240883708,0.009471573866903782
306.0,0.0,0.0,0.0,0.0,0.0,0.0,-0.010300175286829472,-0.0019706524908542633,0.008876382373273373,0.9999671578407288,0.00041271423106081784,-0.0010490090353414416,0.008020373061299324
307.0,0.0,0.0,0.0,0.0,0.0,0.0,-0.005154601763933897,0.002563164569437504,-0.005271031986922026,0.9999777674674988,0.0005364130483940244,-3.1537179893348366e-05,0.006647428963333368
308.0,0.0,0.0,0.0,0.0,0.0,0.0,0.0003718648513313383,0.009016390889883041,-0.015187988989055157,0.9999820590019226,0.0008741079946048558,0.0007278360426425934,0.005872491281479597
309.0,0.0,0.0,0.0,0.0,0.0,0.0,0.00865264143794775,0.018394533544778824,-0.019289540126919746,0.9999830722808838,0.0013018676545470953,0.0013994063483551145,0.005489454139024019
310.0,0.0,0.0,0.0,0.0,0.0,0.0,0.010236361995339394,0.020909570157527924,-0.018253767862915993,0.9999808073043823,0.0019898919854313135,0.0015892734518274665,0.005639406852424145
311.0,0.0,0.0,0.0,0.0,0.0,0.0,0.009896605275571346,0.0219353549182415,-0.013803375884890556,0.9999739527702332,0.0027833085041493177,0.0018218884943053126,0.006396320648491383
312.0,0.0,0.0,0.0,0.0,0.0,0.0,0.00773179205134511,0.018818335607647896,-0.014613131061196327,0.9999658465385437,0.0034032973926514387,0.0020145743619650602,0.0072546000592410564
313.0,0.0,0.0,0.0,0.0,0.0,0.0,0.0056719365529716015,0.01739540882408619,-0.011288722977042198,0.9999603033065796,0.0035764812491834164,0.002094368217512965,0.007886139675974846
314.0,0.0,0.0,0.0,0.0,0.0,0.0,0.002942356513813138,0.01431110966950655,-0.006129442248493433,0.9999531507492065,0.0037753155920654535,0.0020660459995269775,0.008670750074088573
315.0,0.0,0.0,0.0,0.0,0.0,0.0,-0.0006761220865882933,0.009999566711485386,-0.006652406416833401,0.9999473094940186,0.003703414462506771,0.001994775142520666,0.009362776763737202
316.0,0.0,0.0,0.0,0.0,0.0,0.0,-0.003678803099319339,0.008751180954277515,-0.010190296918153763,0.9999399185180664,0.003955245018005371,0.0019042609492316842,0.010043548420071602
317.0,0.0,0.0,0.0,0.0,0.0,0.0,-0.004536554682999849,0.008746916428208351,-0.010133611038327217,0.9999347925186157,0.0038869816344231367,0.002018118044361472,0.01054542139172554
318.0,0.0,0.0,0.0,0.0,0.0,0.0,-0.0019937411416321993,0.008509155362844467,-0.009893395006656647,0.9999266862869263,0.003700572531670332,0.0022804790642112494,0.011300127021968365
319.0,0.0,0.0,0.0,0.0,0.0,0.0,0.002346690744161606,0.01081920601427555,0.004388696979731321,0.9999178647994995,0.0037019175942987204,0.001893892651423812,0.012127148918807507
320.0,0.0,0.0,0.0,0.0,0.0,0.0,0.0013854498974978924,0.008655112236738205,0.011667875573039055,0.9999186396598816,0.0036951920483261347,0.001437820610590279,0.012117637321352959
321.0,0.0,0.0,0.0,0.0,0.0,0.0,-0.0016649732133373618,0.0033064589370042086,-0.006610569544136524,0.9999161958694458,0.0036988495849072933,0.0014418516075238585,0.012319116853177547
322.0,0.0,0.0,0.0,0.0,0.0,0.0,0.001514849136583507,0.0026801107451319695,0.01028708927333355,0.9999119639396667,0.003646477358415723,0.0010885220253840089,0.012708748690783978
323.0,0.0,0.0,0.0,0.0,0.0,0.0,0.0008862553513608873,-0.0013615479692816734,0.0049851019866764545,0.9999112486839294,0.0032515032216906548,0.0010247244499623775,0.012881818227469921
324.0,0.0,0.0,0.0,0.0,0.0,0.0,0.0025645275600254536,-0.004796197637915611,-0.0021555102430284023,0.9999139904975891,0.0029631091747432947,0.0009993778076022863,0.012733173556625843
325.0,0.0,0.0,0.0,0.0,0.0,0.0,-0.002152340952306986,-0.010374180041253567,-0.006461078766733408,0.9999163150787354,0.0027053439989686012,0.0012019174173474312,0.012594767846167088
326.0,0.0,0.0,0.0,0.0,0.0,0.0,-0.0043150861747562885,-0.0055057816207408905,-0.010510357096791267,0.999910831451416,0.0022902702912688255,0.0011412504827603698,0.013105135411024094
327.0,0.0,0.0,0.0,0.0,0.0,0.0,-0.008846970275044441,-0.005148758180439472,0.045155107975006104,0.9999077916145325,0.001808948814868927,0.0004210441547911614,0.013452708721160889
328.0,0.0,0.0,0.0,0.0,0.0,0.0,-0.01256641000509262,-0.011021020822227001,0.0012754746712744236,0.9999138116836548,0.001959617016837001,0.0003021293377969414,0.012973434291779995
329.0,0.0,0.0,0.0,0.0,0.0,0.0,0.0006148869288153946,-0.0035358259920030832,-0.011275324039161205,0.9999142289161682,0.001960755093023181,0.0004972665337845683,0.012941522523760796
330.0,0.0,0.0,0.0,0.0,0.0,0.0,-0.0017021681414917111,0.00026543691637925804,0.007836970500648022,0.9999189972877502,0.002006992930546403,0.0005189236253499985,0.012556885369122028
331.0,0.0,0.0,0.0,0.0,0.0,0.0,0.0012299903901293874,0.006998253986239433,0.009081592783331871,0.9999193549156189,0.002279919572174549,0.00017533333448227495,0.012487263418734074
332.0,0.0,0.0,0.0,0.0,0.0,0.0,0.004630952142179012,0.0070554157719016075,-0.0003388765617273748,0.9999178051948547,0.0024989633820950985,0.00033192470436915755,0.012571247294545174
333.0,0.0,0.0,0.0,0.0,0.0,0.0,0.006538774352520704,0.010840137489140034,0.001894107204861939,0.9999149441719055,0.002787395380437374,0.00017225107876583934,0.012735454365611076
334.0,0.0,0.0,0.0,0.0,0.0,0.0,0.006610301323235035,0.012627695687115192,0.004232194274663925,0.9999119639396667,0.003078597132116556,0.0002144017198588699,0.012905112467706203
335.0,0.0,0.0,0.0,0.0,0.0,0.0,0.0063296230509877205,0.0126253142952919,0.0008453003829345107,0.999910831451416,0.003297201357781887,9.717520151752979e-05,0.012942835688591003
336.0,0.0,0.0,0.0,0.0,0.0,0.0,0.007631664630025625,0.012134856544435024,-0.0006798908580094576,0.9999121427536011,0.00332659506238997,5.0202987040393054e-05,0.012835346162319183
337.0,0.0,0.0,0.0,0.0,0.0,0.0,0.006177129223942757,0.011254954151809216,-0.02891937457025051,0.9999109506607056,0.0035348294768482447,0.0002609344373922795,0.012871905229985714
338.0,0.0,0.0,0.0,0.0,0.0,0.0,0.003227773355320096,0.008214739151299,0.009312363341450691,0.9999086856842041,0.003313689725473523,9.162375499727204e-05,0.013101253658533096
339.0,0.0,0.0,0.0,0.0,0.0,0.0,-0.0007605123100802302,0.005939903203397989,0.013150760903954506,0.9999023675918579,0.0033984847832471132,-0.00021957435819786042,0.013553479686379433
340.0,0.0,0.0,0.0,0.0,0.0,0.0,-0.0033258965704590082,-0.0026904328260570765,-0.007732748053967953,0.9999037384986877,0.0033305520191788673,-0.0001889457053039223,0.013468720950186253
341.0,0.0,0.0,0.0,0.0,0.0,0.0,0.0022550385911017656,-0.003695738036185503,-0.004806600511074066,0.9999085664749146,0.003016571281477809,5.186254838918103e-06,0.013184879906475544
342.0,0.0,0.0,0.0,0.0,0.0,0.0,-0.001962542999535799,-0.0071227578446269035,0.005685723852366209,0.9999145269393921,0.0029290304519236088,0.0002496670640539378,0.012739203870296478
343.0,0.0,0.0,0.0,0.0,0.0,0.0,0.0014542858116328716,-0.004833230283111334,0.003946702461689711,0.9999191164970398,0.0027772446628659964,0.0002808983554132283,0.012407227419316769
344.0,0.0,0.0,0.0,0.0,0.0,0.0,0.0077521661296486855,0.0035859704948961735,0.0011980015551671386,0.9999237060546875,0.0027793629560619593,0.00022780241852160543,0.012032058089971542
345.0,0.0,0.0,0.0,0.0,0.0,0.0,0.007960593327879906,0.00209502549842,-0.002866277936846018,0.9999229311943054,0.0029948297888040543,-8.044466994761024e-06,0.012047908268868923
346.0,0.0,0.0,0.0,0.0,0.0,0.0,0.009256711229681969,0.003454501973465085,-0.00569148687645793,0.9999197721481323,0.003262625075876713,-0.00017843225214164704,0.012230983935296535
347.0,0.0,0.0,0.0,0.0,0.0,0.0,0.0062880446203053,0.0024460959248244762,-0.010227120481431484,0.9999180436134338,0.0033698275219649076,-0.00033839367097243667,0.012342766858637333
348.0,0.0,0.0,0.0,0.0,0.0,0.0,0.002311829710379243,-0.00012096227874280885,-0.01356449257582426,0.9999183416366577,0.00309591181576252,-0.0005095507367514074,0.012388218194246292
349.0,0.0,0.0,0.0,0.0,0.0,0.0,-0.0014295331202447414,-0.0025884148199111223,-0.008529427461326122,0.9999143481254578,0.002873803721740842,-0.0004751592641696334,0.012762388214468956
350.0,0.0,0.0,0.0,0.0,0.0,0.0,-0.004137866199016571,-0.00299517042003572,-0.003981634508818388,0.9999110698699951,0.0026544532738626003,-0.00037358884583227336,0.013058820739388466
351.0,0.0,0.0,0.0,0.0,0.0,0.0,-0.005025317892432213,-0.002286988776177168,0.001569370273500681,0.9999116063117981,0.0027084890753030777,-0.0002252884878544137,0.013012229464948177
352.0,0.0,0.0,0.0,0.0,0.0,0.0,-0.002680290024727583,-0.003604975063353777,-1.1431738130340818e-05,0.9999089241027832,0.0024818452075123787,-7.561851089121774e-05,0.013266433961689472
353.0,0.0,0.0,0.0,0.0,0.0,0.0,-0.0018901713192462921,-0.0043422020971775055,-0.0037237710785120726,0.9999079704284668,0.0022530436981469393,3.872357410728e-05,0.013379801996052265
354.0,0.0,0.0,0.0,0.0,0.0,0.0,-0.0032686800695955753,-0.002103263046592474,0.0016661345725879073,0.9999123215675354,0.0017990118358284235,0.00014089154137764126,0.0131178367882967
355.0,0.0,0.0,0.0,0.0,0.0,0.0,-0.0030310885049402714,0.0013113224413245916,0.005256999284029007,0.9999102354049683,0.001825415645726025,0.00016342545859515667,0.013269420713186264
356.0,0.0,0.0,0.0,0.0,0.0,0.0,-0.004565105307847261,0.0005124270101077855,0.008568640798330307,0.9999075531959534,0.0015199847985059023,5.34762984898407e-05,0.013513860292732716
357.0,0.0,0.0,0.0,0.0,0.0,0.0,-0.0066183460876345634,0.0029786424711346626,0.012599955312907696,0.9999104142189026,0.00144448212813586,0.0002286368253408,0.013304347172379494
358.0,0.0,0.0,0.0,0.0,0.0,0.0,-0.00449951458722353,0.0028446561191231012,-0.00879712775349617,0.9999127984046936,0.0014745049411430955,0.0004821443581022322,0.01311193685978651
359.0,0.0,0.0,0.0,0.0,0.0,0.0,-0.002741446252912283,0.004517027176916599,-0.010935894213616848,0.9999125599861145,0.0015485819894820452,0.0008079076651483774,0.013107798993587494
360.0,0.0,0.0,0.0,0.0,0.0,0.0,-0.00185137998778373,0.007897167466580868,0.009895697236061096,0.9999054670333862,0.001628716243430972,0.0006408116896636784,0.013636643067002296
361.0,0.0,0.0,0.0,0.0,0.0,0.0,-0.0026298989541828632,0.008347668685019016,0.018987994641065598,0.9999038577079773,0.0016211530892178416,0.00026962393894791603,0.013764077797532082
362.0,0.0,0.0,0.0,0.0,0.0,0.0,-0.002572716912254691,0.006127676460891962,0.015090749599039555,0.9999072551727295,0.00148368114605546,1.0408971320430283e-05,0.013540072366595268
363.0,0.0,0.0,0.0,0.0,0.0,0.0,0.0006887817871756852,0.009097207337617874,0.015192355029284954,0.9999058246612549,0.0016268369508907199,-0.0004486197722144425,0.01362027321010828
364.0,0.0,0.0,0.0,0.0,0.0,0.0,0.00027521076845005155,0.005257430952042341,0.003706972347572446,0.9999066591262817,0.0019975195173174143,-0.0006445070030167699,0.013501078821718693
365.0,0.0,0.0,0.0,0.0,0.0,0.0,-0.0008747287793084979,0.0004665541637223214,-0.008447297848761082,0.9999100565910339,0.002184003358706832,-0.0007504698005504906,0.01320991013199091
366.0,0.0,0.0,0.0,0.0,0.0,0.0,0.00024976543500088155,-0.00037913204869255424,-0.017613165080547333,0.9999140501022339,0.002153223380446434,-0.0006297276704572141,0.012918428517878056
367.0,0.0,0.0,0.0,0.0,0.0,0.0,0.0007295660907402635,-0.0019137528724968433,-0.01493391115218401,0.9999117851257324,0.002332096453756094,-0.0006562134949490428,0.013057352975010872
368.0,0.0,0.0,0.0,0.0,0.0,0.0,-0.0015227596741169691,-0.004326263442635536,-0.011940115131437778,0.9999099373817444,0.0021525563206523657,-0.00041575287468731403,0.013245715759694576
369.0,0.0,0.0,0.0,0.0,0.0,0.0,-0.004255654755979776,-0.003957232926040888,-0.003762301988899708,0.9999136924743652,0.0019420195603743196,-0.00020788588153664023,0.012990440241992474
370.0,0.0,0.0,0.0,0.0,0.0,0.0,-0.009439661167562008,-0.006451319437474012,-0.0015219090273603797,0.9999145865440369,0.0017151919892057776,-9.291235619457439e-05,0.012958841398358345
371.0,0.0,0.0,0.0,0.0,0.0,0.0,-0.010650190524756908,-0.004897019825875759,0.004771101754158735,0.9999135732650757,0.0016606822609901428,-2.4542390747228637e-05,0.013041140511631966
372.0,0.0,0.0,0.0,0.0,0.0,0.0,-0.005427922587841749,0.0004008867545053363,0.0023900701198726892,0.9999117851257324,0.001670529250986874,0.00014830594591330737,0.013176033273339272
373.0,0.0,0.0,0.0,0.0,0.0,0.0,-0.001743255415931344,0.0015491923550143838,-0.013420319184660912,0.9999108910560608,0.0019387934589758515,0.0004854090220760554,0.013199692592024803
374.0,0.0,0.0,0.0,0.0,0.0,0.0,0.0014705333160236478,0.003369987476617098,-0.01879793219268322,0.9999033212661743,0.0022402245085686445,0.0006596692837774754,0.013708622194826603
375.0,0.0,0.0,0.0,0.0,0.0,0.0,0.0013589774025604129,0.0044222562573850155,-0.01873607560992241,0.999900221824646,0.0026015550829470158,0.0005601807497441769,0.013869552873075008
376.0,0.0,0.0,0.0,0.0,0.0,0.0,-0.0002176042617065832,0.005975542590022087,-0.01165216974914074,0.9999032020568848,0.002610815456137061,0.0006320130196399987,0.013652877882122993
377.0,0.0,0.0,0.0,0.0,0.0,0.0,-0.0011755620362237096,0.00784124992787838,-0.0009905562037602067,0.9998959302902222,0.0027178616728633642,0.00043985628872178495,0.014159615151584148
378.0,0.0,0.0,0.0,0.0,0.0,0.0,-0.0006357906968332827,0.005774085875600576,-0.0004961442318744957,0.9998847842216492,0.0029418431222438812,0.00020129438780713826,0.014888552948832512
379.0,0.0,0.0,0.0,0.0,0.0,0.0,0.001229134388267994,0.0031307509634643793,0.001165430643595755,0.9998822808265686,0.002839003223925829,4.5048873289488256e-05,0.015078411437571049
380.0,0.0,0.0,0.0,0.0,0.0,0.0,0.0029705448541790247,0.001041008741594851,0.00499375956133008,0.999882161617279,0.0024474794045090675,-0.00011195705155842006,0.015152966603636742
381.0,0.0,0.0,0.0,0.0,0.0,0.0,0.0029516713693737984,0.00038930997834540904,0.008247096091508865,0.9998722672462463,0.0022637995425611734,-0.0004631623160094023,0.015812525525689125
382.0,0.0,0.0,0.0,0.0,0.0,0.0,-5.401104317570571e-06,-0.0036197970621287823,0.0207824744284153,0.9998759627342224,0.001752479700371623,-0.0006507248617708683,0.01563527248799801
383.0,0.0,0.0,0.0,0.0,0.0,0.0,-0.001721372245810926,-0.002908332273364067,0.011556855402886868,0.9998749494552612,0.0014422436943277717,-0.0008590333163738251,0.015723638236522675
384.0,0.0,0.0,0.0,0.0,0.0,0.0,-0.006669912487268448,-0.007138089742511511,0.020997971296310425,0.9998795390129089,0.0010368997463956475,-0.0007566084386780858,0.015469063073396683
385.0,0.0,0.0,0.0,0.0,0.0,0.0,-0.0020332811400294304,-0.004908332601189613,0.005932261236011982,0.9998891353607178,0.0006786929443478584,-0.0007634180947206914,0.014851074665784836
386.0,0.0,0.0,0.0,0.0,0.0,0.0,-0.004348110407590866,-0.008514641784131527,-0.018217839300632477,0.9998902678489685,0.0005884728743694723,-0.0002677077427506447,0.014798575080931187
387.0,0.0,0.0,0.0,0.0,0.0,0.0,-0.006506965029984713,-0.00702892430126667,-0.010512138716876507,0.9998943209648132,0.00032519098022021353,-2.572868652350735e-06,0.014534299261868
388.0,0.0,0.0,0.0,0.0,0.0,0.0,-0.0059092906303703785,0.0006172563298605382,-0.005727958399802446,0.9999018907546997,-3.746653601410799e-05,0.0005685698124580085,0.013994472101330757
389.0,0.0,0.0,0.0,0.0,0.0,0.0,-0.002066903980448842,0.006895691156387329,-0.0018136099679395556,0.9999043941497803,-0.00011350129352649674,0.0008368956623598933,0.01380202081054449
390.0,0.0,0.0,0.0,0.0,0.0,0.0,0.0008522116113454103,0.00788798462599516,-0.010021657682955265,0.9999011158943176,-0.00010059613850899041,0.000934455543756485,0.014030948281288147
391.0,0.0,0.0,0.0,0.0,0.0,0.0,0.003957760985940695,0.010592333041131496,-0.004278527107089758,0.9998977184295654,1.8229424313176423e-05,0.0008794506429694593,0.014278235845267773
392.0,0.0,0.0,0.0,0.0,0.0,0.0,0.004576464183628559,0.010265863500535488,0.005061729811131954,0.9998939633369446,0.0001454038283554837,0.0006757508963346481,0.01454745139926672
393.0,0.0,0.0,0.0,0.0,0.0,0.0,0.008356963284313679,0.009087533690035343,-0.005007585510611534,0.9998897910118103,0.00033962828456424177,0.0005463236593641341,0.014827234670519829
394.0,0.0,0.0,0.0,0.0,0.0,0.0,0.007474411278963089,0.007942036725580692,-0.009164744056761265,0.9998840093612671,0.0005052285268902779,0.0005028090090490878,0.015210648998618126
395.0,0.0,0.0,0.0,0.0,0.0,0.0,-0.0006238316418603063,-0.0020410814322531223,-0.006357650272548199,0.9998732805252075,0.00034049246460199356,0.0003239709185436368,0.015914801508188248
396.0,0.0,0.0,0.0,0.0,0.0,0.0,-0.0012438566191121936,0.000524582399521023,0.0015528186922892928,0.9998728036880493,5.5116448493208736e-05,0.0003754657809622586,0.01594725251197815
397.0,0.0,0.0,0.0,0.0,0.0,0.0,-0.004706228617578745,-0.0025785458274185658,0.010891761630773544,0.9998843669891357,-0.00028341801953502,0.000426029582740739,0.015200340189039707
398.0,0.0,0.0,0.0,0.0,0.0,0.0,0.0005626360652968287,-0.003703850321471691,0.011398420669138432,0.999889075756073,-0.00031029729871079326,0.0005495919031091034,0.014880047179758549
399.0,0.0,0.0,0.0,0.0,0.0,0.0,0.00840733665972948,0.004634595010429621,0.010670237243175507,0.9998904466629028,-0.00026429948047734797,9.615308226784691e-05,0.014801054261624813
400.0,0.0,0.0,0.0,0.0,0.0,0.0,0.0069787027314305305,0.003707167925313115,0.001240816549398005,0.9998904466629028,0.00016328541096299887,-0.00017875696357805282,0.01479982491582632
401.0,0.0,0.0,0.0,0.0,0.0,0.0,0.008284751325845718,0.001836752169765532,-0.01150890626013279,0.9998916387557983,0.0004939033533446491,0.00021764615667052567,0.01470737811177969
402.0,0.0,0.0,0.0,0.0,0.0,0.0,0.012485521845519543,-0.0013564374530687928,-0.0271307285875082,0.999888002872467,0.0004524097603280097,0.00017284521891269833,0.01495599839836359
403.0,0.0,0.0,0.0,0.0,0.0,0.0,0.007402851711958647,-0.006336107850074768,-0.013388607650995255,0.9998806715011597,0.0002533581864554435,-3.857629053527489e-05,0.015452341176569462
404.0,0.0,0.0,0.0,0.0,0.0,0.0,0.006451721303164959,-0.002950041787698865,0.008449077606201172,0.9998798370361328,0.0002521583519410342,-0.000408796186093241,0.0154912443831563
405.0,0.0,0.0,0.0,0.0,0.0,0.0,0.006673639640212059,0.0030938221607357264,0.016366228461265564,0.9998902678489685,2.2599992007599212e-05,-0.0006238294299691916,0.014803336001932621
406.0,0.0,0.0,0.0,0.0,0.0,0.0,0.0041307732462882996,0.0034009115770459175,0.014475623145699501,0.9998985528945923,2.6081923351739533e-05,-0.0009568406385369599,0.014211500994861126
407.0,0.0,0.0,0.0,0.0,0.0,0.0,0.0032881288789212704,0.004287077113986015,0.018039096146821976,0.9999074935913086,-0.00011205221380805597,-0.0011584003223106265,0.013557140715420246
408.0,0.0,0.0,0.0,0.0,0.0,0.0,0.004004364367574453,0.007625462953001261,0.013842534273862839,0.9999150633811951,5.162311208550818e-05,-0.0013330206274986267,0.012962738052010536
409.0,0.0,0.0,0.0,0.0,0.0,0.0,0.0045370194129645824,0.00709268543869257,0.006789844017475843,0.9999116659164429,0.0002920866827480495,-0.0017001642845571041,0.013176916167140007
410.0,0.0,0.0,0.0,0.0,0.0,0.0,0.006365778855979443,0.004076511599123478,-0.0012443304294720292,0.9999088048934937,0.00035652052611112595,-0.00167309888638556,0.013398873619735241
411.0,0.0,0.0,0.0,0.0,0.0,0.0,0.00629415875300765,0.004316353239119053,-0.007092652842402458,0.9999095797538757,0.0005195845733396709,-0.0019643460400402546,0.013296247459948063
412.0,0.0,0.0,0.0,0.0,0.0,0.0,0.004324008710682392,0.002675142604857683,-0.007259352132678032,0.9999114871025085,0.000492979132104665,-0.0021058444399386644,0.013123017735779285
413.0,0.0,0.0,0.0,0.0,0.0,0.0,0.00314163020811975,-0.0007152999751269817,-0.007924353703856468,0.9999134540557861,0.00029775965958833694,-0.0019447607919573784,0.013004993088543415
414.0,0.0,0.0,0.0,0.0,0.0,0.0,0.0023873839527368546,0.0055360435508191586,0.005911556538194418,0.999909520149231,0.00020903623953927308,-0.002122274599969387,0.013279697857797146
415.0,0.0,0.0,0.0,0.0,0.0,0.0,0.002028103219345212,0.009907019324600697,0.015647850930690765,0.9999050498008728,0.0003150964330416173,-0.0025098989717662334,0.01354743167757988
416.0,0.0,0.0,0.0,0.0,0.0,0.0,0.0034691409673541784,0.007609052117913961,0.0033934751991182566,0.9999067783355713,0.0004468435945454985,-0.002526379656046629,0.013415312394499779
417.0,0.0,0.0,0.0,0.0,0.0,0.0,0.0054470570757985115,0.005333019886165857,-0.007398941088467836,0.9999057054519653,0.0004106601991225034,-0.002742358483374119,0.01344545278698206
418.0,0.0,0.0,0.0,0.0,0.0,0.0,0.005191751290112734,0.0030086145270615816,-0.0010030459379777312,0.9999058246612549,0.00019680218247231096,-0.00320738204754889,0.01334233209490776
419.0,0.0,0.0,0.0,0.0,0.0,0.0,0.00186586519703269,0.0008330672280862927,-0.0017931219190359116,0.9999067783355713,0.00020961088011972606,-0.0033894062507897615,0.013221983797848225
420.0,0.0,0.0,0.0,0.0,0.0,0.0,-0.0016311525832861662,-0.000889680755790323,-0.00107194809243083,0.9998987317085266,0.00015507425996474922,-0.0035529518499970436,0.01377952378243208
421.0,0.0,0.0,0.0,0.0,0.0,0.0,-0.002249621320515871,-0.0005164652247913182,0.0004818995075765997,0.9998959898948669,-3.525628198985942e-05,-0.0037681988906115294,0.013920688070356846
422.0,0.0,0.0,0.0,0.0,0.0,0.0,-0.006665573921054602,-0.004216799978166819,0.0007489126292057335,0.9998966455459595,-0.0001578779920237139,-0.003923421259969473,0.013829225674271584
423.0,0.0,0.0,0.0,0.0,0.0,0.0,-0.008521036244928837,-0.006088715512305498,0.0004201190604362637,0.9999013543128967,-0.00029679437284357846,-0.003731586504727602,0.013535271398723125
424.0,0.0,0.0,0.0,0.0,0.0,0.0,-0.008999140001833439,-0.009357056580483913,-0.0016865093493834138,0.9999139308929443,-0.0008712314302101731,-0.003238222561776638,0.01268248725682497
425.0,0.0,0.0,0.0,0.0,0.0,0.0,-0.004561322741210461,-0.00611615926027298,-0.009277737699449062,0.9999129772186279,-0.0011003384133800864,-0.003194027114659548,0.012753713876008987
426.0,0.0,0.0,0.0,0.0,0.0,0.0,-0.012284289114177227,-0.007635179907083511,0.004405027721077204,0.9999183416366577,-0.001456470345146954,-0.0030503401067107916,0.012323944829404354
427.0,0.0,0.0,0.0,0.0,0.0,0.0,-0.006246635690331459,-0.0055574835278093815,-0.007349825464189053,0.9999266266822815,-0.0018828980391845107,-0.0026478164363652468,0.011668892577290535
428.0,0.0,0.0,0.0,0.0,0.0,0.0,-0.005545222666114569,-0.005226627923548222,-0.007400433998554945,0.9999239444732666,-0.0023999300319701433,-0.0022697197273373604,0.01188378781080246
429.0,0.0,0.0,0.0,0.0,0.0,0.0,-0.011218158528208733,-0.0061831483617424965,0.0029010861180722713,0.9999205470085144,-0.0025588369462639093,-0.002475566463544965,0.012084773741662502
430.0,0.0,0.0,0.0,0.0,0.0,0.0,-0.010656075552105904,-0.004196660127490759,0.0060886056162416935,0.9999226927757263,-0.002672641770914197,-0.002522257389500737,0.011878934688866138
431.0,0.0,0.0,0.0,0.0,0.0,0.0,-0.00975947268307209,-0.0036286625545471907,0.010627190582454205,0.9999303221702576,-0.0028516706079244614,-0.0024245104286819696,0.011193517595529556
432.0,0.0,0.0,0.0,0.0,0.0,0.0,-0.008971840143203735,-0.0018989708041772246,0.0074159507639706135,0.9999303221702576,-0.00281357578933239,-0.0022117788903415203,0.011255615390837193
433.0,0.0,0.0,0.0,0.0,0.0,0.0,-0.006340996362268925,-0.0016941579524427652,-0.000436362432083115,0.9999324679374695,-0.0027815692592412233,-0.001954791834577918,0.011112349107861519
434.0,0.0,0.0,0.0,0.0,0.0,0.0,-0.002005155896767974,-0.0007916048634797335,-0.003170183626934886,0.9999440908432007,-0.002964228857308626,-0.0013833051780238748,0.010050404816865921
435.0,0.0,0.0,0.0,0.0,0.0,0.0,1.5281133528333157e-05,0.002654534764587879,-0.001214060466736555,0.9999470114707947,-0.0031678571831434965,-0.0010965295368805528,0.009737325832247734
436.0,0.0,0.0,0.0,0.0,0.0,0.0,-0.001933428575284779,0.006906216032803059,0.005581780336797237,0.9999442100524902,-0.003100488567724824,-0.001154031022451818,0.010032296180725098
437.0,0.0,0.0,0.0,0.0,0.0,0.0,-0.005107448436319828,0.009716708213090897,0.03033013828098774,0.9999384880065918,-0.002985857194289565,-0.0013988983118906617,0.010593031533062458
438.0,0.0,0.0,0.0,0.0,0.0,0.0,0.0013757202541455626,0.010068547911942005,0.02862771600484848,0.999943196773529,-0.002346681896597147,-0.0013575030025094748,0.010304792784154415
439.0,0.0,0.0,0.0,0.0,0.0,0.0,0.006327061448246241,0.009749801829457283,0.00046434265095740557,0.9999507069587708,-0.0019258026732131839,-0.0013635491486638784,0.009645769372582436
440.0,0.0,0.0,0.0,0.0,0.0,0.0,0.004467064514756203,0.011478467844426632,-0.009267904795706272,0.999952495098114,-0.00137373770121485,-0.001211903989315033,0.009568016044795513
441.0,0.0,0.0,0.0,0.0,0.0,0.0,0.0047907596454024315,0.007523758336901665,-0.014166186563670635,0.9999486207962036,-0.0007353188120760024,-0.001159094157628715,0.010037132538855076
442.0,0.0,0.0,0.0,0.0,0.0,0.0,0.005819688085466623,0.00808131042867899,-0.020990638062357903,0.9999473690986633,-0.0004916199250146747,-0.0011762833455577493,0.01017609890550375
443.0,0.0,0.0,0.0,0.0,0.0,0.0,0.005248429253697395,0.007502208463847637,-0.013724543154239655,0.9999455809593201,-4.001858178526163e-05,-0.0014322638744488358,0.010340405628085136
444.0,0.0,0.0,0.0,0.0,0.0,0.0,0.006423528306186199,0.005167808849364519,-0.004117148462682962,0.9999412894248962,0.0007055139285512269,-0.0017277083825320005,0.010663344524800777
445.0,0.0,0.0,0.0,0.0,0.0,0.0,0.00928296335041523,0.0039490144699811935,-0.0020369666162878275,0.9999380707740784,0.0009650374413467944,-0.002076413482427597,0.01088941190391779
446.0,0.0,0.0,0.0,0.0,0.0,0.0,0.011553261429071426,0.0016916318563744426,-0.015412289649248123,0.9999313950538635,0.0014049140736460686,-0.002457483671605587,0.01136063039302826
447.0,0.0,0.0,0.0,0.0,0.0,0.0,0.009021998383104801,0.0036512305960059166,-0.011691191233694553,0.9999145865440369,0.0019770744256675243,-0.00296721956692636,0.012574841268360615
448.0,0.0,0.0,0.0,0.0,0.0,0.0,-0.002426127903163433,0.0033674663864076138,0.014044834300875664,0.999901294708252,0.002084168139845133,-0.003770342329517007,0.013373222202062607
449.0,0.0,0.0,0.0,0.0,0.0,0.0,-0.0069471001625061035,0.001822575693950057,0.010045722126960754,0.9998903274536133,0.0021530338563024998,-0.004265801981091499,0.014010132290422916
450.0,0.0,0.0,0.0,0.0,0.0,0.0,-0.00924571231007576,0.0010230335174128413,0.016212044283747673,0.9998830556869507,0.001928486512042582,-0.004357452969998121,0.014536666683852673
451.0,0.0,0.0,0.0,0.0,0.0,0.0,-0.007945488207042217,-0.0013039096957072616,0.007386854384094477,0.9998864531517029,0.0017893810290843248,-0.0042551439255476,0.014346735551953316
452.0,0.0,0.0,0.0,0.0,0.0,0.0,-0.0018947317730635405,-0.0009999038884416223,6.590537850570399e-06,0.9998841881752014,0.0016218381933867931,-0.004364847671240568,0.014487541280686855
453.0,0.0,0.0,0.0,0.0,0.0,0.0,-0.0030077334959059954,-0.005104925483465195,0.00366314803250134,0.9998785257339478,0.0014893719926476479,-0.004625760950148106,0.014809081330895424
454.0,0.0,0.0,0.0,0.0,0.0,0.0,-0.006732541602104902,-0.005323891993612051,0.002880730200558901,0.9998793601989746,0.0012261176016181707,-0.004870518110692501,0.014698904938995838
455.0,0.0,0.0,0.0,0.0,0.0,0.0,-0.011375237256288528,-0.003275120398029685,0.008755432441830635,0.9998872876167297,0.0009182224748656154,-0.004744654055684805,0.014219054952263832
456.0,0.0,0.0,0.0,0.0,0.0,0.0,-0.013224858790636063,-0.003959848079830408,0.012752885930240154,0.9998983144760132,0.0006321787950582802,-0.0046204254031181335,0.013479082845151424
457.0,0.0,0.0,0.0,0.0,0.0,0.0,-0.013043411076068878,-0.005676025990396738,0.004701570142060518,0.9999032020568848,0.0006591529818251729,-0.00455511873587966,0.013135384768247604
458.0,0.0,0.0,0.0,0.0,0.0,0.0,-0.011135278269648552,-0.004725806415081024,-0.0019495829474180937,0.9999096393585205,0.0006769754691049457,-0.004396169446408749,0.012686152942478657
459.0,0.0,0.0,0.0,0.0,0.0,0.0,-0.010556686669588089,-0.005443946924060583,-0.0025081767234951258,0.9999181032180786,0.00048395380144938827,-0.004132619593292475,0.012105446308851242
460.0,0.0,0.0,0.0,0.0,0.0,0.0,-0.006970622111111879,-0.002914202632382512,-0.0004277203988749534,0.9999213218688965,0.00041090522427111864,-0.003842404345050454,0.011929214932024479
461.0,0.0,0.0,0.0,0.0,0.0,0.0,-0.008807224221527576,-0.0009043925674632192,-0.006394396536052227,0.9999215006828308,0.00028376231784932315,-0.0036715585738420486,0.011976649053394794
462.0,0.0,0.0,0.0,0.0,0.0,0.0,-0.0074172853492200375,0.003907055594027042,-0.008820665068924427,0.999923825263977,0.0004734968242701143,-0.003277975833043456,0.011889972724020481
463.0,0.0,0.0,0.0,0.0,0.0,0.0,-0.0038100737147033215,0.0059441872872412205,-0.009453868493437767,0.9999280571937561,0.000742192380130291,-0.003053738735616207,0.011576306074857712
464.0,0.0,0.0,0.0,0.0,0.0,0.0,-0.0015327990986406803,0.0043412367813289165,-0.013260964304208755,0.9999321103096008,0.0008986907778307796,-0.0028091545682400465,0.011275281198322773
465.0,0.0,0.0,0.0,0.0,0.0,0.0,0.0003205345419701189,0.004635334946215153,-0.01419613417237997,0.9999292492866516,0.0010311099467799067,-0.0025774165987968445,0.01156838983297348
466.0,0.0,0.0,0.0,0.0,0.0,0.0,7.924913370516151e-05,0.005882250145077705,-0.007345006335526705,0.999923050403595,0.0014110020129010081,-0.0023568375036120415,0.012098402716219425
467.0,0.0,0.0,0.0,0.0,0.0,0.0,0.0019535180181264877,0.005775974132120609,-0.00997579749673605,0.999922513961792,0.0015976409194990993,-0.0020508093293756247,0.012173952534794807
468.0,0.0,0.0,0.0,0.0,0.0,0.0,0.0020043838303536177,0.0044761779718101025,-0.002370450645685196,0.999924898147583,0.0016100261127576232,-0.0018933835672214627,0.012000382877886295
469.0,0.0,0.0,0.0,0.0,0.0,0.0,0.002094957744702697,0.0035279588773846626,0.0013862834312021732,0.9999258518218994,0.0017328228568658233,-0.0017064788844436407,0.01193463709205389
470.0,0.0,0.0,0.0,0.0,0.0,0.0,0.003252146067097783,0.002759644528850913,-0.0008922884589992464,0.9999246597290039,0.001816573552787304,-0.0017810793360695243,0.012015325948596
471.0,0.0,0.0,0.0,0.0,0.0,0.0,0.0029687094502151012,0.0026535873766988516,6.783101707696915e-05,0.9999263286590576,0.0023194672539830208,-0.001679150969721377,0.011793607845902443
472.0,0.0,0.0,0.0,0.0,0.0,0.0,0.005453983321785927,0.0005079797701910138,-0.007377998903393745,0.999925971031189,0.002491259714588523,-0.0014863366959616542,0.011812562122941017
473.0,0.0,0.0,0.0,0.0,0.0,0.0,0.005225753411650658,-0.000226609903620556,-0.00613818597048521,0.9999242424964905,0.002637132303789258,-0.001440680120140314,0.011942093260586262
474.0,0.0,0.0,0.0,0.0,0.0,0.0,0.006591435056179762,0.0006676901830360293,-0.0011840800289064646,0.9999225735664368,0.002806068165227771,-0.001396617153659463,0.012040269561111927
475.0,0.0,0.0,0.0,0.0,0.0,0.0,0.003944789059460163,0.0012262673117220402,0.007774964440613985,0.9999191761016846,0.003058688249439001,-0.0014356100000441074,0.01225693803280592
476.0,0.0,0.0,0.0,0.0,0.0,0.0,0.003849019529297948,0.00014016975183039904,0.0046769799664616585,0.9999180436134338,0.003141365945339203,-0.0014770276611670852,0.012316657230257988
477.0,0.0,0.0,0.0,0.0,0.0,0.0,0.001267510699108243,-0.0010713341180235147,0.011150194332003593,0.999912679195404,0.003107599215582013,-0.0015700748190283775,0.012744984589517117
478.0,0.0,0.0,0.0,0.0,0.0,0.0,-0.002088086446747184,-0.0028422605246305466,0.01585984230041504,0.9999181628227234,0.0030307217966765165,-0.0015129962703213096,0.01234123483300209
479.0,0.0,0.0,0.0,0.0,0.0,0.0,0.0035452607553452253,-0.0011385978432372212,0.0051144761964678764,0.9999229907989502,0.003000454278662801,-0.001665899995714426,0.01192419696599245
480.0,0.0,0.0,0.0,0.0,0.0,0.0,-0.0005314899608492851,-0.005047264974564314,-0.0018969170050695539,0.9999270439147949,0.0028329589404165745,-0.0015498201828449965,0.011636399663984776
481.0,0.0,0.0,0.0,0.0,0.0,0.0,-0.0024709911085665226,-0.003593444125726819,-0.005970475729554892,0.9999254941940308,0.002931958995759487,-0.0012004566378891468,0.011782764457166195
482.0,0.0,0.0,0.0,0.0,0.0,0.0,-0.0012832724023610353,0.001491466537117958,-0.006045591551810503,0.9999165534973145,0.002795818028971553,-0.0010784291662275791,0.012560755014419556
483.0,0.0,0.0,0.0,0.0,0.0,0.0,-0.007533923722803593,-0.0025473192799836397,0.0032109799794852734,0.9999188184738159,0.002345883520320058,-0.0006455345428548753,0.012502282857894897
484.0,0.0,0.0,0.0,0.0,0.0,0.0,-0.0010603436967357993,0.0017633313545957208,-0.0041356878355145454,0.9999250173568726,0.0019761112052947283,6.398339610313997e-05,0.012084663845598698
485.0,0.0,0.0,0.0,0.0,0.0,0.0,0.001305322744883597,0.004807568155229092,-0.004133003298193216,0.9999241828918457,0.0017797022592276335,0.00017920088430400938,0.012183252722024918
486.0,0.0,0.0,0.0,0.0,0.0,0.0,0.0036707641556859016,0.006004922091960907,0.012414502911269665,0.999920129776001,0.0019260052358731627,-0.00030210730619728565,0.01248505525290966
487.0,0.0,0.0,0.0,0.0,0.0,0.0,0.006893781945109367,0.008283678442239761,0.02149343676865101,0.9999093413352966,0.0019623071420937777,-0.0010492190485820174,0.01328191813081503
488.0,0.0,0.0,0.0,0.0,0.0,0.0,0.004095608834177256,0.007481517270207405,0.008774162270128727,0.9999091625213623,0.0020788416732102633,-0.0015337169170379639,0.013227769173681736
489.0,0.0,0.0,0.0,0.0,0.0,0.0,0.004303570371121168,0.003562040627002716,-0.006209478247910738,0.9999080896377563,0.0025179593358188868,-0.0016700881533324718,0.013215434737503529
490.0,0.0,0.0,0.0,0.0,0.0,0.0,0.004727999214082956,0.0039398642256855965,-0.007930115796625614,0.9999063014984131,0.0027812544722110033,-0.001843542791903019,0.013266424648463726
491.0,0.0,0.0,0.0,0.0,0.0,0.0,0.005275249015539885,0.0038535003550350666,-0.008596787229180336,0.999902069568634,0.0029325755313038826,-0.001904026954434812,0.013554980047047138
492.0,0.0,0.0,0.0,0.0,0.0,0.0,0.0023658499121665955,0.004434024449437857,-0.005496312398463488,0.9998961091041565,0.0030843254644423723,-0.0021635903976857662,0.013916009105741978
493.0,0.0,0.0,0.0,0.0,0.0,0.0,-0.0001455106830690056,0.002638715784996748,-0.0016852747648954391,0.9998964667320251,0.0032864941749721766,-0.0020291588734835386,0.013864087872207165
494.0,0.0,0.0,0.0,0.0,0.0,0.0,0.004129902459681034,0.008480741642415524,0.0011219893349334598,0.99988853931427,0.00360077153891325,-0.0023245597258210182,0.014303749427199364
495.0,0.0,0.0,0.0,0.0,0.0,0.0,-0.00038605788722634315,0.005045023746788502,0.0022425539791584015,0.9998843669891357,0.0037651597522199154,-0.0024404251016676426,0.014528107829391956
496.0,0.0,0.0,0.0,0.0,0.0,0.0,-0.0030100462026894093,0.002465140074491501,0.006276996806263924,0.9998859167098999,0.003963989671319723,-0.002357406774535775,0.014381129294633865
497.0,0.0,0.0,0.0,0.0,0.0,0.0,0.0002010057942243293,0.002053720410913229,-0.0008044160786084831,0.9998863935470581,0.0041335830464959145,-0.002384404418990016,0.014297081157565117
498.0,0.0,0.0,0.0,0.0,0.0,0.0,-0.0019422508776187897,9.556782606523484e-05,0.0008679997408762574,0.9998833537101746,0.004139753524214029,-0.002502210671082139,0.014491119422018528
499.0,0.0,0.0,0.0,0.0,0.0,0.0,-0.0036705899983644485,-0.0026698941364884377,-0.011325650848448277,0.9998795986175537,0.00431351363658905,-0.002047720830887556,0.014762938022613525
500.0,0.0,0.0,0.0,0.0,0.0,0.0,-0.004920011851936579,-0.003525832435116172,-0.007571695372462273,0.9998792409896851,0.004005011171102524,-0.0017534184735268354,0.014913543127477169
501.0,0.0,0.0,0.0,0.0,0.0,0.0,-0.0049008941277861595,-0.00024273186863865703,0.013742946088314056,0.9998746514320374,0.004099523648619652,-0.0019140943186357617,0.015172346495091915
502.0,0.0,0.0,0.0,0.0,0.0,0.0,-0.006261155009269714,-0.0038916191551834345,0.010302703827619553,0.9998621940612793,0.004463890567421913,-0.00220358744263649,0.015835197642445564
503.0,0.0,0.0,0.0,0.0,0.0,0.0,-0.006976635195314884,-0.0027330454904586077,0.008467256091535091,0.9998629093170166,0.004392475821077824,-0.0021063722670078278,0.015821298584342003
504.0,0.0,0.0,0.0,0.0,0.0,0.0,-0.0066879186779260635,-0.003512450261041522,0.00344502623192966,0.9998705983161926,0.004223961383104324,-0.0018563078483566642,0.015413830056786537
505.0,0.0,0.0,0.0,0.0,0.0,0.0,-0.0034970915876328945,-0.0033684130758047104,-0.002847301075235009,0.9998722672462463,0.0044020083732903,-0.0016542139928787947,0.015269769355654716
506.0,0.0,0.0,0.0,0.0,0.0,0.0,-0.0031513129360973835,-0.002947998233139515,-0.007870709523558617,0.9998726844787598,0.00455201743170619,-0.001529679517261684,0.015221111476421356
507.0,0.0,0.0,0.0,0.0,0.0,0.0,-0.001304605626501143,-0.004198741167783737,-0.013017555698752403,0.9998751878738403,0.004577514715492725,-0.0011927745072171092,0.015078933909535408
508.0,0.0,0.0,0.0,0.0,0.0,0.0,0.0018991006072610617,-0.002560458844527602,-0.01341668888926506,0.9998765587806702,0.004545253235846758,-0.0011293869465589523,0.014999047853052616
509.0,0.0,0.0,0.0,0.0,0.0,0.0,0.0029671411029994488,-0.0009050958906300366,-0.00786454975605011,0.9998717308044434,0.004580114968121052,-0.0009873833041638136,0.01531766913831234
510.0,0.0,0.0,0.0,0.0,0.0,0.0,0.0034202267415821552,-0.002082065911963582,-0.009039419703185558,0.9998666644096375,0.004448174964636564,-0.0007451347191818058,0.015693621709942818
511.0,0.0,0.0,0.0,0.0,0.0,0.0,0.005203417968004942,-0.0016814467962831259,-0.006658738479018211,0.9998714923858643,0.004054784309118986,-0.0005145990871824324,0.01549970731139183
512.0,0.0,0.0,0.0,0.0,0.0,0.0,0.007299751974642277,0.0005907673621550202,-0.0010149013251066208,0.9998763203620911,0.0038633099757134914,-0.0002912506752181798,0.015238218009471893
513.0,0.0,0.0,0.0,0.0,0.0,0.0,0.0076316772028803825,0.0016801392193883657,0.004431211389601231,0.9998717308044434,0.003584692720323801,-0.00037279652315191925,0.015608799643814564
514.0,0.0,0.0,0.0,0.0,0.0,0.0,0.008390911854803562,0.0017367543186992407,0.00043233614997006953,0.9998735189437866,0.0035193830262869596,-0.00039913965156301856,0.015508229844272137
515.0,0.0,0.0,0.0,0.0,0.0,0.0,0.0119368527084589,0.002102841157466173,-0.004627505782991648,0.9998773336410522,0.0033715004101395607,-0.0003702686517499387,0.015295485034584999
516.0,0.0,0.0,0.0,0.0,0.0,0.0,0.010256174951791763,-0.00045380706433206797,0.009190789423882961,0.9998666644096375,0.003142179222777486,-0.0007447191746905446,0.01600763387978077
517.0,0.0,0.0,0.0,0.0,0.0,0.0,0.007332262117415667,0.000928083376493305,0.018930869176983833,0.999868631362915,0.0029030675068497658,-0.0010385065106675029,0.01591506041586399
518.0,0.0,0.0,0.0,0.0,0.0,0.0,0.006872390862554312,-0.00036528584314510226,0.01816926710307598,0.999879002571106,0.002739471383392811,-0.001338684349320829,0.015255984850227833
519.0,0.0,0.0,0.0,0.0,0.0,0.0,0.006390990689396858,0.001288544270209968,0.01023846585303545,0.9998792409896851,0.00289827398955822,-0.0017000468214973807,0.015174546279013157
520.0,0.0,0.0,0.0,0.0,0.0,0.0,0.004983909893780947,-0.0004867024254053831,0.007014714181423187,0.9998739957809448,0.002954358235001564,-0.0018807200249284506,0.015485262498259544
521.0,0.0,0.0,0.0,0.0,0.0,0.0,0.002267075004056096,-0.0009259611251764,0.00620177062228322,0.9998741745948792,0.0028164859395474195,-0.002029051538556814,0.015476154163479805
522.0,0.0,0.0,0.0,0.0,0.0,0.0,0.002185518154874444,0.000828070449642837,0.0019766264595091343,0.9998717308044434,0.0029258860740810633,-0.002365057123824954,0.01556586567312479
523.0,0.0,0.0,0.0,0.0,0.0,0.0,0.0012590732658281922,-0.0006472997483797371,0.003859082469716668,0.9998735189437866,0.0031666848808526993,-0.002632025396451354,0.015360265970230103
524.0,0.0,0.0,0.0,0.0,0.0,0.0,-0.0038853129372000694,-0.0021079867146909237,-0.0011587076587602496,0.9998812079429626,0.003349289996549487,-0.0025057990569621325,0.014836817979812622
525.0,0.0,0.0,0.0,0.0,0.0,0.0,-0.003278386779129505,-0.00015924991748761386,-0.008176722563803196,0.9998841285705566,0.003369328798726201,-0.0023035993799567223,0.0146627863869071
526.0,0.0,0.0,0.0,0.0,0.0,0.0,-0.0008356061880476773,0.005285688675940037,-0.008717870339751244,0.9998747706413269,0.0038427733816206455,-0.0022427858784794807,0.015191428363323212
527.0,0.0,0.0,0.0,0.0,0.0,0.0,-0.0023963144049048424,0.007788353133946657,-0.009946264326572418,0.9998684525489807,0.004072440322488546,-0.0022971935104578733,0.015530469827353954
528.0,0.0,0.0,0.0,0.0,0.0,0.0,-0.0014164121821522713,0.004783554468303919,-0.016966449096798897,0.9998675584793091,0.004354034084826708,-0.002038632519543171,0.01555078849196434
529.0,0.0,0.0,0.0,0.0,0.0,0.0,0.0014515909133479,0.002909958828240633,-0.015049127861857414,0.9998677968978882,0.004287524148821831,-0.001986969728022814,0.015557978302240372
530.0,0.0,0.0,0.0,0.0,0.0,0.0,-0.0033610269892960787,0.001276320545002818,-0.00233855121769011,0.9998669624328613,0.004201672505587339,-0.001928134122863412,0.01564372517168522
531.0,0.0,0.0,0.0,0.0,0.0,0.0,-0.0025698195677250624,0.0016143101966008544,-0.00340912863612175,0.9998676180839539,0.003838347503915429,-0.002101937076076865,0.01567046158015728
532.0,0.0,0.0,0.0,0.0,0.0,0.0,-0.005563999991863966,-0.002494596876204014,-0.0006554867723025382,0.9998794198036194,0.0033728228881955147,-0.0019450692925602198,0.015035628341138363
533.0,0.0,0.0,0.0,0.0,0.0,0.0,-0.004441526718437672,-0.006522286217659712,0.0011161180445924401,0.9998891353607178,0.0030816500075161457,-0.0016463118372485042,0.014471014961600304
534.0,0.0,0.0,0.0,0.0,0.0,0.0,-0.003449267940595746,-0.0035337647423148155,-0.0009743796545080841,0.9998965859413147,0.0025825852062553167,-0.001374091487377882,0.014078747481107712
535.0,0.0,0.0,0.0,0.0,0.0,0.0,-0.002976812422275543,-0.0002799393841996789,-0.0010360660962760448,0.9998987913131714,0.002242458751425147,-0.0012839245609939098,0.013989307917654514
536.0,0.0,0.0,0.0,0.0,0.0,0.0,-0.004400758072733879,-0.0021256536711007357,-0.00775171210989356,0.9999065399169922,0.0019793554674834013,-0.0009782849811017513,0.013487884774804115
537.0,0.0,0.0,0.0,0.0,0.0,0.0,-0.004085752181708813,-0.005578057374805212,-0.022314973175525665,0.9999116659164429,0.0017099814722314477,-0.0009168232209049165,0.013150876387953758
538.0,0.0,0.0,0.0,0.0,0.0,0.0,-0.012956644408404827,-0.01205404382199049,-0.007946289144456387,0.9999173283576965,0.0011695577995851636,-0.0006599514163099229,0.01278741005808115
539.0,0.0,0.0,0.0,0.0,0.0,0.0,-0.0045484937727451324,-0.007126817479729652,-0.021306462585926056,0.9999211430549622,0.00080149743007496,-8.124154555844143e-05,0.012529664672911167
540.0,0.0,0.0,0.0,0.0,0.0,0.0,-0.004163169767707586,0.0011424890253692865,-0.001975892810150981,0.9999082684516907,0.0008722909260541201,-0.00033204624196514487,0.013508805073797703
541.0,0.0,0.0,0.0,0.0,0.0,0.0,-0.008913177996873856,0.005946348886936903,0.019052371382713318,0.9998955130577087,0.0008219835581257939,-0.00034167684498243034,0.014425911009311676
542.0,0.0,0.0,0.0,0.0,0.0,0.0,-0.004273214377462864,0.006178561598062515,0.008216080255806446,0.9998977184295654,0.0007669409387744963,-0.0003985587682109326,0.014273637905716896
543.0,0.0,0.0,0.0,0.0,0.0,0.0,0.002134304493665695,0.0072849709540605545,-0.0003354282525833696,0.9999010562896729,0.0007291009533219039,-0.0004126931889913976,0.014048194512724876
544.0,0.0,0.0,0.0,0.0,0.0,0.0,0.0015335922362282872,0.006072689313441515,0.008795185945928097,0.9999009370803833,0.0005700714536942542,-0.0005245080683380365,0.014048436656594276
545.0,0.0,0.0,0.0,0.0,0.0,0.0,0.0018780450336635113,0.005264052655547857,0.011097803711891174,0.9999019503593445,0.0005610251682810485,-0.0005171060911379755,0.013980824500322342
546.0,0.0,0.0,0.0,0.0,0.0,0.0,0.004277537111192942,0.005667548161000013,0.009002926759421825,0.9999054074287415,0.0005118877743370831,-0.0008147425833158195,0.013727785088121891
547.0,0.0,0.0,0.0,0.0,0.0,0.0,0.006164130289107561,0.0016732001677155495,0.005990367848426104,0.9999079704284668,0.0005086270393803716,-0.000920449907425791,0.013519251719117165
548.0,0.0,0.0,0.0,0.0,0.0,0.0,0.006858921144157648,0.0019182501127943397,0.005444584414362907,0.9998990893363953,0.0004905964015051723,-0.0012503421166911721,0.01413920521736145
549.0,0.0,0.0,0.0,0.0,0.0,0.0,0.00783995259553194,0.004904701374471188,0.009802192449569702,0.9998907446861267,0.0005923176067881286,-0.0015994723653420806,0.01468529924750328
550.0,0.0,0.0,0.0,0.0,0.0,0.0,0.0052894060499966145,0.0011480937246233225,0.005208463873714209,0.9998937249183655,0.0006935832789167762,-0.0015849365154281259,0.014479724690318108
551.0,0.0,0.0,0.0,0.0,0.0,0.0,0.004015745595097542,-0.0034084117505699396,-0.01080436259508133,0.9998967051506042,0.0005718698375858366,-0.001308906706981361,0.014300010167062283
552.0,0.0,0.0,0.0,0.0,0.0,0.0,2.2405498384614475e-05,-0.002586671384051442,0.0026558670215308666,0.9999064803123474,0.00016266401507891715,-0.0009285174892283976,0.013639027252793312
553.0,0.0,0.0,0.0,0.0,0.0,0.0,-0.0008822059608064592,-0.0019558174535632133,0.003070196369662881,0.9999086260795593,-0.0001357198489131406,-0.001001408789306879,0.013479071669280529
554.0,0.0,0.0,0.0,0.0,0.0,0.0,-0.0028574818279594183,-0.0019849438685923815,0.022238191217184067,0.999911367893219,-0.0005220051389187574,-0.0008513404754921794,0.013276739977300167
555.0,0.0,0.0,0.0,0.0,0.0,0.0,0.0036000546533614397,0.0022572847083210945,0.01755036599934101,0.9999194145202637,-0.000669103697873652,-0.0007236814708448946,0.012654062360525131
556.0,0.0,0.0,0.0,0.0,0.0,0.0,0.010979952290654182,0.00157713214866817,-0.015068317763507366,0.9999188780784607,-0.00039882559212855995,-0.0008883789414539933,0.012695093639194965
557.0,0.0,0.0,0.0,0.0,0.0,0.0,0.005905406549572945,-0.0022063825745135546,-0.00874235201627016,0.9999110102653503,-0.00032935349736362696,-0.0011059768730774522,0.013289951719343662
558.0,0.0,0.0,0.0,0.0,0.0,0.0,-0.0001904887758428231,-0.0036377173382788897,0.013206194154918194,0.999908983707428,-0.0004561914538498968,-0.0012927926145493984,0.013423928990960121
559.0,0.0,0.0,0.0,0.0,0.0,0.0,-0.0003647373814601451,-0.004378858022391796,0.01416274905204773,0.9999145269393921,-0.0005446373834274709,-0.0014645203482359648,0.012978297658264637
560.0,0.0,0.0,0.0,0.0,0.0,0.0,0.00403956975787878,-0.004363823216408491,-0.004667936824262142,0.999920129776001,-0.0004652407660614699,-0.0013914575101807714,0.012551384046673775
561.0,0.0,0.0,0.0,0.0,0.0,0.0,0.005979446694254875,-0.006359803956001997,-0.010388563387095928,0.9999243021011353,-0.0006173909641802311,-0.0014278608141466975,0.012202139012515545
562.0,0.0,0.0,0.0,0.0,0.0,0.0,0.004512968473136425,-0.005081339739263058,-0.001353711704723537,0.9999256730079651,-0.0006389772752299905,-0.001302771270275116,0.012105176225304604
563.0,0.0,0.0,0.0,0.0,0.0,0.0,0.003004461294040084,-0.004051412455737591,-0.0007850389229133725,0.9999213814735413,-0.0006203888333402574,-0.0014392201555892825,0.012446890585124493
564.0,0.0,0.0,0.0,0.0,0.0,0.0,0.0035515406634658575,-0.00220606941729784,0.0029745709616690874,0.9999160170555115,-0.0005018769297748804,-0.0016556609189137816,0.012845936231315136
565.0,0.0,0.0,0.0,0.0,0.0,0.0,0.00156691437587142,-0.0018889551283791661,0.008964921347796917,0.9999216794967651,-0.0006114587304182351,-0.001532214810140431,0.012408069334924221
566.0,0.0,0.0,0.0,0.0,0.0,0.0,0.0031960830092430115,-0.0002638488367665559,0.00563923642039299,0.9999256134033203,-0.0005301074706949294,-0.001708515454083681,0.012068643234670162
567.0,0.0,0.0,0.0,0.0,0.0,0.0,0.006346990820020437,0.002824766794219613,0.0028653640765696764,0.999925971031189,-0.00031829153886064887,-0.0017209738725796342,0.012039638124406338
568.0,0.0,0.0,0.0,0.0,0.0,0.0,0.0051126680336892605,0.00316367344930768,-0.0011333012953400612,0.9999270439147949,-0.00012307109136600047,-0.001940485555678606,0.01192408986389637
569.0,0.0,0.0,0.0,0.0,0.0,0.0,0.0019663674756884575,0.004153536632657051,-0.0037718655075877905,0.9999262094497681,9.799372492125258e-05,-0.0019797547720372677,0.011989984661340714
570.0,0.0,0.0,0.0,0.0,0.0,0.0,0.0021670085843652487,0.001828818116337061,-0.005101529881358147,0.9999252557754517,0.00028018225566484034,-0.002071702852845192,0.012037530541419983
571.0,0.0,0.0,0.0,0.0,0.0,0.0,-0.0036279845517128706,0.0013736385153606534,0.0027579697780311108,0.9999159574508667,0.0004447877872735262,-0.0023850235156714916,0.012737334705889225
572.0,0.0,0.0,0.0,0.0,0.0,0.0,-0.009763531386852264,-0.0019467119127511978,0.013636556454002857,0.9999145269393921,0.0005548442713916302,-0.002620516810566187,0.012796266935765743
573.0,0.0,0.0,0.0,0.0,0.0,0.0,-0.00884347502142191,-0.004455713089555502,0.006900877691805363,0.999919056892395,0.00047997376532293856,-0.0026336684823036194,0.012439905665814877
574.0,0.0,0.0,0.0,0.0,0.0,0.0,-0.007891245186328888,-0.004749727435410023,0.005328718107193708,0.9999241828918457,0.0005154786631464958,-0.002669258276000619,0.012014813721179962
575.0,0.0,0.0,0.0,0.0,0.0,0.0,-0.005891706328839064,-0.004677493590861559,-6.859699351480231e-05,0.9999237060546875,0.0006902760942466557,-0.002663212828338146,0.012047510594129562
576.0,0.0,0.0,0.0,0.0,0.0,0.0,-0.003520749043673277,-0.0038932946044951677,-0.011759256012737751,0.9999261498451233,0.0009996250737458467,-0.00260426034219563,0.01183255948126316
577.0,0.0,0.0,0.0,0.0,0.0,0.0,0.0006521330215036869,-0.005524790845811367,-0.02388094551861286,0.9999217391014099,0.0013011073460802436,-0.0022667895536869764,0.012234111316502094
578.0,0.0,0.0,0.0,0.0,0.0,0.0,0.0004580463864840567,-0.0072175730019807816,-0.027262773364782333,0.9999148845672607,0.001224156585521996,-0.002080606296658516,0.012826049700379372
579.0,0.0,0.0,0.0,0.0,0.0,0.0,-0.002464054152369499,-0.002084058942273259,-0.015563352033495903,0.9999120831489563,0.0013678938848897815,-0.0020097694359719753,0.013028564862906933
580.0,0.0,0.0,0.0,0.0,0.0,0.0,-0.009024051018059254,0.005463380832225084,0.018558437004685402,0.9999028444290161,0.001105551258660853,-0.0024314532056450844,0.013676121830940247
581.0,0.0,0.0,0.0,0.0,0.0,0.0,-0.01114263292402029,0.006774334702640772,0.03990444168448448,0.9999008178710938,0.0010326552437618375,-0.002880036598071456,0.013745168223977089
582.0,0.0,0.0,0.0,0.0,0.0,0.0,-0.0033422044944018126,0.003310905070975423,0.026481959968805313,0.999906063079834,0.0014401101507246494,-0.0030058808624744415,0.013293719850480556
583.0,0.0,0.0,0.0,0.0,0.0,0.0,0.0030037255492061377,0.0016305064782500267,-0.011285247281193733,0.9999139308929443,0.0015996495494619012,-0.002774233231320977,0.012731182388961315
584.0,0.0,0.0,0.0,0.0,0.0,0.0,0.002215856919065118,0.0017892989562824368,-0.013211927376687527,0.9999136924743652,0.0015197515022009611,-0.002653893083333969,0.01277931034564972
585.0,0.0,0.0,0.0,0.0,0.0,0.0,-0.005175965838134289,-0.0017666955245658755,0.015103896148502827,0.9999123811721802,0.0013337671989575028,-0.0023780353367328644,0.012951967306435108
586.0,0.0,0.0,0.0,0.0,0.0,0.0,-0.004734046757221222,-0.0007212147465907037,-0.0014174475800246,0.9999105930328369,0.0010583150433376431,-0.0024288641288876534,0.013106942176818848
587.0,0.0,0.0,0.0,0.0,0.0,0.0,-0.0020458600483834743,0.0011457541259005666,0.009532198309898376,0.9999077320098877,0.0010771751403808594,-0.002776484936475754,0.013253520242869854
588.0,0.0,0.0,0.0,0.0,0.0,0.0,-0.003793776035308838,-0.001806897227652371,0.0004733514506369829,0.9999157190322876,0.0010215687798336148,-0.0026623141020536423,0.012666840106248856
589.0,0.0,0.0,0.0,0.0,0.0,0.0,-0.0024924417957663536,-0.002775450935587287,-0.00849915575236082,0.9999247789382935,0.0009639821946620941,-0.002528665354475379,0.011964643374085426
590.0,0.0,0.0,0.0,0.0,0.0,0.0,-0.0006449943175539374,-0.0031116376630961895,-0.01352912001311779,0.9999225735664368,0.0010637526866048574,-0.0021850247867405415,0.012203622609376907
591.0,0.0,0.0,0.0,0.0,0.0,0.0,-0.00139245530590415,0.0010116390185430646,-0.005979371722787619,0.9999184608459473,0.0012083860347047448,-0.0020692069083452225,0.012540648691356182
592.0,0.0,0.0,0.0,0.0,0.0,0.0,-0.0045211436226964,0.002332736039534211,-0.0021560662426054478,0.9999188780784607,0.001220050035044551,-0.00202098092995584,0.012515195645391941
593.0,0.0,0.0,0.0,0.0,0.0,0.0,-0.0032819227781146765,0.0016736695542931557,-0.001284708851017058,0.9999229907989502,0.0012168475659564137,-0.0019277202663943172,0.012196279130876064
594.0,0.0,0.0,0.0,0.0,0.0,0.0,-0.0038226901087909937,-0.0008039443637244403,-0.006664298474788666,0.999920666217804,0.0013528207782655954,-0.0019322544103488326,0.012372670695185661
595.0,0.0,0.0,0.0,0.0,0.0,0.0,-0.0035688853822648525,-0.0032453015446662903,-0.005093000829219818,0.9999136924743652,0.0012009585043415427,-0.0017558099934831262,0.012961965054273605
596.0,0.0,0.0,0.0,0.0,0.0,0.0,-0.005302595440298319,-0.00522158807143569,0.00353737804107368,0.9999163746833801,0.0009198638726957142,-0.0014734708238393068,0.012810757383704185
597.0,0.0,0.0,0.0,0.0,0.0,0.0,-0.004819122143089771,-0.00720080453902483,0.0016204487765207887,0.9999189376831055,0.0005463370471261442,-0.001345669967122376,0.012643101625144482
598.0,0.0,0.0,0.0,0.0,0.0,0.0,-0.003227658336982131,-0.007445179391652346,0.0034943013451993465,0.9999168515205383,0.0002992794616147876,-0.0010762105230242014,0.01284710317850113
599.0,0.0,0.0,0.0,0.0,0.0,0.0,0.0012498272117227316,-0.0067311548627913,0.004925511311739683,0.999920129776001,2.3901367967482656e-05,-0.0007925779209472239,0.012611540034413338
600.0,0.0,0.0,0.0,0.0,0.0,0.0,0.005427288357168436,-0.00628678360953927,-0.009572545066475868,0.9999276399612427,-0.00016726760077290237,-0.0006423203158192337,0.012019441463053226
601.0,0.0,0.0,0.0,0.0,0.0,0.0,0.006732776295393705,-0.007164297625422478,-0.016160793602466583,0.9999268651008606,-0.0004062638618052006,-0.0005796306650154293,0.012073477730154991
602.0,0.0,0.0,0.0,0.0,0.0,0.0,0.0033757572527974844,-0.005385432858020067,0.0008575288811698556,0.9999249577522278,-0.0006355956429615617,-0.0005446618306450546,0.01222237478941679
603.0,0.0,0.0,0.0,0.0,0.0,0.0,-0.00030535776750184596,-0.005001460202038288,0.015260186046361923,0.9999281167984009,-0.0009397209505550563,-0.0007289391942322254,0.01192926149815321
604.0,0.0,0.0,0.0,0.0,0.0,0.0,-0.00296490965411067,-0.00013892914284951985,0.029361534863710403,0.9999268054962158,-0.0011634200345724821,-0.0011598620330914855,0.011982502415776253
605.0,0.0,0.0,0.0,0.0,0.0,0.0,-0.00023340736515820026,0.00177958479616791,0.024195510894060135,0.9999293684959412,-0.001107322983443737,-0.0012607489479705691,0.011772213503718376
606.0,0.0,0.0,0.0,0.0,0.0,0.0,0.006580068729817867,-0.006997524760663509,-0.014699110761284828,0.999934196472168,-0.0010115152690559626,-0.0007225160952657461,0.011406151577830315
607.0,0.0,0.0,0.0,0.0,0.0,0.0,0.007334671448916197,-0.0024632858112454414,-0.002147246617823839,0.9999372363090515,-0.0012468801578506827,-0.00044119005906395614,0.011123893782496452
608.0,0.0,0.0,0.0,0.0,0.0,0.0,0.0062006195075809956,0.0016925238305702806,0.008451755158603191,0.9999404549598694,-0.0014062529662624002,-0.0003500119491945952,0.010815991088747978
609.0,0.0,0.0,0.0,0.0,0.0,0.0,0.005749308969825506,0.005592085886746645,0.006635288707911968,0.999939501285553,-0.001483000349253416,-0.0004936085315421224,0.01089467853307724
610.0,0.0,0.0,0.0,0.0,0.0,0.0,0.004065274726599455,0.007314810995012522,0.00022084778174757957,0.9999452233314514,-0.0011713760904967785,-0.0003372140636201948,0.010399999096989632
611.0,0.0,0.0,0.0,0.0,0.0,0.0,0.008458053693175316,0.009285406209528446,-0.025394121184945107,0.9999505877494812,-0.0004951072623953223,-3.535504947649315e-05,0.009922635741531849
612.0,0.0,0.0,0.0,0.0,0.0,0.0,0.008218844421207905,0.008558422327041626,-0.030947720631957054,0.9999496936798096,-3.223343810532242e-05,0.00016603637777734548,0.010019795969128609
613.0,0.0,0.0,0.0,0.0,0.0,0.0,0.0019120447104796767,0.0018812217749655247,-0.02006104774773121,0.9999556541442871,-8.855277701513842e-05,0.0004479212511796504,0.009401711635291576
614.0,0.0,0.0,0.0,0.0,0.0,0.0,0.004120816010981798,0.0024324364494532347,-0.009994414635002613,0.9999545216560364,-0.00031421968014910817,0.0006049481453374028,0.009518299251794815
615.0,0.0,0.0,0.0,0.0,0.0,0.0,0.0019079456105828285,0.006633725482970476,0.0029408936388790607,0.9999518990516663,-0.00040229782462120056,0.000418213865486905,0.009798835031688213
616.0,0.0,0.0,0.0,0.0,0.0,0.0,-0.0019055313896387815,0.008004482835531235,0.012109775096178055,0.9999533891677856,-0.00038222072180360556,0.0004779267474077642,0.00963618978857994
617.0,0.0,0.0,0.0,0.0,0.0,0.0,0.002221005503088236,0.014790685847401619,0.014049222692847252,0.9999540448188782,-5.1231276302132756e-05,0.0003082362236455083,0.009572712704539299
618.0,0.0,0.0,0.0,0.0,0.0,0.0,0.0030090766958892345,0.012349223718047142,0.005694459658116102,0.9999508857727051,9.291948686040996e-07,0.00034263101406395435,0.009903060272336006
619.0,0.0,0.0,0.0,0.0,0.0,0.0,0.002886628732085228,0.006294673308730125,0.003466118359938264,0.9999467134475708,0.00033301443909294903,0.00023393564333673567,0.010303962975740433
620.0,0.0,0.0,0.0,0.0,0.0,0.0,0.0013542298693209887,-0.0019933152943849564,0.011412947438657284,0.9999434947967529,0.0002576179977040738,0.00024935591500252485,0.010624975897371769
621.0,0.0,0.0,0.0,0.0,0.0,0.0,0.011330599896609783,0.0016184281557798386,-0.010826940648257732,0.9999468922615051,0.0002823429531417787,0.00019725551828742027,0.010295525193214417
622.0,0.0,0.0,0.0,0.0,0.0,0.0,0.00574313011020422,-0.0004368973313830793,0.005140249617397785,0.9999416470527649,0.0001370887621305883,-5.655415588989854e-05,0.01079491712152958
623.0,0.0,0.0,0.0,0.0,0.0,0.0,-0.0015513960970565677,-0.004838761407881975,0.014433079399168491,0.9999370574951172,0.00011734796862583607,-0.00011095380614278838,0.011206818744540215
624.0,0.0,0.0,0.0,0.0,0.0,0.0,-0.0016372855752706528,-0.002269051969051361,0.023459158837795258,0.9999359250068665,-0.00034677170333452523,-0.00013329082867130637,0.011319623328745365
625.0,0.0,0.0,0.0,0.0,0.0,0.0,-0.0007041930221021175,-0.0023519035894423723,0.013675951398909092,0.9999472498893738,-0.0005848888540640473,0.00022565631661564112,0.010251810774207115
626.0,0.0,0.0,0.0,0.0,0.0,0.0,0.009576170705258846,0.002330273389816284,-0.009321640245616436,0.9999476671218872,-0.0003587085520848632,0.0004011860874015838,0.010214827954769135
627.0,0.0,0.0,0.0,0.0,0.0,0.0,0.013168399222195148,0.0036781260278075933,-0.010082021355628967,0.9999420046806335,-5.376024273573421e-05,0.000430531072197482,0.010756714269518852
628.0,0.0,0.0,0.0,0.0,0.0,0.0,0.0091708330437541,0.0039397128857672215,-0.0061061144806444645,0.9999394416809082,0.0002301399945281446,0.0003543676866684109,0.010996519587934017
629.0,0.0,0.0,0.0,0.0,0.0,0.0,0.008187579922378063,0.002059072954580188,-0.0024367778096348047,0.9999347925186157,0.0005283174687065184,0.0001085907279048115,0.011406569741666317
630.0,0.0,0.0,0.0,0.0,0.0,0.0,0.0073889559134840965,0.000698769639711827,0.0026829696726053953,0.9999274015426636,0.0007766655180603266,-2.3941867766552605e-05,0.012033714912831783
631.0,0.0,0.0,0.0,0.0,0.0,0.0,0.0063703288324177265,0.0008983747684396803,0.0027646380476653576,0.9999281764030457,0.0007301935693249106,-0.00015501199231948704,0.011960146017372608
632.0,0.0,0.0,0.0,0.0,0.0,0.0,0.0012958948500454426,-0.003858609590679407,0.004633188713341951,0.9999269843101501,0.0006824418087489903,-0.00037198953214101493,0.01204980630427599
633.0,0.0,0.0,0.0,0.0,0.0,0.0,0.0016654881183058023,-0.002492747036740184,0.004249195568263531,0.9999247789382935,0.0007170517346821725,-0.0005196512211114168,0.012231200933456421
634.0,0.0,0.0,0.0,0.0,0.0,0.0,0.0022628421429544687,-0.004531660582870245,-0.003988912329077721,0.9999232888221741,0.0007032769499346614,-0.0005781302461400628,0.0123519292101264
635.0,0.0,0.0,0.0,0.0,0.0,0.0,-0.000564098299946636,-0.005542479455471039,-0.009986518882215023,0.999922513961792,0.0006093337433412671,-0.0006517579313367605,0.012412027455866337
636.0,0.0,0.0,0.0,0.0,0.0,0.0,-0.003976384177803993,-0.0053912559524178505,-0.0064972466789186,0.999923586845398,0.0005172123201191425,-0.0007301593432202935,0.012327328324317932
637.0,0.0,0.0,0.0,0.0,0.0,0.0,-0.004760883282870054,-0.00496021518483758,-0.0050834910944104195,0.9999192357063293,0.0005250833928585052,-0.0008475669892504811,0.012669632211327553
638.0,0.0,0.0,0.0,0.0,0.0,0.0,-0.006883047521114349,-0.004610362462699413,0.005150701850652695,0.9999159574508667,0.0003005631151609123,-0.0010037529282271862,0.012922440655529499
639.0,0.0,0.0,0.0,0.0,0.0,0.0,-0.008266725577414036,-0.003495326964184642,0.013735190965235233,0.9999096393585205,0.0003314939676783979,-0.0011649832595139742,0.013386261649429798
640.0,0.0,0.0,0.0,0.0,0.0,0.0,-0.005087548866868019,-0.0009341930272057652,0.018931612372398376,0.9999082684516907,0.00028973352164030075,-0.001506094471551478,0.013455571606755257
641.0,0.0,0.0,0.0,0.0,0.0,0.0,-0.0030101535376161337,0.0022847417276352644,0.027836240828037262,0.9999057650566101,0.00047262804582715034,-0.0018804676365107298,0.013588600791990757
642.0,0.0,0.0,0.0,0.0,0.0,0.0,-0.003940983209758997,-0.001468499656766653,0.023417461663484573,0.9999073147773743,0.0006555795553140342,-0.0020909735467284918,0.013441381976008415
643.0,0.0,0.0,0.0,0.0,0.0,0.0,0.0026335360016673803,0.0018267392879351974,0.013688257895410061,0.999908983707428,0.0009122174233198166,-0.0023736341390758753,0.013242993503808975
644.0,0.0,0.0,0.0,0.0,0.0,0.0,-0.00025883439229801297,0.002262280322611332,0.019379625096917152,0.999910295009613,0.001027034828439355,-0.0026164704468101263,0.013092502020299435
645.0,0.0,0.0,0.0,0.0,0.0,0.0,0.0029747532680630684,0.0009899777360260487,0.006526906043291092,0.999914288520813,0.0013265784364193678,-0.0026614421512931585,0.01274935808032751
646.0,0.0,0.0,0.0,0.0,0.0,0.0,0.006462366320192814,-0.002664238214492798,-0.009694693610072136,0.9999154210090637,0.001479523372836411,-0.0026562048587948084,0.012641606852412224
647.0,0.0,0.0,0.0,0.0,0.0,0.0,0.0025298295076936483,-0.005678906571120024,-0.020658431574702263,0.9999187588691711,0.001666732132434845,-0.002405588747933507,0.012402632273733616
648.0,0.0,0.0,0.0,0.0,0.0,0.0,0.00202911626547575,-0.0019951986614614725,-0.019421182572841644,0.9999259114265442,0.0018754183547571301,-0.0017263144254684448,0.011904214508831501
649.0,0.0,0.0,0.0,0.0,0.0,0.0,0.001973352860659361,0.0010151611641049385,-0.008939635008573532,0.9999297857284546,0.0018757303478196263,-0.0009718348155729473,0.011660443618893623
650.0,0.0,0.0,0.0,0.0,0.0,0.0,0.0035102188121527433,-0.0008396873599849641,-0.023348331451416016,0.999930739402771,0.0022861375473439693,-0.00032564272987656295,0.011541594751179218
651.0,0.0,0.0,0.0,0.0,0.0,0.0,0.003555142553523183,0.0027016738895326853,-0.02134503610432148,0.9999264478683472,0.0026893813628703356,-0.0002356574113946408,0.01183208916336298
652.0,0.0,0.0,0.0,0.0,0.0,0.0,-0.001991212135180831,0.004885184578597546,-0.003412054618820548,0.9999253153800964,0.0032015745528042316,-0.0002759698254521936,0.011787138879299164
653.0,0.0,0.0,0.0,0.0,0.0,0.0,0.0006062662578187883,0.008425777778029442,-0.002380864229053259,0.9999223947525024,0.003571533365175128,-9.713078907225281e-05,0.011937513947486877
654.0,0.0,0.0,0.0,0.0,0.0,0.0,0.005836994852870703,0.011416995897889137,0.0008027729345485568,0.9999173283576965,0.004112797789275646,2.777676490950398e-05,0.012187645770609379
655.0,0.0,0.0,0.0,0.0,0.0,0.0,0.011336760595440865,0.014892669394612312,0.0006648116395808756,0.9999152421951294,0.004731023218482733,9.483030589763075e-05,0.012124479748308659
656.0,0.0,0.0,0.0,0.0,0.0,0.0,0.01604350656270981,0.012959540821611881,-0.00810014083981514,0.9999065399169922,0.00545494444668293,0.0001930489670485258,0.012525173835456371
657.0,0.0,0.0,0.0,0.0,0.0,0.0,0.019155314192175865,0.013560201972723007,-0.010291768237948418,0.9998921751976013,0.0059587243013083935,0.00018927895871456712,0.013419237919151783
658.0,0.0,0.0,0.0,0.0,0.0,0.0,0.01825881190598011,0.014180853962898254,0.008404713124036789,0.9998885989189148,0.0061610108241438866,-0.00028080810443498194,0.01358851045370102
659.0,0.0,0.0,0.0,0.0,0.0,0.0,0.01735294982790947,0.012011329643428326,0.01425084751099348,0.9998821020126343,0.006303092464804649,-0.0009647789993323386,0.013967586681246758
660.0,0.0,0.0,0.0,0.0,0.0,0.0,0.013184684328734875,0.0052614761516451836,0.017164746299386024,0.999873697757721,0.006522094830870628,-0.0017224173061549664,0.01438934076577425
661.0,0.0,0.0,0.0,0.0,0.0,0.0,0.004428390879184008,-0.003146811854094267,0.019043410196900368,0.9998727440834045,0.006193924229592085,-0.0021542473696172237,0.01454247161746025
662.0,0.0,0.0,0.0,0.0,0.0,0.0,-0.004001217428594828,-0.0075027113780379295,0.024645525962114334,0.999865710735321,0.005688956473022699,-0.0027972229290753603,0.015119149349629879
663.0,0.0,0.0,0.0,0.0,0.0,0.0,-0.01671564020216465,-0.014604133553802967,0.030577940866351128,0.9998701214790344,0.0050542657263576984,-0.0035205797757953405,0.01488889753818512
664.0,0.0,0.0,0.0,0.0,0.0,0.0,-0.02511923760175705,-0.019748425111174583,0.016886958852410316,0.9998815655708313,0.004517715889960527,-0.003809025278314948,0.014209868386387825
665.0,0.0,0.0,0.0,0.0,0.0,0.0,-0.021272120997309685,-0.014960880391299725,0.001602950389496982,0.9998925924301147,0.004277014639228582,-0.0038807494565844536,0.013465016148984432
666.0,0.0,0.0,0.0,0.0,0.0,0.0,-0.019081400707364082,-0.013364145532250404,-0.01089061051607132,0.9999116659164429,0.004035582300275564,-0.0036419543903321028,0.01213073916733265
667.0,0.0,0.0,0.0,0.0,0.0,0.0,-0.014661882072687149,-0.00983051210641861,-0.01857546530663967,0.9999253749847412,0.00432443106546998,-0.0032807723619043827,0.010940568521618843
668.0,0.0,0.0,0.0,0.0,0.0,0.0,-0.008766247890889645,-0.007026625797152519,-0.022716473788022995,0.9999299645423889,0.0045061251148581505,-0.0030550395604223013,0.010513747110962868
669.0,0.0,0.0,0.0,0.0,0.0,0.0,-0.006724769715219736,-0.005418314132839441,-0.026964865624904633,0.9999319911003113,0.0045578391291201115,-0.002516767242923379,0.01043635979294777
670.0,0.0,0.0,0.0,0.0,0.0,0.0,-0.00803696271032095,-0.0029205642640590668,-0.019509216770529747,0.9999332427978516,0.004541982430964708,-0.001958637498319149,0.010447361506521702
671.0,0.0,0.0,0.0,0.0,0.0,0.0,-0.009693500585854053,0.0007821194594725966,-0.008953562006354332,0.9999390840530396,0.004225676879286766,-0.001651160535402596,0.010059508495032787
672.0,0.0,0.0,0.0,0.0,0.0,0.0,-0.005070453975349665,0.003159316023811698,-0.004661538638174534,0.9999403953552246,0.004249292425811291,-0.0015121401520445943,0.009945630095899105
673.0,0.0,0.0,0.0,0.0,0.0,0.0,0.0009789684554561973,-0.00021915278921369463,-0.008831468410789967,0.999939501285553,0.004473722539842129,-0.0013687341706827283,0.009952059015631676
674.0,0.0,0.0,0.0,0.0,0.0,0.0,0.007347636390477419,0.0009383069700561464,-0.005830699112266302,0.9999379515647888,0.004695313982665539,-0.0013893434079363942,0.010003154166042805
675.0,0.0,0.0,0.0,0.0,0.0,0.0,0.012929685413837433,0.00239369785413146,-0.0012411200441420078,0.9999352097511292,0.004774420987814665,-0.0013685724698007107,0.010238525457680225
676.0,0.0,0.0,0.0,0.0,0.0,0.0,0.02143019624054432,0.008330270648002625,-0.003371869446709752,0.9999315142631531,0.005086549557745457,-0.0013983302051201463,0.010435923933982849
677.0,0.0,0.0,0.0,0.0,0.0,0.0,0.014789542183279991,0.008649656549096107,0.0006905968766659498,0.9999291896820068,0.004886693321168423,-0.00151735357940197,0.01074308343231678
678.0,0.0,0.0,0.0,0.0,0.0,0.0,0.017814084887504578,0.01112888753414154,0.007580823730677366,0.9999284148216248,0.004989521112293005,-0.0016542542725801468,0.010745390318334103
679.0,0.0,0.0,0.0,0.0,0.0,0.0,0.020863495767116547,0.0050321314483881,-0.008471943438053131,0.9999296069145203,0.005196875426918268,-0.0016475968295708299,0.010541364550590515
680.0,0.0,0.0,0.0,0.0,0.0,0.0,0.017454015091061592,0.006507496815174818,0.007671177852898836,0.9999233484268188,0.005125803407281637,-0.0018764582928270102,0.011112751439213753
681.0,0.0,0.0,0.0,0.0,0.0,0.0,0.0047158123925328255,0.0023584316950291395,0.031139371916651726,0.9999227523803711,0.004747401457279921,-0.0023086611181497574,0.011265796609222889
682.0,0.0,0.0,0.0,0.0,0.0,0.0,0.0040519824251532555,0.005147116258740425,0.0351986326277256,0.9999245405197144,0.0045343791134655476,-0.0027111819945275784,0.011091646738350391
683.0,0.0,0.0,0.0,0.0,0.0,0.0,0.0025858781300485134,0.0044930437579751015,0.02866830676794052,0.9999299049377441,0.0044113690964877605,-0.0029586958698928356,0.010585425421595573
684.0,0.0,0.0,0.0,0.0,0.0,0.0,0.007381074596196413,0.005182452034205198,0.0030221519991755486,0.9999363422393799,0.004731917288154364,-0.0028057049494236708,0.009855409152805805
685.0,0.0,0.0,0.0,0.0,0.0,0.0,0.013375731185078621,0.010002367198467255,-0.024393228814005852,0.9999323487281799,0.005169285461306572,-0.0025364032480865717,0.010110871866345406
686.0,0.0,0.0,0.0,0.0,0.0,0.0,0.004259750247001648,0.002981375902891159,-0.01647891290485859,0.9999328255653381,0.005375216249376535,-0.0020935062784701586,0.010047436691820621
687.0,0.0,0.0,0.0,0.0,0.0,0.0,0.0020582759752869606,-0.0019749202765524387,-0.01925250142812729,0.9999318718910217,0.005330529995262623,-0.0014208164066076279,0.01029018871486187
688.0,0.0,0.0,0.0,0.0,0.0,0.0,0.0013918181648477912,0.0046335021033883095,-0.01728072389960289,0.9999290108680725,0.00516509311273694,-0.0010811488609761,0.010682155378162861
689.0,0.0,0.0,0.0,0.0,0.0,0.0,-0.015315266326069832,-0.004454291891306639,0.008389098569750786,0.9999302625656128,0.004958889912813902,-0.0009196432656608522,0.010669784620404243
690.0,0.0,0.0,0.0,0.0,0.0,0.0,-0.011340479366481304,-0.005448687821626663,0.013978160917758942,0.9999300837516785,0.004714339040219784,-0.0008158033015206456,0.010811056941747665
691.0,0.0,0.0,0.0,0.0,0.0,0.0,-0.006225652527064085,-0.0028318387921899557,0.00327116041444242,0.9999366998672485,0.004463021643459797,-0.0006931094103492796,0.010299044661223888
692.0,0.0,0.0,0.0,0.0,0.0,0.0,-0.014176679775118828,-0.010754006914794445,-0.007232449948787689,0.9999463558197021,0.003947976510971785,-0.00013412939733825624,0.009585262276232243
693.0,0.0,0.0,0.0,0.0,0.0,0.0,-0.006210305728018284,-0.008761871606111526,-0.018619155511260033,0.9999460577964783,0.004070923663675785,0.00033425373840145767,0.009550769813358784
694.0,0.0,0.0,0.0,0.0,0.0,0.0,-0.001524649909697473,-0.004029315430670977,-0.026470625773072243,0.9999435544013977,0.00414259172976017,0.0006402351427823305,0.00975659117102623
695.0,0.0,0.0,0.0,0.0,0.0,0.0,-0.0033298619091510773,-0.0037439025472849607,-0.013744823634624481,0.9999436140060425,0.003906851634383202,0.0008796824258752167,0.009825430810451508
696.0,0.0,0.0,0.0,0.0,0.0,0.0,-0.009102591313421726,-0.006929473951458931,-0.0093021085485816,0.999946117401123,0.0034990329295396805,0.0014403094537556171,0.009661906398832798
697.0,0.0,0.0,0.0,0.0,0.0,0.0,-0.00834591779857874,-0.0046727461740374565,-0.006671892944723368,0.999949038028717,0.003189768875017762,0.0017928738379850984,0.009404207579791546
698.0,0.0,0.0,0.0,0.0,0.0,0.0,-0.009675600565969944,-0.0037740524858236313,0.006710676476359367,0.9999476075172424,0.0028741182759404182,0.0022580705117434263,0.009552501142024994
699.0,0.0,0.0,0.0,0.0,0.0,0.0,-0.003816077718511224,0.0029270939994603395,0.02336404100060463,0.999947726726532,0.0027926319744437933,0.0022134194150567055,0.009585804305970669
700.0,0.0,0.0,0.0,0.0,0.0,0.0,-0.0030848560854792595,0.005963187199085951,0.0237248744815588,0.999949038028717,0.00281714228913188,0.002020682441070676,0.009488251060247421
701.0,0.0,0.0,0.0,0.0,0.0,0.0,-0.002430055756121874,0.007680884562432766,0.02981908991932869,0.9999523758888245,0.0032238801941275597,0.0018357639200985432,0.009038579650223255
702.0,0.0,0.0,0.0,0.0,0.0,0.0,0.00765634048730135,0.009344471618533134,0.02173450030386448,0.9999490976333618,0.0037141956854611635,0.0015057107666507363,0.009260850958526134
703.0,0.0,0.0,0.0,0.0,0.0,0.0,0.013442794792354107,0.006004023365676403,-0.0021014423109591007,0.9999443292617798,0.004307702649384737,0.001183579326607287,0.009556857869029045
704.0,0.0,0.0,0.0,0.0,0.0,0.0,0.01376678142696619,0.0033416335936635733,-0.017300106585025787,0.9999414682388306,0.004397677257657051,0.0007399029564112425,0.009858864359557629
705.0,0.0,0.0,0.0,0.0,0.0,0.0,0.0027264878153800964,-0.002047074493020773,0.010531531646847725,0.9999418258666992,0.00411149300634861,0.0005797822959721088,0.009958329610526562
706.0,0.0,0.0,0.0,0.0,0.0,0.0,0.003257644595578313,-0.0007064464734867215,-0.004441798664629459,0.9999452233314514,0.0038284750189632177,0.0005975317908450961,0.009730531834065914
707.0,0.0,0.0,0.0,0.0,0.0,0.0,-0.00237991102039814,-0.0026671909727156162,0.006434769835323095,0.9999452233314514,0.003610361134633422,0.00044432899449020624,0.009808861650526524
708.0,0.0,0.0,0.0,0.0,0.0,0.0,-0.005973266437649727,-0.004520045127719641,0.009375239722430706,0.9999447464942932,0.0034058489836752415,0.0001988767908187583,0.009941089898347855
709.0,0.0,0.0,0.0,0.0,0.0,0.0,-0.013210094533860683,-0.003535142634063959,0.029397835955023766,0.9999489188194275,0.003056839108467102,2.891648000513669e-05,0.009631292894482613
710.0,0.0,0.0,0.0,0.0,0.0,0.0,-0.018473457545042038,-0.0034107810351997614,0.036023467779159546,0.9999515414237976,0.0028580313082784414,-3.392713188077323e-05,0.00941438414156437
711.0,0.0,0.0,0.0,0.0,0.0,0.0,-0.014879344031214714,-0.0015318170189857483,0.04831891879439354,0.9999588131904602,0.002863135887309909,0.000270308053586632,0.008610788732767105
712.0,0.0,0.0,0.0,0.0,0.0,0.0,-0.0026177314575761557,-0.0013481284258887172,0.017154261469841003,0.9999702572822571,0.003474246943369508,0.001059120986610651,0.006808606442064047
713.0,0.0,0.0,0.0,0.0,0.0,0.0,0.005985123571008444,0.0018148103263229132,-0.026839468628168106,0.9999701380729675,0.004450888838618994,0.0014385721879079938,0.0061465101316571236
714.0,0.0,0.0,0.0,0.0,0.0,0.0,0.005327599123120308,0.00045955023961141706,-0.004931009374558926,0.9999657273292542,0.005492832977324724,0.0016751615330576897,0.005954387132078409
715.0,0.0,0.0,0.0,0.0,0.0,0.0,0.012496495619416237,0.0005803605890832841,-0.019566889852285385,0.9999646544456482,0.006393257528543472,0.002153374021872878,0.005006507970392704
716.0,0.0,0.0,0.0,0.0,0.0,0.0,0.015728319063782692,0.003936425317078829,-0.042321451008319855,0.9999628663063049,0.007060937117785215,0.002681586192920804,0.0041575017385184765
717.0,0.0,0.0,0.0,0.0,0.0,0.0,0.013629748485982418,0.005610412918031216,-0.04180440679192543,0.9999561309814453,0.007851777598261833,0.002913005417212844,0.004202802665531635
718.0,0.0,0.0,0.0,0.0,0.0,0.0,0.01152585819363594,0.004806008189916611,-0.04123591631650925,0.9999473094940186,0.008612262085080147,0.0031368350610136986,0.004632284864783287
719.0,0.0,0.0,0.0,0.0,0.0,0.0,0.012070262804627419,0.009989333339035511,-0.030064132064580917,0.9999394416809082,0.00913755688816309,0.0031328373588621616,0.005271330010145903
720.0,0.0,0.0,0.0,0.0,0.0,0.0,0.006223694421350956,0.00844544731080532,-0.012673594988882542,0.9999353289604187,0.009288789704442024,0.0028134407475590706,0.005899758543819189
721.0,0.0,0.0,0.0,0.0,0.0,0.0,0.0021488950587809086,0.007798635400831699,-0.0027045621536672115,0.9999344348907471,0.009196791797876358,0.002568219555541873,0.006313225254416466
722.0,0.0,0.0,0.0,0.0,0.0,0.0,-0.001473598531447351,0.0031907770317047834,-0.0038932422176003456,0.999934196472168,0.008969662711024284,0.0023807974066585302,0.0067483652383089066
723.0,0.0,0.0,0.0,0.0,0.0,0.0,-0.005977938417345285,0.00204658810980618,0.00949223805218935,0.9999315142631531,0.008734352886676788,0.0019893895369023085,0.0075340778566896915
724.0,0.0,0.0,0.0,0.0,0.0,0.0,-0.010249550454318523,0.002065864857286215,0.020766008645296097,0.9999266862869263,0.008465627208352089,0.0014940864639356732,0.008523531258106232
725.0,0.0,0.0,0.0,0.0,0.0,0.0,-0.015443001873791218,-0.0024910278152674437,0.01593748666346073,0.9999251961708069,0.008169134147465229,0.0014762183418497443,0.00898780021816492
726.0,0.0,0.0,0.0,0.0,0.0,0.0,-0.013344579376280308,-0.0037210527807474136,0.007080412469804287,0.9999292492866516,0.007851114496588707,0.0012572568375617266,0.008852004073560238
727.0,0.0,0.0,0.0,0.0,0.0,0.0,-0.011514665558934212,-0.0019583492539823055,0.01192446518689394,0.9999342560768127,0.007528907153755426,0.0012009505880996585,0.008560014888644218
728.0,0.0,0.0,0.0,0.0,0.0,0.0,-0.009084023535251617,0.0006739424425177276,0.004360248800367117,0.9999356269836426,0.007378605660051107,0.0012057758867740631,0.008532240986824036
729.0,0.0,0.0,0.0,0.0,0.0,0.0,-0.006104590371251106,0.0026769405230879784,0.0007465507369488478,0.999936580657959,0.007318940944969654,0.0011483768466860056,0.008481744676828384
730.0,0.0,0.0,0.0,0.0,0.0,0.0,-0.002782150637358427,0.00359528255648911,-0.0033634109422564507,0.9999358057975769,0.007148101460188627,0.0011298767058178782,0.008721916005015373
731.0,0.0,0.0,0.0,0.0,0.0,0.0,-0.0017113195499405265,0.00553958909586072,-0.00539556285366416,0.9999322891235352,0.007508034352213144,0.0011764670489355922,0.008807094767689705
732.0,0.0,0.0,0.0,0.0,0.0,0.0,0.0013913895236328244,0.006693280767649412,-0.009394224733114243,0.99993497133255,0.007539854384958744,0.0014966126764193177,0.008428060449659824
733.0,0.0,0.0,0.0,0.0,0.0,0.0,0.008824968710541725,0.009740163572132587,-0.018323902040719986,0.9999294877052307,0.007784601766616106,0.0016171258175745606,0.008825593627989292
734.0,0.0,0.0,0.0,0.0,0.0,0.0,0.011036714538931847,0.012016789056360722,-0.009303645230829716,0.9999147057533264,0.008217898197472095,0.0014089517062529922,0.010052887722849846
735.0,0.0,0.0,0.0,0.0,0.0,0.0,0.011977910995483398,0.010920221917331219,-0.002110416302457452,0.9999039173126221,0.00848004873842001,0.0011879621306434274,0.010901832021772861
736.0,0.0,0.0,0.0,0.0,0.0,0.0,0.013724629767239094,0.0095822149887681,-0.007032888010144234,0.9998970627784729,0.008692952804267406,0.0008624473703093827,0.011383193545043468
737.0,0.0,0.0,0.0,0.0,0.0,0.0,0.015230352059006691,0.008652026765048504,-0.00637396052479744,0.9998857975006104,0.008722448721528053,0.00040256738429889083,0.012337885797023773
738.0,0.0,0.0,0.0,0.0,0.0,0.0,0.010941075161099434,0.004332583397626877,0.0003331334737595171,0.9998732209205627,0.008798046968877316,-3.698283035191707e-05,0.013270465657114983
739.0,0.0,0.0,0.0,0.0,0.0,0.0,0.008263131603598595,0.0017718126764521003,0.008525310084223747,0.9998645782470703,0.008830980397760868,-0.0003128310781903565,0.013882238417863846
740.0,0.0,0.0,0.0,0.0,0.0,0.0,0.004163944162428379,-0.0017769020050764084,0.008684397675096989,0.9998614192008972,0.00852467492222786,-0.0007912702276371419,0.01426717359572649
741.0,0.0,0.0,0.0,0.0,0.0,0.0,-0.0043810829520225525,-0.007445267401635647,0.010097615420818329,0.9998602867126465,0.00817688275128603,-0.0010227290913462639,0.014542150311172009
742.0,0.0,0.0,0.0,0.0,0.0,0.0,-0.0035542582627385855,-0.003830247325822711,0.009728473611176014,0.9998637437820435,0.007961326278746128,-0.0009683207608759403,0.014425897039473057
743.0,0.0,0.0,0.0,0.0,0.0,0.0,-0.003947509452700615,-0.0014363545924425125,0.014069890603423119,0.9998681545257568,0.007596950046718121,-0.0010883747600018978,0.014308989979326725
744.0,0.0,0.0,0.0,0.0,0.0,0.0,-0.005918159149587154,-0.0016800673911347985,0.009874572977423668,0.9998677968978882,0.007760635111480951,-0.001303824712522328,0.01422208733856678
745.0,0.0,0.0,0.0,0.0,0.0,0.0,-0.008066121488809586,-0.0008470897446386516,-0.012645523063838482,0.9998682141304016,0.007937917485833168,-0.0015853627119213343,0.014075614511966705
746.0,0.0,0.0,0.0,0.0,0.0,0.0,-0.009468220174312592,-0.004355181008577347,-0.011118930764496326,0.9998664259910583,0.007914121262729168,-0.0012841103598475456,0.014243503101170063
747.0,0.0,0.0,0.0,0.0,0.0,0.0,-0.0009676039917394519,0.0037872844841331244,-0.021677741780877113,0.9998570084571838,0.008377207443118095,-0.0008798422059044242,0.014660719782114029
748.0,0.0,0.0,0.0,0.0,0.0,0.0,0.0006531070685014129,0.004684919491410255,-0.016778161749243736,0.9998571872711182,0.008298513479530811,-0.0006995860021561384,0.014705898240208626
749.0,0.0,0.0,0.0,0.0,0.0,0.0,0.0008431882015429437,0.0047715287655591965,-0.016264084726572037,0.9998517036437988,0.008397086523473263,-0.0004765022895298898,0.015023241750895977
750.0,0.0,0.0,0.0,0.0,0.0,0.0,0.0025807300116866827,0.008485838770866394,-0.008638225495815277,0.9998441934585571,0.008195754140615463,-0.0004399139143060893,0.015626097097992897
751.0,0.0,0.0,0.0,0.0,0.0,0.0,-0.002083933912217617,0.004363488871604204,-0.002137640491127968,0.9998396635055542,0.007986889220774174,-0.00033685530070215464,0.01601596176624298
752.0,0.0,0.0,0.0,0.0,0.0,0.0,-0.0007992310565896332,0.004958531819283962,0.003561966121196747,0.9998341202735901,0.007752378471195698,-0.0003683535906020552,0.016476145014166832
753.0,0.0,0.0,0.0,0.0,0.0,0.0,-0.0012734365882351995,0.0023626864422112703,0.01637786254286766,0.9998281002044678,0.007423104252666235,-0.0006137805758044124,0.016975753009319305
754.0,0.0,0.0,0.0,0.0,0.0,0.0,-0.0016744700260460377,-0.0014353817095980048,0.009242088533937931,0.9998227953910828,0.007177284918725491,-0.0006389874615706503,0.017393240705132484
755.0,0.0,0.0,0.0,0.0,0.0,0.0,0.004059797618538141,-0.0040150838904082775,-0.0013685519807040691,0.9998191595077515,0.007238173857331276,-0.0008397696656174958,0.017560705542564392
