,Position_X,Position_Y,Position_Z,Velocity_X,Velocity_Y,Velocity_Z,Acceleration_X,Acceleration_Y,Acceleration_Z,Quaterion_0,Quaterion_1,Quaterion_2,Quaterion_3
90.0,0.0,0.0,0.0,0.0,0.0,0.0,-0.01924438588321209,0.004339367151260376,-0.0015921692829579115,1.0,-1.3877787807814457e-17,-1.734723475976807e-18,-1.3877787807814457e-17
91.0,0.0,0.0,0.0,0.0,0.0,0.0,-0.010544578544795513,0.005168355535715818,-0.00141247920691967,0.9999989867210388,0.0009793314384296536,0.0010132839670404792,0.00023819603666197509
92.0,0.0,0.0,0.0,0.0,0.0,0.0,-0.007459944114089012,0.004091683309525251,-0.0018280036747455597,0.9999971985816956,0.0016894738655537367,0.0016409459058195353,0.00030596478609368205
93.0,0.0,0.0,0.0,0.0,0.0,0.0,-0.0058476924896240234,0.0004063915112055838,-0.0013799926964566112,0.9999948740005493,0.0024348802398890257,0.0018649693811312318,0.0009001445141620934
94.0,0.0,0.0,0.0,0.0,0.0,0.0,-0.005635265726596117,-0.0011578956618905067,-0.0050444221124053,0.9999934434890747,0.002972276182845235,0.0017224496696144342,0.0011307981330901384
95.0,0.0,0.0,0.0,0.0,0.0,0.0,-0.00045432313345372677,-0.007608118932694197,-0.023926960304379463,0.9999934434890747,0.003165371948853135,0.0012702245730906725,0.0011922373669221997
96.0,0.0,0.0,0.0,0.0,0.0,0.0,0.006866857409477234,-0.010706037282943726,-0.037459343671798706,0.9999960660934448,0.0023097051307559013,-0.0003101822512689978,0.0015647085383534431
97.0,0.0,0.0,0.0,0.0,0.0,0.0,0.0063252998515963554,-0.004557800479233265,0.023884417489171028,0.9999958276748657,0.0018137638689950109,-0.0016465215012431145,0.0015413789078593254
98.0,0.0,0.0,0.0,0.0,0.0,0.0,0.007809255737811327,-0.005674220621585846,0.005775857716798782,0.9999935030937195,0.001324817887507379,-0.003043306525796652,0.001408120384439826
99.0,0.0,0.0,0.0,0.0,0.0,0.0,-0.004818579647690058,-0.008804500102996826,0.0246351957321167,0.9999902248382568,0.0010106038535013795,-0.003874425310641527,0.0018904489697888494
100.0,0.0,0.0,0.0,0.0,0.0,0.0,-0.005561751313507557,-0.005696723237633705,0.024585355073213577,0.9999898076057434,0.0010122798848897219,-0.004002359230071306,0.0018267182167619467
101.0,0.0,0.0,0.0,0.0,0.0,0.0,-0.008379044942557812,-0.006129411980509758,0.013562560081481934,0.999991774559021,0.001232023467309773,-0.0035895532928407192,0.0014235867420211434
102.0,0.0,0.0,0.0,0.0,0.0,0.0,-0.007198185194283724,-0.003493851749226451,0.008223344571888447,0.9999918937683105,0.0011999435955658555,-0.0034746737219393253,0.0016581806121394038
103.0,0.0,0.0,0.0,0.0,0.0,0.0,0.00384077662602067,0.00243403110653162,0.008905148133635521,0.9999914169311523,0.0019348703790456057,-0.0030873315408825874,0.0019639560487121344
104.0,0.0,0.0,0.0,0.0,0.0,0.0,0.0004992036265321076,0.003068622900173068,0.00805878359824419,0.9999908804893494,0.002711193636059761,-0.0025749471969902515,0.002054764423519373
105.0,0.0,0.0,0.0,0.0,0.0,0.0,-0.0018015580717474222,0.006266380660235882,0.004953986965119839,0.9999915361404419,0.0031214547343552113,-0.0017639819998294115,0.0020236435811966658
106.0,0.0,0.0,0.0,0.0,0.0,0.0,-0.0008564266026951373,0.006722376216202974,0.0004934465396218002,0.9999889731407166,0.00403827428817749,-0.0009936552960425615,0.0021877815015614033
107.0,0.0,0.0,0.0,0.0,0.0,0.0,-0.0013649631291627884,0.007118424866348505,-0.0048169344663619995,0.9999826550483704,0.005342586897313595,-0.00015563081251457334,0.002475279150530696
108.0,0.0,0.0,0.0,0.0,0.0,0.0,-0.0006286122952587903,0.00905341561883688,-0.008753415197134018,0.9999755024909973,0.006425133906304836,0.0005216100835241377,0.0027349127922207117
109.0,0.0,0.0,0.0,0.0,0.0,0.0,-9.70540422713384e-05,0.009288566187024117,-0.009337126277387142,0.9999693632125854,0.007263625971972942,0.0007582499529235065,0.002815340179949999
110.0,0.0,0.0,0.0,0.0,0.0,0.0,-0.00015311280731111765,0.008259100839495659,-0.009507040493190289,0.9999584555625916,0.008406389504671097,0.0011051244800910354,0.0033499281853437424
111.0,0.0,0.0,0.0,0.0,0.0,0.0,0.002060870872810483,0.0065575214102864265,-0.009747403673827648,0.9999465346336365,0.009363897144794464,0.0010478305630385876,0.004260314628481865
112.0,0.0,0.0,0.0,0.0,0.0,0.0,0.002614177530631423,0.007030511274933815,-0.011019387282431126,0.9999372959136963,0.009848035871982574,0.0007582561229355633,0.005278637632727623
113.0,0.0,0.0,0.0,0.0,0.0,0.0,0.002933710580691695,0.00569198839366436,-0.00756888696923852,0.9999296069145203,0.010305752977728844,0.0005512447096407413,0.0058580911718308926
114.0,0.0,0.0,0.0,0.0,0.0,0.0,0.00315172434784472,0.005583350546658039,-0.003944191616028547,0.9999257922172546,0.010394714772701263,0.00036512542283162475,0.006339850835502148
115.0,0.0,0.0,0.0,0.0,0.0,0.0,0.004294652957469225,0.005487055517733097,-0.0012165219523012638,0.9999224543571472,0.010383395478129387,0.0002467891899868846,0.006874036509543657
116.0,0.0,0.0,0.0,0.0,0.0,0.0,0.003976113628596067,0.004310090560466051,-0.0016630578320473433,0.9999231696128845,0.010200300253927708,-2.0670939193223603e-05,0.007043301593512297
117.0,0.0,0.0,0.0,0.0,0.0,0.0,0.00486801378428936,0.0025490052066743374,-0.0006135349976830184,0.9999199509620667,0.010529950261116028,0.00019211010658182204,0.007010974455624819
118.0,0.0,0.0,0.0,0.0,0.0,0.0,0.0034194812178611755,0.0007482179789803922,0.00281009660102427,0.9999163746833801,0.010996873490512371,0.0015973375411704183,0.0066174669191241264
119.0,0.0,0.0,0.0,0.0,0.0,0.0,0.00012980529572814703,-4.212396379443817e-05,0.0030256835743784904,0.9999106526374817,0.011064112186431885,0.0025113190058618784,0.007072498556226492
120.0,0.0,0.0,0.0,0.0,0.0,0.0,-0.002178322058171034,-0.001553440815769136,0.0021229165140539408,0.9999014139175415,0.011614274233579636,0.0032639603596180677,0.007182985078543425
121.0,0.0,0.0,0.0,0.0,0.0,0.0,-0.0027505578473210335,-0.003608234692364931,-0.0003488212823867798,0.999886691570282,0.012470999732613564,0.003633068175986409,0.007606226950883865
122.0,0.0,0.0,0.0,0.0,0.0,0.0,-0.004988883621990681,-0.0062257940880954266,-0.006494265049695969,0.9998863935470581,0.012847415171563625,0.0037941739428788424,0.006905362010002136
123.0,0.0,0.0,0.0,0.0,0.0,0.0,-0.004337293561547995,-0.012808207422494888,-0.03242524713277817,0.9998899698257446,0.013012303970754147,0.004044607747346163,0.00586690753698349
124.0,0.0,0.0,0.0,0.0,0.0,0.0,-0.0004071543226018548,-0.017785150557756424,-0.04604288190603256,0.999900758266449,0.012586812488734722,0.003756304271519184,0.0050943950191140175
125.0,0.0,0.0,0.0,0.0,0.0,0.0,-0.0017951632617041469,-0.01202265452593565,0.024240218102931976,0.9999099969863892,0.012159587815403938,0.002965032123029232,0.004834197461605072
126.0,0.0,0.0,0.0,0.0,0.0,0.0,0.0018265065737068653,-0.010957792401313782,0.0011107963509857655,0.9999226927757263,0.011434735730290413,0.0016670512268319726,0.004592870362102985
127.0,0.0,0.0,0.0,0.0,0.0,0.0,-0.01340757217258215,-0.01241251453757286,0.011867944151163101,0.999933123588562,0.010480206459760666,0.000865182199049741,0.00481482082977891
128.0,0.0,0.0,0.0,0.0,0.0,0.0,-0.007021884899586439,-0.009831883013248444,0.015859244391322136,0.9999419450759888,0.009538884274661541,0.0004972579190507531,0.00499033322557807
129.0,0.0,0.0,0.0,0.0,0.0,0.0,-0.004600771237164736,-0.007848605513572693,0.0005334916058927774,0.999952495098114,0.008485118858516216,-0.00011735517909983173,0.004791907966136932
130.0,0.0,0.0,0.0,0.0,0.0,0.0,0.001393326441757381,-0.00566594023257494,0.0029220657888799906,0.9999600052833557,0.007515145931392908,-0.0004995564231649041,0.004821073729544878
131.0,0.0,0.0,0.0,0.0,0.0,0.0,0.001120058004744351,-0.0035761473700404167,0.014308911748230457,0.9999656081199646,0.006838152185082436,-0.0007535077165812254,0.004633646924048662
132.0,0.0,0.0,0.0,0.0,0.0,0.0,-0.0005740363267250359,-0.0008288449607789516,0.0163181871175766,0.9999679327011108,0.006368472706526518,-0.0005473919445648789,0.0048237149603664875
133.0,0.0,0.0,0.0,0.0,0.0,0.0,0.00028167106211185455,0.0021675564348697662,0.01620052382349968,0.9999678134918213,0.006133087445050478,-0.00048776555922813714,0.005147134885191917
134.0,0.0,0.0,0.0,0.0,0.0,0.0,-0.0001681121502770111,0.0049733626656234264,0.011176365427672863,0.9999634027481079,0.006586660165339708,-2.7527565180207603e-05,0.0054592592641711235
135.0,0.0,0.0,0.0,0.0,0.0,0.0,-0.0008267102530226111,0.006854455918073654,0.006782915443181992,0.9999493956565857,0.007564644794911146,0.00045432307524606586,0.006619705352932215
136.0,0.0,0.0,0.0,0.0,0.0,0.0,-0.0008757999166846275,0.0065309577621519566,0.001175804529339075,0.9999365210533142,0.00834372267127037,0.0010058804182335734,0.007504207547754049
137.0,0.0,0.0,0.0,0.0,0.0,0.0,-0.0003845545870717615,0.0073835765942931175,-0.005647456273436546,0.9999315142631531,0.009111018851399422,0.0012183254584670067,0.0072474186308681965
138.0,0.0,0.0,0.0,0.0,0.0,0.0,-0.0007594791823066771,0.009122922085225582,-0.007578468881547451,0.9999225735664368,0.009937752038240433,0.0013573075411841273,0.007364199962466955
139.0,0.0,0.0,0.0,0.0,0.0,0.0,3.323932469356805e-05,0.0074020447209477425,-0.007739867549389601,0.999911367893219,0.010815770365297794,0.0011758742621168494,0.007674991153180599
140.0,0.0,0.0,0.0,0.0,0.0,0.0,-0.0014053542399778962,0.008179595693945885,-0.009579901583492756,0.9999060034751892,0.011283679865300655,0.0007311055669561028,0.00775682320818305
141.0,0.0,0.0,0.0,0.0,0.0,0.0,0.0007091153529472649,0.009251721203327179,-0.0027066918555647135,0.9999040365219116,0.011494104750454426,0.00022705337323714048,0.007727946620434523
142.0,0.0,0.0,0.0,0.0,0.0,0.0,-0.002157435519620776,0.007814349606633186,-0.003955565858632326,0.9998986124992371,0.011894099414348602,-0.0003914319968316704,0.007819068618118763
143.0,0.0,0.0,0.0,0.0,0.0,0.0,0.0008457541116513312,0.007219692226499319,-0.005158199928700924,0.999890923500061,0.01222093403339386,-0.0008364802924916148,0.00825347751379013
144.0,0.0,0.0,0.0,0.0,0.0,0.0,0.0011424882104620337,0.007355168461799622,-0.0028174647595733404,0.9998853802680969,0.012528564780950546,-0.0009506589267402887,0.008447804488241673
145.0,0.0,0.0,0.0,0.0,0.0,0.0,0.0005461136461235583,0.002943955361843109,0.0002621936146169901,0.9998830556869507,0.01318955235183239,0.0003208307607565075,0.0077357483096420765
146.0,0.0,0.0,0.0,0.0,0.0,0.0,-0.0002431963657727465,-0.000138610033900477,0.0027915125247091055,0.9998730421066284,0.013706158846616745,0.002321917098015547,0.007789535913616419
147.0,0.0,0.0,0.0,0.0,0.0,0.0,-0.0002906682202592492,-0.000995744252577424,0.0040990691632032394,0.999869704246521,0.014033157378435135,0.003972404636442661,0.006920508109033108
148.0,0.0,0.0,0.0,0.0,0.0,0.0,-0.0017346905078738928,-0.0036080661229789257,0.0005037627415731549,0.9998522996902466,0.014677696861326694,0.0051160696893930435,0.007333850953727961
149.0,0.0,0.0,0.0,0.0,0.0,0.0,-0.0024372439365833998,-0.005956889130175114,-0.007354788947850466,0.9998263120651245,0.015793949365615845,0.005803793203085661,0.00801162701100111
150.0,0.0,0.0,0.0,0.0,0.0,0.0,-0.00044537868234328926,-0.011898529715836048,-0.023033645004034042,0.9998156428337097,0.016409695148468018,0.006270484998822212,0.007749185431748629
151.0,0.0,0.0,0.0,0.0,0.0,0.0,0.0055196755565702915,-0.01792449876666069,-0.08239676803350449,0.9998246431350708,0.01600956730544567,0.005866905674338341,0.007746785879135132
152.0,0.0,0.0,0.0,0.0,0.0,0.0,0.022898361086845398,-0.004842029884457588,0.01738116890192032,0.9998252391815186,0.015872875228524208,0.00403024535626173,0.009017479605972767
153.0,0.0,0.0,0.0,0.0,0.0,0.0,0.019915632903575897,-0.007892816327512264,-0.018743595108389854,0.9998329281806946,0.015352325513958931,0.0019023311324417591,0.00973461102694273
154.0,0.0,0.0,0.0,0.0,0.0,0.0,-0.0003589635598473251,-0.010838929563760757,0.007021853234618902,0.999843418598175,0.014735708944499493,-0.00011158600682392716,0.009798698127269745
155.0,0.0,0.0,0.0,0.0,0.0,0.0,-0.00506117707118392,-0.007999812252819538,0.026297882199287415,0.9998509287834167,0.01393142156302929,-0.0019137958297505975,0.010020577348768711
156.0,0.0,0.0,0.0,0.0,0.0,0.0,-0.01395506877452135,-0.01631684973835945,0.0038012538570910692,0.9998649954795837,0.01303153671324253,-0.002892369171604514,0.009581198915839195
157.0,0.0,0.0,0.0,0.0,0.0,0.0,-0.0034039425663650036,-0.014905700460076332,-8.585864998167381e-05,0.9998779892921448,0.012233342975378036,-0.0039498526602983475,0.008868698962032795
158.0,0.0,0.0,0.0,0.0,0.0,0.0,-0.0012916482519358397,-0.012372095137834549,0.012388086877763271,0.9998815655708313,0.011610941961407661,-0.0046266526915133,0.008977875113487244
159.0,0.0,0.0,0.0,0.0,0.0,0.0,-0.006180820520967245,-0.012148314155638218,0.013306568376719952,0.9998910427093506,0.011158335953950882,-0.004712740890681744,0.008432159200310707
160.0,0.0,0.0,0.0,0.0,0.0,0.0,-0.00925797875970602,-0.010185985825955868,0.017823876813054085,0.9999114274978638,0.01044970378279686,-0.004080460872501135,0.007164192385971546
161.0,0.0,0.0,0.0,0.0,0.0,0.0,-0.01356351375579834,-0.00871153362095356,0.0182711873203516,0.999923825263977,0.010174543596804142,-0.003111501457169652,0.006256444845348597
162.0,0.0,0.0,0.0,0.0,0.0,0.0,-0.018079420551657677,-0.005962645169347525,0.017238346859812737,0.9999297857284546,0.010345838032662868,-0.0018547981744632125,0.005473528988659382
163.0,0.0,0.0,0.0,0.0,0.0,0.0,-0.016607338562607765,-0.004271342419087887,0.010700980201363564,0.9999291896820068,0.01093597337603569,-0.000560251995921135,0.00465440796688199
164.0,0.0,0.0,0.0,0.0,0.0,0.0,-0.01428732369095087,-0.0023398869670927525,-0.000990611151792109,0.9999244213104248,0.011566718108952045,0.001116079860366881,0.00401926739141345
165.0,0.0,0.0,0.0,0.0,0.0,0.0,-0.01304108276963234,-0.00021348796144593507,-0.01249739807099104,0.999914824962616,0.012152368202805519,0.0028611673042178154,0.0038047749549150467
166.0,0.0,0.0,0.0,0.0,0.0,0.0,-0.010066371411085129,0.003871621796861291,-0.007641249801963568,0.9998964667320251,0.013057424686849117,0.004115748684853315,0.004431064240634441
167.0,0.0,0.0,0.0,0.0,0.0,0.0,-0.0047136591747403145,0.006623049266636372,-0.0005239779129624367,0.9998665452003479,0.014341393485665321,0.005319985561072826,0.00573722692206502
168.0,0.0,0.0,0.0,0.0,0.0,0.0,0.004208243917673826,0.00872323103249073,-0.004813000094145536,0.999843955039978,0.015073375776410103,0.0060120150446891785,0.006979713216423988
169.0,0.0,0.0,0.0,0.0,0.0,0.0,0.01145189255475998,0.0087953582406044,-0.014278576709330082,0.9998266100883484,0.015473566949367523,0.006128772161900997,0.008353814482688904
170.0,0.0,0.0,0.0,0.0,0.0,0.0,0.015521633438766003,0.008241923525929451,-0.023837944492697716,0.9998083114624023,0.0159364715218544,0.0058832415379583836,0.009730937890708447
171.0,0.0,0.0,0.0,0.0,0.0,0.0,0.0158783420920372,0.007235113065689802,-0.020735906437039375,0.9997996091842651,0.01594567857682705,0.005472526885569096,0.010791150853037834
172.0,0.0,0.0,0.0,0.0,0.0,0.0,0.010856350883841515,0.003639062400907278,-0.012630324810743332,0.9997979402542114,0.015688009560108185,0.0050064874812960625,0.011524129658937454
173.0,0.0,0.0,0.0,0.0,0.0,0.0,0.011358094401657581,0.003631191560998559,-0.004961398895829916,0.999801754951477,0.014975963160395622,0.004262134432792664,0.012408524751663208
174.0,0.0,0.0,0.0,0.0,0.0,0.0,0.008584548719227314,0.0029836883768439293,0.0044715553522109985,0.9997925758361816,0.014608829282224178,0.003475161734968424,0.013758904300630093
175.0,0.0,0.0,0.0,0.0,0.0,0.0,0.006436349358409643,0.003598790615797043,0.014116672798991203,0.9997695684432983,0.014609625563025475,0.0028977487236261368,0.015460259281098843
176.0,0.0,0.0,0.0,0.0,0.0,0.0,0.0076364572159945965,0.001253896625712514,0.008238255977630615,0.9997570514678955,0.014491137117147446,0.0025236476212739944,0.016415337100625038
177.0,0.0,0.0,0.0,0.0,0.0,0.0,0.006904971785843372,-0.0011210867669433355,-0.004567961674183607,0.9997676014900208,0.0138377845287323,0.0020996099337935448,0.016396459192037582
178.0,0.0,0.0,0.0,0.0,0.0,0.0,0.004274393431842327,-0.0016884643118828535,-0.005992687772959471,0.9997786283493042,0.013167815282940865,0.0016742509324103594,0.01632281392812729
179.0,0.0,0.0,0.0,0.0,0.0,0.0,0.0016015401342883706,-0.0030431642662733793,-0.005700280889868736,0.9997890591621399,0.012351324781775475,0.0011532723437994719,0.016368234530091286
180.0,0.0,0.0,0.0,0.0,0.0,0.0,-0.004817150998860598,-0.0022475190926343203,0.0005333281587809324,0.9998090267181396,0.011528976261615753,0.0005113707156851888,0.01577182486653328
181.0,0.0,0.0,0.0,0.0,0.0,0.0,-0.011886163614690304,-0.003715392667800188,0.005919001996517181,0.9998368620872498,0.01066012866795063,-0.0001336713321506977,0.01458153035491705
182.0,0.0,0.0,0.0,0.0,0.0,0.0,-0.013755896128714085,-0.004383645486086607,0.008500306867063046,0.9998626708984375,0.010185068473219872,-0.0006035483675077558,0.013058507815003395
183.0,0.0,0.0,0.0,0.0,0.0,0.0,-0.015139763243496418,-0.005179784260690212,-0.003561146091669798,0.9998790621757507,0.0100956279784441,-0.0013374299742281437,0.01174725778400898
184.0,0.0,0.0,0.0,0.0,0.0,0.0,-0.015078553929924965,-0.002876219805330038,-0.0031253064516931772,0.9998953938484192,0.009839169681072235,-0.0022584039252251387,0.010358410887420177
185.0,0.0,0.0,0.0,0.0,0.0,0.0,-0.020758314058184624,0.0006952898111194372,0.00900803692638874,0.999906599521637,0.0096496706828475,-0.0029596667736768723,0.009210591204464436
186.0,0.0,0.0,0.0,0.0,0.0,0.0,-0.021096903830766678,9.917651186697185e-05,0.015996688976883888,0.9999134540557861,0.009928652085363865,-0.003375671338289976,0.007941244170069695
187.0,0.0,0.0,0.0,0.0,0.0,0.0,-0.020090844482183456,-0.001307547208853066,0.02001972869038582,0.9999157786369324,0.010383105836808681,-0.003304158803075552,0.00705506419762969
188.0,0.0,0.0,0.0,0.0,0.0,0.0,-0.017213398590683937,-0.004034025128930807,0.009341158904135227,0.9999160766601562,0.010503778234124184,-0.0027951172087341547,0.007053570356220007
189.0,0.0,0.0,0.0,0.0,0.0,0.0,0.0007583775441162288,-0.0006982600898481905,0.009960896335542202,0.9998990893363953,0.011115672998130322,-0.0024717028718441725,0.008490655571222305
190.0,0.0,0.0,0.0,0.0,0.0,0.0,0.00427731079980731,0.0013668725732713938,0.01436738483607769,0.9998863935470581,0.011191721074283123,-0.002197087276726961,0.009856599383056164
191.0,0.0,0.0,0.0,0.0,0.0,0.0,0.0077982437796890736,0.0010514571331441402,0.011589622125029564,0.9998801946640015,0.011277646757662296,-0.0017163261072710156,0.010460540652275085
192.0,0.0,0.0,0.0,0.0,0.0,0.0,0.006120975594967604,-0.0013659846736118197,-0.012861857190728188,0.9998855590820312,0.011271701194345951,-0.0004544495895970613,0.010080242529511452
193.0,0.0,0.0,0.0,0.0,0.0,0.0,0.003001694567501545,-0.0045917341485619545,-0.009483471512794495,0.999886155128479,0.011427364312112331,0.000890151655767113,0.009811995550990105
194.0,0.0,0.0,0.0,0.0,0.0,0.0,-9.133924322668463e-05,-0.006589148193597794,-0.01117169763892889,0.9998833537101746,0.011642900295555592,0.0017293404089286923,0.009734459221363068
195.0,0.0,0.0,0.0,0.0,0.0,0.0,-0.007070187479257584,-0.010395058430731297,-0.006743623875081539,0.9998818635940552,0.011947532184422016,0.002484677592292428,0.009341341443359852
196.0,0.0,0.0,0.0,0.0,0.0,0.0,-0.011643670499324799,-0.009326302446424961,0.0029168142937123775,0.9998819231987,0.012008793652057648,0.003287508385255933,0.009001309983432293
197.0,0.0,0.0,0.0,0.0,0.0,0.0,-0.008434278890490532,-0.011027510277926922,-0.00032451143488287926,0.9998758435249329,0.012162708677351475,0.003897585906088352,0.00923157762736082
198.0,0.0,0.0,0.0,0.0,0.0,0.0,-0.003521231235936284,-0.01257126871496439,-0.02026422508060932,0.99986332654953,0.012605240568518639,0.003877535928040743,0.00996681209653616
199.0,0.0,0.0,0.0,0.0,0.0,0.0,0.00011421309318393469,-0.009580912068486214,-0.002784927375614643,0.9998621344566345,0.012321505695581436,0.0033474580850452185,0.010618092492222786
200.0,0.0,0.0,0.0,0.0,0.0,0.0,0.0027907511685043573,-0.007451816461980343,-0.004831064958125353,0.9998573064804077,0.012106193229556084,0.0029116885270923376,0.01140962727367878
201.0,0.0,0.0,0.0,0.0,0.0,0.0,0.00806032121181488,-0.00795712135732174,-0.01454226952046156,0.9998476505279541,0.011850765906274319,0.0020752677228301764,0.012644961476325989
202.0,0.0,0.0,0.0,0.0,0.0,0.0,0.011435815133154392,-0.006282088812440634,5.469717871164903e-05,0.9998388290405273,0.01125827431678772,0.0010554584441706538,0.013947011902928352
203.0,0.0,0.0,0.0,0.0,0.0,0.0,0.010764311999082565,-0.004803692456334829,0.002576818922534585,0.9998340606689453,0.010678413324058056,-0.00018417526734992862,0.014754017814993858
204.0,0.0,0.0,0.0,0.0,0.0,0.0,0.00913027673959732,-0.006369560956954956,0.0030043437145650387,0.9998454451560974,0.009404275566339493,-0.0011951241176575422,0.014808273874223232
205.0,0.0,0.0,0.0,0.0,0.0,0.0,0.007840809412300587,-0.005677992478013039,0.007074933964759111,0.999850869178772,0.00812962744385004,-0.002285424154251814,0.015066679567098618
206.0,0.0,0.0,0.0,0.0,0.0,0.0,0.003639505710452795,-0.0031933747231960297,0.009437617845833302,0.999851405620575,0.007332358974963427,-0.003287841333076358,0.015247169882059097
207.0,0.0,0.0,0.0,0.0,0.0,0.0,0.0016453000716865063,-0.001024041324853897,0.016158316284418106,0.9998607039451599,0.006539374124258757,-0.0038369884714484215,0.014866340905427933
208.0,0.0,0.0,0.0,0.0,0.0,0.0,-0.004578826949000359,-0.002638264326378703,0.011594869196414948,0.9998644590377808,0.00616628909483552,-0.003831024980172515,0.014773564413189888
209.0,0.0,0.0,0.0,0.0,0.0,0.0,-0.0057873171754181385,0.00015007818001322448,0.016396963968873024,0.9998504519462585,0.006618242245167494,-0.0037780636921525,0.015522277913987637
210.0,0.0,0.0,0.0,0.0,0.0,0.0,-0.002203789772465825,0.003606598824262619,0.028058836236596107,0.9998401403427124,0.0075213490054011345,-0.0033577175345271826,0.015866613015532494
211.0,0.0,0.0,0.0,0.0,0.0,0.0,-0.0008340342319570482,0.0038995668292045593,0.0077568283304572105,0.9998226761817932,0.008809350430965424,-0.002735203830525279,0.01641939766705036
212.0,0.0,0.0,0.0,0.0,0.0,0.0,0.0030734059400856495,0.003517700359225273,-0.005701624322682619,0.9998010396957397,0.010078400373458862,-0.0022114417515695095,0.01707012578845024
213.0,0.0,0.0,0.0,0.0,0.0,0.0,0.006319273263216019,0.0032951945904642344,-0.014674359001219273,0.9997802376747131,0.010983193293213844,-0.0017063916893675923,0.01776992343366146
214.0,0.0,0.0,0.0,0.0,0.0,0.0,0.007727452553808689,0.004407275002449751,-0.01678461581468582,0.99977046251297,0.01117105595767498,-0.0014015942579135299,0.018227430060505867
215.0,0.0,0.0,0.0,0.0,0.0,0.0,0.008345874026417732,0.005347779486328363,-0.01243526116013527,0.999764084815979,0.011192421428859234,-0.0011582160368561745,0.018578164279460907
216.0,0.0,0.0,0.0,0.0,0.0,0.0,0.010521892458200455,0.005425306968390942,-0.017631225287914276,0.9997503161430359,0.011294488795101643,-0.001063428819179535,0.019253386184573174
217.0,0.0,0.0,0.0,0.0,0.0,0.0,0.0034228162840008736,0.0008229367667809129,-0.023763958364725113,0.9997549057006836,0.010777018964290619,-0.0006264244439080358,0.019327325746417046
218.0,0.0,0.0,0.0,0.0,0.0,0.0,-0.00017128611216321588,-0.001567206927575171,-0.01091650128364563,0.9997565746307373,0.009751908481121063,-0.0005694941501133144,0.019782157614827156
219.0,0.0,0.0,0.0,0.0,0.0,0.0,0.0013446529628708959,-0.000597839942201972,0.0016339471330866218,0.9997536540031433,0.008868006058037281,-0.0009851455688476562,0.020323507487773895
220.0,0.0,0.0,0.0,0.0,0.0,0.0,0.000893479969818145,-0.0005715364241041243,-0.004071090370416641,0.9997512698173523,0.008320387452840805,-0.0012975712306797504,0.020649148151278496
221.0,0.0,0.0,0.0,0.0,0.0,0.0,-0.00014557545364368707,-0.0025634765625,0.0012176502496004105,0.9997492432594299,0.007724796421825886,-0.0019362971652299166,0.020931269973516464
222.0,0.0,0.0,0.0,0.0,0.0,0.0,0.002409550594165921,-0.0026743318885564804,0.0034578503109514713,0.9997438192367554,0.0072815013118088245,-0.002858472289517522,0.021236984059214592
223.0,0.0,0.0,0.0,0.0,0.0,0.0,0.0043928478844463825,0.0008016788633540273,0.01080991793423891,0.9997275471687317,0.00710246991366148,-0.0037984177470207214,0.021905867382884026
224.0,0.0,0.0,0.0,0.0,0.0,0.0,0.0018539276206865907,0.0008096290985122323,0.012700509279966354,0.9997046589851379,0.007142640650272369,-0.004375449847429991,0.02281406708061695
225.0,0.0,0.0,0.0,0.0,0.0,0.0,-0.0021634558215737343,-0.0011029507732018828,0.008248264901340008,0.9996861815452576,0.007354413159191608,-0.004581214860081673,0.023505477234721184
226.0,0.0,0.0,0.0,0.0,0.0,0.0,-0.0015768427401781082,0.000620392442215234,0.007991217076778412,0.9996658563613892,0.007986816577613354,-0.004612037446349859,0.024147629737854004
227.0,0.0,0.0,0.0,0.0,0.0,0.0,-0.002446294529363513,0.0011498528765514493,0.010755429975688457,0.9996488094329834,0.008472873829305172,-0.0046175518073141575,0.024681996554136276
228.0,0.0,0.0,0.0,0.0,0.0,0.0,-0.0006685645785182714,0.002079453319311142,0.0018400406697764993,0.9996424913406372,0.008762339130043983,-0.004686540924012661,0.02482319064438343
229.0,0.0,0.0,0.0,0.0,0.0,0.0,-0.002569904550909996,-0.0002019945823121816,-0.00889506097882986,0.999658465385437,0.00880256574600935,-0.004651331342756748,0.02416173368692398
230.0,0.0,0.0,0.0,0.0,0.0,0.0,-0.0034268219023942947,0.00037211680319160223,-0.006026188377290964,0.999683141708374,0.008386047556996346,-0.004585282411426306,0.023288480937480927
231.0,0.0,0.0,0.0,0.0,0.0,0.0,-0.007843979634344578,0.0003330230829305947,-0.004886110778898001,0.9996886253356934,0.008432643488049507,-0.004858772270381451,0.022976640611886978
232.0,0.0,0.0,0.0,0.0,0.0,0.0,-0.010886497795581818,-0.00036883761640638113,-0.005874349270015955,0.9996933341026306,0.008214954286813736,-0.005304915830492973,0.022751113399863243
233.0,0.0,0.0,0.0,0.0,0.0,0.0,-0.011920014396309853,-0.00013273849617689848,-0.005598961375653744,0.9997115135192871,0.00786207802593708,-0.005653917323797941,0.021978754550218582
234.0,0.0,0.0,0.0,0.0,0.0,0.0,-0.017841394990682602,-0.003024749457836151,-0.0035941076930612326,0.9997326731681824,0.0077995616011321545,-0.005660964176058769,0.02101556956768036
235.0,0.0,0.0,0.0,0.0,0.0,0.0,-0.013601904734969139,-0.002863436471670866,-0.004521938972175121,0.9997490048408508,0.007441833149641752,-0.005805165506899357,0.02031734399497509
236.0,0.0,0.0,0.0,0.0,0.0,0.0,-0.01766214706003666,-0.0034266216680407524,-0.0028220629319548607,0.9997751116752625,0.006877165753394365,-0.005707874894142151,0.01923062838613987
237.0,0.0,0.0,0.0,0.0,0.0,0.0,-0.017933322116732597,-0.002100404119119048,0.0028009037487208843,0.9997896552085876,0.0061388579197227955,-0.005707340780645609,0.01871700957417488
238.0,0.0,0.0,0.0,0.0,0.0,0.0,-0.01728912815451622,-0.000819821550976485,0.005924312397837639,0.9998101592063904,0.005601372569799423,-0.005491022486239672,0.01783573441207409
239.0,0.0,0.0,0.0,0.0,0.0,0.0,-0.01655713841319084,0.0010856754379346967,0.006717680487781763,0.9998283386230469,0.00527036702260375,-0.004601930268108845,0.017156681045889854
240.0,0.0,0.0,0.0,0.0,0.0,0.0,-0.015870368108153343,0.0011400016956031322,0.005592199508100748,0.9998472929000854,0.005035271402448416,-0.003127981210127473,0.016439175233244896
241.0,0.0,0.0,0.0,0.0,0.0,0.0,-0.015980752184987068,0.000856360886245966,0.005113139282912016,0.9998564124107361,0.0046053677797317505,-0.002419986529275775,0.016126461327075958
242.0,0.0,0.0,0.0,0.0,0.0,0.0,-0.013474457897245884,0.002071316819638014,0.002214535139501095,0.9998636841773987,0.004174295347183943,-0.0017935120267793536,0.015874456614255905
243.0,0.0,0.0,0.0,0.0,0.0,0.0,-0.012583200819790363,0.0006995545700192451,0.0014521292177960277,0.9998747110366821,0.0041420417837798595,-0.0006967250374145806,0.015262596309185028
244.0,0.0,0.0,0.0,0.0,0.0,0.0,-0.009397000074386597,-6.744165148120373e-05,-0.00581360375508666,0.9998852014541626,0.004123259801417589,7.873810682212934e-05,0.014578578062355518
245.0,0.0,0.0,0.0,0.0,0.0,0.0,-0.006678425241261721,0.001034789253026247,-0.030431203544139862,0.9998960494995117,0.0037499263416975737,-2.826586933224462e-05,0.013916932977735996
246.0,0.0,0.0,0.0,0.0,0.0,0.0,-0.013891391456127167,0.002563185291364789,-0.015334147028625011,0.9999111294746399,0.003219951642677188,-0.0002982762816827744,0.01293744146823883
247.0,0.0,0.0,0.0,0.0,0.0,0.0,-0.017956987023353577,0.005462447181344032,0.017580775544047356,0.9999251961708069,0.003240101272240281,-0.0001250851491931826,0.011793384328484535
248.0,0.0,0.0,0.0,0.0,0.0,0.0,-0.012914890423417091,-0.0006573148421011865,-0.003796540666371584,0.9999289512634277,0.0033255259040743113,0.0002939476980827749,0.011444161646068096
249.0,0.0,0.0,0.0,0.0,0.0,0.0,-0.0014388866256922483,6.206530088093132e-05,0.002543350216001272,0.9999328255653381,0.003508707508444786,0.00013999338261783123,0.011045729741454124
250.0,0.0,0.0,0.0,0.0,0.0,0.0,0.0017795714084059,0.002443954348564148,0.016753431409597397,0.9999369382858276,0.003925831522792578,0.00026731775142252445,0.010517696850001812
251.0,0.0,0.0,0.0,0.0,0.0,0.0,0.0025684109423309565,0.0028266964945942163,0.011479688808321953,0.9999334812164307,0.004713776055723429,0.0006394666852429509,0.01050297450274229
252.0,0.0,0.0,0.0,0.0,0.0,0.0,0.006748783867806196,0.0022302453871816397,-0.015605279244482517,0.9999275803565979,0.005231603514403105,0.0004980918602086604,0.010828729718923569
253.0,0.0,0.0,0.0,0.0,0.0,0.0,0.007863657549023628,0.001571165630593896,-0.008727822452783585,0.9999164938926697,0.005417983513325453,3.210840077372268e-05,0.011731501668691635
254.0,0.0,0.0,0.0,0.0,0.0,0.0,0.008473276160657406,0.002985959406942129,0.015015802346169949,0.9999068975448608,0.0060469177551567554,-5.7048753660637885e-05,0.012230245396494865
255.0,0.0,0.0,0.0,0.0,0.0,0.0,0.010479629039764404,-0.0007992589962668717,-0.0016722803702577949,0.9998956322669983,0.006509387865662575,-3.456673584878445e-05,0.012893310748040676
256.0,0.0,0.0,0.0,0.0,0.0,0.0,0.016273856163024902,0.0008178537245839834,-0.01380772702395916,0.9998786449432373,0.0064235469326376915,-0.0006958337035030127,0.01417618803679943
257.0,0.0,0.0,0.0,0.0,0.0,0.0,0.011407663114368916,0.0032831942662596703,0.007897533476352692,0.9998679161071777,0.005727304145693779,-0.001093399478122592,0.015171671286225319
258.0,0.0,0.0,0.0,0.0,0.0,0.0,0.012288813479244709,0.005106795113533735,0.02245907671749592,0.9998524188995361,0.005245519801974297,-0.0018991924589499831,0.016247712075710297
259.0,0.0,0.0,0.0,0.0,0.0,0.0,0.015922529622912407,0.004736745730042458,0.010923943482339382,0.9998399019241333,0.004630635026842356,-0.002800185699015856,0.017055600881576538
260.0,0.0,0.0,0.0,0.0,0.0,0.0,0.014153646305203438,0.0017813564045354724,-0.006406972650438547,0.9998349547386169,0.004728998988866806,-0.003550910856574774,0.017176218330860138
261.0,0.0,0.0,0.0,0.0,0.0,0.0,0.012478981167078018,-0.0016282637370750308,-0.012478995136916637,0.9998263120651245,0.0050912220031023026,-0.00365796429105103,0.017549797892570496
262.0,0.0,0.0,0.0,0.0,0.0,0.0,0.008551164530217648,-0.0024728032294660807,-0.011320148594677448,0.9998117089271545,0.005389261059463024,-0.0037781496066600084,0.018256446346640587
263.0,0.0,0.0,0.0,0.0,0.0,0.0,0.0024956068955361843,-0.0030250197742134333,0.006069477181881666,0.9997731447219849,0.00541996443644166,-0.004652440082281828,0.0200656671077013
264.0,0.0,0.0,0.0,0.0,0.0,0.0,-0.0006714767660014331,0.0004886426031589508,0.034254588186740875,0.9997369647026062,0.005846453830599785,-0.005541471764445305,0.021471384912729263
265.0,0.0,0.0,0.0,0.0,0.0,0.0,0.0038256519474089146,-0.0023110632319003344,0.012722058221697807,0.9997214674949646,0.006399821490049362,-0.0062084319069981575,0.021849684417247772
266.0,0.0,0.0,0.0,0.0,0.0,0.0,0.005584910977631807,-0.00934677291661501,-0.014928793534636497,0.9997195601463318,0.0065048327669501305,-0.007274814881384373,0.021576739847660065
267.0,0.0,0.0,0.0,0.0,0.0,0.0,0.007716401480138302,-0.01080525666475296,-0.05038783699274063,0.9997128248214722,0.006101022940129042,-0.008351879194378853,0.02161676250398159
268.0,0.0,0.0,0.0,0.0,0.0,0.0,0.003144672606140375,-0.0061764828860759735,-0.005601195152848959,0.9997124671936035,0.005017722491174936,-0.009344587102532387,0.02150772698223591
269.0,0.0,0.0,0.0,0.0,0.0,0.0,-0.008305620402097702,-0.007630825508385897,0.04031756892800331,0.9997174143791199,0.004130697343498468,-0.009611072950065136,0.0213458314538002
270.0,0.0,0.0,0.0,0.0,0.0,0.0,-0.007531451992690563,-0.006535184103995562,0.007920726202428341,0.9997154474258423,0.0036496662069112062,-0.00946681946516037,0.02158774621784687
271.0,0.0,0.0,0.0,0.0,0.0,0.0,-0.0067574093118309975,0.0016952569130808115,0.019972342997789383,0.999704122543335,0.003547403961420059,-0.009410234168171883,0.02214670367538929
272.0,0.0,0.0,0.0,0.0,0.0,0.0,-0.011704043485224247,0.0028588436543941498,0.020099688321352005,0.9997143745422363,0.0037115064915269613,-0.008918230421841145,0.02185734547674656
273.0,0.0,0.0,0.0,0.0,0.0,0.0,-0.006762537639588118,0.005320468917489052,0.00663220277056098,0.999738335609436,0.004039661958813667,-0.008224421180784702,0.020959505811333656
274.0,0.0,0.0,0.0,0.0,0.0,0.0,-0.0058339741080999374,-0.001381233218125999,-0.02014037035405636,0.9997665286064148,0.004193557891994715,-0.007537410128861666,0.019812239333987236
275.0,0.0,0.0,0.0,0.0,0.0,0.0,-0.010883646085858345,-0.003768945811316371,-0.019176999107003212,0.9997962117195129,0.0040230234153568745,-0.006808791309595108,0.018573207780718803
276.0,0.0,0.0,0.0,0.0,0.0,0.0,-0.015145460143685341,-0.0029200082644820213,-0.003628871403634548,0.9998248815536499,0.0039452132768929005,-0.0061377836391329765,0.01723085530102253
277.0,0.0,0.0,0.0,0.0,0.0,0.0,-0.019878193736076355,-0.0022296281531453133,0.009167918935418129,0.9998418688774109,0.0036330597940832376,-0.005450649186968803,0.016530536115169525
278.0,0.0,0.0,0.0,0.0,0.0,0.0,-0.018293682485818863,-0.001690391800366342,0.012695572338998318,0.9998486042022705,0.0035348443780094385,-0.005102816969156265,0.01625419594347477
279.0,0.0,0.0,0.0,0.0,0.0,0.0,-0.014958217740058899,-0.0029768445529043674,0.00931753870099783,0.9998640418052673,0.0037062251940369606,-0.004434217698872089,0.015442492440342903
280.0,0.0,0.0,0.0,0.0,0.0,0.0,-0.00768730603158474,-0.0027058676350861788,-0.004831499420106411,0.9998667240142822,0.003519394900649786,-0.0041105798445641994,0.015401591546833515
281.0,0.0,0.0,0.0,0.0,0.0,0.0,-0.005970782600343227,-0.0023188660852611065,-0.003511267714202404,0.9998617172241211,0.0031207422725856304,-0.004315873607993126,0.015753954648971558
282.0,0.0,0.0,0.0,0.0,0.0,0.0,-0.0018526357598602772,-0.0026923271361738443,-0.0005105241434648633,0.9998616576194763,0.003019297029823065,-0.004498648457229137,0.015725955367088318
283.0,0.0,0.0,0.0,0.0,0.0,0.0,-0.00043197706690989435,-0.0025310053024441004,0.0025542357470840216,0.9998630285263062,0.0026966147124767303,-0.004825267940759659,0.015597261488437653
284.0,0.0,0.0,0.0,0.0,0.0,0.0,0.0014954921789467335,-0.0027442655991762877,0.00570725416764617,0.9998595714569092,0.001961689442396164,-0.005176224745810032,0.015819495543837547
285.0,0.0,0.0,0.0,0.0,0.0,0.0,0.006947837304323912,-0.0021744361147284508,0.008832313120365143,0.999850332736969,0.0018967562355101109,-0.005860616452991962,0.016163503751158714
286.0,0.0,0.0,0.0,0.0,0.0,0.0,0.003782798768952489,-0.004205096513032913,0.008930220268666744,0.9998541474342346,0.0018715979531407356,-0.00606496911495924,0.015852971002459526
287.0,0.0,0.0,0.0,0.0,0.0,0.0,0.0052191996946930885,-0.004479633178561926,0.009501149877905846,0.9998626112937927,0.0016765603795647621,-0.006256061140447855,0.015256370417773724
288.0,0.0,0.0,0.0,0.0,0.0,0.0,-0.0006390069029293954,-0.0053402576595544815,0.004929231945425272,0.9998711943626404,0.0015017136465758085,-0.006235715001821518,0.0147122573107481
289.0,0.0,0.0,0.0,0.0,0.0,0.0,0.0005578434211201966,-0.005067093297839165,0.005104229785501957,0.9998706579208374,0.00142670760396868,-0.00627721706405282,0.014738056808710098
290.0,0.0,0.0,0.0,0.0,0.0,0.0,0.0027712450828403234,-0.004555524792522192,0.0024094705004245043,0.9998736381530762,0.0018506912747398019,-0.006118521559983492,0.014552155509591103
291.0,0.0,0.0,0.0,0.0,0.0,0.0,0.0016017000889405608,-0.00336081231944263,0.005584622733294964,0.9998686909675598,0.0026202029548585415,-0.005784967914223671,0.014909378252923489
292.0,0.0,0.0,0.0,0.0,0.0,0.0,0.0007569828885607421,-0.00174267019610852,0.0033341601956635714,0.9998559951782227,0.003521868260577321,-0.005497472360730171,0.01566351018846035
293.0,0.0,0.0,0.0,0.0,0.0,0.0,0.005096781067550182,-0.001786590088158846,-0.0057204775512218475,0.999856173992157,0.004238063469529152,-0.0049783517606556416,0.015650149434804916
294.0,0.0,0.0,0.0,0.0,0.0,0.0,0.0008883352857083082,-0.003182036569342017,-0.00749317416921258,0.9998604655265808,0.004985546227544546,-0.004555570427328348,0.0152790118008852
295.0,0.0,0.0,0.0,0.0,0.0,0.0,-0.005043568089604378,-0.0024946308694779873,-0.0036531458608806133,0.9998607635498047,0.005700204987078905,-0.004227838013321161,0.015101771801710129
296.0,0.0,0.0,0.0,0.0,0.0,0.0,-0.0021391664631664753,-0.002223249990493059,-0.009573245421051979,0.999861478805542,0.006298810243606567,-0.003999887499958277,0.014876587316393852
297.0,0.0,0.0,0.0,0.0,0.0,0.0,-0.002630507340654731,-0.0023965376894921064,-0.00894305482506752,0.9998589754104614,0.0069266133941709995,-0.0036996048875153065,0.01484768558293581
298.0,0.0,0.0,0.0,0.0,0.0,0.0,-0.004837740212678909,-0.0018762066029012203,-0.006958460435271263,0.9998630285263062,0.0075125559233129025,-0.0035643347073346376,0.014311875216662884
299.0,0.0,0.0,0.0,0.0,0.0,0.0,-0.003723880974575877,-0.002344626933336258,-0.008147756569087505,0.9998676180839539,0.007791447453200817,-0.003538156161084771,0.013837594538927078
300.0,0.0,0.0,0.0,0.0,0.0,0.0,-0.0036514403764158487,-0.00188267114572227,-0.003126660594716668,0.9998721480369568,0.007623959332704544,-0.00428478978574276,0.01338750310242176
301.0,0.0,0.0,0.0,0.0,0.0,0.0,-0.0029049282893538475,-0.002134607871994376,-0.001388427335768938,0.9998717308044434,0.007201339118182659,-0.005322211422026157,0.013280092738568783
302.0,0.0,0.0,0.0,0.0,0.0,0.0,0.0004542236856650561,-0.0035009777639061213,0.00084715272532776,0.9998687505722046,0.007123587653040886,-0.006525133270770311,0.01300792396068573
303.0,0.0,0.0,0.0,0.0,0.0,0.0,0.00024741594097577035,-0.00826951302587986,-0.004015840590000153,0.9998673796653748,0.006929800380021334,-0.007600345648825169,0.012628578580915928
304.0,0.0,0.0,0.0,0.0,0.0,0.0,-0.0010852146660909057,-0.007156087085604668,0.00472246902063489,0.9998708963394165,0.006103718187659979,-0.008372878655791283,0.012276259250938892
305.0,0.0,0.0,0.0,0.0,0.0,0.0,-0.002108596032485366,-0.007502161432057619,0.008331766352057457,0.9998824000358582,0.004829335957765579,-0.008985310792922974,0.011445239186286926
306.0,0.0,0.0,0.0,0.0,0.0,0.0,-0.0030841322150081396,-0.006679592654109001,0.01941896788775921,0.999906063079834,0.0037873818073421717,-0.00892705749720335,0.009683969430625439
307.0,0.0,0.0,0.0,0.0,0.0,0.0,-0.006693873554468155,-0.008926436305046082,0.016592953354120255,0.9999347925186157,0.003037605434656143,-0.00806279107928276,0.0074925608932971954
308.0,0.0,0.0,0.0,0.0,0.0,0.0,-0.006802275776863098,-0.008515939116477966,0.010425894521176815,0.999955952167511,0.0021744712721556425,-0.007051731925457716,0.0057976869866251945
309.0,0.0,0.0,0.0,0.0,0.0,0.0,-0.0067588952369987965,-0.006379447411745787,0.009922928176820278,0.9999738931655884,0.0015030326321721077,-0.005649234633892775,0.00424521928653121
310.0,0.0,0.0,0.0,0.0,0.0,0.0,-0.0067483424209058285,-0.0033301841467618942,0.011982658877968788,0.9999834895133972,0.0018038165289908648,-0.004165048711001873,0.003519758814945817
311.0,0.0,0.0,0.0,0.0,0.0,0.0,-0.009229338727891445,-0.0006629408453591168,0.016085928305983543,0.9999867081642151,0.002922584069892764,-0.0025067555252462626,0.00342599768191576
312.0,0.0,0.0,0.0,0.0,0.0,0.0,-0.008774179965257645,-0.00161018839571625,0.00678285351023078,0.9999829530715942,0.004402630031108856,-0.0009609164553694427,0.0037097311578691006
313.0,0.0,0.0,0.0,0.0,0.0,0.0,0.000976590090431273,0.0033948970958590508,-0.0114212017506361,0.9999752044677734,0.005337794777005911,0.00012681678344961256,0.004589053802192211
314.0,0.0,0.0,0.0,0.0,0.0,0.0,0.007445814087986946,0.009127291850745678,-0.014937336556613445,0.9999624490737915,0.006283785682171583,0.0006934456760063767,0.005924883298575878
315.0,0.0,0.0,0.0,0.0,0.0,0.0,0.014996994286775589,0.011818432249128819,-0.018853699788451195,0.9999468326568604,0.007082873489707708,0.0007075961329974234,0.007462089415639639
316.0,0.0,0.0,0.0,0.0,0.0,0.0,0.014543783850967884,0.013647191226482391,-0.014362604357302189,0.9999276399612427,0.008018511347472668,0.0007807394140399992,0.008933190256357193
317.0,0.0,0.0,0.0,0.0,0.0,0.0,0.013214841485023499,0.01235888246446848,-0.01566283032298088,0.9999120831489563,0.008686238899827003,0.001137016573920846,0.009952202439308167
318.0,0.0,0.0,0.0,0.0,0.0,0.0,0.010229522362351418,0.010065283626317978,-0.012796140275895596,0.9998990893363953,0.0089136166498065,0.0014267797814682126,0.010969963856041431
319.0,0.0,0.0,0.0,0.0,0.0,0.0,0.008398349396884441,0.008471008390188217,-0.007692008279263973,0.99988853931427,0.00885696616023779,0.0013429373502731323,0.011943860910832882
320.0,0.0,0.0,0.0,0.0,0.0,0.0,0.0017857744824141264,0.005261142272502184,-0.0024707333650439978,0.9998883008956909,0.008826938457787037,0.001074195490218699,0.01201125979423523
321.0,0.0,0.0,0.0,0.0,0.0,0.0,-0.0022769677452743053,0.005038064438849688,-0.008667715825140476,0.9998798370361328,0.009229226037859917,0.0010684842709451914,0.012408946640789509
322.0,0.0,0.0,0.0,0.0,0.0,0.0,-0.0029472270980477333,0.0047504655085504055,-0.007744163740426302,0.9998737573623657,0.009014151059091091,0.0006948535447008908,0.013061667792499065
323.0,0.0,0.0,0.0,0.0,0.0,0.0,-0.003982528578490019,0.0055139451287686825,-0.009753688238561153,0.9998749494552612,0.008380809798836708,0.00040540777263231575,0.013404318131506443
324.0,0.0,0.0,0.0,0.0,0.0,0.0,0.0013404128840193152,0.006471348460763693,-0.007440804038196802,0.9998763203620911,0.007847456261515617,5.136315303388983e-05,0.013627313077449799
325.0,0.0,0.0,0.0,0.0,0.0,0.0,0.003907354082912207,0.006347516551613808,0.018631957471370697,0.9998779296875,0.007409207988530397,-0.00040711770998314023,0.013751080259680748
326.0,0.0,0.0,0.0,0.0,0.0,0.0,-0.0024482756853103638,0.003335453337058425,-0.0067277210764586926,0.9998751878738403,0.007253432646393776,-0.000538781750947237,0.014024532400071621
327.0,0.0,0.0,0.0,0.0,0.0,0.0,0.0014503509737551212,0.0018437955295667052,0.005158211570233107,0.9998733401298523,0.006440990604460239,-0.0014416472986340523,0.014482129365205765
328.0,0.0,0.0,0.0,0.0,0.0,0.0,0.0012814567890018225,-0.000906938745174557,0.010789797641336918,0.999879777431488,0.006146726664155722,-0.002250696299597621,0.014055504463613033
329.0,0.0,0.0,0.0,0.0,0.0,0.0,-0.0002687837986741215,-0.004514359403401613,-0.0013946181861683726,0.9998915195465088,0.005857961717993021,-0.0025215507484972477,0.013279099948704243
330.0,0.0,0.0,0.0,0.0,0.0,0.0,-0.0051336572505533695,-0.007904625497758389,-0.0021771446336060762,0.9999053478240967,0.005305339582264423,-0.0026833878364413977,0.012404284439980984
331.0,0.0,0.0,0.0,0.0,0.0,0.0,-0.007050805725157261,-0.0049654399044811726,-0.023962654173374176,0.9999149441719055,0.004579752683639526,-0.003230620874091983,0.011770659126341343
332.0,0.0,0.0,0.0,0.0,0.0,0.0,-0.006032341625541449,-0.0045409733429551125,0.03725963458418846,0.9999185800552368,0.004590085241943598,-0.0033495386596769094,0.011423986405134201
333.0,0.0,0.0,0.0,0.0,0.0,0.0,-0.014987067319452763,-0.00865111779421568,0.02457398734986782,0.999925434589386,0.004947981331497431,-0.0029050151351839304,0.010778109543025494
334.0,0.0,0.0,0.0,0.0,0.0,0.0,-0.003728250041604042,-0.004996525589376688,-0.021150017157197,0.9999244213104248,0.005046346690505743,-0.0027603174094110727,0.010863007977604866
335.0,0.0,0.0,0.0,0.0,0.0,0.0,-0.0014944259310141206,-0.0008484588470309973,0.006524993106722832,0.9999191164970398,0.005360784940421581,-0.0028479285538196564,0.011173464357852936
336.0,0.0,0.0,0.0,0.0,0.0,0.0,0.0011022384278476238,0.004265042953193188,0.005499365273863077,0.9999175071716309,0.005468406714498997,-0.0027861562557518482,0.01128300279378891
337.0,0.0,0.0,0.0,0.0,0.0,0.0,0.00434075715020299,0.004615916404873133,0.006196647882461548,0.9999091029167175,0.005806843284517527,-0.002569277072325349,0.011896823532879353
338.0,0.0,0.0,0.0,0.0,0.0,0.0,0.008994030766189098,0.005961940158158541,-0.002909861272200942,0.9998975396156311,0.0061774905771017075,-0.002547429408878088,0.012653728947043419
339.0,0.0,0.0,0.0,0.0,0.0,0.0,0.010937966406345367,0.00769531074911356,0.002721399301663041,0.9998785257339478,0.006377540994435549,-0.003102608025074005,0.013876785524189472
340.0,0.0,0.0,0.0,0.0,0.0,0.0,0.009875889867544174,0.008498103357851505,-0.00041412707651034,0.9998682141304016,0.006630654912441969,-0.003467659233137965,0.014407027512788773
341.0,0.0,0.0,0.0,0.0,0.0,0.0,0.010031401179730892,0.00911399070173502,-0.00016493031580466777,0.9998685717582703,0.006442664656788111,-0.0034992070868611336,0.014458495192229748
342.0,0.0,0.0,0.0,0.0,0.0,0.0,0.00943004060536623,0.008380892686545849,-0.01619764044880867,0.9998708963394165,0.006595605984330177,-0.003589186817407608,0.014206567779183388
343.0,0.0,0.0,0.0,0.0,0.0,0.0,0.005507781635969877,0.008087250404059887,-0.011527180671691895,0.9998725652694702,0.006488661747425795,-0.003909156657755375,0.014052529819309711
344.0,0.0,0.0,0.0,0.0,0.0,0.0,0.004247545730322599,0.006362617947161198,0.01760374754667282,0.9998792409896851,0.0063699777238070965,-0.00403614854440093,0.01358785293996334
345.0,0.0,0.0,0.0,0.0,0.0,0.0,-0.007357822731137276,-0.0008133520022965968,-0.001572015113197267,0.9998831748962402,0.006653146352618933,-0.003667512210085988,0.013260609470307827
346.0,0.0,0.0,0.0,0.0,0.0,0.0,0.0004385342763271183,-0.0018984912894666195,-0.007347038481384516,0.9998809695243835,0.007067881058901548,-0.0033035012893378735,0.013307327404618263
347.0,0.0,0.0,0.0,0.0,0.0,0.0,-0.0034956547897309065,-0.003160105086863041,0.004045911133289337,0.9998796582221985,0.006905458401888609,-0.0029946262948215008,0.013564035296440125
348.0,0.0,0.0,0.0,0.0,0.0,0.0,-0.0008324247319251299,-0.0035065424162894487,0.006615337450057268,0.9998785853385925,0.006481025833636522,-0.002793823601678014,0.013894973322749138
349.0,0.0,0.0,0.0,0.0,0.0,0.0,0.006574603263288736,0.0013005650835111737,0.005011508706957102,0.9998668432235718,0.006343190558254719,-0.002546418458223343,0.014819185249507427
350.0,0.0,0.0,0.0,0.0,0.0,0.0,0.008323741145431995,0.0011170640354976058,0.00042133385431952775,0.9998553395271301,0.006721587385982275,-0.0024870438501238823,0.015421940013766289
351.0,0.0,0.0,0.0,0.0,0.0,0.0,0.00983381923288107,0.0013366884086281061,-0.004539860412478447,0.9998520016670227,0.007170754484832287,-0.0024640453048050404,0.015439902432262897
352.0,0.0,0.0,0.0,0.0,0.0,0.0,0.008381073363125324,0.0013437274610623717,-0.00861341506242752,0.9998506903648376,0.007308145985007286,-0.0026450769510120153,0.01543477177619934
353.0,0.0,0.0,0.0,0.0,0.0,0.0,0.00311955064535141,-0.0006949134985916317,-0.012879999354481697,0.9998535513877869,0.007589440792798996,-0.002743561752140522,0.01509012933820486
354.0,0.0,0.0,0.0,0.0,0.0,0.0,-0.0014543398283421993,-0.0016410169191658497,-0.010501435026526451,0.9998651146888733,0.0074460445903241634,-0.0024513723328709602,0.0144328773021698
355.0,0.0,0.0,0.0,0.0,0.0,0.0,-0.0038672657683491707,-0.0018030370119959116,-0.004368118941783905,0.999866247177124,0.007416904903948307,-0.002443613950163126,0.014369538053870201
356.0,0.0,0.0,0.0,0.0,0.0,0.0,-0.006309961434453726,-0.002538633532822132,-0.00048221214092336595,0.9998689889907837,0.00722919637337327,-0.002520159585401416,0.01426208671182394
357.0,0.0,0.0,0.0,0.0,0.0,0.0,-0.0020112565252929926,-0.0024206205271184444,0.0014249803498387337,0.9998756647109985,0.0071690939366817474,-0.002538838656619191,0.013811687007546425
358.0,0.0,0.0,0.0,0.0,0.0,0.0,-0.0016994475154206157,-0.004328350070863962,-0.0025100773200392723,0.999883770942688,0.006718270946294069,-0.002614851575344801,0.01342899352312088
359.0,0.0,0.0,0.0,0.0,0.0,0.0,-0.0017389525892212987,-0.003624250181019306,0.0015322257531806827,0.9998855590820312,0.006382977124303579,-0.0027193869464099407,0.01344123762100935
360.0,0.0,0.0,0.0,0.0,0.0,0.0,-0.0024653414729982615,0.0017986515304073691,0.004063250496983528,0.999877393245697,0.006178008858114481,-0.0026581608690321445,0.0141401756554842
361.0,0.0,0.0,0.0,0.0,0.0,0.0,-0.0036957741249352694,0.001277139992453158,0.006296955049037933,0.9998759031295776,0.005566648673266172,-0.0031428385991603136,0.014395399950444698
362.0,0.0,0.0,0.0,0.0,0.0,0.0,-0.005461714696139097,0.0037278581876307726,0.016214769333600998,0.999876081943512,0.005167320370674133,-0.003503228537738323,0.014451395720243454
363.0,0.0,0.0,0.0,0.0,0.0,0.0,-0.0053050885908305645,0.002041132654994726,-0.003456323640421033,0.999871551990509,0.005293228663504124,-0.0038502109237015247,0.014626993797719479
364.0,0.0,0.0,0.0,0.0,0.0,0.0,-0.0033065478783100843,0.002448472660034895,-0.01156677771359682,0.9998645186424255,0.005472466815263033,-0.004224726930260658,0.014939668588340282
365.0,0.0,0.0,0.0,0.0,0.0,0.0,-0.0021860760170966387,0.007440509274601936,0.0015697135822847486,0.9998587965965271,0.0053852759301662445,-0.004793025087565184,0.015176437795162201
366.0,0.0,0.0,0.0,0.0,0.0,0.0,0.001198016107082367,0.008618956431746483,0.019997430965304375,0.9998553395271301,0.005336572881788015,-0.004965309984982014,0.01536851841956377
367.0,0.0,0.0,0.0,0.0,0.0,0.0,-0.0014446824789047241,0.00444612093269825,0.013361968100070953,0.9998465776443481,0.005754952318966389,-0.00471153762191534,0.0158600565046072
368.0,0.0,0.0,0.0,0.0,0.0,0.0,0.003437500447034836,0.004403705708682537,0.017318731173872948,0.9998412132263184,0.006181568838655949,-0.004291906952857971,0.016155244782567024
369.0,0.0,0.0,0.0,0.0,0.0,0.0,0.0033608151134103537,0.0028338530100882053,0.007182853762060404,0.9998446702957153,0.006818046327680349,-0.003637040965259075,0.0158370453864336
370.0,0.0,0.0,0.0,0.0,0.0,0.0,0.0006406048196367919,-0.0011004124535247684,-0.0033505901228636503,0.9998458623886108,0.007300018332898617,-0.0029795169830322266,0.015684422105550766
371.0,0.0,0.0,0.0,0.0,0.0,0.0,0.000720637384802103,-0.0027606640942394733,-0.013901113532483578,0.9998447299003601,0.008026649244129658,-0.0025020106695592403,0.015485160052776337
372.0,0.0,0.0,0.0,0.0,0.0,0.0,0.002168497070670128,-0.003162151435390115,-0.015833601355552673,0.999848484992981,0.008594291284680367,-0.0022228488232940435,0.014970138669013977
373.0,0.0,0.0,0.0,0.0,0.0,0.0,-0.0026576535310596228,-0.006649443879723549,-0.009154625236988068,0.9998583197593689,0.008609072305262089,-0.0017310600960627198,0.014362907968461514
374.0,0.0,0.0,0.0,0.0,0.0,0.0,-0.0010964547982439399,-0.0049864668399095535,-0.007932206615805626,0.9998599886894226,0.008713816292583942,-0.0015053057577461004,0.014208420179784298
375.0,0.0,0.0,0.0,0.0,0.0,0.0,-0.008770573884248734,-0.006193186156451702,-0.0008577478583902121,0.9998640418052673,0.009019110351800919,-0.0010902322828769684,0.013761749491095543
376.0,0.0,0.0,0.0,0.0,0.0,0.0,-0.010300937108695507,-0.0060890051536262035,0.0038302848115563393,0.9998733401298523,0.009218970313668251,-0.0003070918028242886,0.01296673808246851
377.0,0.0,0.0,0.0,0.0,0.0,0.0,-0.00581469526514411,-0.0023681765887886286,0.006506357807666063,0.9998659491539001,0.009693095460534096,0.00018199528858531266,0.01319244597107172
378.0,0.0,0.0,0.0,0.0,0.0,0.0,-0.003503910033032298,-0.0023183913435786963,-0.006807480473071337,0.9998522400856018,0.010337181389331818,0.0003263658727519214,0.013729444704949856
379.0,0.0,0.0,0.0,0.0,0.0,0.0,0.00082294741878286,-0.0013293164083734155,-0.01621149852871895,0.9998440742492676,0.010512205772101879,0.00016957941988948733,0.014185364358127117
380.0,0.0,0.0,0.0,0.0,0.0,0.0,0.0028968031983822584,0.0005157709238119423,-0.018633393570780754,0.9998398423194885,0.010332124307751656,5.614137262455188e-05,0.014612032100558281
381.0,0.0,0.0,0.0,0.0,0.0,0.0,-0.0002106273896060884,0.002360729966312647,-0.013461778871715069,0.9998258948326111,0.010131682269275188,-0.0004156499926466495,0.015659745782613754
382.0,0.0,0.0,0.0,0.0,0.0,0.0,-0.001512488815933466,0.0038037695921957493,-0.0062238979153335094,0.9998281002044678,0.009213441051542759,-0.001152524841018021,0.016045833006501198
383.0,0.0,0.0,0.0,0.0,0.0,0.0,-0.0010795957641676068,0.0028815276455134153,0.0001857458264566958,0.9998258948326111,0.008376232348382473,-0.0017933797789737582,0.016575440764427185
384.0,0.0,0.0,0.0,0.0,0.0,0.0,-0.0009791385382413864,0.0008193445974029601,-0.00020518667588476092,0.9998299479484558,0.007374927867203951,-0.0024651093408465385,0.016720693558454514
385.0,0.0,0.0,0.0,0.0,0.0,0.0,-1.9959190467488952e-05,-0.0008635831763967872,0.004912281408905983,0.9998406171798706,0.006021278910338879,-0.003177893115207553,0.01650165393948555
386.0,0.0,0.0,0.0,0.0,0.0,0.0,0.0003451340307947248,-0.0012469026260077953,0.008914506994187832,0.9998462200164795,0.0051627433858811855,-0.00329127861186862,0.01643519289791584
387.0,0.0,0.0,0.0,0.0,0.0,0.0,-0.0027792146429419518,-0.0037437162827700377,0.016982978209853172,0.9998573064804077,0.004639888182282448,-0.0033671879209578037,0.015888167545199394
388.0,0.0,0.0,0.0,0.0,0.0,0.0,-0.00259777856990695,-0.0036404812708497047,0.011699635535478592,0.9998771548271179,0.00365921831689775,-0.0030648251995444298,0.014924580231308937
389.0,0.0,0.0,0.0,0.0,0.0,0.0,-0.012751278467476368,-0.0024565295316278934,0.02103753574192524,0.9998942613601685,0.0029854646418243647,-0.0021236413158476353,0.014070862904191017
390.0,0.0,0.0,0.0,0.0,0.0,0.0,-0.00566645385697484,-0.0035467520356178284,0.016863247379660606,0.9999026656150818,0.0026916067581623793,-0.001484580454416573,0.0136104142293334
391.0,0.0,0.0,0.0,0.0,0.0,0.0,-0.008061357773840427,-0.0056589627638459206,-0.011889718472957611,0.9999079704284668,0.0026427796110510826,-0.0006182072102092206,0.013292672112584114
392.0,0.0,0.0,0.0,0.0,0.0,0.0,-0.00953513290733099,-0.005475050304085016,-0.010941131971776485,0.9999086260795593,0.00281253969296813,0.00015838294348213822,0.013217924162745476
393.0,0.0,0.0,0.0,0.0,0.0,0.0,-0.01028954517096281,-0.0007749065989628434,-0.004568185191601515,0.999907374382019,0.0026222935412079096,0.0007124682306312025,0.013333109207451344
394.0,0.0,0.0,0.0,0.0,0.0,0.0,-0.00462102796882391,0.0049920459277927876,0.001154675497673452,0.9998999834060669,0.003064087824895978,0.0012417817488312721,0.013742703944444656
395.0,0.0,0.0,0.0,0.0,0.0,0.0,-0.0010227879974991083,0.005551272537559271,-0.004858828149735928,0.9998883008956909,0.0035810647532343864,0.0013438845053315163,0.014446809887886047
396.0,0.0,0.0,0.0,0.0,0.0,0.0,0.0016536025796085596,0.007548550609499216,-0.008949024602770805,0.9998843669891357,0.0036106626503169537,0.0012808283790946007,0.014719061553478241
397.0,0.0,0.0,0.0,0.0,0.0,0.0,0.004547822289168835,0.006469579879194498,0.004147074185311794,0.9998900294303894,0.003909354563802481,0.001065434655174613,0.01426287367939949
398.0,0.0,0.0,0.0,0.0,0.0,0.0,0.006707577500492334,0.006019033957272768,0.0012004615273326635,0.9998934268951416,0.004580262117087841,0.0010891150450333953,0.013818676583468914
399.0,0.0,0.0,0.0,0.0,0.0,0.0,0.00837409682571888,0.005873661022633314,-0.010402113199234009,0.9998980164527893,0.004942463710904121,0.0005670100799761713,0.01338494848459959
400.0,0.0,0.0,0.0,0.0,0.0,0.0,-0.0011155966203659773,0.0002432164765195921,-0.008422712795436382,0.9999015927314758,0.005331639666110277,0.0002306075330125168,0.012967389076948166
401.0,0.0,0.0,0.0,0.0,0.0,0.0,-0.003278841730207205,-0.0005775275640189648,-0.002067992929369211,0.9999035596847534,0.0057369740679860115,0.0006129403482191265,0.012629430741071701
402.0,0.0,0.0,0.0,0.0,0.0,0.0,-0.005693092010915279,-0.0015915990807116032,0.0062411450780928135,0.9999032616615295,0.005857233423739672,0.0008725389488972723,0.012581637129187584
403.0,0.0,0.0,0.0,0.0,0.0,0.0,-0.004254297818988562,-0.005078891757875681,0.010637359693646431,0.9998981952667236,0.005929074250161648,0.0010100520448759198,0.012938058003783226
404.0,0.0,0.0,0.0,0.0,0.0,0.0,0.005009736865758896,-0.001266906620003283,0.011294728145003319,0.9998950958251953,0.006194842513650656,0.0006080169114284217,0.013074740767478943
405.0,0.0,0.0,0.0,0.0,0.0,0.0,0.00925194751471281,0.0023949332535266876,0.0028854799456894398,0.9999036192893982,0.006072504911571741,0.00031446811044588685,0.012485507875680923
406.0,0.0,0.0,0.0,0.0,0.0,0.0,0.005249425303190947,-0.0009130502003245056,-0.008452842943370342,0.9999086856842041,0.006188836880028248,1.4302582712844014e-05,0.012012000195682049
407.0,0.0,0.0,0.0,0.0,0.0,0.0,0.007048598490655422,-0.0037490096874535084,-0.026175305247306824,0.9999183416366577,0.005689159967005253,-0.0003795375523623079,0.011439274996519089
408.0,0.0,0.0,0.0,0.0,0.0,0.0,0.006265216041356325,-0.00629553385078907,-0.0189752746373415,0.9999223947525024,0.005074405111372471,-0.0012120453175157309,0.011311040259897709
409.0,0.0,0.0,0.0,0.0,0.0,0.0,0.0013919121120125055,-0.007067942526191473,0.001984032103791833,0.9999158382415771,0.0044731018133461475,-0.001796121709048748,0.012039221823215485
410.0,0.0,0.0,0.0,0.0,0.0,0.0,0.004763017874211073,-0.0011088723549619317,0.015407401137053967,0.9999082684516907,0.003993714228272438,-0.0022022402845323086,0.012755857780575752
411.0,0.0,0.0,0.0,0.0,0.0,0.0,0.0044741141609847546,0.001504880259744823,0.015461154282093048,0.9999016523361206,0.003921754192560911,-0.0027522568125277758,0.013181827031075954
412.0,0.0,0.0,0.0,0.0,0.0,0.0,0.00121632544323802,0.0011387744452804327,0.01508325058966875,0.9998957514762878,0.003916196525096893,-0.002955817384645343,0.0135765066370368
413.0,0.0,0.0,0.0,0.0,0.0,0.0,0.002373879309743643,0.004459539894014597,0.014330007135868073,0.9998909831047058,0.00411671306937933,-0.002730614971369505,0.013912642374634743
414.0,0.0,0.0,0.0,0.0,0.0,0.0,0.005528805311769247,0.006047818344086409,0.00942286103963852,0.9998818635940552,0.004314780235290527,-0.0027508079074323177,0.014486806467175484
415.0,0.0,0.0,0.0,0.0,0.0,0.0,0.0041573988273739815,0.001523754675872624,0.0009445344330742955,0.9998725652694702,0.0042859953828155994,-0.003211465198546648,0.015040149912238121
416.0,0.0,0.0,0.0,0.0,0.0,0.0,0.004761625546962023,0.0028766030445694923,-0.007378970738500357,0.9998666048049927,0.004205790814012289,-0.0035514100454747677,0.015382179990410805
417.0,0.0,0.0,0.0,0.0,0.0,0.0,0.004172251094132662,0.0033385257702320814,-0.007530571892857552,0.9998602867126465,0.004234689753502607,-0.0039241742342710495,0.01568262092769146
418.0,0.0,0.0,0.0,0.0,0.0,0.0,0.0007451464771293104,-0.0005817079218104482,-0.010710475035011768,0.999855101108551,0.004077852703630924,-0.004159253090620041,0.01599469967186451
419.0,0.0,0.0,0.0,0.0,0.0,0.0,0.00021989087690599263,0.002904339227825403,0.001286366954445839,0.9998445510864258,0.0038753782864660025,-0.004444454796612263,0.016612503677606583
420.0,0.0,0.0,0.0,0.0,0.0,0.0,0.002627587178722024,0.0071844980120658875,0.014056961052119732,0.999821662902832,0.004035426303744316,-0.0046854158863425255,0.01784290000796318
421.0,0.0,0.0,0.0,0.0,0.0,0.0,0.003804032690823078,0.004186323378235102,0.00971881952136755,0.9998074769973755,0.004076762590557337,-0.005073908716440201,0.01850881427526474
422.0,0.0,0.0,0.0,0.0,0.0,0.0,0.0038870510179549456,0.0034466704819351435,-0.006968499161303043,0.999799907207489,0.004095539916306734,-0.0055287727154791355,0.018785599619150162
423.0,0.0,0.0,0.0,0.0,0.0,0.0,0.005215607117861509,0.0009364330908283591,-0.004256898537278175,0.9997966289520264,0.0040977285243570805,-0.005577047821134329,0.018944503739476204
424.0,0.0,0.0,0.0,0.0,0.0,0.0,0.0011814734898507595,0.00023598775442223996,-0.0007323590689338744,0.9998111128807068,0.004013717174530029,-0.005343365482985973,0.018251841887831688
425.0,0.0,0.0,0.0,0.0,0.0,0.0,-0.0017627341439947486,-0.0008955695666372776,-0.0014231306267902255,0.9998137354850769,0.004293189849704504,-0.005236240103840828,0.0180740337818861
426.0,0.0,0.0,0.0,0.0,0.0,0.0,-0.0020525932777673006,-0.0011985789751634002,-0.0006066933856345713,0.9998219609260559,0.0040400587022304535,-0.0052680945955216885,0.017662180587649345
427.0,0.0,0.0,0.0,0.0,0.0,0.0,-0.0038214572705328465,-0.0002871415053959936,0.0024549870286136866,0.9998416900634766,0.0035131475888192654,-0.004895525984466076,0.01674182526767254
428.0,0.0,0.0,0.0,0.0,0.0,0.0,-0.010704734362661839,-0.005276149604469538,-0.000407796906074509,0.9998522996902466,0.0031797930132597685,-0.004079495556652546,0.016391601413488388
429.0,0.0,0.0,0.0,0.0,0.0,0.0,-0.009257611818611622,-0.006294457707554102,0.0037925790529698133,0.9998577833175659,0.0027910929638892412,-0.003979687113314867,0.01614120602607727
430.0,0.0,0.0,0.0,0.0,0.0,0.0,-0.008149778470396996,-0.00604849960654974,-0.007093087770044804,0.9998682141304016,0.002215415006503463,-0.003929098602384329,0.015590948052704334
431.0,0.0,0.0,0.0,0.0,0.0,0.0,-0.009618430398404598,-0.003658234840258956,0.0029693010728806257,0.9998868703842163,0.00156710809096694,-0.0036801365204155445,0.014494101516902447
432.0,0.0,0.0,0.0,0.0,0.0,0.0,-0.012220552191138268,-0.004526670090854168,-0.00193286151625216,0.9998946189880371,0.0012978912563994527,-0.003383446019142866,0.01406305655837059
433.0,0.0,0.0,0.0,0.0,0.0,0.0,-0.006006498821079731,-0.003216855926439166,-0.006803043186664581,0.999905526638031,0.0010152829345315695,-0.0032619035337120295,0.013306835666298866
434.0,0.0,0.0,0.0,0.0,0.0,0.0,-0.011744951829314232,-0.003398164175450802,0.002666369080543518,0.9999281764030457,0.0003566646482795477,-0.0028445322532206774,0.011636394076049328
435.0,0.0,0.0,0.0,0.0,0.0,0.0,-0.012997531332075596,-0.0021101064048707485,0.008189646527171135,0.9999428391456604,0.00016938081535045058,-0.002038252307102084,0.01049033459275961
436.0,0.0,0.0,0.0,0.0,0.0,0.0,-0.011076902039349079,-0.002333616139367223,0.009141536429524422,0.9999454021453857,-8.917731611290947e-05,-0.0017838651547208428,0.01029735803604126
437.0,0.0,0.0,0.0,0.0,0.0,0.0,-0.010010414756834507,-0.000989548396319151,0.011507276445627213,0.9999439120292664,-0.000132256347569637,-0.001942795584909618,0.010411101393401623
438.0,0.0,0.0,0.0,0.0,0.0,0.0,-0.007017753552645445,-0.0018184076761826873,0.002828656928613782,0.9999492764472961,0.00017409164865966886,-0.0018869134364649653,0.009890833869576454
439.0,0.0,0.0,0.0,0.0,0.0,0.0,-0.0038402345962822437,-0.001907165627926588,-0.0022402876056730747,0.999956488609314,3.112466947641224e-05,-0.0020626401528716087,0.009098880924284458
440.0,0.0,0.0,0.0,0.0,0.0,0.0,-0.0025475360453128815,0.0003395121602807194,0.0009608109830878675,0.9999553561210632,-0.00012745216372422874,-0.0022889988031238317,0.009160230867564678
441.0,0.0,0.0,0.0,0.0,0.0,0.0,-0.0019063815707340837,0.003336191875860095,0.0013022738276049495,0.999948263168335,0.0001182170890388079,-0.0024639535695314407,0.009867227636277676
442.0,0.0,0.0,0.0,0.0,0.0,0.0,-0.0031029214151203632,0.006676093675196171,0.02016303315758705,0.9999441504478455,0.00033563701435923576,-0.0024625235237181187,0.010267975740134716
443.0,0.0,0.0,0.0,0.0,0.0,0.0,0.001316481619141996,0.008512202650308609,0.03506794571876526,0.9999398589134216,0.0012537863804027438,-0.0025942211505025625,0.010582085698843002
444.0,0.0,0.0,0.0,0.0,0.0,0.0,0.00668551167473197,0.004984688945114613,0.009940491989254951,0.9999315738677979,0.002576044062152505,-0.002757440088316798,0.011072555556893349
445.0,0.0,0.0,0.0,0.0,0.0,0.0,0.00752958795055747,0.0069195921532809734,-0.009419454261660576,0.9999229311943054,0.0037908172234892845,-0.002838541753590107,0.01147591881453991
446.0,0.0,0.0,0.0,0.0,0.0,0.0,0.003938695415854454,0.00556136155501008,-0.011720913462340832,0.9999105930328369,0.005374387372285128,-0.002525762654840946,0.011981777846813202
447.0,0.0,0.0,0.0,0.0,0.0,0.0,0.006692113354802132,0.0035632618237286806,-0.022709082812070847,0.9998831152915955,0.006875220686197281,-0.0027257443871349096,0.013381153345108032
448.0,0.0,0.0,0.0,0.0,0.0,0.0,0.007327405270189047,0.0031464919447898865,-0.02010931633412838,0.9998562335968018,0.007637328468263149,-0.0036404652055352926,0.014688543975353241
449.0,0.0,0.0,0.0,0.0,0.0,0.0,0.0069391727447509766,0.001500363228842616,-0.011035054922103882,0.9998317360877991,0.007842015475034714,-0.00439614150673151,0.015985561534762383
450.0,0.0,0.0,0.0,0.0,0.0,0.0,0.011257513426244259,-0.0004997588694095612,-0.0035184838343411684,0.9998073577880859,0.008026611059904099,-0.004908711649477482,0.017226122319698334
451.0,0.0,0.0,0.0,0.0,0.0,0.0,0.012672528624534607,-0.003245843108743429,-0.012634815648198128,0.9997974634170532,0.007457628846168518,-0.005541058722883463,0.017848381772637367
452.0,0.0,0.0,0.0,0.0,0.0,0.0,0.011633697897195816,-0.0011967510217800736,-0.01601046696305275,0.9997820854187012,0.0064335111528635025,-0.006436269264668226,0.01878323033452034
453.0,0.0,0.0,0.0,0.0,0.0,0.0,0.0035449557472020388,0.0022473789285868406,0.0077018835581839085,0.9997654557228088,0.005830963142216206,-0.007146495394408703,0.019592417404055595
454.0,0.0,0.0,0.0,0.0,0.0,0.0,-0.003962526563555002,0.002772181760519743,0.009989162907004356,0.9997581243515015,0.005311981309205294,-0.007599071599543095,0.01993975229561329
455.0,0.0,0.0,0.0,0.0,0.0,0.0,-0.0073564019985497,0.001181705971248448,0.011877140030264854,0.9997653365135193,0.004311698954552412,-0.007755701895803213,0.019761789590120316
456.0,0.0,0.0,0.0,0.0,0.0,0.0,-0.00848584994673729,-3.792988718487322e-05,0.01642579771578312,0.9997787475585938,0.0034603618551045656,-0.00791167002171278,0.019183244556188583
457.0,0.0,0.0,0.0,0.0,0.0,0.0,-0.0020632410887628794,-0.0005821613012813032,0.0018243523081764579,0.9997847676277161,0.0029600481502711773,-0.008125794120132923,0.018859265372157097
458.0,0.0,0.0,0.0,0.0,0.0,0.0,-0.00117972563020885,-0.002369325840845704,0.002691342029720545,0.9997925758361816,0.0023534114006906748,-0.008217032998800278,0.018487276509404182
459.0,0.0,0.0,0.0,0.0,0.0,0.0,-0.005013864953070879,-0.0036282213404774666,0.0036491407081484795,0.9998118877410889,0.0020487436559051275,-0.00791237037628889,0.01758912019431591
460.0,0.0,0.0,0.0,0.0,0.0,0.0,-0.007755682338029146,-0.003254430368542671,0.006503440905362368,0.9998233318328857,0.001695231068879366,-0.00742710055783391,0.017184825614094734
461.0,0.0,0.0,0.0,0.0,0.0,0.0,-0.009707177989184856,-0.0017033134354278445,0.013653699308633804,0.9998372197151184,0.0014617802808061242,-0.0067660631611943245,0.016663622111082077
462.0,0.0,0.0,0.0,0.0,0.0,0.0,-0.01121990941464901,-0.0035913309548050165,0.010634029284119606,0.9998559355735779,0.0016842926852405071,-0.005758965853601694,0.015874696895480156
463.0,0.0,0.0,0.0,0.0,0.0,0.0,-0.010311687365174294,-0.0036150189116597176,0.00013595045311376452,0.9998747706413269,0.0018458242993801832,-0.004538433160632849,0.015048413537442684
464.0,0.0,0.0,0.0,0.0,0.0,0.0,-0.00843617133796215,-0.003685637842863798,-0.0013840851606801152,0.9998913407325745,0.0019212891347706318,-0.0033738964702934027,0.014220663346350193
465.0,0.0,0.0,0.0,0.0,0.0,0.0,-0.005973515100777149,-0.004060816485434771,0.0017800619825720787,0.9998975396156311,0.002542395843192935,-0.0023260698653757572,0.013892785646021366
466.0,0.0,0.0,0.0,0.0,0.0,0.0,-0.0039415182545781136,-0.0025188650470227003,0.0006453676032833755,0.9998987317085266,0.003801735583692789,-0.0013668560422956944,0.01364743709564209
467.0,0.0,0.0,0.0,0.0,0.0,0.0,-0.004489945713430643,-0.0005231591640040278,-0.006935277953743935,0.9999037384986877,0.004655308555811644,-0.00047167230513878167,0.013060959987342358
468.0,0.0,0.0,0.0,0.0,0.0,0.0,0.0012022037990391254,0.0017993574729189277,-0.00767131894826889,0.9999056458473206,0.005518756806850433,0.00019571576558519155,0.012575092725455761
469.0,0.0,0.0,0.0,0.0,0.0,0.0,0.002462162869051099,0.0012078846339136362,-0.011736880987882614,0.9999085664749146,0.006123785395175219,0.00037606380647048354,0.01204817183315754
470.0,0.0,0.0,0.0,0.0,0.0,0.0,0.003779607592150569,0.002667421707883477,-0.016308274120092392,0.9999081492424011,0.0066541158594191074,0.0002965671301353723,0.011801551096141338
471.0,0.0,0.0,0.0,0.0,0.0,0.0,0.0040529449470341206,0.0026558800600469112,-0.011086489073932171,0.9999074339866638,0.007356202695518732,8.909800089895725e-05,0.011441528797149658
472.0,0.0,0.0,0.0,0.0,0.0,0.0,0.004328457172960043,0.0035705361515283585,-0.00943289790302515,0.9999056458473206,0.00784140732139349,0.00012569368118420243,0.011277756653726101
473.0,0.0,0.0,0.0,0.0,0.0,0.0,0.004702907055616379,0.0014511815970763564,-0.009028567932546139,0.9999005794525146,0.00844546128064394,9.46151849348098e-05,0.011294534429907799
474.0,0.0,0.0,0.0,0.0,0.0,0.0,0.006533482577651739,0.0015689571155235171,0.0006653935997746885,0.9998945593833923,0.009082176722586155,-0.00013345932529773563,0.011329715140163898
475.0,0.0,0.0,0.0,0.0,0.0,0.0,0.002755196997895837,-0.00025925750378519297,-0.0013288706541061401,0.9998898506164551,0.009556906297802925,-0.00033674552105367184,0.011349238455295563
476.0,0.0,0.0,0.0,0.0,0.0,0.0,0.004925520159304142,-0.00013966765254735947,-0.0008963563595898449,0.9998874664306641,0.009616157039999962,-0.0007593585760332644,0.01148226112127304
477.0,0.0,0.0,0.0,0.0,0.0,0.0,0.004589126445353031,-0.0018521655583754182,-0.0046664816327393055,0.9998815655708313,0.00956516619771719,-0.0012300851522013545,0.011989857070147991
478.0,0.0,0.0,0.0,0.0,0.0,0.0,0.005297079216688871,-0.001769392634741962,-0.008061191067099571,0.9998858571052551,0.009005358442664146,-0.0016204332932829857,0.01202437561005354
479.0,0.0,0.0,0.0,0.0,0.0,0.0,0.00573712820187211,-0.001849834923632443,-0.0028191518504172564,0.9998912215232849,0.008549326099455357,-0.00213404162786901,0.011829032562673092
480.0,0.0,0.0,0.0,0.0,0.0,0.0,0.007130562327802181,-0.002047956455498934,0.003179493360221386,0.9998902678489685,0.00845178123563528,-0.002459172159433365,0.011911292560398579
481.0,0.0,0.0,0.0,0.0,0.0,0.0,0.004962111823260784,-0.0032412626314908266,0.005241551902145147,0.9998874664306641,0.008183902129530907,-0.0027519743889570236,0.012263065204024315
482.0,0.0,0.0,0.0,0.0,0.0,0.0,0.003913533873856068,-0.0027316142804920673,0.006707693915814161,0.9998801946640015,0.0076971109956502914,-0.0033078487031161785,0.013012058101594448
483.0,0.0,0.0,0.0,0.0,0.0,0.0,-0.0023300352040678263,-0.0038818614557385445,0.017142444849014282,0.9998863339424133,0.007247676141560078,-0.0030640868935734034,0.012853885069489479
484.0,0.0,0.0,0.0,0.0,0.0,0.0,0.0030300403013825417,-0.003990514669567347,0.009266262874007225,0.9998975992202759,0.00683257170021534,-0.002290370175614953,0.012362085282802582
485.0,0.0,0.0,0.0,0.0,0.0,0.0,0.0017872373573482037,-0.004625416826456785,-5.875769056729041e-05,0.999903678894043,0.006502192001789808,-0.0020781324710696936,0.012086041271686554
486.0,0.0,0.0,0.0,0.0,0.0,0.0,-0.005215739831328392,-0.004642350133508444,-0.005897305440157652,0.9999063014984131,0.0062912143766880035,-0.002017224207520485,0.01198959443718195
487.0,0.0,0.0,0.0,0.0,0.0,0.0,-0.002368588699027896,-0.0024872729554772377,-0.007058547809720039,0.9999009370803833,0.006002429872751236,-0.0023779121693223715,0.012509815394878387
488.0,0.0,0.0,0.0,0.0,0.0,0.0,-0.007028868887573481,-0.0009386957972310483,0.001538933371193707,0.9999035596847534,0.005506155546754599,-0.0027565411292016506,0.012450288981199265
489.0,0.0,0.0,0.0,0.0,0.0,0.0,-0.00845535658299923,-0.0007841701153665781,0.0076278382912278175,0.9999011158943176,0.00543922558426857,-0.002850442426279187,0.012648399919271469
490.0,0.0,0.0,0.0,0.0,0.0,0.0,0.001960994675755501,0.0008354883175343275,-0.010374050587415695,0.9998922944068909,0.00594941433519125,-0.0031699833925813437,0.013033994473516941
491.0,0.0,0.0,0.0,0.0,0.0,0.0,0.0016360668232664466,0.001470873481594026,0.008805664256215096,0.999883234500885,0.006365188397467136,-0.003178193001076579,0.013522014021873474
492.0,0.0,0.0,0.0,0.0,0.0,0.0,0.007978839799761772,0.00275114132091403,0.018623773008584976,0.9998692870140076,0.006777238566428423,-0.0036678132601082325,0.014208288863301277
493.0,0.0,0.0,0.0,0.0,0.0,0.0,0.006557834334671497,0.004546572919934988,0.01477320957928896,0.9998622536659241,0.00741281034424901,-0.003889277810230851,0.014331947080790997
494.0,0.0,0.0,0.0,0.0,0.0,0.0,0.004009331110864878,0.0025541335344314575,-0.00417588884010911,0.9998507499694824,0.00806481670588255,-0.004222973715513945,0.014677624218165874
495.0,0.0,0.0,0.0,0.0,0.0,0.0,0.003577470313757658,0.00033453720971010625,-0.008297229185700417,0.9998399019241333,0.008472958579659462,-0.004414388444274664,0.015126866288483143
496.0,0.0,0.0,0.0,0.0,0.0,0.0,0.004450283944606781,0.0003226134576834738,-0.009065230377018452,0.9998310804367065,0.00919385626912117,-0.004454717971384525,0.015273002907633781
497.0,0.0,0.0,0.0,0.0,0.0,0.0,0.0037742527201771736,0.0006596418097615242,-0.008982758969068527,0.9998243451118469,0.00934851448982954,-0.004752550274133682,0.015531044453382492
498.0,0.0,0.0,0.0,0.0,0.0,0.0,-0.0011647139908745885,0.0007830068352632225,-0.00651673274114728,0.9998171329498291,0.009004325605928898,-0.005150105804204941,0.01606644131243229
499.0,0.0,0.0,0.0,0.0,0.0,0.0,0.0028228536248207092,0.004752026870846748,0.0008329353295266628,0.9998059272766113,0.008883713744580746,-0.005154832266271114,0.01681099273264408
500.0,0.0,0.0,0.0,0.0,0.0,0.0,0.0006149057298898697,0.004370434209704399,0.0012662039371207356,0.9998002052307129,0.008733419701457024,-0.005084898788481951,0.017242511734366417
501.0,0.0,0.0,0.0,0.0,0.0,0.0,-0.004532970488071442,0.00369980838149786,0.004777149762958288,0.9997937083244324,0.00890248455107212,-0.004962506238371134,0.017568092793226242
502.0,0.0,0.0,0.0,0.0,0.0,0.0,0.0003481611784081906,0.001675258856266737,0.001217152108438313,0.9997725486755371,0.00961170345544815,-0.0050210957415401936,0.018362216651439667
503.0,0.0,0.0,0.0,0.0,0.0,0.0,-0.001089744851924479,-0.0007054404704831541,-0.00048471256741322577,0.9997716546058655,0.009564042091369629,-0.005006382707506418,0.018440477550029755
504.0,0.0,0.0,0.0,0.0,0.0,0.0,-0.0032767534721642733,-0.001982108922675252,0.0004349773225840181,0.9997837543487549,0.009596598334610462,-0.004655966069549322,0.017851706594228745
505.0,0.0,0.0,0.0,0.0,0.0,0.0,-0.006022598594427109,-0.0067753903567790985,-0.019589953124523163,0.9997925162315369,0.009424442425370216,-0.0043106661178171635,0.017538197338581085
506.0,0.0,0.0,0.0,0.0,0.0,0.0,-0.004725913982838392,-0.00213390844874084,0.015522883273661137,0.9997935891151428,0.00947494525462389,-0.004079390317201614,0.017503563314676285
507.0,0.0,0.0,0.0,0.0,0.0,0.0,-0.006046176888048649,-0.0035837115719914436,0.011056497693061829,0.9998091459274292,0.009187090210616589,-0.0035160118713974953,0.0168828796595335
508.0,0.0,0.0,0.0,0.0,0.0,0.0,-0.0063632638193666935,-0.0035655596293509007,0.009924296289682388,0.9998207092285156,0.009063596837222576,-0.003002813784405589,0.016352899372577667
509.0,0.0,0.0,0.0,0.0,0.0,0.0,-0.007001196034252644,-0.004278897773474455,0.006117039360105991,0.9998242259025574,0.009091771207749844,-0.0021189656108617783,0.01625862345099449
510.0,0.0,0.0,0.0,0.0,0.0,0.0,-0.005272045731544495,-0.0048670051619410515,0.0019230913603678346,0.9998273253440857,0.009382032789289951,-0.001119689317420125,0.016000688076019287
511.0,0.0,0.0,0.0,0.0,0.0,0.0,-0.004109196364879608,-0.004525165073573589,-0.004382784478366375,0.9998342394828796,0.009620655328035355,-0.00012018896813970059,0.015452402643859386
512.0,0.0,0.0,0.0,0.0,0.0,0.0,-0.0035317172296345234,-0.005656450521200895,-0.010195262730121613,0.9998433589935303,0.009703162126243114,0.0005215409328229725,0.014791009947657585
513.0,0.0,0.0,0.0,0.0,0.0,0.0,-4.1492039599688724e-05,-0.004517540335655212,-0.014628797769546509,0.9998421669006348,0.009809554554522038,0.001040917937643826,0.014775884337723255
514.0,0.0,0.0,0.0,0.0,0.0,0.0,0.002552555873990059,-0.0035630115307867527,-0.008591817691922188,0.999845027923584,0.009532306343317032,0.0012203911319375038,0.014747656881809235
515.0,0.0,0.0,0.0,0.0,0.0,0.0,0.0018557696603238583,-0.003231241600587964,-0.007081658113747835,0.9998481869697571,0.009155016392469406,0.001460220548324287,0.014753933995962143
516.0,0.0,0.0,0.0,0.0,0.0,0.0,0.004306655842810869,-0.004164110869169235,-0.008224358782172203,0.9998418688774109,0.008761047385632992,0.0011257390724495053,0.015435379929840565
517.0,0.0,0.0,0.0,0.0,0.0,0.0,0.0049629514105618,-0.003730167169123888,-0.00353936105966568,0.9998441934585571,0.008323514834046364,0.0008455320494249463,0.015540556982159615
518.0,0.0,0.0,0.0,0.0,0.0,0.0,0.006016126833856106,-0.0027218868490308523,-5.257538941805251e-05,0.9998558759689331,0.007755309343338013,0.00017792325525078923,0.015102664940059185
519.0,0.0,0.0,0.0,0.0,0.0,0.0,0.0078854039311409,-0.0013728688936680555,0.004129551816731691,0.9998553395271301,0.007260043639689684,-0.0007820486789569259,0.015362067148089409
520.0,0.0,0.0,0.0,0.0,0.0,0.0,0.008101560175418854,-0.000554124650079757,-0.005304617341607809,0.9998452663421631,0.006931990850716829,-0.0016080307541415095,0.01608475111424923
521.0,0.0,0.0,0.0,0.0,0.0,0.0,0.011320361867547035,-0.0029572879429906607,0.005416274536401033,0.9998359084129333,0.006516234017908573,-0.0026386009994894266,0.016695402562618256
522.0,0.0,0.0,0.0,0.0,0.0,0.0,0.009489395655691624,-0.0029109183233231306,0.01705268584191799,0.9998301863670349,0.006350989919155836,-0.0036979501601308584,0.016897646710276604
523.0,0.0,0.0,0.0,0.0,0.0,0.0,0.007168860174715519,-0.0026999458204954863,0.015781590715050697,0.9998236894607544,0.00652454886585474,-0.00469281617552042,0.016966132447123528
524.0,0.0,0.0,0.0,0.0,0.0,0.0,0.006524775177240372,-0.0008066028822213411,0.014762897044420242,0.9998235702514648,0.006741714663803577,-0.005140915513038635,0.016762515529990196
525.0,0.0,0.0,0.0,0.0,0.0,0.0,0.005862363148480654,-0.0013044117949903011,0.004183608572930098,0.9998223185539246,0.0069467974826693535,-0.005251649301499128,0.016715683043003082
526.0,0.0,0.0,0.0,0.0,0.0,0.0,0.0026346908416599035,-0.003672708058729768,0.008463777601718903,0.9998083710670471,0.007526608183979988,-0.005038293078541756,0.017353475093841553
527.0,0.0,0.0,0.0,0.0,0.0,0.0,0.0015997932059690356,-0.0021327375434339046,0.0002577169216237962,0.999800443649292,0.007555267307907343,-0.004983981139957905,0.01781073585152626
528.0,0.0,0.0,0.0,0.0,0.0,0.0,0.0033330675214529037,-0.001982300076633692,-0.0006322505651041865,0.9997971653938293,0.00798032060265541,-0.004376445896923542,0.01796853356063366
529.0,0.0,0.0,0.0,0.0,0.0,0.0,-0.0013652101624757051,-0.0036133350804448128,-0.000581361586228013,0.9997959733009338,0.008389738388359547,-0.003581885015591979,0.018018905073404312
530.0,0.0,0.0,0.0,0.0,0.0,0.0,-0.004585714545100927,-0.0020615600515156984,-0.006137724965810776,0.9997973442077637,0.00854691956192255,-0.002785493154078722,0.01801387593150139
531.0,0.0,0.0,0.0,0.0,0.0,0.0,-0.00016168507863767445,0.002104843035340309,-0.007550593465566635,0.9997931122779846,0.008584748953580856,-0.0025800615549087524,0.01825236901640892
532.0,0.0,0.0,0.0,0.0,0.0,0.0,4.193518543615937e-05,0.004714305512607098,-0.008267373777925968,0.9998006820678711,0.008716771379113197,-0.002024667104706168,0.01784716546535492
533.0,0.0,0.0,0.0,0.0,0.0,0.0,-0.002082361141219735,0.003917090594768524,-0.014260035939514637,0.9998085498809814,0.008908049203455448,-0.0013209105236455798,0.017370570451021194
534.0,0.0,0.0,0.0,0.0,0.0,0.0,0.0017271002288907766,0.0013415395515039563,-0.016771523281931877,0.9998192191123962,0.008605137467384338,-0.0010102400556206703,0.01692437194287777
535.0,0.0,0.0,0.0,0.0,0.0,0.0,-0.0020512917544692755,0.00042151910020038486,-0.00545036606490612,0.9998308420181274,0.007998851127922535,-0.0009999203030019999,0.01653238944709301
536.0,0.0,0.0,0.0,0.0,0.0,0.0,-0.0031355193350464106,0.0009145006188191473,-0.002049205359071493,0.9998456239700317,0.007314932998269796,-0.0007530020666308701,0.01595635898411274
537.0,0.0,0.0,0.0,0.0,0.0,0.0,-0.0030641271732747555,-0.00020704181224573404,-0.001295352354645729,0.9998575448989868,0.00715700862929225,-0.00044520391384139657,0.015278713777661324
538.0,0.0,0.0,0.0,0.0,0.0,0.0,-0.008237108588218689,-0.00408098055049777,0.004039074294269085,0.9998697638511658,0.006910855881869793,-0.00014332526188809425,0.014582992531359196
539.0,0.0,0.0,0.0,0.0,0.0,0.0,-0.0042607467621564865,-0.003260035300627351,-7.269960769917816e-05,0.9998766779899597,0.007042120676487684,0.0007878689793869853,0.014017337001860142
540.0,0.0,0.0,0.0,0.0,0.0,0.0,-0.0034825713373720646,-0.0018142069457098842,0.0014001860981807113,0.9998675584793091,0.007646544836461544,0.0011030060704797506,0.014319973066449165
541.0,0.0,0.0,0.0,0.0,0.0,0.0,-0.0034045076463371515,-0.0025239181704819202,-0.003800299484282732,0.9998611211776733,0.007971653714776039,0.0012245505349710584,0.014583338052034378
542.0,0.0,0.0,0.0,0.0,0.0,0.0,-0.004866664297878742,-0.0050256624817848206,-0.020588181912899017,0.9998741149902344,0.007981158792972565,0.0013972203014418483,0.013642792589962482
543.0,0.0,0.0,0.0,0.0,0.0,0.0,-0.013546762987971306,-0.008192097768187523,-0.012874012812972069,0.9998889565467834,0.007310764864087105,0.001856262213550508,0.012857804074883461
544.0,0.0,0.0,0.0,0.0,0.0,0.0,-0.014139673672616482,-0.010099202394485474,-0.014275453053414822,0.9998970031738281,0.006654293276369572,0.0019322327570989728,0.012568473815917969
545.0,0.0,0.0,0.0,0.0,0.0,0.0,-0.00456729531288147,-0.0010232964996248484,-0.007932708598673344,0.99990314245224,0.00581914559006691,0.001550915651023388,0.012545020319521427
546.0,0.0,0.0,0.0,0.0,0.0,0.0,-0.006772417109459639,0.004317754879593849,0.017383283004164696,0.9999088048934937,0.005266028922051191,0.0008481439435854554,0.012407817877829075
547.0,0.0,0.0,0.0,0.0,0.0,0.0,-0.007105005905032158,0.005272226873785257,0.011174803599715233,0.9999117851257324,0.005164311733096838,0.0005143834860064089,0.01221751794219017
548.0,0.0,0.0,0.0,0.0,0.0,0.0,0.00038432571454904974,0.004796186927706003,-0.00038170762127265334,0.9999038577079773,0.004934257362037897,-0.00033168878871947527,0.012948470190167427
549.0,0.0,0.0,0.0,0.0,0.0,0.0,0.0015590619295835495,0.0034788884222507477,0.0031515154987573624,0.9998918175697327,0.005003880709409714,-0.0010355932172387838,0.013791846111416817
550.0,0.0,0.0,0.0,0.0,0.0,0.0,0.0006932195392437279,0.0036444857250899076,0.010622236877679825,0.9998883605003357,0.004939682316035032,-0.001439018757082522,0.014028954319655895
551.0,0.0,0.0,0.0,0.0,0.0,0.0,0.002144551370292902,0.00466025760397315,0.010760471224784851,0.99988853931427,0.00490867393091321,-0.0018729139119386673,0.013973385095596313
552.0,0.0,0.0,0.0,0.0,0.0,0.0,0.002472328022122383,0.0012275021290406585,0.006672950927168131,0.9998924732208252,0.004616518504917622,-0.0019643253181129694,0.013776613399386406
553.0,0.0,0.0,0.0,0.0,0.0,0.0,0.00430483091622591,0.00040888460353016853,0.0007392638362944126,0.9998912811279297,0.004429794382303953,-0.002262611174955964,0.01388037670403719
554.0,0.0,0.0,0.0,0.0,0.0,0.0,0.0060692643746733665,0.0026674389373511076,0.00644727936014533,0.9998908042907715,0.004214287269860506,-0.0026458564680069685,0.013908273540437222
555.0,0.0,0.0,0.0,0.0,0.0,0.0,0.002763746539130807,0.0016920241760089993,0.013535096310079098,0.9999011754989624,0.0035237534902989864,-0.0027252656873315573,0.013339349068701267
556.0,0.0,0.0,0.0,0.0,0.0,0.0,0.003101420821622014,-0.0028410886880010366,-0.012396210804581642,0.9999006390571594,0.0032115490175783634,-0.0026476571802049875,0.013465487398207188
557.0,0.0,0.0,0.0,0.0,0.0,0.0,-0.0036103609018027782,-0.0011032716138288379,-0.0030728981364518404,0.9998926520347595,0.002688105683773756,-0.0025737995747476816,0.014169402420520782
558.0,0.0,0.0,0.0,0.0,0.0,0.0,-0.0026422825176268816,-0.0007523184758611023,0.004463412798941135,0.9998894333839417,0.002203945070505142,-0.0025517530739307404,0.014485477469861507
559.0,0.0,0.0,0.0,0.0,0.0,0.0,-0.004876809660345316,-0.002280066255480051,0.014030128717422485,0.9998947381973267,0.0018951777601614594,-0.0025597906205803156,0.014153177849948406
560.0,0.0,0.0,0.0,0.0,0.0,0.0,-0.00039974009268917143,0.0007927623810246587,0.024306226521730423,0.9999000430107117,0.0018757353536784649,-0.0021617277525365353,0.01384398527443409
561.0,0.0,0.0,0.0,0.0,0.0,0.0,0.007551129441708326,-8.042857371037826e-05,-0.0026577438693493605,0.9999045133590698,0.002039605751633644,-0.0018518621800467372,0.013539804145693779
562.0,0.0,0.0,0.0,0.0,0.0,0.0,0.005470308940857649,-0.0002093397342832759,-0.0162898488342762,0.9999071359634399,0.0019578796345740557,-0.0014869493898004293,0.013404777273535728
563.0,0.0,0.0,0.0,0.0,0.0,0.0,0.00036018204991705716,-0.0010140907252207398,0.006118191406130791,0.9999055862426758,0.0018564107595011592,-0.0016499763587489724,0.013515885919332504
564.0,0.0,0.0,0.0,0.0,0.0,0.0,-0.00151910784188658,-0.0039397720247507095,0.01825808361172676,0.9999057054519653,0.0022963627707213163,-0.0015399879775941372,0.013447439298033714
565.0,0.0,0.0,0.0,0.0,0.0,0.0,-9.007186599774286e-05,-0.003964107017964125,0.005731056444346905,0.9999125599861145,0.0026073306798934937,-0.0014594235690310597,0.012879974208772182
566.0,0.0,0.0,0.0,0.0,0.0,0.0,0.0024558117147535086,-0.005868355743587017,-0.013477517291903496,0.9999184608459473,0.002594109158962965,-0.0017643629107624292,0.01237354427576065
567.0,0.0,0.0,0.0,0.0,0.0,0.0,0.0023779452312737703,-0.004765655845403671,-0.004172642715275288,0.9999188184738159,0.0028592655435204506,-0.001999831525608897,0.012251308187842369
568.0,0.0,0.0,0.0,0.0,0.0,0.0,0.0020214037504047155,-0.0029232529923319817,-0.0005791990552097559,0.9999188780784607,0.0031808156054466963,-0.002201744355261326,0.012134140357375145
569.0,0.0,0.0,0.0,0.0,0.0,0.0,0.0024257232435047626,-0.003066793316975236,-0.0015839925035834312,0.9999139904975891,0.0032613889779895544,-0.00233085616491735,0.012485858984291553
570.0,0.0,0.0,0.0,0.0,0.0,0.0,0.0029021319933235645,-0.00011838443606393412,0.005425192881375551,0.999907374382019,0.0031412318348884583,-0.002785076852887869,0.01293946336954832
571.0,0.0,0.0,0.0,0.0,0.0,0.0,0.0009130661492235959,3.857898263959214e-05,0.007195200305432081,0.9998917579650879,0.003510101465508342,-0.003096211701631546,0.013943720608949661
572.0,0.0,0.0,0.0,0.0,0.0,0.0,0.007522535976022482,0.0016761048464104533,0.001472595613449812,0.9998804926872253,0.0038448625709861517,-0.003741062944754958,0.014493566937744617
573.0,0.0,0.0,0.0,0.0,0.0,0.0,0.0061592767015099525,0.000661397585645318,-0.0012353566708043218,0.9998759031295776,0.0038775315042585135,-0.004114649724215269,0.014700056985020638
574.0,0.0,0.0,0.0,0.0,0.0,0.0,0.0044527011923491955,0.003014039946720004,-0.0015956427669152617,0.9998753666877747,0.004085475113242865,-0.0045987688936293125,0.014537880197167397
575.0,0.0,0.0,0.0,0.0,0.0,0.0,0.0015413332730531693,0.00178021308965981,-0.005438154563307762,0.9998730421066284,0.004246908240020275,-0.004901127424091101,0.014558286406099796
576.0,0.0,0.0,0.0,0.0,0.0,0.0,0.0009961435571312904,0.0002596610866021365,-0.0028832172974944115,0.9998729228973389,0.004380769561976194,-0.005020527169108391,0.014482448808848858
577.0,0.0,0.0,0.0,0.0,0.0,0.0,-0.007841850630939007,0.0004720540309790522,0.01255674660205841,0.9998725056648254,0.004916551057249308,-0.004561194684356451,0.014490816742181778
578.0,0.0,0.0,0.0,0.0,0.0,0.0,-0.009809408336877823,-0.0019524217350408435,0.010610480792820454,0.9998727440834045,0.005591195542365313,-0.0037811510264873505,0.014448964968323708
579.0,0.0,0.0,0.0,0.0,0.0,0.0,-0.007888228632509708,-0.003752687945961952,0.005876980721950531,0.999875545501709,0.006014015059918165,-0.003166309092193842,0.014238339848816395
580.0,0.0,0.0,0.0,0.0,0.0,0.0,-0.0054819220677018166,-0.0033614838030189276,0.0024652048014104366,0.9998708963394165,0.0060880654491484165,-0.0032882315572351217,0.014498623088002205
581.0,0.0,0.0,0.0,0.0,0.0,0.0,-0.005003984551876783,-0.0034834742546081543,-0.00776854669675231,0.9998706579208374,0.0060633509419858456,-0.0035673012025654316,0.01446340512484312
582.0,0.0,0.0,0.0,0.0,0.0,0.0,-0.002150864340364933,-0.0060427552089095116,-0.02000226080417633,0.9998743534088135,0.006211753003299236,-0.003750877222046256,0.014094841666519642
583.0,0.0,0.0,0.0,0.0,0.0,0.0,-0.0008374234894290566,-0.006869642995297909,-0.026423785835504532,0.9998803734779358,0.005888740532100201,-0.003784038359299302,0.01379178836941719
584.0,0.0,0.0,0.0,0.0,0.0,0.0,-0.003871617838740349,-0.005975694861263037,-0.022781921550631523,0.999880850315094,0.004998503718525171,-0.004140391014516354,0.013998741284012794
585.0,0.0,0.0,0.0,0.0,0.0,0.0,-0.006300640292465687,0.002799620386213064,0.007637081667780876,0.9998741745948792,0.004025523085147142,-0.00435515446588397,0.014711231924593449
586.0,0.0,0.0,0.0,0.0,0.0,0.0,-0.00848131813108921,0.008184707723557949,0.03521560877561569,0.999870240688324,0.003634626744315028,-0.004613975994288921,0.014997594058513641
587.0,0.0,0.0,0.0,0.0,0.0,0.0,-0.0050882152281701565,0.005005601327866316,0.03491080924868584,0.9998641014099121,0.003643640084192157,-0.004902449436485767,0.015308845788240433
588.0,0.0,0.0,0.0,0.0,0.0,0.0,0.0024259956553578377,0.00029822223586961627,-0.0005306806997396052,0.9998713731765747,0.0037122834473848343,-0.004918738733977079,0.014810609631240368
589.0,0.0,0.0,0.0,0.0,0.0,0.0,0.002276769606396556,-0.0010446927044540644,-0.020804302766919136,0.9998816847801208,0.004067220259457827,-0.0046853069216012955,0.014072122983634472
590.0,0.0,0.0,0.0,0.0,0.0,0.0,-0.002683852566406131,-0.0015290570445358753,0.01450724620372057,0.9998830556869507,0.004240209702402353,-0.004291138146072626,0.014053985476493835
591.0,0.0,0.0,0.0,0.0,0.0,0.0,-0.00663297763094306,-0.002541131339967251,0.0007258471450768411,0.9998824000358582,0.004236488603055477,-0.004288966301828623,0.014099206775426865
592.0,0.0,0.0,0.0,0.0,0.0,0.0,-0.0024164600763469934,0.0012720724334940314,0.009492519311606884,0.9998818635940552,0.004259525332599878,-0.004179034382104874,0.014169090427458286
593.0,0.0,0.0,0.0,0.0,0.0,0.0,-0.003509215312078595,-0.0010648106690496206,0.002614137949422002,0.999890148639679,0.004690812435001135,-0.0037683346308767796,0.013547930866479874
594.0,0.0,0.0,0.0,0.0,0.0,0.0,-0.0030177272856235504,-0.0017733785789459944,-0.004849020857363939,0.9998873472213745,0.005462020635604858,-0.0032875491306185722,0.013585615903139114
595.0,0.0,0.0,0.0,0.0,0.0,0.0,-0.0028552631847560406,-0.0016492479480803013,-0.01486524660140276,0.9998802542686462,0.005721163935959339,-0.0029889766592532396,0.014060689136385918
596.0,0.0,0.0,0.0,0.0,0.0,0.0,-0.0003569671243894845,0.0004541456582956016,-0.00854297075420618,0.9998834133148193,0.005450032185763121,-0.002758467337116599,0.013994850218296051
597.0,0.0,0.0,0.0,0.0,0.0,0.0,-0.004375660326331854,0.0018911161459982395,-0.002380355494096875,0.9998862743377686,0.00542844133451581,-0.00225269328802824,0.013883211649954319
598.0,0.0,0.0,0.0,0.0,0.0,0.0,-0.003111683065071702,0.0022528059780597687,-0.0007517584599554539,0.9998859167098999,0.005448617972433567,-0.0017882916145026684,0.013971691951155663
599.0,0.0,0.0,0.0,0.0,0.0,0.0,-0.004364464897662401,-0.0006521025788970292,-0.0056383307091891766,0.9998973608016968,0.004712335299700499,-0.001369450706988573,0.013459229841828346
600.0,0.0,0.0,0.0,0.0,0.0,0.0,-0.0047462983056902885,-0.0023223848547786474,-0.006159852724522352,0.9999138712882996,0.0044366586953401566,-0.0006807359750382602,0.012334777042269707
601.0,0.0,0.0,0.0,0.0,0.0,0.0,-0.005880546756088734,-0.003243043553084135,0.000681290403008461,0.9999200701713562,0.004355517216026783,-2.7914315069210716e-05,0.011864696629345417
602.0,0.0,0.0,0.0,0.0,0.0,0.0,-0.00699657155200839,-0.006315326783806086,0.0046870410442352295,0.9999234080314636,0.003850641893222928,0.0003591461281757802,0.011756557039916515
603.0,0.0,0.0,0.0,0.0,0.0,0.0,-0.007232387084513903,-0.0063064671121537685,0.0011496251681819558,0.9999299645423889,0.003519276389852166,0.0005893773632124066,0.011284194886684418
604.0,0.0,0.0,0.0,0.0,0.0,0.0,-0.002808606019243598,-0.005609728395938873,0.006393581163138151,0.9999316930770874,0.0033744184765964746,0.000287001661490649,0.011180706322193146
605.0,0.0,0.0,0.0,0.0,0.0,0.0,0.0033582320902496576,-0.0074712662026286125,-0.0029325156938284636,0.9999355673789978,0.0031932946294546127,0.00027797266375273466,0.010894267819821835
606.0,0.0,0.0,0.0,0.0,0.0,0.0,0.006469090934842825,-0.00923320185393095,-0.017582325264811516,0.999941349029541,0.003070030128583312,0.0003821545105893165,0.010372381657361984
607.0,0.0,0.0,0.0,0.0,0.0,0.0,0.002612581942230463,-0.0056288898922502995,-0.006773087196052074,0.9999473690986633,0.0019613809417933226,0.00016051159764174372,0.010061840526759624
608.0,0.0,0.0,0.0,0.0,0.0,0.0,0.0015162320341914892,-0.00494017731398344,0.011483713984489441,0.9999514818191528,0.0013950471766293049,-8.715242438483983e-05,0.009745304472744465
609.0,0.0,0.0,0.0,0.0,0.0,0.0,-0.003609166946262121,-0.003495199605822563,0.021342672407627106,0.9999536871910095,0.001396499341353774,-0.00013473733270075172,0.009514636360108852
610.0,0.0,0.0,0.0,0.0,0.0,0.0,0.0011335136368870735,0.0015593600692227483,0.032718952745199203,0.9999578595161438,0.0018557909643277526,-9.1677182354033e-05,0.00899098627269268
611.0,0.0,0.0,0.0,0.0,0.0,0.0,0.005135696846991777,-0.006575046572834253,-0.005540134385228157,0.9999628663063049,0.0024314227048307657,0.0005323305376805365,0.008244332857429981
612.0,0.0,0.0,0.0,0.0,0.0,0.0,0.008466437458992004,-0.008743058890104294,-0.010516193695366383,0.9999597072601318,0.0032407932449132204,0.0011186482151970267,0.008289833553135395
613.0,0.0,0.0,0.0,0.0,0.0,0.0,0.009314450435340405,-0.004891750868409872,0.006761471275240183,0.9999601244926453,0.003837621072307229,0.0018040519207715988,0.007851855829358101
614.0,0.0,0.0,0.0,0.0,0.0,0.0,0.0094778286293149,0.00031235109781846404,0.006585580762475729,0.9999556541442871,0.004352537915110588,0.002236810280010104,0.008051523938775063
615.0,0.0,0.0,0.0,0.0,0.0,0.0,0.005230754613876343,0.0036776624619960785,0.004940989892929792,0.9999502301216125,0.005131613463163376,0.0024106870405375957,0.008206445723772049
616.0,0.0,0.0,0.0,0.0,0.0,0.0,0.006150813773274422,0.0038639509584754705,-0.017076335847377777,0.9999490976333618,0.005633973516523838,0.002726241946220398,0.007917510345578194
617.0,0.0,0.0,0.0,0.0,0.0,0.0,0.011016162112355232,0.004691549111157656,-0.036246974021196365,0.9999487400054932,0.005787877831608057,0.002574274083599448,0.007891441695392132
618.0,0.0,0.0,0.0,0.0,0.0,0.0,0.0008834737236611545,0.0011206242488697171,-0.023187857121229172,0.9999492764472961,0.005516397301107645,0.002374089090153575,0.008083060383796692
619.0,0.0,0.0,0.0,0.0,0.0,0.0,0.0011985504534095526,0.0006886266637593508,-0.01606426015496254,0.9999450445175171,0.0052272058092057705,0.001974712824448943,0.008863662369549274
620.0,0.0,0.0,0.0,0.0,0.0,0.0,0.0008958781254477799,0.0024392297491431236,-0.0007519879727624357,0.9999418258666992,0.004728304222226143,0.001646622084081173,0.009548341855406761
621.0,0.0,0.0,0.0,0.0,0.0,0.0,-3.369302430655807e-05,0.007079650182276964,0.010264783166348934,0.9999445676803589,0.004229051060974598,0.0014287473168224096,0.009533957578241825
622.0,0.0,0.0,0.0,0.0,0.0,0.0,0.0004161953693255782,0.009955985471606255,0.015061835758388042,0.9999391436576843,0.004307580646127462,0.0011790782446041703,0.010080448351800442
623.0,0.0,0.0,0.0,0.0,0.0,0.0,0.003188197035342455,0.011841212399303913,0.008409857749938965,0.9999305009841919,0.004471347201615572,0.0007060934440232813,0.010880433954298496
624.0,0.0,0.0,0.0,0.0,0.0,0.0,-0.001870875246822834,0.0053165508434176445,0.0024444160517305136,0.9999321103096008,0.004231804516166449,0.0002619533333927393,0.01085483655333519
625.0,0.0,0.0,0.0,0.0,0.0,0.0,4.57309688499663e-05,0.0007838270394131541,0.007912489585578442,0.9999452233314514,0.0038508253637701273,0.00013044012302998453,0.009720830246806145
626.0,0.0,0.0,0.0,0.0,0.0,0.0,0.0016590835293754935,-0.005324552766978741,-0.004959827288985252,0.9999493956565857,0.0036806717980653048,0.0001114036567742005,0.009352979250252247
627.0,0.0,0.0,0.0,0.0,0.0,0.0,0.00871969759464264,0.0001349714439129457,-0.003931340761482716,0.9999452829360962,0.0033738352358341217,-0.00021133953123353422,0.009898615069687366
628.0,0.0,0.0,0.0,0.0,0.0,0.0,-0.003108271397650242,-0.003408544696867466,0.010534422472119331,0.9999454021453857,0.003339651506394148,-0.0003615893656387925,0.009886309504508972
629.0,0.0,0.0,0.0,0.0,0.0,0.0,-0.0027063649613410234,-0.0015512503450736403,0.018845923244953156,0.9999406933784485,0.0034561636857688427,-0.0004652546485885978,0.010314032435417175
630.0,0.0,0.0,0.0,0.0,0.0,0.0,-0.003957096952944994,-0.00027117523131892085,0.023115914314985275,0.999932050704956,0.0036369215231388807,-9.433154627913609e-05,0.011077610775828362
631.0,0.0,0.0,0.0,0.0,0.0,0.0,0.004201049450784922,0.001407428877428174,-0.004172290675342083,0.9999277591705322,0.004150056280195713,7.700429705437273e-05,0.01127922534942627
632.0,0.0,0.0,0.0,0.0,0.0,0.0,0.011714152991771698,0.0009715168853290379,-0.011009301990270615,0.9999206066131592,0.004416042473167181,-0.0002532610669732094,0.011794392950832844
633.0,0.0,0.0,0.0,0.0,0.0,0.0,0.009077980183064938,0.0008133971714414656,-0.007740507833659649,0.9999139904975891,0.004829481244087219,-0.0005698084714822471,0.012173074297606945
634.0,0.0,0.0,0.0,0.0,0.0,0.0,0.006657661870121956,0.0015615647425875068,-0.007524194661527872,0.9999079704284668,0.004995056428015232,-0.0005974445957690477,0.012598400935530663
635.0,0.0,0.0,0.0,0.0,0.0,0.0,0.005063788034021854,0.000550970493350178,-0.00041395120206288993,0.9999056458473206,0.004723521415144205,-0.0007439363398589194,0.012874599546194077
636.0,0.0,0.0,0.0,0.0,0.0,0.0,0.005600799806416035,-0.0007405669894069433,0.0012017835397273302,0.9999054670333862,0.004792025778442621,-0.0010847041849046946,0.01283853966742754
637.0,0.0,0.0,0.0,0.0,0.0,0.0,0.00010727174230851233,-0.0016810668166726828,0.005356685258448124,0.9999023079872131,0.004672246053814888,-0.0011976766400039196,0.01312099490314722
638.0,0.0,0.0,0.0,0.0,0.0,0.0,3.8518319342983887e-05,-0.0009728712611831725,0.006525165401399136,0.9999006390571594,0.004670015536248684,-0.0013563208049163222,0.013228340074419975
639.0,0.0,0.0,0.0,0.0,0.0,0.0,-0.001151669886894524,-0.00271957297809422,-0.0017957582604140043,0.9998944401741028,0.005152723751962185,-0.0014740914339199662,0.013498237356543541
640.0,0.0,0.0,0.0,0.0,0.0,0.0,-0.0025696400552988052,-0.004117617383599281,-0.01020378340035677,0.9998978972434998,0.005124478600919247,-0.0019665865693241358,0.013192052952945232
641.0,0.0,0.0,0.0,0.0,0.0,0.0,-0.0058569833636283875,-0.0032249109353870153,-0.009010748006403446,0.9998993277549744,0.0046746921725571156,-0.0026162522844970226,0.013135730288922787
642.0,0.0,0.0,0.0,0.0,0.0,0.0,-0.009009672328829765,-0.0024296604096889496,-0.004404863808304071,0.9999033212661743,0.003955329768359661,-0.0031823874451220036,0.012938547879457474
643.0,0.0,0.0,0.0,0.0,0.0,0.0,-0.008853207342326641,-0.0011937071103602648,0.0005519140395335853,0.9999068975448608,0.002871481701731682,-0.0038758357986807823,0.012761319987475872
644.0,0.0,0.0,0.0,0.0,0.0,0.0,-0.010926122777163982,-0.0017153075896203518,0.012030608020722866,0.9999056458473206,0.0022455407306551933,-0.004481550306081772,0.012789124622941017
645.0,0.0,0.0,0.0,0.0,0.0,0.0,-0.00809871219098568,-0.00033908491604961455,0.015762625262141228,0.999906599521637,0.001622870098799467,-0.004767484497278929,0.012706234119832516
646.0,0.0,0.0,0.0,0.0,0.0,0.0,-0.002321715699508786,0.0018977526342496276,0.023773876950144768,0.9999054074287415,0.0009129028767347336,-0.0050213090144097805,0.012764900922775269
647.0,0.0,0.0,0.0,0.0,0.0,0.0,-0.0052240039221942425,0.00170117465313524,0.027891233563423157,0.9999112486839294,0.00048375691403634846,-0.00467629125341773,0.012465047650039196
648.0,0.0,0.0,0.0,0.0,0.0,0.0,0.00200766627676785,0.00042541386210359633,0.014532994478940964,0.9999228119850159,0.0005920194671489298,-0.003726428374648094,0.011836211197078228
649.0,0.0,0.0,0.0,0.0,0.0,0.0,0.0033241056371480227,0.0033195626456290483,0.01793457567691803,0.9999333024024963,0.0006900873850099742,-0.0022918435279279947,0.011301242746412754
650.0,0.0,0.0,0.0,0.0,0.0,0.0,0.0027346177957952023,0.0019866826478391886,0.01420365646481514,0.9999430179595947,0.001487390254624188,-0.000659709214232862,0.010545527562499046
651.0,0.0,0.0,0.0,0.0,0.0,0.0,0.0063209813088178635,-0.0018217030446976423,-0.001455017481930554,0.999947190284729,0.002699327887967229,0.00043280160753056407,0.00990500207990408
652.0,0.0,0.0,0.0,0.0,0.0,0.0,0.0035596333909779787,-0.005449426826089621,-0.018940819427371025,0.9999507665634155,0.003980299923568964,0.0009464937029406428,0.009034985676407814
653.0,0.0,0.0,0.0,0.0,0.0,0.0,0.0006472866516560316,-0.004458175040781498,-0.019711801782250404,0.9999518990516663,0.005139069631695747,0.0013811859535053372,0.008235865272581577
654.0,0.0,0.0,0.0,0.0,0.0,0.0,0.0024099238216876984,-1.4371814359037671e-05,-0.010114852339029312,0.9999489188194275,0.006560369394719601,0.0014191493391990662,0.007554178591817617
655.0,0.0,0.0,0.0,0.0,0.0,0.0,0.0006828687619417906,0.001177273690700531,-0.013022387400269508,0.9999423623085022,0.008128086104989052,0.0011660571908578277,0.0069022164680063725
656.0,0.0,0.0,0.0,0.0,0.0,0.0,0.0038558021187782288,0.001193354488350451,-0.02883576601743698,0.9999254941940308,0.010010277852416039,0.000890956842340529,0.006926688365638256
657.0,0.0,0.0,0.0,0.0,0.0,0.0,0.0008068853057920933,0.003389242570847273,-0.014210890047252178,0.9999058842658997,0.011409653350710869,0.0006592993158847094,0.007593323476612568
658.0,0.0,0.0,0.0,0.0,0.0,0.0,-0.0004737605631817132,0.00719238119199872,-0.008580640889704227,0.9998905658721924,0.012233537621796131,0.0001415778388036415,0.00831188727170229
659.0,0.0,0.0,0.0,0.0,0.0,0.0,0.006310281343758106,0.009013427421450615,-0.006941528990864754,0.9998686909675598,0.012857703492045403,-0.0005313073052093387,0.00983940064907074
660.0,0.0,0.0,0.0,0.0,0.0,0.0,0.012950966134667397,0.009840192273259163,-0.0015497928252443671,0.9998410940170288,0.013237868435680866,-0.0011464213021099567,0.011882902123034
661.0,0.0,0.0,0.0,0.0,0.0,0.0,0.016269192099571228,0.008631955832242966,-0.007657238282263279,0.9998152256011963,0.013049393892288208,-0.0019420433090999722,0.013980913907289505
662.0,0.0,0.0,0.0,0.0,0.0,0.0,0.019580820575356483,0.005729477386921644,-0.014808747917413712,0.9997808337211609,0.012303217314183712,-0.0033693439327180386,0.016607796773314476
663.0,0.0,0.0,0.0,0.0,0.0,0.0,0.02075701579451561,0.005659343674778938,0.0005135406390763819,0.9997524619102478,0.010883736424148083,-0.005196026060730219,0.018694492056965828
664.0,0.0,0.0,0.0,0.0,0.0,0.0,0.019866419956088066,0.004119093995541334,0.012674670666456223,0.9997387528419495,0.008820081129670143,-0.006885794922709465,0.019929537549614906
665.0,0.0,0.0,0.0,0.0,0.0,0.0,0.01654675416648388,-0.0007161687826737761,0.016373516991734505,0.9997316002845764,0.007121664006263018,-0.008488621562719345,0.020342636853456497
666.0,0.0,0.0,0.0,0.0,0.0,0.0,0.009135467000305653,-0.004796349443495274,0.01896083541214466,0.9997584819793701,0.005401886533945799,-0.00920336414128542,0.019206246361136436
667.0,0.0,0.0,0.0,0.0,0.0,0.0,-0.002922775922343135,-0.009515310637652874,0.02250395342707634,0.9997934103012085,0.0039974902756512165,-0.009065636433660984,0.017745066434144974
668.0,0.0,0.0,0.0,0.0,0.0,0.0,-0.011248297058045864,-0.009359544143080711,0.034035202115774155,0.9998255372047424,0.0038211022038012743,-0.00799516960978508,0.016445951536297798
669.0,0.0,0.0,0.0,0.0,0.0,0.0,-0.02836109697818756,-0.015075976960361004,0.025182651355862617,0.9998623728752136,0.0042512365616858006,-0.006092995870858431,0.014834682457149029
670.0,0.0,0.0,0.0,0.0,0.0,0.0,-0.027049655094742775,-0.012894191779196262,0.009386029094457626,0.99989253282547,0.004438974894583225,-0.004017976112663746,0.013383721001446247
671.0,0.0,0.0,0.0,0.0,0.0,0.0,-0.02275560051202774,-0.00842822901904583,-0.003365045180544257,0.9999154210090637,0.004758581053465605,-0.00223744148388505,0.01189076341688633
672.0,0.0,0.0,0.0,0.0,0.0,0.0,-0.01941904053092003,-0.007823452353477478,-0.0149501608684659,0.9999282360076904,0.0052652074955403805,-0.0004932223237119615,0.010745685547590256
673.0,0.0,0.0,0.0,0.0,0.0,0.0,-0.010920142754912376,-0.004667103290557861,-0.018562985584139824,0.9999313354492188,0.0060816071927547455,0.0009756840881891549,0.009964031167328358
674.0,0.0,0.0,0.0,0.0,0.0,0.0,-0.006556329317390919,-0.00499638682231307,-0.02362952195107937,0.9999343752861023,0.006581163499504328,0.002192668616771698,0.009115247055888176
675.0,0.0,0.0,0.0,0.0,0.0,0.0,-0.0061739045195281506,-0.004129842389374971,-0.019648075103759766,0.9999355673789978,0.006904320325702429,0.0029214287642389536,0.008514235727488995
676.0,0.0,0.0,0.0,0.0,0.0,0.0,-0.006928498391062021,-0.00047529375297017395,-0.012254329398274422,0.9999343156814575,0.007437650579959154,0.0037136815953999758,0.007880260236561298
677.0,0.0,0.0,0.0,0.0,0.0,0.0,-0.002895621582865715,0.0010412975680083036,-0.0031911239493638277,0.9999302625656128,0.00799597054719925,0.003939972259104252,0.007745866198092699
678.0,0.0,0.0,0.0,0.0,0.0,0.0,0.0028982851654291153,-0.00018162545165978372,-0.006098111160099506,0.9999282956123352,0.008437142707407475,0.00387295288965106,0.0075624543242156506
679.0,0.0,0.0,0.0,0.0,0.0,0.0,0.00815742276608944,-0.0001762619212968275,-0.008524749428033829,0.999921977519989,0.009394204244017601,0.0036785672418773174,0.007351747713983059
680.0,0.0,0.0,0.0,0.0,0.0,0.0,0.01265223789960146,-0.0007262253202497959,-0.006182637996971607,0.9999118447303772,0.009928613901138306,0.0029013389721512794,0.008324572816491127
681.0,0.0,0.0,0.0,0.0,0.0,0.0,0.026197699829936028,0.0014237889554351568,-0.005127018317580223,0.9999071955680847,0.00984266959130764,0.0010920963250100613,0.009361254051327705
682.0,0.0,0.0,0.0,0.0,0.0,0.0,0.021406270563602448,0.004869529046118259,-0.011425390839576721,0.9999036192893982,0.009748580865561962,-0.0008336425526067615,0.009845579043030739
683.0,0.0,0.0,0.0,0.0,0.0,0.0,0.020477958023548126,0.005455789156258106,0.008363328874111176,0.999899685382843,0.009556143544614315,-0.0028749732300639153,0.010054058395326138
684.0,0.0,0.0,0.0,0.0,0.0,0.0,0.021938588470220566,0.002906625624746084,-0.007242528721690178,0.9998966455459595,0.009377850219607353,-0.004575202241539955,0.009889230132102966
685.0,0.0,0.0,0.0,0.0,0.0,0.0,0.022641083225607872,0.0044749220833182335,-0.006199672818183899,0.9998822808265686,0.009265460073947906,-0.005827991291880608,0.010753214359283447
686.0,0.0,0.0,0.0,0.0,0.0,0.0,0.010627319104969501,0.0020924201235175133,0.02020113728940487,0.9998737573623657,0.009211961179971695,-0.006407799199223518,0.011242308653891087
687.0,0.0,0.0,0.0,0.0,0.0,0.0,0.005768342409282923,0.004074964672327042,0.031607456505298615,0.9998647570610046,0.00972436461597681,-0.006273013539612293,0.011686841025948524
688.0,0.0,0.0,0.0,0.0,0.0,0.0,0.005489390343427658,0.004562975838780403,0.02965695410966873,0.9998555183410645,0.010156793519854546,-0.005934788845479488,0.012272519990801811
689.0,0.0,0.0,0.0,0.0,0.0,0.0,0.005363548174500465,0.004147173836827278,0.007594577968120575,0.9998474717140198,0.010316348634660244,-0.005774856079369783,0.012853509746491909
690.0,0.0,0.0,0.0,0.0,0.0,0.0,0.013786887750029564,0.006145466584712267,-0.01953659951686859,0.9998355507850647,0.010637992061674595,-0.005841252394020557,0.013474731706082821
691.0,0.0,0.0,0.0,0.0,0.0,0.0,0.009380909614264965,0.004472288303077221,-0.025761296972632408,0.9998398423194885,0.010329925455152988,-0.005662519484758377,0.013471340760588646
692.0,0.0,0.0,0.0,0.0,0.0,0.0,-0.0038481696974486113,-0.0017537387320771813,-0.014647492207586765,0.9998653531074524,0.009630276821553707,-0.004619622603058815,0.012461639940738678
693.0,0.0,0.0,0.0,0.0,0.0,0.0,0.0024426402524113655,0.002025950700044632,-0.020004114136099815,0.999871551990509,0.00926906056702137,-0.004152990411967039,0.012396449223160744
694.0,0.0,0.0,0.0,0.0,0.0,0.0,-0.009776262566447258,0.003672055434435606,0.0025011636316776276,0.999883770942688,0.008477898314595222,-0.003546563209965825,0.012158901430666447
695.0,0.0,0.0,0.0,0.0,0.0,0.0,-0.017784234136343002,0.0001887120452011004,0.017495153471827507,0.9998995065689087,0.007762040477246046,-0.0027229373808950186,0.011540520004928112
696.0,0.0,0.0,0.0,0.0,0.0,0.0,-0.0039400579407811165,0.002050514332950115,0.01709282398223877,0.9999033212661743,0.00806531310081482,-0.002129023429006338,0.011121021583676338
697.0,0.0,0.0,0.0,0.0,0.0,0.0,-0.02047247625887394,-0.003794694785028696,0.0014699576422572136,0.9999101161956787,0.008748156949877739,-0.0013679657131433487,0.010061804205179214
698.0,0.0,0.0,0.0,0.0,0.0,0.0,-0.01456250250339508,-0.005906481761485338,-0.015497086569666862,0.9999123811721802,0.00923511479049921,-0.000762077106628567,0.009447089396417141
699.0,0.0,0.0,0.0,0.0,0.0,0.0,-0.006019257940351963,-0.004470772109925747,-0.023664074018597603,0.9999142289161682,0.009637372568249702,-0.0003514184500090778,0.00886459369212389
700.0,0.0,0.0,0.0,0.0,0.0,0.0,-0.00663204537704587,-0.002095608739182353,-0.018272701650857925,0.9999233484268188,0.009371591731905937,-0.0006613529985770583,0.00806577317416668
701.0,0.0,0.0,0.0,0.0,0.0,0.0,-0.013415876775979996,-0.003481687745079398,-0.0069202156737446785,0.9999293088912964,0.009333468042314053,-0.0008681555627845228,0.0073181199841201305
702.0,0.0,0.0,0.0,0.0,0.0,0.0,-0.01173511240631342,-0.0031400974839925766,-0.008130443282425404,0.9999297261238098,0.009203685447573662,-0.0011544268345460296,0.007382379844784737
703.0,0.0,0.0,0.0,0.0,0.0,0.0,-0.014244895428419113,-0.0017247978830710053,0.006040033418685198,0.9999276399612427,0.008822117932140827,-0.0016278506955131888,0.008008255623281002
704.0,0.0,0.0,0.0,0.0,0.0,0.0,-0.01068679615855217,0.002516054082661867,0.019584832713007927,0.9999241232872009,0.008297980763018131,-0.0019203017000108957,0.00889439508318901
705.0,0.0,0.0,0.0,0.0,0.0,0.0,-0.004581166431307793,0.0048855566419661045,0.026701467111706734,0.9999148845672607,0.007974845357239246,-0.002289332915097475,0.010068768635392189
706.0,0.0,0.0,0.0,0.0,0.0,0.0,-0.004976923577487469,0.005127528216689825,0.025370700284838676,0.999909520149231,0.007709224708378315,-0.002062107203528285,0.010832665488123894
707.0,0.0,0.0,0.0,0.0,0.0,0.0,0.004810423590242863,0.0059135169722139835,0.02568197250366211,0.999897837638855,0.00751521298661828,-0.0022630037274211645,0.011942778714001179
708.0,0.0,0.0,0.0,0.0,0.0,0.0,0.011547139845788479,0.0012883308809250593,0.009018367156386375,0.9998835325241089,0.0067804777063429356,-0.002818835200741887,0.013370608910918236
709.0,0.0,0.0,0.0,0.0,0.0,0.0,0.01294834166765213,-0.002827547723427415,-0.017911318689584732,0.9998791813850403,0.0055323694832623005,-0.0038101952522993088,0.014014746062457561
710.0,0.0,0.0,0.0,0.0,0.0,0.0,0.004296979401260614,-0.0032368768006563187,0.00926364678889513,0.9998763203620911,0.004368646536022425,-0.004887017887085676,0.014290194027125835
711.0,0.0,0.0,0.0,0.0,0.0,0.0,0.0006146379746496677,-0.004867096431553364,0.002145360689610243,0.9998877048492432,0.0032233083620667458,-0.005497967824339867,0.013563192449510098
712.0,0.0,0.0,0.0,0.0,0.0,0.0,-0.0012375699589028955,-0.0021017498802393675,0.003264324041083455,0.9999150633811951,0.0019499636255204678,-0.006006045266985893,0.011403636075556278
713.0,0.0,0.0,0.0,0.0,0.0,0.0,-0.009121104143559933,-0.0036658472381532192,0.009650020860135555,0.9999284148216248,0.0016121871303766966,-0.006498164962977171,0.009920258074998856
714.0,0.0,0.0,0.0,0.0,0.0,0.0,-0.01198075246065855,0.0009685918921604753,0.020468831062316895,0.9999395608901978,0.002023182110860944,-0.006632380653172731,0.008523436263203621
715.0,0.0,0.0,0.0,0.0,0.0,0.0,-0.01883062534034252,0.002872082404792309,0.034601595252752304,0.9999598264694214,0.0030084745958447456,-0.005830313079059124,0.006101268343627453
716.0,0.0,0.0,0.0,0.0,0.0,0.0,-0.017390772700309753,0.004100313875824213,0.041846659034490585,0.9999716877937317,0.0049183857627213,-0.004176067188382149,0.003869021777063608
717.0,0.0,0.0,0.0,0.0,0.0,0.0,-0.007247613277286291,0.001822177437134087,0.03856651484966278,0.9999640583992004,0.007707170210778713,-0.0022267235908657312,0.0027505543548613787
718.0,0.0,0.0,0.0,0.0,0.0,0.0,0.005446038208901882,-0.0001285109610762447,-0.02206684648990631,0.9999393820762634,0.010718964971601963,-0.00046256964560598135,0.002491768216714263
719.0,0.0,0.0,0.0,0.0,0.0,0.0,0.007122648414224386,-0.000520085624884814,-0.012575064785778522,0.9999121427536011,0.012904507108032703,0.0009858000557869673,0.0028719662223011255
720.0,0.0,0.0,0.0,0.0,0.0,0.0,0.012237005867064,-0.001617690548300743,-0.013714268803596497,0.9998821020126343,0.01475498266518116,0.002189258811995387,0.0036111490335315466
721.0,0.0,0.0,0.0,0.0,0.0,0.0,0.018080025911331177,-0.00279969978146255,-0.038338154554367065,0.9998557567596436,0.016045458614826202,0.003213761607185006,0.004541247151792049
722.0,0.0,0.0,0.0,0.0,0.0,0.0,0.01963769644498825,-0.0033660433255136013,-0.04395892843604088,0.9998334646224976,0.016978196799755096,0.0037018251605331898,0.0055699776858091354
723.0,0.0,0.0,0.0,0.0,0.0,0.0,0.014099925756454468,-0.004785244818776846,-0.040544234216213226,0.999814510345459,0.01747847907245159,0.003893693210557103,0.007091968320310116
724.0,0.0,0.0,0.0,0.0,0.0,0.0,0.017511198297142982,-0.0018002239521592855,-0.036084044724702835,0.9998037219047546,0.01720450073480606,0.003172746393829584,0.009300196543335915
725.0,0.0,0.0,0.0,0.0,0.0,0.0,0.013246682472527027,0.00019337705452926457,-0.01860729418694973,0.999804675579071,0.016451705247163773,0.002392270602285862,0.01069313008338213
726.0,0.0,0.0,0.0,0.0,0.0,0.0,0.007643458433449268,0.0010975125478580594,-0.0028740984853357077,0.9998192191123962,0.015226660296320915,0.0017903355183079839,0.01124139316380024
727.0,0.0,0.0,0.0,0.0,0.0,0.0,0.004729343578219414,-0.0017998901894316077,-0.0021062977612018585,0.9998376369476318,0.014071798883378506,0.0012297225184738636,0.011185446754097939
728.0,0.0,0.0,0.0,0.0,0.0,0.0,-0.0009431795915588737,-0.0029831109568476677,0.004003175068646669,0.9998547434806824,0.01312533114105463,0.0005814303876832128,0.010857350192964077
729.0,0.0,0.0,0.0,0.0,0.0,0.0,-0.0058701070956885815,-0.0010468581458553672,0.02252124808728695,0.9998752474784851,0.012022953480482101,0.00013958077761344612,0.010242238640785217
730.0,0.0,0.0,0.0,0.0,0.0,0.0,-0.012724657543003559,-0.0016809013905003667,0.0221871305257082,0.9998913407325745,0.01127971988171339,-9.87906169029884e-05,0.009498110972344875
731.0,0.0,0.0,0.0,0.0,0.0,0.0,-0.013692582957446575,-0.004688345827162266,0.011339912191033363,0.9999018311500549,0.011203189380466938,-3.9028553146636114e-05,0.00840772781521082
732.0,0.0,0.0,0.0,0.0,0.0,0.0,-0.01182614453136921,-0.0030919534619897604,0.012255064211785793,0.9999105334281921,0.011224968358874321,0.0005653749103657901,0.007250872906297445
733.0,0.0,0.0,0.0,0.0,0.0,0.0,-0.0095131890848279,0.0008704933570697904,0.008559037931263447,0.9999099373817444,0.011550994589924812,0.0011455797357484698,0.006739952135831118
734.0,0.0,0.0,0.0,0.0,0.0,0.0,-0.006942411419004202,0.00110484822653234,0.0011611469089984894,0.9998969435691833,0.012339089065790176,0.0014362875372171402,0.007185725960880518
735.0,0.0,0.0,0.0,0.0,0.0,0.0,-0.0034630834124982357,0.002301520202308893,-0.0012186219682916999,0.9998862147331238,0.012994225136935711,0.0016388491494581103,0.00748469028621912
736.0,0.0,0.0,0.0,0.0,0.0,0.0,-0.0006388082401826978,0.004367775283753872,-0.008067206479609013,0.9998764395713806,0.01348879560828209,0.0018218258628621697,0.007866756059229374
737.0,0.0,0.0,0.0,0.0,0.0,0.0,0.0015044048195704818,0.0024473490193486214,-0.006965503096580505,0.9998601078987122,0.014055373147130013,0.0019066771492362022,0.008863315917551517
738.0,0.0,0.0,0.0,0.0,0.0,0.0,0.007441416382789612,0.004719182848930359,-0.017381595447659492,0.9998384714126587,0.014758466742932796,0.0017465671990066767,0.010104376822710037
739.0,0.0,0.0,0.0,0.0,0.0,0.0,0.012342273257672787,0.00652086827903986,-0.0154031440615654,0.9998210072517395,0.014905559830367565,0.0010630881879478693,0.011602428741753101
740.0,0.0,0.0,0.0,0.0,0.0,0.0,0.013865112327039242,0.006163949612528086,-0.004145394079387188,0.999809980392456,0.014672721736133099,0.00027663068613037467,0.012825725600123405
741.0,0.0,0.0,0.0,0.0,0.0,0.0,0.013784518465399742,0.004763975739479065,-0.006649200338870287,0.9997991323471069,0.014358350075781345,-0.0006288393051363528,0.013966783881187439
742.0,0.0,0.0,0.0,0.0,0.0,0.0,0.016732096672058105,0.0049504865892231464,-0.00848968606442213,0.9997974038124084,0.013978802599012852,-0.001308518461883068,0.014421739615499973
743.0,0.0,0.0,0.0,0.0,0.0,0.0,0.014883882366120815,0.0013526378897950053,-0.005331147462129593,0.999799370765686,0.01348473783582449,-0.0019096753094345331,0.014684117399156094
744.0,0.0,0.0,0.0,0.0,0.0,0.0,0.010713925585150719,-0.001319285249337554,0.005602781195193529,0.999800980091095,0.012974160723388195,-0.0026551741175353527,0.01492038369178772
745.0,0.0,0.0,0.0,0.0,0.0,0.0,0.0065949102863669395,-0.0018459035782143474,0.00966185238212347,0.9998027086257935,0.012720075435936451,-0.003435771679505706,0.014860609546303749
746.0,0.0,0.0,0.0,0.0,0.0,0.0,-0.001288925064727664,-0.004817566834390163,0.009609337896108627,0.9998075366020203,0.01219421811401844,-0.0036526883486658335,0.014926087111234665
747.0,0.0,0.0,0.0,0.0,0.0,0.0,-0.004889175295829773,-0.004582640714943409,0.011410660110414028,0.9998080730438232,0.012256942689418793,-0.003376319305971265,0.014904609881341457
748.0,0.0,0.0,0.0,0.0,0.0,0.0,-0.002416651463136077,0.0004121916717849672,0.014383839443325996,0.9998170137405396,0.012141622602939606,-0.0031379414722323418,0.01444521825760603
749.0,0.0,0.0,0.0,0.0,0.0,0.0,-0.005271661560982466,0.0009788633324205875,0.01781998760998249,0.9998145699501038,0.012532012537121773,-0.0027601176407188177,0.014354505576193333
750.0,0.0,0.0,0.0,0.0,0.0,0.0,-0.006602859124541283,0.0013053868897259235,-0.010308243334293365,0.9998103380203247,0.012803692370653152,-0.0020159902051091194,0.014532806351780891
751.0,0.0,0.0,0.0,0.0,0.0,0.0,-0.012025066651403904,0.0004441178170964122,-0.012656353414058685,0.9998044967651367,0.012948784045875072,-0.001186921028420329,0.01489523146301508
752.0,0.0,0.0,0.0,0.0,0.0,0.0,-0.0069406419061124325,0.0015970160020515323,-0.015793098136782646,0.9997958540916443,0.012913978658616543,-0.00047212501522153616,0.015530393458902836
753.0,0.0,0.0,0.0,0.0,0.0,0.0,0.001058594905771315,0.004890500567853451,-0.017419230192899704,0.9997842311859131,0.012430348433554173,-0.0007233670330606401,0.01662312261760235
754.0,0.0,0.0,0.0,0.0,0.0,0.0,-0.0013726266333833337,0.0031617579516023397,-0.01566890813410282,0.9997725486755371,0.012207134626805782,-0.0008814712637104094,0.01746675744652748
755.0,0.0,0.0,0.0,0.0,0.0,0.0,0.0017412465531378984,0.00549044506624341,-0.010426664724946022,0.9997594952583313,0.012275845743715763,-0.0012970872921869159,0.0181245356798172
756.0,0.0,0.0,0.0,0.0,0.0,0.0,0.00029013986932113767,0.006308582611382008,-0.003350392682477832,0.9997475743293762,0.01188870333135128,-0.001951170270331204,0.018961694091558456
757.0,0.0,0.0,0.0,0.0,0.0,0.0,-0.0029244956094771624,0.0056511708535254,0.000975050323177129,0.9997329711914062,0.011386779136955738,-0.0025646567810326815,0.019940845668315887
