,Position_X,Position_Y,Position_Z,Velocity_X,Velocity_Y,Velocity_Z,Acceleration_X,Acceleration_Y,Acceleration_Z,Quaterion_0,Quaterion_1,Quaterion_2,Quaterion_3
90.0,0.0,0.0,0.0,0.0,0.0,0.0,-0.0007831361144781113,0.0001507401466369629,-0.001940393354743719,1.0,1.3877787807814457e-17,-1.734723475976807e-18,-2.0816681711721685e-17
91.0,0.0,0.0,0.0,0.0,0.0,0.0,-0.01000385545194149,-0.0011085488367825747,-0.0016458829632028937,0.9999996423721313,0.00041960968519560993,0.0006836794200353324,0.00023811253777239472
92.0,0.0,0.0,0.0,0.0,0.0,0.0,0.0018924643518403172,-0.0015595660079270601,-0.0017668098444119096,0.9999991059303284,0.000796475971583277,0.0010109376162290573,0.00030839513055980206
93.0,0.0,0.0,0.0,0.0,0.0,0.0,0.002564314054325223,-0.004068457987159491,-0.0032077960204333067,0.9999984502792358,0.001068444224074483,0.0008556137909181416,0.0011065296130254865
94.0,0.0,0.0,0.0,0.0,0.0,0.0,0.018349623307585716,-0.019043346866965294,-0.020231105387210846,0.9999985694885254,-0.0001773902913555503,-0.0003890791558660567,0.0016319153364747763
95.0,0.0,0.0,0.0,0.0,0.0,0.0,0.019464079290628433,-0.011331404559314251,-0.014215725474059582,0.9999960660934448,-0.0008066785521805286,-0.0020652555394917727,0.0017119069816544652
96.0,0.0,0.0,0.0,0.0,0.0,0.0,0.007811663206666708,-0.0027559217996895313,0.010116640478372574,0.9999913573265076,-0.0008711839909665287,-0.0036616655997931957,0.001773702446371317
97.0,0.0,0.0,0.0,0.0,0.0,0.0,0.0014462191611528397,-0.009821915067732334,0.01283152587711811,0.9999862313270569,-0.0014440905069932342,-0.0048995898105204105,0.001184823107905686
98.0,0.0,0.0,0.0,0.0,0.0,0.0,-0.018778981640934944,0.004644382279366255,0.012161978520452976,0.9999850988388062,-0.0015238296473398805,-0.005177740473300219,0.0007869755499996245
99.0,0.0,0.0,0.0,0.0,0.0,0.0,-0.007270569447427988,-0.0018071968806907535,0.022741755470633507,0.9999836683273315,-0.001481468789279461,-0.005429867655038834,0.0009896960109472275
100.0,0.0,0.0,0.0,0.0,0.0,0.0,-0.007224457338452339,0.0012705031549558043,0.006904750596731901,0.999983012676239,-0.001326804980635643,-0.005630132742226124,0.0007044720114208758
101.0,0.0,0.0,0.0,0.0,0.0,0.0,-0.005719849374145269,0.0035577425733208656,0.00873186718672514,0.999982476234436,-0.001566405757330358,-0.005659348331391811,0.000723408127669245
102.0,0.0,0.0,0.0,0.0,0.0,0.0,0.0017825036775320768,0.0036051308270543814,0.01017541904002428,0.9999803900718689,-0.0018216061871498823,-0.005841524805873632,0.001321616698987782
103.0,0.0,0.0,0.0,0.0,0.0,0.0,-0.0033451239578425884,0.00833040475845337,0.0033727812115103006,0.9999808669090271,-0.0019179841037839651,-0.00560131948441267,0.0018072121310979128
104.0,0.0,0.0,0.0,0.0,0.0,0.0,-0.001864865655079484,0.010011247359216213,0.007515366654843092,0.9999827742576599,-0.0016751987859606743,-0.005156548228114843,0.0022473467979580164
105.0,0.0,0.0,0.0,0.0,0.0,0.0,0.000876862439326942,0.011761588975787163,0.0027137508150190115,0.9999868869781494,-0.0015407766913995147,-0.0041848402470350266,0.0025218112859874964
106.0,0.0,0.0,0.0,0.0,0.0,0.0,0.00020683590264525265,0.015049980953335762,-0.0044592032209038734,0.9999842047691345,-0.0020326171070337296,-0.004035362508147955,0.003340240800753236
107.0,0.0,0.0,0.0,0.0,0.0,0.0,-0.0005117672262713313,0.015009053982794285,-0.003069748869165778,0.9999827146530151,-0.00187804049346596,-0.0039295717142522335,0.003948123659938574
108.0,0.0,0.0,0.0,0.0,0.0,0.0,3.5321534141985467e-06,0.014908322133123875,-0.004216586705297232,0.9999855160713196,-0.0008966698660515249,-0.003558722324669361,0.003937273286283016
109.0,0.0,0.0,0.0,0.0,0.0,0.0,0.001335951848886907,0.0157700814306736,-0.005622226744890213,0.999987006187439,-0.00020680144370999187,-0.0034289599861949682,0.0037617776542901993
110.0,0.0,0.0,0.0,0.0,0.0,0.0,0.0004801953036803752,0.015315675176680088,-0.005241689272224903,0.999985933303833,0.0007454927545040846,-0.003364020958542824,0.0040267654694616795
111.0,0.0,0.0,0.0,0.0,0.0,0.0,6.265700358198956e-05,0.015015991404652596,-0.005866288673132658,0.9999809861183167,0.0011141683207824826,-0.0035149231553077698,0.004943298175930977
112.0,0.0,0.0,0.0,0.0,0.0,0.0,-0.00020438515639398247,0.015002084895968437,-0.003866306273266673,0.9999731183052063,0.0009472891688346863,-0.0038758402224630117,0.006152277812361717
113.0,0.0,0.0,0.0,0.0,0.0,0.0,4.427886233315803e-05,0.014636171981692314,-0.0007531532319262624,0.9999693632125854,0.001541106728836894,-0.003934497479349375,0.006586121860891581
114.0,0.0,0.0,0.0,0.0,0.0,0.0,0.0006187492399476469,0.01291490625590086,0.002280943561345339,0.9999656081199646,0.0017667217180132866,-0.004163936246186495,0.0069516426883637905
115.0,0.0,0.0,0.0,0.0,0.0,0.0,0.0007337525603361428,0.012371782213449478,0.0022523426450788975,0.9999619722366333,0.001491656294092536,-0.004350499715656042,0.007407702971249819
116.0,0.0,0.0,0.0,0.0,0.0,0.0,0.0007034233422018588,0.009998952969908714,0.001719171879813075,0.9999641180038452,0.0019415190909057856,-0.004180746152997017,0.0071113258600234985
117.0,0.0,0.0,0.0,0.0,0.0,0.0,0.0009234822355210781,0.007109792437404394,0.0037651171442121267,0.9999656081199646,0.0023901653476059437,-0.0037474250420928,0.007000877056270838
118.0,0.0,0.0,0.0,0.0,0.0,0.0,-0.0011152065126225352,0.0074804979376494884,0.004469006787985563,0.9999716877937317,0.002855367260053754,-0.0021786943543702364,0.006611447315663099
119.0,0.0,0.0,0.0,0.0,0.0,0.0,-0.004378372337669134,0.006902766413986683,0.0040410785004496574,0.9999703168869019,0.003292402718216181,-0.0008869814337231219,0.006908209063112736
120.0,0.0,0.0,0.0,0.0,0.0,0.0,-0.00414276821538806,0.004395266994833946,0.0028502459172159433,0.9999677538871765,0.00388607126660645,-3.6384069971973076e-05,0.0070299324579536915
121.0,0.0,0.0,0.0,0.0,0.0,0.0,-0.001992289675399661,0.003862163284793496,-0.0029824720695614815,0.9999616146087646,0.004102423321455717,9.329712338512763e-05,0.007741061504930258
122.0,0.0,0.0,0.0,0.0,0.0,0.0,0.014000913128256798,-0.013320050202310085,-0.02864363044500351,0.9999653697013855,0.002851129276677966,-0.0006258292705751956,0.007796689867973328
123.0,0.0,0.0,0.0,0.0,0.0,0.0,-1.964868715731427e-05,-0.0009127582889050245,-0.023862063884735107,0.999972939491272,0.002785577904433012,-0.0013396447757259011,0.006673565600067377
124.0,0.0,0.0,0.0,0.0,0.0,0.0,-0.001504290266893804,0.007055844180285931,0.014727274887263775,0.9999758005142212,0.0036662633065134287,-0.0015619602054357529,0.005703743081539869
125.0,0.0,0.0,0.0,0.0,0.0,0.0,-0.0108136385679245,-0.006427160929888487,0.015953488647937775,0.9999806880950928,0.0038773217238485813,-0.002325557405129075,0.004268450662493706
126.0,0.0,0.0,0.0,0.0,0.0,0.0,-0.0298002939671278,0.011180693283677101,-0.008893250487744808,0.9999819397926331,0.004152527544647455,-0.0020443820394575596,0.0038306128699332476
127.0,0.0,0.0,0.0,0.0,0.0,0.0,-0.0017883044201880693,-0.0031190048903226852,0.01492487732321024,0.9999807476997375,0.004232288338243961,-0.0019305647583678365,0.004111839924007654
128.0,0.0,0.0,0.0,0.0,0.0,0.0,0.0042688362300395966,-0.004437506664544344,0.00026892105233855546,0.9999810457229614,0.0038847699761390686,-0.0025337603874504566,0.004052035044878721
129.0,0.0,0.0,0.0,0.0,0.0,0.0,-0.00044061182416044176,0.002246575430035591,0.0033786804415285587,0.9999817609786987,0.0031445231288671494,-0.0033761614467948675,0.003889065235853195
130.0,0.0,0.0,0.0,0.0,0.0,0.0,-0.0031612564343959093,0.00335153890773654,0.007625151425600052,0.9999836087226868,0.002457407070323825,-0.003501074155792594,0.003808296285569668
131.0,0.0,0.0,0.0,0.0,0.0,0.0,-0.00424932362511754,0.007498690392822027,0.025445660576224327,0.9999863505363464,0.0015837963437661529,-0.003232375718653202,0.00379378255456686
132.0,0.0,0.0,0.0,0.0,0.0,0.0,-0.0007990780868567526,0.009589781984686852,0.014341463334858418,0.9999870657920837,0.0011062875855714083,-0.002711021574214101,0.004154420457780361
133.0,0.0,0.0,0.0,0.0,0.0,0.0,0.00010702027066145092,0.011758818291127682,0.007323291152715683,0.9999849796295166,0.0010064519010484219,-0.0024226452223956585,0.004808098543435335
134.0,0.0,0.0,0.0,0.0,0.0,0.0,0.0010845180368050933,0.012053792364895344,0.008151551708579063,0.999983012676239,0.0014803910162299871,-0.002077159471809864,0.005239002872258425
135.0,0.0,0.0,0.0,0.0,0.0,0.0,0.003103707218542695,0.009517642669379711,0.005513607524335384,0.9999756217002869,0.0035966013092547655,-0.0015155448345467448,0.005784657783806324
136.0,0.0,0.0,0.0,0.0,0.0,0.0,0.002404411556199193,0.010856186039745808,-0.000322573323501274,0.9999707341194153,0.0037972081918269396,-0.0014014127664268017,0.006495491601526737
137.0,0.0,0.0,0.0,0.0,0.0,0.0,0.0027606107760220766,0.013425844721496105,-0.00428473437204957,0.999970555305481,0.0032005803659558296,-0.00153022026643157,0.006807203404605389
138.0,0.0,0.0,0.0,0.0,0.0,0.0,-0.0012287356657907367,0.014729812741279602,-0.0048180921003222466,0.9999667406082153,0.0030231010168790817,-0.0017426812555640936,0.00737294415012002
139.0,0.0,0.0,0.0,0.0,0.0,0.0,-0.003706146264448762,0.018302638083696365,-0.004383394028991461,0.9999625086784363,0.003077536355704069,-0.0021703860256820917,0.007797569502145052
140.0,0.0,0.0,0.0,0.0,0.0,0.0,0.000786846037954092,0.016722528263926506,0.0014726560330018401,0.9999598264694214,0.003591695800423622,-0.002580277156084776,0.007798343431204557
141.0,0.0,0.0,0.0,0.0,0.0,0.0,-0.005793432705104351,0.01429072767496109,-0.0029707802459597588,0.9999605417251587,0.004242215771228075,-0.002714667236432433,0.007315948139876127
142.0,0.0,0.0,0.0,0.0,0.0,0.0,-0.002091203583404422,0.013959711417555809,-0.004698865581303835,0.9999572038650513,0.004676543176174164,-0.002908745314925909,0.007431969977915287
143.0,0.0,0.0,0.0,0.0,0.0,0.0,-0.00044520164374262094,0.011027287691831589,-0.0034125023521482944,0.9999523758888245,0.00506230816245079,-0.003185524605214596,0.007708304561674595
144.0,0.0,0.0,0.0,0.0,0.0,0.0,-0.0025567885022610426,0.008764405734837055,0.001101211179047823,0.9999521970748901,0.0054951012134552,-0.002901506843045354,0.007549244444817305
145.0,0.0,0.0,0.0,0.0,0.0,0.0,-0.0016513046575710177,0.005370223894715309,0.0036561335436999798,0.9999545812606812,0.007055353838950396,-0.001019954215735197,0.006326785311102867
146.0,0.0,0.0,0.0,0.0,0.0,0.0,-0.00021985897910781205,0.00255019124597311,0.0036266082897782326,0.9999499917030334,0.007837705314159393,0.0011146528413519263,0.006106131710112095
147.0,0.0,0.0,0.0,0.0,0.0,0.0,-0.000795348605606705,0.0017536430386826396,0.0024389862082898617,0.9999529719352722,0.00748651335015893,0.0026337981689721346,0.005572523456066847
148.0,0.0,0.0,0.0,0.0,0.0,0.0,0.001283853780478239,0.0009183802176266909,-0.004802183713763952,0.9999427199363708,0.007825934328138828,0.0037390675861388445,0.0062737176194787025
149.0,0.0,0.0,0.0,0.0,0.0,0.0,0.0099556315690279,-0.014268162660300732,-0.02559727616608143,0.9999355673789978,0.008100369945168495,0.0038441589567810297,0.006963698659092188
150.0,0.0,0.0,0.0,0.0,0.0,0.0,0.04011174663901329,-0.012958629056811333,-0.028937438502907753,0.9999387860298157,0.008488365449011326,0.0024328778963536024,0.006665566470474005
151.0,0.0,0.0,0.0,0.0,0.0,0.0,0.027303501963615417,-0.0008528595790266991,0.010006038472056389,0.9999340176582336,0.009553570300340652,0.0011183960596099496,0.006276738829910755
152.0,0.0,0.0,0.0,0.0,0.0,0.0,0.009138645604252815,-0.014716142788529396,-0.011266927234828472,0.9999349117279053,0.00939586479216814,-0.0008005864801816642,0.006418739445507526
153.0,0.0,0.0,0.0,0.0,0.0,0.0,-0.012480681762099266,0.0032222983427345753,-0.0020404241513460875,0.9999300837516785,0.009696000255644321,-0.0017500300891697407,0.006538985297083855
154.0,0.0,0.0,0.0,0.0,0.0,0.0,-0.0153498575091362,-0.006226447876542807,0.02115478180348873,0.9999245405197144,0.010301588103175163,-0.002418521558865905,0.0062365359626710415
155.0,0.0,0.0,0.0,0.0,0.0,0.0,-0.01120726764202118,-0.014890160411596298,0.0011261740000918508,0.9999313950538635,0.009417048655450344,-0.0036440223921090364,0.00593128427863121
156.0,0.0,0.0,0.0,0.0,0.0,0.0,0.005316071677953005,-0.010120962746441364,-0.0017382585210725665,0.999933123588562,0.008613969199359417,-0.005274684634059668,0.005634751636534929
157.0,0.0,0.0,0.0,0.0,0.0,0.0,-0.0062151113525033,-0.01096655149012804,-0.0038981346879154444,0.9999328851699829,0.008550009690225124,-0.006235919427126646,0.0047127422876656055
158.0,0.0,0.0,0.0,0.0,0.0,0.0,-0.018122563138604164,-0.008613797836005688,0.012697223573923111,0.9999341368675232,0.008584093302488327,-0.0064001926220953465,0.004127729684114456
159.0,0.0,0.0,0.0,0.0,0.0,0.0,-0.014472524635493755,-0.004987633787095547,0.01333613507449627,0.9999410510063171,0.008332152850925922,-0.006100604776293039,0.0033408054150640965
160.0,0.0,0.0,0.0,0.0,0.0,0.0,-0.018170246854424477,0.0010017300955951214,0.009086440317332745,0.999955415725708,0.007593325339257717,-0.005005192942917347,0.0025276681408286095
161.0,0.0,0.0,0.0,0.0,0.0,0.0,-0.019119461998343468,0.0016104680253192782,0.011146049946546555,0.9999620914459229,0.007372694555670023,-0.004093784838914871,0.002167854690924287
162.0,0.0,0.0,0.0,0.0,0.0,0.0,-0.009452984668314457,0.002366754226386547,0.012800014577805996,0.9999659061431885,0.007495769299566746,-0.0030615434516221285,0.001638422254472971
163.0,0.0,0.0,0.0,0.0,0.0,0.0,-0.007371168117970228,0.0023988790344446898,0.004267832729965448,0.9999626874923706,0.008290890604257584,-0.0021237810142338276,0.0011659376323223114
164.0,0.0,0.0,0.0,0.0,0.0,0.0,-0.006155717186629772,0.006898930761963129,-0.008437923155725002,0.9999578595161438,0.009125557728111744,-0.0008491639164276421,0.0005230527021922171
165.0,0.0,0.0,0.0,0.0,0.0,0.0,-0.004233696032315493,0.010651137679815292,-0.003361988114193082,0.9999526739120483,0.009703058749437332,0.00035241266596131027,0.0005713240243494511
166.0,0.0,0.0,0.0,0.0,0.0,0.0,7.438227476086468e-05,0.010985404253005981,0.00931309349834919,0.9999452233314514,0.010280882939696312,0.0009874707320705056,0.0016702143475413322
167.0,0.0,0.0,0.0,0.0,0.0,0.0,0.008786585181951523,0.008443405851721764,0.005401874426752329,0.9999329447746277,0.01108768954873085,0.001418274245224893,0.003024605568498373
168.0,0.0,0.0,0.0,0.0,0.0,0.0,0.015735048800706863,0.006383711937814951,-0.010982540436089039,0.9999275803565979,0.011252549476921558,0.001462655491195619,0.004022378008812666
169.0,0.0,0.0,0.0,0.0,0.0,0.0,0.025070393458008766,0.005041810218244791,-0.017743390053510666,0.9999239444732666,0.011239035055041313,0.001028090133331716,0.004982176702469587
170.0,0.0,0.0,0.0,0.0,0.0,0.0,0.018006296828389168,0.004226404707878828,-0.015709543600678444,0.9999136924743652,0.011884649284183979,0.0003592415014281869,0.005583455320447683
171.0,0.0,0.0,0.0,0.0,0.0,0.0,0.008851385675370693,0.0036297100596129894,-0.007802055217325687,0.9999113082885742,0.011884271167218685,-9.461568697588518e-05,0.006012501195073128
172.0,0.0,0.0,0.0,0.0,0.0,0.0,0.010921332985162735,0.004875169601291418,0.0009046343620866537,0.9999130964279175,0.01143930945545435,-0.000589038128964603,0.006518037524074316
173.0,0.0,0.0,0.0,0.0,0.0,0.0,0.004701059311628342,0.0074003227055072784,0.009468181058764458,0.9999147653579712,0.01105504296720028,-0.0009519350132904947,0.006881352048367262
174.0,0.0,0.0,0.0,0.0,0.0,0.0,0.0040108379907906055,0.006231620907783508,0.014496980234980583,0.9999070167541504,0.011130609549582005,-0.0015802360139787197,0.007716707419604063
175.0,0.0,0.0,0.0,0.0,0.0,0.0,0.009194200858473778,-0.00034327959292568266,0.007879205979406834,0.9998905658721924,0.011616935953497887,-0.0022014311980456114,0.008886938914656639
176.0,0.0,0.0,0.0,0.0,0.0,0.0,0.00556368101388216,-0.0019357348792254925,-0.0033301105722784996,0.9998891353607178,0.0111615639179945,-0.002806382952257991,0.009448448196053505
177.0,0.0,0.0,0.0,0.0,0.0,0.0,0.002591571072116494,-0.005036157090216875,-0.007442080415785313,0.9998977780342102,0.0105457017198205,-0.003062610514461994,0.00915461778640747
178.0,0.0,0.0,0.0,0.0,0.0,0.0,0.0019016440492123365,-0.003961528185755014,-0.006339726038277149,0.9999085664749146,0.009780311025679111,-0.003365670097991824,0.008713027462363243
179.0,0.0,0.0,0.0,0.0,0.0,0.0,-0.008945946581661701,0.000664865889120847,0.0020269209053367376,0.999916672706604,0.009151770733296871,-0.003674366045743227,0.008330056443810463
180.0,0.0,0.0,0.0,0.0,0.0,0.0,-0.01270176749676466,0.0016813483089208603,0.007921651937067509,0.9999263286590576,0.009143580682575703,-0.0036091934889554977,0.00712453993037343
181.0,0.0,0.0,0.0,0.0,0.0,0.0,-0.012743773870170116,-0.0036703760270029306,0.009387826547026634,0.999934732913971,0.00912785716354847,-0.0039397417567670345,0.005623128265142441
182.0,0.0,0.0,0.0,0.0,0.0,0.0,-0.012861345894634724,-0.0015545189380645752,-0.0028853374533355236,0.9999411106109619,0.009067531675100327,-0.004599358886480331,0.003788778092712164
183.0,0.0,0.0,0.0,0.0,0.0,0.0,-0.01927236281335354,0.0038843273650854826,-0.010342719964683056,0.9999408721923828,0.009287822991609573,-0.005168397910892963,0.0022743011359125376
184.0,0.0,0.0,0.0,0.0,0.0,0.0,-0.02891715057194233,0.008897599764168262,-0.00036114364047534764,0.9999423027038574,0.009323756210505962,-0.0052736601792275906,0.0008150697685778141
185.0,0.0,0.0,0.0,0.0,0.0,0.0,-0.02654591202735901,0.0066068777814507484,0.007094979751855135,0.9999388456344604,0.009685643948614597,-0.00530136376619339,-0.0005610602092929184
186.0,0.0,0.0,0.0,0.0,0.0,0.0,-0.02995683252811432,0.004911161493510008,0.011166184209287167,0.999933660030365,0.010083903558552265,-0.005247177556157112,-0.0018243961967527866
187.0,0.0,0.0,0.0,0.0,0.0,0.0,-0.009555675089359283,0.0032883582171052694,0.012676062062382698,0.9999302625656128,0.010426328517496586,-0.004826573189347982,-0.0027329546865075827
188.0,0.0,0.0,0.0,0.0,0.0,0.0,0.014970153570175171,0.0018624230287969112,0.017327822744846344,0.9999285936355591,0.010615691542625427,-0.005076951812952757,-0.0020908259321004152
189.0,0.0,0.0,0.0,0.0,0.0,0.0,-0.003561497200280428,0.003075380576774478,0.013460323214530945,0.9999284148216248,0.010857759974896908,-0.004989530425518751,-0.0005908263265155256
190.0,0.0,0.0,0.0,0.0,0.0,0.0,0.005242989398539066,-0.0018151451367884874,0.0028182195965200663,0.9999282956123352,0.010947411879897118,-0.004802989773452282,0.000733678403776139
191.0,0.0,0.0,0.0,0.0,0.0,0.0,0.0108583839610219,-0.008249620907008648,-0.018998799845576286,0.9999305605888367,0.01076632272452116,-0.00457317428663373,0.0014092187630012631
192.0,0.0,0.0,0.0,0.0,0.0,0.0,0.009842811152338982,-0.00655258446931839,-0.0032607533503323793,0.999937891960144,0.010322857648134232,-0.003951414488255978,0.0014007447753101587
193.0,0.0,0.0,0.0,0.0,0.0,0.0,0.006280293222516775,-0.005211424082517624,-0.0020942618139088154,0.9999402165412903,0.010180910117924213,-0.003690132638439536,0.0014706216752529144
194.0,0.0,0.0,0.0,0.0,0.0,0.0,-0.004683797247707844,-0.0027282305527478456,-0.006764235906302929,0.9999387264251709,0.010350953787565231,-0.0036810876335948706,0.0013701829593628645
195.0,0.0,0.0,0.0,0.0,0.0,0.0,-0.010438165627419949,0.0012316302163526416,0.005883130244910717,0.9999243021011353,0.011798376217484474,-0.0034030568785965443,0.0007049327250570059
196.0,0.0,0.0,0.0,0.0,0.0,0.0,0.0005524500156752765,-0.004687053617089987,-0.002981279045343399,0.9999119639396667,0.01281416043639183,-0.003410568693652749,0.0003929518279619515
197.0,0.0,0.0,0.0,0.0,0.0,0.0,0.003439787309616804,-0.005447997245937586,-0.016071895137429237,0.9999089241027832,0.012912251055240631,-0.0037578758783638477,0.0011528425384312868
198.0,0.0,0.0,0.0,0.0,0.0,0.0,0.005525480955839157,-0.0032316239085048437,0.005943953059613705,0.9998966455459595,0.01348488125950098,-0.004472157917916775,0.0022151912562549114
199.0,0.0,0.0,0.0,0.0,0.0,0.0,0.006146697793155909,-0.007647997234016657,-0.00240429793484509,0.9998822808265686,0.014168043620884418,-0.005340359639376402,0.0024618373718112707
200.0,0.0,0.0,0.0,0.0,0.0,0.0,0.01035100594162941,-0.008588074706494808,-0.011558416299521923,0.9998780488967896,0.014111287891864777,-0.005979031790047884,0.0029755360446870327
201.0,0.0,0.0,0.0,0.0,0.0,0.0,0.012584607116878033,-0.004185251891613007,0.002114727161824703,0.9998791813850403,0.013304678723216057,-0.006909685209393501,0.004109021741896868
202.0,0.0,0.0,0.0,0.0,0.0,0.0,0.006621581967920065,-0.002875707810744643,0.0006683917017653584,0.9998798370361328,0.012486609630286694,-0.007567708380520344,0.005208700895309448
203.0,0.0,0.0,0.0,0.0,0.0,0.0,0.0050763217732310295,-0.0011669608065858483,0.004754034336656332,0.9998813271522522,0.01156054437160492,-0.008335958234965801,0.005832039751112461
204.0,0.0,0.0,0.0,0.0,0.0,0.0,0.010748008266091347,-0.0008584756287746131,0.008471199311316013,0.9998899102210999,0.010175102390348911,-0.008952071890234947,0.006042888388037682
205.0,0.0,0.0,0.0,0.0,0.0,0.0,0.00562534062191844,0.0025793600361794233,0.008615887723863125,0.9998912215232849,0.008494578301906586,-0.009885083884000778,0.006908843759447336
206.0,0.0,0.0,0.0,0.0,0.0,0.0,-0.011372432112693787,0.00742212263867259,0.014964908361434937,0.9998950362205505,0.00752986827865243,-0.010098849423229694,0.007151472382247448
207.0,0.0,0.0,0.0,0.0,0.0,0.0,-0.005684570875018835,0.009005770087242126,0.013315243646502495,0.9999036192893982,0.0074353464879095554,-0.009772535413503647,0.006476015783846378
208.0,0.0,0.0,0.0,0.0,0.0,0.0,-0.009031780995428562,0.011283398605883121,0.019247962161898613,0.9999094009399414,0.007824305444955826,-0.008934496901929379,0.006325822789222002
209.0,0.0,0.0,0.0,0.0,0.0,0.0,-0.007981653325259686,0.010568346828222275,0.0237565990537405,0.9999106526374817,0.00780857540667057,-0.008401021361351013,0.006854071747511625
210.0,0.0,0.0,0.0,0.0,0.0,0.0,-0.0015849184710532427,0.007877902127802372,0.0005229383241385221,0.9999125003814697,0.007809677626937628,-0.007927414029836655,0.007145026698708534
211.0,0.0,0.0,0.0,0.0,0.0,0.0,0.0010533558670431376,0.007042574230581522,-0.013950985856354237,0.9999090433120728,0.008501442149281502,-0.007208657450973988,0.007591066416352987
212.0,0.0,0.0,0.0,0.0,0.0,0.0,0.012337478809058666,0.0051035452634096146,-0.01722695864737034,0.9999011754989624,0.009268931113183498,-0.006741570774465799,0.008133736439049244
213.0,0.0,0.0,0.0,0.0,0.0,0.0,0.013285395689308643,0.004710250534117222,-0.013221119530498981,0.9998883008956909,0.010502981022000313,-0.006417733617126942,0.008472559042274952
214.0,0.0,0.0,0.0,0.0,0.0,0.0,0.010971296578645706,0.006229184567928314,-0.011564770713448524,0.9998838901519775,0.01078250352293253,-0.0061820317059755325,0.00881623849272728
215.0,0.0,0.0,0.0,0.0,0.0,0.0,0.014323069714009762,0.001030464074574411,-0.01638607680797577,0.9998807311058044,0.010928579606115818,-0.006118320859968662,0.009036203846335411
216.0,0.0,0.0,0.0,0.0,0.0,0.0,0.008091069757938385,-0.0017432624008506536,-0.01763833686709404,0.9998750686645508,0.011128312908113003,-0.006316720973700285,0.00928230956196785
217.0,0.0,0.0,0.0,0.0,0.0,0.0,0.00021140497119631618,0.002490091836079955,-0.000720200187060982,0.9998775720596313,0.010873259976506233,-0.006029953248798847,0.00949445553123951
218.0,0.0,0.0,0.0,0.0,0.0,0.0,0.0023457580246031284,0.001956043764948845,0.009899910539388657,0.9998791217803955,0.010452775284647942,-0.0060191708616912365,0.009804232977330685
219.0,0.0,0.0,0.0,0.0,0.0,0.0,0.0028624041005969048,0.0014852298190817237,0.0017132764915004373,0.999878466129303,0.009410847909748554,-0.00666783144697547,0.010490811429917812
220.0,0.0,0.0,0.0,0.0,0.0,0.0,0.0027435135561972857,0.002199852140620351,0.0006858456181362271,0.9998767375946045,0.0091482512652874,-0.0072099752724170685,0.010528544895350933
221.0,0.0,0.0,0.0,0.0,0.0,0.0,0.00471083540469408,0.004202479962259531,0.006315659265965223,0.999874472618103,0.008606357499957085,-0.007858636789023876,0.010733969509601593
222.0,0.0,0.0,0.0,0.0,0.0,0.0,0.0036521716974675655,0.004324095789343119,0.01117635890841484,0.9998626112937927,0.009234534576535225,-0.008636163547635078,0.010715287178754807
223.0,0.0,0.0,0.0,0.0,0.0,0.0,-0.0023763314820826054,0.00380726414732635,0.007414921186864376,0.9998505115509033,0.010274331085383892,-0.00916881114244461,0.010456056334078312
224.0,0.0,0.0,0.0,0.0,0.0,0.0,-0.005127124488353729,0.005994771141558886,0.002748033730313182,0.9998391270637512,0.010450692847371101,-0.009418957866728306,0.011124886572360992
225.0,0.0,0.0,0.0,0.0,0.0,0.0,-0.0019317701226100326,0.0030141775496304035,0.005930320359766483,0.9998218417167664,0.011107414029538631,-0.009496756829321384,0.011944925412535667
226.0,0.0,0.0,0.0,0.0,0.0,0.0,-0.008507824502885342,0.0003059231676161289,0.008649456314742565,0.9998093247413635,0.012445139698684216,-0.009070768021047115,0.012003502808511257
227.0,0.0,0.0,0.0,0.0,0.0,0.0,0.00656640250235796,-0.0015798402018845081,-0.0032441318035125732,0.9998011589050293,0.013140140101313591,-0.008987885899841785,0.012010466307401657
228.0,0.0,0.0,0.0,0.0,0.0,0.0,0.0015690154395997524,-0.002901888219639659,-0.00957861915230751,0.9997910857200623,0.01387686189264059,-0.00913998857140541,0.011901640333235264
229.0,0.0,0.0,0.0,0.0,0.0,0.0,0.001150202821008861,-0.004778848960995674,-0.002115855226293206,0.9997909069061279,0.01489601656794548,-0.009076009504497051,0.01067006029188633
230.0,0.0,0.0,0.0,0.0,0.0,0.0,-0.002200086833909154,-0.0017889488954097033,-0.004267972894012928,0.9998039603233337,0.014737725257873535,-0.009145076386630535,0.00955145712941885
231.0,0.0,0.0,0.0,0.0,0.0,0.0,0.00019859739404637367,-0.0010494079906493425,-0.006553915794938803,0.9997991323471069,0.015023437328636646,-0.009755757637321949,0.008992072194814682
232.0,0.0,0.0,0.0,0.0,0.0,0.0,-0.01366778090596199,-0.003704426810145378,-0.007543596439063549,0.9997882843017578,0.01588338613510132,-0.010163506492972374,0.00823154579848051
233.0,0.0,0.0,0.0,0.0,0.0,0.0,-0.013409200124442577,-0.0022705814335495234,-0.007650153711438179,0.9997929334640503,0.016391441226005554,-0.010142306797206402,0.006522860378026962
234.0,0.0,0.0,0.0,0.0,0.0,0.0,-0.006452995352447033,-0.004486070480197668,-0.0034141531214118004,0.9997909069061279,0.01648002304136753,-0.01072370819747448,0.005617866758257151
235.0,0.0,0.0,0.0,0.0,0.0,0.0,-0.013815101236104965,-0.0034310929477214813,0.00168687105178833,0.9997966885566711,0.01624250039458275,-0.011043994687497616,0.004565523471683264
236.0,0.0,0.0,0.0,0.0,0.0,0.0,-0.012430492788553238,-0.0044387346133589745,0.0029007531702518463,0.9997889399528503,0.017112962901592255,-0.010995825752615929,0.002876939717680216
237.0,0.0,0.0,0.0,0.0,0.0,0.0,-0.01144152507185936,-0.002144504338502884,0.009363953955471516,0.9997848868370056,0.017409181222319603,-0.011115950532257557,0.0018582155462354422
238.0,0.0,0.0,0.0,0.0,0.0,0.0,-0.01239252183586359,-0.0013273506192490458,0.0074791633524000645,0.9997994303703308,0.016749218106269836,-0.010928163304924965,0.0010550690349191427
239.0,0.0,0.0,0.0,0.0,0.0,0.0,-0.014489442110061646,0.00036567944334819913,0.0037842008750885725,0.9998111724853516,0.01648019254207611,-0.010298867709934711,0.00010058587940875441
240.0,0.0,0.0,0.0,0.0,0.0,0.0,-0.0115565350279212,0.0016761065926402807,0.005189808551222086,0.999825119972229,0.016190895810723305,-0.00931890681385994,-0.0008476636139675975
241.0,0.0,0.0,0.0,0.0,0.0,0.0,-0.008329546079039574,-0.002108129672706127,0.0054167406633496284,0.9998347163200378,0.015845319256186485,-0.008825745433568954,-0.0012664174428209662
242.0,0.0,0.0,0.0,0.0,0.0,0.0,-0.007470333017408848,-0.004617847036570311,0.0035973789636045694,0.9998360872268677,0.01605912484228611,-0.008157310076057911,-0.0018349007004871964
243.0,0.0,0.0,0.0,0.0,0.0,0.0,0.006410915870219469,-0.006533091887831688,-0.0048387679271399975,0.9998508095741272,0.015433740802109241,-0.007542238105088472,-0.0018103684997186065
244.0,0.0,0.0,0.0,0.0,0.0,0.0,0.007850688882172108,-0.00911193247884512,-0.01594863086938858,0.9998760223388672,0.013616357930004597,-0.00784805603325367,-0.0009472305537201464
245.0,0.0,0.0,0.0,0.0,0.0,0.0,-0.013454467058181763,0.002532297046855092,0.00954534113407135,0.9998990893363953,0.011526674963533878,-0.008295058272778988,-0.000337961915647611
246.0,0.0,0.0,0.0,0.0,0.0,0.0,-0.022788623347878456,0.007140277419239283,0.021502213552594185,0.999916672706604,0.009712175466120243,-0.00850414577871561,-7.134606130421162e-05
247.0,0.0,0.0,0.0,0.0,0.0,0.0,-0.014384476467967033,0.00296297506429255,-0.00802741851657629,0.9999340176582336,0.007500417996197939,-0.008646710775792599,0.0009444868192076683
248.0,0.0,0.0,0.0,0.0,0.0,0.0,-0.008394915610551834,0.004998838063329458,-0.004539117682725191,0.9999436140060425,0.005083005875349045,-0.008931181393563747,0.002674944931641221
249.0,0.0,0.0,0.0,0.0,0.0,0.0,-0.008625977672636509,0.010645530186593533,0.00573490047827363,0.9999468922615051,0.004127129912376404,-0.008975936099886894,0.0029298085719347
250.0,0.0,0.0,0.0,0.0,0.0,0.0,-0.006829778663814068,0.0061162612400949,-0.003828879911452532,0.9999508261680603,0.004439669661223888,-0.008578660897910595,0.0022334412205964327
251.0,0.0,0.0,0.0,0.0,0.0,0.0,0.001141397631727159,-0.0031638657674193382,-0.025379691272974014,0.9999560713768005,0.004752327688038349,-0.007917840965092182,0.0016108404379338026
252.0,0.0,0.0,0.0,0.0,0.0,0.0,0.0031983517110347748,7.611379260197282e-05,-0.012409919872879982,0.9999577403068542,0.004975873976945877,-0.007515528239309788,0.0017811399884521961
253.0,0.0,0.0,0.0,0.0,0.0,0.0,0.0027582021430134773,-0.0004933599266223609,0.015471775084733963,0.9999539256095886,0.005425951909273863,-0.0076687755063176155,0.0019727011676877737
254.0,0.0,0.0,0.0,0.0,0.0,0.0,0.014204333536326885,-0.005442033056169748,-0.0004600598767865449,0.9999485611915588,0.0056510004214942455,-0.008194617927074432,0.001923340023495257
255.0,0.0,0.0,0.0,0.0,0.0,0.0,0.01595725491642952,-0.00538439117372036,-0.008264081552624702,0.9999402165412903,0.006624212488532066,-0.008498303592205048,0.0018402206478640437
256.0,0.0,0.0,0.0,0.0,0.0,0.0,0.007019868586212397,-0.002249918645247817,0.01752243936061859,0.9999343752861023,0.0069479914382100105,-0.008718541823327541,0.002634193981066346
257.0,0.0,0.0,0.0,0.0,0.0,0.0,0.007531977258622646,0.0008519137627445161,0.023420359939336777,0.9999348521232605,0.0063567375764250755,-0.008721310645341873,0.0037204790860414505
258.0,0.0,0.0,0.0,0.0,0.0,0.0,0.01456139050424099,-0.003311426378786564,-0.0010899974731728435,0.9999277591705322,0.005700521171092987,-0.009229959920048714,0.005172417964786291
259.0,0.0,0.0,0.0,0.0,0.0,0.0,0.0023587977048009634,-0.007119703106582165,-0.017731737345457077,0.9999261498451233,0.0048767151311039925,-0.009398296475410461,0.0059641688130795956
260.0,0.0,0.0,0.0,0.0,0.0,0.0,0.014958669431507587,-0.0070763155817985535,-0.009202906861901283,0.9999232888221741,0.004424854181706905,-0.00983076635748148,0.0060981810092926025
261.0,0.0,0.0,0.0,0.0,0.0,0.0,0.00898541696369648,-0.007967616431415081,-0.009537466801702976,0.9999197125434875,0.004503592383116484,-0.010180066339671612,0.00605848478153348
262.0,0.0,0.0,0.0,0.0,0.0,0.0,-0.007957817986607552,0.00035126719740219414,0.0053241862915456295,0.9999198913574219,0.0056649474427104,-0.009760660119354725,0.005728106014430523
263.0,0.0,0.0,0.0,0.0,0.0,0.0,-0.011019994504749775,0.008756906725466251,0.024679560214281082,0.9999053478240967,0.007227613124996424,-0.009921264834702015,0.006218891590833664
264.0,0.0,0.0,0.0,0.0,0.0,0.0,0.0037415435072034597,-0.002219956601038575,-0.002214528154581785,0.9998819231987,0.008378207683563232,-0.010935071855783463,0.006805593613535166
265.0,0.0,0.0,0.0,0.0,0.0,0.0,0.012957046739757061,-0.012909725308418274,-0.02594500407576561,0.9998674988746643,0.009348098188638687,-0.011635380797088146,0.006499899085611105
266.0,0.0,0.0,0.0,0.0,0.0,0.0,0.026904553174972534,-0.02073770947754383,-0.03297831863164902,0.9998472332954407,0.008921773172914982,-0.013500037603080273,0.006597958505153656
267.0,0.0,0.0,0.0,0.0,0.0,0.0,0.001475152326747775,-0.004774440545588732,0.026601945981383324,0.999825656414032,0.007655676454305649,-0.015272824093699455,0.007537455763667822
268.0,0.0,0.0,0.0,0.0,0.0,0.0,-0.0199736300855875,0.000782615621574223,0.041883375495672226,0.9998260140419006,0.005674835294485092,-0.015995435416698456,0.0077406964264810085
269.0,0.0,0.0,0.0,0.0,0.0,0.0,-0.009237726218998432,0.004534127190709114,-0.0015613662544637918,0.9998283386230469,0.004493172746151686,-0.01602652296423912,0.008138548582792282
270.0,0.0,0.0,0.0,0.0,0.0,0.0,-0.017895715311169624,0.007397711277008057,0.0068725463934242725,0.9998341798782349,0.004178493749350309,-0.015124542638659477,0.009241067804396152
271.0,0.0,0.0,0.0,0.0,0.0,0.0,-0.01138909999281168,0.007824859581887722,0.014092893339693546,0.9998313784599304,0.0033846639562398195,-0.014550653286278248,0.010674628429114819
272.0,0.0,0.0,0.0,0.0,0.0,0.0,-0.004901165142655373,0.004201998934149742,0.002691346686333418,0.9998370409011841,0.0025025885552167892,-0.014097987674176693,0.010991549119353294
273.0,0.0,0.0,0.0,0.0,0.0,0.0,-0.0011061223922297359,-0.002263359259814024,-0.0227523073554039,0.99985271692276,0.001976950094103813,-0.013601540587842464,0.010276383720338345
274.0,0.0,0.0,0.0,0.0,0.0,0.0,-0.006947288289666176,-0.0028968199621886015,-0.01585058495402336,0.9998705983161926,0.0020178540144115686,-0.013121644966304302,0.009079287759959698
275.0,0.0,0.0,0.0,0.0,0.0,0.0,-0.01490675937384367,-0.0002624192857183516,0.00593517767265439,0.9998896718025208,0.002075375523418188,-0.012603466399013996,0.007579418830573559
276.0,0.0,0.0,0.0,0.0,0.0,0.0,-0.02443401888012886,0.0043587894178926945,0.012963885441422462,0.9999050498008728,0.001928289420902729,-0.012087791226804256,0.0063239592127501965
277.0,0.0,0.0,0.0,0.0,0.0,0.0,-0.022005852311849594,0.005517155397683382,0.013427500613033772,0.9999191164970398,0.0017209206707775593,-0.01113070361316204,0.0059013343416154385
278.0,0.0,0.0,0.0,0.0,0.0,0.0,-0.015459241345524788,0.002282275352627039,0.006496444344520569,0.9999287724494934,0.0020281122997403145,-0.010380852967500687,0.005518270656466484
279.0,0.0,0.0,0.0,0.0,0.0,0.0,-0.0036870576441287994,-0.0014663591282442212,-0.00838259607553482,0.9999359846115112,0.0020717151928693056,-0.00995880551636219,0.004950791131705046
280.0,0.0,0.0,0.0,0.0,0.0,0.0,-0.00012575063738040626,-0.002242990303784609,0.0012729080626741052,0.9999366998672485,0.001819722936488688,-0.009874900802969933,0.005083686672151089
281.0,0.0,0.0,0.0,0.0,0.0,0.0,0.0007721515721641481,-0.003286618273705244,0.004847826901823282,0.9999309182167053,0.0014692603144794703,-0.010085947811603546,0.00584421306848526
282.0,0.0,0.0,0.0,0.0,0.0,0.0,-0.003915509674698114,0.00022284951410256326,0.00016453920397907495,0.9999324679374695,0.0007803998305462301,-0.010120134800672531,0.005659835878759623
283.0,0.0,0.0,0.0,0.0,0.0,0.0,0.008250645361840725,-0.0007406537188217044,0.005276856478303671,0.9999324083328247,0.0007328655919991434,-0.010361235588788986,0.005207604728639126
284.0,0.0,0.0,0.0,0.0,0.0,0.0,0.00452126981690526,-0.0021105867344886065,0.00967725645750761,0.9999292492866516,0.00024365624994970858,-0.010653248988091946,0.005289329681545496
285.0,0.0,0.0,0.0,0.0,0.0,0.0,0.0029065776616334915,-0.0025059496983885765,0.006746236234903336,0.9999253749847412,0.000580465653911233,-0.011063296347856522,0.005142229609191418
286.0,0.0,0.0,0.0,0.0,0.0,0.0,0.0025604967959225178,-0.002579584950581193,0.004782226402312517,0.9999266266822815,0.0005931309424340725,-0.011105152778327465,0.004798997659236193
287.0,0.0,0.0,0.0,0.0,0.0,0.0,-0.0007662595016881824,-0.0016950410790741444,0.0019245477160438895,0.9999324679374695,0.0004608643357641995,-0.010793195106089115,0.004280960652977228
288.0,0.0,0.0,0.0,0.0,0.0,0.0,0.0005798221100121737,-0.0028255979996174574,0.0014399565989151597,0.999934732913971,0.0005159034626558423,-0.010643704794347286,0.0041165477596223354
289.0,0.0,0.0,0.0,0.0,0.0,0.0,0.0020679724402725697,-0.0008258392917923629,0.002138444921001792,0.9999327659606934,9.917342686094344e-05,-0.010721525177359581,0.004408903419971466
290.0,0.0,0.0,0.0,0.0,0.0,0.0,0.0014075865037739277,0.0006308783194981515,0.006572254467755556,0.9999484419822693,0.000834024278447032,-0.009887953288853168,0.002131498185917735
291.0,0.0,0.0,0.0,0.0,0.0,0.0,0.00334743270650506,0.001366209122352302,0.002581208711490035,0.9999496936798096,0.0016137039056047797,-0.009626660495996475,0.0023022720124572515
292.0,0.0,0.0,0.0,0.0,0.0,0.0,0.005649210419505835,-0.0005495385848917067,-0.008068710565567017,0.9999477863311768,0.002354661002755165,-0.009460099041461945,0.0030621697660535574
293.0,0.0,0.0,0.0,0.0,0.0,0.0,2.7603822672972456e-05,0.000706189894117415,-0.006483535282313824,0.9999520182609558,0.0032391457352787256,-0.008805831894278526,0.002825464354828
294.0,0.0,0.0,0.0,0.0,0.0,0.0,0.0007452498539350927,0.0005127792828716338,-0.001630901824682951,0.9999516010284424,0.004348594229668379,-0.008455228060483932,0.0025214008055627346
295.0,0.0,0.0,0.0,0.0,0.0,0.0,0.00070749077713117,-0.0004080000799149275,-0.005434509366750717,0.9999494552612305,0.00495349895209074,-0.008294250816106796,0.002782518044114113
296.0,0.0,0.0,0.0,0.0,0.0,0.0,-0.004367189947515726,0.001414102385751903,-0.0051335860043764114,0.9999494552612305,0.004946231842041016,-0.00829218327999115,0.0027969267684966326
297.0,0.0,0.0,0.0,0.0,0.0,0.0,0.000136174974613823,0.0016917240573093295,-0.004304335918277502,0.9999470710754395,0.004926080349832773,-0.008480907417833805,0.0031101368367671967
298.0,0.0,0.0,0.0,0.0,0.0,0.0,0.0009054376278072596,0.001510332920588553,-0.004000801593065262,0.9999471306800842,0.005398748442530632,-0.008306857198476791,0.0027470390778034925
299.0,0.0,0.0,0.0,0.0,0.0,0.0,-0.0025127434637397528,-0.001195098739117384,-0.0011845887638628483,0.9999459981918335,0.005955591797828674,-0.008131102658808231,0.002527782926335931
300.0,0.0,0.0,0.0,0.0,0.0,0.0,-0.0014652448007836938,-0.0021221928764134645,-0.0008236902067437768,0.9999416470527649,0.005439200438559055,-0.008966473862528801,0.0025940686464309692
301.0,0.0,0.0,0.0,0.0,0.0,0.0,0.00014483198174275458,-0.004707086831331253,-0.0023063351400196552,0.9999329447746277,0.005596413742750883,-0.009872835129499435,0.002307764021679759
302.0,0.0,0.0,0.0,0.0,0.0,0.0,-0.0002771205035969615,-0.008936736732721329,-0.008247758261859417,0.9999245405197144,0.005603245459496975,-0.010775649920105934,0.0018443005392327905
303.0,0.0,0.0,0.0,0.0,0.0,0.0,-0.0016444579232484102,-0.007089383900165558,-0.0017277670558542013,0.9999169707298279,0.005226928275078535,-0.011649250984191895,0.0017421937081962824
304.0,0.0,0.0,0.0,0.0,0.0,0.0,-0.002951900940388441,-0.0075751920230686665,0.007865223102271557,0.9999131560325623,0.004906059708446264,-0.012139196507632732,0.0014808508567512035
305.0,0.0,0.0,0.0,0.0,0.0,0.0,-0.009166070260107517,-0.008073964156210423,0.011314205825328827,0.9999162554740906,0.004507192876189947,-0.01210775040090084,0.0007060857606120408
306.0,0.0,0.0,0.0,0.0,0.0,0.0,-0.01073184609413147,-0.01014536339789629,0.0052676936611533165,0.9999271631240845,0.0040658931247889996,-0.011327524669468403,-0.0008575286483392119
307.0,0.0,0.0,0.0,0.0,0.0,0.0,-0.0073575847782194614,-0.00868229940533638,0.0031588105484843254,0.9999389052391052,0.0033107229974120855,-0.010205687955021858,-0.0026494234334677458
308.0,0.0,0.0,0.0,0.0,0.0,0.0,-0.003086129203438759,-0.0013475115410983562,0.007832692004740238,0.99994957447052,0.0023033132310956717,-0.009123568423092365,-0.0035000890493392944
309.0,0.0,0.0,0.0,0.0,0.0,0.0,0.0033480452839285135,0.006022504530847073,0.012140610255300999,0.9999581575393677,0.002256058156490326,-0.00790115911513567,-0.004020219203084707
310.0,0.0,0.0,0.0,0.0,0.0,0.0,-0.01989421434700489,0.005696156993508339,0.019163422286510468,0.9999660849571228,0.0027021949645131826,-0.006490122992545366,-0.004277060739696026
311.0,0.0,0.0,0.0,0.0,0.0,0.0,0.0033114205580204725,0.004313897341489792,0.010197692550718784,0.9999739527702332,0.0033717621117830276,-0.005372205749154091,-0.0034445745404809713
312.0,0.0,0.0,0.0,0.0,0.0,0.0,0.012537707574665546,0.003973347134888172,-0.005871591158211231,0.9999793767929077,0.003951946273446083,-0.004718478303402662,-0.0018343387637287378
313.0,0.0,0.0,0.0,0.0,0.0,0.0,0.016106821596622467,0.006017334293574095,-0.010822431184351444,0.9999819993972778,0.004030230455100536,-0.00443811621516943,-0.00012949366646353155
314.0,0.0,0.0,0.0,0.0,0.0,0.0,0.01954702101647854,0.006173038389533758,-0.012975363060832024,0.9999793767929077,0.004429385531693697,-0.00448027765378356,0.0012459552381187677
315.0,0.0,0.0,0.0,0.0,0.0,0.0,0.015440424904227257,0.007848573848605156,-0.008672589436173439,0.9999754428863525,0.004493969026952982,-0.00468462286517024,0.00265524978749454
316.0,0.0,0.0,0.0,0.0,0.0,0.0,0.013442318886518478,0.006048918701708317,-0.0075702122412621975,0.9999679327011108,0.005192686337977648,-0.0047514354810118675,0.0038167780730873346
317.0,0.0,0.0,0.0,0.0,0.0,0.0,0.011669036000967026,0.00577939860522747,-0.008015666157007217,0.9999634027481079,0.005590750370174646,-0.004725926090031862,0.004421795718371868
318.0,0.0,0.0,0.0,0.0,0.0,0.0,0.005599909462034702,0.007163831032812595,-0.004987719468772411,0.9999614953994751,0.005618477705866098,-0.004367645364254713,0.005129782948642969
319.0,0.0,0.0,0.0,0.0,0.0,0.0,-0.00016470316040795296,0.008143586106598377,-0.0012491154484450817,0.9999590516090393,0.005731238517910242,-0.004228096920996904,0.0055818501859903336
320.0,0.0,0.0,0.0,0.0,0.0,0.0,-0.00362523109652102,0.008119700476527214,-0.008514503948390484,0.9999616742134094,0.0052322326228022575,-0.004325340036302805,0.005522090941667557
321.0,0.0,0.0,0.0,0.0,0.0,0.0,-0.004889632109552622,0.007925744168460369,-0.005117936059832573,0.9999619722366333,0.005300628487020731,-0.004167491104453802,0.005528352688997984
322.0,0.0,0.0,0.0,0.0,0.0,0.0,-0.002838809508830309,0.007738007232546806,-0.0061175161972641945,0.9999622106552124,0.005359729286283255,-0.004091721493750811,0.005481037311255932
323.0,0.0,0.0,0.0,0.0,0.0,0.0,0.004210158716887236,0.00669491570442915,-0.0011432594619691372,0.9999642968177795,0.005387406330555677,-0.0038825038354843855,0.005221028812229633
324.0,0.0,0.0,0.0,0.0,0.0,0.0,0.002415249589830637,0.004370103590190411,0.017596008256077766,0.9999666213989258,0.006031041033565998,-0.003571624867618084,0.0041948650032281876
325.0,0.0,0.0,0.0,0.0,0.0,0.0,-0.005491931457072496,0.0029670342337340117,-0.008878356777131557,0.9999703168869019,0.00610280130058527,-0.003336709924042225,0.0033073686063289642
326.0,0.0,0.0,0.0,0.0,0.0,0.0,-0.0021992065012454987,0.0015327211003750563,0.004046957474201918,0.9999723434448242,0.005850778426975012,-0.003146969247609377,0.003338378621265292
327.0,0.0,0.0,0.0,0.0,0.0,0.0,0.006297342013567686,-0.003602211596444249,0.011666342616081238,0.9999713897705078,0.0055436328984797,-0.00403960607945919,0.0031919085886329412
328.0,0.0,0.0,0.0,0.0,0.0,0.0,0.0005960768321529031,-0.007625006139278412,0.00019073195289820433,0.9999715089797974,0.004661284852772951,-0.005253231152892113,0.0027530905790627003
329.0,0.0,0.0,0.0,0.0,0.0,0.0,-0.00901546236127615,-0.008049429394304752,-0.001958739012479782,0.9999760389328003,0.004259546287357807,-0.005180788692086935,0.0017259021988138556
330.0,0.0,0.0,0.0,0.0,0.0,0.0,0.003969473764300346,-0.0008883978007361293,-0.01997382566332817,0.999976634979248,0.004098428878933191,-0.005422687157988548,0.0007153129554353654
331.0,0.0,0.0,0.0,0.0,0.0,0.0,-0.018856434151530266,0.0060924808494746685,0.040784839540719986,0.9999753832817078,0.004392132628709078,-0.005460610147565603,0.00025061157066375017
332.0,0.0,0.0,0.0,0.0,0.0,0.0,-0.022085115313529968,-0.003985333722084761,0.009891259483993053,0.9999789595603943,0.004501071758568287,-0.004646955523639917,-0.00047156287473626435
333.0,0.0,0.0,0.0,0.0,0.0,0.0,0.004502097610384226,-0.006449553184211254,-0.021321848034858704,0.9999797344207764,0.004550509620457888,-0.004433783236891031,-0.00036400233511812985
334.0,0.0,0.0,0.0,0.0,0.0,0.0,-0.0025456079747527838,-0.0007038424955680966,0.0013995521003380418,0.9999783635139465,0.005159331951290369,-0.004051726311445236,-0.0004907893599011004
335.0,0.0,0.0,0.0,0.0,0.0,0.0,0.004453608766198158,-0.001067285775206983,0.005296888295561075,0.9999768137931824,0.005405921954661608,-0.004139938857406378,-7.673646905459464e-05
336.0,0.0,0.0,0.0,0.0,0.0,0.0,0.0014893438201397657,0.0004172598710283637,0.008061782456934452,0.9999772906303406,0.005164074245840311,-0.004333370830863714,7.739581633359194e-05
337.0,0.0,0.0,0.0,0.0,0.0,0.0,0.008809161372482777,-0.0004894872545264661,-0.001731695025227964,0.9999762773513794,0.005748615134507418,-0.003794180229306221,0.0001366880169371143
338.0,0.0,0.0,0.0,0.0,0.0,0.0,0.014165837317705154,0.0001603226992301643,-0.0002226707001682371,0.9999752640724182,0.005608390085399151,-0.0040847244672477245,0.0010990648297592998
339.0,0.0,0.0,0.0,0.0,0.0,0.0,0.005996644496917725,0.0038548598531633615,0.0015476993285119534,0.9999720454216003,0.004902840591967106,-0.00500250281766057,0.0026024107355624437
340.0,0.0,0.0,0.0,0.0,0.0,0.0,0.008765824139118195,0.002915517892688513,-0.003287853440269828,0.999970018863678,0.005055449437350035,-0.005145369563251734,0.0028156389016658068
341.0,0.0,0.0,0.0,0.0,0.0,0.0,0.015388770960271358,0.00047489223652519286,-0.01925191469490528,0.9999715089797974,0.004542435985058546,-0.0054035186767578125,0.0026816779281944036
342.0,0.0,0.0,0.0,0.0,0.0,0.0,0.005055038724094629,0.004868726246058941,-0.003397323191165924,0.9999708533287048,0.005119044333696365,-0.005297576542943716,0.0019933602306991816
343.0,0.0,0.0,0.0,0.0,0.0,0.0,-0.0013713474618270993,0.0006232123705558479,0.01494479738175869,0.9999688863754272,0.005666479002684355,-0.0053602540865540504,0.0011312449350953102
344.0,0.0,0.0,0.0,0.0,0.0,0.0,-0.006878089625388384,0.0015292820753529668,-0.003932178020477295,0.9999688863754272,0.005893673747777939,-0.005238426849246025,7.990637823240831e-05
345.0,0.0,0.0,0.0,0.0,0.0,0.0,0.0014194127870723605,-0.005012521054595709,-0.004525612574070692,0.9999638199806213,0.006922225933521986,-0.0049070934765040874,-0.0005509615875780582
346.0,0.0,0.0,0.0,0.0,0.0,0.0,-0.0032036860939115286,-0.0043225414119660854,0.0020431980956345797,0.999965250492096,0.0070359534583985806,-0.004451818764209747,-0.00037445311318151653
347.0,0.0,0.0,0.0,0.0,0.0,0.0,0.011950918473303318,-0.0017000955995172262,0.00348559208214283,0.999965250492096,0.007181115448474884,-0.004193328320980072,0.0005810474394820631
348.0,0.0,0.0,0.0,0.0,0.0,0.0,0.01358658168464899,-0.0035939442459493876,0.014785213395953178,0.9999608993530273,0.007669569458812475,-0.004186021164059639,0.001355907879769802
349.0,0.0,0.0,0.0,0.0,0.0,0.0,0.0079604871571064,-0.0030149808153510094,0.004562592599540949,0.9999638795852661,0.007146855816245079,-0.004063242115080357,0.002148484578356147
350.0,0.0,0.0,0.0,0.0,0.0,0.0,0.017428399994969368,-0.000988057698123157,-0.008306722156703472,0.9999622106552124,0.006999823730438948,-0.004296198021620512,0.0028385778423398733
351.0,0.0,0.0,0.0,0.0,0.0,0.0,0.014580423943698406,-0.003630678867921233,-0.01092590019106865,0.9999597072601318,0.007260180544108152,-0.004437251482158899,0.0028458419255912304
352.0,0.0,0.0,0.0,0.0,0.0,0.0,0.009409377351403236,-0.004571453668177128,-0.009883161634206772,0.9999560713768005,0.007846822030842304,-0.004537677392363548,0.0023918780498206615
353.0,0.0,0.0,0.0,0.0,0.0,0.0,0.002410789718851447,-0.005920149385929108,-0.003322642995044589,0.9999513030052185,0.008548914454877377,-0.004612287972122431,0.001747317728586495
354.0,0.0,0.0,0.0,0.0,0.0,0.0,-0.0028720044065266848,-0.0015475257532671094,-0.0033583296462893486,0.9999547004699707,0.008105182088911533,-0.004854279570281506,0.0011296955635771155
355.0,0.0,0.0,0.0,0.0,0.0,0.0,-0.005210286471992731,-0.0012929405784234405,-0.001169710187241435,0.9999544620513916,0.00800393708050251,-0.005091753788292408,0.0010204387363046408
356.0,0.0,0.0,0.0,0.0,0.0,0.0,-0.0005123856826685369,-0.00479055754840374,0.0008386432309634984,0.9999572038650513,0.007407023571431637,-0.005470934323966503,0.0008960898849181831
357.0,0.0,0.0,0.0,0.0,0.0,0.0,0.0006177786854095757,-0.0022943539079278708,-0.0013654191279783845,0.9999597668647766,0.0064945220947265625,-0.0061110337264835835,0.0009507568320259452
358.0,0.0,0.0,0.0,0.0,0.0,0.0,-0.00331086665391922,0.0013068169355392456,0.000518321874551475,0.9999616146087646,0.005969780497252941,-0.006375978700816631,0.0006487262435257435
359.0,0.0,0.0,0.0,0.0,0.0,0.0,-0.0015106784412637353,0.0009610601118765771,0.0033065530005842447,0.9999616742134094,0.005995867308229208,-0.006354027893394232,0.0006085711065679789
360.0,0.0,0.0,0.0,0.0,0.0,0.0,-0.006760525517165661,0.004285132046788931,0.007543592713773251,0.9999608397483826,0.005947334226220846,-0.006441804114729166,0.0012022638693451881
361.0,0.0,0.0,0.0,0.0,0.0,0.0,-0.00836150161921978,0.0031982874497771263,0.012062757275998592,0.9999595284461975,0.006338425911962986,-0.006330620497465134,0.0007657413952983916
362.0,0.0,0.0,0.0,0.0,0.0,0.0,-0.0010051351273432374,-0.0007014275761321187,-0.005266932304948568,0.9999606609344482,0.0058312988840043545,-0.0066743940114974976,0.00043641350930556655
363.0,0.0,0.0,0.0,0.0,0.0,0.0,0.00032501862733624876,0.0023409489076584578,-0.013425428420305252,0.9999569058418274,0.005482099484652281,-0.007432993967086077,0.0008985325112007558
364.0,0.0,0.0,0.0,0.0,0.0,0.0,0.0021381578408181667,0.00396397290751338,0.005575363524258137,0.9999502301216125,0.0058382777497172356,-0.008004898205399513,0.0012077951105311513
365.0,0.0,0.0,0.0,0.0,0.0,0.0,-0.002578885294497013,0.004077306017279625,0.021565936505794525,0.9999428987503052,0.0058211288414895535,-0.008802717551589012,0.0016500875353813171
366.0,0.0,0.0,0.0,0.0,0.0,0.0,-0.0060094124637544155,0.004510125145316124,0.007161909714341164,0.9999434947967529,0.005728979595005512,-0.008743967860937119,0.0019246491137892008
367.0,0.0,0.0,0.0,0.0,0.0,0.0,-0.0001424537185812369,0.004081022925674915,0.009929124265909195,0.999945342540741,0.005631271284073591,-0.008317657746374607,0.0028911407571285963
368.0,0.0,0.0,0.0,0.0,0.0,0.0,0.0055787572637200356,0.0007744047907181084,0.0055125863291323185,0.9999473094940186,0.0053553590551018715,-0.007896799594163895,0.00379169755615294
369.0,0.0,0.0,0.0,0.0,0.0,0.0,0.0022126641124486923,0.0008147425251081586,-0.009840589947998524,0.9999498128890991,0.0058594029396772385,-0.007304063066840172,0.003557653399184346
370.0,0.0,0.0,0.0,0.0,0.0,0.0,0.01352596189826727,-0.0014272379921749234,-0.013270135968923569,0.9999489784240723,0.006128867622464895,-0.007167840842157602,0.0036213116254657507
371.0,0.0,0.0,0.0,0.0,0.0,0.0,-0.0034621083177626133,-0.006796056870371103,-0.00761279696598649,0.9999481439590454,0.0061734626069664955,-0.0071372888050973415,0.0038303944747895002
372.0,0.0,0.0,0.0,0.0,0.0,0.0,0.0009194875019602478,-0.0021879791747778654,-0.008051184937357903,0.9999532103538513,0.0058525740168988705,-0.006945446599274874,0.0033326942939311266
373.0,0.0,0.0,0.0,0.0,0.0,0.0,0.0029592649079859257,0.0012591902632266283,-0.0023263755720108747,0.9999550580978394,0.006543529685586691,-0.00637052720412612,0.002533411607146263
374.0,0.0,0.0,0.0,0.0,0.0,0.0,-0.009020843543112278,0.0010793708497658372,0.004361053463071585,0.9999547004699707,0.0071350024081766605,-0.005936994217336178,0.002122752135619521
375.0,0.0,0.0,0.0,0.0,0.0,0.0,-0.009297560900449753,0.004066329915076494,0.007985420525074005,0.9999536871910095,0.007392447907477617,-0.005838516168296337,0.0019686128944158554
376.0,0.0,0.0,0.0,0.0,0.0,0.0,-0.007437270600348711,0.008049695752561092,0.003988727927207947,0.9999558925628662,0.007440866436809301,-0.005478486884385347,0.0016625341959297657
377.0,0.0,0.0,0.0,0.0,0.0,0.0,0.0002820130030158907,0.004464955534785986,-0.00833566952496767,0.9999520182609558,0.007960265502333641,-0.005400878842920065,0.00182857655454427
378.0,0.0,0.0,0.0,0.0,0.0,0.0,0.006581735331565142,0.00035639965790323913,-0.011121547780930996,0.9999427199363708,0.00883462093770504,-0.0055506546050310135,0.002362929517403245
379.0,0.0,0.0,0.0,0.0,0.0,0.0,0.006027940195053816,0.00038595718797296286,-0.011620977893471718,0.999936044216156,0.009181720204651356,-0.0059075728058815,0.0029444003012031317
380.0,0.0,0.0,0.0,0.0,0.0,0.0,0.00025733973598107696,0.001743539934977889,-0.00799152348190546,0.9999381303787231,0.00821454357355833,-0.006456354167312384,0.003823148785158992
381.0,0.0,0.0,0.0,0.0,0.0,0.0,-0.0032858368940651417,0.005360466428101063,-0.0018750806339085102,0.999934732913971,0.007452631369233131,-0.0072517115622758865,0.004722102079540491
382.0,0.0,0.0,0.0,0.0,0.0,0.0,-0.004072991199791431,0.002371433889493346,0.002633600030094385,0.999936044216156,0.00650888541713357,-0.00785221066325903,0.004878065548837185
383.0,0.0,0.0,0.0,0.0,0.0,0.0,-0.003980089444667101,0.00219651497900486,-0.00045665548532269895,0.9999333024024963,0.004960579331964254,-0.008715037256479263,0.005721463356167078
384.0,0.0,0.0,0.0,0.0,0.0,0.0,-0.0035171671770513058,0.003471562871709466,0.0033445211593061686,0.9999347925186157,0.0037101665511727333,-0.009073028340935707,0.005854018963873386
385.0,0.0,0.0,0.0,0.0,0.0,0.0,-0.0032377655152231455,0.001586102182045579,0.009543577209115028,0.9999350905418396,0.0019281853456050158,-0.009574530646204948,0.00586691964417696
386.0,0.0,0.0,0.0,0.0,0.0,0.0,-0.006947235204279423,0.003721558954566717,0.01567949913442135,0.9999337196350098,0.000970053777564317,-0.00956790428608656,0.006329299416393042
387.0,0.0,0.0,0.0,0.0,0.0,0.0,-0.011225773021578789,0.0006094172713346779,0.010081101208925247,0.9999358057975769,0.00034044208587147295,-0.009410238824784756,0.00629287539049983
388.0,0.0,0.0,0.0,0.0,0.0,0.0,-0.02777085267007351,0.0069506848230957985,0.01256276573985815,0.9999533891677856,-0.000332376454025507,-0.008163557387888432,0.005131973419338465
389.0,0.0,0.0,0.0,0.0,0.0,0.0,-0.003153500845655799,0.0006691980524919927,0.009849868714809418,0.9999647736549377,-0.0005248266388662159,-0.007154141552746296,0.004350478760898113
390.0,0.0,0.0,0.0,0.0,0.0,0.0,-0.005237252917140722,-0.002908967901021242,-0.012626794166862965,0.9999661445617676,-0.001448317663744092,-0.006813680753111839,0.004370522685348988
391.0,0.0,0.0,0.0,0.0,0.0,0.0,-0.010854620486497879,0.0017850048607215285,-0.015066253952682018,0.9999684691429138,-0.002101123332977295,-0.006385428365319967,0.004235139582306147
392.0,0.0,0.0,0.0,0.0,0.0,0.0,-0.008429108187556267,0.0074860453605651855,-0.005581696517765522,0.999975323677063,-0.0013210255419835448,-0.005905394908040762,0.003558816621080041
393.0,0.0,0.0,0.0,0.0,0.0,0.0,-0.002565415808930993,0.006516682915389538,0.007597519084811211,0.9999797940254211,-5.6631128245498985e-05,-0.005561156198382378,0.00306356861256063
394.0,0.0,0.0,0.0,0.0,0.0,0.0,-0.0006359886610880494,0.005887144710868597,0.004230749327689409,0.9999772310256958,0.00013969851715955883,-0.0057987431064248085,0.0034282675478607416
395.0,0.0,0.0,0.0,0.0,0.0,0.0,0.000963479105848819,0.007535623386502266,-0.005337798502296209,0.99997478723526,0.0007270359783433378,-0.005835380405187607,0.0039672814309597015
396.0,0.0,0.0,0.0,0.0,0.0,0.0,-0.00014415642363019288,0.008185534738004208,0.001532288151793182,0.9999778866767883,0.0019194665364921093,-0.005365816876292229,0.0034414271358400583
397.0,0.0,0.0,0.0,0.0,0.0,0.0,0.009264959953725338,0.004624004941433668,0.000755263608880341,0.9999786615371704,0.0022320582065731287,-0.005645607132464647,0.002406580140814185
398.0,0.0,0.0,0.0,0.0,0.0,0.0,0.008828980848193169,0.0011014860356226563,-0.009152022190392017,0.9999757409095764,0.0027725098188966513,-0.00618006894364953,0.0016121912049129605
399.0,0.0,0.0,0.0,0.0,0.0,0.0,-0.008623812347650528,0.0018455450190231204,-0.009916315786540508,0.9999719858169556,0.003298230702057481,-0.006702512502670288,0.0003966821532230824
400.0,0.0,0.0,0.0,0.0,0.0,0.0,-0.0013524197274819016,0.005113693419843912,-0.0004026677634101361,0.9999626278877258,0.004143709782510996,-0.007565182168036699,-0.0004914707387797534
401.0,0.0,0.0,0.0,0.0,0.0,0.0,-0.013421829789876938,0.004876244347542524,0.01202790904790163,0.9999582171440125,0.005120540969073772,-0.0074681611731648445,-0.001221084501594305
402.0,0.0,0.0,0.0,0.0,0.0,0.0,-0.008105356246232986,0.004765115212649107,0.01061931625008583,0.999952495098114,0.006186041980981827,-0.007319326978176832,-0.0017644691979512572
403.0,0.0,0.0,0.0,0.0,0.0,0.0,0.004780323710292578,0.0028776382096111774,-0.0011750650592148304,0.999941349029541,0.00787363201379776,-0.007168909069150686,-0.001984205562621355
404.0,0.0,0.0,0.0,0.0,0.0,0.0,0.005556749179959297,-0.00023577250249218196,-0.013022685423493385,0.9999276995658875,0.009089542552828789,-0.0074557894840836525,-0.002512285951524973
405.0,0.0,0.0,0.0,0.0,0.0,0.0,0.009348338469862938,-0.002625041641294956,-0.011226484552025795,0.9999234676361084,0.009141821414232254,-0.007692432496696711,-0.0032080577220767736
406.0,0.0,0.0,0.0,0.0,0.0,0.0,0.018610039725899696,-0.0058900765143334866,-0.005264796316623688,0.9999203085899353,0.008584289811551571,-0.008672325871884823,-0.0032208373304456472
407.0,0.0,0.0,0.0,0.0,0.0,0.0,0.003439737716689706,-0.0071311225183308125,0.0028168640565127134,0.9999176263809204,0.007744695991277695,-0.009610412642359734,-0.003527485067024827
408.0,0.0,0.0,0.0,0.0,0.0,0.0,-0.0002795087348204106,0.0028071098495274782,0.00714444275945425,0.99991774559021,0.0067318337969481945,-0.010273519903421402,-0.0036835293285548687
409.0,0.0,0.0,0.0,0.0,0.0,0.0,0.0048407758586108685,0.00492689898237586,0.012615622952580452,0.9999191164970398,0.005868755746632814,-0.011008237488567829,-0.002452785149216652
410.0,0.0,0.0,0.0,0.0,0.0,0.0,-0.0007061912911012769,0.002367426175624132,0.01397617906332016,0.9999501705169678,0.004483297932893038,-0.008910597302019596,-0.00030255303136073053
411.0,0.0,0.0,0.0,0.0,0.0,0.0,-0.001293591340072453,0.008116038516163826,0.01358101423829794,0.9999511241912842,0.0024984432384371758,-0.00945003516972065,0.001455602585338056
412.0,0.0,0.0,0.0,0.0,0.0,0.0,0.0016549027059227228,0.008827685378491879,0.012791343964636326,0.9999421238899231,0.000912560906726867,-0.010213232599198818,0.003237369703128934
413.0,0.0,0.0,0.0,0.0,0.0,0.0,0.0005805506370961666,0.0075153266079723835,0.005512010771781206,0.9999428391456604,0.0007604845450259745,-0.00991856213659048,0.003908772487193346
414.0,0.0,0.0,0.0,0.0,0.0,0.0,0.004154694266617298,0.003513277741149068,-0.010412602685391903,0.9999436140060425,0.0006025065667927265,-0.009653174318373203,0.0043651689775288105
415.0,0.0,0.0,0.0,0.0,0.0,0.0,0.006304418668150902,0.0010357929859310389,-0.01607281155884266,0.9999400973320007,0.0005851926398463547,-0.009811137802898884,0.004810565151274204
416.0,0.0,0.0,0.0,0.0,0.0,0.0,0.0018640768248587847,0.0019289989722892642,-0.007352703250944614,0.9999416470527649,0.0006683229003101587,-0.009662698023021221,0.0047867815010249615
417.0,0.0,0.0,0.0,0.0,0.0,0.0,0.001767973997630179,0.00013796031998936087,-0.005902846343815327,0.9999423623085022,0.0004382008919492364,-0.009565888904035091,0.004843234084546566
418.0,0.0,0.0,0.0,0.0,0.0,0.0,0.0020311130210757256,0.006344160530716181,0.0020424374379217625,0.9999378323554993,0.0001469917770009488,-0.009903416968882084,0.0051157004199922085
419.0,0.0,0.0,0.0,0.0,0.0,0.0,0.0014744532527402043,0.007841807790100574,0.014096100814640522,0.9999350905418396,0.0004390183894429356,-0.010123832151293755,0.005201344843953848
420.0,0.0,0.0,0.0,0.0,0.0,0.0,0.005314643960446119,0.0028870597016066313,0.006525123026221991,0.9999309778213501,0.0012927637435495853,-0.010253779590129852,0.005575209390372038
421.0,0.0,0.0,0.0,0.0,0.0,0.0,0.006843671202659607,0.0005257190787233412,-0.006724158767610788,0.9999240040779114,0.0016662220004945993,-0.01064071711152792,0.005989459343254566
422.0,0.0,0.0,0.0,0.0,0.0,0.0,0.005306989885866642,9.61132682277821e-05,-0.0048119546845555305,0.9999241232872009,0.0022013462148606777,-0.010700792074203491,0.005696181673556566
423.0,0.0,0.0,0.0,0.0,0.0,0.0,0.005746558308601379,-0.0034809052012860775,0.0013176777865737677,0.9999228119850159,0.0025733448565006256,-0.010676120407879353,0.00580856716260314
424.0,0.0,0.0,0.0,0.0,0.0,0.0,-0.00017409835709258914,-0.0014204216422513127,0.0016961568035185337,0.9999303817749023,0.0019323888700455427,-0.01041176076978445,0.005204630084335804
425.0,0.0,0.0,0.0,0.0,0.0,0.0,0.007611089386045933,-0.001889337319880724,0.0014836062910035253,0.9999299049377441,0.0021901188883930445,-0.0103115513920784,0.005384815391153097
426.0,0.0,0.0,0.0,0.0,0.0,0.0,-0.015438874252140522,-0.006133752409368753,-0.002587161725386977,0.9999383091926575,0.0023467543069273233,-0.009756099432706833,0.004762503784149885
427.0,0.0,0.0,0.0,0.0,0.0,0.0,-0.0055656409822404385,-0.004828240256756544,-0.0022410128731280565,0.99994957447052,0.0018368642777204514,-0.009154291823506355,0.003672947408631444
428.0,0.0,0.0,0.0,0.0,0.0,0.0,-0.007714719511568546,-0.005668421275913715,0.003657917259261012,0.9999566674232483,0.0015058714197948575,-0.008584327064454556,0.0032490782905369997
429.0,0.0,0.0,0.0,0.0,0.0,0.0,-0.0003544102073647082,-0.006476201582700014,-0.004220827016979456,0.9999563694000244,0.001017482136376202,-0.008787095546722412,0.002992487046867609
430.0,0.0,0.0,0.0,0.0,0.0,0.0,-0.009529591538012028,-0.005688754376024008,0.0005264356732368469,0.9999608993530273,0.0015083170728757977,-0.008471732959151268,0.0020094928331673145
431.0,0.0,0.0,0.0,0.0,0.0,0.0,-0.0065021151676774025,-0.0064909616485238075,-0.0032113001216202974,0.9999654293060303,0.0014954486396163702,-0.00816340185701847,0.0005000476958230138
432.0,0.0,0.0,0.0,0.0,0.0,0.0,0.00016156105266418308,-0.007139812223613262,-0.0037125246599316597,0.999967098236084,0.001616235706023872,-0.007950244471430779,0.00013695053348783404
433.0,0.0,0.0,0.0,0.0,0.0,0.0,-0.006381796207278967,-0.0064470041543245316,0.008104633539915085,0.9999681711196899,0.0019450733670964837,-0.007704074494540691,-0.0007044989615678787
434.0,0.0,0.0,0.0,0.0,0.0,0.0,-0.010352849029004574,-0.0044907378032803535,0.012734278105199337,0.999970018863678,0.0015303455293178558,-0.007249165326356888,-0.0022393378894776106
435.0,0.0,0.0,0.0,0.0,0.0,0.0,-0.01131015457212925,-0.0011757061583921313,0.0032843921799212694,0.9999726414680481,0.0013951609143987298,-0.006496453657746315,-0.003247638000175357
436.0,0.0,0.0,0.0,0.0,0.0,0.0,-0.005527814384549856,-0.0020006969571113586,0.007584096863865852,0.9999750256538391,0.0011577565455809236,-0.006287239026278257,-0.003021337790414691
437.0,0.0,0.0,0.0,0.0,0.0,0.0,-0.0014563153963536024,-0.005009310785681009,0.0038749573286622763,0.9999750256538391,0.0008821653900668025,-0.006501595489680767,-0.002636806108057499
438.0,0.0,0.0,0.0,0.0,0.0,0.0,-0.0006079353042878211,-0.0051297335885465145,-0.004119932185858488,0.9999739527702332,0.0011415663175284863,-0.006396032869815826,-0.0031268023885786533
439.0,0.0,0.0,0.0,0.0,0.0,0.0,0.002730147447437048,-0.004983001854270697,-0.001231865375302732,0.9999700784683228,0.0010040169581770897,-0.006605276372283697,-0.003900526324287057
440.0,0.0,0.0,0.0,0.0,0.0,0.0,0.002990709152072668,-0.0002933104115072638,0.001598572125658393,0.9999668002128601,0.0017981150886043906,-0.006634408142417669,-0.0043624998070299625
441.0,0.0,0.0,0.0,0.0,0.0,0.0,0.000513240578584373,0.006298987660557032,0.017066380009055138,0.9999662637710571,0.0028848773799836636,-0.006581097841262817,-0.0039616534486413
442.0,0.0,0.0,0.0,0.0,0.0,0.0,-0.0127688217908144,0.004926635883748531,0.023272914811968803,0.9999644756317139,0.0037569121923297644,-0.006003022659569979,-0.004556538537144661
443.0,0.0,0.0,0.0,0.0,0.0,0.0,0.018092479556798935,0.00205283984541893,-0.010289868339896202,0.9999571442604065,0.005147832911461592,-0.006040693260729313,-0.004775837063789368
444.0,0.0,0.0,0.0,0.0,0.0,0.0,0.016308506950736046,0.005260619334876537,-0.019948305562138557,0.9999484419822693,0.006663771346211433,-0.006392462644726038,-0.0042223744094371796
445.0,0.0,0.0,0.0,0.0,0.0,0.0,0.012652747333049774,0.0012453267117962241,-0.00042596308048814535,0.999936044216156,0.00821400061249733,-0.006644110195338726,-0.004028649069368839
446.0,0.0,0.0,0.0,0.0,0.0,0.0,0.016856655478477478,-0.00022894414723850787,-0.007131827529519796,0.9999290108680725,0.008875420317053795,-0.007381895091384649,-0.0029319054447114468
447.0,0.0,0.0,0.0,0.0,0.0,0.0,0.013012390583753586,5.624949699267745e-05,-0.014010073617100716,0.9999194145202637,0.009679189883172512,-0.008110865950584412,-0.0013032087590545416
448.0,0.0,0.0,0.0,0.0,0.0,0.0,0.01331148948520422,0.0006242126692086458,-0.00483985710889101,0.9999027848243713,0.010523185133934021,-0.009142793715000153,-0.00018225968233309686
449.0,0.0,0.0,0.0,0.0,0.0,0.0,0.016616201028227806,-0.00268356641754508,0.001052973442710936,0.9998877644538879,0.010810630396008492,-0.010279644280672073,0.0012955805286765099
450.0,0.0,0.0,0.0,0.0,0.0,0.0,0.020685900002717972,-0.007755617145448923,-0.006190433632582426,0.9998781681060791,0.010531898587942123,-0.011169109493494034,0.00282597285695374
451.0,0.0,0.0,0.0,0.0,0.0,0.0,0.01913781464099884,-0.007479678839445114,-0.006851472891867161,0.999868631362915,0.010070838034152985,-0.012215310707688332,0.003461259650066495
452.0,0.0,0.0,0.0,0.0,0.0,0.0,0.0021016753744333982,0.0009696598863229156,0.013211593963205814,0.9998677372932434,0.008804967626929283,-0.012912255711853504,0.004482493735849857
453.0,0.0,0.0,0.0,0.0,0.0,0.0,-0.0075679044239223,0.004376452416181564,0.008833556436002254,0.9998629093170166,0.007469509728252888,-0.01357367541640997,0.005829966627061367
454.0,0.0,0.0,0.0,0.0,0.0,0.0,-0.010880225338041782,0.005319314077496529,0.007221928332000971,0.9998608827590942,0.006138308439403772,-0.013903956860303879,0.006872991099953651
455.0,0.0,0.0,0.0,0.0,0.0,0.0,-0.012304126285016537,0.0028544962406158447,0.008153636939823627,0.999866247177124,0.005052298307418823,-0.013898265548050404,0.006987114902585745
456.0,0.0,0.0,0.0,0.0,0.0,0.0,0.0049647134728729725,0.0003165988018736243,-0.0018981404136866331,0.9998694062232971,0.0041894507594406605,-0.014054890722036362,0.006792017258703709
457.0,0.0,0.0,0.0,0.0,0.0,0.0,-0.004065960180014372,-0.002273083897307515,0.0014444569824263453,0.9998667240142822,0.0033143803011626005,-0.014353577978909016,0.007031872868537903
458.0,0.0,0.0,0.0,0.0,0.0,0.0,-0.004962455946952105,-0.0034612780436873436,0.001208262867294252,0.999875545501709,0.002916134661063552,-0.014127989299595356,0.006385282147675753
459.0,0.0,0.0,0.0,0.0,0.0,0.0,-0.01176857203245163,0.0010442527709528804,0.005407365504652262,0.9998889565467834,0.0028728230390697718,-0.01344287395477295,0.005748646799474955
460.0,0.0,0.0,0.0,0.0,0.0,0.0,-0.013417973183095455,0.0035109466407448053,0.013307175599038601,0.9999006390571594,0.002271367236971855,-0.01272797305136919,0.0056108771823346615
461.0,0.0,0.0,0.0,0.0,0.0,0.0,-0.012014703825116158,0.0026210974901914597,0.0028313081711530685,0.9999133348464966,0.0019606633577495813,-0.011822112835943699,0.005445884540677071
462.0,0.0,0.0,0.0,0.0,0.0,0.0,-0.0059293764643371105,-0.0018905397737398744,0.0005417783395387232,0.9999297261238098,0.0023854884784668684,-0.010642191395163536,0.004635177552700043
463.0,0.0,0.0,0.0,0.0,0.0,0.0,-0.0031728690955787897,-0.0051951538771390915,0.004455672111362219,0.9999451637268066,0.003445772919803858,-0.009314940311014652,0.0033237908501178026
464.0,0.0,0.0,0.0,0.0,0.0,0.0,-6.289095472311601e-05,-0.00010525457764742896,0.0035257036797702312,0.9999547600746155,0.0036814389750361443,-0.008343101479113102,0.002689987188205123
465.0,0.0,0.0,0.0,0.0,0.0,0.0,-0.0021383678540587425,0.0034328103065490723,0.002776718931272626,0.9999603033065796,0.00402804184705019,-0.0075849322602152824,0.002341535873711109
466.0,0.0,0.0,0.0,0.0,0.0,0.0,0.0004160488024353981,0.004599838983267546,-0.0038868801202625036,0.9999619722366333,0.005274301860481501,-0.006659193895757198,0.00195523165166378
467.0,0.0,0.0,0.0,0.0,0.0,0.0,0.0052255140617489815,0.004004722461104393,-0.0035422451328486204,0.999964714050293,0.0059685795567929745,-0.0057176146656274796,0.0014789426932111382
468.0,0.0,0.0,0.0,0.0,0.0,0.0,0.007673486135900021,0.0011898173252120614,-0.007669084705412388,0.9999666810035706,0.0062307436019182205,-0.005171986296772957,0.0009972240077331662
469.0,0.0,0.0,0.0,0.0,0.0,0.0,0.007940136827528477,0.002282579429447651,-0.010158330202102661,0.9999658465385437,0.006375806871801615,-0.005203749984502792,0.0007442441419698298
470.0,0.0,0.0,0.0,0.0,0.0,0.0,0.003807906061410904,0.00772550655528903,-0.007306785322725773,0.9999626278877258,0.006965994369238615,-0.005115164443850517,0.0003532934933900833
471.0,0.0,0.0,0.0,0.0,0.0,0.0,0.006199394818395376,0.0037620917428284883,-0.0052810548804700375,0.9999575614929199,0.007581797428429127,-0.005217859987169504,0.00018399757391307503
472.0,0.0,0.0,0.0,0.0,0.0,0.0,0.011149740777909756,0.005094953812658787,-0.0038284154143184423,0.9999542236328125,0.007976680062711239,-0.005270280409604311,0.00037971691926941276
473.0,0.0,0.0,0.0,0.0,0.0,0.0,-0.004113865550607443,0.003122831927612424,0.0038263066671788692,0.9999510645866394,0.008427032269537449,-0.005158799700438976,0.0004292094090487808
474.0,0.0,0.0,0.0,0.0,0.0,0.0,0.0003952163679059595,0.004350512288510799,-0.0028152475133538246,0.9999530911445618,0.008185448125004768,-0.005157667212188244,0.00044621506822295487
475.0,0.0,0.0,0.0,0.0,0.0,0.0,0.005373372230678797,0.00392537284642458,-0.0022611154709011316,0.9999526739120483,0.008189918473362923,-0.005224905908107758,0.0005247543449513614
476.0,0.0,0.0,0.0,0.0,0.0,0.0,0.006338136270642281,-0.0013554696924984455,-0.0009970454266294837,0.9999517202377319,0.007997297681868076,-0.005627671722322702,0.0008554115775041282
477.0,0.0,0.0,0.0,0.0,0.0,0.0,0.006485678255558014,-5.919585601077415e-05,-0.005830784793943167,0.9999525547027588,0.007187637034803629,-0.006328930612653494,0.0017555360682308674
478.0,0.0,0.0,0.0,0.0,0.0,0.0,0.005640463903546333,0.0013532638549804688,0.00037895585410296917,0.9999541640281677,0.006099137011915445,-0.007051507011055946,0.002173063578084111
479.0,0.0,0.0,0.0,0.0,0.0,0.0,0.000737357884645462,0.0012014294043183327,0.005448496900498867,0.9999518990516663,0.0058242217637598515,-0.007658096961677074,0.001886551035568118
480.0,0.0,0.0,0.0,0.0,0.0,0.0,0.0022826804779469967,-0.0018600005423650146,0.001689259777776897,0.9999502897262573,0.005968141835182905,-0.007836333476006985,0.0015071789966896176
481.0,0.0,0.0,0.0,0.0,0.0,0.0,-0.001783684827387333,0.0001244604936800897,0.005796313751488924,0.9999498724937439,0.005647491663694382,-0.008017351850867271,0.001982986694201827
482.0,0.0,0.0,0.0,0.0,0.0,0.0,-0.007682461757212877,0.0023847732227295637,0.01597251556813717,0.9999492168426514,0.0053694965317845345,-0.008053702302277088,0.0027824726421386003
483.0,0.0,0.0,0.0,0.0,0.0,0.0,0.00016310243518091738,-0.004006499424576759,0.007304552476853132,0.9999527335166931,0.005208232905715704,-0.00773662980645895,0.0027125105261802673
484.0,0.0,0.0,0.0,0.0,0.0,0.0,-0.004641862586140633,-0.006225659977644682,-0.008752238005399704,0.999965488910675,0.004657592158764601,-0.006660689599812031,0.001718062674626708
485.0,0.0,0.0,0.0,0.0,0.0,0.0,-0.005032781977206469,-0.0026159309782087803,-0.015408243052661419,0.9999716877937317,0.004419008735567331,-0.005965204909443855,0.001197027857415378
486.0,0.0,0.0,0.0,0.0,0.0,0.0,0.004511920269578695,-0.002737476723268628,-0.0036012798082083464,0.9999710917472839,0.004343484994024038,-0.006114192772656679,0.0012858089758083224
487.0,0.0,0.0,0.0,0.0,0.0,0.0,-0.017499351873993874,-0.0017344163497909904,0.006833876483142376,0.9999695420265198,0.00440048985183239,-0.006374940276145935,0.000963481783401221
488.0,0.0,0.0,0.0,0.0,0.0,0.0,-0.0032206568866968155,0.0025018721353262663,0.008393259719014168,0.9999664425849915,0.00475807162001729,-0.006660195998847485,-0.00032322187325917184
489.0,0.0,0.0,0.0,0.0,0.0,0.0,0.0060823895037174225,-0.0001215212105307728,0.0011754869483411312,0.9999600052833557,0.005080336704850197,-0.007320440839976072,-0.0006732919136993587
490.0,0.0,0.0,0.0,0.0,0.0,0.0,-0.00048177127609960735,0.0029048353899270296,0.013681846670806408,0.9999557137489319,0.004931112751364708,-0.00799753051251173,-0.0004113868635613471
491.0,0.0,0.0,0.0,0.0,0.0,0.0,-5.623276229016483e-05,0.006645623128861189,0.0192065741866827,0.9999538660049438,0.005261100362986326,-0.008033595979213715,-4.664437801693566e-05
492.0,0.0,0.0,0.0,0.0,0.0,0.0,-0.0019553895108401775,0.0043981969356536865,0.00583718391135335,0.9999533891677856,0.0056661078706383705,-0.007799567189067602,0.0003043823526240885
493.0,0.0,0.0,0.0,0.0,0.0,0.0,0.005160427186638117,0.0002503601717762649,-0.011967201717197895,0.9999537467956543,0.005869015119969845,-0.007616445422172546,0.0001851632259786129
494.0,0.0,0.0,0.0,0.0,0.0,0.0,0.008448641747236252,0.0005010260501876473,-0.007632642053067684,0.9999489188194275,0.00644298829138279,-0.007747381925582886,0.0007237035897560418
495.0,0.0,0.0,0.0,0.0,0.0,0.0,0.005105666816234589,-0.0016573559259995818,-0.007783931214362383,0.9999437928199768,0.006931623909622431,-0.007917291484773159,0.0012594140134751797
496.0,0.0,0.0,0.0,0.0,0.0,0.0,-9.118701564148068e-05,0.0013201086549088359,-0.008391966111958027,0.9999402165412903,0.007197775412350893,-0.008091396652162075,0.001457321341149509
497.0,0.0,0.0,0.0,0.0,0.0,0.0,-0.004707301501184702,0.002807900309562683,-0.005755290854722261,0.9999406933784485,0.007001741323620081,-0.008193090558052063,0.0015590352704748511
498.0,0.0,0.0,0.0,0.0,0.0,0.0,0.006122462451457977,0.0046203224919736385,-0.0003274751652497798,0.9999348521232605,0.007326376624405384,-0.008572384715080261,0.0017485808348283172
499.0,0.0,0.0,0.0,0.0,0.0,0.0,-0.004056297708302736,0.0036994677502661943,-0.0009285409469157457,0.9999338388442993,0.00751547422260046,-0.008513952605426311,0.0018410994671285152
500.0,0.0,0.0,0.0,0.0,0.0,0.0,-0.005628329236060381,0.0011033298214897513,0.004245848394930363,0.9999336004257202,0.008237906731665134,-0.007899601012468338,0.001591779408045113
501.0,0.0,0.0,0.0,0.0,0.0,0.0,0.0019604566041380167,-0.0029362624045461416,0.000169420221936889,0.9999240040779114,0.009299106895923615,-0.007973293773829937,0.0013792660320177674
502.0,0.0,0.0,0.0,0.0,0.0,0.0,-0.0017107805470004678,-0.001046305289492011,-0.0034848861396312714,0.9999173283576965,0.009261773899197578,-0.008579266257584095,0.002422688063234091
503.0,0.0,0.0,0.0,0.0,0.0,0.0,-0.0036964155733585358,-0.004048462957143784,-0.005023083183914423,0.9999195337295532,0.008748234249651432,-0.008817962370812893,0.002555116545408964
504.0,0.0,0.0,0.0,0.0,0.0,0.0,-0.0017438476206734776,-0.004163998179137707,-0.013749242760241032,0.9999169707298279,0.009222269989550114,-0.008879616856575012,0.0014567116741091013
505.0,0.0,0.0,0.0,0.0,0.0,0.0,-0.0054329982958734035,-0.002657983684912324,0.024197636172175407,0.9999083280563354,0.009974278509616852,-0.009095389395952225,0.0010592081816866994
506.0,0.0,0.0,0.0,0.0,0.0,0.0,-0.007886121980845928,-0.003514147363603115,0.01673145219683647,0.9999107122421265,0.00965479388833046,-0.009183883666992188,0.0010176677023991942
507.0,0.0,0.0,0.0,0.0,0.0,0.0,-0.010627295821905136,-0.00029410357819870114,0.006410121452063322,0.999917209148407,0.009506439790129662,-0.008641188964247704,0.0008064036956056952
508.0,0.0,0.0,0.0,0.0,0.0,0.0,-0.0075353109277784824,0.0006474758265540004,0.004214336164295673,0.9999196529388428,0.009864234365522861,-0.007939474657177925,0.0005142544978298247
509.0,0.0,0.0,0.0,0.0,0.0,0.0,-0.002175600966438651,-0.0015247000847011805,0.005193898919969797,0.9999241828918457,0.009824748151004314,-0.007362612523138523,0.0009173942962661386
510.0,0.0,0.0,0.0,0.0,0.0,0.0,-0.0018280334770679474,-0.004556099884212017,-0.002944590989500284,0.9999217987060547,0.010591705329716206,-0.006608955096453428,0.0006724573904648423
511.0,0.0,0.0,0.0,0.0,0.0,0.0,0.0011510110925883055,-0.007358629256486893,-0.00990169309079647,0.999922513961792,0.011040165089070797,-0.005736845079809427,-0.00020842031517531723
512.0,0.0,0.0,0.0,0.0,0.0,0.0,0.0052394866943359375,-0.005425308831036091,-0.009637327864766121,0.9999340176582336,0.010038290172815323,-0.005558714736253023,-0.0005005811108276248
513.0,0.0,0.0,0.0,0.0,0.0,0.0,0.0032053878530859947,-0.0020758272148668766,-0.006899809930473566,0.9999387264251709,0.009585961699485779,-0.005534069612622261,-0.0002516041568014771
514.0,0.0,0.0,0.0,0.0,0.0,0.0,0.0049728392623364925,-0.00394360302016139,-0.002386888489127159,0.9999362826347351,0.009898658841848373,-0.005367866717278957,-0.0007343447068706155
515.0,0.0,0.0,0.0,0.0,0.0,0.0,0.004962865728884935,-0.004143869038671255,-0.003289125394076109,0.9999398589134216,0.009556973353028297,-0.00530132744461298,-0.0008988646441139281
516.0,0.0,0.0,0.0,0.0,0.0,0.0,0.0058440775610506535,-0.004203373566269875,-0.0030234791338443756,0.9999440312385559,0.008881711401045322,-0.005738824140280485,-0.00018698438361752778
517.0,0.0,0.0,0.0,0.0,0.0,0.0,0.004848588723689318,-0.0008231871179305017,0.00176400993950665,0.9999472498893738,0.008059163577854633,-0.0063547780737280846,-0.00028292887145653367
518.0,0.0,0.0,0.0,0.0,0.0,0.0,0.009051949717104435,0.0032620218116790056,0.00012199124466860667,0.9999458193778992,0.007464668247848749,-0.00719637842848897,-0.0008913774508982897
519.0,0.0,0.0,0.0,0.0,0.0,0.0,0.011118406429886818,-0.002834162674844265,-0.0032849563285708427,0.9999362826347351,0.007668239995837212,-0.008271419443190098,-0.00043854970135726035
520.0,0.0,0.0,0.0,0.0,0.0,0.0,0.00289103202521801,-0.003315392881631851,0.012294269166886806,0.9999303221702576,0.007608591578900814,-0.009018626064062119,-0.00010616083454806358
521.0,0.0,0.0,0.0,0.0,0.0,0.0,0.004722575657069683,0.0011314176954329014,0.01774420030415058,0.9999276399612427,0.007102327886968851,-0.009699751622974873,0.0004034098528791219
522.0,0.0,0.0,0.0,0.0,0.0,0.0,-0.003586407983675599,0.0034590105060487986,0.008525854907929897,0.9999244213104248,0.007055528927594423,-0.010025751776993275,0.0008363155066035688
523.0,0.0,0.0,0.0,0.0,0.0,0.0,0.0021170563995838165,0.003062393283471465,0.006463440600782633,0.9999226331710815,0.006980007980018854,-0.010236317291855812,0.00105765659827739
524.0,0.0,0.0,0.0,0.0,0.0,0.0,0.004542865790426731,0.0007499480270780623,-0.0012515339767560363,0.9999211430549622,0.00701444037258625,-0.010354844853281975,0.001085180789232254
525.0,0.0,0.0,0.0,0.0,0.0,0.0,-0.0024793827906250954,0.00023597363906446844,0.005559578537940979,0.9999220371246338,0.007613519672304392,-0.00983966700732708,0.0010058180196210742
526.0,0.0,0.0,0.0,0.0,0.0,0.0,0.0016932525904849172,-0.0008421431411989033,-0.0007000937475822866,0.9999234676361084,0.007970348931849003,-0.009326337836682796,0.0015904607716947794
527.0,0.0,0.0,0.0,0.0,0.0,0.0,-0.0002705994120333344,0.0008632870158180594,-0.006673844065517187,0.9999276399612427,0.007626861333847046,-0.009005251340568066,0.0023091109469532967
528.0,0.0,0.0,0.0,0.0,0.0,0.0,-0.00542459636926651,0.002238866640254855,-0.004898787941783667,0.9999315142631531,0.008839516900479794,-0.007406907621771097,0.0019831331446766853
529.0,0.0,0.0,0.0,0.0,0.0,0.0,0.003607379738241434,0.0009053092217072845,0.0022293340880423784,0.9999332427978516,0.009266172535717487,-0.006513057742267847,0.002265783492475748
530.0,0.0,0.0,0.0,0.0,0.0,0.0,0.0067200856283307076,0.004959522280842066,-0.0011392750311642885,0.9999367594718933,0.00881686806678772,-0.00628128694370389,0.0030594824347645044
531.0,0.0,0.0,0.0,0.0,0.0,0.0,0.0030620251782238483,0.0062402295880019665,-0.0021954295225441456,0.9999349117279053,0.008843998424708843,-0.006455026101320982,0.003190648974850774
532.0,0.0,0.0,0.0,0.0,0.0,0.0,0.00020316355221439153,0.003179936669766903,-0.00822825450450182,0.9999373555183411,0.00888787116855383,-0.006308629177510738,0.002533901482820511
533.0,0.0,0.0,0.0,0.0,0.0,0.0,0.005472803488373756,0.00119746383279562,-0.010021373629570007,0.9999423027038574,0.008516310714185238,-0.006203018128871918,0.0021037417463958263
534.0,0.0,0.0,0.0,0.0,0.0,0.0,-0.0036343219690024853,0.005285883322358131,-0.0018866680329665542,0.9999502301216125,0.007424131967127323,-0.0064065116457641125,0.0018231682479381561
535.0,0.0,0.0,0.0,0.0,0.0,0.0,0.0016717761754989624,0.006522814743220806,-0.0013914081500843167,0.9999518394470215,0.007006424013525248,-0.00665571354329586,0.0016916962340474129
536.0,0.0,0.0,0.0,0.0,0.0,0.0,-0.014653727412223816,-0.000677109754178673,-0.0001900775678222999,0.9999530911445618,0.007590762805193663,-0.005990089848637581,0.00044255342800170183
537.0,0.0,0.0,0.0,0.0,0.0,0.0,-0.006062392145395279,-4.71951425424777e-05,0.004500135313719511,0.9999513030052185,0.008283698000013828,-0.005310253705829382,-0.0007713939412496984
538.0,0.0,0.0,0.0,0.0,0.0,0.0,0.000386915315175429,-0.00037503469502553344,0.0034421044401824474,0.9999465942382812,0.008722423575818539,-0.00525285629555583,-0.0017551785567775369
539.0,0.0,0.0,0.0,0.0,0.0,0.0,-0.0015189789701253176,0.00032076548086479306,-0.00021709129214286804,0.9999467134475708,0.008916450664401054,-0.00456708949059248,-0.002493356354534626
540.0,0.0,0.0,0.0,0.0,0.0,0.0,-0.0016824493650346994,-0.002783159026876092,-0.0028704204596579075,0.9999470710754395,0.009031467139720917,-0.0044764322228729725,-0.002022732747718692
541.0,0.0,0.0,0.0,0.0,0.0,0.0,-0.0006013158708810806,-0.007855410687625408,-0.01633582077920437,0.9999522566795349,0.00842376984655857,-0.0047751739621162415,-0.001291269320063293
542.0,0.0,0.0,0.0,0.0,0.0,0.0,-0.0164091344922781,-0.004234855528920889,-0.009101825766265392,0.9999549984931946,0.008049465715885162,-0.004697620403021574,-0.001764490152709186
543.0,0.0,0.0,0.0,0.0,0.0,0.0,-0.0038445161189883947,-0.006324610207229853,-0.005954740568995476,0.9999610781669617,0.007205396890640259,-0.004715015180408955,-0.0019452079432085156
544.0,0.0,0.0,0.0,0.0,0.0,0.0,-0.0017135550733655691,0.0013419580645859241,0.002925172448158264,0.9999663233757019,0.005749126430600882,-0.005739609710872173,-0.0011019837111234665
545.0,0.0,0.0,0.0,0.0,0.0,0.0,-0.01790110394358635,0.010486971586942673,0.015668002888560295,0.9999673366546631,0.00505141681060195,-0.006264855619519949,-0.00072349893162027
546.0,0.0,0.0,0.0,0.0,0.0,0.0,-0.013864822685718536,0.007647104095667601,0.010031094774603844,0.999968409538269,0.004631143528968096,-0.00641121668741107,-0.0008053514757193625
547.0,0.0,0.0,0.0,0.0,0.0,0.0,-0.0008047209703363478,0.0014304943615570664,-0.0014347865944728255,0.9999658465385437,0.004097406752407551,-0.007125284988433123,-0.000767048099078238
548.0,0.0,0.0,0.0,0.0,0.0,0.0,-0.002197002060711384,0.0017751469276845455,-0.0031082727946341038,0.9999616742134094,0.003643848467618227,-0.007954736240208149,0.00017497064254712313
549.0,0.0,0.0,0.0,0.0,0.0,0.0,-0.004380301106721163,0.0026194641832262278,0.005419901572167873,0.9999557137489319,0.004417251795530319,-0.00827234797179699,0.0007756876293569803
550.0,0.0,0.0,0.0,0.0,0.0,0.0,-0.002297720406204462,-0.00040828733472153544,0.008609437383711338,0.9999524354934692,0.004957075230777264,-0.008390718139708042,0.00045454982318915427
551.0,0.0,0.0,0.0,0.0,0.0,0.0,0.0009577141609042883,-0.0037261333782225847,0.002710026688873768,0.9999530911445618,0.004374841693788767,-0.008602909743785858,0.0008089258917607367
552.0,0.0,0.0,0.0,0.0,0.0,0.0,0.00585935777053237,-0.0032186885364353657,-0.002422988647595048,0.99995356798172,0.003868699539452791,-0.008776608854532242,0.0008640441228635609
553.0,0.0,0.0,0.0,0.0,0.0,0.0,0.0022317003458738327,-0.0062491148710250854,0.00338137149810791,0.9999495148658752,0.0037327539175748825,-0.00924769602715969,0.001156828599050641
554.0,0.0,0.0,0.0,0.0,0.0,0.0,-0.0047421762719750404,-0.0050165895372629166,0.0026164620649069548,0.999952495098114,0.00278961262665689,-0.009267070330679417,0.0011686650104820728
555.0,0.0,0.0,0.0,0.0,0.0,0.0,0.003684493014588952,-0.007314078509807587,-0.018517276272177696,0.9999528527259827,0.0020706052891910076,-0.009479195810854435,0.0003403969167266041
556.0,0.0,0.0,0.0,0.0,0.0,0.0,-0.0038391943089663982,-0.0030441514682024717,-0.005992746911942959,0.9999576807022095,0.0027805701829493046,-0.00875290296971798,-0.00040827677003107965
557.0,0.0,0.0,0.0,0.0,0.0,0.0,-0.001981516135856509,-0.006052239798009396,0.0060179647989571095,0.9999589920043945,0.002925359643995762,-0.008561970666050911,-0.00026062398683279753
558.0,0.0,0.0,0.0,0.0,0.0,0.0,-0.00856958981603384,0.0009092299733310938,0.011223485693335533,0.9999609589576721,0.0029234979301691055,-0.008292682468891144,-0.0009144521318376064
559.0,0.0,0.0,0.0,0.0,0.0,0.0,0.0003623809607233852,0.0020871954038739204,0.013266215100884438,0.9999577403068542,0.00388504471629858,-0.00800776295363903,-0.002270057564601302
560.0,0.0,0.0,0.0,0.0,0.0,0.0,0.017872272059321404,-0.007621879689395428,-0.009081739000976086,0.9999538660049438,0.004366744309663773,-0.008054712787270546,-0.002871062606573105
561.0,0.0,0.0,0.0,0.0,0.0,0.0,0.015304995700716972,-0.007242981344461441,-0.010498041287064552,0.9999526739120483,0.004086816683411598,-0.008358968421816826,-0.0028306590393185616
562.0,0.0,0.0,0.0,0.0,0.0,0.0,0.0013022214407101274,-0.003881212556734681,0.01962844841182232,0.9999497532844543,0.0050712525844573975,-0.008038075640797615,-0.0031732232309877872
563.0,0.0,0.0,0.0,0.0,0.0,0.0,-0.00294367503374815,-0.0017195597756654024,0.022263893857598305,0.999946117401123,0.0057066394947469234,-0.007994110696017742,-0.003336504101753235
564.0,0.0,0.0,0.0,0.0,0.0,0.0,0.005229583941400051,-0.0038114965427666903,-0.006329418160021305,0.9999447464942932,0.005556885153055191,-0.008378836326301098,-0.003057712223380804
565.0,0.0,0.0,0.0,0.0,0.0,0.0,0.009401366114616394,-0.006771494634449482,-0.01793820410966873,0.9999379515647888,0.00613082991912961,-0.008513413369655609,-0.003747766138985753
566.0,0.0,0.0,0.0,0.0,0.0,0.0,0.007864476181566715,-0.0070025306195020676,0.00026789132971316576,0.9999304413795471,0.006737159565091133,-0.008719230070710182,-0.004190527368336916
567.0,0.0,0.0,0.0,0.0,0.0,0.0,0.005142607726156712,-0.006444559432566166,0.0031387843191623688,0.9999256134033203,0.007088956423103809,-0.009014083072543144,-0.004151575732976198
568.0,0.0,0.0,0.0,0.0,0.0,0.0,0.009020243771374226,-0.002978767268359661,-0.0053164237178862095,0.9999210238456726,0.007592650596052408,-0.009038431569933891,-0.004298228304833174
569.0,0.0,0.0,0.0,0.0,0.0,0.0,-0.002691446105018258,-0.003933402244001627,0.0021536853164434433,0.9999213218688965,0.007557205855846405,-0.009227468632161617,-0.003895000321790576
570.0,0.0,0.0,0.0,0.0,0.0,0.0,0.00484442850574851,-0.0001252800429938361,0.003015275811776519,0.9999219179153442,0.007568904664367437,-0.009330353699624538,-0.003420616267248988
571.0,0.0,0.0,0.0,0.0,0.0,0.0,0.013446325436234474,-0.0004877833416685462,-0.0010660858824849129,0.9999192357063293,0.007814707234501839,-0.009742045775055885,-0.002357208402827382
572.0,0.0,0.0,0.0,0.0,0.0,0.0,0.010075395926833153,-0.0006430773646570742,-0.0029640800785273314,0.9999143481254578,0.00781400129199028,-0.010323605500161648,-0.0018944472540169954
573.0,0.0,0.0,0.0,0.0,0.0,0.0,0.010310932993888855,0.00031689557363279164,-0.0011796274920925498,0.9999110102653503,0.007607492618262768,-0.010841777548193932,-0.0015783081762492657
574.0,0.0,0.0,0.0,0.0,0.0,0.0,0.008409380912780762,-0.0008373918244615197,-0.0024428432807326317,0.9999014735221863,0.007939325645565987,-0.011433348059654236,-0.001805733423680067
575.0,0.0,0.0,0.0,0.0,0.0,0.0,0.0013854117132723331,-0.0001499240315752104,7.018998439889401e-05,0.9998935461044312,0.008592256344854832,-0.011614748276770115,-0.0020378842018544674
576.0,0.0,0.0,0.0,0.0,0.0,0.0,-0.007063086610287428,0.002365380059927702,0.013248552568256855,0.999884843826294,0.009765151888132095,-0.011288645677268505,-0.0027268182020634413
577.0,0.0,0.0,0.0,0.0,0.0,0.0,-0.0053222342394292355,-0.0014737887540832162,0.012192681431770325,0.9998829960823059,0.010351835750043392,-0.010938513092696667,-0.002668750938028097
578.0,0.0,0.0,0.0,0.0,0.0,0.0,-0.004452329594641924,-0.00026005436666309834,0.00440437626093626,0.999883234500885,0.010822338983416557,-0.010526251047849655,-0.002343394560739398
579.0,0.0,0.0,0.0,0.0,0.0,0.0,-0.0033988349605351686,0.00010057547478936613,-9.435343963559717e-05,0.9998820424079895,0.011488671414554119,-0.009962041862308979,-0.002148095751181245
580.0,0.0,0.0,0.0,0.0,0.0,0.0,0.0036236895248293877,-0.004070456139743328,-0.004394025541841984,0.9998847842216492,0.011050473898649216,-0.010364420711994171,-0.0009022332960739732
581.0,0.0,0.0,0.0,0.0,0.0,0.0,0.00937426183372736,-0.00915818102657795,-0.01403838861733675,0.9998845458030701,0.010097556747496128,-0.011355951428413391,-0.00011776141764130443
582.0,0.0,0.0,0.0,0.0,0.0,0.0,0.00020694434351753443,-0.008918287232518196,-0.017754852771759033,0.9998899698257446,0.008235684596002102,-0.012328947894275188,0.00040079368045553565
583.0,0.0,0.0,0.0,0.0,0.0,0.0,0.004260504152625799,0.001011550659313798,-0.007992829196155071,0.9998937249183655,0.006051601842045784,-0.013213413767516613,0.0011135449167340994
584.0,0.0,0.0,0.0,0.0,0.0,0.0,-0.007551221642643213,0.016172736883163452,0.017156586050987244,0.9998911619186401,0.005156300961971283,-0.013667668215930462,0.0020393088925629854
585.0,0.0,0.0,0.0,0.0,0.0,0.0,-0.024876806885004044,0.016116613522171974,0.03428766131401062,0.9998944997787476,0.00545899011194706,-0.013236845843493938,0.0024298815988004208
586.0,0.0,0.0,0.0,0.0,0.0,0.0,-0.013229306787252426,0.007455865386873484,0.020161772146821022,0.999896228313446,0.0051266769878566265,-0.013203736394643784,0.0025975501630455256
587.0,0.0,0.0,0.0,0.0,0.0,0.0,0.0022091958671808243,-0.0007520350045524538,-0.01962597481906414,0.999897837638855,0.004624563734978437,-0.01320668589323759,0.0028900697361677885
588.0,0.0,0.0,0.0,0.0,0.0,0.0,0.007873103953897953,-0.0013587482972070575,-0.02487005479633808,0.9999014735221863,0.003734505968168378,-0.013204117305576801,0.0029631168581545353
589.0,0.0,0.0,0.0,0.0,0.0,0.0,-0.004100315738469362,0.0050514074973762035,0.02316228486597538,0.9999030232429504,0.0035330187529325485,-0.013208504766225815,0.0026006887201219797
590.0,0.0,0.0,0.0,0.0,0.0,0.0,-0.008208785206079483,0.007173387333750725,0.007105614524334669,0.9999080896377563,0.003912304528057575,-0.012761985883116722,0.0023715689312666655
591.0,0.0,0.0,0.0,0.0,0.0,0.0,-0.010935427621006966,0.00844047125428915,0.0014337585307657719,0.9999120235443115,0.003711413824930787,-0.01239673513919115,0.002907699439674616
592.0,0.0,0.0,0.0,0.0,0.0,0.0,-0.00619286997243762,0.004377015400677919,0.0018873924855142832,0.9999163150787354,0.0031937859021127224,-0.012058778665959835,0.003434330690652132
593.0,0.0,0.0,0.0,0.0,0.0,0.0,-0.003989283926784992,0.0027871434576809406,-0.0008349555428139865,0.9999244213104248,0.0028771264478564262,-0.01149802841246128,0.003263580845668912
594.0,0.0,0.0,0.0,0.0,0.0,0.0,-0.0023705828934907913,0.003855528309941292,-0.014917135238647461,0.999924898147583,0.001908260048367083,-0.011402898468077183,0.004058739170432091
595.0,0.0,0.0,0.0,0.0,0.0,0.0,-0.0019221114926040173,0.007413630839437246,-0.005784479435533285,0.9999217987060547,0.0014280041214078665,-0.011154891923069954,0.005464957561343908
596.0,0.0,0.0,0.0,0.0,0.0,0.0,-0.008387845940887928,0.010462622158229351,0.0073866774328053,0.9999284744262695,0.001377791166305542,-0.010678470134735107,0.0051996284164488316
597.0,0.0,0.0,0.0,0.0,0.0,0.0,-0.01029153075069189,0.007834219373762608,-0.0019039185717701912,0.9999390840530396,0.0013463058276101947,-0.009939204901456833,0.004600815940648317
598.0,0.0,0.0,0.0,0.0,0.0,0.0,-0.008759680204093456,0.0032435422763228416,-0.010531594045460224,0.999949038028717,0.0017861078958958387,-0.00907051656395197,0.00404832698404789
599.0,0.0,0.0,0.0,0.0,0.0,0.0,-0.00284339371137321,0.0012591098202392459,-0.00519509706646204,0.9999594688415527,0.0016164631815627217,-0.008282131515443325,0.0031424753833562136
600.0,0.0,0.0,0.0,0.0,0.0,0.0,-0.008172326721251011,0.0038467999547719955,0.0006229954306036234,0.9999665021896362,0.0014801500365138054,-0.007784036919474602,0.0020492402836680412
601.0,0.0,0.0,0.0,0.0,0.0,0.0,-0.009154947474598885,0.002191324485465884,0.004684960935264826,0.9999715089797974,0.001525946776382625,-0.007255946286022663,0.0014200512086972594
602.0,0.0,0.0,0.0,0.0,0.0,0.0,-0.008757290430366993,0.0015249885618686676,0.005234787706285715,0.9999753832817078,0.0018211074639111757,-0.006719664670526981,0.000846910523250699
603.0,0.0,0.0,0.0,0.0,0.0,0.0,-0.004449564963579178,0.0014315099688246846,0.004757766146212816,0.999976396560669,0.0017492969054728746,-0.006635025143623352,-0.0002756119065452367
604.0,0.0,0.0,0.0,0.0,0.0,0.0,0.00414142943918705,-0.004725987557321787,-0.003273139474913478,0.9999707937240601,0.001555085415020585,-0.007420627400279045,-0.0009077871800400317
605.0,0.0,0.0,0.0,0.0,0.0,0.0,0.012032885104417801,-0.007828024215996265,-0.012144798412919044,0.999961793422699,0.0011470125755295157,-0.008585010655224323,-0.0011749366531148553
606.0,0.0,0.0,0.0,0.0,0.0,0.0,0.008350309915840626,-0.0016790631925687194,0.003672003047540784,0.9999549388885498,0.000939548946917057,-0.009366965852677822,-0.0011953642824664712
607.0,0.0,0.0,0.0,0.0,0.0,0.0,-0.019387533888220787,0.0001134809572249651,0.021700089797377586,0.9999516010284424,0.0006068730144761503,-0.009664849378168583,-0.0017036896897479892
608.0,0.0,0.0,0.0,0.0,0.0,0.0,-0.01873137429356575,0.009622879326343536,0.018008491024374962,0.9999536871910095,0.00019560917280614376,-0.009342103265225887,-0.002306118607521057
609.0,0.0,0.0,0.0,0.0,0.0,0.0,-0.01239759847521782,0.008411089889705181,0.014983275905251503,0.9999587535858154,0.0005104962619952857,-0.008613219484686852,-0.002833798760548234
610.0,0.0,0.0,0.0,0.0,0.0,0.0,0.009794897399842739,-0.009966129437088966,-0.012269807048141956,0.9999585151672363,0.00041479620267637074,-0.008436025120317936,-0.0034121847711503506
611.0,0.0,0.0,0.0,0.0,0.0,0.0,0.010066493414342403,-0.003445558249950409,-0.006049870979040861,0.9999547600746155,0.0002949707268271595,-0.008749090135097504,-0.003704770701006055
612.0,0.0,0.0,0.0,0.0,0.0,0.0,0.0001918097259476781,0.004787730518728495,0.00742528447881341,0.9999555349349976,0.0006616447353735566,-0.008731585927307606,-0.0034925504587590694
613.0,0.0,0.0,0.0,0.0,0.0,0.0,0.001321682007983327,0.0079503133893013,0.010076502338051796,0.9999569058418274,0.0014402311062440276,-0.008191869594156742,-0.004106395877897739
614.0,0.0,0.0,0.0,0.0,0.0,0.0,-0.0016643517883494496,0.009932318702340126,0.0004757086862809956,0.9999566674232483,0.0032354046124964952,-0.00729677639901638,-0.004793473985046148
615.0,0.0,0.0,0.0,0.0,0.0,0.0,0.010214436799287796,0.003714836435392499,-0.021199382841587067,0.9999529123306274,0.0043983194045722485,-0.007076585199683905,-0.004969633184373379
616.0,0.0,0.0,0.0,0.0,0.0,0.0,0.018164904788136482,-0.0014582183212041855,-0.03049234300851822,0.9999505877494812,0.004242228344082832,-0.007691321428865194,-0.004651807248592377
617.0,0.0,0.0,0.0,0.0,0.0,0.0,0.0012236074544489384,0.003789035603404045,-0.007254247087985277,0.9999500513076782,0.003575939917936921,-0.008386828005313873,-0.004068795125931501
618.0,0.0,0.0,0.0,0.0,0.0,0.0,-0.0011622610036283731,0.00721695413812995,0.0010720996651798487,0.9999484419822693,0.0033194839488714933,-0.0089936014264822,-0.003337334608659148
619.0,0.0,0.0,0.0,0.0,0.0,0.0,0.0007571820169687271,0.009252678602933884,0.0012988594826310873,0.9999462962150574,0.0027924056630581617,-0.009845593012869358,-0.0015595784643664956
620.0,0.0,0.0,0.0,0.0,0.0,0.0,-0.024672815576195717,0.010347730480134487,0.0032060041557997465,0.9999497532844543,0.0014702639309689403,-0.009912604466080666,5.986123505863361e-05
621.0,0.0,0.0,0.0,0.0,0.0,0.0,-0.0017619552090764046,0.016075430437922478,0.014931781217455864,0.9999531507492065,0.000870902556926012,-0.009622235782444477,0.0005008445587009192
622.0,0.0,0.0,0.0,0.0,0.0,0.0,-0.0020804526284337044,0.009675099514424801,0.008665360510349274,0.9999516606330872,0.0007311636582016945,-0.009717928245663643,0.0012112138792872429
623.0,0.0,0.0,0.0,0.0,0.0,0.0,-0.00791545957326889,0.006884894333779812,-0.005443817004561424,0.9999502301216125,0.0009642081568017602,-0.009796134196221828,0.001582101103849709
624.0,0.0,0.0,0.0,0.0,0.0,0.0,-0.011327154003083706,0.0021525726187974215,-0.0004617086669895798,0.9999499320983887,0.0004118034557905048,-0.009911728091537952,0.0012928106589242816
625.0,0.0,0.0,0.0,0.0,0.0,0.0,0.004500232636928558,-0.0008339845226146281,-0.005163439083844423,0.9999498724937439,-0.0001680165878497064,-0.010005276650190353,-0.00026836476172320545
626.0,0.0,0.0,0.0,0.0,0.0,0.0,1.2330494428169914e-05,-3.358868707437068e-05,-0.0015655442839488387,0.9999478459358215,-0.0005375208565965295,-0.010166184976696968,-0.0007547726854681969
627.0,0.0,0.0,0.0,0.0,0.0,0.0,-0.013643346726894379,0.00283155613578856,0.005735757295042276,0.9999533295631409,-1.2586780030687805e-05,-0.009591992944478989,-0.001133193727582693
628.0,0.0,0.0,0.0,0.0,0.0,0.0,-0.013687584549188614,0.0047020865604281425,0.011751888319849968,0.9999577403068542,0.0015897511038929224,-0.008790889754891396,-0.002126912120729685
629.0,0.0,0.0,0.0,0.0,0.0,0.0,-0.01186539325863123,0.004995689261704683,0.013349788263440132,0.9999584555625916,0.0031388276256620884,-0.008166534826159477,-0.0025192666798830032
630.0,0.0,0.0,0.0,0.0,0.0,0.0,0.0097969276830554,-0.0009116776054725051,-0.0074163503013551235,0.9999570846557617,0.0041781640611588955,-0.008008378557860851,-0.0020842922385782003
631.0,0.0,0.0,0.0,0.0,0.0,0.0,0.016308410093188286,-0.003609919687733054,-0.009629600681364536,0.999950647354126,0.005000318866223097,-0.008335333317518234,-0.0020295563153922558
632.0,0.0,0.0,0.0,0.0,0.0,0.0,0.009716668166220188,-0.0032268876675516367,-0.0028811295051127672,0.9999447464942932,0.0059496392495930195,-0.008391096256673336,-0.002120216144248843
633.0,0.0,0.0,0.0,0.0,0.0,0.0,0.0068131098523736,-0.004868803080171347,-0.0027378445956856012,0.9999386072158813,0.006475397385656834,-0.008729140274226665,-0.0021309833973646164
634.0,0.0,0.0,0.0,0.0,0.0,0.0,0.005834899842739105,-0.0010782831814140081,0.0014071463374421,0.9999383091926575,0.00636428315192461,-0.008942668326199055,-0.0016782323364168406
635.0,0.0,0.0,0.0,0.0,0.0,0.0,0.006574869621545076,-0.0023529897443950176,0.006242353934794664,0.9999387860298157,0.006328035611659288,-0.008954212069511414,-0.0014662573812529445
636.0,0.0,0.0,0.0,0.0,0.0,0.0,-0.0017899209633469582,-0.0028078292962163687,0.008822903037071228,0.9999353289604187,0.006598184816539288,-0.009136011824011803,-0.0014691835967823863
637.0,0.0,0.0,0.0,0.0,0.0,0.0,-0.0022692587226629257,-0.0002828404540196061,0.0038866812828928232,0.9999355673789978,0.006408528424799442,-0.00932358205318451,-0.0009530212264508009
638.0,0.0,0.0,0.0,0.0,0.0,0.0,-0.005337591283023357,-0.0028840566519647837,-0.00463124318048358,0.9999356865882874,0.006426794454455376,-0.009286802262067795,-0.0009868985507637262
639.0,0.0,0.0,0.0,0.0,0.0,0.0,-0.0016944247763603926,-0.0032315838616341352,-0.01094120554625988,0.9999328851699829,0.006560685578733683,-0.009503551758825779,-0.00081962178228423
640.0,0.0,0.0,0.0,0.0,0.0,0.0,-0.004912823438644409,-0.0006719873636029661,-0.008411560207605362,0.9999318718910217,0.0060046156868338585,-0.00998598337173462,-0.000616961857303977
641.0,0.0,0.0,0.0,0.0,0.0,0.0,-0.008619862608611584,0.00037032068939879537,-0.00020531663903966546,0.9999316930770874,0.004995840601623058,-0.010565864853560925,-0.00017450899758841842
642.0,0.0,0.0,0.0,0.0,0.0,0.0,-0.013421115465462208,0.004574349615722895,0.006196476984769106,0.9999322295188904,0.003761798609048128,-0.011014016345143318,-3.0001139748492278e-05
643.0,0.0,0.0,0.0,0.0,0.0,0.0,-0.01625133864581585,0.007627803832292557,0.014834729954600334,0.99993497133255,0.0029012002050876617,-0.011026100255548954,-4.8094967496581376e-05
644.0,0.0,0.0,0.0,0.0,0.0,0.0,-0.006867149379104376,0.007122603245079517,0.019784774631261826,0.9999340772628784,0.0021009931806474924,-0.011280646547675133,0.000339514430379495
645.0,0.0,0.0,0.0,0.0,0.0,0.0,-0.00686035118997097,0.008760795928537846,0.02188893035054207,0.9999309182167053,0.0011270063696429133,-0.011669602245092392,0.000848720024805516
646.0,0.0,0.0,0.0,0.0,0.0,0.0,-0.016757871955633163,0.006543037015944719,0.018475007265806198,0.99993896484375,0.0009940555319190025,-0.010981980711221695,0.0005368791171349585
647.0,0.0,0.0,0.0,0.0,0.0,0.0,0.0029967406298965216,0.003633839311078191,0.014232323504984379,0.9999461770057678,0.0007690505590289831,-0.010332928970456123,0.0003392809594515711
648.0,0.0,0.0,0.0,0.0,0.0,0.0,-0.0024855597876012325,0.006885703187435865,0.011183718219399452,0.9999580383300781,0.0006573778809979558,-0.00914032943546772,-4.240410271449946e-05
649.0,0.0,0.0,0.0,0.0,0.0,0.0,0.0013084795791655779,0.006854510400444269,0.007292076013982296,0.9999711513519287,0.0009037107229232788,-0.007532851304858923,-0.0003099025634583086
650.0,0.0,0.0,0.0,0.0,0.0,0.0,0.006956030149012804,0.002477096626535058,-0.005949643440544605,0.9999807476997375,0.0018131672404706478,-0.005863486789166927,-0.0008493476780131459
651.0,0.0,0.0,0.0,0.0,0.0,0.0,0.0036206685472279787,0.0016160482773557305,-0.016804242506623268,0.9999858736991882,0.002002291614189744,-0.004884138237684965,-0.0006568597164005041
652.0,0.0,0.0,0.0,0.0,0.0,0.0,0.007027546875178814,0.005318113602697849,-0.01068333350121975,0.9999849200248718,0.002888309769332409,-0.004547989461570978,-0.0010053633013740182
653.0,0.0,0.0,0.0,0.0,0.0,0.0,0.00805151928216219,0.007265058346092701,-0.0026772881392389536,0.9999783635139465,0.004645358771085739,-0.004343177657574415,-0.0017079635290428996
654.0,0.0,0.0,0.0,0.0,0.0,0.0,0.002825298113748431,0.0049202111549675465,-0.010450403206050396,0.9999646544456482,0.006829059682786465,-0.00415063789114356,-0.0025906702503561974
655.0,0.0,0.0,0.0,0.0,0.0,0.0,0.006354847457259893,0.003345175413414836,-0.01946975849568844,0.9999438524246216,0.008973384276032448,-0.004202221520245075,-0.003730320604518056
656.0,0.0,0.0,0.0,0.0,0.0,0.0,-0.0034636713098734617,0.008102360181510448,-0.01333681121468544,0.9999256730079651,0.010758724994957447,-0.004281344823539257,-0.0038060019724071026
657.0,0.0,0.0,0.0,0.0,0.0,0.0,-0.004206198267638683,0.00772937573492527,-0.011725281365215778,0.999907374382019,0.012456675991415977,-0.004206384997814894,-0.0035206088796257973
658.0,0.0,0.0,0.0,0.0,0.0,0.0,0.0013040316989645362,0.006372047588229179,-0.009075877256691456,0.999891459941864,0.013628331944346428,-0.004400295205414295,-0.0034299970138818026
659.0,0.0,0.0,0.0,0.0,0.0,0.0,0.00992434099316597,0.0036216105800122023,-0.0027638478204607964,0.9998824596405029,0.014397580176591873,-0.004618937149643898,-0.0024886406026780605
660.0,0.0,0.0,0.0,0.0,0.0,0.0,0.016774775460362434,0.0021688626147806644,-0.011606734246015549,0.9998762607574463,0.01475488767027855,-0.005326468497514725,-0.0011063630226999521
661.0,0.0,0.0,0.0,0.0,0.0,0.0,0.024178316816687584,-0.001697627012617886,-0.010121023282408714,0.9998829364776611,0.013867642730474472,-0.006394155323505402,0.000900614308193326
662.0,0.0,0.0,0.0,0.0,0.0,0.0,0.021501746028661728,0.00020087773737031966,0.009881543926894665,0.9998857378959656,0.012342026457190514,-0.008122507482767105,0.003209527814760804
663.0,0.0,0.0,0.0,0.0,0.0,0.0,0.01408278290182352,0.0007415087893605232,0.01405072957277298,0.9998826384544373,0.0105363167822361,-0.01006778609007597,0.004727229010313749
664.0,0.0,0.0,0.0,0.0,0.0,0.0,0.013280119746923447,-0.004804699216037989,0.01587492972612381,0.9998814463615417,0.009172757156193256,-0.011315131559967995,0.004982964601367712
665.0,0.0,0.0,0.0,0.0,0.0,0.0,0.0009252472664229572,-0.008565491065382957,0.01877852901816368,0.999885618686676,0.007801027037203312,-0.012189674191176891,0.004382382612675428
666.0,0.0,0.0,0.0,0.0,0.0,0.0,-0.0031583078671246767,-0.003857771633192897,0.02278316020965576,0.9998979568481445,0.006936791818588972,-0.012253624387085438,0.002397245727479458
667.0,0.0,0.0,0.0,0.0,0.0,0.0,-0.02136799693107605,-0.0005951122147962451,0.03242837265133858,0.9999116659164429,0.007049666717648506,-0.01126809697598219,0.00027454752125777304
668.0,0.0,0.0,0.0,0.0,0.0,0.0,-0.03317687287926674,-0.00029640670982189476,0.018540924414992332,0.9999238848686218,0.008069615811109543,-0.00920096505433321,-0.0015726002166047692
669.0,0.0,0.0,0.0,0.0,0.0,0.0,-0.020646104589104652,-0.0010801984462887049,0.0037938400637358427,0.9999313354492188,0.008872631005942822,-0.007080173585563898,-0.0029171407222747803
670.0,0.0,0.0,0.0,0.0,0.0,0.0,-0.015352843329310417,-0.0046234349720180035,-0.006613875273615122,0.9999343752861023,0.00958832073956728,-0.004702874459326267,-0.004146963823586702
671.0,0.0,0.0,0.0,0.0,0.0,0.0,-0.0045950766652822495,-0.008304839953780174,-0.012491871602833271,0.9999381899833679,0.009417803026735783,-0.003285449929535389,-0.004892550874501467
672.0,0.0,0.0,0.0,0.0,0.0,0.0,0.0017578288679942489,-0.007986888289451599,-0.010238051414489746,0.9999483823776245,0.008413988165557384,-0.002792804269120097,-0.004955235868692398
673.0,0.0,0.0,0.0,0.0,0.0,0.0,0.004814487416297197,-0.005290331784635782,-0.010817717760801315,0.9999493360519409,0.008210255764424801,-0.00239240238443017,-0.005293651018291712
674.0,0.0,0.0,0.0,0.0,0.0,0.0,0.00277690589427948,0.0010108298156410456,-0.007043165620416403,0.9999473094940186,0.008113970048725605,-0.0023258381988853216,-0.005828567780554295
675.0,0.0,0.0,0.0,0.0,0.0,0.0,-0.005812808405607939,0.006749690044671297,-0.002383844694122672,0.9999499917030334,0.007744594011455774,-0.002332919742912054,-0.005866767838597298
676.0,0.0,0.0,0.0,0.0,0.0,0.0,-0.006446321029216051,0.007549515925347805,-0.00026956203510053456,0.9999439716339111,0.008303380571305752,-0.0021041964646428823,-0.006210640072822571
677.0,0.0,0.0,0.0,0.0,0.0,0.0,-0.002390146953985095,0.0033028488978743553,0.00047159308451227844,0.9999471306800842,0.008118612691760063,-0.0021210648119449615,-0.005934646353125572
678.0,0.0,0.0,0.0,0.0,0.0,0.0,0.005870727822184563,0.0021550841629505157,-0.00904854852706194,0.9999587535858154,0.0071787177585065365,-0.002481783041730523,-0.004980508238077164
679.0,0.0,0.0,0.0,0.0,0.0,0.0,0.012191045098006725,0.0012359952088445425,-0.014846224337816238,0.9999604225158691,0.007206532638520002,-0.002470237435773015,-0.0045905448496341705
680.0,0.0,0.0,0.0,0.0,0.0,0.0,0.022409645840525627,-0.0016763402381911874,-0.012546539306640625,0.9999578595161438,0.007870513945817947,-0.0027557113207876682,-0.0038364583160728216
681.0,0.0,0.0,0.0,0.0,0.0,0.0,0.01648741029202938,0.00200872914865613,-0.01025253627449274,0.9999530911445618,0.008296329528093338,-0.0036146673373878,-0.0034608328714966774
682.0,0.0,0.0,0.0,0.0,0.0,0.0,0.02046152949333191,0.005972705781459808,0.0039418889209628105,0.9999502897262573,0.008149269968271255,-0.004862981382757425,-0.003060129936784506
683.0,0.0,0.0,0.0,0.0,0.0,0.0,0.011126617901027203,-0.0018108153017237782,-0.012635118328034878,0.9999455809593201,0.007750790566205978,-0.006061465013772249,-0.0034680792596191168
684.0,0.0,0.0,0.0,0.0,0.0,0.0,0.024201689288020134,-0.0018864558078348637,-0.0025509512051939964,0.9999385476112366,0.007605856750160456,-0.00696853082627058,-0.004045786801725626
685.0,0.0,0.0,0.0,0.0,0.0,0.0,0.004683575127273798,0.006559115834534168,0.015175324864685535,0.999929666519165,0.008500062860548496,-0.007262584753334522,-0.003955211956053972
686.0,0.0,0.0,0.0,0.0,0.0,0.0,-0.002959880977869034,0.009816538542509079,0.026745634153485298,0.9999242424964905,0.009230618365108967,-0.007198411505669355,-0.0037847913336008787
687.0,0.0,0.0,0.0,0.0,0.0,0.0,-0.00451011722907424,0.009514441713690758,0.025411099195480347,0.9999271035194397,0.009374594315886497,-0.006761788856238127,-0.0034991519059985876
688.0,0.0,0.0,0.0,0.0,0.0,0.0,0.005207651760429144,0.006161455065011978,-0.0070497142150998116,0.9999256730079651,0.010087765753269196,-0.005830032285302877,-0.0035772353876382113
689.0,0.0,0.0,0.0,0.0,0.0,0.0,0.021120723336935043,-0.004096451215445995,-0.022920619696378708,0.9999203085899353,0.010688810609281063,-0.005869690794497728,-0.003255175892263651
690.0,0.0,0.0,0.0,0.0,0.0,0.0,-0.056172750890254974,-0.026030993089079857,-0.02256743609905243,0.9999381899833679,0.009310050867497921,-0.004689767025411129,-0.0038523313123732805
691.0,0.0,0.0,0.0,0.0,0.0,0.0,-0.012530877254903316,0.0005008492735214531,-0.007147102616727352,0.9999434351921082,0.00803333055227995,-0.0023529152385890484,-0.006548224948346615
692.0,0.0,0.0,0.0,0.0,0.0,0.0,0.08101996034383774,0.020002059638500214,-0.009131337516009808,0.9999237060546875,0.008609183132648468,-0.0033490422647446394,-0.008203711360692978
693.0,0.0,0.0,0.0,0.0,0.0,0.0,-0.00903003104031086,0.0051390971057116985,0.010502658784389496,0.999904215335846,0.009225924499332905,-0.003630558028817177,-0.009658684022724628
694.0,0.0,0.0,0.0,0.0,0.0,0.0,0.051495350897312164,0.02000066079199314,0.03755078837275505,0.9998958110809326,0.009848743677139282,-0.005062104668468237,-0.009253921918570995
695.0,0.0,0.0,0.0,0.0,0.0,0.0,0.024281276389956474,0.008925660513341427,0.024053368717432022,0.9998988509178162,0.011036495678126812,-0.007448256481438875,-0.0049974326975643635
696.0,0.0,0.0,0.0,0.0,0.0,0.0,-0.05988894775509834,-0.014711068011820316,-0.015340852551162243,0.999886691570282,0.012321662157773972,-0.007068558130413294,-0.004965099506080151
697.0,0.0,0.0,0.0,0.0,0.0,0.0,-0.020118383690714836,-0.015055048279464245,-0.0178225114941597,0.9998774528503418,0.012863513082265854,-0.007046000566333532,-0.005467775743454695
698.0,0.0,0.0,0.0,0.0,0.0,0.0,-0.005995460785925388,-0.012299452908337116,-0.02281205914914608,0.9998789429664612,0.012483615428209305,-0.007677954621613026,-0.0052199698984622955
699.0,0.0,0.0,0.0,0.0,0.0,0.0,-0.012591639533638954,-0.006878982298076153,-0.014538194052875042,0.9998767971992493,0.012242688797414303,-0.008162075653672218,-0.00546693429350853
700.0,0.0,0.0,0.0,0.0,0.0,0.0,-0.015790244564414024,-0.0009710621670819819,-0.0016021272167563438,0.9998802542686462,0.011410959996283054,-0.008771209977567196,-0.00568429147824645
701.0,0.0,0.0,0.0,0.0,0.0,0.0,-0.010521176271140575,-0.0001874864537967369,-0.001629590173251927,0.9998874068260193,0.010143445804715157,-0.009736292995512486,-0.005236078519374132
702.0,0.0,0.0,0.0,0.0,0.0,0.0,-0.01722145453095436,0.004697275348007679,0.011898807249963284,0.9998894333839417,0.009436612948775291,-0.01064455695450306,-0.004328067880123854
703.0,0.0,0.0,0.0,0.0,0.0,0.0,-0.010772601701319218,0.006262852810323238,0.0269133560359478,0.9998952746391296,0.008336449041962624,-0.011540580540895462,-0.0025862932670861483
704.0,0.0,0.0,0.0,0.0,0.0,0.0,-0.011621803976595402,0.006420514080673456,0.025116262957453728,0.9998994469642639,0.007082049269229174,-0.012262951582670212,-0.0007142173126339912
705.0,0.0,0.0,0.0,0.0,0.0,0.0,-0.01702531985938549,0.008311224170029163,0.01456412672996521,0.9999014139175415,0.006441961973905563,-0.012442630715668201,0.0008657597936689854
706.0,0.0,0.0,0.0,0.0,0.0,0.0,-0.0018462343141436577,0.0013775085099041462,0.016979901120066643,0.999906063079834,0.005376098211854696,-0.012415532022714615,0.0021714470349252224
707.0,0.0,0.0,0.0,0.0,0.0,0.0,0.01074944157153368,-0.004594399128109217,0.0015574712306261063,0.9999058842658997,0.003797034965828061,-0.012656399980187416,0.003676770953461528
708.0,0.0,0.0,0.0,0.0,0.0,0.0,0.015629056841135025,-0.007456035818904638,-0.0230103749781847,0.9998931884765625,0.0024999461602419615,-0.013462034985423088,0.005090068560093641
709.0,0.0,0.0,0.0,0.0,0.0,0.0,-0.009774508886039257,0.0018502437742426991,0.004904818721115589,0.99989253282547,0.0022667881567031145,-0.013605467975139618,0.004940952640026808
710.0,0.0,0.0,0.0,0.0,0.0,0.0,-0.0017068060114979744,-0.0015100621385499835,0.008810549974441528,0.9998883008956909,0.001560526667162776,-0.01416029967367649,0.004510073456913233
711.0,0.0,0.0,0.0,0.0,0.0,0.0,-0.002625632332637906,6.787013990106061e-05,0.005322373937815428,0.9998832941055298,0.0006040816660970449,-0.014823381789028645,0.003633706597611308
712.0,0.0,0.0,0.0,0.0,0.0,0.0,-0.013178535737097263,0.0036459167022258043,0.0073290374130010605,0.9998867511749268,0.00015231304860208184,-0.015008457936346531,0.001047703088261187
713.0,0.0,0.0,0.0,0.0,0.0,0.0,-0.02686818689107895,0.013267632573843002,0.014351080171763897,0.9998894929885864,0.0007183335837908089,-0.014835858717560768,-0.0006567799719050527
714.0,0.0,0.0,0.0,0.0,0.0,0.0,-0.03322542831301689,0.017516886815428734,0.0218660831451416,0.9998984932899475,0.002323768800124526,-0.013807297684252262,-0.002614673925563693
715.0,0.0,0.0,0.0,0.0,0.0,0.0,-0.027538519352674484,0.022982271388173103,0.03623921796679497,0.9998971223831177,0.005429420620203018,-0.011998126283288002,-0.005677050445228815
716.0,0.0,0.0,0.0,0.0,0.0,0.0,-0.007256421726197004,0.012854907661676407,0.02707068994641304,0.9998798370361328,0.008478070609271526,-0.010097334161400795,-0.008152074180543423
717.0,0.0,0.0,0.0,0.0,0.0,0.0,0.018652239814400673,-0.003213898977264762,-0.02657860331237316,0.9998649954795837,0.01051429845392704,-0.009286739863455296,-0.008557970635592937
718.0,0.0,0.0,0.0,0.0,0.0,0.0,0.010121743194758892,0.001247912528924644,-0.009501640684902668,0.9998626112937927,0.012322986498475075,-0.008410205133259296,-0.007227005437016487
719.0,0.0,0.0,0.0,0.0,0.0,0.0,0.013075909577310085,-0.00235322886146605,0.0017237192951142788,0.9998703002929688,0.013013300485908985,-0.007691183593124151,-0.005541759077459574
720.0,0.0,0.0,0.0,0.0,0.0,0.0,0.02860245294868946,-0.0027025416493415833,-0.03181684762239456,0.9998780488967896,0.013197005726397038,-0.007260402198880911,-0.004090482834726572
721.0,0.0,0.0,0.0,0.0,0.0,0.0,0.02210945077240467,-0.0050491890870034695,-0.038554370403289795,0.9998822212219238,0.013421759940683842,-0.006977651733905077,-0.002552426652982831
722.0,0.0,0.0,0.0,0.0,0.0,0.0,0.019020607694983482,-0.004559434484690428,-0.02607250213623047,0.9998935461044312,0.012579219415783882,-0.0073353564366698265,-0.0009114611311815679
723.0,0.0,0.0,0.0,0.0,0.0,0.0,0.024002252146601677,0.0011831974843516946,-0.017257200554013252,0.9998978972434998,0.011453227140009403,-0.008337541483342648,0.0018255187897011638
724.0,0.0,0.0,0.0,0.0,0.0,0.0,0.005008263513445854,0.003969826735556126,-0.00849917996674776,0.9998951554298401,0.009877054020762444,-0.00952976942062378,0.004612619057297707
725.0,0.0,0.0,0.0,0.0,0.0,0.0,-0.0004951255396008492,0.006631988566368818,0.0028881621547043324,0.9998956918716431,0.008185729384422302,-0.010194050148129463,0.00614540558308363
726.0,0.0,0.0,0.0,0.0,0.0,0.0,-0.0009897543350234628,0.004383007064461708,-0.0047989203594625,0.9999020099639893,0.0075257280841469765,-0.010309691540896893,0.005744181573390961
727.0,0.0,0.0,0.0,0.0,0.0,0.0,-0.009544775821268559,0.004220861010253429,0.005932994652539492,0.9999112486839294,0.007209545001387596,-0.01018508430570364,0.004661346785724163
728.0,0.0,0.0,0.0,0.0,0.0,0.0,-0.01400101836770773,0.008058209903538227,0.026589103043079376,0.9999164342880249,0.006526627577841282,-0.010403143242001534,0.004025537986308336
729.0,0.0,0.0,0.0,0.0,0.0,0.0,-0.02366512082517147,0.009906050749123096,0.017048409208655357,0.9999251961708069,0.006409808993339539,-0.010006768628954887,0.0028979871422052383
730.0,0.0,0.0,0.0,0.0,0.0,0.0,-0.02034921757876873,0.00740339420735836,0.006393568590283394,0.9999343156814575,0.006618550047278404,-0.009187303483486176,0.001806330867111683
731.0,0.0,0.0,0.0,0.0,0.0,0.0,-0.014695337042212486,0.008613290265202522,0.013166666030883789,0.9999368190765381,0.0071899970062077045,-0.008587009273469448,0.0008937827660702169
732.0,0.0,0.0,0.0,0.0,0.0,0.0,-0.013468635268509388,0.008087682537734509,0.00833743903785944,0.999938428401947,0.00808552373200655,-0.007580265868455172,-0.0005106413154862821
733.0,0.0,0.0,0.0,0.0,0.0,0.0,-0.011051667854189873,0.007670677732676268,-0.00011010725575033575,0.9999414086341858,0.008486419916152954,-0.006655040197074413,-0.0009723042021505535
734.0,0.0,0.0,0.0,0.0,0.0,0.0,-0.005068531259894371,0.008236785419285297,-0.005034671165049076,0.9999427199363708,0.00879591703414917,-0.006082978565245867,-0.00028212397592142224
735.0,0.0,0.0,0.0,0.0,0.0,0.0,-0.0035266128834336996,0.009229710325598717,-0.008634510450065136,0.999936580657959,0.00995111558586359,-0.005269848741590977,-0.00014252155961003155
736.0,0.0,0.0,0.0,0.0,0.0,0.0,0.0014037340879440308,0.00689544016495347,-0.0035255495458841324,0.9999304413795471,0.010811788029968739,-0.004704916384071112,3.119316170341335e-05
737.0,0.0,0.0,0.0,0.0,0.0,0.0,0.01012740470468998,0.005591943394392729,-0.011252492666244507,0.9999275207519531,0.010996167548000813,-0.004788142628967762,0.0010147677967324853
738.0,0.0,0.0,0.0,0.0,0.0,0.0,0.01204078271985054,0.008760449476540089,-0.008373808115720749,0.9999241232872009,0.010692322626709938,-0.005385777447372675,0.0028832126408815384
739.0,0.0,0.0,0.0,0.0,0.0,0.0,0.009071058593690395,0.008454020135104656,0.002453481312841177,0.99991375207901,0.010978643782436848,-0.006046680733561516,0.003918776288628578
740.0,0.0,0.0,0.0,0.0,0.0,0.0,0.008937210775911808,0.005730391945689917,-0.0065597607754170895,0.9999051094055176,0.01115364022552967,-0.006666124332696199,0.004556670319288969
741.0,0.0,0.0,0.0,0.0,0.0,0.0,0.011784697882831097,0.002619114937260747,-0.009934858419001102,0.9998979568481445,0.010979760438203812,-0.00732371024787426,0.005451160948723555
742.0,0.0,0.0,0.0,0.0,0.0,0.0,0.008820818737149239,-0.00164796004537493,-0.0009176231105811894,0.9998946785926819,0.011271207593381405,-0.007697663735598326,0.004931000992655754
743.0,0.0,0.0,0.0,0.0,0.0,0.0,0.002488891826942563,-0.0015451873186975718,0.010419611819088459,0.9998980164527893,0.010692104697227478,-0.008135833777487278,0.004844992887228727
744.0,0.0,0.0,0.0,0.0,0.0,0.0,-0.004027449060231447,-0.0003219495411030948,0.009911766275763512,0.999899685382843,0.009959408082067966,-0.008883297443389893,0.004748758859932423
745.0,0.0,0.0,0.0,0.0,0.0,0.0,-0.013934966176748276,-0.0029276569839566946,0.00866570696234703,0.9998968243598938,0.010481012985110283,-0.009119672700762749,0.003633734304457903
746.0,0.0,0.0,0.0,0.0,0.0,0.0,-0.004854189231991768,0.003357228124514222,0.011554504744708538,0.9998973608016968,0.010439339093863964,-0.009273825213313103,0.0031789725180715322
747.0,0.0,0.0,0.0,0.0,0.0,0.0,-0.009670787490904331,0.006133969407528639,0.010434863157570362,0.9998998045921326,0.010574253275990486,-0.00881282240152359,0.003296887967735529
748.0,0.0,0.0,0.0,0.0,0.0,0.0,-0.014201566576957703,0.00025260314578190446,0.01135208085179329,0.9998997449874878,0.01168257836252451,-0.007712559774518013,0.0021371261682361364
749.0,0.0,0.0,0.0,0.0,0.0,0.0,-0.008272763341665268,-0.00241889338940382,-0.012341870926320553,0.9998937845230103,0.012969404458999634,-0.006511910352855921,0.0013343880418688059
750.0,0.0,0.0,0.0,0.0,0.0,0.0,-0.01132615003734827,-0.001970648765563965,-0.015957683324813843,0.9998985528945923,0.012946326285600662,-0.005663823336362839,0.0017789201810956001
751.0,0.0,0.0,0.0,0.0,0.0,0.0,0.0036155313719063997,-0.001972001977264881,-0.008438371121883392,0.9999057054519653,0.012302846647799015,-0.0055317506194114685,0.0025598371867090464
752.0,0.0,0.0,0.0,0.0,0.0,0.0,0.008070881478488445,-0.004278577398508787,-0.0077832345850765705,0.9998965859413147,0.013054590672254562,-0.00532361026853323,0.0028269123286008835
753.0,0.0,0.0,0.0,0.0,0.0,0.0,0.0012837175745517015,-0.003956523723900318,-0.011842261999845505,0.9998902082443237,0.01329114194959402,-0.005612641107290983,0.003368736244738102
754.0,0.0,0.0,0.0,0.0,0.0,0.0,0.0060463412664830685,-0.0035551649052649736,-0.005962735041975975,0.9998863935470581,0.013201605528593063,-0.006135052535682917,0.0039016492664813995
755.0,0.0,0.0,0.0,0.0,0.0,0.0,-0.002020539017394185,-0.0023756909649819136,-0.0025159805081784725,0.999879002571106,0.013529528863728046,-0.006669300142675638,0.003790046786889434
