,Position_X,Position_Y,Position_Z,Velocity_X,Velocity_Y,Velocity_Z,Acceleration_X,Acceleration_Y,Acceleration_Z,Quaterion_0,Quaterion_1,Quaterion_2,Quaterion_3
90.0,0.0,0.0,0.0,0.0,0.0,0.0,0.001602455973625183,0.0025578662753105164,0.003309955820441246,1.0,-3.469446951953614e-18,6.938893903907228e-18,-6.938893903907228e-18
91.0,0.0,0.0,0.0,0.0,0.0,0.0,0.006617280188947916,0.0009416069369763136,-1.7400987417204306e-05,0.9999990463256836,0.0005037336959503591,0.0012017933186143637,0.0004056387406308204
92.0,0.0,0.0,0.0,0.0,0.0,0.0,0.010469283908605576,-0.002530302619561553,-0.004426190163940191,0.9999967813491821,0.0007746679475530982,0.0022451835684478283,0.0008768329862505198
93.0,0.0,0.0,0.0,0.0,0.0,0.0,0.02049383521080017,-0.009467529132962227,-0.0060561904683709145,0.9999960660934448,0.0011756871826946735,0.002048380672931671,0.0015156707959249616
94.0,0.0,0.0,0.0,0.0,0.0,0.0,0.03636210411787033,-0.027075333520770073,-0.021572910249233246,0.9999966621398926,0.0010276219109073281,0.0015434613451361656,0.001799607533030212
95.0,0.0,0.0,0.0,0.0,0.0,0.0,0.041351284831762314,-0.061831288039684296,-0.05785324051976204,0.9999997019767761,-0.0007590313907712698,0.00016061474161688238,-0.00013625009160023183
96.0,0.0,0.0,0.0,0.0,0.0,0.0,0.005364617798477411,0.057388786226511,0.06668037176132202,0.999998152256012,-0.0005885637947358191,-0.0016730079660192132,-0.0007232450298033655
97.0,0.0,0.0,0.0,0.0,0.0,0.0,-0.043167516589164734,0.02887295000255108,0.04858754575252533,0.9999969601631165,-0.0013104421086609364,-0.0018156195292249322,-0.0010594100458547473
98.0,0.0,0.0,0.0,0.0,0.0,0.0,0.027462955564260483,-0.03650737181305885,0.0038033947348594666,0.9999969005584717,-0.0023671856615692377,-0.0005747773102484643,-0.0005544779123738408
99.0,0.0,0.0,0.0,0.0,0.0,0.0,-0.004443690180778503,0.013729126192629337,0.010903324000537395,0.9999922513961792,-0.0027502698358148336,-0.002760691801086068,-0.0005939002148807049
100.0,0.0,0.0,0.0,0.0,0.0,0.0,-0.010431623086333275,0.015967650339007378,0.021353648975491524,0.9999919533729553,-0.002847235882654786,-0.0027847273740917444,-0.0004197430389467627
101.0,0.0,0.0,0.0,0.0,0.0,0.0,0.013006096705794334,0.0008633064571768045,0.004271854646503925,0.9999942183494568,-0.002531093545258045,-0.0021306294947862625,-0.0008205229532904923
102.0,0.0,0.0,0.0,0.0,0.0,0.0,0.004371121060103178,0.01174284890294075,0.010251738131046295,0.9999940991401672,-0.0024732151068747044,-0.002357982797548175,-0.00041462708031758666
103.0,0.0,0.0,0.0,0.0,0.0,0.0,0.0028266168665140867,0.013773897662758827,0.003291812026873231,0.9999949336051941,-0.0021657587494701147,-0.001955454470589757,-0.0012678466737270355
104.0,0.0,0.0,0.0,0.0,0.0,0.0,0.01259719766676426,0.01551121287047863,-0.0035487054847180843,0.9999958872795105,-0.0016280064592137933,-0.001491644768975675,-0.0018405504524707794
105.0,0.0,0.0,0.0,0.0,0.0,0.0,0.008101830258965492,0.016680562868714333,-0.003009647596627474,0.9999977350234985,-0.0008505567675456405,-0.0005970424390397966,-0.001863181358203292
106.0,0.0,0.0,0.0,0.0,0.0,0.0,0.015741601586341858,0.006708641070872545,-0.012270689010620117,0.9999992251396179,-0.00021974863193463534,0.0002904199354816228,-0.0012078998843207955
107.0,0.0,0.0,0.0,0.0,0.0,0.0,0.017127124592661858,0.006214963272213936,-0.010354777798056602,0.9999995231628418,0.0002910667099058628,0.0008645718917250633,-0.0002443799749016762
108.0,0.0,0.0,0.0,0.0,0.0,0.0,0.013059169985353947,0.011287709698081017,-0.005327983293682337,0.9999991655349731,0.0007760984590277076,0.0010051248827949166,0.0002421517565380782
109.0,0.0,0.0,0.0,0.0,0.0,0.0,0.016382547095417976,0.011108344420790672,-0.0056839995086193085,0.9999983906745911,0.0014462564140558243,0.001014680601656437,-0.00025682870182208717
110.0,0.0,0.0,0.0,0.0,0.0,0.0,0.013128960505127907,0.00840841419994831,-0.005952982231974602,0.9999973773956299,0.0020632226951420307,0.0007073426968418062,-0.000690168235450983
111.0,0.0,0.0,0.0,0.0,0.0,0.0,0.013473881408572197,0.005768088158220053,-0.005539553705602884,0.999997079372406,0.002269948832690716,8.416360651608557e-05,-0.0007925262325443327
112.0,0.0,0.0,0.0,0.0,0.0,0.0,0.01184520311653614,0.00895136222243309,-0.0014867009595036507,0.9999971985816956,0.002336719073355198,-0.00042841039248742163,6.460696749854833e-05
113.0,0.0,0.0,0.0,0.0,0.0,0.0,0.009480157867074013,0.011853563599288464,0.002077060518786311,0.9999962449073792,0.0023027975112199783,-0.000608471455052495,0.0013368823565542698
114.0,0.0,0.0,0.0,0.0,0.0,0.0,0.009841480292379856,0.01426407415419817,0.002085530897602439,0.999993622303009,0.0020217634737491608,-0.0006367651512846351,0.0028831432573497295
115.0,0.0,0.0,0.0,0.0,0.0,0.0,0.008611542172729969,0.012455419637262821,0.0031675866339355707,0.9999915361404419,0.00189610302913934,-0.0007534288452006876,0.0035649819765239954
116.0,0.0,0.0,0.0,0.0,0.0,0.0,0.009738798253238201,0.011534934863448143,0.003313001710921526,0.9999938011169434,0.0020619439892470837,-0.0009537255391478539,0.002682761289179325
117.0,0.0,0.0,0.0,0.0,0.0,0.0,0.008206266909837723,0.012540780939161777,0.003129965392872691,0.9999960064888,0.0024004767183214426,-0.0008792011067271233,0.0012007351033389568
118.0,0.0,0.0,0.0,0.0,0.0,0.0,0.0067720431834459305,0.008881938643753529,0.004264851100742817,0.9999942779541016,0.003260709112510085,0.0008982449653558433,0.00016763390158303082
119.0,0.0,0.0,0.0,0.0,0.0,0.0,0.00878225453197956,0.0019351351074874401,0.003679488319903612,0.9999891519546509,0.0037613720633089542,0.002496427856385708,0.0011549158953130245
120.0,0.0,0.0,0.0,0.0,0.0,0.0,0.011120667681097984,-0.0032481548842042685,-0.0012991005787625909,0.9999818205833435,0.004085868131369352,0.0036716340109705925,0.0024840605910867453
121.0,0.0,0.0,0.0,0.0,0.0,0.0,0.02186136320233345,-0.008765771053731441,-0.009426531381905079,0.9999746680259705,0.004790750332176685,0.003770270384848118,0.0036798743531107903
122.0,0.0,0.0,0.0,0.0,0.0,0.0,0.044828448444604874,-0.035319115966558456,-0.03157157450914383,0.9999781847000122,0.004517911933362484,0.003548023523762822,0.0032674118410795927
123.0,0.0,0.0,0.0,0.0,0.0,0.0,0.0510665699839592,-0.10574264824390411,-0.08556663990020752,0.9999946355819702,0.002195145934820175,0.0024063726887106895,-0.0004005165828857571
124.0,0.0,0.0,0.0,0.0,0.0,0.0,0.014823266305029392,0.06397569179534912,0.07967682927846909,0.9999883770942688,0.003478986443951726,0.0004881222848780453,-0.0032959620002657175
125.0,0.0,0.0,0.0,0.0,0.0,0.0,-0.07230745255947113,0.04820175841450691,0.04964999109506607,0.9999945163726807,0.002314510988071561,0.0003343915450386703,-0.0023503524716943502
126.0,0.0,0.0,0.0,0.0,0.0,0.0,0.16493748128414154,-0.08156424760818481,0.00868556834757328,0.9999958276748657,0.0025619419757276773,0.0012654036981984973,0.0003753923228941858
127.0,0.0,0.0,0.0,0.0,0.0,0.0,0.010055148042738438,0.0064366948790848255,-0.006795383524149656,0.9999970197677612,0.0020969451870769262,-0.0012540944153442979,0.00017961843695957214
128.0,0.0,0.0,0.0,0.0,0.0,0.0,-0.013060111552476883,0.020636748522520065,0.02047826535999775,0.9999963641166687,0.0017263850895687938,-0.00194641575217247,-0.0007182153640314937
129.0,0.0,0.0,0.0,0.0,0.0,0.0,0.00929243117570877,-0.007140343077480793,0.01770615018904209,0.999998152256012,0.0008050483884289861,-0.0010214801877737045,-0.001401391695253551
130.0,0.0,0.0,0.0,0.0,0.0,0.0,0.001189623260870576,0.0015344638377428055,0.006873452104628086,0.9999948740005493,-0.0006300071836449206,-0.00215323269367218,-0.00227415026165545
131.0,0.0,0.0,0.0,0.0,0.0,0.0,0.008137904107570648,0.037122394889593124,0.006048737559467554,0.9999940991401672,-0.0008343741646967828,-0.002121314639225602,-0.0025628849398344755
132.0,0.0,0.0,0.0,0.0,0.0,0.0,-0.0003614391025621444,0.022287042811512947,0.015623260289430618,0.9999984502792358,-0.0011177676497027278,-0.001197885605506599,-0.0006836449028924108
133.0,0.0,0.0,0.0,0.0,0.0,0.0,0.008037100546061993,0.010265876539051533,-0.0006924435147084296,0.9999987483024597,-0.0011389033170416951,-0.0008513738866895437,0.000669193163048476
134.0,0.0,0.0,0.0,0.0,0.0,0.0,0.01560935191810131,0.01733214408159256,-0.010702935047447681,0.9999989867210388,-0.0009431273792870343,-0.0009021866135299206,0.0005402601091191173
135.0,0.0,0.0,0.0,0.0,0.0,0.0,0.008402150124311447,0.019858915358781815,-0.002667981432750821,0.9999986290931702,-0.0003691456513479352,-0.001292443834245205,0.0009924143087118864
136.0,0.0,0.0,0.0,0.0,0.0,0.0,0.009605815634131432,0.011497470550239086,-0.005358592141419649,0.9999980330467224,-0.00021220240159891546,-0.0018786691362038255,0.0005729387630708516
137.0,0.0,0.0,0.0,0.0,0.0,0.0,0.013563320972025394,0.010597466491162777,-0.010084908455610275,0.9999976754188538,-0.0001196604353026487,-0.0021574434358626604,7.669867045478895e-05
138.0,0.0,0.0,0.0,0.0,0.0,0.0,0.005392210092395544,0.01449532713741064,-0.004042844753712416,0.9999964833259583,5.434729246189818e-05,-0.00245360448025167,0.000997485127300024
139.0,0.0,0.0,0.0,0.0,0.0,0.0,0.007452249992638826,0.014472393319010735,-0.004399114288389683,0.9999938607215881,0.0002189720398746431,-0.00266245030798018,0.0022636440116912127
140.0,0.0,0.0,0.0,0.0,0.0,0.0,0.00608901958912611,0.01805301383137703,-0.0002843004767782986,0.9999912977218628,0.0003245978441555053,-0.0029217067640274763,0.0029637799598276615
141.0,0.0,0.0,0.0,0.0,0.0,0.0,0.0004979985533282161,0.014073525555431843,0.00493004871532321,0.9999920725822449,0.0005861301906406879,-0.0031697284430265427,0.0023419500794261694
142.0,0.0,0.0,0.0,0.0,0.0,0.0,0.00405195914208889,0.010848491452634335,0.0020166500471532345,0.999992311000824,0.0010867096716538072,-0.003572656074538827,0.0012078172294422984
143.0,0.0,0.0,0.0,0.0,0.0,0.0,0.004477519541978836,0.01076758373528719,0.00509714474901557,0.9999909996986389,0.0012870492646470666,-0.003983106929808855,0.0007012916030362248
144.0,0.0,0.0,0.0,0.0,0.0,0.0,0.0018035945249721408,0.011331708170473576,0.009035039693117142,0.9999921917915344,0.0011921932455152273,-0.00361055601388216,0.0010487041436135769
145.0,0.0,0.0,0.0,0.0,0.0,0.0,0.005239088088274002,0.009279962629079819,0.007504820823669434,0.9999961853027344,0.002039250684902072,-0.0012843185104429722,0.0013448792742565274
146.0,0.0,0.0,0.0,0.0,0.0,0.0,0.0071120732463896275,0.0074489787220954895,0.005328734405338764,0.9999929666519165,0.002698757452890277,0.0012699414510279894,0.0022660589311271906
147.0,0.0,0.0,0.0,0.0,0.0,0.0,0.012572203762829304,0.00337648531422019,-0.0006852578371763229,0.9999883770942688,0.0033371460158377886,0.0032101806718856096,0.0013387384824454784
148.0,0.0,0.0,0.0,0.0,0.0,0.0,0.025518110021948814,-0.0085371108725667,-0.011148803867399693,0.9999788999557495,0.0046770693734288216,0.0043554301373660564,0.0011805635876953602
149.0,0.0,0.0,0.0,0.0,0.0,0.0,0.04672846570611,-0.030271068215370178,-0.03655765950679779,0.9999831318855286,0.004972419235855341,0.0027503748424351215,0.001198449288494885
150.0,0.0,0.0,0.0,0.0,0.0,0.0,0.0951383113861084,-0.0765272006392479,-0.10043925791978836,0.999987006187439,0.004900196101516485,0.0012964359484612942,-0.0005889408639632165
151.0,0.0,0.0,0.0,0.0,0.0,0.0,0.030014973133802414,0.02254091575741768,0.05676870048046112,0.99998539686203,0.005355235654860735,-9.278640209231526e-05,-0.0006958484882488847
152.0,0.0,0.0,0.0,0.0,0.0,0.0,-0.06972280144691467,0.029617154970765114,0.059162966907024384,0.9999862313270569,0.004345251247286797,-0.0027874058578163385,-0.0009588356479071081
153.0,0.0,0.0,0.0,0.0,0.0,0.0,0.040605269372463226,-0.05878017470240593,-0.007784370332956314,0.9999973177909851,0.002109803492203355,-0.0008946055895648897,0.00031483746715821326
154.0,0.0,0.0,0.0,0.0,0.0,0.0,0.01851324737071991,0.012049778364598751,0.008341116830706596,0.9999872446060181,0.0023964594583958387,-0.00425735954195261,-0.0012829693732783198
155.0,0.0,0.0,0.0,0.0,0.0,0.0,-0.02447480522096157,0.01682044379413128,0.026499224826693535,0.9999798536300659,0.0013483600923791528,-0.0062022521160542965,0.00013208625023253262
156.0,0.0,0.0,0.0,0.0,0.0,0.0,0.02365051954984665,-0.02960391715168953,0.0019125330727547407,0.999986469745636,0.0007232202333398163,-0.005150842480361462,0.00015357705706264824
157.0,0.0,0.0,0.0,0.0,0.0,0.0,0.0004979150835424662,-0.017551960423588753,0.005050057545304298,0.9999644160270691,-0.0011935555376112461,-0.008301601745188236,-0.000894250231795013
158.0,0.0,0.0,0.0,0.0,0.0,0.0,-0.022653987631201744,0.020275402814149857,0.029976561665534973,0.9999452233314514,-0.002417568815872073,-0.009860184974968433,-0.002561163390055299
159.0,0.0,0.0,0.0,0.0,0.0,0.0,-0.019364994019269943,0.022218599915504456,0.03343256562948227,0.9999514222145081,-0.002785421907901764,-0.008881432004272938,-0.003237462369725108
160.0,0.0,0.0,0.0,0.0,0.0,0.0,-0.006789910141378641,0.006015971768647432,0.016405228525400162,0.9999629259109497,-0.0027683102525770664,-0.007540132850408554,-0.0030971039086580276
161.0,0.0,0.0,0.0,0.0,0.0,0.0,0.009324085898697376,-0.0031890941318124533,0.00333828991279006,0.9999726414680481,-0.002566169248893857,-0.006347227841615677,-0.0028015384450554848
162.0,0.0,0.0,0.0,0.0,0.0,0.0,0.013454846106469631,-0.0006283426191657782,-0.004800950642675161,0.9999783635139465,-0.002476191148161888,-0.005672203842550516,-0.0022422377951443195
163.0,0.0,0.0,0.0,0.0,0.0,0.0,0.014949976466596127,0.0017626750050112605,-0.013744853436946869,0.9999831318855286,-0.0021487583871930838,-0.00515223853290081,-0.0016021989285945892
164.0,0.0,0.0,0.0,0.0,0.0,0.0,0.02563977614045143,0.0008030438330024481,-0.028433287516236305,0.9999869465827942,-0.0016073622973635793,-0.004583100322633982,-0.0016071151476353407
165.0,0.0,0.0,0.0,0.0,0.0,0.0,0.01963641494512558,0.006796479690819979,-0.014421180821955204,0.9999875426292419,-0.0009467494674026966,-0.004289605189114809,-0.0023872298188507557
166.0,0.0,0.0,0.0,0.0,0.0,0.0,0.008415665477514267,0.023793900385499,0.009072824381291866,0.9999852776527405,-0.00017008546274155378,-0.004625197499990463,-0.002837216481566429
167.0,0.0,0.0,0.0,0.0,0.0,0.0,0.01744173839688301,0.025411449372768402,-0.0014902102993801236,0.999986469745636,0.0009315937641076744,-0.004599615000188351,-0.002244665753096342
168.0,0.0,0.0,0.0,0.0,0.0,0.0,0.032268986105918884,0.009209474548697472,-0.02551005594432354,0.9999875426292419,0.0017921903636306524,-0.004518517293035984,-0.0011445499258115888
169.0,0.0,0.0,0.0,0.0,0.0,0.0,0.033719751983881,0.0035976252984255552,-0.03179026395082474,0.9999859929084778,0.0017522693378850818,-0.004998840857297182,-0.00013851679977960885
170.0,0.0,0.0,0.0,0.0,0.0,0.0,0.023673415184020996,0.006100522819906473,-0.01235619094222784,0.9999842047691345,0.0016019893810153008,-0.005321672186255455,0.0008000571397133172
171.0,0.0,0.0,0.0,0.0,0.0,0.0,0.015967879444360733,0.010787433944642544,0.001009072526358068,0.9999824166297913,0.0013519608182832599,-0.005708964541554451,0.0009056434500962496
172.0,0.0,0.0,0.0,0.0,0.0,0.0,0.00785430520772934,0.014382986351847649,0.011780033819377422,0.9999807476997375,0.0011862876126542687,-0.006086367182433605,0.0003724932612385601
173.0,0.0,0.0,0.0,0.0,0.0,0.0,0.008021875284612179,0.01967862993478775,0.012041747570037842,0.9999822974205017,0.0011414834298193455,-0.0058448417112231255,-1.5908477507764474e-05
174.0,0.0,0.0,0.0,0.0,0.0,0.0,0.00962306559085846,0.01946220174431801,0.012484378181397915,0.9999829530715942,0.0013939450727775693,-0.005625996273010969,0.0007044877856969833
175.0,0.0,0.0,0.0,0.0,0.0,0.0,0.01198363397270441,0.009357718750834465,0.007526326924562454,0.9999833703041077,0.0020138586405664682,-0.004814659245312214,0.0024608054663985968
176.0,0.0,0.0,0.0,0.0,0.0,0.0,0.017389755696058273,-0.001730497693642974,-0.0022291962523013353,0.9999838471412659,0.0023235136177390814,-0.0038741203024983406,0.0034624149557203054
177.0,0.0,0.0,0.0,0.0,0.0,0.0,0.013736543245613575,-0.005093005020171404,-0.0016691781347617507,0.9999879598617554,0.001994074322283268,-0.003122319234535098,0.0032069741282612085
178.0,0.0,0.0,0.0,0.0,0.0,0.0,0.009381814859807491,-0.0015582869527861476,0.0020838624332100153,0.9999919533729553,0.0015958412550389767,-0.0027300796937197447,0.002489827573299408
179.0,0.0,0.0,0.0,0.0,0.0,0.0,0.0027067959308624268,0.00014913764607626945,0.011418857611715794,0.9999945759773254,0.0011805450776591897,-0.0018134023994207382,0.002505743410438299
180.0,0.0,0.0,0.0,0.0,0.0,0.0,0.005841098725795746,-0.0006406867760233581,0.011303607374429703,0.999997079372406,0.0005844098632223904,-0.0005345060490071774,0.002275563310831785
181.0,0.0,0.0,0.0,0.0,0.0,0.0,0.007203919813036919,-0.0015868805348873138,0.0031263730488717556,0.9999987483024597,-6.575719453394413e-05,-0.0008518601534888148,0.0013635861687362194
182.0,0.0,0.0,0.0,0.0,0.0,0.0,0.0068589188158512115,-0.01051226444542408,-0.006364510860294104,0.9999991059303284,-0.0009538034209981561,-0.0008948077447712421,0.00027017088723368943
183.0,0.0,0.0,0.0,0.0,0.0,0.0,0.009265100583434105,-0.014205440878868103,-0.009964611381292343,0.9999969005584717,-0.0020672844257205725,-0.0010818920563906431,-0.0008172697271220386
184.0,0.0,0.0,0.0,0.0,0.0,0.0,-0.002886296948418021,-0.0037269131280481815,0.0014462769031524658,0.9999861121177673,-0.003970491699874401,-0.002531785983592272,-0.0023914738558232784
185.0,0.0,0.0,0.0,0.0,0.0,0.0,-0.017605066299438477,0.008739132434129715,0.020147746428847313,0.9999698996543884,-0.005891566630452871,-0.0037747526075690985,-0.0033652549609541893
186.0,0.0,0.0,0.0,0.0,0.0,0.0,-0.01937044970691204,0.008577270433306694,0.02997477352619171,0.9999566078186035,-0.007707207463681698,-0.003700296627357602,-0.0037075539585202932
187.0,0.0,0.0,0.0,0.0,0.0,0.0,-0.012001709081232548,0.015574146062135696,0.028307229280471802,0.9999561309814453,-0.00846072006970644,-0.0011145739117637277,-0.00387423112988472
188.0,0.0,0.0,0.0,0.0,0.0,0.0,-0.008936954662203789,0.025806687772274017,0.036777086555957794,0.9999514222145081,-0.008362671360373497,0.0046189818531274796,-0.0024264678359031677
189.0,0.0,0.0,0.0,0.0,0.0,0.0,-0.0017715671565383673,0.03173856809735298,0.03484717011451721,0.9999114871025085,-0.007061033044010401,0.011262815445661545,0.00054651137907058
190.0,0.0,0.0,0.0,0.0,0.0,0.0,0.019550172612071037,0.019099555909633636,-0.015693411231040955,0.9998338222503662,-0.0059877424500882626,0.01684110052883625,0.0036027831956744194
191.0,0.0,0.0,0.0,0.0,0.0,0.0,0.0367186963558197,-0.00713871605694294,-0.021369118243455887,0.9997010231018066,-0.0051468852907419205,0.023078253492712975,0.0062391203828155994
192.0,0.0,0.0,0.0,0.0,0.0,0.0,0.04102790728211403,-0.02070562168955803,-0.03576125204563141,0.9996238350868225,-0.004921585321426392,0.026263270527124405,0.00619549723342061
193.0,0.0,0.0,0.0,0.0,0.0,0.0,0.03459747135639191,-0.005300734657794237,-0.039186228066682816,0.99958735704422,-0.004105857573449612,0.02783750556409359,0.005773449316620827
194.0,0.0,0.0,0.0,0.0,0.0,0.0,0.0347251333296299,-0.008070623502135277,-0.03838310390710831,0.9996293187141418,-0.0037043208722025156,0.026308691129088402,0.005954177584499121
195.0,0.0,0.0,0.0,0.0,0.0,0.0,0.028750386089086533,-0.013057238422334194,-0.029081538319587708,0.999713122844696,-0.003267779480665922,0.022822411730885506,0.006492280401289463
196.0,0.0,0.0,0.0,0.0,0.0,0.0,0.03229279816150665,-0.012416709214448929,-0.0368579626083374,0.9998284578323364,-0.0037582952063530684,0.016734926030039787,0.006987819913774729
197.0,0.0,0.0,0.0,0.0,0.0,0.0,0.023695338517427444,-0.014046217314898968,-0.013049278408288956,0.9999059438705444,-0.004990735091269016,0.010530192404985428,0.00722314091399312
198.0,0.0,0.0,0.0,0.0,0.0,0.0,-0.0039335014298558235,-0.005848233588039875,0.01563197560608387,0.9999454617500305,-0.006811850238591433,0.004137033596634865,0.006754576228559017
199.0,0.0,0.0,0.0,0.0,0.0,0.0,-0.026794394478201866,0.016821322962641716,0.031134173274040222,0.9999537467956543,-0.00811908207833767,-0.00014722661580890417,0.0051452117040753365
200.0,0.0,0.0,0.0,0.0,0.0,0.0,-0.0012929515214636922,0.00958626065403223,0.012193419970571995,0.9999437928199768,-0.009181998670101166,-0.0014345883391797543,0.005112013779580593
201.0,0.0,0.0,0.0,0.0,0.0,0.0,0.011083113960921764,0.005480862222611904,0.00869370624423027,0.9999313950538635,-0.010088850744068623,-0.0023223005700856447,0.0055086854845285416
202.0,0.0,0.0,0.0,0.0,0.0,0.0,-0.001167316222563386,0.00515469117090106,0.010352401062846184,0.999920129776001,-0.011181431822478771,-0.0025283703580498695,0.005337725859135389
203.0,0.0,0.0,0.0,0.0,0.0,0.0,0.005194324534386396,0.009967882186174393,0.013652325607836246,0.9999125599861145,-0.011767770163714886,-0.002913258969783783,0.005270859692245722
204.0,0.0,0.0,0.0,0.0,0.0,0.0,-0.0038223275914788246,0.010538182221353054,0.02156621776521206,0.9999045133590698,-0.012518033385276794,-0.0019140223739668727,0.005537313874810934
205.0,0.0,0.0,0.0,0.0,0.0,0.0,0.0006536145228892565,0.003851294284686446,0.018276164308190346,0.9998964071273804,-0.013084322214126587,-0.0010412707924842834,0.005927075166255236
206.0,0.0,0.0,0.0,0.0,0.0,0.0,0.004680413752794266,0.017038658261299133,0.00990457832813263,0.9999006390571594,-0.012602054513990879,-0.00065808737417683,0.006278014276176691
207.0,0.0,0.0,0.0,0.0,0.0,0.0,-0.004793033469468355,0.008793768472969532,0.01072035450488329,0.9999076724052429,-0.011991153471171856,0.0005912454216741025,0.006362214218825102
208.0,0.0,0.0,0.0,0.0,0.0,0.0,-0.005493327043950558,0.0019486843375489116,0.02604903280735016,0.9999108910560608,-0.011316785588860512,0.002012751530855894,0.0067995586432516575
209.0,0.0,0.0,0.0,0.0,0.0,0.0,-0.009078147821128368,0.008961151354014874,0.015952177345752716,0.9999164938926697,-0.010357042774558067,0.00259915622882545,0.007279159035533667
210.0,0.0,0.0,0.0,0.0,0.0,0.0,0.02140880934894085,0.001463523949496448,-0.025385688990354538,0.999925434589386,-0.00877084769308567,0.0024914490059018135,0.008121997117996216
211.0,0.0,0.0,0.0,0.0,0.0,0.0,0.0338846892118454,-0.010620924644172192,-0.03683339059352875,0.999927282333374,-0.007444269489496946,0.00027492354274727404,0.009491777047514915
212.0,0.0,0.0,0.0,0.0,0.0,0.0,0.016420654952526093,-0.006964939180761576,-0.01774413324892521,0.9999191164970398,-0.006876720581203699,-0.002443685894832015,0.010427573695778847
213.0,0.0,0.0,0.0,0.0,0.0,0.0,0.015916205942630768,0.003910986706614494,-0.018981430679559708,0.9998951554298401,-0.006962304003536701,-0.005531611852347851,0.011434334330260754
214.0,0.0,0.0,0.0,0.0,0.0,0.0,0.012219863012433052,0.004726015496999025,-0.015424798242747784,0.9998762607574463,-0.007652572821825743,-0.008157068863511086,0.011072381399571896
215.0,0.0,0.0,0.0,0.0,0.0,0.0,-0.0047656637616455555,-0.0005913773202337325,0.0028056749142706394,0.9998549222946167,-0.008633569814264774,-0.009813704527914524,0.01092406827956438
216.0,0.0,0.0,0.0,0.0,0.0,0.0,0.006163627840578556,-0.006231422070413828,0.0011213032994419336,0.9998379349708557,-0.009361649863421917,-0.010919928550720215,0.01082854438573122
217.0,0.0,0.0,0.0,0.0,0.0,0.0,0.00821761880069971,-0.001328574144281447,0.0009797535603865981,0.9998391270637512,-0.010250802151858807,-0.011009367182850838,0.009777634404599667
218.0,0.0,0.0,0.0,0.0,0.0,0.0,0.001254519447684288,0.011084359139204025,0.005599422380328178,0.9998302459716797,-0.010730253532528877,-0.010748694650828838,0.010428942739963531
219.0,0.0,0.0,0.0,0.0,0.0,0.0,0.009454906918108463,0.007499351631850004,0.0018595444271340966,0.9998196363449097,-0.010670758783817291,-0.010171741247177124,0.011977382935583591
220.0,0.0,0.0,0.0,0.0,0.0,0.0,0.016425086185336113,-0.003361107548698783,-0.0027693638112396,0.999813973903656,-0.010798344388604164,-0.009960895404219627,0.012503786943852901
221.0,0.0,0.0,0.0,0.0,0.0,0.0,0.013407224789261818,-0.0012863414594903588,0.00023236525885295123,0.9998096823692322,-0.011004216969013214,-0.010889489203691483,0.011870141141116619
222.0,0.0,0.0,0.0,0.0,0.0,0.0,0.007938884198665619,0.011371796950697899,0.00579351419582963,0.9998070597648621,-0.010770952329039574,-0.012277903966605663,0.010917339473962784
223.0,0.0,0.0,0.0,0.0,0.0,0.0,-0.002312328666448593,0.007500153500586748,0.01201227493584156,0.9998029470443726,-0.010387255810201168,-0.013479914516210556,0.010218676179647446
224.0,0.0,0.0,0.0,0.0,0.0,0.0,0.003722843248397112,-0.0015706791309639812,0.005362344440072775,0.999801754951477,-0.009679625742137432,-0.014305057004094124,0.009910299442708492
225.0,0.0,0.0,0.0,0.0,0.0,0.0,0.006128254346549511,0.005473229102790356,0.005768296308815479,0.9997990131378174,-0.009016436524689198,-0.015106351114809513,0.00961422361433506
226.0,0.0,0.0,0.0,0.0,0.0,0.0,-0.008124193176627159,-0.0037962819915264845,0.018363812938332558,0.9997977018356323,-0.008474434725940228,-0.01562191266566515,0.009418069384992123
227.0,0.0,0.0,0.0,0.0,0.0,0.0,0.001113449689000845,-0.010838191956281662,0.005875497590750456,0.9997918009757996,-0.008360759355127811,-0.01622130163013935,0.009139918722212315
228.0,0.0,0.0,0.0,0.0,0.0,0.0,0.016118589788675308,-0.015052549540996552,-0.007584210950881243,0.999780535697937,-0.008674686774611473,-0.01700693741440773,0.008627125062048435
229.0,0.0,0.0,0.0,0.0,0.0,0.0,0.006204534787684679,-0.0071862125769257545,-0.008333305828273296,0.9997595548629761,-0.009333192370831966,-0.01837175153195858,0.007500879000872374
230.0,0.0,0.0,0.0,0.0,0.0,0.0,0.004845180548727512,-0.0054980008862912655,-0.00487339636310935,0.9997432827949524,-0.010308969765901566,-0.01916416361927986,0.006317215971648693
231.0,0.0,0.0,0.0,0.0,0.0,0.0,0.0029692568350583315,-0.012714619748294353,-0.00703414948657155,0.9997068047523499,-0.011459165252745152,-0.02050292305648327,0.005890200845897198
232.0,0.0,0.0,0.0,0.0,0.0,0.0,0.004751019645482302,-0.009491956792771816,-0.010725755244493484,0.9996468424797058,-0.012572097592055798,-0.022812047973275185,0.005279748700559139
233.0,0.0,0.0,0.0,0.0,0.0,0.0,-0.0064008175395429134,-0.017735572531819344,0.0013478313339874148,0.999584972858429,-0.014743594452738762,-0.02445276826620102,0.003838728182017803
234.0,0.0,0.0,0.0,0.0,0.0,0.0,-0.0066779544577002525,-0.012403389438986778,0.0058777183294296265,0.9995193481445312,-0.01676524244248867,-0.025905396789312363,0.003011466469615698
235.0,0.0,0.0,0.0,0.0,0.0,0.0,-0.002283724257722497,-0.0010092789307236671,0.0037643788382411003,0.9994504451751709,-0.019008886069059372,-0.027051718905568123,0.002449137857183814
236.0,0.0,0.0,0.0,0.0,0.0,0.0,-0.012704416178166866,0.002407567575573921,0.014676795341074467,0.9993797540664673,-0.021241240203380585,-0.028044769540429115,0.0016657487722113729
237.0,0.0,0.0,0.0,0.0,0.0,0.0,-0.013376878574490547,0.007574246730655432,0.009574959054589272,0.9993250966072083,-0.023121943697333336,-0.028511805459856987,0.0014305135700851679
238.0,0.0,0.0,0.0,0.0,0.0,0.0,-0.008084460161626339,0.013635008595883846,0.0017977257957682014,0.9993029832839966,-0.02449980191886425,-0.02815869078040123,0.0008196665439754725
239.0,0.0,0.0,0.0,0.0,0.0,0.0,-0.011356065981090069,0.012680674903094769,0.002662365324795246,0.999302327632904,-0.025372851639986038,-0.02741079404950142,0.00026813489967025816
240.0,0.0,0.0,0.0,0.0,0.0,0.0,-0.009036704897880554,0.011457344517111778,0.007627198472619057,0.9993577599525452,-0.02554585412144661,-0.025129636749625206,3.6914527299813926e-05
241.0,0.0,0.0,0.0,0.0,0.0,0.0,0.0009825866436585784,0.010031143203377724,-0.00021704193204641342,0.9993727803230286,-0.026303326711058617,-0.0236891508102417,0.0011368202976882458
242.0,0.0,0.0,0.0,0.0,0.0,0.0,-0.001978824846446514,0.006367034278810024,0.0035014727618545294,0.9993901252746582,-0.026893358677625656,-0.0220941174775362,0.002843035850673914
243.0,0.0,0.0,0.0,0.0,0.0,0.0,0.000557278108317405,-0.0002509551995899528,0.005144733469933271,0.9994418621063232,-0.026927867904305458,-0.019367964938282967,0.003968196455389261
244.0,0.0,0.0,0.0,0.0,0.0,0.0,0.006880368571728468,-0.0007075903122313321,0.004755900241434574,0.999512255191803,-0.02631116844713688,-0.016110703349113464,0.00485523184761405
245.0,0.0,0.0,0.0,0.0,0.0,0.0,-0.015397102572023869,0.006066295318305492,0.027474043890833855,0.9995964765548706,-0.025189468637108803,-0.012048269622027874,0.005231659393757582
246.0,0.0,0.0,0.0,0.0,0.0,0.0,-0.033123232424259186,0.031329456716775894,0.03463299944996834,0.9997066259384155,-0.02295641228556633,-0.0055795093066990376,0.0053580086678266525
247.0,0.0,0.0,0.0,0.0,0.0,0.0,0.022695064544677734,0.010402296669781208,-0.005068139173090458,0.9997770190238953,-0.02002047747373581,0.002779874252155423,0.00612679636105895
248.0,0.0,0.0,0.0,0.0,0.0,0.0,0.05619591102004051,-0.010699072852730751,-0.03534187376499176,0.9997603893280029,-0.017674438655376434,0.009794828481972218,0.008417526260018349
249.0,0.0,0.0,0.0,0.0,0.0,0.0,0.035919565707445145,-0.00039715631282888353,-0.03193715959787369,0.9997372031211853,-0.01613691635429859,0.01300839427858591,0.009799179621040821
250.0,0.0,0.0,0.0,0.0,0.0,0.0,0.026272056624293327,0.009654047898948193,-0.013158399611711502,0.9997271299362183,-0.014408967457711697,0.014955416321754456,0.010705215856432915
251.0,0.0,0.0,0.0,0.0,0.0,0.0,0.04125438630580902,-0.011255011893808842,-0.026140760630369186,0.9997105598449707,-0.013186193071305752,0.015691829845309258,0.012595300562679768
252.0,0.0,0.0,0.0,0.0,0.0,0.0,0.040223680436611176,-0.022897958755493164,-0.010030735284090042,0.9996952414512634,-0.013424884527921677,0.015404125675559044,0.013856538571417332
253.0,0.0,0.0,0.0,0.0,0.0,0.0,0.01194393914192915,0.011354896239936352,0.005798725411295891,0.9997156858444214,-0.014703260734677315,0.012889564037322998,0.01365460641682148
254.0,0.0,0.0,0.0,0.0,0.0,0.0,0.013548959977924824,0.0338856503367424,0.001316661131568253,0.9997463822364807,-0.014677038416266441,0.010747958905994892,0.013280881568789482
255.0,0.0,0.0,0.0,0.0,0.0,0.0,0.011611789464950562,0.002517039654776454,0.025760607793927193,0.9997137784957886,-0.0143668781965971,0.012230521067976952,0.01471057627350092
256.0,0.0,0.0,0.0,0.0,0.0,0.0,-0.0027066871989518404,0.019493572413921356,0.03418155014514923,0.9996928572654724,-0.013966766186058521,0.013619711622595787,0.015281039290130138
257.0,0.0,0.0,0.0,0.0,0.0,0.0,0.008102873340249062,0.04078399017453194,0.005169089883565903,0.9997041821479797,-0.012770166620612144,0.014001826755702496,0.015254423953592777
258.0,0.0,0.0,0.0,0.0,0.0,0.0,0.025520483031868935,0.014582508243620396,-0.006086140871047974,0.9996994137763977,-0.011288250796496868,0.014189162291586399,0.01650513894855976
259.0,0.0,0.0,0.0,0.0,0.0,0.0,0.02090686373412609,-0.02443029172718525,-0.005103695206344128,0.9996832013130188,-0.011006333865225315,0.01439675036817789,0.017469419166445732
260.0,0.0,0.0,0.0,0.0,0.0,0.0,0.030828675255179405,-0.01726492866873741,-0.022863978520035744,0.9997103214263916,-0.010791816748678684,0.013394942507147789,0.016838354989886284
261.0,0.0,0.0,0.0,0.0,0.0,0.0,0.04518764093518257,-0.01104461494833231,-0.039824653416872025,0.9997497797012329,-0.010156765580177307,0.011007862165570259,0.016616348177194595
262.0,0.0,0.0,0.0,0.0,0.0,0.0,0.025147978216409683,-0.01446676068007946,-0.01751716062426567,0.9997847080230713,-0.010457689873874187,0.006436665542423725,0.016726680099964142
263.0,0.0,0.0,0.0,0.0,0.0,0.0,0.0014567853650078177,0.01569305546581745,0.002626504749059677,0.9997913837432861,-0.01169627159833908,-0.0019942105282098055,0.016635466367006302
264.0,0.0,0.0,0.0,0.0,0.0,0.0,-0.00029089965391904116,0.004295940976589918,-0.0018913592211902142,0.9997295141220093,-0.012896581552922726,-0.010012630373239517,0.016566487029194832
265.0,0.0,0.0,0.0,0.0,0.0,0.0,-0.010504346340894699,-0.03586094453930855,0.03525426611304283,0.9996582269668579,-0.014891448430716991,-0.012926632538437843,0.017168670892715454
266.0,0.0,0.0,0.0,0.0,0.0,0.0,-0.004761728458106518,-0.03496772423386574,0.047671083360910416,0.9996240735054016,-0.01662261411547661,-0.013136962428689003,0.01740477792918682
267.0,0.0,0.0,0.0,0.0,0.0,0.0,-0.02747628279030323,0.016653450205922127,0.07337094843387604,0.9996353983879089,-0.01697457768023014,-0.010895376093685627,0.01795209012925625
268.0,0.0,0.0,0.0,0.0,0.0,0.0,-0.03243076428771019,0.052632857114076614,0.043150559067726135,0.9996679425239563,-0.016006896272301674,-0.0077111427672207355,0.018663551658391953
269.0,0.0,0.0,0.0,0.0,0.0,0.0,0.026263630017638206,0.0009132744744420052,-0.015617604367434978,0.999738335609436,-0.013162241317331791,-0.004268929827958345,0.018223274499177933
270.0,0.0,0.0,0.0,0.0,0.0,0.0,0.008591949939727783,-0.01373106800019741,0.00771610252559185,0.9997981786727905,-0.010805737227201462,-0.0011335961753502488,0.016899244859814644
271.0,0.0,0.0,0.0,0.0,0.0,0.0,-0.0020807047840207815,0.009861684404313564,0.002837530104443431,0.999847948551178,-0.008528398349881172,0.00021822715643793344,0.01521051861345768
272.0,0.0,0.0,0.0,0.0,0.0,0.0,0.039125338196754456,0.00260687037371099,-0.03882121667265892,0.9998639822006226,-0.006543239112943411,0.00016456074081361294,0.015141832642257214
273.0,0.0,0.0,0.0,0.0,0.0,0.0,0.043290749192237854,-0.034300897270441055,-0.040522877126932144,0.999840497970581,-0.0062619405798614025,0.00027816338115371764,0.016725018620491028
274.0,0.0,0.0,0.0,0.0,0.0,0.0,0.010279310867190361,-0.04349994659423828,-0.008230987936258316,0.9998164772987366,-0.007327935192734003,0.0008452823385596275,0.017682183533906937
275.0,0.0,0.0,0.0,0.0,0.0,0.0,-0.005561239551752806,-0.008671754039824009,0.005322107579559088,0.9998137950897217,-0.008668870665133,0.00046912283869460225,0.0172404907643795
276.0,0.0,0.0,0.0,0.0,0.0,0.0,-0.004978212993592024,0.022471267729997635,0.007914219051599503,0.9998401999473572,-0.008706999942660332,-0.000961467856541276,0.015582693740725517
277.0,0.0,0.0,0.0,0.0,0.0,0.0,-0.004222293850034475,0.006331678945571184,0.008715552277863026,0.9998735785484314,-0.008307657204568386,-0.0012538675218820572,0.013503381982445717
278.0,0.0,0.0,0.0,0.0,0.0,0.0,0.00542414141818881,-0.020274048671126366,-0.005102589726448059,0.9999006390571594,-0.00857871025800705,-0.0016870179679244757,0.011059687472879887
279.0,0.0,0.0,0.0,0.0,0.0,0.0,0.013980825431644917,-0.01966056227684021,-0.004925624001771212,0.9999174475669861,-0.009090865962207317,-0.001799122546799481,0.008904175832867622
280.0,0.0,0.0,0.0,0.0,0.0,0.0,0.007986612617969513,0.00012034438987029716,0.00183648441452533,0.9999162554740906,-0.00998666975647211,-0.0018616497982293367,0.008031532168388367
281.0,0.0,0.0,0.0,0.0,0.0,0.0,0.009176304563879967,-0.0025050584226846695,0.00040388645720668137,0.999902606010437,-0.011174896731972694,-0.002367326756939292,0.008021481335163116
282.0,0.0,0.0,0.0,0.0,0.0,0.0,0.0033698875922709703,-0.006937973666936159,0.0040479558520019054,0.9998868703842163,-0.012228106148540974,-0.0028893041890114546,0.008284621872007847
283.0,0.0,0.0,0.0,0.0,0.0,0.0,0.005013975780457258,0.0015267654089257121,0.005511681083589792,0.9998798966407776,-0.01253419741988182,-0.003690784564241767,0.008334317244589329
284.0,0.0,0.0,0.0,0.0,0.0,0.0,0.008058860898017883,0.0047084614634513855,0.01032162830233574,0.9998782277107239,-0.012552626430988312,-0.004974421579390764,0.007826270535588264
285.0,0.0,0.0,0.0,0.0,0.0,0.0,0.0023840616922825575,-0.0013823761837556958,0.011119072325527668,0.999873161315918,-0.012062564492225647,-0.006699449848383665,0.007950867526233196
286.0,0.0,0.0,0.0,0.0,0.0,0.0,0.008121895603835583,-0.004724820144474506,0.004651940893381834,0.9998670816421509,-0.01169130951166153,-0.008442921563982964,0.007619151845574379
287.0,0.0,0.0,0.0,0.0,0.0,0.0,0.008030431345105171,-0.008987254463136196,0.003313730238005519,0.9998489022254944,-0.011752821505069733,-0.01048485841602087,0.007361982949078083
288.0,0.0,0.0,0.0,0.0,0.0,0.0,0.006120968144387007,-0.00754119548946619,0.004160623997449875,0.9998270273208618,-0.011669840663671494,-0.012285081669688225,0.007680148351937532
289.0,0.0,0.0,0.0,0.0,0.0,0.0,0.011457325890660286,-0.003007185412570834,0.0012794963549822569,0.9998040795326233,-0.011659543961286545,-0.01377490721642971,0.008142746984958649
290.0,0.0,0.0,0.0,0.0,0.0,0.0,0.0004529004218056798,0.0017729325918480754,0.006311825942248106,0.9997782111167908,-0.011713320389389992,-0.015472130849957466,0.008172082714736462
291.0,0.0,0.0,0.0,0.0,0.0,0.0,0.0005817685159854591,0.004107573069632053,-0.0013942973455414176,0.9997490048408508,-0.011451924219727516,-0.01735832169651985,0.0083454055711627
292.0,0.0,0.0,0.0,0.0,0.0,0.0,0.009477363899350166,-0.004800168331712484,-0.008490498177707195,0.9997282028198242,-0.010677393525838852,-0.018826540559530258,0.00866804551333189
293.0,0.0,0.0,0.0,0.0,0.0,0.0,0.0006254875333979726,-0.010685903020203114,0.0007087279809638858,0.9997146129608154,-0.010729135945439339,-0.019700266420841217,0.008221364580094814
294.0,0.0,0.0,0.0,0.0,0.0,0.0,-0.0018155077705159783,-0.004068867303431034,0.00209142011590302,0.9997105598449707,-0.011008474975824356,-0.019957922399044037,0.007696588058024645
295.0,0.0,0.0,0.0,0.0,0.0,0.0,0.0011068010935559869,0.00020945366122759879,0.001159888575784862,0.9997162818908691,-0.010785644873976707,-0.019687682390213013,0.007972301915287971
296.0,0.0,0.0,0.0,0.0,0.0,0.0,-0.005787094589322805,-0.0006306616123765707,0.0074302577413618565,0.9997183084487915,-0.010837019421160221,-0.01941550150513649,0.008309475146234035
297.0,0.0,0.0,0.0,0.0,0.0,0.0,-0.0004435289010871202,-0.0038634897209703922,-0.0013772955862805247,0.9997393488883972,-0.010431226342916489,-0.018364369869232178,0.00867361482232809
298.0,0.0,0.0,0.0,0.0,0.0,0.0,0.007520434446632862,-0.0017463125986978412,-0.004782491363584995,0.9997722506523132,-0.009885350242257118,-0.017079100012779236,0.008128243498504162
299.0,0.0,0.0,0.0,0.0,0.0,0.0,-0.006360182072967291,0.0024094723630696535,0.008782056160271168,0.9998036623001099,-0.009395530447363853,-0.015868239104747772,0.007251799572259188
300.0,0.0,0.0,0.0,0.0,0.0,0.0,-0.00328236841596663,0.0038070811424404383,0.010437959805130959,0.999832034111023,-0.008338685147464275,-0.014925622381269932,0.006610814947634935
301.0,0.0,0.0,0.0,0.0,0.0,0.0,0.008724259212613106,-0.0006963189807720482,-0.0034771428909152746,0.9998490810394287,-0.007635877467691898,-0.014267301186919212,0.006329449824988842
302.0,0.0,0.0,0.0,0.0,0.0,0.0,0.009040266275405884,-0.01238346379250288,-0.003036994021385908,0.9998630285263062,-0.00717868423089385,-0.013717468827962875,0.005841282196342945
303.0,0.0,0.0,0.0,0.0,0.0,0.0,0.0029835922177881002,-0.011394728906452656,0.011674555018544197,0.9998758435249329,-0.006980578880757093,-0.012984855100512505,0.005580913741141558
304.0,0.0,0.0,0.0,0.0,0.0,0.0,-0.008282503113150597,-0.0022923501674085855,0.022095898166298866,0.9998844861984253,-0.007411741651594639,-0.01201372779905796,0.005634399596601725
305.0,0.0,0.0,0.0,0.0,0.0,0.0,-0.009430138394236565,0.0034645171836018562,0.02150852605700493,0.9998941421508789,-0.007784044370055199,-0.010930513963103294,0.005636768881231546
306.0,0.0,0.0,0.0,0.0,0.0,0.0,-0.005442766007035971,-0.002446051687002182,0.019192449748516083,0.999911904335022,-0.00816649105399847,-0.009097262285649776,0.005179331637918949
307.0,0.0,0.0,0.0,0.0,0.0,0.0,0.0024911498185247183,-0.007486530113965273,0.010053759440779686,0.9999297857284546,-0.008612863719463348,-0.007243070751428604,0.0037278609815984964
308.0,0.0,0.0,0.0,0.0,0.0,0.0,0.01069191936403513,-0.0008929934701882303,-0.004455576650798321,0.9999403953552246,-0.00900640431791544,-0.00557341706007719,0.00266287662088871
309.0,0.0,0.0,0.0,0.0,0.0,0.0,0.011743657290935516,0.0064163184724748135,-0.003639782080426812,0.9999526143074036,-0.00870613381266594,-0.0036316202022135258,0.0024254568852484226
310.0,0.0,0.0,0.0,0.0,0.0,0.0,0.012640596367418766,0.005332339555025101,-0.001731519354507327,0.9999591708183289,-0.00816511269658804,-0.0025303098373115063,0.0029156457167118788
311.0,0.0,0.0,0.0,0.0,0.0,0.0,0.016969317570328712,0.003334066132083535,-0.012528971768915653,0.9999655485153198,-0.007062905468046665,-0.002100949641317129,0.003814246039837599
312.0,0.0,0.0,0.0,0.0,0.0,0.0,0.025612035766243935,0.0006956602446734905,-0.018152743577957153,0.9999723434448242,-0.005714645143598318,-0.0016318060224875808,0.004489200655370951
313.0,0.0,0.0,0.0,0.0,0.0,0.0,0.02372834086418152,0.0071266586892306805,-0.019538605585694313,0.999977171421051,-0.004980666562914848,-0.0014744560467079282,0.004334719851613045
314.0,0.0,0.0,0.0,0.0,0.0,0.0,0.017997756600379944,0.013655992224812508,-0.015285945497453213,0.9999789595603943,-0.004620715975761414,-0.0020091489423066378,0.004113075789064169
315.0,0.0,0.0,0.0,0.0,0.0,0.0,0.012798260897397995,0.015226071700453758,-0.010013017803430557,0.9999753832817078,-0.004708035849034786,-0.0024412067141383886,0.004613448400050402
316.0,0.0,0.0,0.0,0.0,0.0,0.0,0.012684902176260948,0.010194842703640461,-0.013077028095722198,0.9999700784683228,-0.004848653916269541,-0.0028294099029153585,0.0053293234668672085
317.0,0.0,0.0,0.0,0.0,0.0,0.0,0.014225265942513943,0.010285258293151855,-0.016612514853477478,0.9999637603759766,-0.005308438558131456,-0.0035703210160136223,0.005609011743217707
318.0,0.0,0.0,0.0,0.0,0.0,0.0,0.01369602419435978,0.01316797360777855,-0.017694788053631783,0.9999561905860901,-0.006001831032335758,-0.004135816358029842,0.005887647159397602
319.0,0.0,0.0,0.0,0.0,0.0,0.0,0.0020764574874192476,0.008573172613978386,-0.008275702595710754,0.9999477863311768,-0.006996856536716223,-0.005399818066507578,0.005137638188898563
320.0,0.0,0.0,0.0,0.0,0.0,0.0,0.0009893589885905385,0.007213564123958349,-0.005663349758833647,0.9999411702156067,-0.008143885061144829,-0.006380811333656311,0.0032535719219595194
321.0,0.0,0.0,0.0,0.0,0.0,0.0,-0.0013267548056319356,0.007590592838823795,-0.004067951813340187,0.9999364018440247,-0.00897477101534605,-0.006743007805198431,0.0011075336951762438
322.0,0.0,0.0,0.0,0.0,0.0,0.0,-0.0030389728490263224,-0.001362181967124343,-0.005018886644393206,0.9999164342880249,-0.010918593034148216,-0.006913463585078716,-0.00021499492868315428
323.0,0.0,0.0,0.0,0.0,0.0,0.0,-0.00013916572788730264,0.005522681400179863,0.020533958449959755,0.9999041557312012,-0.012284400872886181,-0.006250404287129641,-0.0013362906174734235
324.0,0.0,0.0,0.0,0.0,0.0,0.0,-0.04861366003751755,0.027193447574973106,0.046439096331596375,0.9999076128005981,-0.013175584375858307,-0.003320790361613035,0.00037698898813687265
325.0,0.0,0.0,0.0,0.0,0.0,0.0,0.003014959627762437,0.002151543740183115,-0.0022372640669345856,0.9999015927314758,-0.01366424560546875,0.0001809558307286352,0.0032108763698488474
326.0,0.0,0.0,0.0,0.0,0.0,0.0,0.0242372564971447,-0.021251287311315536,-0.014445402659475803,0.999882161617279,-0.01408467348664999,0.0019118678756058216,0.005789296235889196
327.0,0.0,0.0,0.0,0.0,0.0,0.0,0.0009004668681882322,-0.0033686754759401083,0.0106265340000391,0.9998571276664734,-0.015241443179547787,0.0008142805309034884,0.0072769117541611195
328.0,0.0,0.0,0.0,0.0,0.0,0.0,0.0020271679386496544,-0.0020367021206766367,0.013928086496889591,0.9998552203178406,-0.015222526155412197,-9.451849473407492e-05,0.007616880815476179
329.0,0.0,0.0,0.0,0.0,0.0,0.0,0.004623692482709885,0.006450315937399864,0.0024547355715185404,0.9998597502708435,-0.01461745798587799,8.155303476087283e-06,0.008174152113497257
330.0,0.0,0.0,0.0,0.0,0.0,0.0,0.01571520045399666,0.010610822588205338,-0.002986080478876829,0.999852180480957,-0.013546036556363106,0.001522911130450666,0.010485518723726273
331.0,0.0,0.0,0.0,0.0,0.0,0.0,-0.017008090391755104,0.0037618146743625402,0.025807609781622887,0.9998494982719421,-0.013732978142797947,0.0004607028095051646,0.010592466220259666
332.0,0.0,0.0,0.0,0.0,0.0,0.0,-0.016263816505670547,0.023765791207551956,0.017042264342308044,0.9998546838760376,-0.012909073382616043,0.0014750806149095297,0.011042077094316483
333.0,0.0,0.0,0.0,0.0,0.0,0.0,0.03444270044565201,-0.013011333532631397,-0.030026955530047417,0.9998629689216614,-0.011187090538442135,0.004526984412223101,0.011330418288707733
334.0,0.0,0.0,0.0,0.0,0.0,0.0,-0.001209181733429432,-0.02746647596359253,0.011846146546304226,0.9998428821563721,-0.011081666685640812,0.007644813507795334,0.011528698727488518
335.0,0.0,0.0,0.0,0.0,0.0,0.0,-0.020706305280327797,0.01564161106944084,0.021107176318764687,0.9998317956924438,-0.010239683091640472,0.008774283342063427,0.012436704710125923
336.0,0.0,0.0,0.0,0.0,0.0,0.0,0.001408848213031888,0.019019583240151405,-0.00541000347584486,0.9998002648353577,-0.00900378730148077,0.010178172960877419,0.014654507860541344
337.0,0.0,0.0,0.0,0.0,0.0,0.0,0.008930603042244911,-0.027508210390806198,0.0030718494672328234,0.9997154474258423,-0.008955246768891811,0.012502698227763176,0.01823856122791767
338.0,0.0,0.0,0.0,0.0,0.0,0.0,0.018876390531659126,-0.0026091844774782658,-0.0028687878511846066,0.9996666312217712,-0.00908015388995409,0.012685742229223251,0.020578758791089058
339.0,0.0,0.0,0.0,0.0,0.0,0.0,0.004735093098133802,0.026273930445313454,-0.0020718001760542393,0.9996176958084106,-0.009156466461718082,0.011796096339821815,0.023262152448296547
340.0,0.0,0.0,0.0,0.0,0.0,0.0,0.010749327950179577,0.021337727084755898,3.128747994196601e-05,0.9995455741882324,-0.008538511581718922,0.011692403815686703,0.026439901441335678
341.0,0.0,0.0,0.0,0.0,0.0,0.0,0.027692478150129318,0.00011903584527317435,-0.037460338324308395,0.999494194984436,-0.008593295700848103,0.010962782427668571,0.02859305404126644
342.0,0.0,0.0,0.0,0.0,0.0,0.0,0.034344252198934555,-0.006937046535313129,-0.02729053795337677,0.9995090961456299,-0.009402977302670479,0.01005091704428196,0.02814527042210102
343.0,0.0,0.0,0.0,0.0,0.0,0.0,-0.014744231477379799,0.022428929805755615,0.01636982150375843,0.9996090531349182,-0.010615474544465542,0.005580581724643707,0.02525664120912552
344.0,0.0,0.0,0.0,0.0,0.0,0.0,-0.007027536164969206,0.04394294321537018,0.006540114525705576,0.9996569752693176,-0.010342579334974289,0.0005889650783501565,0.024059731513261795
345.0,0.0,0.0,0.0,0.0,0.0,0.0,0.04536948353052139,-0.012146158143877983,-0.0388498455286026,0.9996500611305237,-0.010005004703998566,-0.004026522394269705,0.024150555953383446
346.0,0.0,0.0,0.0,0.0,0.0,0.0,0.010705129243433475,-0.025363508611917496,0.0036250229459255934,0.9996293187141418,-0.009940472431480885,-0.008374851197004318,0.023920774459838867
347.0,0.0,0.0,0.0,0.0,0.0,0.0,-0.03674861416220665,0.011070160195231438,0.03642760589718819,0.9996158480644226,-0.009631646797060966,-0.012492578476667404,0.02279212325811386
348.0,0.0,0.0,0.0,0.0,0.0,0.0,-0.018470780923962593,0.02784946747124195,0.024295246228575706,0.9996539354324341,-0.007965730503201485,-0.013635056093335152,0.021042348816990852
349.0,0.0,0.0,0.0,0.0,0.0,0.0,0.0019383180188015103,-0.0011785619426518679,-0.003892849199473858,0.9996858835220337,-0.005995911080390215,-0.0141398711130023,0.01980799064040184
350.0,0.0,0.0,0.0,0.0,0.0,0.0,0.004126274026930332,-0.03409283608198166,0.0037759067490696907,0.9996970295906067,-0.005065410863608122,-0.014947091229259968,0.018886849284172058
351.0,0.0,0.0,0.0,0.0,0.0,0.0,0.0001951459125848487,-0.02293689362704754,0.007406110875308514,0.9997206926345825,-0.004589281510561705,-0.015380284748971462,0.017341533675789833
352.0,0.0,0.0,0.0,0.0,0.0,0.0,0.004355266224592924,-0.011692505329847336,-0.007550331298261881,0.9997327327728271,-0.004583620000630617,-0.01487999502569437,0.017092423513531685
353.0,0.0,0.0,0.0,0.0,0.0,0.0,-0.002004510723054409,-0.017359569668769836,0.00799006037414074,0.9997252225875854,-0.004937566816806793,-0.013630029745399952,0.018423300236463547
354.0,0.0,0.0,0.0,0.0,0.0,0.0,-0.004296073690056801,-0.008266478776931763,0.006409147754311562,0.9997260570526123,-0.005577588453888893,-0.012512031942605972,0.01898256130516529
355.0,0.0,0.0,0.0,0.0,0.0,0.0,0.0007589972810819745,0.0008089924813248217,0.007975008338689804,0.9997391700744629,-0.005506741814315319,-0.01117547694593668,0.01915186271071434
356.0,0.0,0.0,0.0,0.0,0.0,0.0,-0.0032461832743138075,-0.009035440161824226,0.00846036896109581,0.9997554421424866,-0.005811473820358515,-0.009680138900876045,0.019019009545445442
357.0,0.0,0.0,0.0,0.0,0.0,0.0,0.004730590153485537,-0.013412772677838802,0.0050252084620296955,0.9997824430465698,-0.006387718487530947,-0.008044004440307617,0.018153445795178413
358.0,0.0,0.0,0.0,0.0,0.0,0.0,-0.006989032495766878,-0.004888632800430059,0.009307176806032658,0.9997920393943787,-0.0070313140749931335,-0.0061881509609520435,0.01811499521136284
359.0,0.0,0.0,0.0,0.0,0.0,0.0,0.007875132374465466,0.012212241068482399,-0.0006524929194711149,0.999785840511322,-0.007401600480079651,-0.0036479015834629536,0.01898602768778801
360.0,0.0,0.0,0.0,0.0,0.0,0.0,0.0058892397210001945,0.010753253474831581,-0.002452228916808963,0.9997544884681702,-0.007756658364087343,-0.0012972629629075527,0.020713118836283684
361.0,0.0,0.0,0.0,0.0,0.0,0.0,-0.0058355447836220264,0.005805467255413532,0.0047308700159192085,0.999729573726654,-0.008284793235361576,0.00018911449296865612,0.021726161241531372
362.0,0.0,0.0,0.0,0.0,0.0,0.0,0.01850639283657074,-0.003693745005875826,-0.022420678287744522,0.9997202754020691,-0.008921409957110882,0.0003316750517114997,0.021904343739151955
363.0,0.0,0.0,0.0,0.0,0.0,0.0,0.015631943941116333,-0.014705203473567963,-0.02041647396981716,0.9996917247772217,-0.00984377134591341,-0.00024778509396128356,0.022793244570493698
364.0,0.0,0.0,0.0,0.0,0.0,0.0,0.0008074782090261579,0.010728046298027039,0.008095811121165752,0.9996852874755859,-0.010493528097867966,-0.0019068405963480473,0.02270887978374958
365.0,0.0,0.0,0.0,0.0,0.0,0.0,-0.019046064466238022,0.02937079407274723,0.017819803208112717,0.9996824264526367,-0.01074506901204586,-0.004368532914668322,0.022373519837856293
366.0,0.0,0.0,0.0,0.0,0.0,0.0,-0.008949080482125282,0.024739820510149002,0.013629879802465439,0.9996626973152161,-0.010162369348108768,-0.006091034039855003,0.023112785071134567
367.0,0.0,0.0,0.0,0.0,0.0,0.0,-0.008600891567766666,0.010644221678376198,0.018783319741487503,0.9996370077133179,-0.008952422998845577,-0.006116521544754505,0.02466406673192978
368.0,0.0,0.0,0.0,0.0,0.0,0.0,-0.010075938887894154,-0.006632890086621046,0.004093959927558899,0.9996266961097717,-0.008283037692308426,-0.005512413568794727,0.02545192651450634
369.0,0.0,0.0,0.0,0.0,0.0,0.0,0.02264847606420517,-0.00471956841647625,-0.02928760275244713,0.9996431469917297,-0.0074472734704613686,-0.006230854894965887,0.02489287778735161
370.0,0.0,0.0,0.0,0.0,0.0,0.0,0.0188025813549757,-0.0037839580327272415,-0.022146476432681084,0.99966961145401,-0.006547693628817797,-0.007355618756264448,0.023745965212583542
371.0,0.0,0.0,0.0,0.0,0.0,0.0,0.006567531265318394,-0.012298024259507656,-0.0025384456384927034,0.9996874928474426,-0.005903509445488453,-0.008689550682902336,0.022681590169668198
372.0,0.0,0.0,0.0,0.0,0.0,0.0,0.010301128961145878,-0.0233282633125782,-0.006549229379743338,0.9996946454048157,-0.006329124327749014,-0.01039173174649477,0.02150697261095047
373.0,0.0,0.0,0.0,0.0,0.0,0.0,-0.002610704628750682,-0.02611800841987133,-0.0030562810134142637,0.9996972680091858,-0.007235321681946516,-0.011792297475039959,0.020351342856884003
374.0,0.0,0.0,0.0,0.0,0.0,0.0,-0.008150133304297924,-0.009712142869830132,0.008832121267914772,0.9996738433837891,-0.007657372858375311,-0.013142635114490986,0.02051432430744171
375.0,0.0,0.0,0.0,0.0,0.0,0.0,-0.008657124824821949,0.004627937916666269,0.011173957958817482,0.9996642470359802,-0.00751563860103488,-0.014413302764296532,0.020177777856588364
376.0,0.0,0.0,0.0,0.0,0.0,0.0,-0.012074889615178108,0.007030664011836052,0.009500321000814438,0.9996737241744995,-0.007049968931823969,-0.014789018779993057,0.019600586965680122
377.0,0.0,0.0,0.0,0.0,0.0,0.0,0.0025179132353514433,-0.011055531911551952,-0.0035194994416087866,0.9996800422668457,-0.006705983076244593,-0.015018443576991558,0.019216543063521385
378.0,0.0,0.0,0.0,0.0,0.0,0.0,0.009572400711476803,-0.01703849993646145,-0.009575008414685726,0.999695897102356,-0.006378714460879564,-0.015063946135342121,0.018448734655976295
379.0,0.0,0.0,0.0,0.0,0.0,0.0,0.00492107355967164,-0.004631944000720978,-0.006602441426366568,0.9997195601463318,-0.006048301234841347,-0.014829395338892937,0.01744932308793068
380.0,0.0,0.0,0.0,0.0,0.0,0.0,-0.0008144152234308422,0.0011115181259810925,0.0053034997545182705,0.9997406005859375,-0.006224751006811857,-0.0134619465097785,0.017291536554694176
381.0,0.0,0.0,0.0,0.0,0.0,0.0,-0.009391607716679573,0.00947436410933733,0.01306909043341875,0.9997390508651733,-0.0068088858388364315,-0.011960847303271294,0.018232883885502815
382.0,0.0,0.0,0.0,0.0,0.0,0.0,-0.009413203224539757,0.012958114966750145,0.0062507265247404575,0.9997538924217224,-0.007343014236539602,-0.009958036243915558,0.018411923199892044
383.0,0.0,0.0,0.0,0.0,0.0,0.0,0.00734643405303359,0.007662253919988871,-0.009112807922065258,0.9997692108154297,-0.00731580751016736,-0.0080475565046072,0.018534351140260696
384.0,0.0,0.0,0.0,0.0,0.0,0.0,0.008667096495628357,0.005986936390399933,-0.0024104821495711803,0.9997906684875488,-0.007276536431163549,-0.006761771161109209,0.017888322472572327
385.0,0.0,0.0,0.0,0.0,0.0,0.0,-0.012452231720089912,0.012753549963235855,0.022215507924556732,0.9997943639755249,-0.007004881743341684,-0.004915863275527954,0.018382491543889046
386.0,0.0,0.0,0.0,0.0,0.0,0.0,-0.010728205554187298,0.004606416914612055,0.02586630918085575,0.9997807741165161,-0.006236763205379248,-0.0017646170454099774,0.019917745143175125
387.0,0.0,0.0,0.0,0.0,0.0,0.0,0.0015887584304437041,-0.01020945142954588,0.0015988737577572465,0.999742329120636,-0.006061119958758354,0.0012711476301774383,0.021840330213308334
388.0,0.0,0.0,0.0,0.0,0.0,0.0,0.006082871928811073,-0.009433310478925705,0.006829618941992521,0.9997194409370422,-0.006007199641317129,0.004532951861619949,0.022462056949734688
389.0,0.0,0.0,0.0,0.0,0.0,0.0,0.008531984873116016,-0.010188139975070953,-0.0021393983624875546,0.999708890914917,-0.005949833430349827,0.00617481442168355,0.02255452238023281
390.0,0.0,0.0,0.0,0.0,0.0,0.0,0.023516355082392693,-0.016467083245515823,-0.03596410155296326,0.9997084140777588,-0.005799024365842342,0.0063236006535589695,0.022575343027710915
391.0,0.0,0.0,0.0,0.0,0.0,0.0,0.03528611361980438,-0.024802599102258682,-0.04335671290755272,0.99971604347229,-0.005781575106084347,0.005076008848845959,0.022556154057383537
392.0,0.0,0.0,0.0,0.0,0.0,0.0,0.01705453172326088,-0.02082369476556778,-0.029367990791797638,0.9997463226318359,-0.0072165061719715595,0.0022148936986923218,0.021224351599812508
393.0,0.0,0.0,0.0,0.0,0.0,0.0,-0.00384858762845397,0.008629461750388145,0.00442450400441885,0.9997689127922058,-0.009189173579216003,-0.0013431018451228738,0.01938936673104763
394.0,0.0,0.0,0.0,0.0,0.0,0.0,-0.0196162648499012,0.02265700325369835,0.019253253936767578,0.9997519850730896,-0.010582806542515755,-0.0036178049631416798,0.01925830915570259
395.0,0.0,0.0,0.0,0.0,0.0,0.0,-0.006879162508994341,0.014498535543680191,0.009812026284635067,0.9997169375419617,-0.011198167689144611,-0.003384374314919114,0.02071618288755417
396.0,0.0,0.0,0.0,0.0,0.0,0.0,0.0046744802966713905,0.009723150171339512,0.0036618036683648825,0.9997037649154663,-0.011990470811724663,-0.003045629942789674,0.020963778719305992
397.0,0.0,0.0,0.0,0.0,0.0,0.0,0.004499664530158043,0.006081077270209789,-0.004056249279528856,0.9997249245643616,-0.013114668428897858,-0.0038769387174397707,0.01905667968094349
398.0,0.0,0.0,0.0,0.0,0.0,0.0,0.01642930693924427,-0.013424643315374851,-0.019488733261823654,0.9997647404670715,-0.014471999369561672,-0.005009704269468784,0.015376816503703594
399.0,0.0,0.0,0.0,0.0,0.0,0.0,0.0031593763269484043,-0.018820127472281456,0.0014658793807029724,0.9997665882110596,-0.016652217134833336,-0.005725398194044828,0.012522786855697632
400.0,0.0,0.0,0.0,0.0,0.0,0.0,-0.026962945237755775,0.001225269166752696,0.03238692507147789,0.9997432231903076,-0.018473058938980103,-0.00460998248308897,0.012291344814002514
401.0,0.0,0.0,0.0,0.0,0.0,0.0,-0.008617959916591644,0.02030918374657631,0.011149105615913868,0.9997056722640991,-0.01955842226743698,-0.002119853626936674,0.014204736799001694
402.0,0.0,0.0,0.0,0.0,0.0,0.0,-0.008213398978114128,0.007546800188720226,0.09975947439670563,0.9996681213378906,-0.020422516390681267,-0.0007903592195361853,0.01569121517241001
403.0,0.0,0.0,0.0,0.0,0.0,0.0,0.008237221278250217,0.000399690616177395,-0.012056066654622555,0.9996786713600159,-0.02083994820713997,-0.0010308668715879321,0.014397494494915009
404.0,0.0,0.0,0.0,0.0,0.0,0.0,0.016259465366601944,0.00026146633899770677,-0.012718027457594872,0.9996809959411621,-0.021916035562753677,-0.00542058190330863,0.01133391261100769
405.0,0.0,0.0,0.0,0.0,0.0,0.0,-0.010157717391848564,-0.007223634049296379,0.017316386103630066,0.9996559619903564,-0.023937512189149857,-0.008177402429282665,0.006963003426790237
406.0,0.0,0.0,0.0,0.0,0.0,0.0,-0.018173422664403915,-0.003664199961349368,0.04881533235311508,0.9996364712715149,-0.02548333629965782,-0.006613064557313919,0.005826681386679411
407.0,0.0,0.0,0.0,0.0,0.0,0.0,-0.0006502786418423057,0.017371956259012222,0.03275764361023903,0.9996345639228821,-0.025470158085227013,-0.002291190903633833,0.008769539184868336
408.0,0.0,0.0,0.0,0.0,0.0,0.0,-0.009226823225617409,0.013942261226475239,0.014553474262356758,0.9996150135993958,-0.024693915620446205,0.0034107223618775606,0.012198908254504204
409.0,0.0,0.0,0.0,0.0,0.0,0.0,-0.005807360168546438,0.02224709838628769,0.025293251499533653,0.9996067881584167,-0.022221529856324196,0.00946703739464283,0.014241578057408333
410.0,0.0,0.0,0.0,0.0,0.0,0.0,0.020347438752651215,0.007166811265051365,0.00020987613243050873,0.999616265296936,-0.019844815135002136,0.012945747934281826,0.014354628510773182
411.0,0.0,0.0,0.0,0.0,0.0,0.0,0.014927123673260212,-0.0062299687415361404,-0.00040204625111073256,0.9996497631072998,-0.01767389476299286,0.015724368393421173,0.011868216097354889
412.0,0.0,0.0,0.0,0.0,0.0,0.0,0.020119506865739822,0.0230955109000206,-0.010753663256764412,0.9996810555458069,-0.015443127602338791,0.016825683414936066,0.010786358267068863
413.0,0.0,0.0,0.0,0.0,0.0,0.0,0.029553178697824478,0.007896995171904564,-0.024768240749835968,0.999688982963562,-0.013605177402496338,0.016988957300782204,0.012194061651825905
414.0,0.0,0.0,0.0,0.0,0.0,0.0,0.0192551389336586,-0.028109829872846603,-0.014436266385018826,0.9996472597122192,-0.013674125075340271,0.016629131510853767,0.015548200346529484
415.0,0.0,0.0,0.0,0.0,0.0,0.0,0.013127553276717663,-0.01583113893866539,-0.012928768061101437,0.9996163845062256,-0.013942264020442963,0.01563759334385395,0.01811937615275383
416.0,0.0,0.0,0.0,0.0,0.0,0.0,0.0008732985588721931,0.00685260072350502,-0.0015527354553341866,0.9996111392974854,-0.01371655985713005,0.014447643421590328,0.019522110000252724
417.0,0.0,0.0,0.0,0.0,0.0,0.0,0.001090412144549191,0.003107344964519143,0.0017995088128373027,0.9996351599693298,-0.013118642382323742,0.012917403131723404,0.019768813624978065
418.0,0.0,0.0,0.0,0.0,0.0,0.0,0.011591952294111252,-0.006774515379220247,-0.00977456383407116,0.9997000694274902,-0.01272709108889103,0.010716808959841728,0.01797325536608696
419.0,0.0,0.0,0.0,0.0,0.0,0.0,-0.008042794652283192,0.004311663098633289,0.01772482506930828,0.9997500777244568,-0.012736637145280838,0.00852267723530531,0.016273459419608116
420.0,0.0,0.0,0.0,0.0,0.0,0.0,-0.022518571466207504,0.011120948940515518,0.02713378518819809,0.9997498393058777,-0.012661240063607693,0.0074740126729011536,0.01685940846800804
421.0,0.0,0.0,0.0,0.0,0.0,0.0,0.011643378995358944,0.003168080234900117,-0.002339261583983898,0.999725341796875,-0.012222002260386944,0.007320411503314972,0.01861092448234558
422.0,0.0,0.0,0.0,0.0,0.0,0.0,0.01721952110528946,-0.011133240535855293,-0.009326642379164696,0.9996961951255798,-0.011970359832048416,0.007254413329064846,0.02029496245086193
423.0,0.0,0.0,0.0,0.0,0.0,0.0,-0.009481262415647507,-0.004461757838726044,0.016033902764320374,0.9996839761734009,-0.011667805723845959,0.007498974446207285,0.0209672711789608
424.0,0.0,0.0,0.0,0.0,0.0,0.0,-0.006703522987663746,-0.0012684527318924665,0.012532382272183895,0.9997043013572693,-0.011318747885525227,0.008581536822021008,0.019744770601391792
425.0,0.0,0.0,0.0,0.0,0.0,0.0,0.012074685655534267,-0.004058352205902338,-0.001872752676717937,0.9997165203094482,-0.010544972494244576,0.009558185935020447,0.01908748410642147
426.0,0.0,0.0,0.0,0.0,0.0,0.0,0.006673047784715891,-0.014417458325624466,-0.002329825656488538,0.9997276663780212,-0.010239372961223125,0.010285142809152603,0.018282167613506317
427.0,0.0,0.0,0.0,0.0,0.0,0.0,0.0015451137442141771,-0.02035447396337986,0.005279433447867632,0.9997342824935913,-0.01064242608845234,0.011256664991378784,0.017073960974812508
428.0,0.0,0.0,0.0,0.0,0.0,0.0,0.004701150581240654,-0.01661534234881401,0.00025161649682559073,0.9997084140777588,-0.011049401946365833,0.011984290555119514,0.017826220020651817
429.0,0.0,0.0,0.0,0.0,0.0,0.0,0.025375913828611374,-0.017326638102531433,-0.02219291776418686,0.9996863603591919,-0.011171738617122173,0.011705243028700352,0.019115034490823746
430.0,0.0,0.0,0.0,0.0,0.0,0.0,-0.0009807476308196783,-0.016971003264188766,-0.0019954140298068523,0.9996862411499023,-0.01210545003414154,0.010273793712258339,0.019379623234272003
431.0,0.0,0.0,0.0,0.0,0.0,0.0,-0.0003387175383977592,-0.008259063586592674,-0.005248344503343105,0.9997138977050781,-0.013130735605955124,0.008405277505517006,0.018147628754377365
432.0,0.0,0.0,0.0,0.0,0.0,0.0,0.0062061697244644165,-0.013835979625582695,0.007498561404645443,0.9997236728668213,-0.013723047450184822,0.007979169487953186,0.017346300184726715
433.0,0.0,0.0,0.0,0.0,0.0,0.0,-0.022729912772774696,-0.0035538123920559883,0.03415525704622269,0.9997224807739258,-0.014371909201145172,0.008627968840301037,0.016548562794923782
434.0,0.0,0.0,0.0,0.0,0.0,0.0,-0.011849266476929188,0.006519275717437267,0.008476916700601578,0.9997294545173645,-0.014491982758045197,0.010031835176050663,0.015182864852249622
435.0,0.0,0.0,0.0,0.0,0.0,0.0,0.013091947883367538,-0.009354118257761002,-0.00025260605616495013,0.9997058510780334,-0.014345638453960419,0.011890246532857418,0.015527592040598392
436.0,0.0,0.0,0.0,0.0,0.0,0.0,0.0008141766884364188,-0.01489883754402399,0.0024131357204169035,0.999689519405365,-0.014630983583629131,0.012352317571640015,0.01595621183514595
437.0,0.0,0.0,0.0,0.0,0.0,0.0,0.005652294959872961,-0.003973145037889481,-0.00480912160128355,0.9996869564056396,-0.014782531186938286,0.012041001580655575,0.016205431893467903
438.0,0.0,0.0,0.0,0.0,0.0,0.0,0.013420946896076202,-0.005286277271807194,-0.011959264054894447,0.9996889233589172,-0.014555418863892555,0.011746183037757874,0.016503607854247093
439.0,0.0,0.0,0.0,0.0,0.0,0.0,0.012850259430706501,-0.011203723028302193,-0.013443977572023869,0.9997087121009827,-0.014732858166098595,0.010601209476590157,0.015909874811768532
440.0,0.0,0.0,0.0,0.0,0.0,0.0,0.0064636594615876675,-0.0031942131463438272,-0.006060779560357332,0.9997318387031555,-0.015082163736224174,0.008594360202550888,0.015336449258029461
441.0,0.0,0.0,0.0,0.0,0.0,0.0,-0.011953881941735744,0.01721571385860443,0.0056898449547588825,0.9997611045837402,-0.015447313897311687,0.0045394981279969215,0.01478002779185772
442.0,0.0,0.0,0.0,0.0,0.0,0.0,0.008917104452848434,0.028809428215026855,-0.023850182071328163,0.9997773170471191,-0.015796346589922905,-0.0024313393514603376,0.01378300879150629
443.0,0.0,0.0,0.0,0.0,0.0,0.0,0.0231649037450552,-0.004154433961957693,-0.04225556552410126,0.9997280240058899,-0.016907047480344772,-0.010031559504568577,0.01256319135427475
444.0,0.0,0.0,0.0,0.0,0.0,0.0,-0.0001951334998011589,-0.015236168168485165,-0.00112992525100708,0.9996058344841003,-0.01886368915438652,-0.017444007098674774,0.011328203603625298
445.0,0.0,0.0,0.0,0.0,0.0,0.0,-0.040789227932691574,0.0063211447559297085,0.03364979475736618,0.9994475245475769,-0.021410157904028893,-0.023406080901622772,0.0099402517080307
446.0,0.0,0.0,0.0,0.0,0.0,0.0,-0.041088879108428955,0.01673773303627968,0.030415493994951248,0.9993703365325928,-0.022443154826760292,-0.0255918949842453,0.010021867230534554
447.0,0.0,0.0,0.0,0.0,0.0,0.0,-0.017992334440350533,0.008435745723545551,0.01721845008432865,0.9993288516998291,-0.02240511029958725,-0.02598096989095211,0.01285588275641203
448.0,0.0,0.0,0.0,0.0,0.0,0.0,-0.017217643558979034,0.0007923146476969123,0.022091004997491837,0.9993173480033875,-0.02190135233104229,-0.026303643360733986,0.013899590820074081
449.0,0.0,0.0,0.0,0.0,0.0,0.0,-0.008532158099114895,0.003723608795553446,0.0080789215862751,0.9993555545806885,-0.02090962789952755,-0.02616017498075962,0.01292695477604866
450.0,0.0,0.0,0.0,0.0,0.0,0.0,0.008254696615040302,-0.007884099148213863,-0.0036178322043269873,0.9994006752967834,-0.01998259499669075,-0.02529226429760456,0.012644904665648937
451.0,0.0,0.0,0.0,0.0,0.0,0.0,0.0010938543127849698,-0.008471422828733921,0.01003099326044321,0.9994543194770813,-0.019684109836816788,-0.023285159841179848,0.012707036919891834
452.0,0.0,0.0,0.0,0.0,0.0,0.0,-0.02721541002392769,0.011514515615999699,0.030319850891828537,0.9995210766792297,-0.01936206966638565,-0.019736016169190407,0.01390888262540102
453.0,0.0,0.0,0.0,0.0,0.0,0.0,-0.01802641712129116,0.018662305548787117,0.007835849188268185,0.9995827078819275,-0.018226541578769684,-0.01541402842849493,0.016276242211461067
454.0,0.0,0.0,0.0,0.0,0.0,0.0,0.0028865516651421785,0.0022444736678153276,-0.006870729383081198,0.9996170401573181,-0.016953065991401672,-0.01129287201911211,0.01874132640659809
455.0,0.0,0.0,0.0,0.0,0.0,0.0,-0.005580844357609749,-0.003784305416047573,0.00022402820468414575,0.9996289014816284,-0.016280261799693108,-0.007577468175441027,0.020493224263191223
456.0,0.0,0.0,0.0,0.0,0.0,0.0,0.007907534018158913,-0.007855281233787537,0.00014042918337509036,0.9996354579925537,-0.01533779688179493,-0.0037277184892445803,0.021901478990912437
457.0,0.0,0.0,0.0,0.0,0.0,0.0,0.011063143610954285,-0.010281102731823921,-0.0017182269366458058,0.9996169209480286,-0.014687594026327133,-0.0010073999874293804,0.02344370260834694
458.0,0.0,0.0,0.0,0.0,0.0,0.0,0.006658205296844244,0.00014567187463399023,-0.005536302924156189,0.9995843172073364,-0.013891315087676048,0.0012119341408833861,0.025237934663891792
459.0,0.0,0.0,0.0,0.0,0.0,0.0,0.008575022220611572,0.0003505600616335869,-0.0028979412745684385,0.9995441436767578,-0.012779691256582737,0.0034793331287801266,0.027132272720336914
460.0,0.0,0.0,0.0,0.0,0.0,0.0,0.00042804001714102924,0.006699779536575079,-0.0009050917578861117,0.9995135068893433,-0.011439465917646885,0.004226476885378361,0.028707729652523994
461.0,0.0,0.0,0.0,0.0,0.0,0.0,-0.0016324338503181934,0.0040347641333937645,-0.01188291423022747,0.9994946718215942,-0.009949645027518272,0.0026058261282742023,0.030079852789640427
462.0,0.0,0.0,0.0,0.0,0.0,0.0,0.014386748895049095,-0.012922102585434914,-0.017242304980754852,0.9994763731956482,-0.008766308426856995,0.0007711887592449784,0.031139668077230453
463.0,0.0,0.0,0.0,0.0,0.0,0.0,0.013090800493955612,-0.02547789178788662,-0.012357409112155437,0.9994933009147644,-0.008444447070360184,-0.0015659201890230179,0.030655447393655777
464.0,0.0,0.0,0.0,0.0,0.0,0.0,0.006728196982294321,-0.005776418838649988,-0.0062953513115644455,0.9995231628417969,-0.008097357116639614,-0.004373826552182436,0.02947789430618286
465.0,0.0,0.0,0.0,0.0,0.0,0.0,-0.00678430637344718,0.012262208387255669,-0.0028826328925788403,0.9995039105415344,-0.0071184164844453335,-0.006217875983566046,0.030046699568629265
466.0,0.0,0.0,0.0,0.0,0.0,0.0,-0.007544363848865032,-0.0003401575668249279,0.0012122381012886763,0.999464213848114,-0.005828538443893194,-0.007004680577665567,0.031441014260053635
467.0,0.0,0.0,0.0,0.0,0.0,0.0,0.0029975897632539272,-0.022287340834736824,-0.009611694142222404,0.9994921088218689,-0.005402127746492624,-0.007264444604516029,0.030559012666344643
468.0,0.0,0.0,0.0,0.0,0.0,0.0,0.015068558044731617,-0.005478093400597572,-0.014668081887066364,0.9995618462562561,-0.004778320901095867,-0.008876010775566101,0.027835004031658173
469.0,0.0,0.0,0.0,0.0,0.0,0.0,0.002612992189824581,0.003469446673989296,-0.0071199629455804825,0.999614417552948,-0.004030509851872921,-0.010782823897898197,0.02527109906077385
470.0,0.0,0.0,0.0,0.0,0.0,0.0,-0.0038878247141838074,0.0007457368192262948,0.0018514583352953196,0.9996404647827148,-0.0037738222163170576,-0.011682805605232716,0.023844067007303238
471.0,0.0,0.0,0.0,0.0,0.0,0.0,0.006908186245709658,-0.0016027779784053564,-0.005620792042464018,0.9996501803398132,-0.00341146276332438,-0.011933154426515102,0.023361992090940475
472.0,0.0,0.0,0.0,0.0,0.0,0.0,0.0028698863461613655,-0.004909828770905733,0.0009053986286744475,0.9996559619903564,-0.002909255912527442,-0.012096907012164593,0.02309877797961235
473.0,0.0,0.0,0.0,0.0,0.0,0.0,-0.0074981641955673695,0.007627593353390694,0.010238436050713062,0.9996675252914429,-0.0023527629673480988,-0.012710601091384888,0.022311951965093613
474.0,0.0,0.0,0.0,0.0,0.0,0.0,-0.010356515645980835,0.000641636666841805,0.012858744710683823,0.9996957778930664,-0.0014138533733785152,-0.0125576825812459,0.021183999255299568
475.0,0.0,0.0,0.0,0.0,0.0,0.0,-0.004188268445432186,-0.007477663457393646,0.015539515763521194,0.9997369050979614,-0.00046870255027897656,-0.011851927265524864,0.019634265452623367
476.0,0.0,0.0,0.0,0.0,0.0,0.0,0.002136762486770749,-0.013937270268797874,0.009288826026022434,0.9997687339782715,0.0003262077225372195,-0.011086112819612026,0.018425896763801575
477.0,0.0,0.0,0.0,0.0,0.0,0.0,0.005294035654515028,-0.016945797950029373,5.87542999710422e-05,0.9997801184654236,0.00046673111501149833,-0.009578506462275982,0.01864473521709442
478.0,0.0,0.0,0.0,0.0,0.0,0.0,0.009124139323830605,-0.0033583827316761017,0.0007997288485057652,0.9998037219047546,-8.530570084985811e-06,-0.007854528725147247,0.018192999064922333
479.0,0.0,0.0,0.0,0.0,0.0,0.0,0.007155612111091614,-0.001993858488276601,0.0030342843383550644,0.9998255372047424,-0.0005906757432967424,-0.006975499447435141,0.01731676608324051
480.0,0.0,0.0,0.0,0.0,0.0,0.0,-0.012319996953010559,0.0058127511292696,0.019146081060171127,0.9998522996902466,-0.001104604685679078,-0.005248189438134432,0.01632564142346382
481.0,0.0,0.0,0.0,0.0,0.0,0.0,-0.01254731509834528,0.013265586458146572,0.019786950200796127,0.9998505711555481,-0.0008091843337751925,-0.00171612948179245,0.017178906127810478
482.0,0.0,0.0,0.0,0.0,0.0,0.0,0.008944449946284294,0.007798440288752317,0.0005853372858837247,0.9998194575309753,-0.0005864263512194157,0.0015249333810061216,0.01893022656440735
483.0,0.0,0.0,0.0,0.0,0.0,0.0,0.019123345613479614,-0.0007864279323257506,-0.004020627588033676,0.999788224697113,-0.0004927549161948264,0.00532507011666894,0.01987810805439949
484.0,0.0,0.0,0.0,0.0,0.0,0.0,0.01757577620446682,-0.015286616049706936,-0.028028808534145355,0.9997839331626892,-0.0015868659829720855,0.006930410396307707,0.0195371825248003
485.0,0.0,0.0,0.0,0.0,0.0,0.0,0.0253254696726799,-0.019146665930747986,-0.032008059322834015,0.9998016357421875,-0.002493947744369507,0.006318777799606323,0.018726205453276634
486.0,0.0,0.0,0.0,0.0,0.0,0.0,0.016251927241683006,-0.01964055560529232,-0.027230514213442802,0.9998292922973633,-0.004246219992637634,0.004188961815088987,0.017490945756435394
487.0,0.0,0.0,0.0,0.0,0.0,0.0,-0.0003074545238632709,0.0018316571367904544,-0.00598309887573123,0.9998272061347961,-0.009008270688354969,0.0008545335731469095,0.01624198444187641
488.0,0.0,0.0,0.0,0.0,0.0,0.0,-0.019503070041537285,0.029118601232767105,0.016057446599006653,0.9998020529747009,-0.011407592333853245,-0.0004247534670867026,0.01630225032567978
489.0,0.0,0.0,0.0,0.0,0.0,0.0,-0.006650850642472506,0.017655732110142708,0.02982022985816002,0.9997588992118835,-0.012819220311939716,0.0024845253210514784,0.017655741423368454
490.0,0.0,0.0,0.0,0.0,0.0,0.0,-0.016731208190321922,0.03500501438975334,0.034406233578920364,0.999697744846344,-0.013583124615252018,0.0070166150107979774,0.019256453961133957
491.0,0.0,0.0,0.0,0.0,0.0,0.0,-0.004846248775720596,0.03899325802922249,0.009720681235194206,0.99965500831604,-0.013228452764451504,0.011203191243112087,0.019729651510715485
492.0,0.0,0.0,0.0,0.0,0.0,0.0,0.012565310113132,-0.007261313032358885,0.003869586391374469,0.999641478061676,-0.012754830531775951,0.014026814140379429,0.018907679244875908
493.0,0.0,0.0,0.0,0.0,0.0,0.0,0.012475856579840183,-0.01478760875761509,-0.0025656784418970346,0.9996502995491028,-0.012442762963473797,0.016390834003686905,0.016615036875009537
494.0,0.0,0.0,0.0,0.0,0.0,0.0,0.020821038633584976,-0.003958055749535561,-0.012042145244777203,0.9996523261070251,-0.011779007501900196,0.01819516532123089,0.015014423057436943
495.0,0.0,0.0,0.0,0.0,0.0,0.0,0.024996424093842506,-0.008337424136698246,-0.018311666324734688,0.9996346235275269,-0.011605036444962025,0.018442587926983833,0.01600276120007038
496.0,0.0,0.0,0.0,0.0,0.0,0.0,0.01472390815615654,-0.004110620357096195,-0.003902773605659604,0.9996381402015686,-0.0109266871586442,0.016772635281085968,0.0179719477891922
497.0,0.0,0.0,0.0,0.0,0.0,0.0,-0.011104083620011806,0.0008122804574668407,0.009458913467824459,0.9996068477630615,-0.010530391708016396,0.016272757202386856,0.020265424624085426
498.0,0.0,0.0,0.0,0.0,0.0,0.0,-0.0007166251307353377,0.001883882679976523,0.002698940923437476,0.9996020793914795,-0.010286322794854641,0.015007221139967442,0.021556193009018898
499.0,0.0,0.0,0.0,0.0,0.0,0.0,-0.008202828466892242,-0.008104739710688591,0.010111477226018906,0.9996023774147034,-0.010204537771642208,0.014290058054029942,0.02207026258111
500.0,0.0,0.0,0.0,0.0,0.0,0.0,-0.002480322029441595,-0.01063375174999237,0.005185217130929232,0.9996084570884705,-0.010517834685742855,0.013464444316923618,0.02216307632625103
501.0,0.0,0.0,0.0,0.0,0.0,0.0,0.015878820791840553,-0.003961252048611641,-0.013619589619338512,0.9996241331100464,-0.010651925578713417,0.01110516581684351,0.022696323692798615
502.0,0.0,0.0,0.0,0.0,0.0,0.0,0.010977677069604397,0.0075422050431370735,-0.012109823524951935,0.9996094107627869,-0.01056670118123293,0.007725592236965895,0.024694081395864487
503.0,0.0,0.0,0.0,0.0,0.0,0.0,0.005129094701260328,-0.0041767749935388565,-0.025323405861854553,0.9995907545089722,-0.01159508153796196,0.0032703441102057695,0.025944584980607033
504.0,0.0,0.0,0.0,0.0,0.0,0.0,0.00875900685787201,-0.012336752377450466,-0.008037401363253593,0.9995850324630737,-0.012314303778111935,-2.9653165256604552e-05,0.026046890765428543
505.0,0.0,0.0,0.0,0.0,0.0,0.0,-0.028222624212503433,0.025199780240654945,0.024497762322425842,0.9996024966239929,-0.012948265299201012,-0.00411945628002286,0.024704428389668465
506.0,0.0,0.0,0.0,0.0,0.0,0.0,-0.035968117415905,0.025391636416316032,0.03906797245144844,0.9996204972267151,-0.012513665482401848,-0.0066373879089951515,0.023635389283299446
507.0,0.0,0.0,0.0,0.0,0.0,0.0,-0.013303136453032494,0.0027700886130332947,0.005442404188215733,0.9996447563171387,-0.0116162970662117,-0.0072993566282093525,0.02285916544497013
508.0,0.0,0.0,0.0,0.0,0.0,0.0,0.011626418679952621,-0.013224159367382526,-0.014792648144066334,0.9996497631072998,-0.010934032499790192,-0.007124373689293861,0.023029176518321037
509.0,0.0,0.0,0.0,0.0,0.0,0.0,0.009778193198144436,-0.005962254013866186,-0.008922693319618702,0.9996548891067505,-0.010269283317029476,-0.0074645900167524815,0.023001475259661674
510.0,0.0,0.0,0.0,0.0,0.0,0.0,-0.005814366973936558,-0.007755151484161615,0.0036749565042555332,0.9996570348739624,-0.01017953734844923,-0.007307148072868586,0.02299685962498188
511.0,0.0,0.0,0.0,0.0,0.0,0.0,-7.968876889208332e-05,-0.01622682251036167,-2.6374291337560862e-06,0.9996909499168396,-0.010082331486046314,-0.0068847062066197395,0.02165623940527439
512.0,0.0,0.0,0.0,0.0,0.0,0.0,0.011392028070986271,-0.013708564452826977,-0.017888475209474564,0.9997261762619019,-0.010228956118226051,-0.007043601479381323,0.01983642764389515
513.0,0.0,0.0,0.0,0.0,0.0,0.0,0.012364962138235569,-0.0073439693078398705,-0.013572427444159985,0.9997427463531494,-0.010446994565427303,-0.007577218115329742,0.018662551417946815
514.0,0.0,0.0,0.0,0.0,0.0,0.0,0.005133878439664841,-0.0071566179394721985,-0.006832912564277649,0.99973464012146,-0.011421932838857174,-0.008223862387239933,0.018250618129968643
515.0,0.0,0.0,0.0,0.0,0.0,0.0,0.007247124332934618,-0.007750566117465496,-0.005255077034235001,0.9997181296348572,-0.01252748817205429,-0.009055409580469131,0.018029313534498215
516.0,0.0,0.0,0.0,0.0,0.0,0.0,0.001708944677375257,0.0008385673281736672,-0.0027753205504268408,0.9996854066848755,-0.013398358598351479,-0.01081229466944933,0.018239641562104225
517.0,0.0,0.0,0.0,0.0,0.0,0.0,-0.0056521100923419,0.001950473408214748,0.0030905890744179487,0.9996635317802429,-0.014390810392796993,-0.012883583083748817,0.017319153994321823
518.0,0.0,0.0,0.0,0.0,0.0,0.0,-0.015246271155774593,-0.004751439206302166,0.010647943243384361,0.9996406435966492,-0.015718765556812286,-0.014527394436299801,0.016140758991241455
519.0,0.0,0.0,0.0,0.0,0.0,0.0,-0.001197677687741816,-0.0065172528848052025,0.018144289031624794,0.9996255040168762,-0.016282277181744576,-0.014804731123149395,0.016268793493509293
520.0,0.0,0.0,0.0,0.0,0.0,0.0,-0.004753039684146643,0.009063639678061008,0.02378230169415474,0.9996148943901062,-0.015916140750050545,-0.014800990000367165,0.017264900729060173
521.0,0.0,0.0,0.0,0.0,0.0,0.0,-0.02104184404015541,0.02598361112177372,0.025678308680653572,0.9995890855789185,-0.01571168191730976,-0.012954814359545708,0.020180106163024902
522.0,0.0,0.0,0.0,0.0,0.0,0.0,-0.0006119605386629701,0.003474764758720994,0.014961965382099152,0.9995702505111694,-0.014864539727568626,-0.010770088993012905,0.022855840623378754
523.0,0.0,0.0,0.0,0.0,0.0,0.0,-0.0006401638383977115,0.004040862433612347,0.01198461465537548,0.9995803236961365,-0.013293244875967503,-0.009336059913039207,0.02398672327399254
524.0,0.0,0.0,0.0,0.0,0.0,0.0,0.006422928534448147,-0.0052939048036932945,-0.0018653406295925379,0.9996044039726257,-0.011972839012742043,-0.008500796742737293,0.023991096764802933
525.0,0.0,0.0,0.0,0.0,0.0,0.0,0.02121167816221714,-0.005613779183477163,-0.018181858584284782,0.9996207356452942,-0.010929112322628498,-0.008988753892481327,0.02362718991935253
526.0,0.0,0.0,0.0,0.0,0.0,0.0,0.015623997896909714,0.008434731513261795,-0.013591703958809376,0.9995917081832886,-0.009599100798368454,-0.010604158975183964,0.024735698476433754
527.0,0.0,0.0,0.0,0.0,0.0,0.0,-0.011202377267181873,-0.002660084515810013,0.008558630011975765,0.9995176196098328,-0.009094776585698128,-0.01191425696015358,0.02719789370894432
528.0,0.0,0.0,0.0,0.0,0.0,0.0,2.0715287973871455e-05,-0.0025011850520968437,-0.012291103601455688,0.9994364380836487,-0.008367225527763367,-0.013429875485599041,0.029611511155962944
529.0,0.0,0.0,0.0,0.0,0.0,0.0,0.023885056376457214,-0.005704042036086321,-0.03756149485707283,0.9993841648101807,-0.007473701145499945,-0.017283236607909203,0.029615454375743866
530.0,0.0,0.0,0.0,0.0,0.0,0.0,-0.005391399841755629,-0.01067928597331047,-0.009822744876146317,0.9993834495544434,-0.007065180689096451,-0.021036794409155846,0.027213815599679947
531.0,0.0,0.0,0.0,0.0,0.0,0.0,-0.027008211240172386,-0.010316767729818821,0.011141769587993622,0.9993937611579895,-0.00761626660823822,-0.024337032809853554,0.02370467595756054
532.0,0.0,0.0,0.0,0.0,0.0,0.0,-0.019653571769595146,0.005046711768954992,0.00934979971498251,0.9994168281555176,-0.008020972833037376,-0.025534184649586678,0.02120787464082241
533.0,0.0,0.0,0.0,0.0,0.0,0.0,0.004838850814849138,-0.012060776352882385,-0.011848470196127892,0.99942946434021,-0.008550421334803104,-0.02530437894165516,0.02067778818309307
534.0,0.0,0.0,0.0,0.0,0.0,0.0,-0.0008304652292281389,-0.011190483346581459,-0.007321751676499844,0.9994077682495117,-0.0100516676902771,-0.025973649695515633,0.020211316645145416
535.0,0.0,0.0,0.0,0.0,0.0,0.0,-0.015031036920845509,0.005424049682915211,-0.0011793826706707478,0.9993894696235657,-0.011363196186721325,-0.02652920037508011,0.019704429432749748
536.0,0.0,0.0,0.0,0.0,0.0,0.0,-0.00938799325376749,-0.0012372562196105719,0.01075807400047779,0.9993946552276611,-0.012529147788882256,-0.026570232585072517,0.018643829971551895
537.0,0.0,0.0,0.0,0.0,0.0,0.0,-0.016630014404654503,-0.009195252321660519,0.00931498035788536,0.9994165301322937,-0.013842785730957985,-0.026459787040948868,0.01658604107797146
538.0,0.0,0.0,0.0,0.0,0.0,0.0,-0.0013177990913391113,7.712009391980246e-06,-0.005580304656177759,0.9994555115699768,-0.01463132631033659,-0.025690602138638496,0.01464937161654234
539.0,0.0,0.0,0.0,0.0,0.0,0.0,-0.000522272486705333,0.00517027685418725,-0.0026685602497309446,0.999489426612854,-0.015063648112118244,-0.02485544979572296,0.013289939612150192
540.0,0.0,0.0,0.0,0.0,0.0,0.0,-0.01382881123572588,0.0011963675497099757,0.006387458182871342,0.9994953870773315,-0.01566505804657936,-0.023575516417622566,0.01441591139882803
541.0,0.0,0.0,0.0,0.0,0.0,0.0,-0.010316235013306141,-0.019062809646129608,0.008521209470927715,0.9995167255401611,-0.01672215759754181,-0.02017057314515114,0.016727397218346596
542.0,0.0,0.0,0.0,0.0,0.0,0.0,-0.003563317935913801,-0.016475217416882515,0.005058853421360254,0.9995492696762085,-0.017410263419151306,-0.017304711043834686,0.017283570021390915
543.0,0.0,0.0,0.0,0.0,0.0,0.0,-0.014452153816819191,-0.0007819414604455233,-0.0005785250687040389,0.9995786547660828,-0.01729140803217888,-0.013959887437522411,0.018685990944504738
544.0,0.0,0.0,0.0,0.0,0.0,0.0,0.004402846097946167,0.012530169449746609,-0.0005124958115629852,0.9996134638786316,-0.01598239876329899,-0.010246440768241882,0.020310377702116966
545.0,0.0,0.0,0.0,0.0,0.0,0.0,-0.007003682665526867,0.026855627074837685,0.0011998715344816446,0.9996420741081238,-0.01466281432658434,-0.007855726405978203,0.020956452935934067
546.0,0.0,0.0,0.0,0.0,0.0,0.0,-0.01246077660471201,0.018805382773280144,-0.0017009667353704572,0.9996610283851624,-0.013292767107486725,-0.0050861770287156105,0.021809449419379234
547.0,0.0,0.0,0.0,0.0,0.0,0.0,0.01609533466398716,0.0031030667014420033,-0.006936905439943075,0.9996576309204102,-0.012202104553580284,-0.0018651054706424475,0.02307102270424366
548.0,0.0,0.0,0.0,0.0,0.0,0.0,0.005149648059159517,-0.0021222983486950397,-0.0009141426417045295,0.9996107816696167,-0.011828898452222347,0.0005719753680750728,0.025266986340284348
549.0,0.0,0.0,0.0,0.0,0.0,0.0,-0.006074704695492983,0.009716124273836613,0.004207592457532883,0.9995670318603516,-0.011503671295940876,0.0030841142870485783,0.02690953016281128
550.0,0.0,0.0,0.0,0.0,0.0,0.0,0.00982491672039032,0.024728691205382347,-0.0035463115200400352,0.9995416402816772,-0.010375147685408592,0.004825083073228598,0.02803528681397438
551.0,0.0,0.0,0.0,0.0,0.0,0.0,0.003048580139875412,0.01413837168365717,0.005600004456937313,0.9994806051254272,-0.008963378146290779,0.007000317331403494,0.030155442655086517
552.0,0.0,0.0,0.0,0.0,0.0,0.0,0.000606181041803211,-0.004754051566123962,0.014930798672139645,0.9994372129440308,-0.008389814756810665,0.009202953428030014,0.031149115413427353
553.0,0.0,0.0,0.0,0.0,0.0,0.0,0.0005715509760193527,0.004124127794057131,0.006872196216136217,0.9994391202926636,-0.007489655166864395,0.010847280733287334,0.03079048916697502
554.0,0.0,0.0,0.0,0.0,0.0,0.0,0.005594037938863039,0.009091952815651894,-0.007848481647670269,0.9994342923164368,-0.007043792400509119,0.01166973914951086,0.030750561505556107
555.0,0.0,0.0,0.0,0.0,0.0,0.0,0.025683527812361717,-0.019845882430672646,-0.029218558222055435,0.9994503259658813,-0.007473997306078672,0.011568236164748669,0.030162176117300987
556.0,0.0,0.0,0.0,0.0,0.0,0.0,0.026097897440195084,-0.013919155113399029,-0.023504460230469704,0.999464213848114,-0.008005108684301376,0.010416034609079361,0.02998066321015358
557.0,0.0,0.0,0.0,0.0,0.0,0.0,0.01139809750020504,0.004807779099792242,-0.032257407903671265,0.9994746446609497,-0.008778894320130348,0.0066158706322312355,0.03049350529909134
558.0,0.0,0.0,0.0,0.0,0.0,0.0,-0.006039476487785578,0.003751144977286458,-0.002459973096847534,0.9994567632675171,-0.010576936416327953,0.0022399097215384245,0.031135404482483864
559.0,0.0,0.0,0.0,0.0,0.0,0.0,-0.012490306980907917,0.02363564632833004,-0.001381177338771522,0.9994631409645081,-0.012339964509010315,-0.004248309880495071,0.03005126118659973
560.0,0.0,0.0,0.0,0.0,0.0,0.0,-0.005496839061379433,-0.0010289325146004558,-0.0010231027845293283,0.9994800686836243,-0.01383496355265379,-0.00839805044233799,0.027888083830475807
561.0,0.0,0.0,0.0,0.0,0.0,0.0,-0.01166672445833683,-0.006936118472367525,0.033228933811187744,0.9994965195655823,-0.01540134847164154,-0.00927959568798542,0.026148691773414612
562.0,0.0,0.0,0.0,0.0,0.0,0.0,-0.03058234602212906,0.017277412116527557,0.0306507907807827,0.9995328783988953,-0.016268229112029076,-0.010076677426695824,0.02383231185376644
563.0,0.0,0.0,0.0,0.0,0.0,0.0,-0.008382169529795647,0.015934962779283524,0.003721894696354866,0.9995570778846741,-0.01621360518038273,-0.01069061178714037,0.02255372516810894
564.0,0.0,0.0,0.0,0.0,0.0,0.0,0.028451984748244286,-0.004186068195849657,-0.027904069051146507,0.9995681643486023,-0.01574348472058773,-0.011709104292094707,0.02187519520521164
565.0,0.0,0.0,0.0,0.0,0.0,0.0,0.015464786440134048,-0.0313209593296051,-0.011058451607823372,0.9995946884155273,-0.016587508842349052,-0.01297442615032196,0.019157350063323975
566.0,0.0,0.0,0.0,0.0,0.0,0.0,-0.015955908223986626,-0.008736767806112766,0.014404063113033772,0.9996042251586914,-0.01787753961980343,-0.014338770881295204,0.01631418988108635
567.0,0.0,0.0,0.0,0.0,0.0,0.0,-0.005257060751318932,0.0030484781600534916,0.0013414028799161315,0.9995889067649841,-0.019001135602593422,-0.01594887673854828,0.014378922991454601
568.0,0.0,0.0,0.0,0.0,0.0,0.0,-0.00789155624806881,0.0012083336478099227,0.007505370769649744,0.9995747804641724,-0.019703494384884834,-0.016572408378124237,0.013696334324777126
569.0,0.0,0.0,0.0,0.0,0.0,0.0,-0.006230972241610289,0.005698963534086943,0.002647256013005972,0.9995526671409607,-0.020663589239120483,-0.017143385484814644,0.01317887008190155
570.0,0.0,0.0,0.0,0.0,0.0,0.0,0.004019247367978096,0.00579899363219738,-0.0102468216791749,0.9995391964912415,-0.02120465599000454,-0.01826758310198784,0.011750656180083752
571.0,0.0,0.0,0.0,0.0,0.0,0.0,0.005176757462322712,-0.0023367078974843025,-0.008712099865078926,0.9994909167289734,-0.02222084254026413,-0.020310521125793457,0.010564775206148624
572.0,0.0,0.0,0.0,0.0,0.0,0.0,-0.007925122044980526,0.0007344353361986578,-0.0011539454571902752,0.999403715133667,-0.023470476269721985,-0.02361721731722355,0.009155355393886566
573.0,0.0,0.0,0.0,0.0,0.0,0.0,-0.01814240962266922,0.013980051502585411,0.005178866442292929,0.9993175268173218,-0.025008704513311386,-0.025809651240706444,0.008556616492569447
574.0,0.0,0.0,0.0,0.0,0.0,0.0,-0.011902966536581516,0.005658091977238655,0.005066388286650181,0.9992591738700867,-0.026169126853346825,-0.02707051858305931,0.007974433712661266
575.0,0.0,0.0,0.0,0.0,0.0,0.0,-0.012210522778332233,-0.0023940270766615868,0.009631110355257988,0.9992190003395081,-0.02695152722299099,-0.027832740917801857,0.007792692631483078
576.0,0.0,0.0,0.0,0.0,0.0,0.0,-0.03227215260267258,0.012514123693108559,0.021835802122950554,0.9992094039916992,-0.02727126143872738,-0.027928955852985382,0.007577965501695871
577.0,0.0,0.0,0.0,0.0,0.0,0.0,-0.015021377243101597,0.012632622383534908,0.009316868148744106,0.9992440938949585,-0.026859471574425697,-0.026977842673659325,0.007873080670833588
578.0,0.0,0.0,0.0,0.0,0.0,0.0,-0.009690758772194386,0.003915053326636553,0.005894823931157589,0.9992921352386475,-0.025922851637005806,-0.025778938084840775,0.008887672796845436
579.0,0.0,0.0,0.0,0.0,0.0,0.0,-0.00789257325232029,-0.006022512447088957,0.0010773955145850778,0.99934321641922,-0.02505781129002571,-0.02430013194680214,0.009737043641507626
580.0,0.0,0.0,0.0,0.0,0.0,0.0,-0.0005722533096559346,-0.005348363891243935,-0.002037457888945937,0.9993923902511597,-0.024559108540415764,-0.022367021068930626,0.010568557307124138
581.0,0.0,0.0,0.0,0.0,0.0,0.0,0.002252792939543724,-0.013558502309024334,-0.0010685729794204235,0.9994305372238159,-0.02441299334168434,-0.02015356719493866,0.011688527651131153
582.0,0.0,0.0,0.0,0.0,0.0,0.0,0.001379966619424522,-0.01789737679064274,0.004401987884193659,0.9994861483573914,-0.024112921208143234,-0.0167898777872324,0.012836044654250145
583.0,0.0,0.0,0.0,0.0,0.0,0.0,-0.00932998489588499,0.0038524880073964596,0.011568255722522736,0.9995681047439575,-0.023091327399015427,-0.010413574054837227,0.01489877887070179
584.0,0.0,0.0,0.0,0.0,0.0,0.0,-0.013011849485337734,0.026971902698278427,0.016563106328248978,0.999620258808136,-0.02156824618577957,-0.003375827567651868,0.016822606325149536
585.0,0.0,0.0,0.0,0.0,0.0,0.0,-0.013441678136587143,0.045072123408317566,0.012913914397358894,0.9996323585510254,-0.019549166783690453,0.0022568535059690475,0.018648816272616386
586.0,0.0,0.0,0.0,0.0,0.0,0.0,0.00819071102887392,0.03395161032676697,-0.013376787304878235,0.9996336698532104,-0.016631875187158585,0.005143586080521345,0.02072497457265854
587.0,0.0,0.0,0.0,0.0,0.0,0.0,0.041645750403404236,-0.01642950065433979,-0.048661813139915466,0.999606728553772,-0.01471841149032116,0.005440426990389824,0.023238398134708405
588.0,0.0,0.0,0.0,0.0,0.0,0.0,0.04694056138396263,-0.04222385212779045,-0.03925176337361336,0.9996193051338196,-0.014476322568953037,0.002835781779140234,0.02332576923072338
589.0,0.0,0.0,0.0,0.0,0.0,0.0,-0.004188085440546274,0.007378047332167625,-0.0021225980017334223,0.9996540546417236,-0.014642974361777306,-0.0025524506345391273,0.02169889584183693
590.0,0.0,0.0,0.0,0.0,0.0,0.0,-0.036981791257858276,0.03581001237034798,0.014828914776444435,0.9996453523635864,-0.013999685645103455,-0.0064034247770905495,0.021734509617090225
591.0,0.0,0.0,0.0,0.0,0.0,0.0,-0.03190825134515762,0.006860030349344015,0.04658136144280434,0.999628484249115,-0.012708285823464394,-0.0051635210402309895,0.0235555712133646
592.0,0.0,0.0,0.0,0.0,0.0,0.0,-0.016496440395712852,-0.013209477066993713,0.008470925502479076,0.9996286034584045,-0.011920744553208351,-0.004818473476916552,0.024030398577451706
593.0,0.0,0.0,0.0,0.0,0.0,0.0,0.01469180453568697,-0.0016670329496264458,-0.018848754465579987,0.9996545910835266,-0.010059760883450508,-0.004740466829389334,0.023817500099539757
594.0,0.0,0.0,0.0,0.0,0.0,0.0,0.004478055518120527,0.012511751614511013,0.00010048447438748553,0.9996503591537476,-0.007029024884104729,-0.0047582401894032955,0.025045758113265038
595.0,0.0,0.0,0.0,0.0,0.0,0.0,-0.02203071117401123,0.017994636669754982,0.011793599463999271,0.9996203780174255,-0.0039568315260112286,-0.003566205268725753,0.027036121115088463
596.0,0.0,0.0,0.0,0.0,0.0,0.0,0.002886267611756921,0.008758367039263248,-0.018426233902573586,0.9995977878570557,-0.0013006307417526841,-0.0025606718845665455,0.028214937075972557
597.0,0.0,0.0,0.0,0.0,0.0,0.0,0.0066694533452391624,-0.021407268941402435,-0.02391086332499981,0.9995499849319458,0.0005428556469269097,-0.0015695261536166072,0.02995302341878414
598.0,0.0,0.0,0.0,0.0,0.0,0.0,0.006990347523242235,-0.026595665141940117,-0.01794217713177204,0.999515175819397,0.001574940630234778,-0.0021048462949693203,0.031031237915158272
599.0,0.0,0.0,0.0,0.0,0.0,0.0,0.0040501863695681095,-0.023394819349050522,-0.01764090172946453,0.9995371103286743,0.0013139656512066722,-0.003241942962631583,0.03022155351936817
600.0,0.0,0.0,0.0,0.0,0.0,0.0,0.0011505979346111417,-0.011398423463106155,-0.012023858726024628,0.9995693564414978,0.000998318544588983,-0.004834357183426619,0.02893400937318802
601.0,0.0,0.0,0.0,0.0,0.0,0.0,-0.008934597484767437,-0.01652676798403263,-0.001220374135300517,0.9995736479759216,-0.00019244519353378564,-0.006666254252195358,0.028425024822354317
602.0,0.0,0.0,0.0,0.0,0.0,0.0,-0.002190097002312541,-0.04153371974825859,-0.006399980746209621,0.9995758533477783,-0.003106230404227972,-0.008733388036489487,0.02760569378733635
603.0,0.0,0.0,0.0,0.0,0.0,0.0,0.006878500338643789,-0.02991454489529133,-0.00952069740742445,0.9996097683906555,-0.0066002062521874905,-0.011165722273290157,0.02473517507314682
604.0,0.0,0.0,0.0,0.0,0.0,0.0,-0.003254236653447151,-0.0029800671618431807,0.007164024747908115,0.9996238350868225,-0.010819759219884872,-0.013943038880825043,0.021002724766731262
605.0,0.0,0.0,0.0,0.0,0.0,0.0,-0.009351813234388828,0.010062046349048615,0.020285336300730705,0.9995960593223572,-0.015363756567239761,-0.015646852552890778,0.018078943714499474
606.0,0.0,0.0,0.0,0.0,0.0,0.0,-0.02946845442056656,0.03520219027996063,0.02806846611201763,0.9995877742767334,-0.017956046387553215,-0.015177810564637184,0.016481395810842514
607.0,0.0,0.0,0.0,0.0,0.0,0.0,-0.022374121472239494,0.050852544605731964,0.022809108719229698,0.9996132254600525,-0.017951402813196182,-0.012657903134822845,0.0170633252710104
608.0,0.0,0.0,0.0,0.0,0.0,0.0,-0.006243610288947821,0.022446056827902794,-0.0002228481025667861,0.9996180534362793,-0.017568303272128105,-0.011503254063427448,0.017972150817513466
609.0,0.0,0.0,0.0,0.0,0.0,0.0,-0.00552822882309556,0.006619792431592941,0.0025242306292057037,0.9996310472488403,-0.01716727949678898,-0.011982087977230549,0.017315248027443886
610.0,0.0,0.0,0.0,0.0,0.0,0.0,0.006733817048370838,-0.020204734057188034,-0.00914844311773777,0.999639093875885,-0.01736094057559967,-0.012668388895690441,0.01611609011888504
611.0,0.0,0.0,0.0,0.0,0.0,0.0,0.025865914300084114,-0.03825468569993973,-0.02242598682641983,0.9996432662010193,-0.018352530896663666,-0.012819094583392143,0.01456894539296627
612.0,0.0,0.0,0.0,0.0,0.0,0.0,0.004124614875763655,0.009192846715450287,-0.006672765128314495,0.9996265172958374,-0.019243644550442696,-0.014143204316496849,0.013283769600093365
613.0,0.0,0.0,0.0,0.0,0.0,0.0,-0.03643485903739929,0.0419740304350853,0.020018495619297028,0.9996283054351807,-0.019800089299678802,-0.014009486883878708,0.01246619038283825
614.0,0.0,0.0,0.0,0.0,0.0,0.0,-0.03363940492272377,0.03164750337600708,0.027904370799660683,0.999688446521759,-0.019182005897164345,-0.009464741684496403,0.012877646833658218
615.0,0.0,0.0,0.0,0.0,0.0,0.0,0.01819596067070961,-0.016602087765932083,-0.020488515496253967,0.9997285008430481,-0.01884257048368454,-0.005578732583671808,0.01253139041364193
616.0,0.0,0.0,0.0,0.0,0.0,0.0,0.028306730091571808,-0.01854187436401844,-0.010971029289066792,0.9997597932815552,-0.018768025562167168,-0.003041326068341732,0.010907087475061417
617.0,0.0,0.0,0.0,0.0,0.0,0.0,-0.019567586481571198,0.01730729639530182,0.023854753002524376,0.9997826814651489,-0.01857711933553219,0.0009611836867406964,0.00942208245396614
618.0,0.0,0.0,0.0,0.0,0.0,0.0,0.002643550978973508,0.023338673636317253,0.002870610449463129,0.9997746348381042,-0.01768667995929718,0.006329575553536415,0.009898960590362549
619.0,0.0,0.0,0.0,0.0,0.0,0.0,0.020598571747541428,0.010626868344843388,-0.013740085996687412,0.9997291564941406,-0.01667342521250248,0.010832990519702435,0.01209312491118908
620.0,0.0,0.0,0.0,0.0,0.0,0.0,0.0030954000540077686,0.007420723792165518,-0.007288497872650623,0.9996635913848877,-0.016295168548822403,0.014426148496568203,0.014112930744886398
621.0,0.0,0.0,0.0,0.0,0.0,0.0,0.010358414612710476,0.017828388139605522,-0.011394993402063847,0.9996392726898193,-0.015837067738175392,0.016584021970629692,0.013980068266391754
622.0,0.0,0.0,0.0,0.0,0.0,0.0,0.007007303647696972,0.017055386677384377,-0.015897009521722794,0.9996583461761475,-0.01545286737382412,0.016000673174858093,0.013718747533857822
623.0,0.0,0.0,0.0,0.0,0.0,0.0,-0.004541311878710985,0.006536557804793119,-0.00629280274733901,0.9996554851531982,-0.015174963511526585,0.01567402482032776,0.014607277698814869
624.0,0.0,0.0,0.0,0.0,0.0,0.0,0.0016621560789644718,-0.005870284512639046,-0.0006725630373694003,0.9996461868286133,-0.015611296519637108,0.01519037876278162,0.015279939398169518
625.0,0.0,0.0,0.0,0.0,0.0,0.0,0.021269019693136215,-0.0012039284920319915,-0.028841663151979446,0.999667763710022,-0.016408700495958328,0.013576526194810867,0.014531569555401802
626.0,0.0,0.0,0.0,0.0,0.0,0.0,0.012627238407731056,-0.0071445913054049015,-0.010363198816776276,0.9996864199638367,-0.01697404868900776,0.01096176728606224,0.014800544828176498
627.0,0.0,0.0,0.0,0.0,0.0,0.0,-0.02664182521402836,-0.006051650736480951,0.01786777935922146,0.9996896982192993,-0.018141470849514008,0.007976568304002285,0.015107596293091774
628.0,0.0,0.0,0.0,0.0,0.0,0.0,-0.013810443691909313,0.008207174018025398,0.00336631597019732,0.9997273087501526,-0.01870225928723812,0.0037861154414713383,0.01346294954419136
629.0,0.0,0.0,0.0,0.0,0.0,0.0,-0.005854734685271978,0.01813359558582306,-0.013330976478755474,0.9997362494468689,-0.018837735056877136,-0.0021991757676005363,0.012970896437764168
630.0,0.0,0.0,0.0,0.0,0.0,0.0,0.013958251103758812,0.009561554528772831,-0.026097603142261505,0.9997085928916931,-0.01865399070084095,-0.008018962107598782,0.01308154221624136
631.0,0.0,0.0,0.0,0.0,0.0,0.0,0.0012685592519119382,-0.019255856052041054,0.005993481259793043,0.9996589422225952,-0.019936947152018547,-0.011579697951674461,0.012266100384294987
632.0,0.0,0.0,0.0,0.0,0.0,0.0,-0.04169488698244095,0.00028655899222940207,0.03801950812339783,0.9995930790901184,-0.021897155791521072,-0.013886592350900173,0.011912424117326736
633.0,0.0,0.0,0.0,0.0,0.0,0.0,-0.015188466757535934,0.023720167577266693,0.008418958634138107,0.999550998210907,-0.022456953302025795,-0.01534369494765997,0.012579517439007759
634.0,0.0,0.0,0.0,0.0,0.0,0.0,0.009039690718054771,0.00989843625575304,-0.006089246366173029,0.999522864818573,-0.02265024371445179,-0.016349604353308678,0.013197769410908222
635.0,0.0,0.0,0.0,0.0,0.0,0.0,-0.011218476109206676,-0.0024913079105317593,0.011566285975277424,0.9994958639144897,-0.023430941626429558,-0.017644837498664856,0.012149207293987274
636.0,0.0,0.0,0.0,0.0,0.0,0.0,-0.01768672466278076,0.005176158621907234,0.010151742957532406,0.9994926452636719,-0.02348879724740982,-0.01891312189400196,0.0102517856284976
637.0,0.0,0.0,0.0,0.0,0.0,0.0,-0.010740214958786964,0.0069740405306220055,-0.00023062893887981772,0.9994968771934509,-0.02324545755982399,-0.019650526344776154,0.008938904851675034
638.0,0.0,0.0,0.0,0.0,0.0,0.0,-0.00431411899626255,-0.005092238541692495,-0.007672758307307959,0.9994935393333435,-0.023375071585178375,-0.019973289221525192,0.008228711783885956
639.0,0.0,0.0,0.0,0.0,0.0,0.0,6.934984412509948e-05,-0.009264655411243439,-0.006855557207018137,0.9994733929634094,-0.023988081142306328,-0.020138069987297058,0.008467613719403744
640.0,0.0,0.0,0.0,0.0,0.0,0.0,-0.01824820786714554,-0.001581945805810392,0.007420459762215614,0.999472439289093,-0.024435678496956825,-0.019472211599349976,0.008883616887032986
641.0,0.0,0.0,0.0,0.0,0.0,0.0,-0.024642158299684525,0.0020067375153303146,0.01515798270702362,0.9994893670082092,-0.024737374857068062,-0.017391394823789597,0.010328968055546284
642.0,0.0,0.0,0.0,0.0,0.0,0.0,-0.022677725180983543,0.008260215632617474,0.015488002449274063,0.9995419979095459,-0.024076974019408226,-0.01423406321555376,0.01156695932149887
643.0,0.0,0.0,0.0,0.0,0.0,0.0,-0.010827098041772842,0.025824740529060364,0.012170147150754929,0.9996089935302734,-0.02245674654841423,-0.011088501662015915,0.012444240041077137
644.0,0.0,0.0,0.0,0.0,0.0,0.0,-0.0029491540044546127,0.00740068731829524,0.004830805119127035,0.9996539950370789,-0.02087845467031002,-0.008857513777911663,0.013330399058759212
645.0,0.0,0.0,0.0,0.0,0.0,0.0,-0.022419339045882225,0.0022124939132481813,0.01778240129351616,0.9996920824050903,-0.019706057384610176,-0.006025634706020355,0.013831980526447296
646.0,0.0,0.0,0.0,0.0,0.0,0.0,-0.00810560304671526,0.028282219544053078,0.005757531151175499,0.9997161626815796,-0.01731441169977188,-0.003979634027928114,0.01587674766778946
647.0,0.0,0.0,0.0,0.0,0.0,0.0,0.007929381914436817,0.0018685924587771297,-0.007122056558728218,0.9997071623802185,-0.015129173174500465,-0.0027365610003471375,0.018699361011385918
648.0,0.0,0.0,0.0,0.0,0.0,0.0,0.003369101556017995,-0.01427492406219244,-0.0012510083615779877,0.9997023940086365,-0.013599622063338757,-0.0021766209974884987,0.020133810117840767
649.0,0.0,0.0,0.0,0.0,0.0,0.0,0.006939719896763563,0.00813668966293335,-0.01248430646955967,0.9997126460075378,-0.011992048472166061,-0.003004743019118905,0.020540807396173477
650.0,0.0,0.0,0.0,0.0,0.0,0.0,0.015330731868743896,0.004659508354961872,-0.02291230484843254,0.999711811542511,-0.010103143751621246,-0.004049765877425671,0.0214043278247118
651.0,0.0,0.0,0.0,0.0,0.0,0.0,0.01779879257082939,-0.01703868806362152,-0.026141474023461342,0.9996980428695679,-0.008386282250285149,-0.005773696582764387,0.02237340807914734
652.0,0.0,0.0,0.0,0.0,0.0,0.0,0.021576007828116417,-0.020760800689458847,-0.02321711741387844,0.9997066259384155,-0.006601758301258087,-0.007986051961779594,0.0218974556773901
653.0,0.0,0.0,0.0,0.0,0.0,0.0,0.007970423437654972,-0.009650776162743568,-0.007892359048128128,0.9996961951255798,-0.005298880860209465,-0.010521850548684597,0.021656256169080734
654.0,0.0,0.0,0.0,0.0,0.0,0.0,0.00808628648519516,0.0063422564417123795,-0.013792275451123714,0.9996746182441711,-0.003377295797690749,-0.01357697881758213,0.0213314238935709
655.0,0.0,0.0,0.0,0.0,0.0,0.0,0.010129486210644245,-0.012479575350880623,-0.02189573273062706,0.999642014503479,-0.0018509621731936932,-0.015762630850076675,0.02153267152607441
656.0,0.0,0.0,0.0,0.0,0.0,0.0,-0.010755341500043869,-0.009238407015800476,0.006867068354040384,0.9996062517166138,-0.0010610537137836218,-0.017799749970436096,0.021668219938874245
657.0,0.0,0.0,0.0,0.0,0.0,0.0,-0.028071492910385132,0.01043031644076109,0.013776358217000961,0.9995827078819275,-0.0002834536135196686,-0.020050354301929474,0.020796023309230804
658.0,0.0,0.0,0.0,0.0,0.0,0.0,-0.011389493010938168,0.01571834087371826,0.00023313755809795111,0.9995386004447937,0.00011051106412196532,-0.022442683577537537,0.020461689680814743
659.0,0.0,0.0,0.0,0.0,0.0,0.0,0.003432395402342081,0.011403357610106468,-0.018028495833277702,0.9994479417800903,0.0003145480004604906,-0.026045402511954308,0.020630300045013428
660.0,0.0,0.0,0.0,0.0,0.0,0.0,0.002573614241555333,0.009988426230847836,-0.011581465601921082,0.9993456602096558,1.2307599718042184e-05,-0.02967241033911705,0.02068590186536312
661.0,0.0,0.0,0.0,0.0,0.0,0.0,-0.018946649506688118,0.012265684083104134,0.01534111239016056,0.999264121055603,-0.001035818480886519,-0.03174571692943573,0.02151150442659855
662.0,0.0,0.0,0.0,0.0,0.0,0.0,-0.02319103293120861,0.024134598672389984,0.012366770766675472,0.9992169737815857,-0.001700322376564145,-0.03366811200976372,0.02072014845907688
663.0,0.0,0.0,0.0,0.0,0.0,0.0,-0.012004055082798004,0.0346824936568737,0.0002706687373574823,0.9991158246994019,-0.0027511983644217253,-0.036099016666412354,0.021384233608841896
664.0,0.0,0.0,0.0,0.0,0.0,0.0,-0.02283293381333351,0.011250545270740986,0.013598792254924774,0.9990448355674744,-0.003834586823359132,-0.03800586238503456,0.0212321225553751
665.0,0.0,0.0,0.0,0.0,0.0,0.0,-0.02919602394104004,0.0034881632309406996,0.014005625620484352,0.9989858865737915,-0.0046353889629244804,-0.04004697874188423,0.020055539906024933
666.0,0.0,0.0,0.0,0.0,0.0,0.0,-0.02938714064657688,0.015471057966351509,0.014915795996785164,0.9989975094795227,-0.004895409569144249,-0.04055284336209297,0.018318520858883858
667.0,0.0,0.0,0.0,0.0,0.0,0.0,-0.044617533683776855,-0.0009641352226026356,0.019555553793907166,0.9990468621253967,-0.005039990413933992,-0.03946353867650032,0.017973732203245163
668.0,0.0,0.0,0.0,0.0,0.0,0.0,-0.027730224654078484,-0.014884311705827713,0.00424787076190114,0.9991114139556885,-0.004570395220071077,-0.03764287754893303,0.01840505190193653
669.0,0.0,0.0,0.0,0.0,0.0,0.0,-0.004212532192468643,-0.025145607069134712,-0.024491697549819946,0.9991751313209534,-0.003798713441938162,-0.036023709923028946,0.0183614082634449
670.0,0.0,0.0,0.0,0.0,0.0,0.0,-0.0035944783594459295,-0.027000736445188522,-0.02103072963654995,0.9992290735244751,-0.0034487531520426273,-0.03522608056664467,0.016982344910502434
671.0,0.0,0.0,0.0,0.0,0.0,0.0,-0.01884901523590088,-0.024571701884269714,-0.0003103468334302306,0.9992998838424683,-0.003606014419347048,-0.033869583159685135,0.015487506985664368
672.0,0.0,0.0,0.0,0.0,0.0,0.0,-0.017479583621025085,-0.03378261625766754,0.004709759261459112,0.99937903881073,-0.004568616859614849,-0.03181389719247818,0.01445735152810812
673.0,0.0,0.0,0.0,0.0,0.0,0.0,-0.0024190025869756937,-0.029454227536916733,-0.01194627396762371,0.9994776844978333,-0.005551161710172892,-0.02862587571144104,0.013937088660895824
674.0,0.0,0.0,0.0,0.0,0.0,0.0,0.01209600642323494,-0.009612790308892727,-0.017039941623806953,0.999581515789032,-0.0066851344890892506,-0.025209182873368263,0.012534557841718197
675.0,0.0,0.0,0.0,0.0,0.0,0.0,-0.0057130856439471245,0.018345093354582787,-0.005338119808584452,0.9996537566184998,-0.008089867420494556,-0.02216736599802971,0.011637245304882526
676.0,0.0,0.0,0.0,0.0,0.0,0.0,-0.030758196488022804,0.046475108712911606,0.018591655418276787,0.9997442960739136,-0.00814573373645544,-0.017524849623441696,0.011754888109862804
677.0,0.0,0.0,0.0,0.0,0.0,0.0,-0.0008454311173409224,0.04201936349272728,0.004892157390713692,0.9998020529747009,-0.00615886552259326,-0.013211573474109173,0.013550298288464546
678.0,0.0,0.0,0.0,0.0,0.0,0.0,0.02709992416203022,0.009204716421663761,-0.026229500770568848,0.9998207092285156,-0.0037786406464874744,-0.010063768364489079,0.015589687041938305
679.0,0.0,0.0,0.0,0.0,0.0,0.0,0.024315545335412025,-0.015601393766701221,-0.01035313494503498,0.9998372197151184,-0.0013794483384117484,-0.007992217317223549,0.01611665077507496
680.0,0.0,0.0,0.0,0.0,0.0,0.0,0.013800587505102158,-0.00011748570977943018,0.002134022070094943,0.9998247623443604,0.0004274423117749393,-0.006853353697806597,0.017419593408703804
681.0,0.0,0.0,0.0,0.0,0.0,0.0,0.024920161813497543,0.012464968487620354,-0.022498298436403275,0.999779462814331,0.001407928066328168,-0.008025776594877243,0.019359026104211807
682.0,0.0,0.0,0.0,0.0,0.0,0.0,0.0281288493424654,0.03421618416905403,-0.022011449560523033,0.9997031092643738,0.002646851819008589,-0.010995427146553993,0.021595554426312447
683.0,0.0,0.0,0.0,0.0,0.0,0.0,0.003105271840468049,0.01744472235441208,0.013301409780979156,0.9996370077133179,0.003533781273290515,-0.012168142944574356,0.02378336526453495
684.0,0.0,0.0,0.0,0.0,0.0,0.0,-0.0016759674763306975,-0.02492639422416687,0.015584743581712246,0.9996384978294373,0.0038443058729171753,-0.011824428103864193,0.023845385760068893
685.0,0.0,0.0,0.0,0.0,0.0,0.0,-0.018810885027050972,-0.006140944082289934,0.036806948482990265,0.9996808171272278,0.004536742344498634,-0.0119724590331316,0.02178715355694294
686.0,0.0,0.0,0.0,0.0,0.0,0.0,-0.03719259053468704,0.034490328282117844,0.04572172835469246,0.9997144341468811,0.006307206582278013,-0.01131541095674038,0.02008041739463806
687.0,0.0,0.0,0.0,0.0,0.0,0.0,-0.009738413617014885,0.0072480482049286366,-6.523141928482801e-05,0.9996960759162903,0.007298512849956751,-0.011334736831486225,0.020649971440434456
688.0,0.0,0.0,0.0,0.0,0.0,0.0,0.02913212776184082,-0.03810740262269974,-0.028253421187400818,0.9996862411499023,0.006624117959290743,-0.012038090266287327,0.020948778837919235
689.0,0.0,0.0,0.0,0.0,0.0,0.0,0.028624113649129868,-0.04391990229487419,-0.03280538320541382,0.9996901750564575,0.00423183711245656,-0.013706358149647713,0.020342370495200157
690.0,0.0,0.0,0.0,0.0,0.0,0.0,0.0068339016288518906,-0.0020765180233865976,-0.017918981611728668,0.9997159242630005,0.00031320579000748694,-0.014465756714344025,0.01894400641322136
691.0,0.0,0.0,0.0,0.0,0.0,0.0,-0.007676938083022833,0.02060813270509243,0.019451534375548363,0.9997521638870239,-0.003878664458170533,-0.014966285787522793,0.016024501994252205
692.0,0.0,0.0,0.0,0.0,0.0,0.0,-0.02021806128323078,0.006211021449416876,0.01505795493721962,0.9997761845588684,-0.006997657939791679,-0.01359180174767971,0.01463538408279419
693.0,0.0,0.0,0.0,0.0,0.0,0.0,-0.006068793125450611,0.02030525729060173,-0.002735837595537305,0.9997876882553101,-0.008615936152637005,-0.011095648631453514,0.015085313469171524
694.0,0.0,0.0,0.0,0.0,0.0,0.0,-0.02394799329340458,0.019208531826734543,0.03282072767615318,0.9998048543930054,-0.008356758393347263,-0.009531047195196152,0.015144046396017075
695.0,0.0,0.0,0.0,0.0,0.0,0.0,-0.01895211823284626,-0.017343036830425262,0.011482316069304943,0.9998377561569214,-0.007709374651312828,-0.008065901696681976,0.014147499576210976
696.0,0.0,0.0,0.0,0.0,0.0,0.0,0.03577914088964462,-0.013526538386940956,-0.04476793110370636,0.9998783469200134,-0.007367622572928667,-0.006933891214430332,0.01188578363507986
697.0,0.0,0.0,0.0,0.0,0.0,0.0,0.026748912408947945,-0.014943149872124195,-0.03382718935608864,0.9998922944068909,-0.007794620003551245,-0.007884020917117596,0.009625335223972797
698.0,0.0,0.0,0.0,0.0,0.0,0.0,-0.010384904220700264,-0.007972304709255695,0.006395516451448202,0.9998919367790222,-0.008960079401731491,-0.007079778239130974,0.00926697626709938
699.0,0.0,0.0,0.0,0.0,0.0,0.0,-0.0092056505382061,-0.003595418529585004,0.008984005078673363,0.9998875260353088,-0.010420550592243671,-0.005484553053975105,0.00929093174636364
700.0,0.0,0.0,0.0,0.0,0.0,0.0,-0.016891658306121826,0.002214959589764476,0.01389320008456707,0.9998856782913208,-0.01126896683126688,-0.0028248506132513285,0.009685586206614971
701.0,0.0,0.0,0.0,0.0,0.0,0.0,-0.001594021450728178,-0.0005017268704250455,0.010205337777733803,0.9998816251754761,-0.011403756216168404,-1.167908249044558e-05,0.010343148373067379
702.0,0.0,0.0,0.0,0.0,0.0,0.0,-0.003326728707179427,0.00875139981508255,0.01135209109634161,0.9998816251754761,-0.01091956626623869,0.0017737561138346791,0.010709637776017189
703.0,0.0,0.0,0.0,0.0,0.0,0.0,-0.014141562394797802,0.019790317863225937,0.020068790763616562,0.9998775720596313,-0.009878317825496197,0.00416329363361001,0.011422374285757542
704.0,0.0,0.0,0.0,0.0,0.0,0.0,-0.02000705525279045,0.022002968937158585,0.032096222043037415,0.9998398423194885,-0.008524855598807335,0.007091091014444828,0.0140467444434762
705.0,0.0,0.0,0.0,0.0,0.0,0.0,-0.005677870009094477,0.021810665726661682,0.014011817052960396,0.9997625350952148,-0.00708461320027709,0.008997118100523949,0.018546946346759796
706.0,0.0,0.0,0.0,0.0,0.0,0.0,0.00871439278125763,0.009968675673007965,-0.008894693106412888,0.9996877908706665,-0.005915672052651644,0.010919187217950821,0.02168685384094715
707.0,0.0,0.0,0.0,0.0,0.0,0.0,0.008823694661259651,0.001760281971655786,-0.014989743009209633,0.9996017217636108,-0.00490557961165905,0.012741605751216412,0.024709032848477364
708.0,0.0,0.0,0.0,0.0,0.0,0.0,0.03127879276871681,-0.0021070893853902817,-0.0333709642291069,0.9995132684707642,-0.003264504484832287,0.012812083587050438,0.028254618868231773
709.0,0.0,0.0,0.0,0.0,0.0,0.0,0.004516724497079849,-0.006520353257656097,-0.01755109243094921,0.9994972944259644,-0.002902806270867586,0.011869959533214569,0.029263701289892197
710.0,0.0,0.0,0.0,0.0,0.0,0.0,-0.008555174805223942,-0.003654305124655366,-0.01011261809617281,0.999507486820221,-0.0030792411416769028,0.010500960052013397,0.029417742043733597
711.0,0.0,0.0,0.0,0.0,0.0,0.0,0.005962882190942764,-0.0032057426869869232,0.010193334892392159,0.9994784593582153,-0.003065824043005705,0.009729885496199131,0.030646003782749176
712.0,0.0,0.0,0.0,0.0,0.0,0.0,-0.006383700296282768,-0.0070295631885528564,-0.0021125648636370897,0.9995405673980713,-0.003672277554869652,0.008430457673966885,0.028882618993520737
713.0,0.0,0.0,0.0,0.0,0.0,0.0,0.000514441984705627,-0.009444231167435646,-0.014778736047446728,0.9996300935745239,-0.003995660692453384,0.005857196636497974,0.026264598593115807
714.0,0.0,0.0,0.0,0.0,0.0,0.0,-0.00607663718983531,0.009070371277630329,-0.007708197925239801,0.9997068047523499,-0.0037707125302404165,0.0006242620875127614,0.023918963968753815
715.0,0.0,0.0,0.0,0.0,0.0,0.0,-0.015582878142595291,0.0012883538147434592,0.007209974806755781,0.9997932314872742,-0.0039869314059615135,-0.005862551275640726,0.019068287685513496
716.0,0.0,0.0,0.0,0.0,0.0,0.0,-0.025530977174639702,-0.006138951051980257,0.03315763920545578,0.9998201727867126,-0.004548321478068829,-0.011047272942960262,0.014736310578882694
717.0,0.0,0.0,0.0,0.0,0.0,0.0,-0.017638353630900383,-0.027865834534168243,0.04651369899511337,0.999835193157196,-0.004570046439766884,-0.010622370056807995,0.014001546427607536
718.0,0.0,0.0,0.0,0.0,0.0,0.0,-0.010619077831506729,-0.004231853876262903,0.04816325008869171,0.9998512268066406,-0.003674776293337345,-0.008624556474387646,0.014492098242044449
719.0,0.0,0.0,0.0,0.0,0.0,0.0,-0.0030646887607872486,0.023404480889439583,-0.001583658973686397,0.9998539090156555,-0.0008143983432091773,-0.00607017707079649,0.015973156318068504
720.0,0.0,0.0,0.0,0.0,0.0,0.0,0.04996441304683685,-0.02366137132048607,-0.041285838931798935,0.999838650226593,0.0018806353909894824,-0.0032446037512272596,0.017565730959177017
721.0,0.0,0.0,0.0,0.0,0.0,0.0,0.04600708559155464,-0.05329616740345955,-0.02839372307062149,0.9998587965965271,0.002815479878336191,-0.0023998504038900137,0.016398830339312553
722.0,0.0,0.0,0.0,0.0,0.0,0.0,0.0016623444389551878,-0.01155540719628334,-0.0039879633113741875,0.9998887181282043,0.003504879307001829,-0.001020074007101357,0.014467749744653702
723.0,0.0,0.0,0.0,0.0,0.0,0.0,0.006386393215507269,0.019722145050764084,-0.0009215010213665664,0.9998587369918823,0.004464734345674515,0.0017972886562347412,0.01610831916332245
724.0,0.0,0.0,0.0,0.0,0.0,0.0,0.0015857135877013206,0.00012131438415963203,0.002989602042362094,0.9997674822807312,0.004482749383896589,0.005117559339851141,0.020469466224312782
725.0,0.0,0.0,0.0,0.0,0.0,0.0,0.002847316674888134,-0.002615978242829442,-0.0013359233271330595,0.9996570348739624,0.0045197405852377415,0.009075596928596497,0.02414822019636631
726.0,0.0,0.0,0.0,0.0,0.0,0.0,0.019761359319090843,-0.00018735832418315113,-0.036011289805173874,0.9996012449264526,0.0049811420030891895,0.010667647235095501,0.025673972442746162
727.0,0.0,0.0,0.0,0.0,0.0,0.0,0.01812085136771202,-0.012993157841265202,-0.026512837037444115,0.9996265172958374,0.0046900175511837006,0.009380481205880642,0.02524160034954548
728.0,0.0,0.0,0.0,0.0,0.0,0.0,-0.014970158226788044,0.007397755980491638,0.01424471102654934,0.9996889233589172,0.00520577747374773,0.005995225626975298,0.023654403164982796
729.0,0.0,0.0,0.0,0.0,0.0,0.0,-0.02490164525806904,0.0059307836927473545,0.014226322062313557,0.9997210502624512,0.005628400947898626,0.004098183941096067,0.022568345069885254
730.0,0.0,0.0,0.0,0.0,0.0,0.0,0.005311617162078619,-0.012291044928133488,-0.009853485971689224,0.9997420310974121,0.005926990881562233,0.0024699834175407887,0.021798616275191307
731.0,0.0,0.0,0.0,0.0,0.0,0.0,0.0037605254910886288,-0.007213789038360119,-0.005245838779956102,0.9997557997703552,0.006797645706683397,-0.0008382543455809355,0.021011987701058388
732.0,0.0,0.0,0.0,0.0,0.0,0.0,-0.0115489661693573,-0.007482025306671858,0.0015040914295241237,0.9997743368148804,0.007158332969993353,-0.003628465812653303,0.019672870635986328
733.0,0.0,0.0,0.0,0.0,0.0,0.0,0.0036082654260098934,-0.02273593284189701,-0.006197548471391201,0.9998176693916321,0.007023737300187349,-0.006458261515945196,0.01655476540327072
734.0,0.0,0.0,0.0,0.0,0.0,0.0,0.0014870190061628819,-0.007688306272029877,-0.005120433866977692,0.9998266100883484,0.007033773232251406,-0.010698895901441574,0.013531871140003204
735.0,0.0,0.0,0.0,0.0,0.0,0.0,-0.019082287326455116,0.0046588522382080555,0.017596546560525894,0.9998002052307129,0.007465266156941652,-0.013702633790671825,0.012496422976255417
736.0,0.0,0.0,0.0,0.0,0.0,0.0,-0.020416511222720146,-0.018431406468153,0.009958237409591675,0.9997845888137817,0.007155216298997402,-0.01495539303869009,0.012489615939557552
737.0,0.0,0.0,0.0,0.0,0.0,0.0,0.020798461511731148,-0.015952588990330696,-0.015310684219002724,0.9997661113739014,0.007294534705579281,-0.01580170914530754,0.012835036963224411
738.0,0.0,0.0,0.0,0.0,0.0,0.0,0.003997553139925003,0.0016430916730314493,0.0007378856535069644,0.9997345209121704,0.007687067147344351,-0.016901029273867607,0.013650093227624893
739.0,0.0,0.0,0.0,0.0,0.0,0.0,-0.02014290727674961,0.007725493051111698,0.017059555277228355,0.9997197389602661,0.00746532715857029,-0.017220769077539444,0.014434263110160828
740.0,0.0,0.0,0.0,0.0,0.0,0.0,0.010031582787632942,0.004530641715973616,-0.008327420800924301,0.9997069239616394,0.007643178571015596,-0.017652995884418488,0.014698653481900692
741.0,0.0,0.0,0.0,0.0,0.0,0.0,0.005051522981375456,-0.00779355363920331,-0.0014907828299328685,0.9997007846832275,0.0076401070691645145,-0.01753225550055504,0.015257604420185089
742.0,0.0,0.0,0.0,0.0,0.0,0.0,-0.004298234358429909,-0.014926073141396046,0.014474957250058651,0.9997244477272034,0.006956588476896286,-0.01711844652891159,0.014480998739600182
743.0,0.0,0.0,0.0,0.0,0.0,0.0,-0.005002807825803757,0.0020466989371925592,0.017218835651874542,0.9997395873069763,0.006511452607810497,-0.01681070774793625,0.013990913517773151
744.0,0.0,0.0,0.0,0.0,0.0,0.0,-0.006531644146889448,-0.004882526583969593,0.015720009803771973,0.9997498393058777,0.006100307684391737,-0.01577884890139103,0.014632786624133587
745.0,0.0,0.0,0.0,0.0,0.0,0.0,-0.0007332112290896475,-0.011186670511960983,0.011435020714998245,0.9997547268867493,0.006235386244952679,-0.01498876977711916,0.015068817883729935
746.0,0.0,0.0,0.0,0.0,0.0,0.0,-0.0022269138135015965,0.0021454314701259136,0.002905340399593115,0.9997550249099731,0.006265435833483934,-0.014529953710734844,0.01548023708164692
747.0,0.0,0.0,0.0,0.0,0.0,0.0,-0.002405421808362007,0.004841715097427368,0.010839776135981083,0.9997691512107849,0.006867076735943556,-0.013077602721750736,0.015600518323481083
748.0,0.0,0.0,0.0,0.0,0.0,0.0,-0.018741223961114883,0.001963713439181447,0.020733507350087166,0.9997828602790833,0.007394149899482727,-0.011959427036345005,0.0153904864564538
749.0,0.0,0.0,0.0,0.0,0.0,0.0,-0.0010812613181769848,-0.01746314764022827,-0.007703752256929874,0.9997870922088623,0.008035528473556042,-0.010285763069987297,0.01598830707371235
750.0,0.0,0.0,0.0,0.0,0.0,0.0,0.018537743017077446,-0.026058528572320938,-0.02472809888422489,0.9997904896736145,0.007995832711458206,-0.008065763860940933,0.01703665778040886
751.0,0.0,0.0,0.0,0.0,0.0,0.0,0.010484214872121811,-0.00683205109089613,-0.017037637531757355,0.999782383441925,0.008186028338968754,-0.005894973408430815,0.018262308090925217
752.0,0.0,0.0,0.0,0.0,0.0,0.0,0.015992779284715652,-0.010708289220929146,-0.020285209640860558,0.999773383140564,0.007840159349143505,-0.00504703912883997,0.019141340628266335
753.0,0.0,0.0,0.0,0.0,0.0,0.0,0.009454246610403061,-0.006845853757113218,-0.014319920912384987,0.9997749924659729,0.006805518176406622,-0.00539905671030283,0.01935604214668274
754.0,0.0,0.0,0.0,0.0,0.0,0.0,0.0007865724037401378,0.005346566904336214,-0.006740793585777283,0.9997871518135071,0.0055229756981134415,-0.005564382765442133,0.019085925072431564
755.0,0.0,0.0,0.0,0.0,0.0,0.0,-2.213938751083333e-05,0.0016649510944262147,-0.008550609461963177,0.999799370765686,0.004009744618088007,-0.006112243048846722,0.01864837482571602
756.0,0.0,0.0,0.0,0.0,0.0,0.0,0.004729769192636013,0.004387388937175274,-0.015866011381149292,0.9997977018356323,0.002439600182697177,-0.008148339577019215,0.018226364627480507
757.0,0.0,0.0,0.0,0.0,0.0,0.0,-0.0012603511568158865,0.0043721385300159454,-0.010615672916173935,0.999783992767334,5.037833398091607e-05,-0.011102639138698578,0.01756865717470646
758.0,0.0,0.0,0.0,0.0,0.0,0.0,-0.005793338641524315,0.007422855589538813,-0.00709104910492897,0.9997493028640747,-0.002264437498524785,-0.015158465132117271,0.016322560608386993
759.0,0.0,0.0,0.0,0.0,0.0,0.0,0.003958391025662422,-0.00851353071630001,0.002984463470056653,0.9997060298919678,-0.0046979752369225025,-0.018135804682970047,0.01540313195437193
