,Position_X,Position_Y,Position_Z,Velocity_X,Velocity_Y,Velocity_Z,Acceleration_X,Acceleration_Y,Acceleration_Z,Quaterion_0,Quaterion_1,Quaterion_2,Quaterion_3
90.0,0.0,0.0,0.0,0.0,0.0,0.0,-0.005902329459786415,-0.008236445486545563,-0.007476516533643007,1.0,-3.851859888774472e-34,2.7755575615628914e-17,-2.7755575615628914e-17
91.0,0.0,0.0,0.0,0.0,0.0,0.0,-0.002734048757702112,-0.03027932159602642,-0.007891209796071053,0.999996542930603,-0.0016196123324334621,0.001389151788316667,0.0015245171962305903
92.0,0.0,0.0,0.0,0.0,0.0,0.0,0.09649267792701721,-0.014462513849139214,-0.06441576778888702,0.9999712705612183,-0.0006725328275933862,-0.001753542572259903,0.007340221665799618
93.0,0.0,0.0,0.0,0.0,0.0,0.0,-0.017949456349015236,-0.05619259178638458,0.031998928636312485,0.9999753832817078,-0.0006898771389387548,-0.004361185245215893,0.0054525090381503105
94.0,0.0,0.0,0.0,0.0,0.0,0.0,-0.08183952420949936,0.005794283002614975,-0.03142915293574333,0.999990701675415,-0.0020940895192325115,-0.0037634936161339283,-0.00021973038383293897
95.0,0.0,0.0,0.0,0.0,0.0,0.0,-0.030736634507775307,0.046384330838918686,0.05221891030669212,0.9999971389770508,-0.00046104268403723836,-0.002214812906458974,-0.0007961542578414083
96.0,0.0,0.0,0.0,0.0,0.0,0.0,-0.02149796299636364,-0.021163877099752426,0.01380640547722578,0.9999974966049194,-0.0007206416339613497,-0.0008325342205353081,-0.0019532637670636177
97.0,0.0,0.0,0.0,0.0,0.0,0.0,0.00687403604388237,0.012227875180542469,0.013877106830477715,0.9999964237213135,-0.00042768093408085406,-0.00024891289649531245,-0.002631701761856675
98.0,0.0,0.0,0.0,0.0,0.0,0.0,0.007725853938609362,0.007409917190670967,0.02034034952521324,0.9999962449073792,0.0009349769097752869,-0.002226356416940689,-0.0012956592254340649
99.0,0.0,0.0,0.0,0.0,0.0,0.0,-0.029845042154192924,-0.00571142602711916,-0.008153513073921204,0.9999940395355225,0.0010124610271304846,-0.0031544326338917017,0.0009423759183846414
100.0,0.0,0.0,0.0,0.0,0.0,0.0,-0.02290009707212448,0.030750848352909088,0.017204659059643745,0.9999923706054688,0.002126580337062478,-0.0020337235182523727,0.002568137366324663
101.0,0.0,0.0,0.0,0.0,0.0,0.0,0.012418333441019058,0.00274087768048048,0.0036285510286688805,0.9999877214431763,0.0027208607643842697,-0.002313064644113183,0.003438027109950781
102.0,0.0,0.0,0.0,0.0,0.0,0.0,0.004431906156241894,-0.0010516963666304946,-0.009444878436625004,0.9999880790710449,0.003663888666778803,-0.00269131176173687,0.0017831906443461776
103.0,0.0,0.0,0.0,0.0,0.0,0.0,0.0016473018331453204,0.004615770187228918,-0.004879034124314785,0.9999868273735046,0.004749268759042025,-0.0019292286597192287,0.00017402572848368436
104.0,0.0,0.0,0.0,0.0,0.0,0.0,0.0022196888457983732,0.0002538837434258312,-0.013884429819881916,0.9999855160713196,0.005280426237732172,-0.0008715731091797352,-0.0005218394217081368
105.0,0.0,0.0,0.0,0.0,0.0,0.0,0.00045982043957337737,-0.00045760435750707984,-0.012959873303771019,0.9999836087226868,0.005604995414614677,-0.0005730873672291636,-0.0010073374724015594
106.0,0.0,0.0,0.0,0.0,0.0,0.0,0.003186093643307686,0.0006034023244865239,-0.012809296138584614,0.9999830722808838,0.005738015286624432,-0.0009492965182289481,-0.00021026616741437465
107.0,0.0,0.0,0.0,0.0,0.0,0.0,0.003342268755659461,-0.0031007551588118076,-0.014750794507563114,0.9999778866767883,0.006445825565606356,-0.0011221094755455852,0.0012054990511387587
108.0,0.0,0.0,0.0,0.0,0.0,0.0,-0.003032358130440116,0.00020744767971336842,-0.013518378138542175,0.9999715685844421,0.007161837071180344,-0.0012896631378680468,0.001973366132006049
109.0,0.0,0.0,0.0,0.0,0.0,0.0,-0.0035703894682228565,0.005055012181401253,-0.010261609219014645,0.999968945980072,0.0076237632893025875,-0.0012024218449369073,0.0016017149901017547
110.0,0.0,0.0,0.0,0.0,0.0,0.0,-3.853288944810629e-05,0.0028644148260354996,-0.004988381173461676,0.9999638199806213,0.008356749080121517,-0.001142733613960445,0.0010776304407045245
111.0,0.0,0.0,0.0,0.0,0.0,0.0,0.002755872905254364,0.001020737225189805,-0.0032885833643376827,0.9999575614929199,0.009133393876254559,-0.0009948208462446928,0.0007098222267813981
112.0,0.0,0.0,0.0,0.0,0.0,0.0,-0.001956690102815628,-0.0006105061038397253,-0.0027507715858519077,0.9999540448188782,0.00952782854437828,-0.0008024174021556973,0.0006759282550774515
113.0,0.0,0.0,0.0,0.0,0.0,0.0,-0.003167348215356469,0.003038290422409773,-0.005467122886329889,0.9999526143074036,0.009625631384551525,-0.000727689650375396,0.0012604222865775228
114.0,0.0,0.0,0.0,0.0,0.0,0.0,0.0008101960993371904,0.00071276183007285,0.00012199282355140895,0.9999485611915588,0.009883475489914417,-0.001072198967449367,0.002003718400374055
115.0,0.0,0.0,0.0,0.0,0.0,0.0,-0.001985033042728901,-0.0014685253845527768,0.0014740900369361043,0.9999462366104126,0.00997944362461567,-0.0014913519844412804,0.0023978515528142452
116.0,0.0,0.0,0.0,0.0,0.0,0.0,-0.006821895018219948,-0.0020415261387825012,-0.0006243434618227184,0.9999469518661499,0.009907943196594715,-0.0012261186493560672,0.0025249889586120844
117.0,0.0,0.0,0.0,0.0,0.0,0.0,-0.0055092559196054935,-0.004639850929379463,-0.0035127007868140936,0.9999447464942932,0.010215610265731812,-0.0003743654815480113,0.0024411631748080254
118.0,0.0,0.0,0.0,0.0,0.0,0.0,2.981143188662827e-05,-0.013797766529023647,-0.009034560061991215,0.999939501285553,0.010736375115811825,0.0015222744550555944,0.0018305908888578415
119.0,0.0,0.0,0.0,0.0,0.0,0.0,-0.01599726267158985,-0.06956424564123154,-0.042476702481508255,0.9999727010726929,0.005472339224070311,0.0038912256713956594,0.00309068919159472
120.0,0.0,0.0,0.0,0.0,0.0,0.0,0.12767577171325684,0.0369340218603611,-0.07787375897169113,0.9999247789382935,0.006048270501196384,0.0006251057493500412,0.010648897849023342
121.0,0.0,0.0,0.0,0.0,0.0,0.0,-0.013539454899728298,-0.1028076633810997,0.07201208174228668,0.9999170303344727,0.006996684707701206,-0.003622837131842971,0.010191937908530235
122.0,0.0,0.0,0.0,0.0,0.0,0.0,-0.11786021292209625,-0.0036593149416148663,-0.060074176639318466,0.9999873042106628,0.004178256262093782,-0.0019618868827819824,0.0020334566943347454
123.0,0.0,0.0,0.0,0.0,0.0,0.0,-0.03827986493706703,0.08064182847738266,0.052925463765859604,0.9999719858169556,0.007355365436524153,-0.00020891103486064821,0.0013912854483351111
124.0,0.0,0.0,0.0,0.0,0.0,0.0,-0.016831576824188232,-0.026333263143897057,0.008312931284308434,0.9999720454216003,0.007062551565468311,0.0024547437205910683,0.0001417848834535107
125.0,0.0,0.0,0.0,0.0,0.0,0.0,0.05837756395339966,-0.0538904182612896,-0.024269798770546913,0.9999712109565735,0.007028084248304367,0.001920260488986969,0.002109202090650797
126.0,0.0,0.0,0.0,0.0,0.0,0.0,0.01153901033103466,0.003916504327207804,-0.0017269122181460261,0.9999821186065674,0.005441170185804367,-0.0005506067536771297,0.00242592953145504
127.0,0.0,0.0,0.0,0.0,0.0,0.0,-0.03525306284427643,0.02916455827653408,0.020965304225683212,0.9999800324440002,0.004499176051467657,-0.001312519540078938,0.004232885781675577
128.0,0.0,0.0,0.0,0.0,0.0,0.0,-0.008561118505895138,0.02705715224146843,0.018248537555336952,0.9999651312828064,0.004735092166811228,-0.0020160088315606117,0.006576118990778923
129.0,0.0,0.0,0.0,0.0,0.0,0.0,0.000561353110242635,0.022496486082673073,0.018502136692404747,0.9999642968177795,0.004987924359738827,-0.0021547565702348948,0.006470376625657082
130.0,0.0,0.0,0.0,0.0,0.0,0.0,0.02259327471256256,0.005843362770974636,0.000549783231690526,0.9999722838401794,0.005089662969112396,-0.002047390677034855,0.005028409417718649
131.0,0.0,0.0,0.0,0.0,0.0,0.0,0.006586338859051466,0.005660587921738625,-0.0051617929711937904,0.999976634979248,0.00605745380744338,-0.0018047812627628446,0.0025992777664214373
132.0,0.0,0.0,0.0,0.0,0.0,0.0,-0.0015520398737862706,0.017707370221614838,0.0021410498302429914,0.9999724626541138,0.007166488096117973,-0.0015030677895992994,0.0012211870634928346
133.0,0.0,0.0,0.0,0.0,0.0,0.0,0.0012548520462587476,0.010588453151285648,-0.0014304828364402056,0.999966561794281,0.00775023503229022,-0.0018080448498949409,0.0018723797984421253
134.0,0.0,0.0,0.0,0.0,0.0,0.0,0.00722678704187274,0.0030992787797003984,-0.01739094778895378,0.9999607801437378,0.007740957662463188,-0.002302164677530527,0.0036269747652113438
135.0,0.0,0.0,0.0,0.0,0.0,0.0,0.009778854437172413,0.0064639737829566,-0.005605075042694807,0.9999459385871887,0.00803414173424244,-0.003260565223172307,0.0057351253926754
136.0,0.0,0.0,0.0,0.0,0.0,0.0,-0.002439237432554364,0.011349868960678577,-0.0069245826452970505,0.99993896484375,0.008230216801166534,-0.003961819689720869,0.006211466621607542
137.0,0.0,0.0,0.0,0.0,0.0,0.0,-0.004507306031882763,0.014234546571969986,-0.0031189476139843464,0.9999402761459351,0.008555633947253227,-0.0037305522710084915,0.005683760158717632
138.0,0.0,0.0,0.0,0.0,0.0,0.0,0.0011636773124337196,0.008008877746760845,0.006394797004759312,0.9999378323554993,0.00912484247237444,-0.0034016252029687166,0.005428082309663296
139.0,0.0,0.0,0.0,0.0,0.0,0.0,-0.007291245274245739,0.0006225305842235684,-0.012132920324802399,0.9999318718910217,0.01032145693898201,-0.0034414017572999,0.0042221080511808395
140.0,0.0,0.0,0.0,0.0,0.0,0.0,-0.010228440165519714,0.0027733820024877787,-0.014637371525168419,0.9999276399612427,0.010822535492479801,-0.00395895354449749,0.0034448381047695875
141.0,0.0,0.0,0.0,0.0,0.0,0.0,-0.006032707169651985,-0.0011372684966772795,-0.0005007443833164871,0.9999237656593323,0.011002540588378906,-0.004055729601532221,0.003876457689329982
142.0,0.0,0.0,0.0,0.0,0.0,0.0,-0.007261765189468861,0.0020203834865242243,0.001509831054136157,0.9999140501022339,0.011336649768054485,-0.00393172912299633,0.005286995321512222
143.0,0.0,0.0,0.0,0.0,0.0,0.0,-0.005413479171693325,0.0035190111957490444,0.005483360029757023,0.9999051094055176,0.011603327468037605,-0.004118951503187418,0.006174872629344463
144.0,0.0,0.0,0.0,0.0,0.0,0.0,-0.005974803119897842,-0.002961292862892151,-0.002313368022441864,0.9998990297317505,0.01219420786947012,-0.004001051653176546,0.006100623402744532
145.0,0.0,0.0,0.0,0.0,0.0,0.0,-0.00032492526224814355,-0.008939580991864204,-0.01994493417441845,0.9998946785926819,0.013227940537035465,-0.0021276422776281834,0.005574214272201061
146.0,0.0,0.0,0.0,0.0,0.0,0.0,0.03746654465794563,-0.04455820471048355,-0.0010784643236547709,0.9998930096626282,0.012557260692119598,-0.0010419456521049142,0.007425573188811541
147.0,0.0,0.0,0.0,0.0,0.0,0.0,0.2042590230703354,-0.0016206735745072365,-0.09887756407260895,0.999579906463623,0.019696330651640892,-0.010012218728661537,0.018757134675979614
148.0,0.0,0.0,0.0,0.0,0.0,0.0,-0.03114953823387623,-0.14129337668418884,0.026782987639307976,0.9995338320732117,0.01941312476992607,-0.01441433560103178,0.01864027790725231
149.0,0.0,0.0,0.0,0.0,0.0,0.0,-0.12470672279596329,-0.009283049963414669,-0.08362649381160736,0.9997733235359192,0.012850556522607803,-0.011281974613666534,0.012682418338954449
150.0,0.0,0.0,0.0,0.0,0.0,0.0,-0.04585855081677437,0.10694263875484467,0.00973025243729353,0.9998080134391785,0.013022704049944878,-0.008093995042145252,0.012201118282973766
151.0,0.0,0.0,0.0,0.0,0.0,0.0,-0.028720302507281303,-0.02793947421014309,0.027835262939333916,0.9999000430107117,0.009379219263792038,-0.003250330686569214,0.01006590761244297
152.0,0.0,0.0,0.0,0.0,0.0,0.0,0.09636161476373672,-0.023080527782440186,0.019986454397439957,0.9999037384986877,0.008498149923980236,-0.0028024050407111645,0.010605213232338428
153.0,0.0,0.0,0.0,0.0,0.0,0.0,0.045475710183382034,-0.052265286445617676,-0.0070058442652225494,0.9998916387557983,0.006488317158073187,-0.00483552273362875,0.01229596883058548
154.0,0.0,0.0,0.0,0.0,0.0,0.0,-0.04299768805503845,0.002221793169155717,-0.007871419191360474,0.9998981952667236,0.002604682929813862,-0.007259697653353214,0.012003468349575996
155.0,0.0,0.0,0.0,0.0,0.0,0.0,-0.048937153071165085,0.03264080360531807,0.02562210150063038,0.9998494386672974,0.0007406513323076069,-0.009429861791431904,0.014545111916959286
156.0,0.0,0.0,0.0,0.0,0.0,0.0,-0.05085035786032677,0.030585860833525658,0.03191741183400154,0.9998174905776978,-0.0005372870364226401,-0.009127086028456688,0.016773270443081856
157.0,0.0,0.0,0.0,0.0,0.0,0.0,-0.01675712876021862,0.015126458369195461,0.009897266514599323,0.9998251795768738,-0.0017856755293905735,-0.008134343661367893,0.01673995517194271
158.0,0.0,0.0,0.0,0.0,0.0,0.0,-0.002830397104844451,0.0024573183618485928,0.007425433956086636,0.9998506903648376,-0.0026591517962515354,-0.0072481767274439335,0.015462435781955719
159.0,0.0,0.0,0.0,0.0,0.0,0.0,-0.006169418338686228,0.0024960592854768038,0.012441390193998814,0.9998735189437866,-0.003141040215268731,-0.0058340211398899555,0.014457549899816513
160.0,0.0,0.0,0.0,0.0,0.0,0.0,-0.005341632757335901,0.0023558377288281918,-0.002493534004315734,0.9998818039894104,-0.003744517220184207,-0.00441925972700119,0.014242448844015598
161.0,0.0,0.0,0.0,0.0,0.0,0.0,0.015509111806750298,-0.0018445838941261172,-0.020500438287854195,0.9998323917388916,-0.004571249242872,-0.004700846970081329,0.017092188820242882
162.0,0.0,0.0,0.0,0.0,0.0,0.0,0.019424140453338623,0.005838023032993078,-0.016907600685954094,0.9997584223747253,-0.004612479358911514,-0.006489109247922897,0.020486464723944664
163.0,0.0,0.0,0.0,0.0,0.0,0.0,0.007154881954193115,0.015160213224589825,0.006764785386621952,0.9996991157531738,-0.002615964040160179,-0.008049622178077698,0.023021211847662926
164.0,0.0,0.0,0.0,0.0,0.0,0.0,0.006956563331186771,0.020332952961325645,0.00974058173596859,0.9996514916419983,0.0002992696245200932,-0.00787979457527399,0.025192974135279655
165.0,0.0,0.0,0.0,0.0,0.0,0.0,0.031378719955682755,0.0037257063668221235,-0.010676219128072262,0.9995859265327454,0.002809010911732912,-0.00780093390494585,0.0275538582354784
166.0,0.0,0.0,0.0,0.0,0.0,0.0,0.044845324009656906,-0.011154314503073692,-0.02984466403722763,0.9995172619819641,0.004969597794115543,-0.008713177405297756,0.029404684901237488
167.0,0.0,0.0,0.0,0.0,0.0,0.0,0.03494574502110481,-0.013949910178780556,-0.02014578878879547,0.999451756477356,0.0065941279754042625,-0.010109889321029186,0.030825624242424965
168.0,0.0,0.0,0.0,0.0,0.0,0.0,0.010695889592170715,-0.001677436986938119,-0.00852739904075861,0.9993955492973328,0.00790998712182045,-0.011010559275746346,0.03201320022344589
169.0,0.0,0.0,0.0,0.0,0.0,0.0,-0.005566774867475033,0.014619549736380577,0.005056269932538271,0.9993402361869812,0.00922592543065548,-0.011416147463023663,0.03322289139032364
170.0,0.0,0.0,0.0,0.0,0.0,0.0,1.0452862625243142e-05,0.015846217051148415,0.014029999263584614,0.9992961883544922,0.01023012399673462,-0.01202807854861021,0.03402505815029144
171.0,0.0,0.0,0.0,0.0,0.0,0.0,0.01273400615900755,0.01120771188288927,0.018821801990270615,0.9992702603340149,0.011806417256593704,-0.01228189654648304,0.0341842919588089
172.0,0.0,0.0,0.0,0.0,0.0,0.0,0.01318233273923397,0.00444848882034421,0.020422153174877167,0.9992610216140747,0.013591423630714417,-0.01170190330594778,0.033994387835264206
173.0,0.0,0.0,0.0,0.0,0.0,0.0,0.013758170418441296,-0.005706787109375,-0.001227833330631256,0.9992430806159973,0.015131259337067604,-0.011132013984024525,0.03406526520848274
174.0,0.0,0.0,0.0,0.0,0.0,0.0,0.00986405462026596,-0.013464028015732765,-0.01283947378396988,0.9992049932479858,0.01635015197098255,-0.01199593860656023,0.03432164341211319
175.0,0.0,0.0,0.0,0.0,0.0,0.0,-0.004119886085391045,-0.01954575441777706,-0.00922875665128231,0.9992045164108276,0.016674213111400604,-0.013287538662552834,0.03369910642504692
176.0,0.0,0.0,0.0,0.0,0.0,0.0,-0.014796676114201546,-0.00826951116323471,-0.01191653124988079,0.9992340803146362,0.017049593850970268,-0.013202252797782421,0.032653216272592545
177.0,0.0,0.0,0.0,0.0,0.0,0.0,-0.008663998916745186,0.003042547032237053,0.007585849147289991,0.9992889165878296,0.01710132136940956,-0.01256005559116602,0.031168509274721146
178.0,0.0,0.0,0.0,0.0,0.0,0.0,-0.004245938267558813,-0.015553772449493408,0.008355895057320595,0.9993327856063843,0.016328899189829826,-0.012172785587608814,0.030313948169350624
179.0,0.0,0.0,0.0,0.0,0.0,0.0,-5.6110289733624086e-05,-0.03174734488129616,-0.016496123746037483,0.9993512034416199,0.014995226636528969,-0.012580382637679577,0.03023388236761093
180.0,0.0,0.0,0.0,0.0,0.0,0.0,-0.020993908867239952,-0.032332777976989746,-0.032464466989040375,0.9993833303451538,0.010538035072386265,-0.013335206545889378,0.03072449564933777
181.0,0.0,0.0,0.0,0.0,0.0,0.0,-0.02066708169877529,-0.018840447068214417,-0.03930315747857094,0.9993283152580261,0.004333862103521824,-0.014236729592084885,0.03348865732550621
182.0,0.0,0.0,0.0,0.0,0.0,0.0,-0.014453195966780186,0.008089725859463215,-0.006156241055577993,0.9991562366485596,-0.0021860140841454268,-0.015398814342916012,0.03801140934228897
183.0,0.0,0.0,0.0,0.0,0.0,0.0,-0.008537051267921925,0.0330679751932621,0.029635801911354065,0.9988466501235962,-0.008824458345770836,-0.016742432489991188,0.044123634696006775
184.0,0.0,0.0,0.0,0.0,0.0,0.0,-0.010758887976408005,0.0792173221707344,0.0706128478050232,0.9984733462333679,-0.013830154202878475,-0.01783432997763157,0.05041471868753433
185.0,0.0,0.0,0.0,0.0,0.0,0.0,0.012185240164399147,0.05626296252012253,0.07113684713840485,0.9980924725532532,-0.01625034026801586,-0.01760024204850197,0.05689915269613266
186.0,0.0,0.0,0.0,0.0,0.0,0.0,0.022135332226753235,0.03963603079319,0.042368289083242416,0.997772753238678,-0.015249565243721008,-0.017618240788578987,0.06250244379043579
187.0,0.0,0.0,0.0,0.0,0.0,0.0,-0.004030635580420494,-0.019542977213859558,0.004864957183599472,0.9975433945655823,-0.014173370786011219,-0.0170229971408844,0.06645778566598892
188.0,0.0,0.0,0.0,0.0,0.0,0.0,0.008879326283931732,-0.02433857135474682,0.000985706807114184,0.9971812963485718,-0.015598409809172153,-0.016189247369766235,0.07157788425683975
189.0,0.0,0.0,0.0,0.0,0.0,0.0,0.036237213760614395,-0.027981877326965332,-0.017762957140803337,0.996582567691803,-0.017330637201666832,-0.01533516775816679,0.07929196208715439
190.0,0.0,0.0,0.0,0.0,0.0,0.0,0.040059883147478104,-0.024741213768720627,-0.05452028289437294,0.9959280490875244,-0.019545339047908783,-0.015434883534908295,0.08664416521787643
191.0,0.0,0.0,0.0,0.0,0.0,0.0,0.023017337545752525,-0.03448164835572243,-0.057871103286743164,0.9954218864440918,-0.022509131580591202,-0.016227928921580315,0.09145268052816391
192.0,0.0,0.0,0.0,0.0,0.0,0.0,0.011224263347685337,-0.046967338770627975,-0.0552934855222702,0.9948602914810181,-0.02882779948413372,-0.015697887167334557,0.0957946851849556
193.0,0.0,0.0,0.0,0.0,0.0,0.0,-0.017275985330343246,-0.05793366953730583,-0.06503314524888992,0.9941706657409668,-0.038267336785793304,-0.014071602374315262,0.09981198608875275
194.0,0.0,0.0,0.0,0.0,0.0,0.0,0.00890444777905941,0.05277540162205696,-0.040992189198732376,0.993474543094635,-0.04665380343794823,-0.012986429035663605,0.10325348377227783
195.0,0.0,0.0,0.0,0.0,0.0,0.0,0.003913466818630695,0.050736572593450546,0.01941239833831787,0.993435263633728,-0.05032946914434433,-0.012768082320690155,0.10193293541669846
196.0,0.0,0.0,0.0,0.0,0.0,0.0,0.014169780537486076,0.0122371232137084,0.026629801839590073,0.9936121702194214,-0.052506931126117706,-0.013961192220449448,0.09890320897102356
197.0,0.0,0.0,0.0,0.0,0.0,0.0,0.0016042616916820407,0.03337538614869118,0.033849574625492096,0.9938947558403015,-0.0527673102915287,-0.015783365815877914,0.09558988362550735
198.0,0.0,0.0,0.0,0.0,0.0,0.0,-0.019857458770275116,0.0392068587243557,0.03404349088668823,0.994228720664978,-0.05305652320384979,-0.016365520656108856,0.09179137647151947
199.0,0.0,0.0,0.0,0.0,0.0,0.0,0.006725246552377939,0.01945941336452961,0.01928790844976902,0.9945307970046997,-0.05172157287597656,-0.018543915823101997,0.08881963789463043
200.0,0.0,0.0,0.0,0.0,0.0,0.0,-0.007109996397048235,0.024900641292333603,0.033531706780195236,0.9950273633003235,-0.048960406333208084,-0.0214996337890625,0.08402403444051743
201.0,0.0,0.0,0.0,0.0,0.0,0.0,-0.024788854643702507,0.03051939606666565,0.04109868407249451,0.9958280920982361,-0.0455392450094223,-0.02529093809425831,0.07491401582956314
202.0,0.0,0.0,0.0,0.0,0.0,0.0,-0.022741172462701797,0.014047776348888874,0.03251541033387184,0.9965044856071472,-0.04213561862707138,-0.027280818670988083,0.06677304208278656
203.0,0.0,0.0,0.0,0.0,0.0,0.0,-0.007970891892910004,0.022505544126033783,0.03886440768837929,0.9969303011894226,-0.040342777967453,-0.027963008731603622,0.06099682301282883
204.0,0.0,0.0,0.0,0.0,0.0,0.0,-0.023920932784676552,0.03801985830068588,0.01976608671247959,0.9974878430366516,-0.03739672154188156,-0.027783986181020737,0.05336488038301468
205.0,0.0,0.0,0.0,0.0,0.0,0.0,-0.015768563374876976,0.01088035013526678,0.003342642681673169,0.9977891445159912,-0.037321534007787704,-0.0267584677785635,0.04803428426384926
206.0,0.0,0.0,0.0,0.0,0.0,0.0,-0.001753447693772614,-0.017663488164544106,0.0022808765061199665,0.9978418350219727,-0.0394345298409462,-0.024779681116342545,0.04628782346844673
207.0,0.0,0.0,0.0,0.0,0.0,0.0,0.01710689626634121,-0.0373087003827095,-0.036231402307748795,0.997790515422821,-0.041568439453840256,-0.023619674146175385,0.046128224581480026
208.0,0.0,0.0,0.0,0.0,0.0,0.0,0.008208194747567177,-0.027636531740427017,-0.06294039636850357,0.9976430535316467,-0.04333215951919556,-0.02286645770072937,0.048045702278614044
209.0,0.0,0.0,0.0,0.0,0.0,0.0,0.011768956668674946,-0.020343109965324402,-0.05998515337705612,0.9974719882011414,-0.04318864271044731,-0.022664420306682587,0.05167841166257858
210.0,0.0,0.0,0.0,0.0,0.0,0.0,0.009626412764191628,-0.009829294867813587,-0.06418360024690628,0.9974270462989807,-0.039705123752355576,-0.022782906889915466,0.05516701936721802
211.0,0.0,0.0,0.0,0.0,0.0,0.0,0.01484786905348301,0.0007018344476819038,-0.007784499321132898,0.997444748878479,-0.03519189730286598,-0.023106126114726067,0.05772027745842934
212.0,0.0,0.0,0.0,0.0,0.0,0.0,0.010577136650681496,-0.00867487769573927,0.03876093402504921,0.9973635077476501,-0.03387308493256569,-0.021777354180812836,0.06036747246980667
213.0,0.0,0.0,0.0,0.0,0.0,0.0,-0.0005393519531935453,0.008585929870605469,0.027192991226911545,0.9972559809684753,-0.03513655439019203,-0.019192788749933243,0.06226923689246178
214.0,0.0,0.0,0.0,0.0,0.0,0.0,-0.011952228844165802,0.038203127682209015,0.01461784914135933,0.9972645044326782,-0.0374637171626091,-0.017838384956121445,0.06117342785000801
215.0,0.0,0.0,0.0,0.0,0.0,0.0,0.007461595814675093,0.024654511362314224,0.024905232712626457,0.9970777034759521,-0.039618875831365585,-0.01630256697535515,0.06324555724859238
216.0,0.0,0.0,0.0,0.0,0.0,0.0,0.011130545288324356,0.01719188690185547,0.02014668472111225,0.9968887567520142,-0.040975019335746765,-0.01599130779504776,0.065406434237957
217.0,0.0,0.0,0.0,0.0,0.0,0.0,-0.00805573258548975,0.02025466226041317,0.006305033341050148,0.9968303442001343,-0.0414094440639019,-0.015490081161260605,0.06613457947969437
218.0,0.0,0.0,0.0,0.0,0.0,0.0,0.0005651750252582133,-0.00177195540163666,-0.0016498197801411152,0.99667888879776,-0.04184349253773689,-0.014858750626444817,0.06825137138366699
219.0,0.0,0.0,0.0,0.0,0.0,0.0,0.0008087863679975271,-0.007006510626524687,-0.0029972076881676912,0.9966210722923279,-0.04164060950279236,-0.01470057014375925,0.06925564259290695
220.0,0.0,0.0,0.0,0.0,0.0,0.0,-0.01896178163588047,0.007667681202292442,0.0061547234654426575,0.9967452883720398,-0.04154902324080467,-0.015212473459541798,0.06738036125898361
221.0,0.0,0.0,0.0,0.0,0.0,0.0,-0.022351792082190514,0.016939882189035416,0.008339622057974339,0.9968761801719666,-0.04111518710851669,-0.014683810994029045,0.06580985337495804
222.0,0.0,0.0,0.0,0.0,0.0,0.0,-0.01263912208378315,0.015401788987219334,0.0005167315248399973,0.9970197081565857,-0.039119552820920944,-0.014171179383993149,0.06496859341859818
223.0,0.0,0.0,0.0,0.0,0.0,0.0,0.001657712971791625,-0.008352060802280903,0.0022788236383348703,0.9971463680267334,-0.036308448761701584,-0.01421389915049076,0.06464236229658127
224.0,0.0,0.0,0.0,0.0,0.0,0.0,-0.010704506188631058,-0.03299440070986748,-0.004584024660289288,0.9971149563789368,-0.03555828332901001,-0.014120932668447495,0.06555501371622086
225.0,0.0,0.0,0.0,0.0,0.0,0.0,-0.0020440733060240746,-0.007238744758069515,-0.006934924051165581,0.9968672394752502,-0.03653186559677124,-0.014591002836823463,0.06860975176095963
226.0,0.0,0.0,0.0,0.0,0.0,0.0,0.005701461341232061,-0.017814667895436287,-0.013361930847167969,0.996532142162323,-0.038510799407958984,-0.01584760472178459,0.07203981280326843
227.0,0.0,0.0,0.0,0.0,0.0,0.0,0.002611578907817602,-0.01439153216779232,-0.007138248533010483,0.9961888194084167,-0.04133717715740204,-0.01683434471487999,0.07493778318166733
228.0,0.0,0.0,0.0,0.0,0.0,0.0,-0.0013006910448893905,-0.012267660349607468,-0.014288154430687428,0.9957465529441833,-0.044598810374736786,-0.017421497032046318,0.07871204614639282
229.0,0.0,0.0,0.0,0.0,0.0,0.0,-0.0012341816909611225,-0.010563232935965061,-0.01887454092502594,0.9952733516693115,-0.04903872683644295,-0.01781727559864521,0.08189845085144043
230.0,0.0,0.0,0.0,0.0,0.0,0.0,-0.01062508299946785,0.004479050170630217,-0.0023641674779355526,0.9947208762168884,-0.054615918546915054,-0.018129510805010796,0.08496353030204773
231.0,0.0,0.0,0.0,0.0,0.0,0.0,-0.010510316118597984,0.01295540388673544,0.0004937544581480324,0.9939879179000854,-0.06026015803217888,-0.018751632422208786,0.08947648853063583
232.0,0.0,0.0,0.0,0.0,0.0,0.0,-0.0182464849203825,0.021953793242573738,0.01393666211515665,0.9932392835617065,-0.06458974629640579,-0.019608743488788605,0.09443505108356476
233.0,0.0,0.0,0.0,0.0,0.0,0.0,-0.02733955904841423,0.03724289312958717,0.02278060093522072,0.9925626516342163,-0.06814613193273544,-0.019876955077052116,0.09888952225446701
234.0,0.0,0.0,0.0,0.0,0.0,0.0,-0.02819647453725338,0.0350935235619545,0.021667668595910072,0.9919947981834412,-0.07091456651687622,-0.020471176132559776,0.102457195520401
235.0,0.0,0.0,0.0,0.0,0.0,0.0,-0.023186655715107918,0.03810844570398331,0.019080044701695442,0.9915229082107544,-0.07257670164108276,-0.021197376772761345,0.10566458851099014
236.0,0.0,0.0,0.0,0.0,0.0,0.0,-0.02083723247051239,0.03310345858335495,0.017724839970469475,0.991189181804657,-0.07333289831876755,-0.021569587290287018,0.10816869884729385
237.0,0.0,0.0,0.0,0.0,0.0,0.0,-0.028523335233330727,0.04386022314429283,0.021097933873534203,0.9911066889762878,-0.07234210520982742,-0.021393736824393272,0.10962367057800293
238.0,0.0,0.0,0.0,0.0,0.0,0.0,-0.020516864955425262,0.02947484329342842,0.016593828797340393,0.9912049770355225,-0.0708378404378891,-0.020851539447903633,0.10981452465057373
239.0,0.0,0.0,0.0,0.0,0.0,0.0,0.0064055295661091805,0.01469439547508955,0.015650581568479538,0.9912580847740173,-0.06930745393037796,-0.019572967663407326,0.1105499118566513
240.0,0.0,0.0,0.0,0.0,0.0,0.0,-0.004187814891338348,0.04241272434592247,0.028784697875380516,0.9916561841964722,-0.06594111770391464,-0.01794317178428173,0.1093096137046814
241.0,0.0,0.0,0.0,0.0,0.0,0.0,-0.020091980695724487,0.09058813750743866,0.07604046165943146,0.9923993349075317,-0.060308974236249924,-0.01594209484755993,0.10607676208019257
242.0,0.0,0.0,0.0,0.0,0.0,0.0,-0.01887502335011959,0.06362969428300858,0.09266840666532516,0.9934465885162354,-0.05208707973361015,-0.011730610392987728,0.10105591267347336
243.0,0.0,0.0,0.0,0.0,0.0,0.0,-0.010215263813734055,0.02291942946612835,0.06298358738422394,0.9945324659347534,-0.043539419770240784,-0.006725696846842766,0.09468110650777817
244.0,0.0,0.0,0.0,0.0,0.0,0.0,0.010218620300292969,-0.01134915929287672,-0.0002164899924537167,0.9953201413154602,-0.033996958285570145,-0.003815281903371215,0.09037298709154129
245.0,0.0,0.0,0.0,0.0,0.0,0.0,0.02068406343460083,-0.055997684597969055,-0.04044950753450394,0.9957510232925415,-0.02676061913371086,-0.0025309219490736723,0.08807720988988876
246.0,0.0,0.0,0.0,0.0,0.0,0.0,-0.0021315196063369513,-0.07108262926340103,-0.06391904503107071,0.9962677955627441,-0.02039984054863453,-0.0018612612038850784,0.08384551107883453
247.0,0.0,0.0,0.0,0.0,0.0,0.0,-0.014301572926342487,-0.08927877992391586,-0.08565743267536163,0.9966685771942139,-0.0162091962993145,-0.0008885986753739417,0.07992047816514969
248.0,0.0,0.0,0.0,0.0,0.0,0.0,-0.013888806104660034,-0.05751705914735794,-0.09336680918931961,0.9970349669456482,-0.014650286175310612,-0.0009656291222199798,0.07553653419017792
249.0,0.0,0.0,0.0,0.0,0.0,0.0,0.04798434302210808,-0.04315117001533508,-0.03097957745194435,0.9970514178276062,-0.016359519213438034,0.0003716671490110457,0.0749654471874237
250.0,0.0,0.0,0.0,0.0,0.0,0.0,0.06714127957820892,-0.03763209655880928,-0.0005807877168990672,0.9972983598709106,-0.01926647685468197,0.0012250769650563598,0.07087649405002594
251.0,0.0,0.0,0.0,0.0,0.0,0.0,0.012733131647109985,0.03333883732557297,0.009205847978591919,0.9979405403137207,-0.020459529012441635,2.1507305064005777e-05,0.06079152971506119
252.0,0.0,0.0,0.0,0.0,0.0,0.0,-0.019403846934437752,0.07567095011472702,0.03613147512078285,0.9984170794487,-0.01897454261779785,0.0026968021411448717,0.05287260189652443
253.0,0.0,0.0,0.0,0.0,0.0,0.0,0.024152634665369987,0.014986208640038967,0.043392524123191833,0.9985026717185974,-0.01825907453894615,0.004376468248665333,0.05137733370065689
254.0,0.0,0.0,0.0,0.0,0.0,0.0,0.028350649401545525,-0.009988787584006786,0.011092659085988998,0.9985784292221069,-0.017371000722050667,0.003864190075546503,0.050242625176906586
255.0,0.0,0.0,0.0,0.0,0.0,0.0,-0.006232373882085085,0.014830529689788818,-0.0061141024343669415,0.9986541867256165,-0.016344670206308365,0.0026738420128822327,0.04914233833551407
256.0,0.0,0.0,0.0,0.0,0.0,0.0,0.0037030770909041166,-0.005262726452201605,-0.0048164487816393375,0.9985447525978088,-0.01596641354262829,0.003013626905158162,0.05142071098089218
257.0,0.0,0.0,0.0,0.0,0.0,0.0,0.04538601264357567,-0.0414869599044323,-0.032787024974823,0.9983296990394592,-0.017058776691555977,0.0042802984826266766,0.05502738431096077
258.0,0.0,0.0,0.0,0.0,0.0,0.0,0.05291106551885605,-0.05257009342312813,-0.04712093248963356,0.9982078671455383,-0.020501641556620598,0.0030701400246471167,0.056133933365345
259.0,0.0,0.0,0.0,0.0,0.0,0.0,0.03203069046139717,-0.05902727693319321,-0.05820329859852791,0.9981801509857178,-0.02520614117383957,0.0004968415596522391,0.0547775961458683
260.0,0.0,0.0,0.0,0.0,0.0,0.0,0.02092709206044674,-0.0650021955370903,-0.053935471922159195,0.9979683756828308,-0.03303437680006027,-0.0021117532160133123,0.05443693697452545
261.0,0.0,0.0,0.0,0.0,0.0,0.0,0.008775218389928341,-0.0034950985573232174,-0.030101187527179718,0.9975377321243286,-0.04066306725144386,-0.0038744977209717035,0.05700058862566948
262.0,0.0,0.0,0.0,0.0,0.0,0.0,-0.005636883899569511,0.05847518518567085,0.04303601011633873,0.9969959259033203,-0.04692608118057251,-0.005303507205098867,0.061391353607177734
263.0,0.0,0.0,0.0,0.0,0.0,0.0,-0.012929345481097698,0.1276819109916687,0.08147364854812622,0.9965123534202576,-0.04841845855116844,-0.005512178409844637,0.06773805618286133
264.0,0.0,0.0,0.0,0.0,0.0,0.0,-0.04513302072882652,0.1287805438041687,0.12719029188156128,0.996601939201355,-0.0451766662299633,-0.004165954422205687,0.06874159723520279
265.0,0.0,0.0,0.0,0.0,0.0,0.0,-0.048228874802589417,0.042872581630945206,0.06184275820851326,0.9971124529838562,-0.03912575915455818,-0.00274158944375813,0.06502282619476318
266.0,0.0,0.0,0.0,0.0,0.0,0.0,-0.04513588547706604,0.047878991812467575,0.011437824927270412,0.9976403117179871,-0.030473535880446434,-0.0015615064185112715,0.06150083616375923
267.0,0.0,0.0,0.0,0.0,0.0,0.0,-0.013465968891978264,0.0016172921750694513,0.002789291786029935,0.9979341626167297,-0.021734558045864105,0.00038199586560949683,0.06045304611325264
268.0,0.0,0.0,0.0,0.0,0.0,0.0,0.01612325944006443,-0.036332353949546814,-0.003542445134371519,0.9981574416160583,-0.014751256443560123,0.0015208631521090865,0.0588398352265358
269.0,0.0,0.0,0.0,0.0,0.0,0.0,0.0021815865766257048,-0.05147116631269455,-0.04848203435540199,0.9985212683677673,-0.008540295995771885,-7.293615635717288e-05,0.05368266999721527
270.0,0.0,0.0,0.0,0.0,0.0,0.0,-0.0107197230681777,-0.02987990714609623,-0.058647677302360535,0.998863697052002,-0.004039601422846317,-0.003251178190112114,0.04737380892038345
271.0,0.0,0.0,0.0,0.0,0.0,0.0,0.013054361566901207,-0.03649386391043663,-0.01966997981071472,0.9990458488464355,-0.0011789571726694703,-0.0044494979083538055,0.04343029484152794
272.0,0.0,0.0,0.0,0.0,0.0,0.0,0.03128201887011528,-0.02776893973350525,-0.005266606342047453,0.9992445111274719,0.003269163891673088,-0.004838712979108095,0.038421452045440674
273.0,0.0,0.0,0.0,0.0,0.0,0.0,0.0070739686489105225,-0.02590985782444477,0.02421804517507553,0.9994628429412842,0.00612993398681283,-0.00545117724686861,0.031727682799100876
274.0,0.0,0.0,0.0,0.0,0.0,0.0,-0.017510922625660896,-0.020172804594039917,-0.009527084417641163,0.9995862245559692,0.009039889089763165,-0.0059542288072407246,0.02664901316165924
275.0,0.0,0.0,0.0,0.0,0.0,0.0,-0.0206620991230011,0.0035658355336636305,-0.01711762323975563,0.9995962381362915,0.01251761894673109,-0.005596444942057133,0.024885259568691254
276.0,0.0,0.0,0.0,0.0,0.0,0.0,-0.012582499533891678,0.008205744437873363,0.007039682473987341,0.9995635151863098,0.016381947323679924,-0.005683972965925932,0.023918362334370613
277.0,0.0,0.0,0.0,0.0,0.0,0.0,0.006782723590731621,-0.02691245637834072,-0.0016329659847542644,0.9994581937789917,0.01823182962834835,-0.0056841145269572735,0.02680954523384571
278.0,0.0,0.0,0.0,0.0,0.0,0.0,0.018922025337815285,-0.009990702383220196,-0.014603490009903908,0.9993030428886414,0.020014997571706772,-0.006856542080640793,0.030751027166843414
279.0,0.0,0.0,0.0,0.0,0.0,0.0,0.014906462281942368,0.011976909823715687,0.00420062430202961,0.9992172718048096,0.02153576910495758,-0.00805640034377575,0.03218758851289749
280.0,0.0,0.0,0.0,0.0,0.0,0.0,0.0032789260149002075,0.0065099517814815044,0.009814736433327198,0.9992173910140991,0.023522181436419487,-0.008600535802543163,0.030612600967288017
281.0,0.0,0.0,0.0,0.0,0.0,0.0,0.0006739077507518232,0.0024417145177721977,0.01928858645260334,0.9992790818214417,0.024659762158989906,-0.008604677394032478,0.027551552280783653
282.0,0.0,0.0,0.0,0.0,0.0,0.0,-0.0011228325311094522,0.0021850329358130693,0.018128851428627968,0.9994126558303833,0.0241994708776474,-0.008229988627135754,0.022826628759503365
283.0,0.0,0.0,0.0,0.0,0.0,0.0,0.00030384387355297804,-0.009661522693932056,0.003184983041137457,0.9995385408401489,0.023555567488074303,-0.008128437213599682,0.01736811362206936
284.0,0.0,0.0,0.0,0.0,0.0,0.0,0.015337515622377396,-0.0344417504966259,-0.015243973582983017,0.9996206760406494,0.02135617472231388,-0.00847704615443945,0.015184001065790653
285.0,0.0,0.0,0.0,0.0,0.0,0.0,0.017859697341918945,-0.025348573923110962,-0.01513678953051567,0.9996415972709656,0.018545759841799736,-0.01020182203501463,0.016387026757001877
286.0,0.0,0.0,0.0,0.0,0.0,0.0,0.009328215382993221,-0.006139412522315979,-0.003332912689074874,0.9996371865272522,0.016342148184776306,-0.01141876820474863,0.01811111718416214
287.0,0.0,0.0,0.0,0.0,0.0,0.0,0.007150639779865742,-0.009969347156584263,0.004745147656649351,0.9996438026428223,0.013608286157250404,-0.011864213272929192,0.01965278573334217
288.0,0.0,0.0,0.0,0.0,0.0,0.0,-0.003550141816958785,0.00025757079129107296,-0.00845341756939888,0.9996804594993591,0.010220563039183617,-0.012005721218883991,0.019756341353058815
289.0,0.0,0.0,0.0,0.0,0.0,0.0,-0.0014621126465499401,0.005487649701535702,-0.013045201078057289,0.9997204542160034,0.006291772238910198,-0.011738771572709084,0.01953725703060627
290.0,0.0,0.0,0.0,0.0,0.0,0.0,0.005057892296463251,0.004190462175756693,-0.0014139791019260883,0.9997320771217346,0.0022896912414580584,-0.011143802665174007,0.020153315737843513
291.0,0.0,0.0,0.0,0.0,0.0,0.0,0.001281979726627469,0.016443680971860886,-0.0005483857239596546,0.9997140765190125,0.00036207627272233367,-0.01052765641361475,0.021466175094246864
292.0,0.0,0.0,0.0,0.0,0.0,0.0,-0.012757331132888794,0.027429131790995598,0.003102582646533847,0.999701976776123,0.0004036426544189453,-0.010868373326957226,0.021855877712368965
293.0,0.0,0.0,0.0,0.0,0.0,0.0,-0.006171317771077156,0.00437151687219739,0.010251525789499283,0.9996545314788818,-0.0006349381874315441,-0.010466705076396465,0.024101100862026215
294.0,0.0,0.0,0.0,0.0,0.0,0.0,0.01589740626513958,-0.0034171203151345253,0.002646015491336584,0.9995432496070862,-0.0016957703046500683,-0.009770147502422333,0.028544867411255836
295.0,0.0,0.0,0.0,0.0,0.0,0.0,-0.003052546177059412,0.01708110235631466,0.0088301757350564,0.9994776844978333,-0.0014277268201112747,-0.009465552866458893,0.03086363710463047
296.0,0.0,0.0,0.0,0.0,0.0,0.0,-0.010571866296231747,0.018063843250274658,0.007008465472608805,0.9994657635688782,0.0005488283350132406,-0.008777276612818241,0.031474776566028595
297.0,0.0,0.0,0.0,0.0,0.0,0.0,-0.012470066547393799,0.005838977172970772,0.006521926261484623,0.9994912147521973,0.003981923218816519,-0.00807400792837143,0.030595675110816956
298.0,0.0,0.0,0.0,0.0,0.0,0.0,-0.0011284897336736321,-0.02554853819310665,-0.002254619263112545,0.9995105862617493,0.006129533983767033,-0.007537283468991518,0.029734114184975624
299.0,0.0,0.0,0.0,0.0,0.0,0.0,0.011847341433167458,-0.036672454327344894,-0.024551277980208397,0.9994993209838867,0.008524063043296337,-0.007843640632927418,0.029442625120282173
300.0,0.0,0.0,0.0,0.0,0.0,0.0,0.001837593037635088,-0.0283685103058815,-0.004341888707131147,0.9994598031044006,0.01052867155522108,-0.008885723538696766,0.029836775735020638
301.0,0.0,0.0,0.0,0.0,0.0,0.0,-0.007672403939068317,-0.018439937382936478,0.008969804272055626,0.9994116425514221,0.011926543898880482,-0.009336763992905617,0.03076980635523796
302.0,0.0,0.0,0.0,0.0,0.0,0.0,-0.03234351426362991,-0.002745328936725855,0.004060992039740086,0.9994523525238037,0.013889437541365623,-0.009931006468832493,0.028344007208943367
303.0,0.0,0.0,0.0,0.0,0.0,0.0,-0.021240031346678734,-0.014851382933557034,0.018905188888311386,0.9994794726371765,0.014335338957607746,-0.009042113088071346,0.0274499524384737
304.0,0.0,0.0,0.0,0.0,0.0,0.0,-0.005314637441188097,-0.021052470430731773,-0.0012870070058852434,0.999503493309021,0.014018920250236988,-0.008017719723284245,0.027050679549574852
305.0,0.0,0.0,0.0,0.0,0.0,0.0,-0.002730174921452999,-0.0010097017511725426,-0.009064295329153538,0.9995723366737366,0.0137692391872406,-0.008052161894738674,0.024505790323019028
306.0,0.0,0.0,0.0,0.0,0.0,0.0,0.001035306486301124,-0.005364417098462582,-0.0016485172091051936,0.9996224641799927,0.01254677027463913,-0.007371240761131048,0.023307861760258675
307.0,0.0,0.0,0.0,0.0,0.0,0.0,0.015259544365108013,-0.004599045030772686,0.0015021213330328465,0.9996199607849121,0.011313248425722122,-0.006543679162859917,0.024275273084640503
308.0,0.0,0.0,0.0,0.0,0.0,0.0,0.0191806610673666,0.018075833097100258,0.005537600722163916,0.999603271484375,0.011116535402834415,-0.00645875558257103,0.02505926787853241
309.0,0.0,0.0,0.0,0.0,0.0,0.0,0.026844972744584084,0.007164528593420982,-0.007379940710961819,0.9995859861373901,0.01200492586940527,-0.006334947422146797,0.0253668874502182
310.0,0.0,0.0,0.0,0.0,0.0,0.0,0.035481832921504974,-0.01082164142280817,-0.023368002846837044,0.9995702505111694,0.013456295244395733,-0.006544600706547499,0.02520112134516239
311.0,0.0,0.0,0.0,0.0,0.0,0.0,0.02858765423297882,-0.013797628693282604,-0.029682550579309464,0.9995504021644592,0.015202951617538929,-0.006324736401438713,0.025056414306163788
312.0,0.0,0.0,0.0,0.0,0.0,0.0,0.022135227918624878,-0.012612144462764263,-0.018183521926403046,0.9995501041412354,0.015866296365857124,-0.0059360843151807785,0.02474735863506794
313.0,0.0,0.0,0.0,0.0,0.0,0.0,0.029193490743637085,-0.0116839949041605,-0.01667027920484543,0.9995449781417847,0.016421737149357796,-0.005789415445178747,0.02462487854063511
314.0,0.0,0.0,0.0,0.0,0.0,0.0,0.02991437539458275,-0.011255985125899315,-0.023664025589823723,0.9995023608207703,0.017330611124634743,-0.006205422338098288,0.025615867227315903
315.0,0.0,0.0,0.0,0.0,0.0,0.0,0.03611907362937927,-0.01704290509223938,-0.02946050465106964,0.9994074702262878,0.018506251275539398,-0.007473486475646496,0.028041671961545944
316.0,0.0,0.0,0.0,0.0,0.0,0.0,0.033999230712652206,-0.0282861590385437,-0.020989462733268738,0.9992132186889648,0.02088025026023388,-0.009171840734779835,0.03244649991393089
317.0,0.0,0.0,0.0,0.0,0.0,0.0,0.026382068172097206,-0.035683125257492065,-0.04693521186709404,0.998858630657196,0.022823598235845566,-0.01045586820691824,0.040635280311107635
318.0,0.0,0.0,0.0,0.0,0.0,0.0,0.03815380111336708,-0.004162519238889217,-0.04667998477816582,0.9982051253318787,0.025356747210025787,-0.011794713325798512,0.05295460298657417
319.0,0.0,0.0,0.0,0.0,0.0,0.0,0.019961144775152206,0.016353894025087357,-0.013885408639907837,0.9975021481513977,0.028145311400294304,-0.014726954512298107,0.0630902573466301
320.0,0.0,0.0,0.0,0.0,0.0,0.0,-0.03720775619149208,0.04837249591946602,0.03508099913597107,0.9972700476646423,0.02489575371146202,-0.01735573820769787,0.06731423735618591
321.0,0.0,0.0,0.0,0.0,0.0,0.0,-0.0416996069252491,0.04765194281935692,0.05032285302877426,0.997236967086792,0.023520013317465782,-0.016651755198836327,0.06846816092729568
322.0,0.0,0.0,0.0,0.0,0.0,0.0,0.026061024516820908,0.016143832355737686,0.024636641144752502,0.9969733357429504,0.0233067125082016,-0.01701820269227028,0.07218776643276215
323.0,0.0,0.0,0.0,0.0,0.0,0.0,0.02777123637497425,0.0011757066240534186,-0.003853048663586378,0.9967578649520874,0.022420339286327362,-0.01814800128340721,0.0751110166311264
324.0,0.0,0.0,0.0,0.0,0.0,0.0,0.032652683556079865,-0.0009816072415560484,0.017396865412592888,0.9964767098426819,0.023573841899633408,-0.019171472638845444,0.0781700611114502
325.0,0.0,0.0,0.0,0.0,0.0,0.0,0.0033821051474660635,0.008612941950559616,0.02334107831120491,0.9962396621704102,0.026975473389029503,-0.019866706803441048,0.07990292459726334
326.0,0.0,0.0,0.0,0.0,0.0,0.0,-0.06085066869854927,-0.014729805290699005,0.001494813826866448,0.9964127540588379,0.02921094186604023,-0.020300397649407387,0.07678323239088058
327.0,0.0,0.0,0.0,0.0,0.0,0.0,3.3171134418807924e-05,0.02283615805208683,-0.0006716682109981775,0.9965880513191223,0.030165456235408783,-0.022218365222215652,0.07354144006967545
328.0,0.0,0.0,0.0,0.0,0.0,0.0,-0.006445619743317366,0.03239525109529495,0.029178334400057793,0.9970199465751648,0.03281821683049202,-0.023923970758914948,0.06558492034673691
329.0,0.0,0.0,0.0,0.0,0.0,0.0,-0.003910774830728769,-0.03742482140660286,0.02994341030716896,0.9974858164787292,0.033873945474624634,-0.024617547169327736,0.05716841295361519
330.0,0.0,0.0,0.0,0.0,0.0,0.0,0.014049476012587547,0.0007054789457470179,-0.021337170153856277,0.9977149963378906,0.0355963334441185,-0.026834411546587944,0.050768714398145676
331.0,0.0,0.0,0.0,0.0,0.0,0.0,0.006884183268994093,-0.005822108592838049,0.011870399117469788,0.9979199171066284,0.03330862894654274,-0.0264480821788311,0.048442743718624115
332.0,0.0,0.0,0.0,0.0,0.0,0.0,-0.013112606480717659,-0.01723320595920086,0.0017405645921826363,0.9981530904769897,0.02875291183590889,-0.02246747724711895,0.0485658198595047
333.0,0.0,0.0,0.0,0.0,0.0,0.0,0.04507322609424591,-0.015371959656476974,-0.019854677841067314,0.9982838034629822,0.023980677127838135,-0.022475922480225563,0.048467688262462616
334.0,0.0,0.0,0.0,0.0,0.0,0.0,0.03460048884153366,0.013952840119600296,0.0006215081084519625,0.9983704090118408,0.020107565447688103,-0.022825120016932487,0.048283275216817856
335.0,0.0,0.0,0.0,0.0,0.0,0.0,0.03090079501271248,0.015024169348180294,0.005733621772378683,0.9984832406044006,0.016952525824308395,-0.0222723800688982,0.04740774631500244
336.0,0.0,0.0,0.0,0.0,0.0,0.0,0.015633413568139076,0.004968224558979273,-0.015208058059215546,0.9986518025398254,0.013433064334094524,-0.021335618570446968,0.0453747995197773
337.0,0.0,0.0,0.0,0.0,0.0,0.0,-0.018594853579998016,0.015470443293452263,-0.015655245631933212,0.998879611492157,0.008482743054628372,-0.020109213888645172,0.04199010506272316
338.0,0.0,0.0,0.0,0.0,0.0,0.0,0.005581756588071585,-0.07129347324371338,-0.03720017522573471,0.9989309310913086,-0.001797960139811039,-0.018166998401284218,0.04246976971626282
339.0,0.0,0.0,0.0,0.0,0.0,0.0,0.04323655366897583,-0.010623232461512089,-0.036246661096811295,0.9986633658409119,-0.01326757948845625,-0.01884586364030838,0.04626234248280525
340.0,0.0,0.0,0.0,0.0,0.0,0.0,0.006820561829954386,0.032509151846170425,0.014799202792346478,0.9984390139579773,-0.023311713710427284,-0.01959388144314289,0.046817343682050705
341.0,0.0,0.0,0.0,0.0,0.0,0.0,-0.03483976423740387,0.05410689860582352,0.016285376623272896,0.9984596967697144,-0.030250513926148415,-0.020824452862143517,0.041584793478250504
342.0,0.0,0.0,0.0,0.0,0.0,0.0,-0.054631251841783524,0.0593719556927681,-0.018317408859729767,0.998620867729187,-0.03433283418416977,-0.022403428331017494,0.03279856592416763
343.0,0.0,0.0,0.0,0.0,0.0,0.0,-0.015766369178891182,0.0606292299926281,0.006135005038231611,0.9988701939582825,-0.03268657252192497,-0.023295192047953606,0.025442374870181084
344.0,0.0,0.0,0.0,0.0,0.0,0.0,-0.006399316713213921,0.05791671201586723,0.04620618745684624,0.999272882938385,-0.025130894035100937,-0.025491783395409584,0.013127760961651802
345.0,0.0,0.0,0.0,0.0,0.0,0.0,-0.013507086783647537,0.01660374365746975,0.05077182501554489,0.9994456768035889,-0.018812967464327812,-0.02740854024887085,0.001753559336066246
346.0,0.0,0.0,0.0,0.0,0.0,0.0,-0.017629384994506836,-0.026101168245077133,-0.009721220470964909,0.9994418025016785,-0.01614910177886486,-0.02880600467324257,-0.00503801042214036
347.0,0.0,0.0,0.0,0.0,0.0,0.0,0.003063265699893236,-0.00822579674422741,-0.023422712460160255,0.9994506239891052,-0.014144559390842915,-0.029114555567502975,-0.0071185678243637085
348.0,0.0,0.0,0.0,0.0,0.0,0.0,0.02128320187330246,-0.019739707931876183,-0.013652953319251537,0.9994466304779053,-0.012851530686020851,-0.02961263805627823,-0.008015371859073639
349.0,0.0,0.0,0.0,0.0,0.0,0.0,0.03102610446512699,-0.015145847573876381,0.0048597571440041065,0.9994131922721863,-0.012572335079312325,-0.030578747391700745,-0.008947436697781086
350.0,0.0,0.0,0.0,0.0,0.0,0.0,-0.0024718050844967365,-0.004272954072803259,0.0038697218988090754,0.9994012117385864,-0.012545851990580559,-0.030999520793557167,-0.008870256133377552
351.0,0.0,0.0,0.0,0.0,0.0,0.0,-0.0195785965770483,-0.008316554129123688,-0.015823321416974068,0.9994438290596008,-0.01217709295451641,-0.030052106827497482,-0.007787537761032581
352.0,0.0,0.0,0.0,0.0,0.0,0.0,-0.017748093232512474,-0.001829694607295096,0.002627764130011201,0.9994935989379883,-0.013415301218628883,-0.028580298647284508,-0.003970131278038025
353.0,0.0,0.0,0.0,0.0,0.0,0.0,-0.019442830234766006,0.004741400480270386,-0.005555897019803524,0.9994810223579407,-0.015236161649227142,-0.028349919244647026,0.001359647372737527
354.0,0.0,0.0,0.0,0.0,0.0,0.0,-0.013807063922286034,0.00758752878755331,0.00421274546533823,0.9994139075279236,-0.01772092841565609,-0.027936071157455444,0.008799075148999691
355.0,0.0,0.0,0.0,0.0,0.0,0.0,-0.01069069467484951,0.025371182709932327,-0.008435063064098358,0.9992127418518066,-0.020003359764814377,-0.029218995943665504,0.01788945309817791
356.0,0.0,0.0,0.0,0.0,0.0,0.0,-0.02120930887758732,0.0023784497752785683,0.0019179541850462556,0.9989897608757019,-0.021381361410021782,-0.029940612614154816,0.025801939889788628
357.0,0.0,0.0,0.0,0.0,0.0,0.0,-0.012046588584780693,0.0039006879087537527,-0.005851724185049534,0.9987013339996338,-0.02338826283812523,-0.031040644273161888,0.032942064106464386
358.0,0.0,0.0,0.0,0.0,0.0,0.0,-0.018681669607758522,-0.010315240360796452,0.010229247622191906,0.9983115792274475,-0.02845597080886364,-0.031161177903413773,0.03991439938545227
359.0,0.0,0.0,0.0,0.0,0.0,0.0,0.013697516173124313,-0.029239051043987274,-0.013665912672877312,0.9976977705955505,-0.0363733172416687,-0.03125111758708954,0.0479547381401062
360.0,0.0,0.0,0.0,0.0,0.0,0.0,0.001185948378406465,-0.0220043882727623,-0.002890045288950205,0.9970249533653259,-0.045660022646188736,-0.031516652554273605,0.05351129546761513
361.0,0.0,0.0,0.0,0.0,0.0,0.0,-0.017560480162501335,0.05822543799877167,0.018183158710598946,0.9964806437492371,-0.05346042290329933,-0.03243311494588852,0.05582903325557709
362.0,0.0,0.0,0.0,0.0,0.0,0.0,-0.04413057491183281,0.05336941406130791,0.020951110869646072,0.9966027140617371,-0.05561170354485512,-0.033030420541763306,0.05097927525639534
363.0,0.0,0.0,0.0,0.0,0.0,0.0,-0.052422549575567245,0.06401306390762329,0.014341871254146099,0.9969863295555115,-0.05435240641236305,-0.03345401957631111,0.044103216379880905
364.0,0.0,0.0,0.0,0.0,0.0,0.0,-0.005028568673878908,0.0389862060546875,0.02319846674799919,0.9971840977668762,-0.05350208654999733,-0.033014241605997086,0.04088703170418739
365.0,0.0,0.0,0.0,0.0,0.0,0.0,-0.0011190096847712994,0.004319061990827322,0.0013148481957614422,0.9974566698074341,-0.05225531384348869,-0.03181011974811554,0.036572836339473724
366.0,0.0,0.0,0.0,0.0,0.0,0.0,-0.01286331471055746,0.009915917180478573,-0.016437819227576256,0.997753918170929,-0.05081676319241524,-0.0314432829618454,0.030268939211964607
367.0,0.0,0.0,0.0,0.0,0.0,0.0,0.001667786156758666,-0.0027202097699046135,-0.024829186499118805,0.9978645443916321,-0.05020173639059067,-0.031109869480133057,0.02789383754134178
368.0,0.0,0.0,0.0,0.0,0.0,0.0,-0.00022324254678096622,-0.012517107650637627,-0.024489233270287514,0.9979828000068665,-0.049387603998184204,-0.030834825709462166,0.02530669793486595
369.0,0.0,0.0,0.0,0.0,0.0,0.0,-0.005164850503206253,-0.013212909922003746,-0.02048155665397644,0.9981491565704346,-0.048437707126140594,-0.030816879123449326,0.020055202767252922
370.0,0.0,0.0,0.0,0.0,0.0,0.0,0.0010624468559399247,-0.014524620957672596,-0.013023884035646915,0.9982761144638062,-0.047334033995866776,-0.03070284053683281,0.016157953068614006
371.0,0.0,0.0,0.0,0.0,0.0,0.0,0.01116612646728754,0.006661232560873032,0.03404323384165764,0.9983106255531311,-0.04709047079086304,-0.03109639137983322,0.013831994496285915
372.0,0.0,0.0,0.0,0.0,0.0,0.0,-0.01828867755830288,0.012525834143161774,0.015742525458335876,0.9983957409858704,-0.04567475616931915,-0.03170880675315857,0.010684440843760967
373.0,0.0,0.0,0.0,0.0,0.0,0.0,-0.03895042836666107,0.011699219234287739,-0.01119403075426817,0.9985492825508118,-0.04279807209968567,-0.031738005578517914,0.007744756061583757
374.0,0.0,0.0,0.0,0.0,0.0,0.0,-0.01703523099422455,0.014431019313633442,0.003035142784938216,0.9986966252326965,-0.03910406678915024,-0.031497009098529816,0.009156681597232819
375.0,0.0,0.0,0.0,0.0,0.0,0.0,-0.002410798566415906,0.016567310318350792,0.005156683269888163,0.9988715648651123,-0.03379008546471596,-0.031251173466444016,0.011714541353285313
376.0,0.0,0.0,0.0,0.0,0.0,0.0,0.00223456509411335,0.01657174900174141,-0.001544542727060616,0.9990251064300537,-0.027713580057024956,-0.03136701136827469,0.014022811315953732
377.0,0.0,0.0,0.0,0.0,0.0,0.0,-0.013320758007466793,0.013311256654560566,-0.012069559656083584,0.9991754293441772,-0.02037501335144043,-0.030939200893044472,0.016615714877843857
378.0,0.0,0.0,0.0,0.0,0.0,0.0,-0.012888830155134201,-0.01216561533510685,0.003934035077691078,0.9992730617523193,-0.013517589308321476,-0.02984040230512619,0.019496597349643707
379.0,0.0,0.0,0.0,0.0,0.0,0.0,-0.019095851108431816,-0.018190328031778336,0.017077935859560966,0.9993425607681274,-0.00912485085427761,-0.028677761554718018,0.020213620737195015
380.0,0.0,0.0,0.0,0.0,0.0,0.0,-0.012739479541778564,-0.009691198356449604,0.00834812130779028,0.9993595480918884,-0.006795184686779976,-0.02773195691406727,0.02157336287200451
381.0,0.0,0.0,0.0,0.0,0.0,0.0,-0.005173092242330313,-0.007904299534857273,0.014256717637181282,0.9993531703948975,-0.005264652892947197,-0.028367819264531136,0.021462345495820045
382.0,0.0,0.0,0.0,0.0,0.0,0.0,-0.0267061535269022,0.012496426701545715,0.038052499294281006,0.9994005560874939,-0.005148356780409813,-0.02960857003927231,0.017180703580379486
383.0,0.0,0.0,0.0,0.0,0.0,0.0,0.00010973247117362916,-0.008764040656387806,0.04054848849773407,0.999403715133667,-0.006519274320453405,-0.030262332409620285,0.015289216302335262
384.0,0.0,0.0,0.0,0.0,0.0,0.0,-0.009296718053519726,-0.015838120132684708,0.007327577564865351,0.9994516372680664,-0.007162031251937151,-0.030125616118311882,0.011729937978088856
385.0,0.0,0.0,0.0,0.0,0.0,0.0,-0.029316985979676247,-0.00789132434874773,-0.022195186465978622,0.999495804309845,-0.008645696565508842,-0.02976907230913639,0.006869802251458168
386.0,0.0,0.0,0.0,0.0,0.0,0.0,-0.008623059839010239,-0.013709950260818005,-0.005146847106516361,0.9995234608650208,-0.010694772005081177,-0.028546081855893135,0.004849581513553858
387.0,0.0,0.0,0.0,0.0,0.0,0.0,0.02632560022175312,-0.04769634082913399,-0.03543892502784729,0.9995090961456299,-0.013680597767233849,-0.027792012318968773,0.004659903701394796
388.0,0.0,0.0,0.0,0.0,0.0,0.0,0.019623607397079468,-0.05340941622853279,-0.08567886054515839,0.9994522929191589,-0.018018603324890137,-0.026982342824339867,0.00649999687448144
389.0,0.0,0.0,0.0,0.0,0.0,0.0,0.05375714972615242,-0.041141327470541,-0.05013334006071091,0.9992645382881165,-0.023974809795618057,-0.02608652040362358,0.014654816128313541
390.0,0.0,0.0,0.0,0.0,0.0,0.0,0.037752460688352585,0.015671124681830406,0.019389590248465538,0.998944103717804,-0.02878516912460327,-0.027319835498929024,0.023152314126491547
391.0,0.0,0.0,0.0,0.0,0.0,0.0,0.005057608708739281,0.04424101859331131,0.028853995725512505,0.998681366443634,-0.030765770003199577,-0.02688317373394966,0.031083649024367332
392.0,0.0,0.0,0.0,0.0,0.0,0.0,-0.019355090335011482,0.028914906084537506,-0.005991075187921524,0.9984087944030762,-0.03207896277308464,-0.024792756885290146,0.039184700697660446
393.0,0.0,0.0,0.0,0.0,0.0,0.0,-0.01099358405917883,0.018748262897133827,-0.025377610698342323,0.9979469776153564,-0.0344722755253315,-0.021277232095599174,0.04960016906261444
394.0,0.0,0.0,0.0,0.0,0.0,0.0,0.030307991430163383,-0.03166026622056961,-0.03029722347855568,0.9969653487205505,-0.03955013304948807,-0.017068281769752502,0.06484095007181168
395.0,0.0,0.0,0.0,0.0,0.0,0.0,0.052902158349752426,-0.03693963959813118,-0.003629240905866027,0.9952595233917236,-0.049054283648729324,-0.014385939575731754,0.08273851871490479
396.0,0.0,0.0,0.0,0.0,0.0,0.0,0.03091069497168064,0.021637223660945892,0.01877676509320736,0.9934248328208923,-0.05818962678313255,-0.012574181891977787,0.09778887778520584
397.0,0.0,0.0,0.0,0.0,0.0,0.0,-0.014109725132584572,0.04434628039598465,0.040387291461229324,0.9918946027755737,-0.06586574763059616,-0.010998787358403206,0.10810237377882004
398.0,0.0,0.0,0.0,0.0,0.0,0.0,-0.00900021567940712,0.033780649304389954,0.04274362325668335,0.9905532598495483,-0.07359395921230316,-0.009016557596623898,0.11535664647817612
399.0,0.0,0.0,0.0,0.0,0.0,0.0,0.005010086111724377,0.00019019957107957453,-0.012140974402427673,0.989348828792572,-0.07969722896814346,-0.007282617036253214,0.1215757355093956
400.0,0.0,0.0,0.0,0.0,0.0,0.0,-0.0034035153221338987,-0.004154975526034832,-0.051468003541231155,0.9884884357452393,-0.08502893894910812,-0.006699244491755962,0.12495963275432587
401.0,0.0,0.0,0.0,0.0,0.0,0.0,0.018670693039894104,-0.0030499331187456846,-0.025052372366189957,0.987409234046936,-0.0916932076215744,-0.0068063014186918736,0.12871913611888885
402.0,0.0,0.0,0.0,0.0,0.0,0.0,0.027503367513418198,0.07009054720401764,0.026127897202968597,0.9862953424453735,-0.0953727513551712,-0.008370103314518929,0.134373277425766
403.0,0.0,0.0,0.0,0.0,0.0,0.0,-0.02657368592917919,0.12000647932291031,0.09759926795959473,0.9859845042228699,-0.09404979646205902,-0.00880937185138464,0.1375180035829544
404.0,0.0,0.0,0.0,0.0,0.0,0.0,-0.028122279793024063,0.08866609632968903,0.07578080892562866,0.9865330457687378,-0.08807269483804703,-0.006666518747806549,0.13765297830104828
405.0,0.0,0.0,0.0,0.0,0.0,0.0,-0.02299891784787178,0.06261755526065826,0.03761294484138489,0.987945556640625,-0.07837313413619995,-0.0037052002735435963,0.13344822824001312
406.0,0.0,0.0,0.0,0.0,0.0,0.0,-0.004645621404051781,0.034432973712682724,0.03343525528907776,0.9896315932273865,-0.0657813772559166,-0.0012210302520543337,0.12766395509243011
407.0,0.0,0.0,0.0,0.0,0.0,0.0,0.014214999042451382,-0.0008345405803993344,0.0273219533264637,0.9911420345306396,-0.05346463993191719,0.0003889317449647933,0.12156520038843155
408.0,0.0,0.0,0.0,0.0,0.0,0.0,0.008873974904417992,-0.015084736049175262,0.04615269601345062,0.9923929572105408,-0.04139098525047302,0.002283287700265646,0.11592457443475723
409.0,0.0,0.0,0.0,0.0,0.0,0.0,0.028909260407090187,-0.055200543254613876,-0.022450175136327744,0.9931934475898743,-0.03164569288492203,0.003256138414144516,0.1120443269610405
410.0,0.0,0.0,0.0,0.0,0.0,0.0,0.04446304962038994,-0.07647659629583359,-0.06134820356965065,0.9937330484390259,-0.026427563279867172,0.002384259831160307,0.10858287662267685
411.0,0.0,0.0,0.0,0.0,0.0,0.0,0.04050653800368309,-0.05590226501226425,-0.04552862420678139,0.9943583011627197,-0.02375548705458641,0.0002980065473821014,0.10338107496500015
412.0,0.0,0.0,0.0,0.0,0.0,0.0,0.032157618552446365,-0.026381880044937134,-0.03197422996163368,0.9949812293052673,-0.0216745026409626,-0.0007215852965600789,0.09768164902925491
413.0,0.0,0.0,0.0,0.0,0.0,0.0,0.03475731983780861,-0.02809726446866989,-0.0032939647790044546,0.9954268336296082,-0.020496178418397903,-0.0002146558545064181,0.09329497814178467
414.0,0.0,0.0,0.0,0.0,0.0,0.0,0.02331191673874855,-0.014623728580772877,-0.019729143008589745,0.9960271716117859,-0.017970269545912743,-0.0006622782675549388,0.08721640706062317
415.0,0.0,0.0,0.0,0.0,0.0,0.0,0.01492786779999733,-0.010160486213862896,-0.01810493692755699,0.9964406490325928,-0.016621336340904236,-0.002490193350240588,0.08259542286396027
416.0,0.0,0.0,0.0,0.0,0.0,0.0,0.02015250362455845,-0.002516703214496374,0.022569600492715836,0.996525764465332,-0.017271317541599274,-0.004423032980412245,0.08135226368904114
417.0,0.0,0.0,0.0,0.0,0.0,0.0,0.004621909931302071,0.0047621577978134155,0.03280060738325119,0.9965248703956604,-0.01721056178212166,-0.006347334012389183,0.08124767988920212
418.0,0.0,0.0,0.0,0.0,0.0,0.0,-0.01599128730595112,0.01423495914787054,-0.009242692030966282,0.9964861273765564,-0.016973426565527916,-0.007732073776423931,0.08165774494409561
419.0,0.0,0.0,0.0,0.0,0.0,0.0,-0.0010312680387869477,0.008501880802214146,-0.00789966993033886,0.9963120222091675,-0.017426779493689537,-0.008255844004452229,0.08361001312732697
420.0,0.0,0.0,0.0,0.0,0.0,0.0,0.01508196722716093,0.011732565239071846,0.023110803216695786,0.9962613582611084,-0.016613205894827843,-0.008524678647518158,0.08434604108333588
421.0,0.0,0.0,0.0,0.0,0.0,0.0,0.0004511904844548553,0.009065628051757812,0.013658327981829643,0.9965879321098328,-0.014970785938203335,-0.009680508635938168,0.08058818429708481
422.0,0.0,0.0,0.0,0.0,0.0,0.0,-0.02285260334610939,-0.0007326248451136053,-0.010541846044361591,0.9969782829284668,-0.013207932002842426,-0.009605884552001953,0.07594484835863113
423.0,0.0,0.0,0.0,0.0,0.0,0.0,-0.004704393446445465,-0.01498064398765564,-0.00842029508203268,0.9971123933792114,-0.012669861316680908,-0.007686950732022524,0.07447638362646103
424.0,0.0,0.0,0.0,0.0,0.0,0.0,0.0146031454205513,-0.012419001199305058,-0.005705665796995163,0.9971480369567871,-0.012736744247376919,-0.006518971640616655,0.07410299777984619
425.0,0.0,0.0,0.0,0.0,0.0,0.0,-0.0021941110026091337,-0.01734655536711216,-0.020589912310242653,0.9972335696220398,-0.01118322741240263,-0.007342733442783356,0.07311474531888962
426.0,0.0,0.0,0.0,0.0,0.0,0.0,0.0032083026599138975,-0.019710617139935493,-0.014781173318624496,0.9971802234649658,-0.01152978464961052,-0.008782312273979187,0.07362519949674606
427.0,0.0,0.0,0.0,0.0,0.0,0.0,0.010043157264590263,-0.03546959534287453,-0.010655997321009636,0.9970625638961792,-0.014365862123668194,-0.008835557848215103,0.07470867782831192
428.0,0.0,0.0,0.0,0.0,0.0,0.0,0.007623677141964436,-0.007649381645023823,-0.035300787538290024,0.9969849586486816,-0.01594267226755619,-0.009639609605073929,0.07532375305891037
429.0,0.0,0.0,0.0,0.0,0.0,0.0,-0.01569402776658535,0.05213087797164917,0.021190781146287918,0.9970749616622925,-0.01641777902841568,-0.011078969575464725,0.07381640374660492
430.0,0.0,0.0,0.0,0.0,0.0,0.0,-0.017445260658860207,0.03721844404935837,0.06324738264083862,0.9973087906837463,-0.01562514901161194,-0.010722512379288673,0.07082337886095047
431.0,0.0,0.0,0.0,0.0,0.0,0.0,-0.029456142336130142,0.015760762616991997,0.009669056162238121,0.9977539777755737,-0.012884877622127533,-0.00992385484278202,0.06498025357723236
432.0,0.0,0.0,0.0,0.0,0.0,0.0,-0.029150465503335,0.011440012603998184,-0.005485383328050375,0.9979302287101746,-0.011981828138232231,-0.009317182935774326,0.06248525157570839
433.0,0.0,0.0,0.0,0.0,0.0,0.0,-0.004055622965097427,0.00017088584718294442,0.013251586817204952,0.9978464841842651,-0.013011681847274303,-0.008008993230760098,0.06379219889640808
434.0,0.0,0.0,0.0,0.0,0.0,0.0,0.005856063216924667,-0.006607051007449627,0.002951510949060321,0.9978806972503662,-0.012901941314339638,-0.006793522741645575,0.06341467797756195
435.0,0.0,0.0,0.0,0.0,0.0,0.0,0.006190269719809294,-0.010578835383057594,-0.020079564303159714,0.9977633357048035,-0.014064169488847256,-0.006049408111721277,0.06506771594285965
436.0,0.0,0.0,0.0,0.0,0.0,0.0,0.021659517660737038,-0.011850680224597454,-0.02342136949300766,0.9975810647010803,-0.016493691131472588,-0.006696096155792475,0.06719227880239487
437.0,0.0,0.0,0.0,0.0,0.0,0.0,0.01856670156121254,-0.007842532359063625,0.00391829339787364,0.9974476099014282,-0.019086597487330437,-0.0074040209874510765,0.06840652972459793
438.0,0.0,0.0,0.0,0.0,0.0,0.0,0.0025393785908818245,-0.029240896925330162,-0.0041602011770009995,0.9974579215049744,-0.02357013151049614,-0.007677210494875908,0.06680233776569366
439.0,0.0,0.0,0.0,0.0,0.0,0.0,0.007986776530742645,-0.05632619559764862,-0.06528973579406738,0.9972963333129883,-0.03325027599930763,-0.009590639732778072,0.0648219883441925
440.0,0.0,0.0,0.0,0.0,0.0,0.0,0.013047855347394943,0.00018031247600447387,-0.06814418733119965,0.9966651797294617,-0.04518835246562958,-0.012116976082324982,0.06685395538806915
441.0,0.0,0.0,0.0,0.0,0.0,0.0,0.028316782787442207,0.03058992512524128,0.010544486343860626,0.9956687092781067,-0.056104179471731186,-0.014712398871779442,0.07266689836978912
442.0,0.0,0.0,0.0,0.0,0.0,0.0,0.0077026174403727055,0.06064605340361595,0.03699242323637009,0.9946619272232056,-0.0646880567073822,-0.01690407283604145,0.07860453426837921
443.0,0.0,0.0,0.0,0.0,0.0,0.0,-0.05179072543978691,0.11250218003988266,0.05287114530801773,0.9943448305130005,-0.06844635307788849,-0.019386734813451767,0.0788489282131195
444.0,0.0,0.0,0.0,0.0,0.0,0.0,-0.05332590267062187,0.08091344684362411,0.04477136209607124,0.9942610859870911,-0.06938181072473526,-0.019684184342622757,0.07900863140821457
445.0,0.0,0.0,0.0,0.0,0.0,0.0,-0.012168439105153084,0.04682815447449684,0.03516631945967674,0.9941650629043579,-0.06824394315481186,-0.017235571518540382,0.08173644542694092
446.0,0.0,0.0,0.0,0.0,0.0,0.0,0.00919895339757204,0.02404659613966942,0.03237763047218323,0.9939839243888855,-0.06681578606367111,-0.014519620686769485,0.08555588871240616
447.0,0.0,0.0,0.0,0.0,0.0,0.0,0.012334901839494705,0.024426449090242386,0.0162042286247015,0.9937648773193359,-0.06380776315927505,-0.012867521494626999,0.09052051603794098
448.0,0.0,0.0,0.0,0.0,0.0,0.0,-0.0009368004975840449,0.0454985536634922,0.025335300713777542,0.9937261939048767,-0.05823208764195442,-0.012090768665075302,0.09470916539430618
449.0,0.0,0.0,0.0,0.0,0.0,0.0,-0.017182232812047005,0.02362881228327751,0.029381277039647102,0.9943394660949707,-0.05080879479646683,-0.012595077976584435,0.09245365113019943
450.0,0.0,0.0,0.0,0.0,0.0,0.0,-0.012861079536378384,-0.002936901059001684,0.03408510610461235,0.9950766563415527,-0.045173775404691696,-0.013754665851593018,0.08713282644748688
451.0,0.0,0.0,0.0,0.0,0.0,0.0,0.013445766642689705,-0.018025215715169907,0.018415385857224464,0.9955007433891296,-0.04192475229501724,-0.014278498478233814,0.0837608054280281
452.0,0.0,0.0,0.0,0.0,0.0,0.0,0.00047591724433004856,-0.01946505531668663,-0.0041722883470356464,0.9961259961128235,-0.03849087655544281,-0.015117216855287552,0.07759937644004822
453.0,0.0,0.0,0.0,0.0,0.0,0.0,-0.0063240728341042995,-0.011064956896007061,0.011397510766983032,0.9967157244682312,-0.03630860522389412,-0.017866233363747597,0.0701444149017334
454.0,0.0,0.0,0.0,0.0,0.0,0.0,-0.02528301812708378,-0.020935524255037308,0.003854920156300068,0.9974226951599121,-0.03350643813610077,-0.02199622057378292,0.05950344353914261
455.0,0.0,0.0,0.0,0.0,0.0,0.0,-0.046106357127428055,-0.007129294332116842,0.0005072694038972259,0.9982130527496338,-0.028573712334036827,-0.026738228276371956,0.045155201107263565
456.0,0.0,0.0,0.0,0.0,0.0,0.0,-0.04457041248679161,0.0014079599641263485,0.002523131435737014,0.9986817240715027,-0.025169983506202698,-0.02987772598862648,0.033296652138233185
457.0,0.0,0.0,0.0,0.0,0.0,0.0,-0.06345962733030319,-0.011721189133822918,-0.026973266154527664,0.9990664124488831,-0.022810032591223717,-0.0316065177321434,0.018628668040037155
458.0,0.0,0.0,0.0,0.0,0.0,0.0,-0.04863191768527031,-0.011763464659452438,-0.01044345274567604,0.9991999864578247,-0.022531509399414062,-0.03283185139298439,0.003675701329484582
459.0,0.0,0.0,0.0,0.0,0.0,0.0,-0.0029870718717575073,-0.011518125422298908,-0.004279876593500376,0.9990704655647278,-0.027571480721235275,-0.03285399079322815,-0.0043086218647658825
460.0,0.0,0.0,0.0,0.0,0.0,0.0,-0.010726099833846092,-0.004330306313931942,-0.022030768916010857,0.9989387392997742,-0.031154442578554153,-0.032066747546195984,-0.01107008382678032
461.0,0.0,0.0,0.0,0.0,0.0,0.0,-0.022649269551038742,0.010131794959306717,-0.02634544111788273,0.9988049864768982,-0.031984128057956696,-0.03150555118918419,-0.019313201308250427
462.0,0.0,0.0,0.0,0.0,0.0,0.0,-0.03555828332901001,0.019299834966659546,-0.006874998565763235,0.9986276626586914,-0.03240596130490303,-0.03069664165377617,-0.02738858573138714
463.0,0.0,0.0,0.0,0.0,0.0,0.0,-0.021048374474048615,0.0026764050126075745,-0.01396062783896923,0.9985072016716003,-0.032664213329553604,-0.029879199340939522,-0.03198970481753349
464.0,0.0,0.0,0.0,0.0,0.0,0.0,-0.0027264817617833614,-0.005037122871726751,-0.013523293659090996,0.9983494877815247,-0.03619610145688057,-0.02827807329595089,-0.0344727449119091
465.0,0.0,0.0,0.0,0.0,0.0,0.0,0.00442170025780797,0.0062477015890181065,0.008347631432116032,0.9982960820198059,-0.03781761974096298,-0.02672559581696987,-0.035502299666404724
466.0,0.0,0.0,0.0,0.0,0.0,0.0,-0.014283261261880398,0.013717255555093288,-0.008065474219620228,0.9982474446296692,-0.038195569068193436,-0.025910096243023872,-0.03703859820961952
467.0,0.0,0.0,0.0,0.0,0.0,0.0,-0.019503656774759293,0.011615616269409657,-0.005933736450970173,0.9981380701065063,-0.039243340492248535,-0.025610776618123055,-0.039040230214595795
468.0,0.0,0.0,0.0,0.0,0.0,0.0,-0.04002508148550987,0.0195139292627573,0.007757009472697973,0.9980701804161072,-0.040836431086063385,-0.023593910038471222,-0.040393587201833725
469.0,0.0,0.0,0.0,0.0,0.0,0.0,-0.03176630288362503,0.028730900958180428,0.008375624194741249,0.9980952739715576,-0.04130972549319267,-0.021051881834864616,-0.04069332033395767
470.0,0.0,0.0,0.0,0.0,0.0,0.0,-0.010338318534195423,0.014099584892392159,-0.0067017716355621815,0.998135507106781,-0.04155523702502251,-0.019275572150945663,-0.04034047946333885
471.0,0.0,0.0,0.0,0.0,0.0,0.0,-0.009545333683490753,0.027497416362166405,0.0036304881796240807,0.9982033371925354,-0.03963948413729668,-0.018773315474390984,-0.04082072526216507
472.0,0.0,0.0,0.0,0.0,0.0,0.0,-0.007910499349236488,0.03338315710425377,0.00611229008063674,0.9983440041542053,-0.035014767199754715,-0.01833871379494667,-0.04179629310965538
473.0,0.0,0.0,0.0,0.0,0.0,0.0,-0.0028806233312934637,0.004291635472327471,-0.0037957679014652967,0.9985950589179993,-0.02969261258840561,-0.016922077164053917,-0.040496762841939926
474.0,0.0,0.0,0.0,0.0,0.0,0.0,-0.00043264369014650583,-0.0013343689497560263,0.011563465930521488,0.9988188147544861,-0.023821843788027763,-0.015520751476287842,-0.039403222501277924
475.0,0.0,0.0,0.0,0.0,0.0,0.0,0.003608795814216137,-0.020345034077763557,0.0014259739546105266,0.9989597201347351,-0.017668552696704865,-0.0159083791077137,-0.03891235217452049
476.0,0.0,0.0,0.0,0.0,0.0,0.0,-0.0009401480201631784,-0.03100878745317459,-0.011644816026091576,0.9990701079368591,-0.01216540765017271,-0.01712021976709366,-0.03765181452035904
477.0,0.0,0.0,0.0,0.0,0.0,0.0,-0.006400338839739561,-0.02188100479543209,0.023960765451192856,0.9991951584815979,-0.007922408170998096,-0.018207497894763947,-0.03485163301229477
478.0,0.0,0.0,0.0,0.0,0.0,0.0,-0.02370610274374485,-0.025588419288396835,0.051399242132902145,0.9992449879646301,-0.006262493319809437,-0.018109755590558052,-0.0337970070540905
479.0,0.0,0.0,0.0,0.0,0.0,0.0,-0.03908178210258484,-0.006868947762995958,0.01195116713643074,0.9992370009422302,-0.0058694458566606045,-0.01765921525657177,-0.03433753550052643
480.0,0.0,0.0,0.0,0.0,0.0,0.0,-0.022603031247854233,-0.019691308960318565,-0.03100096620619297,0.9992693066596985,-0.008200340904295444,-0.0172662902623415,-0.03309701755642891
481.0,0.0,0.0,0.0,0.0,0.0,0.0,-0.0014232255052775145,-0.04197905585169792,-0.040789809077978134,0.9993273019790649,-0.01159827783703804,-0.01689629815518856,-0.030411243438720703
482.0,0.0,0.0,0.0,0.0,0.0,0.0,0.014908024109899998,-0.03274033963680267,-0.052668869495391846,0.9993737936019897,-0.015990253537893295,-0.017410095781087875,-0.026323871687054634
483.0,0.0,0.0,0.0,0.0,0.0,0.0,0.0518515408039093,-0.031785063445568085,-0.03968635946512222,0.9993187189102173,-0.024100884795188904,-0.0193379707634449,-0.020176244899630547
484.0,0.0,0.0,0.0,0.0,0.0,0.0,0.06655334681272507,-0.022822953760623932,0.0007065998506732285,0.9990983009338379,-0.03413897752761841,-0.02168227918446064,-0.012921806424856186
485.0,0.0,0.0,0.0,0.0,0.0,0.0,0.028474261984229088,0.04441389441490173,0.016115786507725716,0.9988436698913574,-0.04011134058237076,-0.02562754787504673,-0.0067717223428189754
486.0,0.0,0.0,0.0,0.0,0.0,0.0,-0.012819580733776093,0.10130812972784042,0.082183338701725,0.9988083839416504,-0.04027281701564789,-0.027501655742526054,0.0019537745974957943
487.0,0.0,0.0,0.0,0.0,0.0,0.0,-0.06901375204324722,0.03317995369434357,0.06917603313922882,0.9986602067947388,-0.0429246723651886,-0.027793552726507187,0.007923019118607044
488.0,0.0,0.0,0.0,0.0,0.0,0.0,-0.05450541153550148,0.01950119435787201,0.002322223735973239,0.9985570907592773,-0.04361189156770706,-0.028077922761440277,0.013905910775065422
489.0,0.0,0.0,0.0,0.0,0.0,0.0,-0.01504992600530386,-0.011572997085750103,0.0023820502683520317,0.9984112977981567,-0.042650677263736725,-0.02819286845624447,0.023671528324484825
490.0,0.0,0.0,0.0,0.0,0.0,0.0,0.0011108402395620942,-0.027047106996178627,-0.007996703498065472,0.9980566501617432,-0.043001215904951096,-0.028854720294475555,0.03466130793094635
491.0,0.0,0.0,0.0,0.0,0.0,0.0,-0.029210401698946953,-0.019863368943333626,-0.01708153262734413,0.9977182745933533,-0.04235853627324104,-0.029366442933678627,0.04360419511795044
492.0,0.0,0.0,0.0,0.0,0.0,0.0,-0.012745792046189308,-0.007682194001972675,-0.03515239804983139,0.9974424839019775,-0.0406566821038723,-0.02956235408782959,0.05080205574631691
493.0,0.0,0.0,0.0,0.0,0.0,0.0,-0.005022302735596895,0.01754482090473175,-0.011255062185227871,0.9973823428153992,-0.03914320841431618,-0.028449207544326782,0.0537320040166378
494.0,0.0,0.0,0.0,0.0,0.0,0.0,0.022379320114850998,0.012238072231411934,-0.019734522327780724,0.997580885887146,-0.0363648496568203,-0.026891982182860374,0.052786439657211304
495.0,0.0,0.0,0.0,0.0,0.0,0.0,0.04175286740064621,-0.002210199134424329,-0.024638907983899117,0.9978091716766357,-0.03327588364481926,-0.025737980380654335,0.05105912312865257
496.0,0.0,0.0,0.0,0.0,0.0,0.0,0.07205000519752502,-0.020946072414517403,0.008602766320109367,0.9978318214416504,-0.03171944618225098,-0.025090090930461884,0.051925159990787506
497.0,0.0,0.0,0.0,0.0,0.0,0.0,0.045304909348487854,-0.027854662388563156,0.003598120529204607,0.9978592991828918,-0.02981886826455593,-0.025668252259492874,0.05223194882273674
498.0,0.0,0.0,0.0,0.0,0.0,0.0,-0.005944544915109873,-0.010755039751529694,-0.040992289781570435,0.9978822469711304,-0.02664237655699253,-0.026485569775104523,0.053105711936950684
499.0,0.0,0.0,0.0,0.0,0.0,0.0,-0.012001278810203075,-0.009408824145793915,-0.04625910520553589,0.9977571964263916,-0.022331813350319862,-0.025093577802181244,0.05789561942219734
500.0,0.0,0.0,0.0,0.0,0.0,0.0,-0.009414570406079292,-0.047558996826410294,-0.05872875824570656,0.9974766969680786,-0.019016556441783905,-0.022689862176775932,0.06452706456184387
501.0,0.0,0.0,0.0,0.0,0.0,0.0,0.03502347320318222,-7.804920642229263e-06,0.045151062309741974,0.9968797564506531,-0.017893800511956215,-0.02227315865457058,0.07358153909444809
502.0,0.0,0.0,0.0,0.0,0.0,0.0,-0.007885921746492386,0.00954484473913908,0.07853379100561142,0.9965051412582397,-0.01783526875078678,-0.021345390006899834,0.07876266539096832
503.0,0.0,0.0,0.0,0.0,0.0,0.0,-0.013055925257503986,0.026730960234999657,0.07409194111824036,0.9963342547416687,-0.019844895228743553,-0.019588051363825798,0.08087338507175446
504.0,0.0,0.0,0.0,0.0,0.0,0.0,-0.021001819521188736,0.03677212819457054,0.04443369060754776,0.9964061379432678,-0.022382840514183044,-0.018931236118078232,0.07946953922510147
505.0,0.0,0.0,0.0,0.0,0.0,0.0,0.0062668598257005215,0.017462238669395447,0.01587793603539467,0.9962772727012634,-0.026063935831189156,-0.01854146644473076,0.08004702627658844
506.0,0.0,0.0,0.0,0.0,0.0,0.0,0.026765240356326103,0.005112399347126484,-0.004416626412421465,0.9960938096046448,-0.02742016687989235,-0.018298538401722908,0.08191614598035812
507.0,0.0,0.0,0.0,0.0,0.0,0.0,0.012292102910578251,-0.005654234904795885,0.003929548896849155,0.9960265159606934,-0.028562890365719795,-0.018684372305870056,0.08225782215595245
508.0,0.0,0.0,0.0,0.0,0.0,0.0,0.028677023947238922,-0.012408728711307049,-0.0005907828453928232,0.9958088397979736,-0.031058577820658684,-0.019322752952575684,0.08382948487997055
509.0,0.0,0.0,0.0,0.0,0.0,0.0,0.02306021749973297,-0.009203989058732986,-0.02014884352684021,0.9957669377326965,-0.03243223577737808,-0.019909849390387535,0.08365936577320099
510.0,0.0,0.0,0.0,0.0,0.0,0.0,0.01756560616195202,-0.01685008965432644,-0.010913694277405739,0.9957737326622009,-0.03490394726395607,-0.019618596881628036,0.08264509588479996
511.0,0.0,0.0,0.0,0.0,0.0,0.0,0.020955698564648628,-0.0151547035202384,-0.011666794307529926,0.9958086609840393,-0.038102298974990845,-0.019108261913061142,0.0809159055352211
512.0,0.0,0.0,0.0,0.0,0.0,0.0,0.014095195569097996,-0.007553478237241507,-0.009752909652888775,0.9958669543266296,-0.04051867127418518,-0.01929495297372341,0.07896407693624496
513.0,0.0,0.0,0.0,0.0,0.0,0.0,0.02326185815036297,-0.012900849804282188,0.0071037267334759235,0.9956158399581909,-0.04434218257665634,-0.019486386328935623,0.08002033084630966
514.0,0.0,0.0,0.0,0.0,0.0,0.0,0.020052310079336166,-0.00911724753677845,-0.011540433391928673,0.9953924417495728,-0.04752790927886963,-0.020694898441433907,0.08066325634717941
515.0,0.0,0.0,0.0,0.0,0.0,0.0,0.005587542429566383,0.02433438040316105,-0.011816324666142464,0.995147168636322,-0.04877942427992821,-0.02184317074716091,0.08261417597532272
516.0,0.0,0.0,0.0,0.0,0.0,0.0,0.02573123760521412,-0.0002385846892138943,0.02829681523144245,0.9947642683982849,-0.04943237453699112,-0.023310860618948936,0.08634687215089798
517.0,0.0,0.0,0.0,0.0,0.0,0.0,-0.028431959450244904,0.05185399204492569,0.0880800262093544,0.9951666593551636,-0.04890827089548111,-0.0250521432608366,0.08137571066617966
518.0,0.0,0.0,0.0,0.0,0.0,0.0,-0.03806491941213608,0.04089207574725151,0.05933364853262901,0.9960523843765259,-0.046911198645830154,-0.02749084122478962,0.07016418874263763
519.0,0.0,0.0,0.0,0.0,0.0,0.0,-0.050555162131786346,0.012370898388326168,0.009837430901825428,0.9969653487205505,-0.04340752586722374,-0.02938043884932995,0.05755297467112541
520.0,0.0,0.0,0.0,0.0,0.0,0.0,-0.06148573383688927,-0.021479321643710136,0.008969745598733425,0.997654378414154,-0.04239872843027115,-0.029627162963151932,0.044832464307546616
521.0,0.0,0.0,0.0,0.0,0.0,0.0,-0.04173669591546059,-0.013925140723586082,-0.022663289681077003,0.9982011914253235,-0.040959637612104416,-0.029899651184678078,0.031977154314517975
522.0,0.0,0.0,0.0,0.0,0.0,0.0,-0.005818940233439207,-0.01732163317501545,-0.016561303287744522,0.9984540939331055,-0.040006816387176514,-0.03180350735783577,0.021837959066033363
523.0,0.0,0.0,0.0,0.0,0.0,0.0,-0.027046233415603638,-0.004295812454074621,-0.0204408448189497,0.9986042380332947,-0.03938953951001167,-0.03405208885669708,0.008830648846924305
524.0,0.0,0.0,0.0,0.0,0.0,0.0,-0.07077980041503906,0.009404425509274006,-0.03859741985797882,0.9987048506736755,-0.036630719900131226,-0.03439981862902641,-0.00795456487685442
525.0,0.0,0.0,0.0,0.0,0.0,0.0,0.017762307077646255,-0.007390480954200029,-0.034219566732645035,0.9987277984619141,-0.03430788218975067,-0.0330253429710865,-0.01657223328948021
526.0,0.0,0.0,0.0,0.0,0.0,0.0,0.058275673538446426,-0.019053865224123,-0.0010049567790701985,0.9987906813621521,-0.03232260420918465,-0.03153834119439125,-0.01943553052842617
527.0,0.0,0.0,0.0,0.0,0.0,0.0,0.03880142420530319,-0.009268653579056263,0.0238230898976326,0.9987635016441345,-0.030774958431720734,-0.03159342333674431,-0.022940563037991524
528.0,0.0,0.0,0.0,0.0,0.0,0.0,0.03031148575246334,-0.005636715795844793,0.00488163810223341,0.9987726211547852,-0.02838318608701229,-0.032225728034973145,-0.02468116022646427
529.0,0.0,0.0,0.0,0.0,0.0,0.0,0.00756191136315465,-0.0021417548414319754,-0.007556546479463577,0.998747706413269,-0.02719379961490631,-0.033063314855098724,-0.02589200623333454
530.0,0.0,0.0,0.0,0.0,0.0,0.0,-0.0088746827095747,0.0002867442381102592,-0.002029948402196169,0.9988119006156921,-0.024483928456902504,-0.03333137556910515,-0.02577442303299904
531.0,0.0,0.0,0.0,0.0,0.0,0.0,-0.010237450711429119,-0.012773554772138596,-0.008181782439351082,0.9988681077957153,-0.021989183500409126,-0.03381430357694626,-0.025208326056599617
532.0,0.0,0.0,0.0,0.0,0.0,0.0,-0.003537331474944949,-0.02421749196946621,-0.017459604889154434,0.9989108443260193,-0.02042774297297001,-0.03450807183980942,-0.023854728788137436
533.0,0.0,0.0,0.0,0.0,0.0,0.0,-0.01067343819886446,-0.021435149013996124,-0.003235609270632267,0.9990650415420532,-0.01891210675239563,-0.0340987853705883,-0.01867431029677391
534.0,0.0,0.0,0.0,0.0,0.0,0.0,-0.007702802773565054,-0.023169485852122307,-0.0016497173346579075,0.9992071390151978,-0.01858086697757244,-0.03396102041006088,-0.009291981346905231
535.0,0.0,0.0,0.0,0.0,0.0,0.0,-0.02596069686114788,-0.010141808539628983,0.0029227447230368853,0.9992327690124512,-0.02021474577486515,-0.03350706398487091,0.0015335743082687259
536.0,0.0,0.0,0.0,0.0,0.0,0.0,-0.048567574471235275,0.0069497618824243546,0.0056234016083180904,0.9990559816360474,-0.025538165122270584,-0.03341323137283325,0.01087186299264431
537.0,0.0,0.0,0.0,0.0,0.0,0.0,-0.0430830754339695,0.01975979469716549,0.010073368437588215,0.9987881183624268,-0.03259855881333351,-0.0320323184132576,0.01825457252562046
538.0,0.0,0.0,0.0,0.0,0.0,0.0,-0.039043549448251724,0.04769887402653694,0.014193082228302956,0.9986280202865601,-0.0365174263715744,-0.029075205326080322,0.023722195997834206
539.0,0.0,0.0,0.0,0.0,0.0,0.0,-0.02561909891664982,0.042702022939920425,0.026699062436819077,0.9986004829406738,-0.03768844157457352,-0.025214266031980515,0.02722005918622017
540.0,0.0,0.0,0.0,0.0,0.0,0.0,0.003462486667558551,0.04986540228128433,0.0193390604108572,0.9987042546272278,-0.03480808436870575,-0.023635005578398705,0.028627216815948486
541.0,0.0,0.0,0.0,0.0,0.0,0.0,-0.0005294001894071698,-0.003676594002172351,0.023428209125995636,0.9989479780197144,-0.0289678443223238,-0.02282685600221157,0.02725253440439701
542.0,0.0,0.0,0.0,0.0,0.0,0.0,-0.00941992737352848,-0.003013855079188943,0.014911346137523651,0.9992054104804993,-0.0228853989392519,-0.022252729162573814,0.023866664618253708
543.0,0.0,0.0,0.0,0.0,0.0,0.0,0.015737591311335564,-0.024713566526770592,0.009044157341122627,0.999294102191925,-0.018560325726866722,-0.02268480323255062,0.023501984775066376
544.0,0.0,0.0,0.0,0.0,0.0,0.0,0.0012673850869759917,-0.017482349649071693,0.0012374011566862464,0.9992749094963074,-0.015916423872113228,-0.023760534822940826,0.02512129209935665
545.0,0.0,0.0,0.0,0.0,0.0,0.0,-0.012306641787290573,-0.012499582953751087,-0.01369047723710537,0.9992570877075195,-0.015135485678911209,-0.0238711629062891,0.026186509057879448
546.0,0.0,0.0,0.0,0.0,0.0,0.0,0.005291220732033253,0.002250324934720993,0.003119584871456027,0.9992230534553528,-0.015402738004922867,-0.023720519617199898,0.027448687702417374
547.0,0.0,0.0,0.0,0.0,0.0,0.0,-0.02626972086727619,0.004962957929819822,0.02135976403951645,0.999295175075531,-0.015203425660729408,-0.023979878053069115,0.024550151079893112
548.0,0.0,0.0,0.0,0.0,0.0,0.0,-0.01878870651125908,0.0008869130397215486,-0.002814071485772729,0.9993726015090942,-0.014232136309146881,-0.024185484275221825,0.021606167778372765
549.0,0.0,0.0,0.0,0.0,0.0,0.0,0.026020502671599388,-0.014313885010778904,0.0034113326109945774,0.9993550777435303,-0.013322699815034866,-0.024412643164396286,0.022715644910931587
550.0,0.0,0.0,0.0,0.0,0.0,0.0,0.0020490807946771383,-0.053100138902664185,-0.0021432419307529926,0.9993174076080322,-0.015495119616389275,-0.024852890521287918,0.022506479173898697
551.0,0.0,0.0,0.0,0.0,0.0,0.0,0.001332653104327619,-0.03953993692994118,-0.028826197609305382,0.9992204904556274,-0.020031645894050598,-0.024846337735652924,0.02323542721569538
552.0,0.0,0.0,0.0,0.0,0.0,0.0,-0.008802112191915512,-0.00761684775352478,-0.042101144790649414,0.9991128444671631,-0.02358977496623993,-0.02468174882233143,0.024653349071741104
553.0,0.0,0.0,0.0,0.0,0.0,0.0,0.009069296531379223,-0.03633015230298042,-0.035148460417985916,0.9988018274307251,-0.029942363500595093,-0.024417845532298088,0.03003585711121559
554.0,0.0,0.0,0.0,0.0,0.0,0.0,0.023628907278180122,-0.04279286786913872,-0.03701937943696976,0.9982699155807495,-0.039382293820381165,-0.024011384695768356,0.036458611488342285
555.0,0.0,0.0,0.0,0.0,0.0,0.0,0.00822602678090334,-0.007179443258792162,-0.06447714567184448,0.9977392554283142,-0.047930970788002014,-0.023145632818341255,0.041028838604688644
556.0,0.0,0.0,0.0,0.0,0.0,0.0,0.05185704305768013,-0.04118196293711662,-0.08539940416812897,0.9966239333152771,-0.05808268114924431,-0.02177274227142334,0.05377989262342453
557.0,0.0,0.0,0.0,0.0,0.0,0.0,0.022513777017593384,0.10440285503864288,-0.005465891677886248,0.9958047270774841,-0.06081612408161163,-0.019609132781624794,0.06549380719661713
558.0,0.0,0.0,0.0,0.0,0.0,0.0,0.0002886892470996827,0.08513161540031433,0.10877982527017593,0.9952519536018372,-0.05907938629388809,-0.017185814678668976,0.07542234659194946
559.0,0.0,0.0,0.0,0.0,0.0,0.0,0.0018867052858695388,0.0426962785422802,0.11420044302940369,0.9945046901702881,-0.059382855892181396,-0.014373439364135265,0.08501840382814407
560.0,0.0,0.0,0.0,0.0,0.0,0.0,-0.017738528549671173,0.011490659788250923,0.015169290825724602,0.9940778017044067,-0.0599561408162117,-0.012872477993369102,0.08971480280160904
561.0,0.0,0.0,0.0,0.0,0.0,0.0,0.0019052752759307623,-0.00040970087866298854,-0.017408734187483788,0.9934090375900269,-0.061885181814432144,-0.011780042201280594,0.09576040506362915
562.0,0.0,0.0,0.0,0.0,0.0,0.0,0.01975536346435547,0.009710459969937801,-0.0005567391053773463,0.9924911260604858,-0.06432628631591797,-0.010979835875332355,0.10345813632011414
563.0,0.0,0.0,0.0,0.0,0.0,0.0,0.0274850782006979,-9.575524018146098e-05,0.015561286360025406,0.9914430975914001,-0.06718777865171432,-0.010084626264870167,0.11146803200244904
564.0,0.0,0.0,0.0,0.0,0.0,0.0,0.034626685082912445,0.00473253196105361,0.013028792105615139,0.9905269742012024,-0.06997328251600266,-0.01027644518762827,0.11770089715719223
565.0,0.0,0.0,0.0,0.0,0.0,0.0,0.0018499642610549927,0.012851488776504993,0.012492261826992035,0.9900997281074524,-0.07314328104257584,-0.01141479890793562,0.11925709992647171
566.0,0.0,0.0,0.0,0.0,0.0,0.0,0.010146977379918098,0.006376244127750397,0.000480407354189083,0.9895307421684265,-0.07669258117675781,-0.010634680278599262,0.12178868055343628
567.0,0.0,0.0,0.0,0.0,0.0,0.0,0.029109999537467957,0.0033663383219391108,-0.01004406064748764,0.9888291954994202,-0.08036430925130844,-0.009837452322244644,0.1251475065946579
568.0,0.0,0.0,0.0,0.0,0.0,0.0,0.024039272218942642,0.005640998482704163,-0.013803835958242416,0.9881762266159058,-0.08375648409128189,-0.011148720979690552,0.12793825566768646
569.0,0.0,0.0,0.0,0.0,0.0,0.0,0.02205502614378929,0.013501398265361786,-0.007414828520268202,0.9872768521308899,-0.08772459626197815,-0.013827117159962654,0.13190391659736633
570.0,0.0,0.0,0.0,0.0,0.0,0.0,0.009924031794071198,0.017785975709557533,0.016769783571362495,0.9864556193351746,-0.09147237986326218,-0.01679835468530655,0.13509707152843475
571.0,0.0,0.0,0.0,0.0,0.0,0.0,-0.02586599439382553,0.038983408361673355,-0.0020881113596260548,0.9862809777259827,-0.09260842949151993,-0.019076496362686157,0.13531804084777832
572.0,0.0,0.0,0.0,0.0,0.0,0.0,-0.021766668185591698,0.04242159053683281,0.025098679587244987,0.9865231513977051,-0.09176032990217209,-0.020414112135767937,0.133919820189476
573.0,0.0,0.0,0.0,0.0,0.0,0.0,-0.007201548665761948,0.040439315140247345,0.04948830604553223,0.9867860674858093,-0.09151379764080048,-0.020409880205988884,0.13214488327503204
574.0,0.0,0.0,0.0,0.0,0.0,0.0,-0.018288157880306244,0.032071683555841446,0.03768211230635643,0.9876658916473389,-0.08947791904211044,-0.0207869503647089,0.12679143249988556
575.0,0.0,0.0,0.0,0.0,0.0,0.0,-0.02769269235432148,0.024443253874778748,0.015021641738712788,0.9885200262069702,-0.08682175725698471,-0.020444007590413094,0.12195166945457458
576.0,0.0,0.0,0.0,0.0,0.0,0.0,-0.0018074180698022246,0.0055603450164198875,0.016857123002409935,0.9890462756156921,-0.0851726233959198,-0.020286694169044495,0.11882317811250687
577.0,0.0,0.0,0.0,0.0,0.0,0.0,0.00985387060791254,0.0016420360188931227,0.02303532510995865,0.9894078969955444,-0.08445409685373306,-0.02085692808032036,0.11621596664190292
578.0,0.0,0.0,0.0,0.0,0.0,0.0,0.007734527345746756,0.014497166499495506,0.04428653419017792,0.9900441765785217,-0.0828562006354332,-0.022727444767951965,0.11148819327354431
579.0,0.0,0.0,0.0,0.0,0.0,0.0,-0.028846586123108864,0.047593869268894196,0.031240707263350487,0.991520345211029,-0.07713376730680466,-0.02442448027431965,0.10168753564357758
580.0,0.0,0.0,0.0,0.0,0.0,0.0,-0.022935083135962486,0.04919536039233208,0.02558732219040394,0.992920458316803,-0.06953120976686478,-0.0240857545286417,0.09323183447122574
581.0,0.0,0.0,0.0,0.0,0.0,0.0,-0.00030798703664913774,0.01844627968966961,0.03990183025598526,0.9944913387298584,-0.05905992537736893,-0.02386046014726162,0.08324446529150009
582.0,0.0,0.0,0.0,0.0,0.0,0.0,-0.020167944952845573,-0.005340794567018747,-0.0034924291539937258,0.9961361885070801,-0.04684307798743248,-0.025298459455370903,0.06983853131532669
583.0,0.0,0.0,0.0,0.0,0.0,0.0,-0.061076827347278595,-0.1109398901462555,-0.05479675531387329,0.9973212480545044,-0.03754573315382004,-0.02629741095006466,0.056994546204805374
584.0,0.0,0.0,0.0,0.0,0.0,0.0,-0.05880429223179817,-0.07641424238681793,-0.07760950922966003,0.997878909111023,-0.032941047102212906,-0.025910183787345886,0.049808189272880554
585.0,0.0,0.0,0.0,0.0,0.0,0.0,-0.031804200261831284,-0.009171033278107643,-0.05493711680173874,0.9982489347457886,-0.029670564457774162,-0.025610696524381638,0.044299304485321045
586.0,0.0,0.0,0.0,0.0,0.0,0.0,0.03914157673716545,-0.023378102108836174,-0.018568135797977448,0.998511791229248,-0.026382379233837128,-0.026983633637428284,0.03936833143234253
587.0,0.0,0.0,0.0,0.0,0.0,0.0,0.010433217510581017,-0.027178900316357613,0.008344694040715694,0.9989717602729797,-0.01750934310257435,-0.029650237411260605,0.029482856392860413
588.0,0.0,0.0,0.0,0.0,0.0,0.0,-0.05921797826886177,0.0025908059906214476,0.07984906435012817,0.999323844909668,-0.012363314628601074,-0.03172919899225235,0.013862359337508678
589.0,0.0,0.0,0.0,0.0,0.0,0.0,-0.06638211011886597,0.001058342750184238,0.06177636608481407,0.9995113015174866,-0.011455043219029903,-0.028908155858516693,0.0031959323678165674
590.0,0.0,0.0,0.0,0.0,0.0,0.0,-0.041301339864730835,-0.01566465012729168,0.016535211354494095,0.9995766282081604,-0.011123128235340118,-0.026561086997389793,-0.004166151396930218
591.0,0.0,0.0,0.0,0.0,0.0,0.0,-0.09671320766210556,0.025039371103048325,0.020166296511888504,0.9995010495185852,-0.012465927749872208,-0.02568753808736801,-0.01350152213126421
592.0,0.0,0.0,0.0,0.0,0.0,0.0,-0.03531300649046898,-0.03504249453544617,0.029546724632382393,0.9992824196815491,-0.02211282029747963,-0.0258675217628479,-0.016633236780762672
593.0,0.0,0.0,0.0,0.0,0.0,0.0,-0.03670249506831169,0.009355836547911167,-0.013712665997445583,0.9989482164382935,-0.03276289254426956,-0.025461314246058464,-0.01951145939528942
594.0,0.0,0.0,0.0,0.0,0.0,0.0,-0.015426496975123882,0.01675434224307537,-0.036875687539577484,0.9987090229988098,-0.0403100959956646,-0.023097755387425423,-0.020536266267299652
595.0,0.0,0.0,0.0,0.0,0.0,0.0,0.03131124749779701,-0.007922355085611343,-0.05394265800714493,0.9984654188156128,-0.048208385705947876,-0.019738074392080307,-0.018776625394821167
596.0,0.0,0.0,0.0,0.0,0.0,0.0,0.04905617982149124,-0.018500374630093575,-0.05688915401697159,0.9980286955833435,-0.05560671165585518,-0.020029867067933083,-0.021089719608426094
597.0,0.0,0.0,0.0,0.0,0.0,0.0,0.025158097967505455,-0.011697230860590935,-0.04982387647032738,0.9977012276649475,-0.06096769496798515,-0.019594965502619743,-0.02216239832341671
598.0,0.0,0.0,0.0,0.0,0.0,0.0,0.056561123579740524,-0.012552070431411266,-0.041743021458387375,0.9975704550743103,-0.06403263658285141,-0.01931457594037056,-0.01947539485991001
599.0,0.0,0.0,0.0,0.0,0.0,0.0,0.09389813989400864,-0.005531797185540199,-0.06219453737139702,0.9975535273551941,-0.06462342292070389,-0.02143959514796734,-0.01584927923977375
600.0,0.0,0.0,0.0,0.0,0.0,0.0,0.12638267874717712,-0.00033087871270254254,-0.0748644545674324,0.9977446794509888,-0.059302207082509995,-0.028547288849949837,-0.013169345445930958
601.0,0.0,0.0,0.0,0.0,0.0,0.0,0.07057120651006699,-0.006806639954447746,-0.00996377319097519,0.9982907176017761,-0.04744246229529381,-0.033730339258909225,-0.0052235182374715805
602.0,0.0,0.0,0.0,0.0,0.0,0.0,-0.060625866055488586,-0.012060585431754589,0.08628567308187485,0.9989335536956787,-0.03150739148259163,-0.033165235072374344,0.006285743322223425
603.0,0.0,0.0,0.0,0.0,0.0,0.0,-0.15291328728199005,-0.011961116455495358,0.13160398602485657,0.9991807341575623,-0.02407054975628853,-0.028728485107421875,0.015271143056452274
604.0,0.0,0.0,0.0,0.0,0.0,0.0,-0.18865136802196503,0.030149968340992928,0.10294927656650543,0.9992016553878784,-0.025788940489292145,-0.02392006292939186,0.018943198025226593
605.0,0.0,0.0,0.0,0.0,0.0,0.0,-0.08770167827606201,0.032971255481243134,-0.014617026783525944,0.9990312457084656,-0.030488578602671623,-0.021186035126447678,0.023624999448657036
606.0,0.0,0.0,0.0,0.0,0.0,0.0,0.017624355852603912,-0.017529316246509552,-0.01993604004383087,0.9985830783843994,-0.03636288270354271,-0.02060067467391491,0.03293757140636444
607.0,0.0,0.0,0.0,0.0,0.0,0.0,0.09207294881343842,-0.0584271140396595,-0.009513849392533302,0.9975987672805786,-0.044219210743904114,-0.021546917036175728,0.04875398054718971
608.0,0.0,0.0,0.0,0.0,0.0,0.0,0.07934435456991196,-0.013534992933273315,-0.029903093352913857,0.9964213967323303,-0.04828596115112305,-0.02238292247056961,0.06566662341356277
609.0,0.0,0.0,0.0,0.0,0.0,0.0,0.027460454031825066,0.020595964044332504,0.01639392599463463,0.9954715967178345,-0.05078954994678497,-0.022022124379873276,0.07727991789579391
610.0,0.0,0.0,0.0,0.0,0.0,0.0,-0.028095142915844917,0.018546087667346,0.012689531780779362,0.9953294396400452,-0.051470763981342316,-0.020139265805482864,0.07915223389863968
611.0,0.0,0.0,0.0,0.0,0.0,0.0,-0.022754494100809097,-0.006340572144836187,0.005646977573633194,0.9951654076576233,-0.05357502028346062,-0.01463148184120655,0.08100222051143646
612.0,0.0,0.0,0.0,0.0,0.0,0.0,0.007183910347521305,0.029835635796189308,-0.012360653840005398,0.9946200251579285,-0.05529103800654411,-0.008242800831794739,0.08721701800823212
613.0,0.0,0.0,0.0,0.0,0.0,0.0,0.015468025580048561,0.06040790677070618,0.0310833640396595,0.9941413998603821,-0.0554819293320179,-0.003795187920331955,0.09267698973417282
614.0,0.0,0.0,0.0,0.0,0.0,0.0,0.019762683659791946,0.011345092207193375,0.028091056272387505,0.9935510754585266,-0.053054340183734894,-0.000844277092255652,0.10019596666097641
615.0,0.0,0.0,0.0,0.0,0.0,0.0,-0.02338656783103943,0.046209145337343216,0.0006872204830870032,0.9937722086906433,-0.04485255852341652,-0.002090408466756344,0.10197768360376358
616.0,0.0,0.0,0.0,0.0,0.0,0.0,-0.05426154285669327,0.04502510279417038,0.00507633900269866,0.994356095790863,-0.03430250287055969,-0.002132674213498831,0.10036831349134445
617.0,0.0,0.0,0.0,0.0,0.0,0.0,0.002289670053869486,-0.0019040359184145927,0.003562886966392398,0.9949524998664856,-0.02564794197678566,-0.0004167841107118875,0.09701415151357651
618.0,0.0,0.0,0.0,0.0,0.0,0.0,0.04364709556102753,-0.038823407143354416,0.01667775586247444,0.9958028793334961,-0.020525317639112473,0.0009935805574059486,0.08919119834899902
619.0,0.0,0.0,0.0,0.0,0.0,0.0,0.043027281761169434,-0.04728531464934349,-0.02112828753888607,0.9964870810508728,-0.018279768526554108,0.0029116827063262463,0.08167361468076706
620.0,0.0,0.0,0.0,0.0,0.0,0.0,0.016296155750751495,-0.024534620344638824,-0.036551333963871,0.9970266819000244,-0.017421770840883255,0.004315225873142481,0.074936643242836
621.0,0.0,0.0,0.0,0.0,0.0,0.0,0.03207436576485634,-0.03830059990286827,-0.027302678674459457,0.9971858263015747,-0.019451238214969635,0.004860427230596542,0.07224201411008835
622.0,0.0,0.0,0.0,0.0,0.0,0.0,0.02343768998980522,-0.01946113258600235,-0.023625081405043602,0.997050940990448,-0.022440070286393166,0.003731320146471262,0.0732949748635292
623.0,0.0,0.0,0.0,0.0,0.0,0.0,0.0018878286937251687,-0.008746380917727947,0.002727433340623975,0.9968286752700806,-0.02635008655488491,0.002864872571080923,0.07503346353769302
624.0,0.0,0.0,0.0,0.0,0.0,0.0,0.020733477547764778,-0.019821645691990852,-0.012363207526504993,0.9965009093284607,-0.030381977558135986,0.0025839093141257763,0.07782108336687088
625.0,0.0,0.0,0.0,0.0,0.0,0.0,0.020456472411751747,-0.011397697031497955,-0.018150558695197105,0.9965234398841858,-0.033679939806461334,0.0008322390494868159,0.0761970803141594
626.0,0.0,0.0,0.0,0.0,0.0,0.0,0.014333482831716537,-0.02945825457572937,-0.015052474103868008,0.9966151118278503,-0.03809240832924843,-0.0021977582946419716,0.07281103730201721
627.0,0.0,0.0,0.0,0.0,0.0,0.0,0.018817096948623657,0.0029780634213238955,-0.008723621256649494,0.996462345123291,-0.04292549192905426,-0.0034994056914001703,0.07215521484613419
628.0,0.0,0.0,0.0,0.0,0.0,0.0,0.029171328991651535,0.03171573579311371,0.009313446469604969,0.9961402416229248,-0.04613756015896797,-0.0042028422467410564,0.07454252988100052
629.0,0.0,0.0,0.0,0.0,0.0,0.0,0.023161832243204117,0.02654232643544674,0.0268950704485178,0.995867133140564,-0.048393815755844116,-0.006562279537320137,0.07657096534967422
630.0,0.0,0.0,0.0,0.0,0.0,0.0,-0.030095916241407394,0.0437525175511837,0.021435940638184547,0.9959585666656494,-0.04886040464043617,-0.00986423809081316,0.0747055783867836
631.0,0.0,0.0,0.0,0.0,0.0,0.0,-0.022017786279320717,0.02208777144551277,0.017425240948796272,0.9958633184432983,-0.05050541087985039,-0.01209618616849184,0.07455459982156754
632.0,0.0,0.0,0.0,0.0,0.0,0.0,-0.00033914638333953917,0.030591435730457306,0.021249033510684967,0.9956485033035278,-0.051686856895685196,-0.012562621384859085,0.07651957869529724
633.0,0.0,0.0,0.0,0.0,0.0,0.0,0.01056563388556242,0.01894987002015114,0.030619820579886436,0.9956595301628113,-0.051213156431913376,-0.012682566419243813,0.0766584575176239
634.0,0.0,0.0,0.0,0.0,0.0,0.0,0.01224695798009634,-0.0004976546042598784,0.0002632427786011249,0.9957271218299866,-0.050766296684741974,-0.013239169493317604,0.07598493993282318
635.0,0.0,0.0,0.0,0.0,0.0,0.0,0.0038712513633072376,-0.012066064402461052,-0.010364373214542866,0.9957161545753479,-0.05216704308986664,-0.015106037259101868,0.07482010126113892
636.0,0.0,0.0,0.0,0.0,0.0,0.0,0.002080204663798213,-0.017934534698724747,-0.0015587469097226858,0.9955779910087585,-0.05389028787612915,-0.016902994364500046,0.0750679075717926
637.0,0.0,0.0,0.0,0.0,0.0,0.0,-0.01764823868870735,0.019585998728871346,0.019650787115097046,0.9955721497535706,-0.0539112314581871,-0.01909845694899559,0.07460086792707443
638.0,0.0,0.0,0.0,0.0,0.0,0.0,-0.08073945343494415,0.06358695775270462,0.03105718083679676,0.9962889552116394,-0.04836108535528183,-0.021683428436517715,0.06781528890132904
639.0,0.0,0.0,0.0,0.0,0.0,0.0,-0.08489701896905899,0.06298381835222244,0.024889690801501274,0.997107207775116,-0.04137313738465309,-0.0246491190046072,0.0587940514087677
640.0,0.0,0.0,0.0,0.0,0.0,0.0,-0.010238037444651127,0.03253258019685745,0.058139313012361526,0.9974203109741211,-0.03722062706947327,-0.026314478367567062,0.055440764874219894
641.0,0.0,0.0,0.0,0.0,0.0,0.0,0.014781671576201916,0.05167674273252487,0.04341660439968109,0.9976974129676819,-0.03118557669222355,-0.02756769023835659,0.05354800447821617
642.0,0.0,0.0,0.0,0.0,0.0,0.0,-0.015950577333569527,0.012360415421426296,0.020679008215665817,0.9980409145355225,-0.025627316907048225,-0.028042612597346306,0.04971113055944443
643.0,0.0,0.0,0.0,0.0,0.0,0.0,0.006746130064129829,-0.014614912681281567,0.0116362813860178,0.9981601238250732,-0.02330295741558075,-0.02767755836248398,0.048653218895196915
644.0,0.0,0.0,0.0,0.0,0.0,0.0,0.01615208014845848,0.004241313319653273,-0.002251088386401534,0.9983106851577759,-0.020043129101395607,-0.02880270779132843,0.04630288481712341
645.0,0.0,0.0,0.0,0.0,0.0,0.0,-0.012753104791045189,-0.007298561278730631,0.0036193993873894215,0.9986590147018433,-0.016833800822496414,-0.029182082042098045,0.03930220380425453
646.0,0.0,0.0,0.0,0.0,0.0,0.0,-0.0378107912838459,0.011790848337113857,-0.00499679846689105,0.9991538524627686,-0.012041815556585789,-0.02870117500424385,0.026881396770477295
647.0,0.0,0.0,0.0,0.0,0.0,0.0,-0.015594474971294403,-0.02092902548611164,-0.03397531434893608,0.999478280544281,-0.007828217931091785,-0.02853579632937908,0.012943446636199951
648.0,0.0,0.0,0.0,0.0,0.0,0.0,0.03683975338935852,-0.04880109056830406,-0.03327454254031181,0.9995486736297607,-0.006532981060445309,-0.029070617631077766,0.0038127475418150425
649.0,0.0,0.0,0.0,0.0,0.0,0.0,0.016899293288588524,-0.05333416536450386,-0.029193038120865822,0.9995425343513489,-0.006368037313222885,-0.0293996911495924,-0.003141864901408553
650.0,0.0,0.0,0.0,0.0,0.0,0.0,-0.05508975684642792,-0.02230839803814888,-0.04395666345953941,0.999448835849762,-0.0050565623678267,-0.029715819284319878,-0.0139115359634161
651.0,0.0,0.0,0.0,0.0,0.0,0.0,-0.0314866378903389,-0.016739394515752792,-0.02100958861410618,0.9992420673370361,-0.0045973085798323154,-0.0304394643753767,-0.023823745548725128
652.0,0.0,0.0,0.0,0.0,0.0,0.0,-0.020097296684980392,-0.008012142963707447,-0.0020713224075734615,0.9990186095237732,-0.005021725781261921,-0.03033054992556572,-0.031884413212537766
653.0,0.0,0.0,0.0,0.0,0.0,0.0,0.009053390473127365,-0.0010537017369642854,-0.0016785492189228535,0.998849093914032,-0.006603360176086426,-0.029164673760533333,-0.03750022500753403
654.0,0.0,0.0,0.0,0.0,0.0,0.0,-0.011952103115618229,-0.006355945020914078,-0.008242187090218067,0.9986099004745483,-0.007750165648758411,-0.027657553553581238,-0.04419432953000069
655.0,0.0,0.0,0.0,0.0,0.0,0.0,-0.024770386517047882,-0.005359678994864225,-0.010414628311991692,0.9984127879142761,-0.010119677521288395,-0.026435092091560364,-0.048686448484659195
656.0,0.0,0.0,0.0,0.0,0.0,0.0,-0.008925340138375759,-0.008255194872617722,-0.031409695744514465,0.9983696341514587,-0.013416554778814316,-0.02549690566956997,-0.049273230135440826
657.0,0.0,0.0,0.0,0.0,0.0,0.0,0.003852783003821969,0.017191585153341293,-0.014501276426017284,0.9984155297279358,-0.015016194432973862,-0.025881551206111908,-0.04765581712126732
658.0,0.0,0.0,0.0,0.0,0.0,0.0,0.003981953486800194,0.03851785510778427,0.028964834287762642,0.99843829870224,-0.017131395637989044,-0.026259496808052063,-0.04623500257730484
659.0,0.0,0.0,0.0,0.0,0.0,0.0,-0.011347916908562183,0.02335459366440773,0.018925631418824196,0.9984021186828613,-0.019023427739739418,-0.026249023154377937,-0.046282216906547546
660.0,0.0,0.0,0.0,0.0,0.0,0.0,-0.013279602862894535,0.021111033856868744,0.01974523440003395,0.9983475208282471,-0.0225308109074831,-0.02540222927927971,-0.0463595874607563
661.0,0.0,0.0,0.0,0.0,0.0,0.0,0.007923348806798458,0.03373897075653076,0.03049253486096859,0.9982463121414185,-0.026835190132260323,-0.02505568601191044,-0.046435415744781494
662.0,0.0,0.0,0.0,0.0,0.0,0.0,-0.018459239974617958,0.025437701493501663,0.03488990291953087,0.9981513619422913,-0.031222540885210037,-0.024543942883610725,-0.04600733518600464
663.0,0.0,0.0,0.0,0.0,0.0,0.0,-0.032117243856191635,0.0353376567363739,0.03729328140616417,0.9980239868164062,-0.035675376653671265,-0.02431678958237171,-0.0456511564552784
664.0,0.0,0.0,0.0,0.0,0.0,0.0,-0.04271971061825752,0.016414742916822433,0.0209497082978487,0.997891366481781,-0.03942366689443588,-0.023954426869750023,-0.04565625265240669
665.0,0.0,0.0,0.0,0.0,0.0,0.0,-0.04891102761030197,0.022068370133638382,0.00955603551119566,0.9977725148200989,-0.041877251118421555,-0.02352996915578842,-0.046287648379802704
666.0,0.0,0.0,0.0,0.0,0.0,0.0,-0.018100393936038017,0.007674334570765495,-0.024097103625535965,0.9977346658706665,-0.042687054723501205,-0.022902248427271843,-0.046677809208631516
667.0,0.0,0.0,0.0,0.0,0.0,0.0,0.00989763718098402,-0.013913149945437908,-0.036422792822122574,0.9978377819061279,-0.041034456342458725,-0.02206069976091385,-0.046357497572898865
668.0,0.0,0.0,0.0,0.0,0.0,0.0,0.016927065327763557,-0.0023970832116901875,-0.010726626962423325,0.9980552792549133,-0.03629380092024803,-0.021281838417053223,-0.045992858707904816
669.0,0.0,0.0,0.0,0.0,0.0,0.0,0.03158443793654442,0.017156461253762245,0.0006211508298292756,0.9982828497886658,-0.02787451632320881,-0.021117547526955605,-0.04699348658323288
670.0,0.0,0.0,0.0,0.0,0.0,0.0,0.0645764023065567,0.03996693342924118,-0.0006635119207203388,0.9984175562858582,-0.014010452665388584,-0.022231271490454674,-0.04971855506300926
671.0,0.0,0.0,0.0,0.0,0.0,0.0,0.031173698604106903,0.00929727777838707,0.012182926759123802,0.9983577728271484,0.005727523472160101,-0.02326466515660286,-0.05203397944569588
672.0,0.0,0.0,0.0,0.0,0.0,0.0,-0.07951361685991287,-0.05585690215229988,0.009009464643895626,0.9980611801147461,0.0240517295897007,-0.022076139226555824,-0.05298981815576553
673.0,0.0,0.0,0.0,0.0,0.0,0.0,-0.14993345737457275,-0.046475935727357864,0.028233109042048454,0.9976590275764465,0.03549795225262642,-0.018171651288866997,-0.0555524043738842
674.0,0.0,0.0,0.0,0.0,0.0,0.0,-0.12463031709194183,-0.04037909954786301,0.022084606811404228,0.9977782368659973,0.0353778637945652,-0.012439209967851639,-0.0550655834376812
675.0,0.0,0.0,0.0,0.0,0.0,0.0,-0.07133787870407104,-0.0552096925675869,-0.003794632852077484,0.9979175329208374,0.0300320852547884,-0.00826692022383213,-0.056481167674064636
676.0,0.0,0.0,0.0,0.0,0.0,0.0,-0.02934986539185047,-0.048052746802568436,-0.02688724175095558,0.9979263544082642,0.022570034489035606,-0.0051933652721345425,-0.060054417699575424
677.0,0.0,0.0,0.0,0.0,0.0,0.0,-0.012316142208874226,-0.02628866210579872,-0.038590289652347565,0.997908890247345,0.013873904012143612,-0.003138198284432292,-0.06305001676082611
678.0,0.0,0.0,0.0,0.0,0.0,0.0,-0.0027719824574887753,-0.05415477603673935,-0.04203515872359276,0.9979259967803955,0.0023113866336643696,0.001116171246394515,-0.06431972980499268
679.0,0.0,0.0,0.0,0.0,0.0,0.0,-0.0475112646818161,0.018072523176670074,-0.03348231688141823,0.9978576302528381,-0.006187093909829855,0.006037796847522259,-0.06484753638505936
680.0,0.0,0.0,0.0,0.0,0.0,0.0,0.03576751425862312,0.017066948115825653,-0.026488374918699265,0.9980707168579102,-0.01205745991319418,0.00714713241904974,-0.06048498675227165
681.0,0.0,0.0,0.0,0.0,0.0,0.0,0.08898546546697617,-0.003520761150866747,0.011291656643152237,0.9982283115386963,-0.0195326991379261,0.008057916536927223,-0.0556219108402729
682.0,0.0,0.0,0.0,0.0,0.0,0.0,0.055784840136766434,0.03890758007764816,0.05610673874616623,0.9982750415802002,-0.024275973439216614,0.009883024729788303,-0.05253324657678604
683.0,0.0,0.0,0.0,0.0,0.0,0.0,0.04452766478061676,0.010280653834342957,0.014656963758170605,0.9982248544692993,-0.028765415772795677,0.009530491195619106,-0.05127332732081413
684.0,0.0,0.0,0.0,0.0,0.0,0.0,0.03611438348889351,-0.01038038358092308,-0.024907119572162628,0.998224139213562,-0.031723085790872574,0.009158563800156116,-0.049579817801713943
685.0,0.0,0.0,0.0,0.0,0.0,0.0,0.10062001645565033,-0.027467278763651848,-0.056629642844200134,0.9983857274055481,-0.03216231241822243,0.006365563720464706,-0.04637788608670235
686.0,0.0,0.0,0.0,0.0,0.0,0.0,0.15904860198497772,-0.028682053089141846,-0.07619312405586243,0.9987833499908447,-0.030333155766129494,-0.0004507872508838773,-0.03887512534856796
687.0,0.0,0.0,0.0,0.0,0.0,0.0,0.14290392398834229,0.003086554119363427,-0.02734190970659256,0.9993757605552673,-0.020958464592695236,-0.007966570556163788,-0.027303948998451233
688.0,0.0,0.0,0.0,0.0,0.0,0.0,0.06568485498428345,-0.04209507629275322,0.009477653540670872,0.9997949600219727,-0.005079675931483507,-0.015379165299236774,-0.012151902541518211
689.0,0.0,0.0,0.0,0.0,0.0,0.0,-0.07703278958797455,-0.06482511758804321,0.028320232406258583,0.9998061060905457,0.005628500133752823,-0.01872032880783081,0.0023739009629935026
690.0,0.0,0.0,0.0,0.0,0.0,0.0,-0.1690288633108139,-0.0009569178218953311,0.05003101006150246,0.9997345209121704,0.007618958596140146,-0.014231880195438862,0.016434689983725548
691.0,0.0,0.0,0.0,0.0,0.0,0.0,-0.11599218100309372,0.0470920167863369,0.03593591973185539,0.9994813203811646,0.004745947662740946,-0.00857472699135542,0.030675774440169334
692.0,0.0,0.0,0.0,0.0,0.0,0.0,-0.021702269092202187,-0.011723827570676804,0.017800282686948776,0.9990208148956299,-0.001876810914836824,-0.005598269868642092,0.04384557902812958
693.0,0.0,0.0,0.0,0.0,0.0,0.0,0.034958794713020325,-0.036860719323158264,-0.007156208623200655,0.9981160163879395,-0.008868484757840633,-0.005275379866361618,0.06047651544213295
694.0,0.0,0.0,0.0,0.0,0.0,0.0,0.044698577374219894,-0.0039725275710225105,-0.007464793976396322,0.9967491626739502,-0.014425295405089855,-0.0049117193557322025,0.07911136746406555
695.0,0.0,0.0,0.0,0.0,0.0,0.0,0.011649755761027336,0.0049497950822114944,-0.011788391508162022,0.9955776929855347,-0.01750054396688938,-0.005684204865247011,0.09211699664592743
696.0,0.0,0.0,0.0,0.0,0.0,0.0,-0.021106556057929993,0.014942175708711147,0.0026241245213896036,0.9949330687522888,-0.020002147182822227,-0.005427937023341656,0.09837526828050613
697.0,0.0,0.0,0.0,0.0,0.0,0.0,-0.021620938554406166,0.025006376206874847,0.014553104527294636,0.9948760867118835,-0.021348660811781883,-0.003009551204741001,0.09878011792898178
698.0,0.0,0.0,0.0,0.0,0.0,0.0,-0.005053866654634476,0.034212496131658554,0.02552933432161808,0.995271623134613,-0.01953856460750103,0.0005970506463199854,0.09513659030199051
699.0,0.0,0.0,0.0,0.0,0.0,0.0,0.010258730500936508,0.016007551923394203,0.04124651476740837,0.9958338141441345,-0.016513202339410782,0.0033168871887028217,0.08961725980043411
700.0,0.0,0.0,0.0,0.0,0.0,0.0,-0.01119068544358015,0.03830844536423683,0.05937538668513298,0.9965322017669678,-0.010996096767485142,0.0044366358779370785,0.0823620855808258
701.0,0.0,0.0,0.0,0.0,0.0,0.0,-0.037683382630348206,0.021937109529972076,0.043905679136514664,0.9973762035369873,-0.0028376637492328882,0.003455209080129862,0.07224905490875244
702.0,0.0,0.0,0.0,0.0,0.0,0.0,-0.013894887641072273,-0.027739157900214195,0.007988372817635536,0.9979915022850037,0.005545768886804581,0.0011679107556119561,0.06309483200311661
703.0,0.0,0.0,0.0,0.0,0.0,0.0,0.026945674791932106,-0.05977758765220642,-0.023312879726290703,0.9982312321662903,0.011802428402006626,-0.0003947392397094518,0.058261577039957047
704.0,0.0,0.0,0.0,0.0,0.0,0.0,0.008646171540021896,-0.017620746046304703,-0.019985709339380264,0.9987202286720276,0.018222982063889503,-0.001916412846185267,0.04713683947920799
705.0,0.0,0.0,0.0,0.0,0.0,0.0,-0.04363368824124336,-0.007953448221087456,-0.04537622630596161,0.9993306994438171,0.026996765285730362,-0.004249037243425846,0.02431599609553814
706.0,0.0,0.0,0.0,0.0,0.0,0.0,0.024712389335036278,-0.0785658210515976,-0.019735388457775116,0.999528169631958,0.02905765362083912,-0.0049714441411197186,0.008617360144853592
707.0,0.0,0.0,0.0,0.0,0.0,0.0,0.06593634933233261,-0.022915812209248543,-0.0184771828353405,0.9995661377906799,0.028661083430051804,-0.006153544876724482,-0.0028666274156421423
708.0,0.0,0.0,0.0,0.0,0.0,0.0,0.02733484096825123,-0.010586937889456749,0.024062396958470345,0.9995189905166626,0.027508342638611794,-0.0070127216167747974,-0.012482039630413055
709.0,0.0,0.0,0.0,0.0,0.0,0.0,0.024949606508016586,-0.025106607005000114,-0.012125128880143166,0.9995068311691284,0.025759130716323853,-0.008111651986837387,-0.016021855175495148
710.0,0.0,0.0,0.0,0.0,0.0,0.0,0.01027683261781931,-0.05202445760369301,-0.03655976429581642,0.9996010661125183,0.02222057804465294,-0.010301630012691021,-0.014060715213418007
711.0,0.0,0.0,0.0,0.0,0.0,0.0,0.0019897795282304287,-0.05714968591928482,-0.04033059999346733,0.9997797012329102,0.01605219393968582,-0.012002885341644287,-0.0062322732992470264
712.0,0.0,0.0,0.0,0.0,0.0,0.0,0.019588381052017212,-0.045940835028886795,-0.05831160768866539,0.9998617768287659,0.00737110385671258,-0.013251359574496746,0.006804467178881168
713.0,0.0,0.0,0.0,0.0,0.0,0.0,0.05902646854519844,-0.0029757050797343254,0.0025219887029379606,0.9995458722114563,0.000549734162632376,-0.011343689635396004,0.02791239321231842
714.0,0.0,0.0,0.0,0.0,0.0,0.0,-0.028825165703892708,0.13983812928199768,0.10440395772457123,0.9992671608924866,0.001311702188104391,-0.008526728488504887,0.03728943318128586
715.0,0.0,0.0,0.0,0.0,0.0,0.0,-0.06164144352078438,0.07978688925504684,0.09835103899240494,0.9992915987968445,0.0025176056660711765,-0.006243603304028511,0.03702617436647415
716.0,0.0,0.0,0.0,0.0,0.0,0.0,-0.028844689950346947,-0.0023846300318837166,0.005006557330489159,0.9992747902870178,0.002955390140414238,-0.00291480403393507,0.03784941881895065
717.0,0.0,0.0,0.0,0.0,0.0,0.0,0.015439211390912533,-0.010051541030406952,-0.03316771984100342,0.9991177320480347,0.004486883990466595,-0.0008173547103069723,0.04175025597214699
718.0,0.0,0.0,0.0,0.0,0.0,0.0,0.07021431624889374,-0.02886660397052765,-0.009277302771806717,0.9988623857498169,0.0048772720620036125,-0.00034536392195150256,0.04743591323494911
719.0,0.0,0.0,0.0,0.0,0.0,0.0,0.03587402403354645,-0.0032878192141652107,-0.0024848098400980234,0.9989377856254578,0.007912048138678074,-0.002301810309290886,0.045333199203014374
720.0,0.0,0.0,0.0,0.0,0.0,0.0,-0.05628452077507973,0.02573656104505062,0.005027680192142725,0.9993085861206055,0.01559519674628973,-0.005132819525897503,0.033347271382808685
721.0,0.0,0.0,0.0,0.0,0.0,0.0,-0.03331026807427406,0.009434185922145844,0.0064859832637012005,0.9996265172958374,0.02262561209499836,-0.005521948914974928,0.014282274059951305
722.0,0.0,0.0,0.0,0.0,0.0,0.0,-0.038301147520542145,-0.043062303215265274,-0.03544563800096512,0.9995133876800537,0.028887072578072548,-0.007555701769888401,-0.009015067480504513
723.0,0.0,0.0,0.0,0.0,0.0,0.0,0.007933314889669418,-0.06180823594331741,-0.055114977061748505,0.9992589354515076,0.031090037897229195,-0.005231267772614956,-0.022081073373556137
724.0,0.0,0.0,0.0,0.0,0.0,0.0,0.007382711861282587,-0.036581117659807205,-0.0065424200147390366,0.9990161061286926,0.0305020771920681,-0.005975915584713221,-0.03163369745016098
725.0,0.0,0.0,0.0,0.0,0.0,0.0,-0.016238229349255562,0.0006694141193293035,-0.0025852136313915253,0.998862624168396,0.028007997199892998,-0.006395416799932718,-0.03805456683039665
726.0,0.0,0.0,0.0,0.0,0.0,0.0,-0.02604529820382595,0.005091662984341383,-0.0009486514609307051,0.998598039150238,0.0262261014431715,-0.00847652368247509,-0.0451911985874176
727.0,0.0,0.0,0.0,0.0,0.0,0.0,-0.04342743009328842,0.01930713839828968,-0.00021042900334578007,0.9982340931892395,0.025429118424654007,-0.005832255817949772,-0.053366854786872864
728.0,0.0,0.0,0.0,0.0,0.0,0.0,-0.03428036347031593,0.01600511185824871,0.003206842578947544,0.9974857568740845,0.025362852960824966,-0.0045014736242592335,-0.06601953506469727
729.0,0.0,0.0,0.0,0.0,0.0,0.0,-0.02098679170012474,-0.006669394671916962,-0.02482939511537552,0.9971206784248352,0.024713857099413872,-0.002874725963920355,-0.07163310796022415
730.0,0.0,0.0,0.0,0.0,0.0,0.0,-0.0248513575643301,-0.011520052328705788,-0.022659359499812126,0.9968411326408386,0.024077555164694786,-0.0034191126469522715,-0.07560691982507706
731.0,0.0,0.0,0.0,0.0,0.0,0.0,-0.055764153599739075,-0.015857920050621033,-0.01934613101184368,0.9969777464866638,0.023939672857522964,-0.0021517665591090918,-0.07387550920248032
732.0,0.0,0.0,0.0,0.0,0.0,0.0,-0.0006335789221338928,-0.001952635240741074,-0.001016202149912715,0.9973418712615967,0.021298298612236977,-0.0009754954371601343,-0.06967556476593018
733.0,0.0,0.0,0.0,0.0,0.0,0.0,0.043517764657735825,-0.021187959238886833,-0.004290516953915358,0.9975513219833374,0.01823744736611843,-0.00018034267122857273,-0.06751832365989685
734.0,0.0,0.0,0.0,0.0,0.0,0.0,0.00907224602997303,0.02139831706881523,0.004154343623667955,0.9975027441978455,0.017142651602625847,-0.001452145166695118,-0.06849987804889679
735.0,0.0,0.0,0.0,0.0,0.0,0.0,0.023257926106452942,0.024006806313991547,0.024590233340859413,0.9976580142974854,0.015371490269899368,-0.0018303146352991462,-0.06662522256374359
736.0,0.0,0.0,0.0,0.0,0.0,0.0,0.02954099141061306,0.003375616855919361,0.0075490293093025684,0.9977623820304871,0.013668895699083805,-0.0014463418629020452,-0.06543149054050446
737.0,0.0,0.0,0.0,0.0,0.0,0.0,0.00951186940073967,0.011331500485539436,-0.00868097972124815,0.9978476762771606,0.013940616510808468,-0.001524744788184762,-0.06405766308307648
738.0,0.0,0.0,0.0,0.0,0.0,0.0,-0.0025746035389602184,0.004894526209682226,-0.01742083765566349,0.9978983998298645,0.01478284690529108,-0.0020012366585433483,-0.06305613368749619
739.0,0.0,0.0,0.0,0.0,0.0,0.0,0.013724406249821186,0.004951226990669966,0.0009472806705161929,0.9979367256164551,0.016094602644443512,-0.0026571755297482014,-0.062098048627376556
740.0,0.0,0.0,0.0,0.0,0.0,0.0,-0.00253633433021605,-0.018637575209140778,0.00042213473352603614,0.9979521632194519,0.017309164628386497,-0.003164642723277211,-0.06149478629231453
741.0,0.0,0.0,0.0,0.0,0.0,0.0,-0.024835148826241493,-0.00121603615116328,0.01260720007121563,0.9978989958763123,0.01750156655907631,-0.0037445754278451204,-0.062267012894153595
742.0,0.0,0.0,0.0,0.0,0.0,0.0,-0.012993541546165943,0.004881521686911583,0.021960824728012085,0.9977763891220093,0.016653459519147873,-0.004232290666550398,-0.06439761817455292
743.0,0.0,0.0,0.0,0.0,0.0,0.0,-0.027732571586966515,-0.015421045944094658,-0.005048112943768501,0.9975729584693909,0.01615302450954914,-0.004917745478451252,-0.0675501748919487
744.0,0.0,0.0,0.0,0.0,0.0,0.0,-0.05508225038647652,-0.009486199356615543,-0.0012041301233693957,0.9974574446678162,0.015371199697256088,-0.005099920090287924,-0.0693986713886261
745.0,0.0,0.0,0.0,0.0,0.0,0.0,-0.04509928077459335,0.0003707737778313458,0.010615275241434574,0.9974517822265625,0.013158365152776241,-0.00478032510727644,-0.06995604932308197
746.0,0.0,0.0,0.0,0.0,0.0,0.0,-0.029826655983924866,0.0035338245797902346,0.0061053065583109856,0.9974811673164368,0.010887650772929192,-0.004286590032279491,-0.06995902210474014
747.0,0.0,0.0,0.0,0.0,0.0,0.0,-0.015202458947896957,-0.006151110865175724,-0.020382454618811607,0.9975804686546326,0.009403985925018787,-0.004199312999844551,-0.06875395774841309
748.0,0.0,0.0,0.0,0.0,0.0,0.0,-0.00048410234740003943,-0.0060457088984549046,-0.011911082081496716,0.9977759718894958,0.0071801599115133286,-0.003523327875882387,-0.06617531925439835
749.0,0.0,0.0,0.0,0.0,0.0,0.0,0.028518134728074074,-0.0008162901503965259,-0.02062857151031494,0.9979785680770874,0.0061456793919205666,-0.00472998758777976,-0.06307566910982132
750.0,0.0,0.0,0.0,0.0,0.0,0.0,0.046010855585336685,-0.017742592841386795,-0.01945272833108902,0.9982906579971313,0.0052743107080459595,-0.006080583203583956,-0.057887252420186996
751.0,0.0,0.0,0.0,0.0,0.0,0.0,0.021733539178967476,-0.007829979062080383,-0.01717265695333481,0.9986181855201721,0.004474325105547905,-0.007529555354267359,-0.051816269755363464
752.0,0.0,0.0,0.0,0.0,0.0,0.0,0.02828291244804859,-0.01884605921804905,-0.005000721197575331,0.9989283680915833,0.0030141575261950493,-0.01056454237550497,-0.04495948553085327
753.0,0.0,0.0,0.0,0.0,0.0,0.0,0.009396526031196117,-0.02305680885910988,-0.016435258090496063,0.9992493987083435,0.00152061867993325,-0.01382856722921133,-0.03615204989910126
754.0,0.0,0.0,0.0,0.0,0.0,0.0,0.007443443406373262,-0.046555884182453156,-0.053373850882053375,0.9996617436408997,-0.00267152301967144,-0.015614655800163746,-0.02062579244375229
755.0,0.0,0.0,0.0,0.0,0.0,0.0,0.03426576778292656,-0.048395492136478424,-0.06424768269062042,0.9998282790184021,-0.008651197887957096,-0.016253676265478134,0.002052421448752284
756.0,0.0,0.0,0.0,0.0,0.0,0.0,0.020604301244020462,0.014394105412065983,-0.012752922251820564,0.9993664622306824,-0.015543273650109768,-0.016263971105217934,0.027570603415369987
757.0,0.0,0.0,0.0,0.0,0.0,0.0,-0.030182594433426857,0.06880968809127808,0.04331639036536217,0.9984575510025024,-0.021085970103740692,-0.014424826018512249,0.04929216578602791
758.0,0.0,0.0,0.0,0.0,0.0,0.0,-0.05123348906636238,0.08776163309812546,0.051717691123485565,0.9979150295257568,-0.01965302787721157,-0.01266610249876976,0.06015660986304283
759.0,0.0,0.0,0.0,0.0,0.0,0.0,-0.062403835356235504,0.04704985395073891,0.06737713515758514,0.997778058052063,-0.017316587269306183,-0.01137466635555029,0.06332564353942871
760.0,0.0,0.0,0.0,0.0,0.0,0.0,-0.01743849739432335,0.023035550490021706,0.06427696347236633,0.9974790811538696,-0.017007596790790558,-0.00939180701971054,0.0682503879070282
761.0,0.0,0.0,0.0,0.0,0.0,0.0,0.005656772293150425,0.0017150036292150617,0.050588272511959076,0.9972822666168213,-0.017692625522613525,-0.00734884524717927,0.07113240659236908
762.0,0.0,0.0,0.0,0.0,0.0,0.0,0.006680675782263279,0.005991486366838217,0.002719700336456299,0.99726402759552,-0.0181747879832983,-0.006821284536272287,0.07132205367088318
763.0,0.0,0.0,0.0,0.0,0.0,0.0,0.02321331575512886,-0.008379431441426277,-0.014173963107168674,0.9971514344215393,-0.01969296485185623,-0.007277479395270348,0.07244522124528885
764.0,0.0,0.0,0.0,0.0,0.0,0.0,0.04373842105269432,-0.011499203741550446,-0.00784203503280878,0.9969145059585571,-0.02069057524204254,-0.007592389825731516,0.07533356547355652
765.0,0.0,0.0,0.0,0.0,0.0,0.0,0.028769804164767265,-0.002069933107122779,0.005270226392894983,0.9969672560691833,-0.01955944485962391,-0.007251058239489794,0.07497357577085495
