,Position_X,Position_Y,Position_Z,Velocity_X,Velocity_Y,Velocity_Z,Acceleration_X,Acceleration_Y,Acceleration_Z,Quaterion_0,Quaterion_1,Quaterion_2,Quaterion_3
90.0,0.0,0.0,0.0,0.0,0.0,0.0,-0.005665227770805359,-0.014019839465618134,-0.003709957003593445,1.0,-3.851859888774472e-34,2.7755575615628914e-17,0.0
91.0,0.0,0.0,0.0,0.0,0.0,0.0,-0.004789868835359812,-0.022728731855750084,0.0024421890266239643,0.9999987483024597,0.00016187566507142037,0.0015583187341690063,-1.6266318198177032e-05
92.0,0.0,0.0,0.0,0.0,0.0,0.0,0.007131741847842932,-0.05376936122775078,0.03275017440319061,0.9999901056289673,-0.0006396786775439978,0.0034577404148876667,-0.0027192675042897463
93.0,0.0,0.0,0.0,0.0,0.0,0.0,0.08674950152635574,-0.031451161950826645,-0.11669573187828064,0.9999974370002747,-0.0004332955868449062,-0.002101713325828314,-0.0007460803026333451
94.0,0.0,0.0,0.0,0.0,0.0,0.0,-0.0852174311876297,0.03585677221417427,0.09738872945308685,0.9999954104423523,-0.0006575959268957376,0.0012768339365720749,0.0026707507204264402
95.0,0.0,0.0,0.0,0.0,0.0,0.0,0.02648998610675335,-0.08363250643014908,-0.009459875524044037,0.9999966025352478,-0.0014011133462190628,0.0014857352944090962,-0.0016089949058368802
96.0,0.0,0.0,0.0,0.0,0.0,0.0,-0.024595947936177254,0.039124008268117905,0.018952222540974617,0.9999956488609314,-0.0027531993109732866,0.000456888519693166,-0.0009458538261242211
97.0,0.0,0.0,0.0,0.0,0.0,0.0,-0.024404775351285934,-0.00783461518585682,0.020456798374652863,0.9999926090240479,-0.003047482343390584,0.0012817842653021216,-0.0019555974286049604
98.0,0.0,0.0,0.0,0.0,0.0,0.0,-0.0035534449853003025,-0.0033458219841122627,-0.0005886850995011628,0.9999927282333374,-0.0028661107644438744,0.000877306389156729,-0.002362954430282116
99.0,0.0,0.0,0.0,0.0,0.0,0.0,-0.02040146477520466,0.015399789437651634,0.009636150673031807,0.9999960660934448,-0.00237686512991786,-0.00024984555784612894,-0.0014548704493790865
100.0,0.0,0.0,0.0,0.0,0.0,0.0,-0.025380365550518036,-0.015724798664450645,0.0357578881084919,0.9999927282333374,-0.0027763720136135817,0.0009784222347661853,-0.0024109159130603075
101.0,0.0,0.0,0.0,0.0,0.0,0.0,0.00860978476703167,-0.01922796294093132,0.0013920849887654185,0.999989926815033,-0.0030998336151242256,0.00120343710295856,-0.0030056273099035025
102.0,0.0,0.0,0.0,0.0,0.0,0.0,-0.009315860457718372,0.014403271488845348,-0.00326061574742198,0.9999918341636658,-0.0026832036674022675,0.00036312727024778724,-0.003002900630235672
103.0,0.0,0.0,0.0,0.0,0.0,0.0,-0.010437901131808758,0.009382745251059532,0.0038199874106794596,0.9999904036521912,-0.0018502229359000921,0.0008572193910367787,-0.003869761945679784
104.0,0.0,0.0,0.0,0.0,0.0,0.0,0.008965550921857357,-0.005955165717750788,-0.012700799852609634,0.9999906420707703,-0.0012730745365843177,0.0010941596701741219,-0.003984931390732527
105.0,0.0,0.0,0.0,0.0,0.0,0.0,0.004020980559289455,-0.007005938328802586,-0.005384222604334354,0.9999901056289673,-0.0013948328560218215,0.001683043665252626,-0.0038789997342973948
106.0,0.0,0.0,0.0,0.0,0.0,0.0,0.004081618506461382,-0.00875533651560545,-0.007172299083322287,0.9999893307685852,-0.0012902198359370232,0.0024040034040808678,-0.003727120812982321
107.0,0.0,0.0,0.0,0.0,0.0,0.0,0.0018427378963679075,-0.001615582499653101,-0.008380819112062454,0.9999892711639404,-0.0008426252752542496,0.002653301227837801,-0.0037080019246786833
108.0,0.0,0.0,0.0,0.0,0.0,0.0,0.0010246516903862357,-0.0014928900636732578,-0.004471230320632458,0.9999866485595703,-0.00021112815011292696,0.00282901618629694,-0.00432266341522336
109.0,0.0,0.0,0.0,0.0,0.0,0.0,0.0019983858801424503,-0.006608565337955952,-0.0042734150774776936,0.9999828934669495,0.00013658430543728173,0.002657229546457529,-0.0052130380645394325
110.0,0.0,0.0,0.0,0.0,0.0,0.0,0.00034382406738586724,-0.005133716389536858,-0.002501322655007243,0.9999836087226868,0.0002512201899662614,0.0029339853208512068,-0.004907822236418724
111.0,0.0,0.0,0.0,0.0,0.0,0.0,-0.00224517285823822,0.001190885785035789,0.0026688287034630775,0.9999861717224121,-8.499489194946364e-05,0.003539106110110879,-0.0038856847677379847
112.0,0.0,0.0,0.0,0.0,0.0,0.0,-0.0015014618402346969,0.006387633271515369,0.0003791806229855865,0.9999891519546509,-0.0003653824969660491,0.0038029272109270096,-0.0026601050049066544
113.0,0.0,0.0,0.0,0.0,0.0,0.0,-0.0030931937508285046,0.0034560977946966887,0.00036577845457941294,0.9999898672103882,-0.0004090051806997508,0.003952753730118275,-0.0021100533194839954
114.0,0.0,0.0,0.0,0.0,0.0,0.0,-0.0029170133639127016,-0.000534261460416019,0.0035844421945512295,0.9999902844429016,-0.00021567862131632864,0.0037901795003563166,-0.0022508285474032164
115.0,0.0,0.0,0.0,0.0,0.0,0.0,-0.0030659649055451155,0.001965154428035021,0.0037257918156683445,0.9999901056289673,0.00011929331230930984,0.0035573882050812244,-0.002657057484611869
116.0,0.0,0.0,0.0,0.0,0.0,0.0,-0.004664949607104063,0.0029330593533813953,0.002621784107759595,0.9999891519546509,0.0005560472491197288,0.003347844583913684,-0.0031914771534502506
117.0,0.0,0.0,0.0,0.0,0.0,0.0,-0.0044461823999881744,-0.0021911910735070705,0.0037115118466317654,0.9999854564666748,0.0007917951443232596,0.003964768256992102,-0.0035623444709926844
118.0,0.0,0.0,0.0,0.0,0.0,0.0,0.0003394237137399614,-0.008364642970263958,0.0029874765314161777,0.9999713897705078,0.0011849815491586924,0.0064087542705237865,-0.0038337993901222944
119.0,0.0,0.0,0.0,0.0,0.0,0.0,-0.00020782556384801865,-0.021348383277654648,0.008572904393076897,0.9999567270278931,0.0011927871964871883,0.008596429601311684,-0.0033503479789942503
120.0,0.0,0.0,0.0,0.0,0.0,0.0,0.006318690255284309,-0.08776296675205231,0.053415894508361816,0.9998738765716553,-0.0008854846237227321,0.012896871194243431,-0.009225227870047092
121.0,0.0,0.0,0.0,0.0,0.0,0.0,0.13789977133274078,-0.031139761209487915,-0.1739756315946579,0.9999693632125854,-0.0001055289976648055,0.0039942399598658085,-0.006727042607963085
122.0,0.0,0.0,0.0,0.0,0.0,0.0,-0.12888062000274658,0.07413899153470993,0.13193686306476593,0.9999634027481079,0.0007164859562180936,0.008027506992220879,-0.0028703114949166775
123.0,0.0,0.0,0.0,0.0,0.0,0.0,0.06501724570989609,-0.1116175577044487,-0.030824951827526093,0.9999098777770996,0.00039615968125872314,0.009095016866922379,-0.009865943342447281
124.0,0.0,0.0,0.0,0.0,0.0,0.0,-0.01580941677093506,0.062043704092502594,-0.0027978962752968073,0.9999372959136963,-0.001004440477117896,0.007673791144043207,-0.008090044371783733
125.0,0.0,0.0,0.0,0.0,0.0,0.0,-0.012097479775547981,-0.011377383954823017,0.017255239188671112,0.9999282956123352,-0.001420824439264834,0.00855067279189825,-0.008263753727078438
126.0,0.0,0.0,0.0,0.0,0.0,0.0,0.011089886538684368,-0.0451568141579628,-0.013589182868599892,0.9999314546585083,-0.0004019650805275887,0.00649831211194396,-0.009733251295983791
127.0,0.0,0.0,0.0,0.0,0.0,0.0,-0.03855819255113602,-0.0032163297291845083,0.05856369435787201,0.9999206066131592,-0.002164555015042424,0.007266441825777292,-0.010063664056360722
128.0,0.0,0.0,0.0,0.0,0.0,0.0,0.011030381545424461,0.00471345242112875,0.003730318509042263,0.9999142289161682,-0.003594833193346858,0.007154746446758509,-0.010363778099417686
129.0,0.0,0.0,0.0,0.0,0.0,0.0,-0.005689812358468771,0.015987057238817215,-0.001994098536670208,0.9999133348464966,-0.0035892489831894636,0.007285797968506813,-0.010361273773014545
130.0,0.0,0.0,0.0,0.0,0.0,0.0,-0.01333403866738081,0.029456203803420067,0.014954399317502975,0.9998969435691833,-0.004676302894949913,0.008475054986774921,-0.010602873750030994
131.0,0.0,0.0,0.0,0.0,0.0,0.0,0.004966200795024633,0.013329056091606617,0.009167877025902271,0.9998864531517029,-0.005187771283090115,0.008860157802700996,-0.011028277687728405
132.0,0.0,0.0,0.0,0.0,0.0,0.0,0.00645958399400115,0.008034279569983482,-0.003266524523496628,0.9998788833618164,-0.005235643591731787,0.009684146381914616,-0.010999996215105057
133.0,0.0,0.0,0.0,0.0,0.0,0.0,0.006708951201289892,0.011411558836698532,-0.008515948429703712,0.9998717308044434,-0.004998764023184776,0.009843016974627972,-0.011600608937442303
134.0,0.0,0.0,0.0,0.0,0.0,0.0,0.006633387412875891,0.00887791346758604,-0.0035444824025034904,0.9998648166656494,-0.004842017777264118,0.009660051204264164,-0.012394651770591736
135.0,0.0,0.0,0.0,0.0,0.0,0.0,0.006333114579319954,0.0068445876240730286,-0.005184655077755451,0.9998685121536255,-0.0045812372118234634,0.009914036840200424,-0.01198708824813366
136.0,0.0,0.0,0.0,0.0,0.0,0.0,0.0024405603762716055,0.0068555548787117004,-0.0018773881020024419,0.9998637437820435,-0.005070333834737539,0.010806878097355366,-0.011400439776480198
137.0,0.0,0.0,0.0,0.0,0.0,0.0,-0.0008463422418572009,0.007492195349186659,-0.004854461643844843,0.999850332736969,-0.0055798934772610664,0.01187361590564251,-0.01127580739557743
138.0,0.0,0.0,0.0,0.0,0.0,0.0,-0.00208666711114347,0.01234090980142355,-0.0011657929280772805,0.9998509883880615,-0.0057914601638913155,0.01227124035358429,-0.010672814212739468
139.0,0.0,0.0,0.0,0.0,0.0,0.0,-0.005703751463443041,0.013996005058288574,-0.0005533273797482252,0.9998565316200256,-0.005357068032026291,0.012398497201502323,-0.010219603776931763
140.0,0.0,0.0,0.0,0.0,0.0,0.0,-0.0047977096401154995,0.004651240073144436,0.0027821073308587074,0.9998548626899719,-0.004777266178280115,0.012443565763533115,-0.010607141070067883
141.0,0.0,0.0,0.0,0.0,0.0,0.0,-0.002675270661711693,0.0024398418609052896,0.005870111286640167,0.9998542070388794,-0.004506004508584738,0.012258842587471008,-0.010996549390256405
142.0,0.0,0.0,0.0,0.0,0.0,0.0,-0.0035717524588108063,0.005485299974679947,0.006364492699503899,0.9998483061790466,-0.004243764095008373,0.013109484687447548,-0.010652432218194008
143.0,0.0,0.0,0.0,0.0,0.0,0.0,-0.0032553046476095915,0.006872104946523905,0.007187723182141781,0.9998381733894348,-0.004562966991215944,0.014400922693312168,-0.009770452976226807
144.0,0.0,0.0,0.0,0.0,0.0,0.0,0.0015741658862680197,0.00622865604236722,0.007469114847481251,0.9998237490653992,-0.004828616511076689,0.01567976363003254,-0.009125716984272003
145.0,0.0,0.0,0.0,0.0,0.0,0.0,0.005763148423284292,0.004666720051318407,-0.00019610452000051737,0.9997810125350952,-0.004018058534711599,0.018161054700613022,-0.009585775434970856
146.0,0.0,0.0,0.0,0.0,0.0,0.0,0.014243261888623238,-0.003542473306879401,-0.003696074476465583,0.9997262954711914,-0.0031025505159050226,0.020839061588048935,-0.01017195824533701
147.0,0.0,0.0,0.0,0.0,0.0,0.0,0.05439338833093643,-0.04095887765288353,0.00946027785539627,0.999670147895813,-0.0026905618142336607,0.02201949805021286,-0.012939870357513428
148.0,0.0,0.0,0.0,0.0,0.0,0.0,0.1700950413942337,-0.06203519180417061,-0.21270185708999634,0.9998277425765991,-0.0016467076493427157,0.013329163193702698,-0.012810744345188141
149.0,0.0,0.0,0.0,0.0,0.0,0.0,-0.1285434514284134,0.05698006972670555,0.16303260624408722,0.9998342394828796,-0.001651280908845365,0.01691240258514881,-0.0065354541875422
150.0,0.0,0.0,0.0,0.0,0.0,0.0,0.057938799262046814,-0.13715900480747223,0.005698602180927992,0.9996861219406128,-0.0030958952847868204,0.02011248655617237,-0.01461152546107769
151.0,0.0,0.0,0.0,0.0,0.0,0.0,0.002705132821574807,0.008850621990859509,0.0025751322973519564,0.9996418356895447,-0.007090648170560598,0.021267833188176155,-0.014612277038395405
152.0,0.0,0.0,0.0,0.0,0.0,0.0,-0.030861839652061462,0.06073828041553497,0.03675663843750954,0.9996362328529358,-0.0065820487216115,0.022759975865483284,-0.012885162606835365
153.0,0.0,0.0,0.0,0.0,0.0,0.0,0.022703981027007103,-0.02720688283443451,-0.03098265267908573,0.999668538570404,-0.005298319738358259,0.019812315702438354,-0.015562889166176319
154.0,0.0,0.0,0.0,0.0,0.0,0.0,-0.015496399253606796,-0.02359328791499138,0.03235461190342903,0.9996553659439087,-0.007688732352107763,0.01887539215385914,-0.016544336453080177
155.0,0.0,0.0,0.0,0.0,0.0,0.0,0.008502318523824215,-0.029771579429507256,0.010896420106291771,0.9996954202651978,-0.009414616972208023,0.015286076813936234,-0.016931403428316116
156.0,0.0,0.0,0.0,0.0,0.0,0.0,-0.021904615685343742,-0.01984965056180954,0.011801838874816895,0.9997068643569946,-0.010901651345193386,0.013147017918527126,-0.01715940237045288
157.0,0.0,0.0,0.0,0.0,0.0,0.0,-0.044010329991579056,0.03532290458679199,0.02783430553972721,0.9996848106384277,-0.011985983699560165,0.012734984047710896,-0.018008697777986526
158.0,0.0,0.0,0.0,0.0,0.0,0.0,-0.03003362938761711,0.026203284040093422,0.02184060402214527,0.9996708631515503,-0.012309537269175053,0.01249291654676199,-0.01872364990413189
159.0,0.0,0.0,0.0,0.0,0.0,0.0,-0.002226126380264759,-0.005792566109448671,0.011055798269808292,0.999666690826416,-0.01206777710467577,0.011958234012126923,-0.019437411800026894
160.0,0.0,0.0,0.0,0.0,0.0,0.0,0.013178020715713501,-0.008424247615039349,-0.00014874465705361217,0.9996545314788818,-0.01257237046957016,0.011695216409862041,-0.019897188991308212
161.0,0.0,0.0,0.0,0.0,0.0,0.0,0.02185763046145439,-0.005330545362085104,-0.008903603069484234,0.9996533989906311,-0.013439417816698551,0.011092638596892357,-0.01972980611026287
162.0,0.0,0.0,0.0,0.0,0.0,0.0,0.023372450843453407,-0.002214982407167554,-0.02585429884493351,0.9996579885482788,-0.014146293513476849,0.009801647625863552,-0.019688257947564125
163.0,0.0,0.0,0.0,0.0,0.0,0.0,0.015504654496908188,0.004115081857889891,-0.021477648988366127,0.9996739029884338,-0.014111623167991638,0.00791562907397747,-0.019755618646740913
164.0,0.0,0.0,0.0,0.0,0.0,0.0,0.006357220467180014,0.018911508843302727,0.0023996431846171618,0.9996851682662964,-0.0137168662622571,0.006594288162887096,-0.01994478516280651
165.0,0.0,0.0,0.0,0.0,0.0,0.0,0.00615726737305522,0.02483822964131832,-0.00027464298182167113,0.9996843934059143,-0.013113698922097683,0.006108568515628576,-0.02053769677877426
166.0,0.0,0.0,0.0,0.0,0.0,0.0,0.008930491283535957,0.014547345228493214,-0.006590521894395351,0.9996910095214844,-0.01230138074606657,0.005882503930479288,-0.020782656967639923
167.0,0.0,0.0,0.0,0.0,0.0,0.0,0.025570789352059364,-0.002934413030743599,-0.014515304006636143,0.9996970891952515,-0.011619862169027328,0.005854093004018068,-0.020890219137072563
168.0,0.0,0.0,0.0,0.0,0.0,0.0,0.02871542051434517,-0.013045798987150192,-0.013131467625498772,0.9996874332427979,-0.011570385657250881,0.006423292215913534,-0.02120811864733696
169.0,0.0,0.0,0.0,0.0,0.0,0.0,0.013406242243945599,0.001016822992824018,0.003249284578487277,0.9996761083602905,-0.01184999942779541,0.007577570620924234,-0.021208077669143677
170.0,0.0,0.0,0.0,0.0,0.0,0.0,-0.0008789809071458876,0.015372269786894321,0.013467919081449509,0.9996670484542847,-0.011682633310556412,0.009321709163486958,-0.021031077951192856
171.0,0.0,0.0,0.0,0.0,0.0,0.0,-0.00273660640232265,0.01676780730485916,0.015225379727780819,0.9996444582939148,-0.011013738811016083,0.01158487144857645,-0.021339191123843193
172.0,0.0,0.0,0.0,0.0,0.0,0.0,0.00034648895962163806,0.017534194514155388,0.018605511635541916,0.9996073246002197,-0.01008925773203373,0.014267210848629475,-0.021903105080127716
173.0,0.0,0.0,0.0,0.0,0.0,0.0,0.004211906343698502,0.017501231282949448,0.014012524858117104,0.9995605945587158,-0.009000797756016254,0.017608696594834328,-0.022079039365053177
174.0,0.0,0.0,0.0,0.0,0.0,0.0,0.008727848529815674,0.004082406405359507,0.00639153178781271,0.9995236396789551,-0.007946297526359558,0.020715611055493355,-0.021450811997056007
175.0,0.0,0.0,0.0,0.0,0.0,0.0,0.014383411034941673,-0.01044740341603756,0.0014541229465976357,0.9994920492172241,-0.006770288106054068,0.023775994777679443,-0.020109500735998154
176.0,0.0,0.0,0.0,0.0,0.0,0.0,0.013468218967318535,-0.0133353928104043,0.0014305028598755598,0.999423623085022,-0.0060637337155640125,0.027311086654663086,-0.01922493614256382
177.0,0.0,0.0,0.0,0.0,0.0,0.0,0.004211306571960449,-0.012251094914972782,0.016926681622862816,0.9993073344230652,-0.005579260643571615,0.03139305114746094,-0.019184593111276627
178.0,0.0,0.0,0.0,0.0,0.0,0.0,0.008757177740335464,-0.0031226591672748327,0.008578016422688961,0.9991821646690369,-0.005159477237612009,0.03522266075015068,-0.019170479848980904
179.0,0.0,0.0,0.0,0.0,0.0,0.0,0.01939101703464985,-0.0009631921420805156,0.0023629723582416773,0.9990716576576233,-0.004636868834495544,0.03836319223046303,-0.01903383433818817
180.0,0.0,0.0,0.0,0.0,0.0,0.0,0.06460712105035782,-0.029104800894856453,-0.1272445023059845,0.9989930987358093,-0.004857251886278391,0.040062859654426575,-0.01959577016532421
181.0,0.0,0.0,0.0,0.0,0.0,0.0,0.02993742935359478,-0.039696745574474335,-0.016080662608146667,0.9989196062088013,-0.006830810569226742,0.040732115507125854,-0.021299319341778755
182.0,0.0,0.0,0.0,0.0,0.0,0.0,0.03554387763142586,-0.03674373775720596,-0.012802189216017723,0.9989225268363953,-0.010129915550351143,0.038841377943754196,-0.02328869327902794
183.0,0.0,0.0,0.0,0.0,0.0,0.0,0.0005560661666095257,-0.01930137537419796,0.0067039234563708305,0.9990019798278809,-0.014247962273657322,0.03397034853696823,-0.025256207212805748
184.0,0.0,0.0,0.0,0.0,0.0,0.0,-0.028451325371861458,-0.01085343211889267,0.03289220482110977,0.9991048574447632,-0.01919792778789997,0.025434160605072975,-0.027817413210868835
185.0,0.0,0.0,0.0,0.0,0.0,0.0,-0.06604449450969696,0.006089407484978437,0.04978880658745766,0.9991289973258972,-0.023677289485931396,0.01608780398964882,-0.03035859391093254
186.0,0.0,0.0,0.0,0.0,0.0,0.0,-0.06727273762226105,0.03755539283156395,0.07761848717927933,0.9991545677185059,-0.0246378555893898,0.006568631622940302,-0.03224513307213783
187.0,0.0,0.0,0.0,0.0,0.0,0.0,-0.04486386105418205,0.04994897171854973,0.03943443298339844,0.9991677403450012,-0.022035876289010048,-0.0015833762008696795,-0.034285783767700195
188.0,0.0,0.0,0.0,0.0,0.0,0.0,0.0055207302793860435,0.01949433423578739,-0.023418912664055824,0.9991148710250854,-0.01834242045879364,-0.007469265256077051,-0.03710754215717316
189.0,0.0,0.0,0.0,0.0,0.0,0.0,0.03947056084871292,0.006590522825717926,-0.004198333714157343,0.9990326762199402,-0.014122038148343563,-0.014159241691231728,-0.039161909371614456
190.0,0.0,0.0,0.0,0.0,0.0,0.0,0.048715364187955856,-0.010735775344073772,-0.03246895968914032,0.9989072680473328,-0.011273390613496304,-0.01984984241425991,-0.04078284651041031
191.0,0.0,0.0,0.0,0.0,0.0,0.0,0.03954284265637398,-0.009549083188176155,-0.054495181888341904,0.9987301826477051,-0.008832938969135284,-0.024474425241351128,-0.043138351291418076
192.0,0.0,0.0,0.0,0.0,0.0,0.0,0.04409432038664818,-0.006655906792730093,-0.07276468724012375,0.998441755771637,-0.006890051066875458,-0.02941422536969185,-0.0469142384827137
193.0,0.0,0.0,0.0,0.0,0.0,0.0,0.05702688544988632,-0.012447336688637733,-0.07211022824048996,0.9980636835098267,-0.006542656570672989,-0.03647810220718384,-0.04994962736964226
194.0,0.0,0.0,0.0,0.0,0.0,0.0,0.06484578549861908,-0.016399173066020012,-0.07106232643127441,0.9975706338882446,-0.008984818123281002,-0.045547839254140854,-0.05193384364247322
195.0,0.0,0.0,0.0,0.0,0.0,0.0,-0.01505475677549839,-0.006524731870740652,-0.023291226476430893,0.9970710873603821,-0.014948624186217785,-0.052695382386446,-0.05336736887693405
196.0,0.0,0.0,0.0,0.0,0.0,0.0,-0.03916705399751663,-0.01146524678915739,-0.0024563686456531286,0.9966932535171509,-0.02163670025765896,-0.0547187514603138,-0.056035641580820084
197.0,0.0,0.0,0.0,0.0,0.0,0.0,-0.05643302574753761,-0.014775119721889496,0.05239158123731613,0.9963616132736206,-0.025834420695900917,-0.0562078058719635,-0.05862210690975189
198.0,0.0,0.0,0.0,0.0,0.0,0.0,-0.07265982776880264,0.00587202375754714,0.04793422296643257,0.9962040185928345,-0.02769518829882145,-0.054840605705976486,-0.06166353449225426
199.0,0.0,0.0,0.0,0.0,0.0,0.0,-0.04364895448088646,-0.0037402918096631765,0.033127810806035995,0.9960497617721558,-0.02945551835000515,-0.05288057029247284,-0.06496171653270721
200.0,0.0,0.0,0.0,0.0,0.0,0.0,-0.024165386334061623,0.005784500855952501,0.01994149573147297,0.9959719777107239,-0.03029375523328781,-0.05093016102910042,-0.06728522479534149
201.0,0.0,0.0,0.0,0.0,0.0,0.0,-0.021863941103219986,0.020029518753290176,0.01638765260577202,0.9960124492645264,-0.030156223103404045,-0.048402395099401474,-0.06860324740409851
202.0,0.0,0.0,0.0,0.0,0.0,0.0,-0.033425647765398026,0.021801020950078964,0.02214713767170906,0.9961509704589844,-0.02992437221109867,-0.0450851209461689,-0.06895055621862411
203.0,0.0,0.0,0.0,0.0,0.0,0.0,-0.023176750168204308,0.021758396178483963,0.028445297852158546,0.9963433742523193,-0.02898358926177025,-0.04199020564556122,-0.0685279369354248
204.0,0.0,0.0,0.0,0.0,0.0,0.0,-0.02193519100546837,0.03067791275680065,0.013240644708275795,0.9965960383415222,-0.02789720892906189,-0.038431257009506226,-0.06738492101430893
205.0,0.0,0.0,0.0,0.0,0.0,0.0,-0.015823518857359886,0.02518666908144951,-0.005329456180334091,0.9969320297241211,-0.026922322809696198,-0.03497735410928726,-0.06463503837585449
206.0,0.0,0.0,0.0,0.0,0.0,0.0,-0.015659542754292488,0.007815125398337841,0.0146194351837039,0.997236967086792,-0.02564842626452446,-0.034059684723615646,-0.06082901358604431
207.0,0.0,0.0,0.0,0.0,0.0,0.0,0.008894926868379116,0.010611019097268581,0.017350763082504272,0.997545599937439,-0.023800773546099663,-0.03440915793180466,-0.0561441108584404
208.0,0.0,0.0,0.0,0.0,0.0,0.0,0.039934586733579636,0.01010311022400856,-0.03932059928774834,0.997740626335144,-0.022234369069337845,-0.03571814298629761,-0.05237441137433052
209.0,0.0,0.0,0.0,0.0,0.0,0.0,0.04492554813623428,-0.006168858613818884,-0.0488598607480526,0.9978294968605042,-0.022132210433483124,-0.0374971479177475,-0.04939698427915573
210.0,0.0,0.0,0.0,0.0,0.0,0.0,0.032939281314611435,-0.0038021791260689497,-0.03105776384472847,0.9979242086410522,-0.024126427248120308,-0.03815314173698425,-0.04592839628458023
211.0,0.0,0.0,0.0,0.0,0.0,0.0,0.031217698007822037,-0.026725279167294502,-0.03287892788648605,0.9979756474494934,-0.027065977454185486,-0.03722015395760536,-0.04389224201440811
212.0,0.0,0.0,0.0,0.0,0.0,0.0,0.014388010837137699,-0.020633259788155556,-0.012570975348353386,0.9980230331420898,-0.030359236523509026,-0.03406054526567459,-0.04321692883968353
213.0,0.0,0.0,0.0,0.0,0.0,0.0,-0.00259704003110528,-0.006759835407137871,0.021212056279182434,0.9979840517044067,-0.032756466418504715,-0.03092392347753048,-0.04469944164156914
214.0,0.0,0.0,0.0,0.0,0.0,0.0,-0.009396377019584179,-0.0020490773022174835,0.024341247975826263,0.99786376953125,-0.03456772118806839,-0.02883792854845524,-0.047341953963041306
215.0,0.0,0.0,0.0,0.0,0.0,0.0,-0.010515366680920124,0.015001941472291946,0.015958145260810852,0.9978100061416626,-0.035432733595371246,-0.027655331417918205,-0.04852249473333359
216.0,0.0,0.0,0.0,0.0,0.0,0.0,-0.0018897096160799265,0.027821771800518036,0.008396060205996037,0.9978394508361816,-0.03524627536535263,-0.02768709324300289,-0.04803231731057167
217.0,0.0,0.0,0.0,0.0,0.0,0.0,-0.015436459332704544,0.02532416582107544,-6.289246812229976e-05,0.9978699684143066,-0.034929078072309494,-0.02692268043756485,-0.04806872457265854
218.0,0.0,0.0,0.0,0.0,0.0,0.0,0.007579418830573559,0.01726142317056656,-0.0016763617750257254,0.9979559779167175,-0.03463541716337204,-0.026305610314011574,-0.04681287705898285
219.0,0.0,0.0,0.0,0.0,0.0,0.0,0.02594585530459881,0.00839191023260355,-0.00951436534523964,0.9980540871620178,-0.034147921949625015,-0.026366088539361954,-0.04501766338944435
220.0,0.0,0.0,0.0,0.0,0.0,0.0,0.017328526824712753,0.008643297478556633,-0.0024966620840132236,0.9981430172920227,-0.03384719789028168,-0.025169895961880684,-0.04394172504544258
221.0,0.0,0.0,0.0,0.0,0.0,0.0,0.007514642085880041,0.01262903492897749,0.004915512632578611,0.9981841444969177,-0.03379911929368973,-0.024323221296072006,-0.04352109879255295
222.0,0.0,0.0,0.0,0.0,0.0,0.0,0.0004032813594676554,0.019907088950276375,-0.004033725243061781,0.9982333183288574,-0.033697254955768585,-0.02349158562719822,-0.0429251529276371
223.0,0.0,0.0,0.0,0.0,0.0,0.0,-0.0007476594764739275,0.018502604216337204,-0.006255355663597584,0.9983114004135132,-0.03308529406785965,-0.022431975230574608,-0.04214378073811531
224.0,0.0,0.0,0.0,0.0,0.0,0.0,0.0019089573761448264,-0.005795287434011698,0.006953737698495388,0.9983580708503723,-0.03300955519080162,-0.021892346441745758,-0.041377246379852295
225.0,0.0,0.0,0.0,0.0,0.0,0.0,0.005075154360383749,-0.014954383485019207,0.012318363413214684,0.9983468651771545,-0.03320252522826195,-0.02113192342221737,-0.041884757578372955
226.0,0.0,0.0,0.0,0.0,0.0,0.0,0.007873725146055222,-0.010083978995680809,0.002051194664090872,0.9983198642730713,-0.03345833718776703,-0.020784741267561913,-0.042492303997278214
227.0,0.0,0.0,0.0,0.0,0.0,0.0,0.02536383643746376,-0.013992422260344028,-0.01390990149229765,0.9982396960258484,-0.034365568310022354,-0.021472914144396782,-0.043297264724969864
228.0,0.0,0.0,0.0,0.0,0.0,0.0,0.017741374671459198,-0.009990538470447063,-0.008781163021922112,0.9980930685997009,-0.036398496478796005,-0.023018501698970795,-0.04421870782971382
229.0,0.0,0.0,0.0,0.0,0.0,0.0,0.015031369403004646,-0.004776563961058855,-0.008942910470068455,0.9978634715080261,-0.03879297524690628,-0.02549033798277378,-0.045974988490343094
230.0,0.0,0.0,0.0,0.0,0.0,0.0,0.013799968175590038,-0.012340459041297436,-0.017629168927669525,0.9975617527961731,-0.041674740612506866,-0.028446143493056297,-0.04820597544312477
231.0,0.0,0.0,0.0,0.0,0.0,0.0,0.00042025704169645905,-0.02290961891412735,-0.003273529000580311,0.9971659183502197,-0.0451846569776535,-0.032900888472795486,-0.05035091191530228
232.0,0.0,0.0,0.0,0.0,0.0,0.0,-0.016856780275702477,-0.003003042656928301,0.004547715652734041,0.996760904788971,-0.048445746302604675,-0.03710319474339485,-0.05237889289855957
233.0,0.0,0.0,0.0,0.0,0.0,0.0,-0.02294505573809147,0.0006633278680965304,0.008535556495189667,0.9963218569755554,-0.05211236700415611,-0.0400879941880703,-0.05493801459670067
234.0,0.0,0.0,0.0,0.0,0.0,0.0,-0.031112585216760635,0.01841162145137787,0.016099855303764343,0.9958946704864502,-0.055446967482566833,-0.043476805090904236,-0.05682020261883736
235.0,0.0,0.0,0.0,0.0,0.0,0.0,-0.029027573764324188,0.021469024941325188,0.014472952112555504,0.995512068271637,-0.058313943445682526,-0.04639582335948944,-0.05832971632480621
236.0,0.0,0.0,0.0,0.0,0.0,0.0,-0.03373873233795166,0.03194462135434151,0.007630693726241589,0.9951923489570618,-0.06067032739520073,-0.04819947108626366,-0.05989404767751694
237.0,0.0,0.0,0.0,0.0,0.0,0.0,-0.031206931918859482,0.03608189895749092,-0.005020439624786377,0.994884192943573,-0.06110303848981857,-0.050243180245161057,-0.06281398981809616
238.0,0.0,0.0,0.0,0.0,0.0,0.0,-0.04316093027591705,0.026904715225100517,0.011891410686075687,0.9947670698165894,-0.06142599508166313,-0.049898214638233185,-0.0646057203412056
239.0,0.0,0.0,0.0,0.0,0.0,0.0,-0.024108707904815674,0.03310875594615936,0.006159833632409573,0.994828462600708,-0.060812994837760925,-0.04716133698821068,-0.06627743691205978
240.0,0.0,0.0,0.0,0.0,0.0,0.0,-0.024344759061932564,0.026781808584928513,0.0018617428140714765,0.9948986172676086,-0.05965584143996239,-0.04316255822777748,-0.06895303726196289
241.0,0.0,0.0,0.0,0.0,0.0,0.0,-0.016319243237376213,0.006517772562801838,0.04228963702917099,0.9949721097946167,-0.05826827511191368,-0.039361175149679184,-0.07130511105060577
242.0,0.0,0.0,0.0,0.0,0.0,0.0,-0.08680552989244461,0.040047332644462585,0.046136338263750076,0.9953171610832214,-0.05572137609124184,-0.030326079577207565,-0.07292956113815308
243.0,0.0,0.0,0.0,0.0,0.0,0.0,-0.080343097448349,0.03481196239590645,0.059932075440883636,0.9956205487251282,-0.05001402646303177,-0.01774303987622261,-0.07696395367383957
244.0,0.0,0.0,0.0,0.0,0.0,0.0,-0.01226190384477377,0.031059682369232178,0.03843807801604271,0.995949923992157,-0.042005185037851334,-0.007764177396893501,-0.07911160588264465
245.0,0.0,0.0,0.0,0.0,0.0,0.0,0.021779833361506462,0.012769287452101707,-0.0014047002186998725,0.9961665868759155,-0.03358465060591698,-0.0008383648819290102,-0.0807654932141304
246.0,0.0,0.0,0.0,0.0,0.0,0.0,0.05743751302361488,0.00730858976021409,-0.03324339911341667,0.996458888053894,-0.026563376188278198,0.0068177045322954655,-0.07948064804077148
247.0,0.0,0.0,0.0,0.0,0.0,0.0,0.09501209855079651,-0.0017265076749026775,-0.07869942486286163,0.9967770576477051,-0.021178027614951134,0.015732036903500557,-0.07575975358486176
248.0,0.0,0.0,0.0,0.0,0.0,0.0,0.12185661494731903,-0.017547106370329857,-0.04309212416410446,0.9969862699508667,-0.01678040623664856,0.02172870934009552,-0.07255419343709946
249.0,0.0,0.0,0.0,0.0,0.0,0.0,0.07630439847707748,-0.018454698845744133,-0.0519205741584301,0.9970346093177795,-0.01579972170293331,0.02630830928683281,-0.07056671380996704
250.0,0.0,0.0,0.0,0.0,0.0,0.0,0.04313553869724274,-0.028269438073039055,-0.0051417965441942215,0.9970461130142212,-0.016951264813542366,0.02763635292649269,-0.06962434202432632
251.0,0.0,0.0,0.0,0.0,0.0,0.0,0.06347861140966415,-0.01054324209690094,0.013658859767019749,0.9972469210624695,-0.018461307510733604,0.028163118287920952,-0.06606302410364151
252.0,0.0,0.0,0.0,0.0,0.0,0.0,0.012388833798468113,0.035541363060474396,-0.028041088953614235,0.9974262714385986,-0.021462775766849518,0.027788594365119934,-0.06250923126935959
253.0,0.0,0.0,0.0,0.0,0.0,0.0,-0.0523650087416172,0.04938606172800064,0.028813589364290237,0.9974855780601501,-0.02364334650337696,0.027782781049609184,-0.060757797211408615
254.0,0.0,0.0,0.0,0.0,0.0,0.0,-0.002585587790235877,0.04997964948415756,0.04455052316188812,0.9975912570953369,-0.022935478016734123,0.02897467091679573,-0.05870083346962929
255.0,0.0,0.0,0.0,0.0,0.0,0.0,0.02637362666428089,0.04344184696674347,-0.006859189365059137,0.9977158904075623,-0.020909346640110016,0.031272854655981064,-0.05610157549381256
256.0,0.0,0.0,0.0,0.0,0.0,0.0,0.011941342614591122,0.04234006628394127,-0.02077079750597477,0.9978692531585693,-0.018990837037563324,0.03228913992643356,-0.053416501730680466
257.0,0.0,0.0,0.0,0.0,0.0,0.0,0.03393267095088959,0.0052317120134830475,-7.377453584922478e-05,0.9980151653289795,-0.01867341250181198,0.03163223713636398,-0.05114965885877609
258.0,0.0,0.0,0.0,0.0,0.0,0.0,0.07691419124603271,-0.015968380495905876,-0.017782961949706078,0.9982249140739441,-0.018081223592162132,0.029098253697156906,-0.048715829849243164
259.0,0.0,0.0,0.0,0.0,0.0,0.0,0.08965825289487839,-0.018886594101786613,-0.05549559369683266,0.998457670211792,-0.019153621047735214,0.023492159321904182,-0.04651089385151863
260.0,0.0,0.0,0.0,0.0,0.0,0.0,0.09625719487667084,-0.023226389661431313,-0.05510830506682396,0.9986440539360046,-0.02265171892940998,0.014039057306945324,-0.04471641778945923
261.0,0.0,0.0,0.0,0.0,0.0,0.0,0.08079279214143753,-0.0117097282782197,-0.05984286591410637,0.9986487030982971,-0.027653047814965248,0.001722679822705686,-0.04396427795290947
262.0,0.0,0.0,0.0,0.0,0.0,0.0,0.0018811241025105119,-0.02489865943789482,-0.019492048770189285,0.9982888102531433,-0.03306161239743233,-0.009860937483608723,-0.04721267893910408
263.0,0.0,0.0,0.0,0.0,0.0,0.0,-0.0774703174829483,-0.004597663879394531,0.06780889630317688,0.9978407025337219,-0.039763227105140686,-0.018878338858485222,-0.04874381422996521
264.0,0.0,0.0,0.0,0.0,0.0,0.0,-0.16956906020641327,0.04177706316113472,0.12200718373060226,0.9974384307861328,-0.043737418949604034,-0.022827818989753723,-0.05179079994559288
265.0,0.0,0.0,0.0,0.0,0.0,0.0,-0.12842267751693726,0.06552377343177795,0.11846047639846802,0.9974468350410461,-0.043150339275598526,-0.020134620368480682,-0.05321986973285675
266.0,0.0,0.0,0.0,0.0,0.0,0.0,-0.02964693494141102,0.07568878680467606,0.03508489206433296,0.997707188129425,-0.03991053253412247,-0.01607350818812847,-0.052234139293432236
267.0,0.0,0.0,0.0,0.0,0.0,0.0,-0.03512699156999588,0.06724955886602402,-0.01905723847448826,0.9980262517929077,-0.03404136747121811,-0.0074236891232430935,-0.0522427000105381
268.0,0.0,0.0,0.0,0.0,0.0,0.0,0.012899316847324371,0.03090709261596203,0.0006611357093788683,0.9982772469520569,-0.028143394738435745,0.0006566632655449212,-0.05147634446620941
269.0,0.0,0.0,0.0,0.0,0.0,0.0,0.07439018040895462,-0.011963704600930214,0.005482801701873541,0.9985506534576416,-0.02269979938864708,0.008354905061423779,-0.048073649406433105
270.0,0.0,0.0,0.0,0.0,0.0,0.0,0.08498118072748184,-0.011385374702513218,-0.044498052448034286,0.9987748861312866,-0.01765706203877926,0.015711510553956032,-0.04346982762217522
271.0,0.0,0.0,0.0,0.0,0.0,0.0,0.05793256312608719,-0.020807433873414993,-0.047572989016771317,0.9988097548484802,-0.01670689322054386,0.02242249995470047,-0.039963603019714355
272.0,0.0,0.0,0.0,0.0,0.0,0.0,0.05204256623983383,-0.04457685351371765,0.0026572642382234335,0.9987779259681702,-0.018155550584197044,0.02799268811941147,-0.03645949810743332
273.0,0.0,0.0,0.0,0.0,0.0,0.0,0.04974224790930748,-0.02111811563372612,0.01111830584704876,0.9986581802368164,-0.01901966519653797,0.035007864236831665,-0.03308100625872612
274.0,0.0,0.0,0.0,0.0,0.0,0.0,0.028808556497097015,0.015006748028099537,-0.016046956181526184,0.9984849095344543,-0.0191609188914299,0.04059752821922302,-0.03181494027376175
275.0,0.0,0.0,0.0,0.0,0.0,0.0,0.029810825362801552,0.0034537436440587044,-0.0067583853378891945,0.9984074234962463,-0.019292045384645462,0.0409984327852726,-0.033606160432100296
276.0,0.0,0.0,0.0,0.0,0.0,0.0,0.015420257113873959,-0.009672940708696842,0.0035755112767219543,0.9982884526252747,-0.018741251900792122,0.04055245965719223,-0.03773254156112671
277.0,0.0,0.0,0.0,0.0,0.0,0.0,0.004144358914345503,-0.0030702860094606876,0.012453383766114712,0.9980908632278442,-0.01804850809276104,0.04202182590961456,-0.04150641709566116
278.0,0.0,0.0,0.0,0.0,0.0,0.0,0.028423497453331947,-0.012780849821865559,0.0024765583220869303,0.997917115688324,-0.017623648047447205,0.04332806169986725,-0.04441849887371063
279.0,0.0,0.0,0.0,0.0,0.0,0.0,0.03310611844062805,0.0009610441047698259,0.0050955056212842464,0.9977593421936035,-0.01770695671439171,0.04373772442340851,-0.04742446169257164
280.0,0.0,0.0,0.0,0.0,0.0,0.0,0.02088910900056362,0.02469014562666416,-0.0030324244871735573,0.9977360367774963,-0.018573423847556114,0.04367716237902641,-0.04764186590909958
281.0,0.0,0.0,0.0,0.0,0.0,0.0,0.022521108388900757,0.024069469422101974,-0.00019765070464927703,0.9978225231170654,-0.01908980682492256,0.04311668127775192,-0.04611304774880409
282.0,0.0,0.0,0.0,0.0,0.0,0.0,0.02047836221754551,0.024120742455124855,0.006830183789134026,0.9979445338249207,-0.01905817911028862,0.04195208474993706,-0.044536009430885315
283.0,0.0,0.0,0.0,0.0,0.0,0.0,0.018063658848404884,0.01806478016078472,0.010212890803813934,0.9981443285942078,-0.01944623701274395,0.03950607404112816,-0.04205403849482536
284.0,0.0,0.0,0.0,0.0,0.0,0.0,0.030403539538383484,0.0016092327423393726,0.006672313436865807,0.9983963966369629,-0.020650653168559074,0.03697508946061134,-0.037562936544418335
285.0,0.0,0.0,0.0,0.0,0.0,0.0,0.035636741667985916,-0.007849561050534248,-0.006698979996144772,0.998680591583252,-0.022300738841295242,0.03275921940803528,-0.03265354037284851
286.0,0.0,0.0,0.0,0.0,0.0,0.0,0.024883082136511803,-0.013795474544167519,-0.0008580437861382961,0.9989117980003357,-0.024512922391295433,0.027638699859380722,-0.02846231684088707
287.0,0.0,0.0,0.0,0.0,0.0,0.0,0.014391583390533924,-0.007112962193787098,0.011138354428112507,0.9990660548210144,-0.026593033224344254,0.022835223004221916,-0.025258254259824753
288.0,0.0,0.0,0.0,0.0,0.0,0.0,0.014170551672577858,-0.0006008673226460814,0.009310277178883553,0.9991843104362488,-0.02838055230677128,0.017757467925548553,-0.0225809495896101
289.0,0.0,0.0,0.0,0.0,0.0,0.0,0.016385989263653755,-0.000198435052880086,-0.0004072992887813598,0.9992508292198181,-0.030282899737358093,0.012661252170801163,-0.020499516278505325
290.0,0.0,0.0,0.0,0.0,0.0,0.0,0.004412917885929346,0.0003103514027316123,-0.002976419869810343,0.9992775917053223,-0.031573597341775894,0.00795838888734579,-0.019589578732848167
291.0,0.0,0.0,0.0,0.0,0.0,0.0,0.003753908444195986,-0.004826670046895742,0.008487017825245857,0.9992889165878296,-0.03247322142124176,0.0043646772392094135,-0.018650466576218605
292.0,0.0,0.0,0.0,0.0,0.0,0.0,0.004706484265625477,-0.00016253901412710547,0.0067151617258787155,0.9993025064468384,-0.03290022909641266,0.0019308911869302392,-0.01754957064986229
293.0,0.0,0.0,0.0,0.0,0.0,0.0,-0.015423716977238655,0.010029851458966732,0.013269777409732342,0.9992910623550415,-0.033340729773044586,0.001618652604520321,-0.01740160584449768
294.0,0.0,0.0,0.0,0.0,0.0,0.0,-0.008096698671579361,0.0072187380865216255,0.012579922564327717,0.9992899894714355,-0.0333164818584919,0.0017198105342686176,-0.017497483640909195
295.0,0.0,0.0,0.0,0.0,0.0,0.0,0.008427023887634277,-0.009150720201432705,0.009163251146674156,0.9992952942848206,-0.03256204351782799,0.0010227913735434413,-0.01863640360534191
296.0,0.0,0.0,0.0,0.0,0.0,0.0,-0.004286415409296751,-0.0006830972270108759,0.015586741268634796,0.9993045926094055,-0.03172140195965767,0.002048082184046507,-0.019480524584650993
297.0,0.0,0.0,0.0,0.0,0.0,0.0,-0.008895480073988438,0.007983466610312462,0.013602882623672485,0.9993501901626587,-0.029868388548493385,0.005296096205711365,-0.01946384273469448
298.0,0.0,0.0,0.0,0.0,0.0,0.0,-0.0042162686586380005,0.001453328295610845,0.011175509542226791,0.9993913769721985,-0.026933658868074417,0.008601723238825798,-0.02042631432414055
299.0,0.0,0.0,0.0,0.0,0.0,0.0,0.019099276512861252,-0.0037473742850124836,0.00022216937213670462,0.9994139671325684,-0.023872898891568184,0.011799797415733337,-0.021502148360013962
300.0,0.0,0.0,0.0,0.0,0.0,0.0,0.024292487651109695,-0.00974129419773817,-0.015397150069475174,0.9994050860404968,-0.021864010021090508,0.014386874623596668,-0.02245716005563736
301.0,0.0,0.0,0.0,0.0,0.0,0.0,0.015639884397387505,-0.017863478511571884,0.015383546240627766,0.9993541240692139,-0.019795557484030724,0.019280750304460526,-0.02296844683587551
302.0,0.0,0.0,0.0,0.0,0.0,0.0,0.023961221799254417,-0.01780625246465206,0.03227846696972847,0.9993122220039368,-0.017789268866181374,0.023020491003990173,-0.02299073152244091
303.0,0.0,0.0,0.0,0.0,0.0,0.0,0.0195855051279068,-0.004635486286133528,0.010295532643795013,0.9992713928222656,-0.0162642989307642,0.026149991899728775,-0.022543149068951607
304.0,0.0,0.0,0.0,0.0,0.0,0.0,0.003941958304494619,-0.0007759512518532574,0.009237958118319511,0.999222457408905,-0.015208171680569649,0.028935490176081657,-0.02203724905848503
305.0,0.0,0.0,0.0,0.0,0.0,0.0,0.013029382564127445,-0.013597887940704823,0.018499812111258507,0.9991522431373596,-0.01472607534378767,0.03125113993883133,-0.022385207936167717
306.0,0.0,0.0,0.0,0.0,0.0,0.0,0.025848746299743652,-0.015084090642631054,0.011110845021903515,0.9990557432174683,-0.01437245961278677,0.03375918045639992,-0.023257147520780563
307.0,0.0,0.0,0.0,0.0,0.0,0.0,0.031443480402231216,-0.006728001870214939,-0.0002519648114684969,0.9989558458328247,-0.013923099264502525,0.03599894046783447,-0.024433733895421028
308.0,0.0,0.0,0.0,0.0,0.0,0.0,0.04567120224237442,0.008748885244131088,-0.012141140177845955,0.9989097714424133,-0.013501591980457306,0.03694835677742958,-0.025129171088337898
309.0,0.0,0.0,0.0,0.0,0.0,0.0,0.034961193799972534,0.010981196537613869,-0.012070120312273502,0.9988787770271301,-0.0131362434476614,0.0375758595764637,-0.02562139369547367
310.0,0.0,0.0,0.0,0.0,0.0,0.0,0.030462220311164856,0.001764496904797852,-0.015730323269963264,0.9988877177238464,-0.012610279954969883,0.03724348545074463,-0.02601536735892296
311.0,0.0,0.0,0.0,0.0,0.0,0.0,0.03645753860473633,-0.008468774147331715,-0.009519747458398342,0.9988948106765747,-0.011775116436183453,0.037244684994220734,-0.026134509593248367
312.0,0.0,0.0,0.0,0.0,0.0,0.0,0.03673554211854935,-0.008283144794404507,-0.006943743210285902,0.9988811016082764,-0.010806753300130367,0.037842780351638794,-0.02622055821120739
313.0,0.0,0.0,0.0,0.0,0.0,0.0,0.034414492547512054,0.000948744302149862,-0.011595877818763256,0.9988662600517273,-0.01071428693830967,0.038117941468954086,-0.026422947645187378
314.0,0.0,0.0,0.0,0.0,0.0,0.0,0.03154977783560753,0.0002507181779947132,-0.013326233252882957,0.9988635182380676,-0.011064564809203148,0.038064535707235336,-0.02645776979625225
315.0,0.0,0.0,0.0,0.0,0.0,0.0,0.0414518304169178,-0.005436609033495188,-0.01211585570126772,0.998889684677124,-0.011686505749821663,0.03708914294838905,-0.02658899314701557
316.0,0.0,0.0,0.0,0.0,0.0,0.0,0.043785396963357925,-0.018245281651616096,-0.023956354707479477,0.9989116191864014,-0.01218758337199688,0.03526102006435394,-0.027988849207758904
317.0,0.0,0.0,0.0,0.0,0.0,0.0,0.022910689935088158,-0.006621783133596182,-0.02323400415480137,0.998914897441864,-0.01250451523810625,0.03214675188064575,-0.03128833696246147
318.0,0.0,0.0,0.0,0.0,0.0,0.0,0.005890932399779558,-0.005466919858008623,-0.009208968840539455,0.9989169836044312,-0.012472713366150856,0.025825919583439827,-0.03663709759712219
319.0,0.0,0.0,0.0,0.0,0.0,0.0,0.009174316190183163,-0.029085608199238777,0.01594952866435051,0.9987759590148926,-0.012053505517542362,0.017884789034724236,-0.044512368738651276
320.0,0.0,0.0,0.0,0.0,0.0,0.0,-0.0018792380578815937,-0.047151658684015274,-0.0015088131185621023,0.9983683228492737,-0.01246397104114294,0.013721918687224388,-0.05400804802775383
321.0,0.0,0.0,0.0,0.0,0.0,0.0,-0.053994547575712204,0.03748646378517151,0.026809314265847206,0.9981458187103271,-0.012608264572918415,0.011303259991109371,-0.05846310034394264
322.0,0.0,0.0,0.0,0.0,0.0,0.0,-0.03915424644947052,0.017207637429237366,0.04960827901959419,0.9980159401893616,-0.012763811275362968,0.00664587551727891,-0.061293020844459534
323.0,0.0,0.0,0.0,0.0,0.0,0.0,-0.027310997247695923,-0.013428980484604836,0.020522231236100197,0.9978922605514526,-0.01362097728997469,0.0038536731153726578,-0.06332696974277496
324.0,0.0,0.0,0.0,0.0,0.0,0.0,-0.0007868485408835113,-0.023198403418064117,-0.00910201296210289,0.9977346062660217,-0.014050927944481373,0.002487312536686659,-0.06573992222547531
325.0,0.0,0.0,0.0,0.0,0.0,0.0,0.014325464144349098,-0.03971455991268158,0.008335369639098644,0.997584342956543,-0.014848312363028526,0.0034632738679647446,-0.06777169555425644
326.0,0.0,0.0,0.0,0.0,0.0,0.0,-0.009199152700603008,0.006676021497696638,0.019022122025489807,0.9974893927574158,-0.01532401517033577,0.005847486201673746,-0.06888777762651443
327.0,0.0,0.0,0.0,0.0,0.0,0.0,0.016184793785214424,0.054034050554037094,0.015206562355160713,0.9974431395530701,-0.014213461428880692,0.00715151010081172,-0.06966894865036011
328.0,0.0,0.0,0.0,0.0,0.0,0.0,-0.06197227165102959,0.0039799148216843605,-0.00031471351394429803,0.9973527193069458,-0.014817869290709496,0.009004514664411545,-0.07061551511287689
329.0,0.0,0.0,0.0,0.0,0.0,0.0,-0.0025872071273624897,-0.031003499403595924,0.03745003044605255,0.9973086714744568,-0.015108287334442139,0.013690619729459286,-0.07042255252599716
330.0,0.0,0.0,0.0,0.0,0.0,0.0,0.00034157128538936377,0.014169159345328808,0.015688447281718254,0.9974325895309448,-0.013168543577194214,0.01866624504327774,-0.06786800920963287
331.0,0.0,0.0,0.0,0.0,0.0,0.0,-0.02378152124583721,-0.027532823383808136,-0.014250250533223152,0.9973511695861816,-0.01117517426609993,0.02165468968451023,-0.06853169202804565
332.0,0.0,0.0,0.0,0.0,0.0,0.0,0.01164924819022417,-0.004074649419635534,0.021443059667944908,0.9975422620773315,-0.008718782104551792,0.02293461374938488,-0.0656278133392334
333.0,0.0,0.0,0.0,0.0,0.0,0.0,0.03664819896221161,0.03261210396885872,0.0015013510128483176,0.9979535937309265,-0.0054901461116969585,0.021099593490362167,-0.06010755896568298
334.0,0.0,0.0,0.0,0.0,0.0,0.0,0.034984126687049866,-0.04570399597287178,-0.020592734217643738,0.9981401562690735,-0.004361114930361509,0.01773562654852867,-0.0581575371325016
335.0,0.0,0.0,0.0,0.0,0.0,0.0,0.012561160139739513,-0.04253968968987465,0.005919269751757383,0.9982832074165344,-0.004710570443421602,0.01428593322634697,-0.0566052682697773
336.0,0.0,0.0,0.0,0.0,0.0,0.0,0.024181747809052467,-0.03231958672404289,0.006895381957292557,0.9983771443367004,-0.0045257979072630405,0.01220739260315895,-0.055437713861465454
337.0,0.0,0.0,0.0,0.0,0.0,0.0,0.02564440853893757,-0.008715697564184666,-0.01499384455382824,0.9985203146934509,-0.005108875688165426,0.010687557980418205,-0.05307279899716377
338.0,0.0,0.0,0.0,0.0,0.0,0.0,0.02097960375249386,0.017092764377593994,-0.008452863432466984,0.9986578226089478,-0.006568691227585077,0.007510823663324118,-0.05082255229353905
339.0,0.0,0.0,0.0,0.0,0.0,0.0,0.042845048010349274,0.007775447331368923,-0.0484689399600029,0.9987090229988098,-0.008502514101564884,0.0008510968182235956,-0.05007091537117958
340.0,0.0,0.0,0.0,0.0,0.0,0.0,0.04278866574168205,-0.0461653433740139,-0.01385370921343565,0.9984624981880188,-0.012147590517997742,-0.009679986163973808,-0.0532093271613121
341.0,0.0,0.0,0.0,0.0,0.0,0.0,-0.002405427396297455,0.033283863216638565,0.001992507604882121,0.998407244682312,-0.016462111845612526,-0.014635207131505013,-0.051938850432634354
342.0,0.0,0.0,0.0,0.0,0.0,0.0,-0.017170991748571396,0.06713834404945374,-0.041980333626270294,0.9984419345855713,-0.020341547206044197,-0.016439275816082954,-0.049289919435977936
343.0,0.0,0.0,0.0,0.0,0.0,0.0,-0.004067572299391031,0.051388856023550034,-0.07036293298006058,0.9984955191612244,-0.0241717379540205,-0.017316116020083427,-0.04607202485203743
344.0,0.0,0.0,0.0,0.0,0.0,0.0,-0.028728066012263298,0.024669509381055832,0.020659543573856354,0.9987017512321472,-0.0281414445489645,-0.015440884046256542,-0.03954973816871643
345.0,0.0,0.0,0.0,0.0,0.0,0.0,-0.0254877470433712,0.029568905010819435,0.06618152558803558,0.9990411996841431,-0.030392147600650787,-0.013266385532915592,-0.028580132871866226
346.0,0.0,0.0,0.0,0.0,0.0,0.0,-0.03203006461262703,0.03277049958705902,0.034352999180555344,0.9993128180503845,-0.031226160004734993,-0.00939018651843071,-0.01761583425104618
347.0,0.0,0.0,0.0,0.0,0.0,0.0,0.03515370935201645,-0.005161004606634378,-0.017083998769521713,0.9994069337844849,-0.03070692904293537,-0.009559656493365765,-0.012291274964809418
348.0,0.0,0.0,0.0,0.0,0.0,0.0,0.02659229189157486,-0.03348206356167793,0.020884215831756592,0.9994513988494873,-0.029855316504836082,-0.01118634082376957,-0.008943607099354267
349.0,0.0,0.0,0.0,0.0,0.0,0.0,0.02400442212820053,-0.0551324263215065,0.040624603629112244,0.9995033740997314,-0.02893143519759178,-0.01053591724485159,-0.00669861352071166
350.0,0.0,0.0,0.0,0.0,0.0,0.0,0.03177735209465027,-0.06105370447039604,0.011663094162940979,0.9995223879814148,-0.028558963909745216,-0.009573514573276043,-0.006877923384308815
351.0,0.0,0.0,0.0,0.0,0.0,0.0,0.0056661637499928474,-0.025030234828591347,0.02137910947203636,0.9995484948158264,-0.027705848217010498,-0.009043891914188862,-0.007281874772161245
352.0,0.0,0.0,0.0,0.0,0.0,0.0,0.01824510656297207,-0.020535964518785477,0.019188595935702324,0.9995697140693665,-0.026424990966916084,-0.009259384125471115,-0.00873543880879879
353.0,0.0,0.0,0.0,0.0,0.0,0.0,0.007721885573118925,-0.019398581236600876,0.015594846569001675,0.999559223651886,-0.02545546367764473,-0.010722204111516476,-0.010870357975363731
354.0,0.0,0.0,0.0,0.0,0.0,0.0,-0.0005967221804894507,-0.012493083253502846,0.00677099684253335,0.999500572681427,-0.02478480525314808,-0.012850466184318066,-0.014792121015489101
355.0,0.0,0.0,0.0,0.0,0.0,0.0,-0.005169085692614317,-0.023608867079019547,0.026274804025888443,0.999443769454956,-0.022951403632760048,-0.014201701618731022,-0.01958618126809597
356.0,0.0,0.0,0.0,0.0,0.0,0.0,-0.016178907826542854,-0.012117349542677402,0.004482971038669348,0.9993821382522583,-0.021836400032043457,-0.013721112161874771,-0.02387719601392746
357.0,0.0,0.0,0.0,0.0,0.0,0.0,0.00025256184744648635,-0.00038230777136050165,0.0006334302015602589,0.9993022084236145,-0.020566798746585846,-0.01267088670283556,-0.02848462015390396
358.0,0.0,0.0,0.0,0.0,0.0,0.0,0.025840546935796738,0.00039704510709270835,-0.014105855487287045,0.9991539716720581,-0.01926375739276409,-0.012984582222998142,-0.03393322229385376
359.0,0.0,0.0,0.0,0.0,0.0,0.0,0.0401613712310791,0.0069851442240178585,-0.008073659613728523,0.9989786148071289,-0.018559647724032402,-0.015323169529438019,-0.038240935653448105
360.0,0.0,0.0,0.0,0.0,0.0,0.0,0.04639250412583351,0.008591167628765106,-0.022064968943595886,0.998784601688385,-0.018293673172593117,-0.02040306106209755,-0.04096456989645958
361.0,0.0,0.0,0.0,0.0,0.0,0.0,0.036568816751241684,0.005497104488313198,-0.005708710756152868,0.9984930753707886,-0.01914137415587902,-0.028883200138807297,-0.04255235567688942
362.0,0.0,0.0,0.0,0.0,0.0,0.0,-0.005602700635790825,0.013768977485597134,0.00121533521451056,0.9982506632804871,-0.021805619820952415,-0.03589852899312973,-0.041606102138757706
363.0,0.0,0.0,0.0,0.0,0.0,0.0,-0.025499137118458748,0.029675990343093872,-0.013193036429584026,0.9982746243476868,-0.023995112627744675,-0.037622883915901184,-0.03815866634249687
364.0,0.0,0.0,0.0,0.0,0.0,0.0,-0.051263127475976944,0.054471977055072784,-0.02292506955564022,0.9983847737312317,-0.025540301576256752,-0.03748348727822304,-0.03421005234122276
365.0,0.0,0.0,0.0,0.0,0.0,0.0,-0.05634721741080284,0.022791391238570213,0.027969976887106895,0.9983980059623718,-0.02611876279115677,-0.03788492828607559,-0.03291694447398186
366.0,0.0,0.0,0.0,0.0,0.0,0.0,-0.00546549865975976,-0.005205385386943817,0.008337423205375671,0.9984462857246399,-0.02592618204653263,-0.037980321794748306,-0.03146464377641678
367.0,0.0,0.0,0.0,0.0,0.0,0.0,0.005557714961469173,-0.004964691586792469,-0.022094832733273506,0.9985183477401733,-0.024441448971629143,-0.03799392655491829,-0.0303279310464859
368.0,0.0,0.0,0.0,0.0,0.0,0.0,0.01237671822309494,0.012197275646030903,-0.031815528869628906,0.9985997676849365,-0.023769697174429893,-0.03774116560816765,-0.028438515961170197
369.0,0.0,0.0,0.0,0.0,0.0,0.0,-0.0033177474979311228,-0.012418161146342754,-0.023189350962638855,0.9986317753791809,-0.023169446736574173,-0.03730573132634163,-0.02838699147105217
370.0,0.0,0.0,0.0,0.0,0.0,0.0,0.025536810979247093,-0.04368973523378372,-0.001085009891539812,0.9986308813095093,-0.02417537197470665,-0.03710045665502548,-0.027845872566103935
371.0,0.0,0.0,0.0,0.0,0.0,0.0,0.02692016027867794,-0.032212529331445694,-0.005013282876461744,0.9986441135406494,-0.026198774576187134,-0.03642161190509796,-0.026394270360469818
372.0,0.0,0.0,0.0,0.0,0.0,0.0,-0.0004884954541921616,-0.0059510450810194016,0.0032346281222999096,0.9987098574638367,-0.028045518323779106,-0.034608978778123856,-0.02436869591474533
373.0,0.0,0.0,0.0,0.0,0.0,0.0,-0.013395755551755428,0.011458732187747955,0.00962945818901062,0.9988213181495667,-0.029298417270183563,-0.03150152042508125,-0.022462448105216026
374.0,0.0,0.0,0.0,0.0,0.0,0.0,-0.004238932393491268,-0.007719416171312332,0.019711852073669434,0.9988899230957031,-0.030084140598773956,-0.0289769247174263,-0.021763840690255165
375.0,0.0,0.0,0.0,0.0,0.0,0.0,-0.005956179928034544,-0.018870176747441292,0.03145162761211395,0.9989341497421265,-0.030087776482105255,-0.026299934834241867,-0.02308989316225052
376.0,0.0,0.0,0.0,0.0,0.0,0.0,-0.008065132424235344,-0.016830941662192345,0.02098057232797146,0.9989961981773376,-0.029763856902718544,-0.022037046030163765,-0.025189844891428947
377.0,0.0,0.0,0.0,0.0,0.0,0.0,-0.015703894197940826,-0.01764938049018383,0.00019203880219720304,0.9990959167480469,-0.02838570810854435,-0.015900496393442154,-0.027354301884770393
378.0,0.0,0.0,0.0,0.0,0.0,0.0,-0.011541465297341347,-0.009475811384618282,0.011139372363686562,0.9991625547409058,-0.02619597129523754,-0.008662652224302292,-0.030210884287953377
379.0,0.0,0.0,0.0,0.0,0.0,0.0,-0.004192224238067865,0.009553460404276848,0.024685518816113472,0.9991644620895386,-0.024375125765800476,-0.0015246818074956536,-0.032765768468379974
380.0,0.0,0.0,0.0,0.0,0.0,0.0,0.014417581260204315,0.01790424808859825,0.017065955325961113,0.9991261959075928,-0.022696547210216522,0.004202832002192736,-0.034839194267988205
381.0,0.0,0.0,0.0,0.0,0.0,0.0,0.02113664709031582,0.021968916058540344,-0.004198013339191675,0.9991160035133362,-0.02058991603553295,0.008396228775382042,-0.03567024692893028
382.0,0.0,0.0,0.0,0.0,0.0,0.0,0.026642361655831337,0.025190209969878197,0.006198630202561617,0.9991122484207153,-0.017766842618584633,0.013379168696701527,-0.035774294286966324
383.0,0.0,0.0,0.0,0.0,0.0,0.0,-0.004448976833373308,0.024354709312319756,0.03745325654745102,0.9991273283958435,-0.015276148915290833,0.01998290792107582,-0.0333406962454319
384.0,0.0,0.0,0.0,0.0,0.0,0.0,0.005468657705932856,-0.004521788563579321,0.027398156002163887,0.9990395307540894,-0.013145296834409237,0.026804855093359947,-0.03207160159945488
385.0,0.0,0.0,0.0,0.0,0.0,0.0,0.03836139291524887,-0.012130814604461193,0.007972603663802147,0.9989892244338989,-0.0116322236135602,0.03220406547188759,-0.029119515791535378
386.0,0.0,0.0,0.0,0.0,0.0,0.0,0.026602283120155334,-0.01827855035662651,-0.015257744118571281,0.9989122152328491,-0.010399168357253075,0.03663543984293938,-0.026905572041869164
387.0,0.0,0.0,0.0,0.0,0.0,0.0,0.05842393636703491,-0.016367238014936447,-0.011822499334812164,0.9989306926727295,-0.008494900539517403,0.03805605694651604,-0.024836646392941475
388.0,0.0,0.0,0.0,0.0,0.0,0.0,0.06155649572610855,0.0025378966238349676,-0.051385991275310516,0.9989640712738037,-0.006959753111004829,0.03877763822674751,-0.022763781249523163
389.0,0.0,0.0,0.0,0.0,0.0,0.0,0.07816670835018158,-0.04304865002632141,-0.0775747001171112,0.9991135001182556,-0.0082007497549057,0.034661296755075455,-0.022433767095208168
390.0,0.0,0.0,0.0,0.0,0.0,0.0,0.08914823085069656,-0.06996666640043259,-0.030528808012604713,0.9993299841880798,-0.011765553615987301,0.026020357385277748,-0.02288835681974888
391.0,0.0,0.0,0.0,0.0,0.0,0.0,0.00036242385976947844,-0.02030530571937561,0.006170788314193487,0.9994135499000549,-0.015991266816854477,0.018891703337430954,-0.023661931976675987
392.0,0.0,0.0,0.0,0.0,0.0,0.0,-0.03965301439166069,0.012856201268732548,0.00929518323391676,0.9994006752967834,-0.019758740440011024,0.012431357987225056,-0.025558415800333023
393.0,0.0,0.0,0.0,0.0,0.0,0.0,-0.037285275757312775,0.007907484658062458,0.030183862894773483,0.9993074536323547,-0.02272311970591545,0.005819118581712246,-0.028883803635835648
394.0,0.0,0.0,0.0,0.0,0.0,0.0,-0.005120080430060625,0.009183610789477825,0.013066712766885757,0.9991539716720581,-0.023976990953087807,-0.0014794814633205533,-0.03337683528661728
395.0,0.0,0.0,0.0,0.0,0.0,0.0,0.015174901112914085,-0.03871861472725868,0.008762408047914505,0.9987795948982239,-0.025607401505112648,-0.010572691448032856,-0.0408831462264061
396.0,0.0,0.0,0.0,0.0,0.0,0.0,0.03625477850437164,-0.03163992241024971,-0.013093189336359501,0.9981869459152222,-0.02765137515962124,-0.02052481658756733,-0.049362197518348694
397.0,0.0,0.0,0.0,0.0,0.0,0.0,-0.007439033593982458,-0.01232470665127039,-0.012736412696540356,0.9974427223205566,-0.03051198460161686,-0.02939677983522415,-0.0575527660548687
398.0,0.0,0.0,0.0,0.0,0.0,0.0,-0.005052400752902031,0.02025083638727665,0.04173056408762932,0.9968315362930298,-0.032364100217819214,-0.037612855434417725,-0.062163472175598145
399.0,0.0,0.0,0.0,0.0,0.0,0.0,-0.030087359249591827,0.029848134145140648,-0.0036240986082702875,0.9962373375892639,-0.033868446946144104,-0.04542173817753792,-0.06558114290237427
400.0,0.0,0.0,0.0,0.0,0.0,0.0,0.02745453640818596,0.00449990201741457,-0.02025097981095314,0.9954569935798645,-0.035105377435684204,-0.05523933842778206,-0.06913898140192032
401.0,0.0,0.0,0.0,0.0,0.0,0.0,0.016056986525654793,-0.012929676100611687,-0.013736867345869541,0.9947072267532349,-0.03605949506163597,-0.06351424008607864,-0.07226148992776871
402.0,0.0,0.0,0.0,0.0,0.0,0.0,-0.02612527273595333,-0.011761059984564781,-0.03538167104125023,0.9939610362052917,-0.038742564618587494,-0.06878207623958588,-0.07621199637651443
403.0,0.0,0.0,0.0,0.0,0.0,0.0,-0.07570710778236389,-0.00915621966123581,0.015690404921770096,0.9932841062545776,-0.04195002093911171,-0.07134713232517242,-0.08083834499120712
404.0,0.0,0.0,0.0,0.0,0.0,0.0,-0.13646216690540314,0.04315944015979767,0.07234383374452591,0.9931277632713318,-0.04382576793432236,-0.06868793070316315,-0.08400630205869675
405.0,0.0,0.0,0.0,0.0,0.0,0.0,-0.12852095067501068,0.07325908541679382,0.04776660352945328,0.993332028388977,-0.040808483958244324,-0.0611400343477726,-0.08880555629730225
406.0,0.0,0.0,0.0,0.0,0.0,0.0,-0.0421978160738945,0.049806080758571625,0.03554373234510422,0.9939517378807068,-0.035973429679870605,-0.05175778642296791,-0.08992660045623779
407.0,0.0,0.0,0.0,0.0,0.0,0.0,-0.05612049996852875,0.05457310006022453,0.013503501191735268,0.994837760925293,-0.030234863981604576,-0.03892364352941513,-0.08870025724172592
408.0,0.0,0.0,0.0,0.0,0.0,0.0,-0.004521530587226152,-0.0032346388325095177,0.011999077163636684,0.9953368902206421,-0.02364899218082428,-0.026581434532999992,-0.08965328335762024
409.0,0.0,0.0,0.0,0.0,0.0,0.0,0.024070411920547485,0.0027972888201475143,4.861951674683951e-05,0.9957849979400635,-0.01684068702161312,-0.015913425013422966,-0.08873967826366425
410.0,0.0,0.0,0.0,0.0,0.0,0.0,0.0624818429350853,0.013349192216992378,-0.03240985423326492,0.9961814880371094,-0.011397541500627995,-0.007681938353925943,-0.08621620386838913
411.0,0.0,0.0,0.0,0.0,0.0,0.0,0.07512485980987549,-0.0071502807550132275,-0.03260232135653496,0.9964882135391235,-0.00860069040209055,-0.0009097622823901474,-0.0832841694355011
412.0,0.0,0.0,0.0,0.0,0.0,0.0,0.07220588624477386,-0.022865165024995804,-0.026360997930169106,0.9968742728233337,-0.009467161260545254,0.005132969003170729,-0.07826399058103561
413.0,0.0,0.0,0.0,0.0,0.0,0.0,0.04998362809419632,-0.01783498004078865,-0.01318767387419939,0.9972602128982544,-0.011639525182545185,0.01127697341144085,-0.07217523455619812
414.0,0.0,0.0,0.0,0.0,0.0,0.0,0.03845240920782089,0.0015378727111965418,0.0021887137554585934,0.9975947737693787,-0.013275302946567535,0.01638050749897957,-0.06602946668863297
415.0,0.0,0.0,0.0,0.0,0.0,0.0,0.03877176344394684,0.009414123371243477,-0.011978574097156525,0.9978697299957275,-0.014953872188925743,0.017490988597273827,-0.061041902750730515
416.0,0.0,0.0,0.0,0.0,0.0,0.0,0.03455755487084389,-0.00632484769448638,-0.019569870084524155,0.9980247020721436,-0.01593988947570324,0.016130827367305756,-0.058586008846759796
417.0,0.0,0.0,0.0,0.0,0.0,0.0,0.004599784500896931,-0.005014694761484861,0.015143639408051968,0.9981067776679993,-0.0171089805662632,0.014341451227664948,-0.05730633810162544
418.0,0.0,0.0,0.0,0.0,0.0,0.0,-0.005617531016469002,0.015987839549779892,0.02927379310131073,0.9982020854949951,-0.018521232530474663,0.013434757478535175,-0.05539810657501221
419.0,0.0,0.0,0.0,0.0,0.0,0.0,-0.005048678256571293,0.01835661195218563,0.011634300462901592,0.9982805848121643,-0.01979043148458004,0.013163808733224869,-0.05357910320162773
420.0,0.0,0.0,0.0,0.0,0.0,0.0,0.0049575939774513245,0.004733801819384098,0.0003185067034792155,0.9983548521995544,-0.02072998695075512,0.014129163697361946,-0.051555681973695755
421.0,0.0,0.0,0.0,0.0,0.0,0.0,0.0005899809766560793,0.007593414280563593,0.014681006781756878,0.9984355568885803,-0.021093104034662247,0.015701519325375557,-0.04934300482273102
422.0,0.0,0.0,0.0,0.0,0.0,0.0,0.00415806146338582,0.002423497149720788,0.024057015776634216,0.9984789490699768,-0.01994405873119831,0.01721154898405075,-0.04843124374747276
423.0,0.0,0.0,0.0,0.0,0.0,0.0,0.007736063562333584,0.012500762939453125,-4.658731268136762e-05,0.9984882473945618,-0.0180798452347517,0.018561813980340958,-0.048474039882421494
424.0,0.0,0.0,0.0,0.0,0.0,0.0,0.016053076833486557,0.0002703338977880776,-0.008502834476530552,0.9984216094017029,-0.016677532345056534,0.02068398892879486,-0.04947876185178757
425.0,0.0,0.0,0.0,0.0,0.0,0.0,0.02789076790213585,-0.008382221683859825,-0.0029919766820967197,0.998428225517273,-0.016021614894270897,0.02197066694498062,-0.04900451377034187
426.0,0.0,0.0,0.0,0.0,0.0,0.0,0.043978944420814514,-0.008641154505312443,-0.006380253005772829,0.9984765648841858,-0.01599710062146187,0.022059010341763496,-0.04797769710421562
427.0,0.0,0.0,0.0,0.0,0.0,0.0,0.027869027107954025,-0.012030240148305893,-0.01368880458176136,0.9984329342842102,-0.016779959201812744,0.02320386841893196,-0.0480777807533741
428.0,0.0,0.0,0.0,0.0,0.0,0.0,0.049512531608343124,-0.0195189006626606,-0.007598100230097771,0.9984399080276489,-0.018095791339874268,0.02305426634848118,-0.047526709735393524
429.0,0.0,0.0,0.0,0.0,0.0,0.0,0.028017500415444374,-0.01079455018043518,-0.02258114144206047,0.9984885454177856,-0.02041449025273323,0.020786894485354424,-0.04659922048449516
430.0,0.0,0.0,0.0,0.0,0.0,0.0,-0.03712070360779762,0.0012015070533379912,0.033490583300590515,0.9983760714530945,-0.022217771038413048,0.021141350269317627,-0.04800345376133919
431.0,0.0,0.0,0.0,0.0,0.0,0.0,-0.02503494918346405,0.020072419196367264,0.053373806178569794,0.9982709288597107,-0.022758005186915398,0.023025475442409515,-0.04906022548675537
432.0,0.0,0.0,0.0,0.0,0.0,0.0,-0.005784837994724512,0.02525150217115879,-0.0002728640101850033,0.9982247948646545,-0.021518822759389877,0.025573547929525375,-0.04929555207490921
433.0,0.0,0.0,0.0,0.0,0.0,0.0,-0.006105071399360895,0.007866603322327137,0.0019584018737077713,0.9981496930122375,-0.020011913031339645,0.027395935729146004,-0.05045640096068382
434.0,0.0,0.0,0.0,0.0,0.0,0.0,0.023894956335425377,-0.0055273654870688915,0.011424525640904903,0.9980923533439636,-0.01934611238539219,0.028975289314985275,-0.050965502858161926
435.0,0.0,0.0,0.0,0.0,0.0,0.0,0.03019600734114647,0.005361791700124741,-0.009112135507166386,0.9980961680412292,-0.01871412992477417,0.03063999116420746,-0.05014816299080849
436.0,0.0,0.0,0.0,0.0,0.0,0.0,0.04034924507141113,0.007632584776729345,-0.019345063716173172,0.998207151889801,-0.018479375168681145,0.02973485365509987,-0.04854579269886017
437.0,0.0,0.0,0.0,0.0,0.0,0.0,0.05702035501599312,0.0005249062669463456,-0.027839619666337967,0.9983994960784912,-0.018958289176225662,0.026429496705532074,-0.04626462236046791
438.0,0.0,0.0,0.0,0.0,0.0,0.0,0.04382549971342087,-0.002324641216546297,-0.02070290595293045,0.9985687136650085,-0.020274896174669266,0.021814899519085884,-0.04442187026143074
439.0,0.0,0.0,0.0,0.0,0.0,0.0,0.060812052339315414,0.005184923764318228,-0.025729050859808922,0.9987583756446838,-0.02303236350417137,0.01321511622518301,-0.042147040367126465
440.0,0.0,0.0,0.0,0.0,0.0,0.0,0.0968148410320282,0.0009199109626933932,-0.07718988507986069,0.9987227320671082,-0.025605523958802223,-0.0011011339956894517,-0.043541017919778824
441.0,0.0,0.0,0.0,0.0,0.0,0.0,0.07058528810739517,-0.03421236574649811,-0.06321093440055847,0.9983908534049988,-0.03186202794313431,-0.014282060787081718,-0.044677406549453735
442.0,0.0,0.0,0.0,0.0,0.0,0.0,-0.03664860129356384,-0.008312847465276718,0.01410809438675642,0.9978109002113342,-0.040338724851608276,-0.023509254679083824,-0.04682819917798042
443.0,0.0,0.0,0.0,0.0,0.0,0.0,-0.05850798636674881,0.01238238625228405,0.059753455221652985,0.9971747398376465,-0.04856438934803009,-0.03094148449599743,-0.048232343047857285
444.0,0.0,0.0,0.0,0.0,0.0,0.0,-0.09210241585969925,0.049607399851083755,0.056566692888736725,0.9967496395111084,-0.05365071818232536,-0.035191699862480164,-0.048714712262153625
445.0,0.0,0.0,0.0,0.0,0.0,0.0,-0.0950196161866188,0.047422610223293304,0.04595854505896568,0.9964445233345032,-0.05611230060458183,-0.037582285702228546,-0.05035972222685814
446.0,0.0,0.0,0.0,0.0,0.0,0.0,-0.06725620478391647,0.03147454932332039,0.04457699507474899,0.996309220790863,-0.055630311369895935,-0.03839869052171707,-0.05289803072810173
447.0,0.0,0.0,0.0,0.0,0.0,0.0,-0.019373511895537376,0.011901872232556343,0.035338062793016434,0.9962893724441528,-0.05275051295757294,-0.03898179531097412,-0.05571746826171875
448.0,0.0,0.0,0.0,0.0,0.0,0.0,-0.01077031809836626,0.011819698847830296,0.015159519389271736,0.9963729381561279,-0.04980231821537018,-0.03720426931977272,-0.0580979660153389
449.0,0.0,0.0,0.0,0.0,0.0,0.0,-0.040691982954740524,0.011518278159201145,0.03275353088974953,0.9965850710868835,-0.045870766043663025,-0.031471721827983856,-0.061019398272037506
450.0,0.0,0.0,0.0,0.0,0.0,0.0,-0.021997036412358284,0.010213181376457214,0.04949605464935303,0.9968762397766113,-0.041519708931446075,-0.024859802797436714,-0.062411852180957794
451.0,0.0,0.0,0.0,0.0,0.0,0.0,-0.010629184544086456,0.020711638033390045,0.009654399938881397,0.9971687197685242,-0.03774116560816765,-0.01876196078956127,-0.06227094307541847
452.0,0.0,0.0,0.0,0.0,0.0,0.0,0.02406993694603443,0.011464674025774002,-0.005756882950663567,0.997508704662323,-0.03427587449550629,-0.014245208352804184,-0.05998044088482857
453.0,0.0,0.0,0.0,0.0,0.0,0.0,0.04721810296177864,-0.0095819141715765,0.0055227018892765045,0.9978057742118835,-0.03159644827246666,-0.011698151007294655,-0.056992966681718826
454.0,0.0,0.0,0.0,0.0,0.0,0.0,0.02997833676636219,-0.01460427138954401,0.010652583092451096,0.9980279803276062,-0.029519254341721535,-0.010773046873509884,-0.05433683469891548
455.0,0.0,0.0,0.0,0.0,0.0,0.0,0.023574290797114372,-0.0030325413681566715,0.010262870229780674,0.9982874393463135,-0.027571648359298706,-0.009020790457725525,-0.0507974848151207
456.0,0.0,0.0,0.0,0.0,0.0,0.0,0.022304533049464226,0.002685225335881114,-0.016212770715355873,0.9985816478729248,-0.02601465955376625,-0.005557631608098745,-0.04611705243587494
457.0,0.0,0.0,0.0,0.0,0.0,0.0,0.011916051618754864,0.009873274713754654,-0.013834747485816479,0.9988513588905334,-0.024603785946965218,-0.0022936793975532055,-0.04105116054415703
458.0,0.0,0.0,0.0,0.0,0.0,0.0,0.021188629791140556,0.04884389787912369,-0.008460039272904396,0.999168872833252,-0.023235920816659927,0.0005036477232351899,-0.03348672389984131
459.0,0.0,0.0,0.0,0.0,0.0,0.0,0.03737340867519379,0.030881598591804504,-0.05286117643117905,0.9994196891784668,-0.022002791985869408,0.0024106784258037806,-0.02588583156466484
460.0,0.0,0.0,0.0,0.0,0.0,0.0,0.03856159374117851,-0.01026144903153181,-0.02596423029899597,0.9995610117912292,-0.022267883643507957,0.0016357027925550938,-0.01946680061519146
461.0,0.0,0.0,0.0,0.0,0.0,0.0,0.034926678985357285,-0.011386140249669552,-0.028757687658071518,0.9996424913406372,-0.023459097370505333,0.0008590510697104037,-0.012787663377821445
462.0,0.0,0.0,0.0,0.0,0.0,0.0,0.02721433714032173,-0.010752754285931587,-0.010822984389960766,0.9996756911277771,-0.024482103064656258,0.0005234379786998034,-0.006971001625061035
463.0,0.0,0.0,0.0,0.0,0.0,0.0,-0.002039632759988308,0.02441779524087906,0.002574549987912178,0.9996793866157532,-0.025208858773112297,0.0018661251524463296,-0.001382002024911344
464.0,0.0,0.0,0.0,0.0,0.0,0.0,0.007289900444447994,-0.012709757313132286,-0.00775435334071517,0.9996713399887085,-0.025532279163599014,0.0021529963705688715,0.0006595970480702817
465.0,0.0,0.0,0.0,0.0,0.0,0.0,0.03460993990302086,-0.03775670751929283,0.008245679549872875,0.9996684193611145,-0.025639254599809647,0.00045463599963113666,0.0023186132311820984
466.0,0.0,0.0,0.0,0.0,0.0,0.0,0.01218089833855629,0.003225683467462659,-0.0013761789305135608,0.9996718764305115,-0.02515380084514618,1.1771223398682196e-05,0.004815193358808756
467.0,0.0,0.0,0.0,0.0,0.0,0.0,0.007733985316008329,0.0007425148505717516,-0.012081396766006947,0.9996727705001831,-0.02496839128434658,-0.000524755334481597,0.00551629438996315
468.0,0.0,0.0,0.0,0.0,0.0,0.0,0.022188005968928337,-9.998954192269593e-05,0.0018624088261276484,0.9996673464775085,-0.0249494519084692,-0.002824935829266906,0.005858997348695993
469.0,0.0,0.0,0.0,0.0,0.0,0.0,0.009307428263127804,0.006259715650230646,0.004249401390552521,0.9996501803398132,-0.025295643135905266,-0.004802741575986147,0.006019987165927887
470.0,0.0,0.0,0.0,0.0,0.0,0.0,-0.002384829567745328,0.018361514434218407,-0.0016596850473433733,0.9995978474617004,-0.026359597221016884,-0.006696831434965134,0.008024720475077629
471.0,0.0,0.0,0.0,0.0,0.0,0.0,0.004790757317095995,0.02000189758837223,0.006500657647848129,0.9995583891868591,-0.02672940120100975,-0.007875937968492508,0.010310833342373371
472.0,0.0,0.0,0.0,0.0,0.0,0.0,-0.007628105115145445,0.005168136674910784,0.010481078177690506,0.9995402693748474,-0.026888126507401466,-0.007024730090051889,0.012113857083022594
473.0,0.0,0.0,0.0,0.0,0.0,0.0,-0.023896466940641403,-0.009881983511149883,0.027404366061091423,0.9995378255844116,-0.02684096246957779,-0.004791776183992624,0.013444087468087673
474.0,0.0,0.0,0.0,0.0,0.0,0.0,-0.015764886513352394,-0.02009137161076069,0.02208884060382843,0.9995617866516113,-0.026151739060878754,-0.0003841289144475013,0.01384089607745409
475.0,0.0,0.0,0.0,0.0,0.0,0.0,0.007368314079940319,-0.02667284943163395,0.015437289141118526,0.9995852708816528,-0.024702010676264763,0.003921977244317532,0.014268885366618633
476.0,0.0,0.0,0.0,0.0,0.0,0.0,0.022548450157046318,-0.024238724261522293,0.012612784281373024,0.9996065497398376,-0.022996434941887856,0.008553187362849712,0.013573057949543
477.0,0.0,0.0,0.0,0.0,0.0,0.0,0.03141748532652855,-0.034230370074510574,0.01865333318710327,0.9996915459632874,-0.0198320634663105,0.012385652400553226,0.008364609442651272
478.0,0.0,0.0,0.0,0.0,0.0,0.0,0.010822854936122894,-0.0020292073022574186,0.04146922007203102,0.9996913075447083,-0.016291510313749313,0.018307678401470184,0.004060938023030758
479.0,0.0,0.0,0.0,0.0,0.0,0.0,0.03125527501106262,0.0171600803732872,0.032388441264629364,0.9996470808982849,-0.013335082679986954,0.022961359471082687,0.0006544036441482604
480.0,0.0,0.0,0.0,0.0,0.0,0.0,0.02525695599615574,0.028387105092406273,-0.013358310796320438,0.9996637105941772,-0.010296301916241646,0.023743025958538055,-0.001532703172415495
481.0,0.0,0.0,0.0,0.0,0.0,0.0,0.015043568797409534,0.0002803827519528568,-0.0007420037291012704,0.9996887445449829,-0.0071451556868851185,0.023441657423973083,-0.004647640977054834
482.0,0.0,0.0,0.0,0.0,0.0,0.0,0.05835176631808281,-0.007178463973104954,-0.04804573208093643,0.9997149705886841,-0.006126896943897009,0.022137712687253952,-0.00649383245036006
483.0,0.0,0.0,0.0,0.0,0.0,0.0,0.05363879352807999,-0.030568864196538925,-0.0586838535964489,0.9997850060462952,-0.007855454459786415,0.01729792356491089,-0.008298123255372047
484.0,0.0,0.0,0.0,0.0,0.0,0.0,0.05387800186872482,-0.05282674729824066,-0.028239641338586807,0.9998511672019958,-0.011771050281822681,0.008583208546042442,-0.009233214892446995
485.0,0.0,0.0,0.0,0.0,0.0,0.0,0.029780449345707893,-0.015986287966370583,-0.02037956938147545,0.999819278717041,-0.017514800652861595,-0.0016192436451092362,-0.007207429967820644
486.0,0.0,0.0,0.0,0.0,0.0,0.0,-0.04774719849228859,0.002782366704195738,0.012683608569204807,0.9996187090873718,-0.02453002892434597,-0.011828030459582806,-0.004557403270155191
487.0,0.0,0.0,0.0,0.0,0.0,0.0,-0.10734396427869797,0.026777515187859535,0.06211216002702713,0.9993383884429932,-0.029310978949069977,-0.0213070847094059,-0.003024814650416374
488.0,0.0,0.0,0.0,0.0,0.0,0.0,-0.07638192921876907,0.08160190284252167,0.05298604816198349,0.9990796446800232,-0.031155098229646683,-0.029379287734627724,-0.002336405450478196
489.0,0.0,0.0,0.0,0.0,0.0,0.0,-0.02284991927444935,0.022141261026263237,-0.006992114242166281,0.9988994002342224,-0.030679479241371155,-0.03479984402656555,-0.006838932633399963
490.0,0.0,0.0,0.0,0.0,0.0,0.0,-0.00917531456798315,0.005557614844292402,0.015562286600470543,0.998759925365448,-0.027791745960712433,-0.03931678459048271,-0.01264649722725153
491.0,0.0,0.0,0.0,0.0,0.0,0.0,0.009561402723193169,0.02239822782576084,-0.009172366000711918,0.9986178278923035,-0.024222347885370255,-0.042944278568029404,-0.018191441893577576
492.0,0.0,0.0,0.0,0.0,0.0,0.0,0.02322562038898468,0.008335313759744167,-0.023151714354753494,0.9984337091445923,-0.019872719421982765,-0.046494584530591965,-0.023930303752422333
493.0,0.0,0.0,0.0,0.0,0.0,0.0,0.022508559748530388,0.003440010827034712,-0.03639063984155655,0.9984537959098816,-0.01621709205210209,-0.0450308695435524,-0.028266524896025658
494.0,0.0,0.0,0.0,0.0,0.0,0.0,-0.013176013715565205,0.019440650939941406,-0.05507872253656387,0.9985787272453308,-0.014528111554682255,-0.041827406734228134,-0.029655026271939278
495.0,0.0,0.0,0.0,0.0,0.0,0.0,-0.020036552101373672,-0.022323915734887123,0.008575040847063065,0.9986375570297241,-0.013951716013252735,-0.039176639169454575,-0.03151111677289009
496.0,0.0,0.0,0.0,0.0,0.0,0.0,-0.016328509896993637,-0.03497157245874405,0.006329547613859177,0.9986884593963623,-0.014305797405540943,-0.03623445704579353,-0.03321611508727074
497.0,0.0,0.0,0.0,0.0,0.0,0.0,-0.012407081201672554,-0.05520141124725342,0.026914207264780998,0.9986388087272644,-0.01475832611322403,-0.03395926207304001,-0.0367266982793808
498.0,0.0,0.0,0.0,0.0,0.0,0.0,0.003180298488587141,-0.036460842937231064,0.01363586075603962,0.9985727667808533,-0.01465340331196785,-0.032689038664102554,-0.03960734233260155
499.0,0.0,0.0,0.0,0.0,0.0,0.0,0.006967186462134123,-0.010674062184989452,-0.026230094954371452,0.9984910488128662,-0.014700287021696568,-0.03192979097366333,-0.042186565697193146
500.0,0.0,0.0,0.0,0.0,0.0,0.0,0.012376734055578709,0.000670670997351408,-0.026008399203419685,0.9983845353126526,-0.015903789550065994,-0.03150683268904686,-0.044523466378450394
501.0,0.0,0.0,0.0,0.0,0.0,0.0,0.03330877050757408,0.032994139939546585,-0.0555693581700325,0.9983221292495728,-0.018814539536833763,-0.03235194832086563,-0.04418056458234787
502.0,0.0,0.0,0.0,0.0,0.0,0.0,-0.043957483023405075,0.018144069239497185,-0.016640400514006615,0.9982069134712219,-0.02266654558479786,-0.0338280014693737,-0.043871693313121796
503.0,0.0,0.0,0.0,0.0,0.0,0.0,-0.03419414162635803,0.036843638867139816,0.04559654742479324,0.9981022477149963,-0.025682218372821808,-0.034578558057546616,-0.044005539268255234
504.0,0.0,0.0,0.0,0.0,0.0,0.0,-0.07111117243766785,0.04671121761202812,0.027229342609643936,0.9980337023735046,-0.02788105234503746,-0.03490979224443436,-0.043955300003290176
505.0,0.0,0.0,0.0,0.0,0.0,0.0,-0.04888834431767464,0.0066964332945644855,0.019964756444096565,0.9978941679000854,-0.029307665303349495,-0.036266278475522995,-0.045079272240400314
506.0,0.0,0.0,0.0,0.0,0.0,0.0,-0.012300722301006317,-0.004711161367595196,0.008151217363774776,0.9978124499320984,-0.030120855197310448,-0.038127601146698,-0.044818632304668427
507.0,0.0,0.0,0.0,0.0,0.0,0.0,-0.006672332063317299,-0.006522819399833679,-0.011435248889029026,0.997826099395752,-0.03140430897474289,-0.03837784752249718,-0.043403882533311844
508.0,0.0,0.0,0.0,0.0,0.0,0.0,-0.0027484360616654158,-0.01298145204782486,0.009066889993846416,0.9977865219116211,-0.03233354538679123,-0.03948687016963959,-0.04262781888246536
509.0,0.0,0.0,0.0,0.0,0.0,0.0,-0.00962990801781416,-0.005219710990786552,0.012052193284034729,0.9977540373802185,-0.032676950097084045,-0.04071538895368576,-0.041961755603551865
510.0,0.0,0.0,0.0,0.0,0.0,0.0,0.0027017900720238686,-0.007866467349231243,-0.01229785941541195,0.9977568984031677,-0.03298306465148926,-0.041406624019145966,-0.0409669503569603
511.0,0.0,0.0,0.0,0.0,0.0,0.0,0.019476665183901787,-0.014485961757600307,-0.01936090551316738,0.9976782202720642,-0.03383598104119301,-0.04249727725982666,-0.041066184639930725
512.0,0.0,0.0,0.0,0.0,0.0,0.0,0.01990162394940853,-0.007049075327813625,-0.01188077311962843,0.9975475072860718,-0.03617985546588898,-0.04452027380466461,-0.040090519934892654
513.0,0.0,0.0,0.0,0.0,0.0,0.0,0.005282351281493902,0.002927076769992709,-0.019542694091796875,0.9974620342254639,-0.03944087028503418,-0.045709140598773956,-0.037738487124443054
514.0,0.0,0.0,0.0,0.0,0.0,0.0,0.004613600671291351,0.0066420151852071285,-0.016511844471096992,0.9973218441009521,-0.04300295189023018,-0.047008708119392395,-0.035904671996831894
515.0,0.0,0.0,0.0,0.0,0.0,0.0,0.007213914766907692,0.004629057366400957,-0.007517519406974316,0.9971468448638916,-0.04644471034407616,-0.048302289098501205,-0.03473968803882599
516.0,0.0,0.0,0.0,0.0,0.0,0.0,0.008163905702531338,-0.007733370643109083,0.0264273788779974,0.9968865513801575,-0.0496252179145813,-0.05079948529601097,-0.03423572704195976
517.0,0.0,0.0,0.0,0.0,0.0,0.0,-0.04366768151521683,0.018994074314832687,0.047131773084402084,0.996687114238739,-0.052860867232084274,-0.05177212506532669,-0.03374670073390007
518.0,0.0,0.0,0.0,0.0,0.0,0.0,-0.05814935639500618,0.04537331312894821,0.035137858241796494,0.9967315793037415,-0.05298732593655586,-0.05042986944317818,-0.03426337614655495
519.0,0.0,0.0,0.0,0.0,0.0,0.0,-0.03251320868730545,0.04223194345831871,0.01621721312403679,0.996934175491333,-0.04993123933672905,-0.048839278519153595,-0.035251740366220474
520.0,0.0,0.0,0.0,0.0,0.0,0.0,-0.017195383086800575,0.026217808946967125,0.015710055828094482,0.9971588253974915,-0.046383555978536606,-0.047563958913087845,-0.03548971563577652
521.0,0.0,0.0,0.0,0.0,0.0,0.0,-0.021660778671503067,0.02509632520377636,0.021616121754050255,0.9973903298377991,-0.04444754868745804,-0.046641718596220016,-0.03256538510322571
522.0,0.0,0.0,0.0,0.0,0.0,0.0,0.008393395692110062,-0.0020857711788266897,0.00403623329475522,0.9975742101669312,-0.04291890934109688,-0.046622008085250854,-0.028796566650271416
523.0,0.0,0.0,0.0,0.0,0.0,0.0,0.0397178940474987,0.030909577384591103,-0.04209969565272331,0.9978067874908447,-0.041432783007621765,-0.046550214290618896,-0.022308168932795525
524.0,0.0,0.0,0.0,0.0,0.0,0.0,0.014715373516082764,0.03749244287610054,-0.0638049840927124,0.9979878664016724,-0.04119178652763367,-0.04545776918530464,-0.016010595485568047
525.0,0.0,0.0,0.0,0.0,0.0,0.0,-0.003875882364809513,0.03992608189582825,-0.020738976076245308,0.9981769919395447,-0.04223243519663811,-0.0423671156167984,-0.00797263439744711
526.0,0.0,0.0,0.0,0.0,0.0,0.0,0.025022389367222786,0.02840639464557171,-0.04079108685255051,0.9982982873916626,-0.04352973774075508,-0.03878543898463249,0.000899467442650348
527.0,0.0,0.0,0.0,0.0,0.0,0.0,0.02935042232275009,0.0022487652022391558,-0.06592144817113876,0.9982708692550659,-0.04561537876725197,-0.0362667441368103,0.007661609444767237
528.0,0.0,0.0,0.0,0.0,0.0,0.0,0.017347875982522964,-0.04417899250984192,0.0064924354664981365,0.9982376098632812,-0.047372251749038696,-0.03416333720088005,0.010489201173186302
529.0,0.0,0.0,0.0,0.0,0.0,0.0,0.017766742035746574,-0.03367068991065025,0.04528246447443962,0.9982563853263855,-0.04827600717544556,-0.03206240013241768,0.011155487969517708
530.0,0.0,0.0,0.0,0.0,0.0,0.0,-0.007621638476848602,-0.005022617056965828,0.045810259878635406,0.9982728362083435,-0.04907446727156639,-0.03035922721028328,0.011003578081727028
531.0,0.0,0.0,0.0,0.0,0.0,0.0,-0.009906765073537827,-0.005861966870725155,-0.005031954031437635,0.9983096718788147,-0.04970008134841919,-0.02863260731101036,0.009323082864284515
532.0,0.0,0.0,0.0,0.0,0.0,0.0,0.005079213529825211,-0.019174372777342796,0.006673579104244709,0.9983968734741211,-0.049614738672971725,-0.026450110599398613,0.006499145179986954
533.0,0.0,0.0,0.0,0.0,0.0,0.0,0.008212807588279247,-0.007551785558462143,-0.0009897099807858467,0.9984889626502991,-0.04926479235291481,-0.02414115145802498,0.0030140276066958904
534.0,0.0,0.0,0.0,0.0,0.0,0.0,-0.012595483101904392,-0.020836258307099342,0.029276693239808083,0.9985081553459167,-0.04996858164668083,-0.021914085373282433,-0.0019038503523916006
535.0,0.0,0.0,0.0,0.0,0.0,0.0,-0.012267601676285267,-0.012406790629029274,0.023217501118779182,0.9984614849090576,-0.05091012269258499,-0.020728634670376778,-0.007282859645783901
536.0,0.0,0.0,0.0,0.0,0.0,0.0,0.0012840450508520007,0.0010181544348597527,0.009119530208408833,0.9983798861503601,-0.05102015659213066,-0.021305833011865616,-0.013407542370259762
537.0,0.0,0.0,0.0,0.0,0.0,0.0,-0.009217297658324242,0.014739290811121464,0.011860175058245659,0.9982768893241882,-0.050618723034858704,-0.022281045094132423,-0.019590362906455994
538.0,0.0,0.0,0.0,0.0,0.0,0.0,-0.02645231783390045,0.018271049484610558,0.014455001801252365,0.9981399178504944,-0.05066903680562973,-0.02268250286579132,-0.02517659030854702
539.0,0.0,0.0,0.0,0.0,0.0,0.0,-0.053778648376464844,0.021274790167808533,0.024523131549358368,0.9980596899986267,-0.050702258944511414,-0.020446449518203735,-0.02978743240237236
540.0,0.0,0.0,0.0,0.0,0.0,0.0,-0.03865599259734154,0.04621589183807373,0.014076882973313332,0.9982064366340637,-0.048952702432870865,-0.016660114750266075,-0.03014996089041233
541.0,0.0,0.0,0.0,0.0,0.0,0.0,-0.01997993513941765,0.0606585368514061,-0.018275180831551552,0.9985104203224182,-0.045873116701841354,-0.010960792191326618,-0.027422888204455376
542.0,0.0,0.0,0.0,0.0,0.0,0.0,-0.01021786592900753,0.034263018518686295,0.008765882812440395,0.9988356232643127,-0.04057188332080841,-0.003747505834326148,-0.025824276730418205
543.0,0.0,0.0,0.0,0.0,0.0,0.0,0.02201947569847107,0.01847866177558899,-0.004785689990967512,0.9990994930267334,-0.03484099730849266,0.0031307493336498737,-0.024006392806768417
544.0,0.0,0.0,0.0,0.0,0.0,0.0,0.04003876447677612,0.0006751260370947421,-0.028370380401611328,0.9992809295654297,-0.029796665534377098,0.0069046420976519585,-0.02239331789314747
545.0,0.0,0.0,0.0,0.0,0.0,0.0,0.00930546410381794,-0.008457784540951252,-0.002211368177086115,0.9993700981140137,-0.026519425213336945,0.008980776183307171,-0.021798890084028244
546.0,0.0,0.0,0.0,0.0,0.0,0.0,0.010201490484178066,-0.011531850323081017,0.0037204318214207888,0.9994142055511475,-0.02471277117729187,0.009756163693964481,-0.021565457805991173
547.0,0.0,0.0,0.0,0.0,0.0,0.0,0.018154527992010117,-0.002823430811986327,-0.006348654627799988,0.9994782209396362,-0.022993268445134163,0.010484768077731133,-0.020107818767428398
548.0,0.0,0.0,0.0,0.0,0.0,0.0,0.0008052375051192939,0.03640008345246315,-0.024877384305000305,0.9995790719985962,-0.020614515990018845,0.011215975508093834,-0.01704973354935646
549.0,0.0,0.0,0.0,0.0,0.0,0.0,-0.013534176163375378,0.031245775520801544,-0.005189975723624229,0.9996511340141296,-0.01758100651204586,0.01137783657759428,-0.016089223325252533
550.0,0.0,0.0,0.0,0.0,0.0,0.0,-0.01587851345539093,-0.000955687602981925,0.022419212386012077,0.9996809959411621,-0.015295655466616154,0.011657299473881721,-0.016366753727197647
551.0,0.0,0.0,0.0,0.0,0.0,0.0,0.010854112915694714,0.0012537232832983136,0.011589039117097855,0.9997223615646362,-0.0129274632781744,0.01180265098810196,-0.015767352655529976
552.0,0.0,0.0,0.0,0.0,0.0,0.0,0.028511302545666695,-0.01354750245809555,-0.013453093357384205,0.9997463822364807,-0.011212926357984543,0.010361851193010807,-0.01654820889234543
553.0,0.0,0.0,0.0,0.0,0.0,0.0,0.023514889180660248,-0.012643938884139061,-0.037772469222545624,0.9997503161430359,-0.010741044767200947,0.007976565510034561,-0.017891505733132362
554.0,0.0,0.0,0.0,0.0,0.0,0.0,0.03581303730607033,-0.0015910541405901313,-0.03854414448142052,0.9997590780258179,-0.01175399124622345,0.004175187088549137,-0.01805630885064602
555.0,0.0,0.0,0.0,0.0,0.0,0.0,0.0600726343691349,-0.01733722724020481,-0.051091909408569336,0.9996907114982605,-0.014844999648630619,-0.001825296669267118,-0.01986420713365078
556.0,0.0,0.0,0.0,0.0,0.0,0.0,0.05239148065447807,-0.010153274983167648,-0.025735316798090935,0.9995360374450684,-0.018096651881933212,-0.010925687849521637,-0.02192334644496441
557.0,0.0,0.0,0.0,0.0,0.0,0.0,0.024029068648815155,-0.010851855389773846,-0.023204857483506203,0.999156653881073,-0.023264452815055847,-0.023200005292892456,-0.02461746707558632
558.0,0.0,0.0,0.0,0.0,0.0,0.0,-0.0952751561999321,-0.014920201152563095,0.011330441571772099,0.9986265301704407,-0.02956896647810936,-0.03193369507789612,-0.029161745682358742
559.0,0.0,0.0,0.0,0.0,0.0,0.0,-0.13450080156326294,0.028606608510017395,0.047325458377599716,0.9981624484062195,-0.0341285839676857,-0.03693969175219536,-0.03379435837268829
560.0,0.0,0.0,0.0,0.0,0.0,0.0,-0.05437237024307251,0.04260518029332161,0.03616543486714363,0.9977960586547852,-0.035768162459135056,-0.04060308262705803,-0.03839896246790886
561.0,0.0,0.0,0.0,0.0,0.0,0.0,-0.02535926178097725,0.025822926312685013,0.005086072720587254,0.9975178241729736,-0.03578329086303711,-0.043255433440208435,-0.042497530579566956
562.0,0.0,0.0,0.0,0.0,0.0,0.0,-0.007194128353148699,0.007815167307853699,-0.02478242851793766,0.9971786737442017,-0.03652818128466606,-0.046873435378074646,-0.04584731534123421
563.0,0.0,0.0,0.0,0.0,0.0,0.0,-0.016679691150784492,-0.005417099688202143,-0.019795142114162445,0.9968249797821045,-0.038980234414339066,-0.05002174153923988,-0.0481361448764801
564.0,0.0,0.0,0.0,0.0,0.0,0.0,-0.004132970701903105,-0.012152801267802715,0.004846674390137196,0.9964603781700134,-0.041381604969501495,-0.053848426789045334,-0.04952947422862053
565.0,0.0,0.0,0.0,0.0,0.0,0.0,-0.0029862471856176853,0.003050133353099227,0.006183977704495192,0.9961265325546265,-0.043580640107393265,-0.0567440390586853,-0.05110348016023636
566.0,0.0,0.0,0.0,0.0,0.0,0.0,-0.026608068495988846,0.021274738013744354,0.012944972142577171,0.9958054423332214,-0.04546063765883446,-0.05972057953476906,-0.052319254726171494
567.0,0.0,0.0,0.0,0.0,0.0,0.0,-0.009017422795295715,0.019712356850504875,-0.02128094807267189,0.9954827427864075,-0.047339387238025665,-0.06310733407735825,-0.05281560868024826
568.0,0.0,0.0,0.0,0.0,0.0,0.0,0.013517005369067192,0.0021559845190495253,-0.02262156642973423,0.9950728416442871,-0.04985136166214943,-0.06736788153648376,-0.05296536907553673
569.0,0.0,0.0,0.0,0.0,0.0,0.0,0.005282836966216564,-0.0016645567957311869,-0.012397988699376583,0.994597852230072,-0.053228843957185745,-0.07150477916002274,-0.053172703832387924
570.0,0.0,0.0,0.0,0.0,0.0,0.0,-0.015239611268043518,0.02326507493853569,-0.006642261985689402,0.9942551851272583,-0.056582774966955185,-0.0739181861281395,-0.052818335592746735
571.0,0.0,0.0,0.0,0.0,0.0,0.0,-0.022535894066095352,0.01811983995139599,0.0160653218626976,0.993947446346283,-0.060108426958322525,-0.07562524825334549,-0.05229615792632103
572.0,0.0,0.0,0.0,0.0,0.0,0.0,-0.036887913942337036,0.025024523958563805,0.009321524761617184,0.993591845035553,-0.06408523768186569,-0.07700449228286743,-0.052296340465545654
573.0,0.0,0.0,0.0,0.0,0.0,0.0,-0.06660116463899612,0.028918622061610222,0.0032411811407655478,0.9933149814605713,-0.06722261756658554,-0.0769842192530632,-0.05364343151450157
574.0,0.0,0.0,0.0,0.0,0.0,0.0,-0.04624886438250542,0.016714243218302727,0.03893470764160156,0.9931362271308899,-0.06733985245227814,-0.07712708413600922,-0.05652719363570213
575.0,0.0,0.0,0.0,0.0,0.0,0.0,-0.043960366398096085,0.04139519855380058,0.014076991006731987,0.9931087493896484,-0.06756502389907837,-0.07649952918291092,-0.0575878843665123
576.0,0.0,0.0,0.0,0.0,0.0,0.0,-0.03989482298493385,0.04003143683075905,-0.0012949110241606832,0.9930837154388428,-0.06661930680274963,-0.07600392401218414,-0.05973676219582558
577.0,0.0,0.0,0.0,0.0,0.0,0.0,-0.022999156266450882,0.00361103774048388,0.013835472986102104,0.9930942058563232,-0.06485842913389206,-0.07548560947179794,-0.062108710408210754
578.0,0.0,0.0,0.0,0.0,0.0,0.0,-0.023798324167728424,-0.003966270945966244,0.02039329893887043,0.9930694103240967,-0.0626949593424797,-0.07481328397989273,-0.06545647233724594
579.0,0.0,0.0,0.0,0.0,0.0,0.0,-0.038208890706300735,0.0005434242193587124,0.028215590864419937,0.9930695295333862,-0.05948757380247116,-0.07296895980834961,-0.07033516466617584
580.0,0.0,0.0,0.0,0.0,0.0,0.0,-0.05916859582066536,0.016900617629289627,0.02697719819843769,0.9934808611869812,-0.05576189607381821,-0.06626927107572556,-0.07411527633666992
581.0,0.0,0.0,0.0,0.0,0.0,0.0,-0.08235675096511841,0.0326007641851902,0.03376881033182144,0.9942002296447754,-0.05090974643826485,-0.05578196793794632,-0.07656212151050568
582.0,0.0,0.0,0.0,0.0,0.0,0.0,-0.03388373553752899,0.0398065447807312,0.004767393693327904,0.9951828122138977,-0.04509922116994858,-0.04328947141766548,-0.07551229000091553
583.0,0.0,0.0,0.0,0.0,0.0,0.0,0.024234062060713768,0.06140727922320366,-0.03552323952317238,0.9961654543876648,-0.03846518695354462,-0.03194846212863922,-0.07178466022014618
584.0,0.0,0.0,0.0,0.0,0.0,0.0,0.07946319878101349,0.06661193817853928,-0.05716373771429062,0.9968077540397644,-0.03169599920511246,-0.026291849091649055,-0.06839744746685028
585.0,0.0,0.0,0.0,0.0,0.0,0.0,0.07063263654708862,0.0027979901060462,-0.061643827706575394,0.9971610307693481,-0.028084611520171165,-0.021875185891985893,-0.06634736806154251
586.0,0.0,0.0,0.0,0.0,0.0,0.0,0.037376951426267624,0.0027449640911072493,-0.04921301081776619,0.9975643754005432,-0.026713889092206955,-0.01680096425116062,-0.06220047175884247
587.0,0.0,0.0,0.0,0.0,0.0,0.0,0.039283543825149536,0.011156153865158558,-0.03992746025323868,0.9981136322021484,-0.027474896982312202,-0.008489592932164669,-0.054236579686403275
588.0,0.0,0.0,0.0,0.0,0.0,0.0,0.0036137192510068417,0.00942662637680769,-0.012561739422380924,0.9984251856803894,-0.029477838426828384,-0.00026175210950896144,-0.04772813245654106
589.0,0.0,0.0,0.0,0.0,0.0,0.0,-0.0612228699028492,0.01892198622226715,0.09688706696033478,0.9985275864601135,-0.03127753362059593,0.004321657121181488,-0.04410506784915924
590.0,0.0,0.0,0.0,0.0,0.0,0.0,-0.001342065166682005,0.04583778977394104,0.03386347368359566,0.9987668991088867,-0.030213747173547745,0.006808222737163305,-0.03879476338624954
591.0,0.0,0.0,0.0,0.0,0.0,0.0,-0.011189932003617287,0.03154851123690605,0.012437830679118633,0.9990221261978149,-0.028168173506855965,0.008534208871424198,-0.03298615291714668
592.0,0.0,0.0,0.0,0.0,0.0,0.0,-0.02633688785135746,0.08716941624879837,0.026788275688886642,0.9993283748626709,-0.026269730180501938,0.009040609933435917,-0.023889360949397087
593.0,0.0,0.0,0.0,0.0,0.0,0.0,0.02163100428879261,0.06246529892086983,0.03774522244930267,0.9995960593223572,-0.022257870063185692,0.008039453066885471,-0.01573149859905243
594.0,0.0,0.0,0.0,0.0,0.0,0.0,0.032497331500053406,0.023383524268865585,-0.04898136481642723,0.9997643828392029,-0.01823098212480545,0.007937789894640446,-0.008691835217177868
595.0,0.0,0.0,0.0,0.0,0.0,0.0,0.03498021885752678,-0.015843335539102554,-0.06494580954313278,0.9998469352722168,-0.016265958547592163,0.005957978777587414,-0.0023693584371358156
596.0,0.0,0.0,0.0,0.0,0.0,0.0,0.010098513215780258,-0.03808506578207016,-0.03875800967216492,0.9998645782470703,-0.015871083363890648,0.003162146545946598,0.002927423920482397
597.0,0.0,0.0,0.0,0.0,0.0,0.0,0.02304312027990818,-0.050110671669244766,-0.0358361154794693,0.9998372793197632,-0.016778307035565376,-0.00022559487842954695,0.006581353023648262
598.0,0.0,0.0,0.0,0.0,0.0,0.0,0.029365358874201775,-0.04129723086953163,-0.03873607516288757,0.9997543096542358,-0.01954939402639866,-0.0037518281023949385,0.009736521169543266
599.0,0.0,0.0,0.0,0.0,0.0,0.0,0.020729301497340202,-0.06511201709508896,-0.033876098692417145,0.9996197819709778,-0.024106724187731743,-0.00846796203404665,0.010346381925046444
600.0,0.0,0.0,0.0,0.0,0.0,0.0,0.024027762934565544,-0.10729525983333588,-0.041785843670368195,0.9993910789489746,-0.03047395683825016,-0.014281042851507664,0.009195435792207718
601.0,0.0,0.0,0.0,0.0,0.0,0.0,0.011768744327127934,-0.11130082607269287,-0.029350731521844864,0.9990216493606567,-0.0393587201833725,-0.01854126714169979,0.007895082235336304
602.0,0.0,0.0,0.0,0.0,0.0,0.0,-0.03701763600111008,-0.06979125738143921,0.04563784599304199,0.9986833930015564,-0.04772152006626129,-0.018483998253941536,0.0034364410676062107
603.0,0.0,0.0,0.0,0.0,0.0,0.0,-0.03167097270488739,0.03696667030453682,0.10648765414953232,0.9985307455062866,-0.05171956494450569,-0.015279313549399376,-0.0051840683445334435
604.0,0.0,0.0,0.0,0.0,0.0,0.0,-0.008700537495315075,0.16959163546562195,0.05255337059497833,0.998490571975708,-0.051941655576229095,-0.012870131060481071,-0.01232176274061203
605.0,0.0,0.0,0.0,0.0,0.0,0.0,-0.02944127470254898,0.1770636886358261,0.00783596746623516,0.9984604716300964,-0.050998296588659286,-0.013909811154007912,-0.0167798213660717
606.0,0.0,0.0,0.0,0.0,0.0,0.0,-0.011711690574884415,0.09876225143671036,-0.03729144483804703,0.998440146446228,-0.049632661044597626,-0.016817322000861168,-0.019234059378504753
607.0,0.0,0.0,0.0,0.0,0.0,0.0,0.0076577323488891125,0.034115858376026154,-0.012635692954063416,0.9984020590782166,-0.04801812767982483,-0.020126832649111748,-0.02195371873676777
608.0,0.0,0.0,0.0,0.0,0.0,0.0,0.03126368299126625,-0.03587824106216431,-0.004726653452962637,0.9981822967529297,-0.047933436930179596,-0.025254927575588226,-0.026379412040114403
609.0,0.0,0.0,0.0,0.0,0.0,0.0,0.052491750568151474,-0.047955092042684555,-0.001497433870099485,0.9978510737419128,-0.0494074821472168,-0.030481763184070587,-0.030374323949217796
610.0,0.0,0.0,0.0,0.0,0.0,0.0,0.015140773728489876,0.004960169084370136,-0.003942935727536678,0.9976723790168762,-0.04999718442559242,-0.032224323600530624,-0.033328715711832047
611.0,0.0,0.0,0.0,0.0,0.0,0.0,-0.0029809579718858004,0.027977941557765007,-0.011999748647212982,0.9975413084030151,-0.04879153519868851,-0.03271134942770004,-0.038200993090867996
612.0,0.0,0.0,0.0,0.0,0.0,0.0,-0.02842736802995205,0.006648338865488768,0.03153085708618164,0.9971640110015869,-0.04691220819950104,-0.03656815364956856,-0.046097103506326675
613.0,0.0,0.0,0.0,0.0,0.0,0.0,-0.07058770209550858,0.017984731122851372,0.0184946246445179,0.9966253638267517,-0.04506969824433327,-0.04045634716749191,-0.05539698153734207
614.0,0.0,0.0,0.0,0.0,0.0,0.0,-0.11128158867359161,0.028594251722097397,0.019408544525504112,0.9962284564971924,-0.042734816670417786,-0.04074554890394211,-0.06357482075691223
615.0,0.0,0.0,0.0,0.0,0.0,0.0,-0.05873357504606247,0.04893350601196289,0.019468797370791435,0.9962194561958313,-0.0392090380191803,-0.03734338656067848,-0.06792972981929779
616.0,0.0,0.0,0.0,0.0,0.0,0.0,-0.04511590301990509,0.058324676007032394,0.0015212328871712089,0.9964736700057983,-0.034460701048374176,-0.030399950221180916,-0.0701998844742775
617.0,0.0,0.0,0.0,0.0,0.0,0.0,-0.024930831044912338,0.04966111108660698,-0.014507601037621498,0.9968892335891724,-0.028671443462371826,-0.019816700369119644,-0.07068812847137451
618.0,0.0,0.0,0.0,0.0,0.0,0.0,0.02103831246495247,0.016687532886862755,-0.027773473411798477,0.9973440766334534,-0.024713102728128433,-0.008291386999189854,-0.06800488382577896
619.0,0.0,0.0,0.0,0.0,0.0,0.0,0.015934260562062263,0.006358369719237089,-0.022692827507853508,0.9976532459259033,-0.020829172804951668,0.0016726447502151132,-0.06519816070795059
620.0,0.0,0.0,0.0,0.0,0.0,0.0,0.04064539447426796,0.008928901515901089,-0.029315322637557983,0.9977670907974243,-0.01824277825653553,0.008501400239765644,-0.06368193030357361
621.0,0.0,0.0,0.0,0.0,0.0,0.0,0.021749073639512062,0.011416729539632797,-0.03013903647661209,0.9978272914886475,-0.018188895657658577,0.01280453521758318,-0.06201385706663132
622.0,0.0,0.0,0.0,0.0,0.0,0.0,0.03601616993546486,0.0009578570607118309,-0.014102624729275703,0.9979235529899597,-0.01891745999455452,0.013465045019984245,-0.060075800865888596
623.0,0.0,0.0,0.0,0.0,0.0,0.0,0.03840451315045357,0.006149262189865112,-0.03439520671963692,0.9981034994125366,-0.02005670592188835,0.012786107137799263,-0.05677660554647446
624.0,0.0,0.0,0.0,0.0,0.0,0.0,0.02204066701233387,-0.0019733442459255457,-0.03508937358856201,0.9981021881103516,-0.022616060450673103,0.01293603889644146,-0.055793993175029755
625.0,0.0,0.0,0.0,0.0,0.0,0.0,0.03692292049527168,-0.004066482651978731,-0.008949012495577335,0.9980554580688477,-0.026548070833086967,0.010302316397428513,-0.05544380843639374
626.0,0.0,0.0,0.0,0.0,0.0,0.0,0.042124055325984955,0.018075551837682724,-0.002026465255767107,0.9981162548065186,-0.02970765344798565,0.005395843647420406,-0.05340142548084259
627.0,0.0,0.0,0.0,0.0,0.0,0.0,0.03950617462396622,0.030363457277417183,-0.036228377372026443,0.9981764554977417,-0.03381248936057091,-0.0023798218462616205,-0.049943625926971436
628.0,0.0,0.0,0.0,0.0,0.0,0.0,-0.03259539231657982,0.014361735433340073,-0.053884513676166534,0.9979717135429382,-0.040030356496572495,-0.009492820128798485,-0.04856911301612854
629.0,0.0,0.0,0.0,0.0,0.0,0.0,-0.042253442108631134,-0.006743928417563438,0.020564282312989235,0.9976078867912292,-0.04584198817610741,-0.015888214111328125,-0.049230512231588364
630.0,0.0,0.0,0.0,0.0,0.0,0.0,-0.047615330666303635,0.025145165622234344,0.06308607012033463,0.9973909258842468,-0.05068269744515419,-0.020348725840449333,-0.04720055311918259
631.0,0.0,0.0,0.0,0.0,0.0,0.0,-0.05119631811976433,0.03944136202335358,0.023355016484856606,0.997166097164154,-0.05332419276237488,-0.02361864037811756,-0.047516483813524246
632.0,0.0,0.0,0.0,0.0,0.0,0.0,-0.03069177456200123,0.02258145809173584,0.002357934368774295,0.9969048500061035,-0.055346548557281494,-0.02670416235923767,-0.049019161611795425
633.0,0.0,0.0,0.0,0.0,0.0,0.0,-0.030308499932289124,0.029257258400321007,0.014626135118305683,0.9966832399368286,-0.05737878754734993,-0.02843267098069191,-0.05020618438720703
634.0,0.0,0.0,0.0,0.0,0.0,0.0,-0.02084031142294407,0.029826508834958076,0.014723900705575943,0.9965810179710388,-0.05832141265273094,-0.028586940839886665,-0.05106706917285919
635.0,0.0,0.0,0.0,0.0,0.0,0.0,-0.0028861432801932096,0.014906909316778183,0.005331885069608688,0.9964559674263,-0.058707475662231445,-0.0292254239320755,-0.05266224965453148
636.0,0.0,0.0,0.0,0.0,0.0,0.0,-0.001108384458348155,0.007618503645062447,0.00029951927717775106,0.9962916970252991,-0.05868179723620415,-0.030568009242415428,-0.05499647185206413
637.0,0.0,0.0,0.0,0.0,0.0,0.0,-0.005010046064853668,0.02058599144220352,0.007718928158283234,0.9961638450622559,-0.058566927909851074,-0.03192441537976265,-0.05663604289293289
638.0,0.0,0.0,0.0,0.0,0.0,0.0,-0.03235742077231407,0.02559732086956501,0.023015158250927925,0.9961034059524536,-0.05787505954504013,-0.032573916018009186,-0.058022987097501755
639.0,0.0,0.0,0.0,0.0,0.0,0.0,-0.05100516974925995,0.033259931951761246,0.035331543534994125,0.9962109327316284,-0.05605350062251091,-0.031241659075021744,-0.05868678539991379
640.0,0.0,0.0,0.0,0.0,0.0,0.0,-0.02063162252306938,0.16436055302619934,0.02023361623287201,0.9965826869010925,-0.052033282816410065,-0.030358215793967247,-0.056506820023059845
641.0,0.0,0.0,0.0,0.0,0.0,0.0,-0.05477222427725792,0.07356585562229156,0.010362284258008003,0.9970008730888367,-0.04967756196856499,-0.02833777479827404,-0.05213028937578201
642.0,0.0,0.0,0.0,0.0,0.0,0.0,-0.028765752911567688,0.021875867620110512,-0.01016171369701624,0.9973818063735962,-0.04652860015630722,-0.024424318224191666,-0.049672964960336685
643.0,0.0,0.0,0.0,0.0,0.0,0.0,0.0029467714484781027,0.04556935280561447,-0.0021872289944440126,0.9979047179222107,-0.043190501630306244,-0.01969863474369049,-0.04395805671811104
644.0,0.0,0.0,0.0,0.0,0.0,0.0,0.003243792802095413,0.05948401615023613,-0.032656230032444,0.998353898525238,-0.04002279415726662,-0.01716875471174717,-0.03731277585029602
645.0,0.0,0.0,0.0,0.0,0.0,0.0,0.00966032687574625,-0.0002267428208142519,-0.019049659371376038,0.9986526370048523,-0.03824019432067871,-0.015567292459309101,-0.03142968937754631
646.0,0.0,0.0,0.0,0.0,0.0,0.0,0.03277676925063133,-0.016193116083741188,-0.006674863398075104,0.9989078640937805,-0.03751175478100777,-0.012974864803254604,-0.0246371291577816
647.0,0.0,0.0,0.0,0.0,0.0,0.0,0.027352578938007355,-0.012535402551293373,-0.02302355319261551,0.9991057515144348,-0.03757800906896591,-0.009488732554018497,-0.016879113391041756
648.0,0.0,0.0,0.0,0.0,0.0,0.0,0.027420319616794586,0.0038978890515863895,-0.024215616285800934,0.999224841594696,-0.037391677498817444,-0.006155604496598244,-0.010635090060532093
649.0,0.0,0.0,0.0,0.0,0.0,0.0,0.04061247780919075,0.005119775887578726,-0.038618624210357666,0.999254584312439,-0.03790780156850815,-0.003716933075338602,-0.006204813718795776
650.0,0.0,0.0,0.0,0.0,0.0,0.0,0.04950499162077904,0.003019067458808422,-0.027491111308336258,0.9992853999137878,-0.03764116391539574,-0.0023335914593189955,-0.002391957212239504
651.0,0.0,0.0,0.0,0.0,0.0,0.0,0.031461991369724274,0.017282988876104355,-0.004820508882403374,0.9993479251861572,-0.03601425141096115,-0.0023419957142323256,0.000822157715447247
652.0,0.0,0.0,0.0,0.0,0.0,0.0,0.02544311061501503,0.012728205882012844,-0.008324065245687962,0.9993890523910522,-0.034585773944854736,-0.003288200357928872,0.003744572401046753
653.0,0.0,0.0,0.0,0.0,0.0,0.0,-0.008924045599997044,0.01499274093657732,-0.02533428929746151,0.999386727809906,-0.034381989389657974,-0.002323390915989876,0.0061945500783622265
654.0,0.0,0.0,0.0,0.0,0.0,0.0,-0.013701033778488636,-0.0035357861779630184,0.0037944496143609285,0.9993619918823242,-0.034637052565813065,-0.0015786602161824703,0.008535830304026604
655.0,0.0,0.0,0.0,0.0,0.0,0.0,-0.0018071056110784411,0.004719368647783995,0.006172338034957647,0.9993094205856323,-0.03522009029984474,-0.001130715012550354,0.011781943961977959
656.0,0.0,0.0,0.0,0.0,0.0,0.0,0.00165618269238621,0.017056090757250786,-0.010880298912525177,0.9992548227310181,-0.03569847345352173,-0.0015482818707823753,0.014574556611478329
657.0,0.0,0.0,0.0,0.0,0.0,0.0,0.025181330740451813,0.020940767601132393,-0.03821772336959839,0.9991583824157715,-0.037347499281167984,-0.003429967910051346,0.01658272184431553
658.0,0.0,0.0,0.0,0.0,0.0,0.0,0.0027690220158547163,0.023735571652650833,0.0002149733336409554,0.9990231990814209,-0.0397980622947216,-0.004901234060525894,0.01852315478026867
659.0,0.0,0.0,0.0,0.0,0.0,0.0,-0.037604138255119324,0.031787335872650146,0.03978106379508972,0.998860239982605,-0.042180385440588,-0.005823048762977123,0.02154202200472355
660.0,0.0,0.0,0.0,0.0,0.0,0.0,-0.013903941959142685,0.04427780956029892,0.019196804612874985,0.9987059831619263,-0.04383433610200882,-0.006729923188686371,0.024871768429875374
661.0,0.0,0.0,0.0,0.0,0.0,0.0,-0.009666994214057922,0.04262235015630722,0.003470820840448141,0.9985648989677429,-0.04500820115208626,-0.008641516789793968,0.027682248502969742
662.0,0.0,0.0,0.0,0.0,0.0,0.0,-0.02156788483262062,0.03684476763010025,0.010210482403635979,0.998413622379303,-0.04607851430773735,-0.01122198160737753,0.030344292521476746
663.0,0.0,0.0,0.0,0.0,0.0,0.0,-0.02300477959215641,0.03382977098226547,0.015990667045116425,0.9982540607452393,-0.047046784311532974,-0.01391775906085968,0.032872166484594345
664.0,0.0,0.0,0.0,0.0,0.0,0.0,-0.04456387087702751,0.036567505449056625,0.018497874960303307,0.9981538653373718,-0.047304682433605194,-0.01564452424645424,0.034711260348558426
665.0,0.0,0.0,0.0,0.0,0.0,0.0,-0.02144474908709526,0.011543047614395618,0.018745580688118935,0.9981074929237366,-0.04672573134303093,-0.018230987712740898,0.03556441515684128
666.0,0.0,0.0,0.0,0.0,0.0,0.0,-0.022446928545832634,-0.0013887410750612617,0.004509650636464357,0.9980575442314148,-0.046655744314193726,-0.02026478759944439,0.03595426678657532
667.0,0.0,0.0,0.0,0.0,0.0,0.0,-0.005597370211035013,-0.027509517967700958,-0.024777991697192192,0.9980471730232239,-0.04627126082777977,-0.02216697856783867,0.03559906780719757
668.0,0.0,0.0,0.0,0.0,0.0,0.0,0.012143323197960854,-0.0389670692384243,-0.03187127411365509,0.9980271458625793,-0.04572727903723717,-0.023839302361011505,0.035795122385025024
669.0,0.0,0.0,0.0,0.0,0.0,0.0,-0.015595746226608753,-0.04716494679450989,-0.0003178759361617267,0.9980583190917969,-0.04564877599477768,-0.02357678860425949,0.035204607993364334
670.0,0.0,0.0,0.0,0.0,0.0,0.0,-0.031825557351112366,-0.07927484065294266,0.02202776074409485,0.9981703162193298,-0.046413224190473557,-0.019514426589012146,0.03347386419773102
671.0,0.0,0.0,0.0,0.0,0.0,0.0,-0.05152132734656334,-0.10571185499429703,0.03289845958352089,0.9983525276184082,-0.04758260026574135,-0.00975800585001707,0.030518215149641037
672.0,0.0,0.0,0.0,0.0,0.0,0.0,-0.037545498460531235,-0.07689770311117172,0.029494192451238632,0.9985496401786804,-0.04699544608592987,0.0047318884171545506,0.025822985917329788
673.0,0.0,0.0,0.0,0.0,0.0,0.0,0.02147415652871132,0.017029469832777977,0.02221568673849106,0.9986743927001953,-0.04360882192850113,0.018203413113951683,0.020396320149302483
674.0,0.0,0.0,0.0,0.0,0.0,0.0,0.022419260814785957,0.12070778012275696,0.049254924058914185,0.9987441301345825,-0.038007672876119614,0.027716998010873795,0.017220264300704002
675.0,0.0,0.0,0.0,0.0,0.0,0.0,-0.00844563078135252,0.16052690148353577,-0.00032288458896800876,0.9988811016082764,-0.031207822263240814,0.03155553713440895,0.016306867823004723
676.0,0.0,0.0,0.0,0.0,0.0,0.0,0.03863494098186493,0.0905788242816925,-0.03190997615456581,0.999002993106842,-0.024429960176348686,0.03428218141198158,0.014838422648608685
677.0,0.0,0.0,0.0,0.0,0.0,0.0,0.03207091614603996,0.015939809381961823,-0.01611313782632351,0.9990168213844299,-0.0185125432908535,0.037582024931907654,0.01448751613497734
678.0,0.0,0.0,0.0,0.0,0.0,0.0,0.027824928984045982,0.003958240617066622,0.004176972433924675,0.9990437030792236,-0.01266166940331459,0.039024386554956436,0.015095451846718788
679.0,0.0,0.0,0.0,0.0,0.0,0.0,0.05510615557432175,0.027334408834576607,-0.0640028640627861,0.9990339279174805,-0.006386890076100826,0.04065970703959465,0.01537696085870266
680.0,0.0,0.0,0.0,0.0,0.0,0.0,-0.002766584511846304,0.05165444687008858,-0.08244482427835464,0.9989019632339478,-0.00337800825946033,0.0434308797121048,0.017218921333551407
681.0,0.0,0.0,0.0,0.0,0.0,0.0,-0.018326548859477043,0.009019039571285248,-0.022919710725545883,0.9989064335823059,-0.003959729336202145,0.04267942160367966,0.01866127736866474
682.0,0.0,0.0,0.0,0.0,0.0,0.0,0.006314936093986034,-0.0504232794046402,0.030986035242676735,0.9990172386169434,-0.005270646885037422,0.03914589807391167,0.02009773626923561
683.0,0.0,0.0,0.0,0.0,0.0,0.0,-0.02468937076628208,0.004156800452619791,0.04560075327754021,0.9991214275360107,-0.006291995756328106,0.033017437905073166,0.025015609338879585
684.0,0.0,0.0,0.0,0.0,0.0,0.0,-0.037530213594436646,0.007489573210477829,0.03676893189549446,0.9992125034332275,-0.006236780434846878,0.025572771206498146,0.029682554304599762
685.0,0.0,0.0,0.0,0.0,0.0,0.0,0.026057545095682144,-0.0551072396337986,-0.04059974476695061,0.9993299841880798,-0.006758974865078926,0.017374638468027115,0.031488098204135895
686.0,0.0,0.0,0.0,0.0,0.0,0.0,0.03274635225534439,-0.10469900071620941,-0.03828905522823334,0.999411940574646,-0.00991098303347826,0.009276038967072964,0.031478192657232285
687.0,0.0,0.0,0.0,0.0,0.0,0.0,0.03380894660949707,-0.15239547193050385,-0.0045158229768276215,0.9994418025016785,-0.015187653712928295,0.003047697711735964,0.029588529840111732
688.0,0.0,0.0,0.0,0.0,0.0,0.0,-0.012075799517333508,-0.13630878925323486,0.04405153915286064,0.9994510412216187,-0.02144530415534973,-0.0002502426505088806,0.02522326074540615
689.0,0.0,0.0,0.0,0.0,0.0,0.0,-0.01245357096195221,0.07491295784711838,0.020584270358085632,0.9995089769363403,-0.0247591994702816,-0.002811461454257369,0.018971603363752365
690.0,0.0,0.0,0.0,0.0,0.0,0.0,-0.02030937559902668,0.07245595008134842,-0.0011229671072214842,0.9995541572570801,-0.027388861402869225,-0.005677341483533382,0.010421321727335453
691.0,0.0,0.0,0.0,0.0,0.0,0.0,-0.05504659563302994,0.13675683736801147,-0.02631724625825882,0.9995632171630859,-0.027599046006798744,-0.010553454980254173,0.0005026996950618923
692.0,0.0,0.0,0.0,0.0,0.0,0.0,-0.05483011528849602,0.07356967031955719,-0.010462958365678787,0.9994141459465027,-0.027282290160655975,-0.018409112468361855,-0.009372533299028873
693.0,0.0,0.0,0.0,0.0,0.0,0.0,-0.01444456446915865,0.004096928983926773,0.01813841611146927,0.9990968108177185,-0.026261257007718086,-0.027684461325407028,-0.01869099773466587
694.0,0.0,0.0,0.0,0.0,0.0,0.0,-0.01564938575029373,-0.008432440459728241,-0.004293013829737902,0.9986458420753479,-0.025330452248454094,-0.03690612316131592,-0.026503482833504677
695.0,0.0,0.0,0.0,0.0,0.0,0.0,-0.02742387168109417,0.001201996929012239,-0.05974498391151428,0.9982207417488098,-0.02473047934472561,-0.043625377118587494,-0.032249823212623596
696.0,0.0,0.0,0.0,0.0,0.0,0.0,-0.06425116211175919,-0.029233597218990326,-0.008111324161291122,0.9978504776954651,-0.02610134147107601,-0.04691752791404724,-0.037568315863609314
697.0,0.0,0.0,0.0,0.0,0.0,0.0,-0.06354641169309616,-0.002994568319991231,0.023027265444397926,0.9976431131362915,-0.028570497408509254,-0.04763154685497284,-0.04028717428445816
698.0,0.0,0.0,0.0,0.0,0.0,0.0,-0.0585990734398365,0.007340217009186745,0.02919674478471279,0.9976217150688171,-0.030316850170493126,-0.04658299311995506,-0.04076099023222923
699.0,0.0,0.0,0.0,0.0,0.0,0.0,-0.08394859731197357,0.012284224852919579,0.02642381563782692,0.9978100657463074,-0.03041215054690838,-0.04221081733703613,-0.04084565490484238
700.0,0.0,0.0,0.0,0.0,0.0,0.0,-0.0763913094997406,0.03214206174015999,0.006803493481129408,0.9980753064155579,-0.028141489252448082,-0.03512900695204735,-0.042654864490032196
701.0,0.0,0.0,0.0,0.0,0.0,0.0,-0.02866004966199398,0.01708388328552246,0.032718297094106674,0.9983647465705872,-0.024377603083848953,-0.027324864640831947,-0.04389742761850357
702.0,0.0,0.0,0.0,0.0,0.0,0.0,-0.057892244309186935,0.05726703256368637,0.023848211392760277,0.9988365769386292,-0.02066582441329956,-0.014739304780960083,-0.04099804535508156
703.0,0.0,0.0,0.0,0.0,0.0,0.0,-0.044430866837501526,0.03283216059207916,-0.002212533727288246,0.999161958694458,-0.016442425549030304,-0.0014713896671310067,-0.0374503917992115
704.0,0.0,0.0,0.0,0.0,0.0,0.0,0.04273185878992081,-0.028738543391227722,0.0024380942340940237,0.9992918968200684,-0.012683909386396408,0.007348221261054277,-0.03464837372303009
705.0,0.0,0.0,0.0,0.0,0.0,0.0,0.035009246319532394,-0.005260128527879715,0.006033988203853369,0.9994195699691772,-0.011395983397960663,0.015819739550352097,-0.02793431095778942
706.0,0.0,0.0,0.0,0.0,0.0,0.0,-0.006055776029825211,0.02286706306040287,-0.040949538350105286,0.9994163513183594,-0.009215584956109524,0.023568663746118546,-0.022939667105674744
707.0,0.0,0.0,0.0,0.0,0.0,0.0,0.05876139551401138,-0.02525714971125126,-0.04351148009300232,0.9994291663169861,-0.0068682520650327206,0.026434367522597313,-0.019880056381225586
708.0,0.0,0.0,0.0,0.0,0.0,0.0,0.014637055806815624,-0.019114984199404716,-0.047700926661491394,0.9995002150535583,-0.006952247116714716,0.026934055611491203,-0.01499976497143507
709.0,0.0,0.0,0.0,0.0,0.0,0.0,-0.030036790296435356,0.008770964108407497,0.02896955981850624,0.9995526075363159,-0.007238525431603193,0.026485728099942207,-0.011845233850181103
710.0,0.0,0.0,0.0,0.0,0.0,0.0,0.007161655928939581,-0.022228751331567764,-0.02379017509520054,0.9995813965797424,-0.009061772376298904,0.025496358051896095,-0.010225319303572178
711.0,0.0,0.0,0.0,0.0,0.0,0.0,0.03999407961964607,-0.023137567564845085,-0.046686623245477676,0.9996177554130554,-0.010564178228378296,0.023293396458029747,-0.010484794154763222
712.0,0.0,0.0,0.0,0.0,0.0,0.0,0.04027482867240906,-0.01690823957324028,-0.04272192344069481,0.9996697902679443,-0.013171961531043053,0.01685517653822899,-0.014234930276870728
713.0,0.0,0.0,0.0,0.0,0.0,0.0,0.03638317063450813,-0.03872819244861603,-0.05373946577310562,0.9996549487113953,-0.01767265796661377,0.005496189463883638,-0.01863677054643631
714.0,0.0,0.0,0.0,0.0,0.0,0.0,-0.05099096521735191,-0.029833678156137466,0.010235907509922981,0.9994336366653442,-0.02311893366277218,-0.005150176119059324,-0.02390088327229023
715.0,0.0,0.0,0.0,0.0,0.0,0.0,-0.12736256420612335,-0.0008248849771916866,0.13565367460250854,0.9991364479064941,-0.025959080085158348,-0.009187169373035431,-0.031110534444451332
716.0,0.0,0.0,0.0,0.0,0.0,0.0,-0.11285106092691422,0.07263441383838654,0.08647538721561432,0.9990662932395935,-0.02578284591436386,-0.008937986567616463,-0.03348946571350098
717.0,0.0,0.0,0.0,0.0,0.0,0.0,-0.04382826015353203,0.046472445130348206,-0.016115114092826843,0.9991062879562378,-0.023507455363869667,-0.010336359031498432,-0.03357156366109848
718.0,0.0,0.0,0.0,0.0,0.0,0.0,-7.322823512367904e-05,-0.005790441296994686,-0.017341500148177147,0.9991434216499329,-0.020415417850017548,-0.010844545438885689,-0.03432225435972214
719.0,0.0,0.0,0.0,0.0,0.0,0.0,-0.0012468746863305569,-0.026855167001485825,0.006019555032253265,0.9992538690567017,-0.018046459183096886,-0.00734951114282012,-0.03334381431341171
720.0,0.0,0.0,0.0,0.0,0.0,0.0,-0.00032020965591073036,-0.01255494449287653,0.018813541159033775,0.9994016885757446,-0.014336512424051762,-0.0007365842466242611,-0.03146158531308174
721.0,0.0,0.0,0.0,0.0,0.0,0.0,-0.014431053772568703,0.0148012675344944,0.005770956631749868,0.9994871616363525,-0.010649211704730988,0.008629148826003075,-0.0289372019469738
722.0,0.0,0.0,0.0,0.0,0.0,0.0,-0.006336909253150225,0.006526777520775795,0.018368098884820938,0.9994569420814514,-0.008224205113947392,0.018431682139635086,-0.026043886318802834
723.0,0.0,0.0,0.0,0.0,0.0,0.0,0.014440436847507954,0.011796515434980392,-0.00047904657549224794,0.9994518756866455,-0.006610278505831957,0.025963185355067253,-0.019439056515693665
724.0,0.0,0.0,0.0,0.0,0.0,0.0,0.06206592544913292,0.005737955681979656,-0.05527842789888382,0.9994207620620728,-0.004455366171896458,0.03140217438340187,-0.01232971902936697
725.0,0.0,0.0,0.0,0.0,0.0,0.0,0.033333245664834976,0.016588881611824036,-0.06325977295637131,0.9992374181747437,-0.003732177661731839,0.03866761177778244,-0.0039002681151032448
726.0,0.0,0.0,0.0,0.0,0.0,0.0,0.007748737465590239,0.03876856714487076,-0.022807257249951363,0.9989819526672363,-0.002354399999603629,0.044901251792907715,0.0035949572920799255
727.0,0.0,0.0,0.0,0.0,0.0,0.0,-0.001975482329726219,0.0006221000803634524,-0.0160015020519495,0.9988073110580444,-0.0022569012362509966,0.048047613352537155,0.008343445137143135
728.0,0.0,0.0,0.0,0.0,0.0,0.0,0.016318682581186295,0.02144784666597843,-0.005612153094261885,0.9987174868583679,-0.002604452194646001,0.048565708100795746,0.014029864221811295
729.0,0.0,0.0,0.0,0.0,0.0,0.0,-0.004381940700113773,0.03622705861926079,-0.019108431413769722,0.9984673857688904,-0.004047964233905077,0.051347654312849045,0.020240435376763344
730.0,0.0,0.0,0.0,0.0,0.0,0.0,0.0003508134977892041,-0.03838786110281944,-0.030294865369796753,0.9982713460922241,-0.006238552276045084,0.05360832065343857,0.02326006069779396
731.0,0.0,0.0,0.0,0.0,0.0,0.0,0.01617715321481228,-0.04070635885000229,-0.023414719849824905,0.9981371760368347,-0.008322280831634998,0.055163413286209106,0.024670561775565147
732.0,0.0,0.0,0.0,0.0,0.0,0.0,0.014719950035214424,0.019088929519057274,0.007377936504781246,0.9980215430259705,-0.00989540945738554,0.05666261911392212,0.02538168989121914
733.0,0.0,0.0,0.0,0.0,0.0,0.0,-0.01920224167406559,0.0031380788423120975,0.030302871018648148,0.9979711174964905,-0.01197972521185875,0.056555889546871185,0.02665513940155506
734.0,0.0,0.0,0.0,0.0,0.0,0.0,0.041152212768793106,-0.019989876076579094,0.01707633212208748,0.9981482625007629,-0.013280147686600685,0.05213585123419762,0.028365738689899445
735.0,0.0,0.0,0.0,0.0,0.0,0.0,0.00434069475159049,-0.010982259176671505,0.022067535668611526,0.998200535774231,-0.014698975719511509,0.049831051379442215,0.029930559918284416
736.0,0.0,0.0,0.0,0.0,0.0,0.0,-0.029370296746492386,0.008162303827702999,0.01759633794426918,0.9981842637062073,-0.015605808235704899,0.04842760041356087,0.03222418203949928
737.0,0.0,0.0,0.0,0.0,0.0,0.0,0.009535552933812141,-0.001698024570941925,0.014836468733847141,0.9982118606567383,-0.01515902765095234,0.04651203006505966,0.034333039075136185
738.0,0.0,0.0,0.0,0.0,0.0,0.0,0.00534797552973032,0.0065618474036455154,-0.005034058354794979,0.9982022047042847,-0.014796633273363113,0.045528434216976166,0.03603805974125862
739.0,0.0,0.0,0.0,0.0,0.0,0.0,-0.005929245613515377,-0.011693555861711502,0.009325375780463219,0.9981841444969177,-0.015437547117471695,0.04439745098352432,0.037645693868398666
740.0,0.0,0.0,0.0,0.0,0.0,0.0,-0.0022824271582067013,-0.010318336077034473,0.014182687737047672,0.9981622695922852,-0.01523562055081129,0.04370890185236931,0.03909624367952347
741.0,0.0,0.0,0.0,0.0,0.0,0.0,-0.006299617700278759,-0.018480276688933372,0.0199333094060421,0.9981390237808228,-0.014369784854352474,0.04446804150938988,0.03915027529001236
742.0,0.0,0.0,0.0,0.0,0.0,0.0,-0.009952915832400322,-0.012819437310099602,0.013091705739498138,0.9981213808059692,-0.013910294510424137,0.04568058252334595,0.03838258981704712
743.0,0.0,0.0,0.0,0.0,0.0,0.0,-0.007921125739812851,-0.0013551039155572653,0.027968760579824448,0.9981249570846558,-0.01309388317167759,0.04645131155848503,0.03764829412102699
744.0,0.0,0.0,0.0,0.0,0.0,0.0,0.007376811932772398,0.0023042827378958464,0.01127748005092144,0.9981074929237366,-0.011375346221029758,0.047954924404621124,0.03675784170627594
745.0,0.0,0.0,0.0,0.0,0.0,0.0,-0.0025857349392026663,0.009668752551078796,0.0001583296834724024,0.9981637001037598,-0.009249882772564888,0.04838943108916283,0.035241808742284775
746.0,0.0,0.0,0.0,0.0,0.0,0.0,-0.02270064689218998,-0.0025126589462161064,0.021428583189845085,0.9981615543365479,-0.0075539154931902885,0.04967573657631874,0.03388579189777374
747.0,0.0,0.0,0.0,0.0,0.0,0.0,-0.004311853088438511,-0.011072127148509026,0.017368612810969353,0.9981695413589478,-0.004363346844911575,0.05125359073281288,0.03178919851779938
748.0,0.0,0.0,0.0,0.0,0.0,0.0,0.026237493380904198,-0.017906945198774338,-0.021328875795006752,0.9983407855033875,-0.0017286645015701652,0.049555908888578415,0.029262732714414597
749.0,0.0,0.0,0.0,0.0,0.0,0.0,0.014651824720203876,-0.026840735226869583,-0.01585320569574833,0.9985542297363281,-8.668623922858387e-05,0.046051640063524246,0.02771885320544243
750.0,0.0,0.0,0.0,0.0,0.0,0.0,0.007879887707531452,-0.037929464131593704,-0.02476838231086731,0.9986805319786072,0.0004226259479764849,0.044245947152376175,0.026052504777908325
751.0,0.0,0.0,0.0,0.0,0.0,0.0,0.02008596621453762,-0.03367961570620537,-0.013857632875442505,0.9987961053848267,0.0007889304542914033,0.04285823926329613,0.023833582177758217
752.0,0.0,0.0,0.0,0.0,0.0,0.0,0.0007074601599015296,-0.030197173357009888,-0.006346815265715122,0.9989105463027954,0.0003998494357801974,0.04180055111646652,0.020724326372146606
753.0,0.0,0.0,0.0,0.0,0.0,0.0,0.020239481702446938,-0.02976725436747074,-0.016958072781562805,0.9991238713264465,-0.0007005557417869568,0.038394659757614136,0.01662411354482174
754.0,0.0,0.0,0.0,0.0,0.0,0.0,0.01852465234696865,-0.022967876866459846,-0.031441111117601395,0.9993523955345154,-0.003309583989903331,0.03336144983768463,0.013055793941020966
755.0,0.0,0.0,0.0,0.0,0.0,0.0,0.05667037144303322,-0.028507255017757416,-0.037247367203235626,0.9996649026870728,-0.00619563739746809,0.023945875465869904,0.007605012971907854
756.0,0.0,0.0,0.0,0.0,0.0,0.0,0.023441733792424202,-0.037750814110040665,-0.05237691476941109,0.9998555183410645,-0.011249392293393612,0.012505403719842434,0.0023910871241241693
757.0,0.0,0.0,0.0,0.0,0.0,0.0,-0.03960315138101578,-0.01402865257114172,-0.01808522269129753,0.999836266040802,-0.01782539300620556,0.0004086380940862,-0.0029879105277359486
758.0,0.0,0.0,0.0,0.0,0.0,0.0,-0.07423420250415802,0.012944720685482025,0.05363840237259865,0.9996581077575684,-0.022480228915810585,-0.009621700271964073,-0.009252460673451424
759.0,0.0,0.0,0.0,0.0,0.0,0.0,-0.08480284363031387,0.029346950352191925,0.04356738552451134,0.9994455575942993,-0.025007229298353195,-0.01648237742483616,-0.014531991444528103
760.0,0.0,0.0,0.0,0.0,0.0,0.0,-0.10261166095733643,0.043543316423892975,0.031170891597867012,0.9992343783378601,-0.02700754441320896,-0.02219487354159355,-0.01755884662270546
761.0,0.0,0.0,0.0,0.0,0.0,0.0,-0.050004132091999054,0.013467584736645222,0.05582690238952637,0.99906325340271,-0.02688249945640564,-0.02634788304567337,-0.021337362006306648
762.0,0.0,0.0,0.0,0.0,0.0,0.0,-0.03433874249458313,0.012439386919140816,0.0266348198056221,0.998988926410675,-0.02677401527762413,-0.028064431622624397,-0.02272217348217964
763.0,0.0,0.0,0.0,0.0,0.0,0.0,-0.029642464593052864,-0.011191746219992638,0.0008799540810286999,0.9989778995513916,-0.02619696408510208,-0.02817404456436634,-0.023717530071735382
