,Position_X,Position_Y,Position_Z,Velocity_X,Velocity_Y,Velocity_Z,Acceleration_X,Acceleration_Y,Acceleration_Z,Quaterion_0,Quaterion_1,Quaterion_2,Quaterion_3
90.0,0.0,0.0,0.0,0.0,0.0,0.0,0.016857875511050224,-0.02097734808921814,-0.01486422773450613,1.0,8.673617379884035e-19,5.9631119486702744e-18,-1.3877787807814457e-17
91.0,0.0,0.0,0.0,0.0,0.0,0.0,0.055862318724393845,-0.03633198142051697,-0.050315745174884796,0.9999972581863403,-0.00035244401078671217,-0.001452820491977036,0.0017977808602154255
92.0,0.0,0.0,0.0,0.0,0.0,0.0,0.019475901499390602,-0.014882657676935196,0.018186548724770546,0.9999908208847046,-0.0014192451490089297,-0.003403475508093834,0.002185557037591934
93.0,0.0,0.0,0.0,0.0,0.0,0.0,-0.0651988759636879,0.02444414421916008,0.026798106729984283,0.9999886155128479,-0.002828027354553342,-0.0036411378532648087,0.0012301421957090497
94.0,0.0,0.0,0.0,0.0,0.0,0.0,-0.04900091141462326,0.009324992075562477,0.036838073283433914,0.9999932050704956,-0.0009942256147041917,-0.0025786771439015865,-0.002450615866109729
95.0,0.0,0.0,0.0,0.0,0.0,0.0,0.014837948605418205,-0.0005647924263030291,0.013475370593369007,0.99998539686203,-0.0010208715684711933,-0.002604106906801462,-0.004623427055776119
96.0,0.0,0.0,0.0,0.0,0.0,0.0,0.0029954586643725634,-0.006792885717004538,-0.0064316559582948685,0.9999827146530151,-0.0011379646603018045,-0.0034896559081971645,-0.00459871394559741
97.0,0.0,0.0,0.0,0.0,0.0,0.0,-0.01824868656694889,0.006884916685521603,0.020876076072454453,0.9999873638153076,-0.0008106559398584068,-0.003144186455756426,-0.0038341672625392675
98.0,0.0,0.0,0.0,0.0,0.0,0.0,-0.0006190727581270039,0.011600092984735966,0.006852258928120136,0.9999932050704956,-0.00011371089931344613,-0.003095085732638836,-0.0020028569269925356
99.0,0.0,0.0,0.0,0.0,0.0,0.0,-0.0074590397998690605,-0.002563436748459935,0.0032203136943280697,0.9999951720237732,0.0006522819167003036,-0.0030116320122033358,0.00037809135392308235
100.0,0.0,0.0,0.0,0.0,0.0,0.0,-0.0034348806366324425,0.014024344272911549,0.012117725796997547,0.9999942183494568,0.0015145703218877316,-0.0027185576036572456,0.0013722422299906611
101.0,0.0,0.0,0.0,0.0,0.0,0.0,0.013178570196032524,0.004968450870364904,-0.008371858857572079,0.9999924302101135,0.00222041760571301,-0.002940559294074774,0.0012549053644761443
102.0,0.0,0.0,0.0,0.0,0.0,0.0,0.0046468740329146385,-0.005249497480690479,-0.01160684134811163,0.9999925494194031,0.002279064152389765,-0.0031078625470399857,0.00014432698662858456
103.0,0.0,0.0,0.0,0.0,0.0,0.0,-0.0034730432089418173,0.01341472938656807,-0.0027283604722470045,0.9999898672103882,0.002721883822232485,-0.003088749013841152,-0.001816601026803255
104.0,0.0,0.0,0.0,0.0,0.0,0.0,0.0015550917014479637,0.0002423834812361747,-0.008131362497806549,0.9999839067459106,0.003126198425889015,-0.0031259641982614994,-0.003557324642315507
105.0,0.0,0.0,0.0,0.0,0.0,0.0,0.001886795274913311,-0.0007346196798607707,-0.011358797550201416,0.9999838471412659,0.00280795362778008,-0.002755616558715701,-0.004095817916095257
106.0,0.0,0.0,0.0,0.0,0.0,0.0,-0.0009829765185713768,0.004453333094716072,-0.009771596640348434,0.9999875426292419,0.0030392922926694155,-0.002791421487927437,-0.00280265836045146
107.0,0.0,0.0,0.0,0.0,0.0,0.0,-0.002969251712784171,0.0032727676443755627,-0.007012990303337574,0.9999913573265076,0.003096663858741522,-0.002615243662148714,-0.0009037207928486168
108.0,0.0,0.0,0.0,0.0,0.0,0.0,-0.0006180452764965594,0.00643709022551775,-0.00484479870647192,0.9999922513961792,0.0031828104984015226,-0.0022238940000534058,0.0006301058456301689
109.0,0.0,0.0,0.0,0.0,0.0,0.0,0.002112163696438074,0.008186268620193005,-0.00015129568055272102,0.9999918341636658,0.0032505120616406202,-0.0020903307013213634,0.0011774307349696755
110.0,0.0,0.0,0.0,0.0,0.0,0.0,0.001594897243194282,0.006597996223717928,0.001971545862033963,0.9999908804893494,0.0034732602071017027,-0.002247631549835205,0.0010821036994457245
111.0,0.0,0.0,0.0,0.0,0.0,0.0,-0.00038954243063926697,0.0051457080990076065,-0.0009139314061030746,0.999991238117218,0.0034263087436556816,-0.002341756597161293,0.0005721062771044672
112.0,0.0,0.0,0.0,0.0,0.0,0.0,-0.0019100585486739874,0.004673943389207125,-0.000549562624655664,0.9999914765357971,0.0033804334234446287,-0.0023144842125475407,-0.000511391379404813
113.0,0.0,0.0,0.0,0.0,0.0,0.0,-4.3703992560040206e-05,0.0033106855116784573,0.005455968901515007,0.9999900460243225,0.003536549163982272,-0.0023228346835821867,-0.0014328421093523502
114.0,0.0,0.0,0.0,0.0,0.0,0.0,-0.004142662510275841,0.0028657244984060526,0.004939846694469452,0.9999911189079285,0.003412272548303008,-0.0023023958783596754,-0.0008744819206185639
115.0,0.0,0.0,0.0,0.0,0.0,0.0,-0.007010989356786013,0.0005467992159537971,0.002064240165054798,0.9999924302101135,0.003361281007528305,-0.0019185513956472278,0.00043110406841151416
116.0,0.0,0.0,0.0,0.0,0.0,0.0,-0.003822404658421874,-0.0017196852713823318,0.000762079143896699,0.9999913573265076,0.0035338266752660275,-0.0013181022368371487,0.0017609500791877508
117.0,0.0,0.0,0.0,0.0,0.0,0.0,-3.428972922847606e-05,-0.01003802940249443,-0.007127024699002504,0.9999887943267822,0.003564756363630295,-0.0005723857902921736,0.0030552763491868973
118.0,0.0,0.0,0.0,0.0,0.0,0.0,0.01630699262022972,-0.02887594886124134,-0.03696390241384506,0.9999895095825195,0.0024100346490740776,0.0010350140510126948,0.0037614067550748587
119.0,0.0,0.0,0.0,0.0,0.0,0.0,0.05568667873740196,-0.03538317605853081,-0.07237957417964935,0.9999833106994629,0.0012369782198220491,-0.00023632109514437616,0.0056359120644629
120.0,0.0,0.0,0.0,0.0,0.0,0.0,0.02971501462161541,-0.011210134252905846,0.04212234914302826,0.9999784231185913,-0.00022530295245815068,-0.0027720017824321985,0.005949315149337053
121.0,0.0,0.0,0.0,0.0,0.0,0.0,-0.08504361659288406,0.04641123488545418,0.02392728067934513,0.9999826550483704,-0.0018304688856005669,-0.0033816571813076735,0.004466937389224768
122.0,0.0,0.0,0.0,0.0,0.0,0.0,-0.08266057819128036,-0.002370593138039112,0.017268730327486992,0.9999991059303284,0.0005832348833791912,-0.0010348755167797208,-0.0006265458650887012
123.0,0.0,0.0,0.0,0.0,0.0,0.0,0.03328704461455345,-0.0013470178237184882,0.011155244894325733,0.9999948740005493,0.0007851445116102695,-0.0002566800976637751,-0.0030879045370966196
124.0,0.0,0.0,0.0,0.0,0.0,0.0,0.03794627636671066,-0.014081123284995556,-0.023249605670571327,0.999997079372406,0.0012903849128633738,-0.0012362656416371465,-0.0016378593863919377
125.0,0.0,0.0,0.0,0.0,0.0,0.0,-0.0017951879417523742,-0.01527555100619793,-0.009981321170926094,0.9999969005584717,0.00012755428906530142,-0.0023353879805654287,0.0008207344799302518
126.0,0.0,0.0,0.0,0.0,0.0,0.0,-0.03362562507390976,0.018306000158190727,0.03696015104651451,0.9999937415122986,-0.0005328008555807173,-0.0017586713656783104,0.0030280037317425013
127.0,0.0,0.0,0.0,0.0,0.0,0.0,-0.012041543610394001,0.03832921013236046,0.03728592395782471,0.999983549118042,0.0006081722094677389,-0.0015968949301168323,0.00547677231952548
128.0,0.0,0.0,0.0,0.0,0.0,0.0,0.01745949685573578,-0.00023545145813841373,0.0036078710108995438,0.9999800324440002,0.001097091124393046,-0.001726978924125433,0.005982030648738146
129.0,0.0,0.0,0.0,0.0,0.0,0.0,0.013018902391195297,-0.0008345238748006523,-0.004133635200560093,0.9999864101409912,-9.111831604968756e-05,-0.001978220185264945,0.004819277673959732
130.0,0.0,0.0,0.0,0.0,0.0,0.0,0.0012742605758830905,0.025694509968161583,0.008979457430541515,0.9999939203262329,-4.199365503154695e-05,-0.002085325540974736,0.0027985479682683945
131.0,0.0,0.0,0.0,0.0,0.0,0.0,-0.0025838620495051146,0.01009396556764841,0.008945352397859097,0.9999980330467224,0.00015765373245812953,-0.001966626150533557,0.00025837530847638845
132.0,0.0,0.0,0.0,0.0,0.0,0.0,0.0032168168108910322,0.008447266183793545,-0.002505791373550892,0.9999984502792358,0.00010624661081237718,-0.0014623870374634862,-0.0009747521253302693
133.0,0.0,0.0,0.0,0.0,0.0,0.0,0.008204635232686996,0.007722756359726191,-0.01136812288314104,0.9999988675117493,0.00037393916863948107,-0.001454148325137794,-0.00012586241064127535
134.0,0.0,0.0,0.0,0.0,0.0,0.0,0.0038087223656475544,0.007841754704713821,-0.006422028876841068,0.9999964237213135,0.0004583894624374807,-0.0015586663503199816,0.002111137146130204
135.0,0.0,0.0,0.0,0.0,0.0,0.0,-0.005251999478787184,0.01399097591638565,-0.003810904687270522,0.9999862909317017,0.0007076657493598759,-0.0014657527208328247,0.004977211356163025
136.0,0.0,0.0,0.0,0.0,0.0,0.0,-0.0013783404137939215,0.01326269842684269,0.0006722863763570786,0.9999754428863525,0.0009770682081580162,-0.0014413506723940372,0.0067846025340259075
137.0,0.0,0.0,0.0,0.0,0.0,0.0,-0.001496884971857071,0.014115923084318638,0.0015556588768959045,0.9999791383743286,0.001495315576903522,-0.0012843096628785133,0.0061475238762795925
138.0,0.0,0.0,0.0,0.0,0.0,0.0,-0.006511943880468607,0.0016803606413304806,-0.00757363298907876,0.9999868273735046,0.001849711174145341,-0.0011859203223139048,0.004643538501113653
139.0,0.0,0.0,0.0,0.0,0.0,0.0,-0.0018872545333579183,0.002160819247364998,-0.0062200287356972694,0.9999931454658508,0.0017974143847823143,-0.0014189647044986486,0.0029169260524213314
140.0,0.0,0.0,0.0,0.0,0.0,0.0,-0.005059465765953064,0.006874799262732267,0.005219841841608286,0.9999961256980896,0.0020974171347916126,-0.0014145096065476537,0.0011393751483410597
141.0,0.0,0.0,0.0,0.0,0.0,0.0,-0.008993868716061115,0.002245919080451131,0.00592126464471221,0.9999960064888,0.0026120981201529503,-0.0010243725264444947,0.0003793691867031157
142.0,0.0,0.0,0.0,0.0,0.0,0.0,-0.005713139194995165,-0.00023367255926132202,0.005811944603919983,0.999994695186615,0.002822849666699767,-0.0004565680574160069,0.0015636220341548324
143.0,0.0,0.0,0.0,0.0,0.0,0.0,-0.0038864354137331247,-0.0009085003403015435,0.0020803476218134165,0.9999873638153076,0.003172593889757991,0.0002945868473034352,0.00388786057010293
144.0,0.0,0.0,0.0,0.0,0.0,0.0,0.004426152445375919,-0.012926747091114521,-0.016373831778764725,0.9999749064445496,0.003321683034300804,0.0008895263308659196,0.006197270471602678
145.0,0.0,0.0,0.0,0.0,0.0,0.0,0.019025878980755806,-0.028278129175305367,-0.021680403500795364,0.9999640583992004,0.0026983360294252634,0.0029122554697096348,0.007488089147955179
146.0,0.0,0.0,0.0,0.0,0.0,0.0,0.08197035640478134,-0.026749327778816223,-0.06140847131609917,0.9999427795410156,0.002800003159791231,0.002436186885461211,0.010032810270786285
147.0,0.0,0.0,0.0,0.0,0.0,0.0,0.10066885501146317,-0.031781166791915894,-0.024525417014956474,0.9999393224716187,0.0013204350834712386,-0.0011918524978682399,0.010870845057070255
148.0,0.0,0.0,0.0,0.0,0.0,0.0,-0.07598704099655151,0.0094599025323987,-0.0017051120521500707,0.9999399185180664,-0.0019198562949895859,-0.0016917630564421415,0.01066023763269186
149.0,0.0,0.0,0.0,0.0,0.0,0.0,-0.08811185508966446,0.01868167333304882,0.03161915764212608,0.999975323677063,-0.0006332260672934353,-0.0005361973308026791,0.006979127414524555
150.0,0.0,0.0,0.0,0.0,0.0,0.0,0.010911785997450352,-0.002663007006049156,0.027063287794589996,0.9999964237213135,-0.0011532502248883247,0.0009596524178050458,0.002199798822402954
151.0,0.0,0.0,0.0,0.0,0.0,0.0,0.03982158005237579,-0.019029274582862854,-0.011160852387547493,0.9999954700469971,-0.00237737107090652,0.0004622721753548831,0.0017919326201081276
152.0,0.0,0.0,0.0,0.0,0.0,0.0,0.02236604131758213,-0.019204597920179367,-0.026901761069893837,0.9999806880950928,-0.004007624462246895,-0.0016750139184296131,0.0044409045949578285
153.0,0.0,0.0,0.0,0.0,0.0,0.0,-0.04218243062496185,-0.00922174472361803,0.006948570255190134,0.9999488592147827,-0.007067985832691193,-0.0026119581889361143,0.0067477962002158165
154.0,0.0,0.0,0.0,0.0,0.0,0.0,-0.04921014606952667,0.035366009920835495,0.04298390820622444,0.9999232292175293,-0.008065138012170792,-0.0027286892291158438,0.00900634191930294
155.0,0.0,0.0,0.0,0.0,0.0,0.0,-0.021275626495480537,0.027390863746404648,0.026184385642409325,0.9999223947525024,-0.006939557380974293,-0.0027849930338561535,0.009964549914002419
156.0,0.0,0.0,0.0,0.0,0.0,0.0,-0.00925574079155922,-0.007147090043872595,-0.002251321217045188,0.9999259114265442,-0.007447930984199047,-0.0027316322084516287,0.009234044700860977
157.0,0.0,0.0,0.0,0.0,0.0,0.0,-0.014239631593227386,0.009879195131361485,0.009647847153246403,0.9999325275421143,-0.007953543215990067,-0.002666886430233717,0.008035832084715366
158.0,0.0,0.0,0.0,0.0,0.0,0.0,-0.008440383709967136,0.01412270125001669,0.020237652584910393,0.9999409317970276,-0.007844030857086182,-0.002506751101464033,0.007090946659445763
159.0,0.0,0.0,0.0,0.0,0.0,0.0,-0.0046476623974740505,0.007876573130488396,-0.00014167226618155837,0.9999471306800842,-0.008172819390892982,-0.0021397469099611044,0.005859524477273226
160.0,0.0,0.0,0.0,0.0,0.0,0.0,0.006082732230424881,0.0022394624538719654,-0.02102755941450596,0.9999388456344604,-0.008974351920187473,-0.0017931024776771665,0.006205398123711348
161.0,0.0,0.0,0.0,0.0,0.0,0.0,0.006142474710941315,0.0008593186503276229,-0.012912111356854439,0.9999116063117981,-0.010024698451161385,-0.002122951438650489,0.008468528278172016
162.0,0.0,0.0,0.0,0.0,0.0,0.0,0.0009092514519579709,0.022720014676451683,0.017454002052545547,0.9998843669891357,-0.010547538287937641,-0.002057065488770604,0.010757550597190857
163.0,0.0,0.0,0.0,0.0,0.0,0.0,0.007252846844494343,0.029536837711930275,0.014009464532136917,0.9998722076416016,-0.009746936149895191,-0.0017477236688137054,0.012549307197332382
164.0,0.0,0.0,0.0,0.0,0.0,0.0,0.032384373247623444,0.009928882122039795,-0.01765481010079384,0.9998749494552612,-0.008622984401881695,-0.0014999903505668044,0.013174260966479778
165.0,0.0,0.0,0.0,0.0,0.0,0.0,0.04444748908281326,-0.00035099664819426835,-0.03413907438516617,0.9998804330825806,-0.007938369177281857,-0.002072631847113371,0.013108550570905209
166.0,0.0,0.0,0.0,0.0,0.0,0.0,0.024975363165140152,0.0011543394066393375,-0.020846709609031677,0.9998843669891357,-0.007684331387281418,-0.003082742914557457,0.01275526825338602
167.0,0.0,0.0,0.0,0.0,0.0,0.0,0.004789132624864578,0.011082278564572334,-0.0012699433136731386,0.9998970627784729,-0.007112352643162012,-0.0037531449925154448,0.01188198197633028
168.0,0.0,0.0,0.0,0.0,0.0,0.0,-0.0008463382255285978,0.01055696327239275,0.011117035523056984,0.9999129176139832,-0.006458753254264593,-0.004095403477549553,0.010753358714282513
169.0,0.0,0.0,0.0,0.0,0.0,0.0,0.0014147104229778051,0.014944829046726227,0.014831663109362125,0.999919593334198,-0.005789213813841343,-0.004139060154557228,0.010498515330255032
170.0,0.0,0.0,0.0,0.0,0.0,0.0,0.00621464429423213,0.013923047110438347,0.0195024237036705,0.9999243021011353,-0.004035532474517822,-0.0041890195570886135,0.010842090472579002
171.0,0.0,0.0,0.0,0.0,0.0,0.0,0.01335393451154232,0.009456712752580643,0.011941238306462765,0.9999260306358337,-0.0017587370239198208,-0.0040345522575080395,0.011335015296936035
172.0,0.0,0.0,0.0,0.0,0.0,0.0,0.011576020158827305,-0.008967997506260872,-0.008907707408070564,0.9999241828918457,0.00018764457490760833,-0.0037774955853819847,0.01171298511326313
173.0,0.0,0.0,0.0,0.0,0.0,0.0,0.005904720164835453,-0.015666859224438667,-0.014912538230419159,0.9999217987060547,0.0013752233935520053,-0.003871014341711998,0.011809032410383224
174.0,0.0,0.0,0.0,0.0,0.0,0.0,0.0006094676209613681,-0.0053833043202757835,-0.004623958840966225,0.999922513961792,0.0022431574761867523,-0.004060463514178991,0.011551190167665482
175.0,0.0,0.0,0.0,0.0,0.0,0.0,-0.01075863279402256,-0.0022000346798449755,-0.0010688708862289786,0.9999252557754517,0.0033570174127817154,-0.004319659899920225,0.010934611782431602
176.0,0.0,0.0,0.0,0.0,0.0,0.0,-0.014874190092086792,0.0034748930484056473,0.012193434871733189,0.9999365210533142,0.00455076340585947,-0.0043047587387263775,0.009366651996970177
177.0,0.0,0.0,0.0,0.0,0.0,0.0,-0.011544902808964252,0.002294010017067194,0.017290595918893814,0.9999467730522156,0.006158236879855394,-0.004055299796164036,0.007215521298348904
178.0,0.0,0.0,0.0,0.0,0.0,0.0,-0.011604911647737026,-0.010846513323485851,-0.018361840397119522,0.9999507069587708,0.006725681014358997,-0.004216866102069616,0.005965729709714651
179.0,0.0,0.0,0.0,0.0,0.0,0.0,-0.01812015101313591,-0.01795806735754013,-0.03175178915262222,0.99994957447052,0.006455843336880207,-0.004837670363485813,0.005982666742056608
180.0,0.0,0.0,0.0,0.0,0.0,0.0,-0.035110585391521454,-0.002292661927640438,-0.009096937254071236,0.9999526143074036,0.005417604465037584,-0.005495395977050066,0.005937385372817516
181.0,0.0,0.0,0.0,0.0,0.0,0.0,-0.03367704153060913,0.004478398244827986,0.006432971451431513,0.9999539852142334,0.003998204600065947,-0.0065103452652692795,0.005799377337098122
182.0,0.0,0.0,0.0,0.0,0.0,0.0,-0.01939956098794937,0.007904852740466595,0.02278594672679901,0.9999570250511169,0.0018561036558821797,-0.007460708264261484,0.005176249425858259
183.0,0.0,0.0,0.0,0.0,0.0,0.0,-0.010149048641324043,0.03752950206398964,0.04770069196820259,0.9999555945396423,0.0034890153910964727,-0.00810603890568018,0.0032895198091864586
184.0,0.0,0.0,0.0,0.0,0.0,0.0,0.010067117400467396,0.039788682013750076,0.04781673103570938,0.9999414682388306,0.006574559491127729,-0.008570401929318905,0.0006379709229804575
185.0,0.0,0.0,0.0,0.0,0.0,0.0,0.003714032005518675,0.0051842182874679565,0.015738653019070625,0.9998940825462341,0.011276758275926113,-0.008986293338239193,-0.0019635939970612526
186.0,0.0,0.0,0.0,0.0,0.0,0.0,0.005165997892618179,-0.011655960232019424,-0.00225139781832695,0.9998281598091125,0.01534999068826437,-0.009328566491603851,-0.0045721279457211494
187.0,0.0,0.0,0.0,0.0,0.0,0.0,0.0078083002008497715,-0.01416576188057661,-0.015590276569128036,0.9997472763061523,0.019426284357905388,-0.008705870248377323,-0.007223634514957666
188.0,0.0,0.0,0.0,0.0,0.0,0.0,0.03033623844385147,-0.0361616425216198,-0.014793846756219864,0.9996735453605652,0.02278195507824421,-0.008408659137785435,-0.007942651398479939
189.0,0.0,0.0,0.0,0.0,0.0,0.0,0.026980826631188393,-0.03861365467309952,-0.03064137138426304,0.999668300151825,0.023335903882980347,-0.009056394919753075,-0.006055214907974005
190.0,0.0,0.0,0.0,0.0,0.0,0.0,0.0045861052349209785,-0.03262055665254593,-0.03254050761461258,0.9997062087059021,0.02185990661382675,-0.009512724354863167,-0.004380289930850267
191.0,0.0,0.0,0.0,0.0,0.0,0.0,-0.002934665884822607,-0.03018077462911606,-0.0163535438477993,0.9997722506523132,0.01851193606853485,-0.009787489660084248,-0.004109981935471296
192.0,0.0,0.0,0.0,0.0,0.0,0.0,-0.009969798848032951,-0.025510167703032494,-0.02676953561604023,0.9998639225959778,0.01301492564380169,-0.009073959663510323,-0.0045088231563568115
193.0,0.0,0.0,0.0,0.0,0.0,0.0,0.011572801508009434,-0.01614777371287346,-0.025569790974259377,0.9999157786369324,0.007905310019850731,-0.009132152423262596,-0.0047339778393507
194.0,0.0,0.0,0.0,0.0,0.0,0.0,0.015466581098735332,-0.013310346752405167,0.012179248034954071,0.9999368786811829,0.002401965670287609,-0.010431470349431038,-0.00341124483384192
195.0,0.0,0.0,0.0,0.0,0.0,0.0,-0.02670867368578911,0.035105615854263306,0.01744111068546772,0.9999331831932068,-0.0013467521639540792,-0.011267666704952717,-0.002172725973650813
196.0,0.0,0.0,0.0,0.0,0.0,0.0,-0.002489090897142887,0.009485265240073204,0.0019463852513581514,0.9999237656593323,-0.002161413198336959,-0.011911445297300816,-0.0023889392614364624
197.0,0.0,0.0,0.0,0.0,0.0,0.0,0.011406727135181427,-0.007822372019290924,0.004411586094647646,0.9999207258224487,-0.0037201745435595512,-0.012010865844786167,-0.00060805375687778
198.0,0.0,0.0,0.0,0.0,0.0,0.0,-0.004168860614299774,0.019102396443486214,0.010407601483166218,0.9999123811721802,-0.00430494686588645,-0.01233111321926117,0.002175683621317148
199.0,0.0,0.0,0.0,0.0,0.0,0.0,-0.0014596747932955623,0.007937338203191757,0.017411155626177788,0.999908447265625,-0.004105318803340197,-0.012375658378005028,0.0035946168936789036
200.0,0.0,0.0,0.0,0.0,0.0,0.0,0.012870374135673046,0.015643266960978508,0.01690281555056572,0.9999063611030579,-0.004038454499095678,-0.01232186146080494,0.004362821113318205
201.0,0.0,0.0,0.0,0.0,0.0,0.0,0.0014916271902620792,0.010354441590607166,0.014118894003331661,0.9999096393585205,-0.0032554196659475565,-0.012224246747791767,0.004544802010059357
202.0,0.0,0.0,0.0,0.0,0.0,0.0,-0.0037914454005658627,0.022353269159793854,0.026493078097701073,0.9999213218688965,-0.0017251489916816354,-0.01163802482187748,0.004357134457677603
203.0,0.0,0.0,0.0,0.0,0.0,0.0,-0.004356469959020615,0.01712609827518463,0.020975101739168167,0.9999321103096008,0.000729637686163187,-0.011254253797233105,0.0029111464973539114
204.0,0.0,0.0,0.0,0.0,0.0,0.0,-0.008164025843143463,-0.002929235575720668,0.014430900104343891,0.9999472498893738,0.0020029444713145494,-0.010014728643000126,0.0011011864989995956
205.0,0.0,0.0,0.0,0.0,0.0,0.0,0.0005423647235147655,0.01115257479250431,0.024051837623119354,0.9999551773071289,0.0027840998955070972,-0.00903002917766571,0.0006463389727286994
206.0,0.0,0.0,0.0,0.0,0.0,0.0,0.007585249375551939,-0.007743078283965588,-0.019072122871875763,0.9999607801437378,0.0028644963167607784,-0.008223194628953934,0.0015696545597165823
207.0,0.0,0.0,0.0,0.0,0.0,0.0,0.01743369549512863,-0.03451930731534958,-0.048313308507204056,0.9999639391899109,0.0006453059613704681,-0.00776816438883543,0.003363917814567685
208.0,0.0,0.0,0.0,0.0,0.0,0.0,0.02338438667356968,-0.011544876731932163,-0.02991023287177086,0.9999415278434753,-0.0029302032198756933,-0.00781258661299944,0.006873931735754013
209.0,0.0,0.0,0.0,0.0,0.0,0.0,0.009895222261548042,0.0032850001007318497,-0.02633669227361679,0.9998776316642761,-0.006673099938780069,-0.009015738032758236,0.010908514261245728
210.0,0.0,0.0,0.0,0.0,0.0,0.0,0.012642746791243553,0.015700550749897957,-0.009908336214721203,0.999805212020874,-0.009665711782872677,-0.010334947146475315,0.013756725937128067
211.0,0.0,0.0,0.0,0.0,0.0,0.0,0.02316531538963318,0.03519777953624725,0.00804504007101059,0.9997765421867371,-0.010641236789524555,-0.011376616545021534,0.014291740022599697
212.0,0.0,0.0,0.0,0.0,0.0,0.0,0.00434147147461772,0.010715944692492485,-0.009872080758213997,0.9997954368591309,-0.010466468520462513,-0.01197082456201315,0.01249588094651699
213.0,0.0,0.0,0.0,0.0,0.0,0.0,-0.007543029263615608,-0.010731698013842106,-0.0018553858390077949,0.9998105764389038,-0.01029348187148571,-0.012335717678070068,0.010977102443575859
214.0,0.0,0.0,0.0,0.0,0.0,0.0,0.0002649759699124843,0.019530784338712692,0.025319131091237068,0.9998176097869873,-0.010011360980570316,-0.012347325682640076,0.01059015654027462
215.0,0.0,0.0,0.0,0.0,0.0,0.0,0.0033127402421087027,0.011401747353374958,0.0036661862395703793,0.9998359084129333,-0.008329121395945549,-0.01227676123380661,0.010391926392912865
216.0,0.0,0.0,0.0,0.0,0.0,0.0,0.004696161951869726,-0.01852809265255928,-0.007244496140629053,0.9998351335525513,-0.007283233106136322,-0.012083753012120724,0.011430160142481327
217.0,0.0,0.0,0.0,0.0,0.0,0.0,0.005118293222039938,0.0009415000095032156,0.004771099891513586,0.9998241066932678,-0.0072304243221879005,-0.011843371205031872,0.012616211548447609
218.0,0.0,0.0,0.0,0.0,0.0,0.0,0.005183270666748285,0.009836968965828419,0.007844401523470879,0.9998086094856262,-0.006931500043720007,-0.01206706278026104,0.0137440524995327
219.0,0.0,0.0,0.0,0.0,0.0,0.0,-0.006818146910518408,0.0058591426350176334,0.006141121964901686,0.999805212020874,-0.006664372980594635,-0.012435384094715118,0.01380018051713705
220.0,0.0,0.0,0.0,0.0,0.0,0.0,-0.015059830620884895,0.0022802960593253374,0.004463196732103825,0.9998257160186768,-0.00594092532992363,-0.012418568134307861,0.012610550038516521
221.0,0.0,0.0,0.0,0.0,0.0,0.0,-0.003625435521826148,-0.000798908993601799,0.006423698738217354,0.9998478293418884,-0.00536133861169219,-0.012513210996985435,0.010908082127571106
222.0,0.0,0.0,0.0,0.0,0.0,0.0,0.0030556225683540106,-0.0006586122908629477,0.005221633706241846,0.9998554587364197,-0.004716194700449705,-0.013081669807434082,0.009776564314961433
223.0,0.0,0.0,0.0,0.0,0.0,0.0,0.0009539602906443179,-0.012006019242107868,-0.011608998291194439,0.999847948551178,-0.004711972549557686,-0.013507431373000145,0.00997409038245678
224.0,0.0,0.0,0.0,0.0,0.0,0.0,-0.000962777528911829,-0.012376625090837479,-0.011415204033255577,0.9998272657394409,-0.00491362577304244,-0.013709385879337788,0.011547253467142582
225.0,0.0,0.0,0.0,0.0,0.0,0.0,0.0052002002485096455,-0.0040707699954509735,-0.008677814155817032,0.9997894763946533,-0.005310033448040485,-0.014360865578055382,0.01365941483527422
226.0,0.0,0.0,0.0,0.0,0.0,0.0,-0.0014371378347277641,-0.005080950912088156,-0.007937309332191944,0.9997387528419495,-0.006013060454279184,-0.015273822471499443,0.015907099470496178
227.0,0.0,0.0,0.0,0.0,0.0,0.0,-0.003226742148399353,-0.005890010856091976,-0.012508570216596127,0.999681830406189,-0.007556039374321699,-0.016320159658789635,0.017687330022454262
228.0,0.0,0.0,0.0,0.0,0.0,0.0,-0.007989275269210339,-0.000641274789813906,-0.015790417790412903,0.999629557132721,-0.009659244678914547,-0.01776612177491188,0.018218345940113068
229.0,0.0,0.0,0.0,0.0,0.0,0.0,-0.014192375354468822,-0.0015586076769977808,-0.009271996095776558,0.9996053576469421,-0.011684161610901356,-0.019310591742396355,0.01672413758933544
230.0,0.0,0.0,0.0,0.0,0.0,0.0,-0.011271456256508827,-7.111326704034582e-05,0.0005111086065880954,0.9995858073234558,-0.013407615013420582,-0.020748678594827652,0.014755820855498314
231.0,0.0,0.0,0.0,0.0,0.0,0.0,-0.018915319815278053,0.004729816224426031,0.00433312775567174,0.9995383620262146,-0.015168774873018265,-0.022450337186455727,0.013743736781179905
232.0,0.0,0.0,0.0,0.0,0.0,0.0,-0.02247883565723896,0.005312574561685324,0.010090530849993229,0.9994908571243286,-0.01589936763048172,-0.024045279249548912,0.013674814254045486
233.0,0.0,0.0,0.0,0.0,0.0,0.0,-0.025521721690893173,0.010517077520489693,0.01480402797460556,0.9994510412216187,-0.01651110127568245,-0.02499760501086712,0.014146130532026291
234.0,0.0,0.0,0.0,0.0,0.0,0.0,-0.020032308995723724,0.01281848642975092,0.00978828314691782,0.9993973970413208,-0.01676877960562706,-0.026247836649417877,0.01531696505844593
235.0,0.0,0.0,0.0,0.0,0.0,0.0,-0.015837308019399643,0.009998034685850143,0.007324442733079195,0.9993507862091064,-0.01671696826815605,-0.02706453949213028,0.016908207908272743
236.0,0.0,0.0,0.0,0.0,0.0,0.0,-0.014229748398065567,0.010385517030954361,0.012810494750738144,0.9993385076522827,-0.016288619488477707,-0.027256948873400688,0.01772914081811905
237.0,0.0,0.0,0.0,0.0,0.0,0.0,-0.012493089772760868,0.010174325667321682,0.011093072593212128,0.9993378520011902,-0.015726400539278984,-0.027078723534941673,0.01852676458656788
238.0,0.0,0.0,0.0,0.0,0.0,0.0,0.0026057339273393154,0.007586960215121508,0.005624283105134964,0.9993657469749451,-0.014448658563196659,-0.02698935754597187,0.01819179393351078
239.0,0.0,0.0,0.0,0.0,0.0,0.0,0.008858387358486652,0.008799771778285503,0.010435898788273335,0.9994246363639832,-0.012569720856845379,-0.026343869045376778,0.0172782763838768
240.0,0.0,0.0,0.0,0.0,0.0,0.0,0.005365130491554737,0.013518836349248886,0.02312428504228592,0.9995555877685547,-0.008704225532710552,-0.024061884731054306,0.015291092917323112
241.0,0.0,0.0,0.0,0.0,0.0,0.0,-0.010289168916642666,0.013600805774331093,0.03761236369609833,0.9996813535690308,-0.004585726652294397,-0.02126254327595234,0.012806753627955914
242.0,0.0,0.0,0.0,0.0,0.0,0.0,-0.03485172986984253,0.025990430265665054,0.036859434098005295,0.9997907876968384,0.00019513106963131577,-0.018002627417445183,0.00970612745732069
243.0,0.0,0.0,0.0,0.0,0.0,0.0,-0.015160337090492249,-0.005727396346628666,-0.013656807132065296,0.9998557567596436,0.006483708508312702,-0.014460406266152859,0.006105170585215092
244.0,0.0,0.0,0.0,0.0,0.0,0.0,0.03212728351354599,-0.04401954263448715,-0.036555878818035126,0.9998340010643005,0.012105610221624374,-0.012930646538734436,0.004267591051757336
245.0,0.0,0.0,0.0,0.0,0.0,0.0,0.011467871256172657,-0.028053857386112213,-0.02066008374094963,0.9997946619987488,0.015476252883672714,-0.012328662909567356,0.00436780322343111
246.0,0.0,0.0,0.0,0.0,0.0,0.0,-0.03115045838057995,-0.025272667407989502,-0.02475116401910782,0.9997971057891846,0.016874635592103004,-0.010342408902943134,0.0037459558807313442
247.0,0.0,0.0,0.0,0.0,0.0,0.0,-0.003265387611463666,-0.04907482489943504,-0.0588185079395771,0.9998432993888855,0.015436545945703983,-0.008073946461081505,0.003139098873361945
248.0,0.0,0.0,0.0,0.0,0.0,0.0,0.055845409631729126,-0.030642565339803696,-0.0384485088288784,0.9998714327812195,0.01352585107088089,-0.00786830298602581,0.003498789621517062
249.0,0.0,0.0,0.0,0.0,0.0,0.0,0.03754336014389992,0.008753458969295025,0.020219730213284492,0.999880313873291,0.011869656853377819,-0.009199659340083599,0.0037143442314118147
250.0,0.0,0.0,0.0,0.0,0.0,0.0,-0.01639818586409092,0.021600384265184402,0.02182239666581154,0.999904990196228,0.010117702186107635,-0.009207391180098057,0.0016844471683725715
251.0,0.0,0.0,0.0,0.0,0.0,0.0,0.013573963195085526,-0.001997399376705289,0.006063186097890139,0.9999077320098877,0.010300161316990852,-0.008767463266849518,-0.001229256740771234
252.0,0.0,0.0,0.0,0.0,0.0,0.0,0.022372612729668617,0.01984448917210102,0.037214577198028564,0.9998907446861267,0.011527658440172672,-0.008951797150075436,-0.0023414939641952515
253.0,0.0,0.0,0.0,0.0,0.0,0.0,-0.0029268739745020866,0.02306678146123886,0.023344039916992188,0.9998652338981628,0.013375484384596348,-0.008889646269381046,-0.0034175277687609196
254.0,0.0,0.0,0.0,0.0,0.0,0.0,0.0012016986729577184,-0.018648957833647728,-0.009594334289431572,0.999848484992981,0.014810081571340561,-0.00810803659260273,-0.004234936088323593
255.0,0.0,0.0,0.0,0.0,0.0,0.0,0.02331515960395336,-0.01921757310628891,-0.024042796343564987,0.9998558759689331,0.015003527514636517,-0.007245270535349846,-0.0032435045577585697
256.0,0.0,0.0,0.0,0.0,0.0,0.0,0.031001225113868713,-0.006981159094721079,-0.01857876032590866,0.9998558759689331,0.015410059131681919,-0.007061709184199572,-0.0008780501084402204
257.0,0.0,0.0,0.0,0.0,0.0,0.0,0.02506292797625065,-0.026692498475313187,-0.03015005961060524,0.9998739957809448,0.014177224598824978,-0.007060014642775059,0.0010583437979221344
258.0,0.0,0.0,0.0,0.0,0.0,0.0,0.008993931114673615,-0.03750605508685112,-0.03134221211075783,0.999916136264801,0.009311920031905174,-0.008443394675850868,0.003120231442153454
259.0,0.0,0.0,0.0,0.0,0.0,0.0,-0.01463662926107645,0.0003626595134846866,0.00492317508906126,0.9999366402626038,0.0014275014400482178,-0.010229909792542458,0.004470540676265955
260.0,0.0,0.0,0.0,0.0,0.0,0.0,-0.004285037517547607,0.025892261415719986,5.840002268087119e-05,0.9998952746391296,-0.006411303300410509,-0.012373014353215694,0.00389421870931983
261.0,0.0,0.0,0.0,0.0,0.0,0.0,0.013038836419582367,0.020077571272850037,-0.003925803117454052,0.9998376965522766,-0.011004268191754818,-0.014052980579435825,0.002463119337335229
262.0,0.0,0.0,0.0,0.0,0.0,0.0,0.02678019553422928,0.030503688380122185,0.011205299757421017,0.9998336434364319,-0.009849831461906433,-0.015270405448973179,0.001560583128593862
263.0,0.0,0.0,0.0,0.0,0.0,0.0,-0.008613666519522667,0.0285024531185627,0.07893729209899902,0.9998507499694824,-0.005701305344700813,-0.01621888019144535,0.0017326482338830829
264.0,0.0,0.0,0.0,0.0,0.0,0.0,-0.0807332918047905,0.03307929262518883,0.07983437180519104,0.9998842477798462,-0.0015829849289730191,-0.01509867887943983,0.0009603099315427244
265.0,0.0,0.0,0.0,0.0,0.0,0.0,-0.02945045568048954,-0.006500803865492344,-0.014802832156419754,0.9999151229858398,0.002133300295099616,-0.012850138358771801,6.799752009101212e-05
266.0,0.0,0.0,0.0,0.0,0.0,0.0,0.026031725108623505,-0.027293145656585693,-0.016725294291973114,0.9999175667762756,0.004833413753658533,-0.011753045953810215,0.0018091610400006175
267.0,0.0,0.0,0.0,0.0,0.0,0.0,-0.003474605269730091,0.011123307049274445,0.012521435506641865,0.9999110698699951,0.007154551334679127,-0.010610263794660568,0.0037562677171081305
268.0,0.0,0.0,0.0,0.0,0.0,0.0,-0.014050024561583996,-0.017203543335199356,-0.00923040322959423,0.9999237060546875,0.007027980871498585,-0.008864329196512699,0.0049708085134625435
269.0,0.0,0.0,0.0,0.0,0.0,0.0,0.012611255049705505,-0.034480005502700806,-0.05048053339123726,0.999941349029541,0.004959178622812033,-0.007688963320106268,0.005784795619547367
270.0,0.0,0.0,0.0,0.0,0.0,0.0,0.028693944215774536,-0.014598561450839043,-0.03040405921638012,0.9999395608901978,0.0035798093304038048,-0.007962662726640701,0.006676701363176107
271.0,0.0,0.0,0.0,0.0,0.0,0.0,0.003462528344243765,0.013259314000606537,0.009921467863023281,0.9999297857284546,0.002220210852101445,-0.00904054380953312,0.007336524780839682
272.0,0.0,0.0,0.0,0.0,0.0,0.0,-0.03215611353516579,0.022746622562408447,0.027149565517902374,0.9999399781227112,0.0015628855908289552,-0.009534885175526142,0.0051593114621937275
273.0,0.0,0.0,0.0,0.0,0.0,0.0,-0.03198869898915291,0.0036703627556562424,0.011432652361690998,0.9999562501907349,0.0004588905139826238,-0.009095949120819569,0.00212135910987854
274.0,0.0,0.0,0.0,0.0,0.0,0.0,-0.013677375391125679,-0.0055726501159369946,-0.006320934277027845,0.9999597072601318,-0.0011185682378709316,-0.008855381980538368,0.0009451883379369974
275.0,0.0,0.0,0.0,0.0,0.0,0.0,0.004313304089009762,-0.003040747018530965,-0.007035261020064354,0.9999613165855408,-0.002151716034859419,-0.008367855101823807,0.0016333959065377712
276.0,0.0,0.0,0.0,0.0,0.0,0.0,0.003114687977358699,0.002695059636607766,0.007304289843887091,0.999957263469696,-0.0026182616129517555,-0.007967954501509666,0.003877785289660096
277.0,0.0,0.0,0.0,0.0,0.0,0.0,0.008271262049674988,0.0038335167337208986,-0.002402984071522951,0.9999322891235352,-0.003367383498698473,-0.008068748749792576,0.007679114583879709
278.0,0.0,0.0,0.0,0.0,0.0,0.0,0.014800486154854298,-0.0013555686455219984,-0.004007318522781134,0.999897837638855,-0.0036371275782585144,-0.008476277813315392,0.010914904996752739
279.0,0.0,0.0,0.0,0.0,0.0,0.0,0.005671714432537556,0.0014701657928526402,0.0059745414182543755,0.9998793005943298,-0.004634595941752195,-0.008609973825514317,0.012071576900780201
280.0,0.0,0.0,0.0,0.0,0.0,0.0,0.0052178227342665195,0.017086198553442955,0.016953490674495697,0.9998812675476074,-0.005326011683791876,-0.008992722257971764,0.011326425708830357
281.0,0.0,0.0,0.0,0.0,0.0,0.0,0.0037497570738196373,0.0071500674821436405,0.009992976672947407,0.9998986124992371,-0.005697185173630714,-0.009289237670600414,0.00916551984846592
282.0,0.0,0.0,0.0,0.0,0.0,0.0,-0.0010522679658606648,-0.008709317073225975,0.0003292658075224608,0.9999127984046936,-0.006959401536732912,-0.009282850660383701,0.0063081467524170876
283.0,0.0,0.0,0.0,0.0,0.0,0.0,-0.0028583977837115526,-0.004838426597416401,-0.004191453102976084,0.9999120831489563,-0.008745849132537842,-0.009252448566257954,0.003696043975651264
284.0,0.0,0.0,0.0,0.0,0.0,0.0,-0.0010706400498747826,-0.0046646492555737495,-0.003262434620410204,0.9998934864997864,-0.01078373659402132,-0.009228060021996498,0.003402091097086668
285.0,0.0,0.0,0.0,0.0,0.0,0.0,0.0039830501191318035,-0.000524159986525774,0.0046955798752605915,0.9998605251312256,-0.012502818368375301,-0.009628389962017536,0.005462507717311382
286.0,0.0,0.0,0.0,0.0,0.0,0.0,-0.0003367413592059165,0.01270631980150938,0.009936992079019547,0.9998255968093872,-0.013935348950326443,-0.00945972464978695,0.008075215853750706
287.0,0.0,0.0,0.0,0.0,0.0,0.0,-0.003941712435334921,0.011165635660290718,-0.0002713109424803406,0.9997923970222473,-0.015253594145178795,-0.009239314123988152,0.009847619570791721
288.0,0.0,0.0,0.0,0.0,0.0,0.0,0.00565846124663949,0.0010022635105997324,-0.014327619224786758,0.9997761845588684,-0.016153771430253983,-0.009138187393546104,0.010155078954994678
289.0,0.0,0.0,0.0,0.0,0.0,0.0,0.008513566106557846,0.0007826329092495143,-0.009571202099323273,0.9997616410255432,-0.01696866564452648,-0.009605594910681248,0.009818212129175663
290.0,0.0,0.0,0.0,0.0,0.0,0.0,-0.002659186953678727,0.009364189580082893,0.002033603610470891,0.9997643828392029,-0.01735137589275837,-0.010202007368206978,0.008122340776026249
291.0,0.0,0.0,0.0,0.0,0.0,0.0,-0.011726314201951027,0.006637293379753828,0.0017853595782071352,0.9997870326042175,-0.016727963462471962,-0.010480626486241817,0.006010488606989384
292.0,0.0,0.0,0.0,0.0,0.0,0.0,-0.009462429210543633,0.006756980437785387,0.0032214573584496975,0.9998191595077515,-0.015217209234833717,-0.010458252392709255,0.004559396766126156
293.0,0.0,0.0,0.0,0.0,0.0,0.0,0.0038931684102863073,0.009606308303773403,-0.0015583926578983665,0.9998605847358704,-0.012460279278457165,-0.010446074418723583,0.00379771925508976
294.0,0.0,0.0,0.0,0.0,0.0,0.0,-0.005149432923644781,-0.007262768689543009,-0.0029097553342580795,0.9998932480812073,-0.009359372779726982,-0.01027684099972248,0.0044930921867489815
295.0,0.0,0.0,0.0,0.0,0.0,0.0,-0.012041016481816769,-0.007786426693201065,0.0033692677970975637,0.9999075531959534,-0.006748936139047146,-0.009840067476034164,0.006514005828648806
296.0,0.0,0.0,0.0,0.0,0.0,0.0,-0.00917799398303032,0.0032693594694137573,0.005264895968139172,0.999916136264801,-0.00420156866312027,-0.009418271481990814,0.007836418226361275
297.0,0.0,0.0,0.0,0.0,0.0,0.0,-0.002070159185677767,-0.013367033563554287,-0.004073832184076309,0.9999243021011353,-0.0015640854835510254,-0.008833537809550762,0.008421436883509159
298.0,0.0,0.0,0.0,0.0,0.0,0.0,0.0026695786509662867,-0.022222202271223068,-0.019753890112042427,0.9999334812164307,-0.00021372178161982447,-0.008728592656552792,0.007536503951996565
299.0,0.0,0.0,0.0,0.0,0.0,0.0,0.005043966695666313,-0.016334544867277145,-0.0065759760327637196,0.999940812587738,0.0011897549265995622,-0.009260032325983047,0.005582342855632305
300.0,0.0,0.0,0.0,0.0,0.0,0.0,-0.008177995681762695,-0.0036263526417315006,0.013839065097272396,0.9999409914016724,0.002422061050310731,-0.010076477192342281,0.003264676546677947
301.0,0.0,0.0,0.0,0.0,0.0,0.0,-0.034513894468545914,-0.0058273510076105595,0.016144979745149612,0.9999418258666992,0.0030216958839446306,-0.010264010168612003,0.001371363759972155
302.0,0.0,0.0,0.0,0.0,0.0,0.0,-0.031018514186143875,-0.007638162467628717,0.013129644095897675,0.9999404549598694,0.004518326837569475,-0.00993415154516697,-8.775733294896781e-05
303.0,0.0,0.0,0.0,0.0,0.0,0.0,-0.008257195353507996,-0.009739094413816929,0.00013570346345659345,0.9999357461929321,0.0056667872704565525,-0.009801876731216908,0.0005916908266954124
304.0,0.0,0.0,0.0,0.0,0.0,0.0,-0.0034147987607866526,-0.0035180137492716312,-0.00241909921169281,0.9999301433563232,0.006147978361696005,-0.0096393758431077,0.002986231120303273
305.0,0.0,0.0,0.0,0.0,0.0,0.0,-0.006478581111878157,0.0038129575550556183,0.012389109469950199,0.9999219179153442,0.006998504512012005,-0.009190461598336697,0.004755185451358557
306.0,0.0,0.0,0.0,0.0,0.0,0.0,-0.006170335691422224,0.01020214892923832,0.01629159227013588,0.9999237656593323,0.007136187050491571,-0.008239947259426117,0.005800571292638779
307.0,0.0,0.0,0.0,0.0,0.0,0.0,0.004801944363862276,0.005412978585809469,0.008935260586440563,0.9999306797981262,0.007210551295429468,-0.007466962095350027,0.005563149228692055
308.0,0.0,0.0,0.0,0.0,0.0,0.0,0.02288908138871193,-0.003911061678081751,-0.014809747226536274,0.9999353289604187,0.007532596122473478,-0.007175477687269449,0.004581820219755173
309.0,0.0,0.0,0.0,0.0,0.0,0.0,0.02706405334174633,-0.002915613353252411,-0.022863417863845825,0.999941349029541,0.00748947961255908,-0.007048703730106354,0.0033947364427149296
310.0,0.0,0.0,0.0,0.0,0.0,0.0,0.023981554433703423,-0.007448623888194561,-0.0227913036942482,0.9999408721923828,0.00742024602368474,-0.0075276740826666355,0.0025382880121469498
311.0,0.0,0.0,0.0,0.0,0.0,0.0,0.01020263321697712,-0.004407129716128111,-0.014221287332475185,0.999943196773529,0.007013665046542883,-0.00767370592802763,0.002347536850720644
312.0,0.0,0.0,0.0,0.0,0.0,0.0,0.010246535763144493,0.000697687326464802,-0.008545867167413235,0.9999435544013977,0.006673406809568405,-0.00781551469117403,0.002702520927414298
313.0,0.0,0.0,0.0,0.0,0.0,0.0,0.01685863733291626,-0.0038354266434907913,-0.0180389154702425,0.9999420046806335,0.005403468385338783,-0.008442971855401993,0.0039330217987298965
314.0,0.0,0.0,0.0,0.0,0.0,0.0,0.006243550218641758,-0.0035039293579757214,-0.01480722613632679,0.9999322295188904,0.0031182800885289907,-0.009424400515854359,0.006079450249671936
315.0,0.0,0.0,0.0,0.0,0.0,0.0,-0.005154707469046116,0.0034801785368472338,-0.007527824956923723,0.9999089241027832,-8.365586108993739e-05,-0.010618592612445354,0.00832830835133791
316.0,0.0,0.0,0.0,0.0,0.0,0.0,-0.01388064119964838,0.0028811704833060503,-0.016133377328515053,0.9998716711997986,-0.00378928380087018,-0.011788779869675636,0.010166368447244167
317.0,0.0,0.0,0.0,0.0,0.0,0.0,-0.00029520923271775246,0.0023707961663603783,-0.01786610670387745,0.9998049736022949,-0.007860458455979824,-0.013750612735748291,0.011791934259235859
318.0,0.0,0.0,0.0,0.0,0.0,0.0,-0.006056290585547686,0.019303854554891586,-0.006082854699343443,0.9997072815895081,-0.011506536975502968,-0.01614627055823803,0.013872705399990082
319.0,0.0,0.0,0.0,0.0,0.0,0.0,-0.0037022214382886887,0.037660107016563416,0.02339181862771511,0.9996750354766846,-0.010158970952033997,-0.018372289836406708,0.014455188065767288
320.0,0.0,0.0,0.0,0.0,0.0,0.0,-0.018285220488905907,0.033349014818668365,0.049351055175065994,0.9996801614761353,-0.010333691723644733,-0.019252849742770195,0.012729364447295666
321.0,0.0,0.0,0.0,0.0,0.0,0.0,-0.03296462073922157,0.008132297545671463,0.00033904402516782284,0.9997119903564453,-0.009988159872591496,-0.018587395548820496,0.011431179009377956
322.0,0.0,0.0,0.0,0.0,0.0,0.0,0.030673887580633163,-0.021230313926935196,-0.019082527607679367,0.9997000098228455,-0.00917950551956892,-0.019242973998188972,0.012051970697939396
323.0,0.0,0.0,0.0,0.0,0.0,0.0,0.023379124701023102,-0.0037948028184473515,0.016013672575354576,0.9996520280838013,-0.010667634196579456,-0.020186807960271835,0.013204263523221016
324.0,0.0,0.0,0.0,0.0,0.0,0.0,-0.018103597685694695,0.013234850019216537,0.009928311221301556,0.9996375441551208,-0.01046699844300747,-0.020334260538220406,0.01420088205486536
325.0,0.0,0.0,0.0,0.0,0.0,0.0,-0.025589553639292717,-0.017459748312830925,-0.008341609500348568,0.9996474385261536,-0.009952610358595848,-0.019847480580210686,0.014564510434865952
326.0,0.0,0.0,0.0,0.0,0.0,0.0,-0.02343183010816574,-0.00894839782267809,-0.0007173582562245429,0.9996810555458069,-0.010029559023678303,-0.018875975161790848,0.01344467606395483
327.0,0.0,0.0,0.0,0.0,0.0,0.0,-0.011388068087399006,-0.002341989427804947,0.027565181255340576,0.9996759295463562,-0.010088302195072174,-0.01920597441494465,0.013322027400135994
328.0,0.0,0.0,0.0,0.0,0.0,0.0,-0.04240371659398079,0.03627881780266762,0.040032438933849335,0.9997223615646362,-0.009614097885787487,-0.01827281340956688,0.011347874999046326
329.0,0.0,0.0,0.0,0.0,0.0,0.0,-0.015346439555287361,-0.011176951229572296,-0.029242699965834618,0.9997940063476562,-0.007274105679243803,-0.016520828008651733,0.009280594997107983
330.0,0.0,0.0,0.0,0.0,0.0,0.0,0.04694562777876854,-0.029746731743216515,-0.012403350323438644,0.9998123049736023,-0.005899074487388134,-0.016311416402459145,0.008629457093775272
331.0,0.0,0.0,0.0,0.0,0.0,0.0,-0.005216361954808235,0.02075052447617054,0.020931348204612732,0.99982750415802,-0.004850201774388552,-0.01579872891306877,0.008474668487906456
332.0,0.0,0.0,0.0,0.0,0.0,0.0,-0.02058260329067707,0.0053048753179609776,0.004856323357671499,0.9998513460159302,-0.0033256113529205322,-0.014363734051585197,0.008941595442593098
333.0,0.0,0.0,0.0,0.0,0.0,0.0,0.029076170176267624,-0.0177872646600008,-0.01083887368440628,0.9998593330383301,-0.002594288904219866,-0.014211767353117466,0.008509599603712559
334.0,0.0,0.0,0.0,0.0,0.0,0.0,0.042905259877443314,-0.000320547929732129,-0.006047385279089212,0.9998500943183899,-0.00257807201705873,-0.014249657280743122,0.009487566538155079
335.0,0.0,0.0,0.0,0.0,0.0,0.0,-0.002220016671344638,0.004381494130939245,-0.006198209244757891,0.9998502135276794,-0.001722152577713132,-0.014598491601645947,0.009133917279541492
336.0,0.0,0.0,0.0,0.0,0.0,0.0,-0.004664264619350433,-0.010730794630944729,-0.005391047801822424,0.9998711943626404,-0.0019914235454052687,-0.014126967638731003,0.007343237288296223
337.0,0.0,0.0,0.0,0.0,0.0,0.0,0.01620182953774929,-0.0053700730204582214,-0.03043168969452381,0.9998810291290283,-0.003934241831302643,-0.013673440553247929,0.00596062745898962
338.0,0.0,0.0,0.0,0.0,0.0,0.0,0.028038179501891136,-0.018619494512677193,-0.027965761721134186,0.9998562932014465,-0.006561123766005039,-0.014264939352869987,0.00639100419357419
339.0,0.0,0.0,0.0,0.0,0.0,0.0,0.0068013607524335384,0.013186111114919186,0.025234723463654518,0.9997957944869995,-0.010111856274306774,-0.016102002933621407,0.006827252916991711
340.0,0.0,0.0,0.0,0.0,0.0,0.0,-0.06830733269453049,0.037726812064647675,0.025955840945243835,0.9997938871383667,-0.012228503823280334,-0.015052750706672668,0.006005957722663879
341.0,0.0,0.0,0.0,0.0,0.0,0.0,-0.030892204493284225,-0.02723553404211998,-0.01598731055855751,0.9997944831848145,-0.015089728869497776,-0.012918109074234962,0.004056469537317753
342.0,0.0,0.0,0.0,0.0,0.0,0.0,0.023186933249235153,-0.02346459962427616,-0.014867542311549187,0.9997171759605408,-0.019970636814832687,-0.01231156475841999,0.003913779743015766
343.0,0.0,0.0,0.0,0.0,0.0,0.0,0.01944149285554886,0.026529943570494652,0.024421684443950653,0.9996216893196106,-0.024066705256700516,-0.012199788354337215,0.005332305561751127
344.0,0.0,0.0,0.0,0.0,0.0,0.0,-0.0039839609526097775,0.05292048305273056,0.04739146679639816,0.9996094107627869,-0.025079499930143356,-0.011216475628316402,0.0051136021502316
345.0,0.0,0.0,0.0,0.0,0.0,0.0,-0.00379229080863297,0.01155061274766922,0.0027065426111221313,0.9996580481529236,-0.023920321837067604,-0.009645449928939342,0.004293469246476889
346.0,0.0,0.0,0.0,0.0,0.0,0.0,0.029658673331141472,-0.023263342678546906,-0.029620973393321037,0.9996638894081116,-0.02400333248078823,-0.008679206483066082,0.0045357076451182365
347.0,0.0,0.0,0.0,0.0,0.0,0.0,0.03799218684434891,0.00316257169470191,-0.01645195297896862,0.9996572732925415,-0.023984825238585472,-0.008760235272347927,0.005769886542111635
348.0,0.0,0.0,0.0,0.0,0.0,0.0,0.013460424728691578,0.010897655971348286,0.0014432352036237717,0.9996767640113831,-0.02298310399055481,-0.00907739158719778,0.005973582621663809
349.0,0.0,0.0,0.0,0.0,0.0,0.0,0.0015838551335036755,-0.000539947475772351,-0.0008122816798277199,0.9997073411941528,-0.021537354215979576,-0.008992847986519337,0.006362432148307562
350.0,0.0,0.0,0.0,0.0,0.0,0.0,-0.003344306955114007,0.0009891609661281109,-0.007019765675067902,0.9997406005859375,-0.019917408004403114,-0.009176279418170452,0.006134966388344765
351.0,0.0,0.0,0.0,0.0,0.0,0.0,-0.009677636437118053,-0.0018118721200153232,0.0032917028293013573,0.9997905492782593,-0.017751075327396393,-0.009029597043991089,0.004704601131379604
352.0,0.0,0.0,0.0,0.0,0.0,0.0,-0.0003252261958550662,-0.0005005815182812512,0.0038893138989806175,0.9998320937156677,-0.01546683069318533,-0.009226922877132893,0.0033942649606615305
353.0,0.0,0.0,0.0,0.0,0.0,0.0,-0.0037147824186831713,-0.00405174819752574,-0.0032369301188737154,0.9998744130134583,-0.01252476405352354,-0.009425719268620014,0.0023374089505523443
354.0,0.0,0.0,0.0,0.0,0.0,0.0,-0.0046356478706002235,-0.0007840209291316569,0.0033349625300616026,0.9999070763587952,-0.009422825649380684,-0.009790336713194847,0.00113508605863899
355.0,0.0,0.0,0.0,0.0,0.0,0.0,-0.003357779001817107,-0.007095419801771641,-0.0008134504314512014,0.9999278783798218,-0.00604739086702466,-0.010340508073568344,0.0009005297906696796
356.0,0.0,0.0,0.0,0.0,0.0,0.0,-0.016926178708672523,-0.012988758273422718,-0.0024516363628208637,0.9999333620071411,-0.0032896508928388357,-0.01094035804271698,0.0016552607994526625
357.0,0.0,0.0,0.0,0.0,0.0,0.0,-0.00890834629535675,0.0005590546643361449,0.013302557170391083,0.9999324083328247,-0.0007779690786264837,-0.011563505046069622,0.0009000108693726361
358.0,0.0,0.0,0.0,0.0,0.0,0.0,0.0013374986592680216,-0.01324750017374754,-0.014660576358437538,0.9999286532402039,0.0002481972915120423,-0.011935757473111153,0.0002216625725850463
359.0,0.0,0.0,0.0,0.0,0.0,0.0,0.02296142280101776,-0.02752036228775978,-0.033481892198324203,0.9999174475669861,0.00011917278607143089,-0.012837670743465424,-0.00041705043986439705
360.0,0.0,0.0,0.0,0.0,0.0,0.0,0.007701575756072998,-0.010884043760597706,0.008105894550681114,0.9999069571495056,-0.001477653393521905,-0.01355148945003748,-0.000527760130353272
361.0,0.0,0.0,0.0,0.0,0.0,0.0,-0.02351052686572075,0.01431665662676096,0.03071850910782814,0.9998964667320251,-0.003797749523073435,-0.013825234957039356,-0.0011902515543624759
362.0,0.0,0.0,0.0,0.0,0.0,0.0,-0.043539538979530334,0.014248847961425781,0.015557323582470417,0.9998995661735535,-0.006221447605639696,-0.012524659745395184,-0.0023127985186874866
363.0,0.0,0.0,0.0,0.0,0.0,0.0,0.009309512563049793,0.008391530252993107,0.01911337673664093,0.9999023675918579,-0.0069020455703139305,-0.011676800437271595,-0.0033538376446813345
364.0,0.0,0.0,0.0,0.0,0.0,0.0,0.025190021842718124,0.0005247076041996479,-0.0038444683887064457,0.9999030232429504,-0.007770330645143986,-0.011283141560852528,-0.0025093373842537403
365.0,0.0,0.0,0.0,0.0,0.0,0.0,-0.011225857771933079,-0.016345782205462456,-0.020032450556755066,0.9998999834060669,-0.009591346606612206,-0.010335614904761314,-0.001039550406858325
366.0,0.0,0.0,0.0,0.0,0.0,0.0,0.0018886971520259976,-0.00450938381254673,-0.008793635293841362,0.9998916387557983,-0.01118207722902298,-0.009573807939887047,0.00019536365289241076
367.0,0.0,0.0,0.0,0.0,0.0,0.0,0.02739008702337742,-0.009500032290816307,-0.022468196228146553,0.9998710751533508,-0.012502309866249561,-0.009641834534704685,0.00291260564699769
368.0,0.0,0.0,0.0,0.0,0.0,0.0,0.007982314564287663,-0.01855328306555748,-0.01971093937754631,0.9998269081115723,-0.01512424647808075,-0.00965220108628273,0.004922280553728342
369.0,0.0,0.0,0.0,0.0,0.0,0.0,-0.004609895870089531,-0.00038276371196843684,-0.0009417725377716124,0.999770998954773,-0.01808767393231392,-0.009838731959462166,0.0058303033001720905
370.0,0.0,0.0,0.0,0.0,0.0,0.0,-0.0012348651653155684,0.02204464189708233,0.016104651615023613,0.9997327327728271,-0.019794363528490067,-0.01029311865568161,0.006051217205822468
371.0,0.0,0.0,0.0,0.0,0.0,0.0,-0.010801819153130054,0.010219837538897991,0.012869498692452908,0.9997193813323975,-0.020484812557697296,-0.010800906457006931,0.005002136342227459
372.0,0.0,0.0,0.0,0.0,0.0,0.0,-0.01787586137652397,0.0023465354461222887,-0.0012650343123823404,0.9996950626373291,-0.021921619772911072,-0.010518663562834263,0.00429630046710372
373.0,0.0,0.0,0.0,0.0,0.0,0.0,0.0025773774832487106,0.011378983967006207,-0.006752202287316322,0.9996888637542725,-0.02224966324865818,-0.010274435393512249,0.0046424041502177715
374.0,0.0,0.0,0.0,0.0,0.0,0.0,0.019505131989717484,0.008763003163039684,-0.008823070675134659,0.9997127652168274,-0.0205686092376709,-0.010412859730422497,0.0065468656830489635
375.0,0.0,0.0,0.0,0.0,0.0,0.0,0.012033885344862938,0.002599776489660144,-0.008663181215524673,0.9997474551200867,-0.017795337364077568,-0.010788722895085812,0.008475233800709248
376.0,0.0,0.0,0.0,0.0,0.0,0.0,0.002907011192291975,-0.007467520423233509,-0.008707393892109394,0.9997702836990356,-0.014987373724579811,-0.011038686148822308,0.010625666007399559
377.0,0.0,0.0,0.0,0.0,0.0,0.0,-0.0019232388585805893,0.005279866512864828,0.004691109526902437,0.9997894763946533,-0.01165491621941328,-0.011729300953447819,0.012146473862230778
378.0,0.0,0.0,0.0,0.0,0.0,0.0,-0.00984968151897192,0.016696369275450706,0.014745363034307957,0.999829113483429,-0.007533556781709194,-0.01203770563006401,0.01183477696031332
379.0,0.0,0.0,0.0,0.0,0.0,0.0,-0.0030450234189629555,-0.008057910948991776,-0.0007540287333540618,0.999869167804718,-0.0032690733205527067,-0.012153039686381817,0.010161526501178741
380.0,0.0,0.0,0.0,0.0,0.0,0.0,0.008653015829622746,-0.014293545857071877,0.001728800474666059,0.9998903274536133,-0.0006265793927013874,-0.012247980572283268,0.008304036222398281
381.0,0.0,0.0,0.0,0.0,0.0,0.0,-0.0015594821888953447,0.006481044925749302,0.023798318579792976,0.9999071955680847,0.002044720109552145,-0.011908930726349354,0.006286663003265858
382.0,0.0,0.0,0.0,0.0,0.0,0.0,-0.012842333875596523,0.0013367349747568369,0.029095854610204697,0.9999176859855652,0.00512838875874877,-0.010981778614223003,0.004210293758660555
383.0,0.0,0.0,0.0,0.0,0.0,0.0,-0.0035740684252232313,-0.011563073843717575,0.005340464413166046,0.9999080300331116,0.008012130856513977,-0.010229142382740974,0.003871646709740162
384.0,0.0,0.0,0.0,0.0,0.0,0.0,-0.00996803306043148,-0.02950257435441017,-0.01401275210082531,0.9999040961265564,0.009142260067164898,-0.00941704586148262,0.004417978692799807
385.0,0.0,0.0,0.0,0.0,0.0,0.0,-0.003900316311046481,-0.012179410085082054,0.016854828223586082,0.9999074339866638,0.009450488723814487,-0.008573093451559544,0.00472136028110981
386.0,0.0,0.0,0.0,0.0,0.0,0.0,0.011241771280765533,-0.007511546835303307,-0.021909411996603012,0.999901533126831,0.009922562167048454,-0.007866720668971539,0.00605104910209775
387.0,0.0,0.0,0.0,0.0,0.0,0.0,0.025709304958581924,-0.05437757074832916,-0.0669197365641594,0.9999032616615295,0.008416295051574707,-0.008324090391397476,0.007300547324120998
388.0,0.0,0.0,0.0,0.0,0.0,0.0,0.022250108420848846,-0.02225399576127529,-0.028001822531223297,0.9999130964279175,0.004603525158017874,-0.00977723766118288,0.007544010411947966
389.0,0.0,0.0,0.0,0.0,0.0,0.0,0.009247936308383942,0.025514429435133934,0.025533882901072502,0.9999064803123474,0.0010674799559637904,-0.011443176306784153,0.007403633091598749
390.0,0.0,0.0,0.0,0.0,0.0,0.0,-0.009356457740068436,0.03334657475352287,0.032467350363731384,0.9998956322669983,-0.00014515592192765325,-0.013010820373892784,0.006281692534685135
391.0,0.0,0.0,0.0,0.0,0.0,0.0,-0.011094728484749794,0.009277630597352982,-0.009571620263159275,0.9998904466629028,0.0001911770086735487,-0.013786347582936287,0.005389553494751453
392.0,0.0,0.0,0.0,0.0,0.0,0.0,0.0015330486930906773,-0.008475509472191334,-0.007875815033912659,0.999883234500885,0.0007208138704299927,-0.014376632869243622,0.005133169237524271
393.0,0.0,0.0,0.0,0.0,0.0,0.0,0.012248171493411064,0.0026851457078009844,-0.0036007282324135303,0.9998635649681091,0.0013436757726594806,-0.015470102429389954,0.005621846299618483
394.0,0.0,0.0,0.0,0.0,0.0,0.0,0.017257720232009888,-0.010855249129235744,-0.021636279299855232,0.9998160600662231,0.0019098826451227069,-0.017290012910962105,0.008068086579442024
395.0,0.0,0.0,0.0,0.0,0.0,0.0,0.00955576915293932,-0.01480928249657154,-0.016816910356283188,0.9997496604919434,0.002309539122506976,-0.019753077998757362,0.010245414450764656
396.0,0.0,0.0,0.0,0.0,0.0,0.0,-0.019918695092201233,0.0011497780214995146,0.017266307026147842,0.9997124671936035,0.0019891869742423296,-0.0214590635150671,0.01051695179194212
397.0,0.0,0.0,0.0,0.0,0.0,0.0,-0.03817563131451607,0.022223807871341705,0.03622063249349594,0.9997186064720154,0.0027949796058237553,-0.021982992067933083,0.008454867638647556
398.0,0.0,0.0,0.0,0.0,0.0,0.0,-0.022079965099692345,-0.01863459125161171,-0.005044098012149334,0.9997338056564331,0.002381455386057496,-0.022258784621953964,0.0055906036868691444
399.0,0.0,0.0,0.0,0.0,0.0,0.0,0.01568940095603466,-0.04064948111772537,-0.04222436994314194,0.9997097849845886,-0.0024083557073026896,-0.023550665006041527,0.004454862792044878
400.0,0.0,0.0,0.0,0.0,0.0,0.0,0.012430548667907715,0.003183608641847968,-0.024678191170096397,0.9996377825737,-0.0068799168802797794,-0.02565418928861618,0.004319123923778534
401.0,0.0,0.0,0.0,0.0,0.0,0.0,0.00024386096629314125,0.02614433504641056,0.013977590948343277,0.999578058719635,-0.008803857490420341,-0.027251113206148148,0.004868006333708763
402.0,0.0,0.0,0.0,0.0,0.0,0.0,0.0005190448137000203,0.031998492777347565,0.04869929701089859,0.9995695352554321,-0.006755575072020292,-0.02798527479171753,0.005640543531626463
403.0,0.0,0.0,0.0,0.0,0.0,0.0,-0.018201056867837906,0.015873190015554428,0.03684245049953461,0.9996087551116943,-0.0020242007449269295,-0.02708512172102928,0.006667870096862316
404.0,0.0,0.0,0.0,0.0,0.0,0.0,-0.018687661737203598,-0.0034499510657042265,0.015513826161623001,0.9996470212936401,0.0029552581254392862,-0.025448869913816452,0.007030542939901352
405.0,0.0,0.0,0.0,0.0,0.0,0.0,-0.0031089938711375,-0.007358963135629892,0.019012941047549248,0.9996874928474426,0.007280956022441387,-0.023215053603053093,0.0057531981728971004
406.0,0.0,0.0,0.0,0.0,0.0,0.0,0.006011517718434334,0.0018706218106672168,0.019524244591593742,0.9997013211250305,0.011720828711986542,-0.021018005907535553,0.004260166082531214
407.0,0.0,0.0,0.0,0.0,0.0,0.0,0.00837649218738079,-0.0070193312130868435,0.0129681546241045,0.9996864199638367,0.015969891101121902,-0.019155114889144897,0.0022561405785381794
408.0,0.0,0.0,0.0,0.0,0.0,0.0,6.616888276766986e-05,-0.02050882764160633,0.00355318421497941,0.999675452709198,0.018668705597519875,-0.017333582043647766,0.0001151089309132658
409.0,0.0,0.0,0.0,0.0,0.0,0.0,0.014234659262001514,-0.019764915108680725,-0.026911500841379166,0.9996630549430847,0.020236434414982796,-0.01624954491853714,-5.8069290389539674e-05
410.0,0.0,0.0,0.0,0.0,0.0,0.0,0.0272861048579216,-0.03883541375398636,-0.03725740686058998,0.9996741414070129,0.019809771329164505,-0.016041593626141548,0.0014063420239835978
411.0,0.0,0.0,0.0,0.0,0.0,0.0,0.018782008439302444,-0.01627875491976738,-0.022694015875458717,0.9997012615203857,0.018170496448874474,-0.016108784824609756,0.002747192280367017
412.0,0.0,0.0,0.0,0.0,0.0,0.0,-0.0005695672589354217,0.0057893116027116776,0.0006402510334737599,0.999710202217102,0.017459338530898094,-0.016210302710533142,0.0034358915872871876
413.0,0.0,0.0,0.0,0.0,0.0,0.0,-0.0011238938895985484,-0.012712421827018261,-0.010266927070915699,0.9997341632843018,0.016323329880833626,-0.015886226668953896,0.003556641982868314
414.0,0.0,0.0,0.0,0.0,0.0,0.0,0.012102092616260052,-0.007614174857735634,-0.00988307036459446,0.9997642040252686,0.013799243606626987,-0.016383733600378036,0.0035409536212682724
415.0,0.0,0.0,0.0,0.0,0.0,0.0,0.007777404505759478,0.01971994899213314,0.02490045502781868,0.9997673630714417,0.012335065752267838,-0.01743786409497261,0.0029953867197036743
416.0,0.0,0.0,0.0,0.0,0.0,0.0,-0.010478650219738483,0.018266482278704643,0.02518720179796219,0.9997743964195251,0.011961319483816624,-0.017453612759709358,0.0018620854243636131
417.0,0.0,0.0,0.0,0.0,0.0,0.0,-0.0061682057566940784,-0.009672812186181545,-0.01476642768830061,0.9997965097427368,0.01098552905023098,-0.01686808094382286,0.0012647754047065973
418.0,0.0,0.0,0.0,0.0,0.0,0.0,0.015603781677782536,-0.0017530231270939112,-0.007055493071675301,0.999796986579895,0.010659187100827694,-0.017010647803544998,0.0016766374465078115
419.0,0.0,0.0,0.0,0.0,0.0,0.0,0.00810670293867588,0.010864052921533585,0.01728665642440319,0.9997844696044922,0.01124828401952982,-0.017207324504852295,0.002870583673939109
420.0,0.0,0.0,0.0,0.0,0.0,0.0,-0.011380687355995178,-0.0027227182872593403,0.005666943266987801,0.9997701644897461,0.01226032804697752,-0.01711505651473999,0.004032967146486044
421.0,0.0,0.0,0.0,0.0,0.0,0.0,-0.00896836444735527,-0.013636245392262936,-0.004265872295945883,0.9997740983963013,0.0124478405341506,-0.01669604331254959,0.004257760941982269
422.0,0.0,0.0,0.0,0.0,0.0,0.0,0.0002095645759254694,-0.008506786078214645,-0.008279750123620033,0.9997735619544983,0.01286858506500721,-0.016485754400491714,0.003935668617486954
423.0,0.0,0.0,0.0,0.0,0.0,0.0,-0.005181195680052042,-0.012887737713754177,-0.005170696880668402,0.9997697472572327,0.013726883567869663,-0.016261400654911995,0.0027715459000319242
424.0,0.0,0.0,0.0,0.0,0.0,0.0,-0.010174095630645752,-0.01910645328462124,-0.0017027935246005654,0.9997950792312622,0.012563029304146767,-0.01582987792789936,0.0011810457799583673
425.0,0.0,0.0,0.0,0.0,0.0,0.0,0.005693815648555756,-0.005219913553446531,-0.01279689185321331,0.9998120069503784,0.011051167733967304,-0.01590004190802574,0.0009717021021060646
426.0,0.0,0.0,0.0,0.0,0.0,0.0,0.003420113818719983,-0.009362873621284962,-0.008088143542408943,0.9998140931129456,0.009576156735420227,-0.016694553196430206,0.001173707889392972
427.0,0.0,0.0,0.0,0.0,0.0,0.0,-0.020402561873197556,-0.005816733464598656,-0.010643623769283295,0.9998327493667603,0.007264462299644947,-0.016709990799427032,0.0015384351136162877
428.0,0.0,0.0,0.0,0.0,0.0,0.0,0.010404791682958603,0.004647800698876381,0.006400578189641237,0.9998281598091125,0.00592687726020813,-0.017377030104398727,0.0025747977197170258
429.0,0.0,0.0,0.0,0.0,0.0,0.0,-0.008105292916297913,0.023841235786676407,0.043027278035879135,0.9998114109039307,0.006186902057379484,-0.01812589354813099,0.00319152744486928
430.0,0.0,0.0,0.0,0.0,0.0,0.0,-0.039405640214681625,0.01740242913365364,0.015688709914684296,0.9998170733451843,0.007324493955820799,-0.017491381615400314,0.002509072422981262
431.0,0.0,0.0,0.0,0.0,0.0,0.0,-0.016307836398482323,-0.014960936270654202,-0.009858577512204647,0.999832272529602,0.008037321269512177,-0.016452301293611526,0.0002301513886777684
432.0,0.0,0.0,0.0,0.0,0.0,0.0,0.011193367652595043,0.004825048614293337,0.014748470857739449,0.9998326897621155,0.008675143122673035,-0.016093851998448372,-0.0006229730788618326
433.0,0.0,0.0,0.0,0.0,0.0,0.0,-0.005065568257123232,0.006954744923859835,0.003531533060595393,0.9998318552970886,0.009480943903326988,-0.015667935833334923,-0.0008754019509069622
434.0,0.0,0.0,0.0,0.0,0.0,0.0,-0.004814399406313896,-0.020496254786849022,-0.018833285197615623,0.9998376965522766,0.009817703627049923,-0.014962179586291313,-0.0020614364184439182
435.0,0.0,0.0,0.0,0.0,0.0,0.0,0.013414686545729637,-0.009920643642544746,-0.010651081800460815,0.9998481273651123,0.008864396251738071,-0.014928705990314484,-0.0014945552684366703
436.0,0.0,0.0,0.0,0.0,0.0,0.0,0.013243182562291622,0.006056051701307297,0.0011436451459303498,0.9998388290405273,0.008274096064269543,-0.015929004177451134,0.0005087936879135668
437.0,0.0,0.0,0.0,0.0,0.0,0.0,-0.016479263082146645,-0.0071760620921850204,0.007328689098358154,0.9998392462730408,0.006057752296328545,-0.016805104911327362,0.0015551925171166658
438.0,0.0,0.0,0.0,0.0,0.0,0.0,-0.019430512562394142,-0.002958454890176654,-0.008065654896199703,0.9998509883880615,-0.0003003735328093171,-0.017222123220562935,0.0011218739673495293
439.0,0.0,0.0,0.0,0.0,0.0,0.0,0.022528380155563354,0.002984763355925679,-0.03926362842321396,0.9997891783714294,-0.008175116032361984,-0.018832657486200333,-0.00010536400077398866
440.0,0.0,0.0,0.0,0.0,0.0,0.0,0.02989739552140236,0.014394724741578102,-0.014118505641818047,0.9996697902679443,-0.014387755654752254,-0.021287962794303894,0.00023732513363938779
441.0,0.0,0.0,0.0,0.0,0.0,0.0,-0.004034699406474829,0.04794749617576599,0.024054836481809616,0.9995617270469666,-0.017343023791909218,-0.023896999657154083,0.0021196745801717043
442.0,0.0,0.0,0.0,0.0,0.0,0.0,-0.022695446386933327,0.03599170595407486,0.02378440648317337,0.9995129108428955,-0.018280018121004105,-0.025171779096126556,0.0024620569311082363
443.0,0.0,0.0,0.0,0.0,0.0,0.0,-0.013484672643244267,0.016591226682066917,0.011688635684549809,0.9995152950286865,-0.01838754303753376,-0.025058582425117493,0.0018137798178941011
444.0,0.0,0.0,0.0,0.0,0.0,0.0,0.004664975218474865,0.013767384923994541,0.00946919247508049,0.999556839466095,-0.016436057165265083,-0.0247159656137228,0.0022684962023049593
445.0,0.0,0.0,0.0,0.0,0.0,0.0,0.011077520437538624,0.01066654920578003,0.012980763800442219,0.9996167421340942,-0.013486613519489765,-0.023979920893907547,0.00309694092720747
446.0,0.0,0.0,0.0,0.0,0.0,0.0,0.015346290543675423,-0.004564070608466864,-0.002111449372023344,0.9996766448020935,-0.010054472833871841,-0.022979937493801117,0.004151526838541031
447.0,0.0,0.0,0.0,0.0,0.0,0.0,0.023813406005501747,-0.011559735052287579,-0.0013795520644634962,0.9997115731239319,-0.006329946685582399,-0.022349614650011063,0.006099108140915632
448.0,0.0,0.0,0.0,0.0,0.0,0.0,-0.003631744533777237,0.005091601982712746,0.019275128841400146,0.9997256994247437,-0.004078053869307041,-0.021928803995251656,0.00714434590190649
449.0,0.0,0.0,0.0,0.0,0.0,0.0,-0.031345151364803314,0.01834540069103241,0.022762881591916084,0.9997738003730774,-0.0016052534338086843,-0.020470017567276955,0.00552930636331439
450.0,0.0,0.0,0.0,0.0,0.0,0.0,-0.003085353411734104,-0.007552329450845718,0.006712235976010561,0.9998190402984619,0.0006924680201336741,-0.018739407882094383,0.003214197466149926
451.0,0.0,0.0,0.0,0.0,0.0,0.0,0.012650642544031143,-0.008082876913249493,-0.006816276349127293,0.9998347759246826,0.0014930053148418665,-0.018028624355793,0.0017599057173356414
452.0,0.0,0.0,0.0,0.0,0.0,0.0,0.00038161163683980703,-0.0029795384034514427,-0.0029196336399763823,0.9998510479927063,0.00265025207772851,-0.017051182687282562,-5.9142785175936297e-05
453.0,0.0,0.0,0.0,0.0,0.0,0.0,-0.00231037475168705,-0.019330808892846107,-0.001700762310065329,0.9998610019683838,0.0036809516604989767,-0.016237830743193626,-0.000863618275616318
454.0,0.0,0.0,0.0,0.0,0.0,0.0,-0.015612308867275715,-0.00673739705234766,0.0006182012730278075,0.9998839497566223,0.002915877616032958,-0.014844391494989395,-0.001769566209986806
455.0,0.0,0.0,0.0,0.0,0.0,0.0,-0.011601733043789864,-0.010105843655765057,0.0024466097820550203,0.9999080896377563,0.0024185823276638985,-0.012992358766496181,-0.003016670700162649
456.0,0.0,0.0,0.0,0.0,0.0,0.0,-0.010216252878308296,-0.015573968179523945,-0.007219023536890745,0.9999286532402039,0.00019513117149472237,-0.011532565578818321,-0.003111121244728565
457.0,0.0,0.0,0.0,0.0,0.0,0.0,-0.01839025877416134,0.0009933701949194074,0.0014234826667234302,0.9999392032623291,-0.003661659313365817,-0.009708256460726261,-0.0037371378857642412
458.0,0.0,0.0,0.0,0.0,0.0,0.0,0.006324371322989464,0.0067471470683813095,0.00493514584377408,0.9999327063560486,-0.006410620175302029,-0.008072827942669392,-0.00531326187774539
459.0,0.0,0.0,0.0,0.0,0.0,0.0,0.018652889877557755,-0.008133480325341225,-0.01374508161097765,0.9999093413352966,-0.009524974040687084,-0.007606942672282457,-0.005718150641769171
460.0,0.0,0.0,0.0,0.0,0.0,0.0,0.0014459453523159027,-0.007544976659119129,-0.006903217639774084,0.9998750686645508,-0.013347419910132885,-0.006864100694656372,-0.0049514006823301315
461.0,0.0,0.0,0.0,0.0,0.0,0.0,-0.011747114360332489,0.018179481849074364,0.007003858219832182,0.9998323917388916,-0.0166789498180151,-0.0063614617101848125,-0.004045812413096428
462.0,0.0,0.0,0.0,0.0,0.0,0.0,-0.009723138064146042,0.014023247174918652,-0.003295424161478877,0.9998021721839905,-0.018972449004650116,-0.005262910388410091,-0.002799481153488159
463.0,0.0,0.0,0.0,0.0,0.0,0.0,0.021567806601524353,0.011482911184430122,-0.013274282217025757,0.9997763633728027,-0.020532546564936638,-0.004818842746317387,-0.001575071713887155
464.0,0.0,0.0,0.0,0.0,0.0,0.0,0.025785766541957855,0.014266845770180225,-0.0035114972852170467,0.999752938747406,-0.02170892059803009,-0.0047603873535990715,-0.00043231365270912647
465.0,0.0,0.0,0.0,0.0,0.0,0.0,0.005877294111996889,0.005869734100997448,-0.01471439003944397,0.9997363686561584,-0.02240835875272751,-0.004803769290447235,0.0013900778722018003
466.0,0.0,0.0,0.0,0.0,0.0,0.0,-0.004442176781594753,0.011498884297907352,-0.004966015927493572,0.9997364282608032,-0.022328104823827744,-0.004677642602473497,0.00258020986802876
467.0,0.0,0.0,0.0,0.0,0.0,0.0,0.0031587088014930487,0.018285341560840607,0.0013208278687670827,0.9997451901435852,-0.021981259807944298,-0.004510745406150818,0.0024695727042853832
468.0,0.0,0.0,0.0,0.0,0.0,0.0,0.0032011764124035835,0.009075360372662544,0.0016833991976454854,0.9997643828392029,-0.021273838356137276,-0.003923941403627396,0.0017648594221100211
469.0,0.0,0.0,0.0,0.0,0.0,0.0,9.03565451153554e-05,0.008759141899645329,0.000349175650626421,0.9997885227203369,-0.020208414644002914,-0.0036466142628341913,0.00105367845389992
470.0,0.0,0.0,0.0,0.0,0.0,0.0,-0.000475578272016719,0.006588542368263006,0.0006309662712737918,0.9998148083686829,-0.018861809745430946,-0.003747412236407399,0.0007630258332937956
471.0,0.0,0.0,0.0,0.0,0.0,0.0,0.0048421649262309074,0.007294659037142992,0.010335151106119156,0.9998503923416138,-0.01696961559355259,-0.003327783429995179,0.00039946995093487203
472.0,0.0,0.0,0.0,0.0,0.0,0.0,0.0131355170160532,0.003465214278548956,-0.003947260323911905,0.9998903870582581,-0.014495234936475754,-0.0028634045738726854,0.0009000339778140187
473.0,0.0,0.0,0.0,0.0,0.0,0.0,0.013474816456437111,-0.004482939373701811,-0.007884262129664421,0.9999279975891113,-0.011393364518880844,-0.003065973287448287,0.0022047958336770535
474.0,0.0,0.0,0.0,0.0,0.0,0.0,0.004652830306440592,-0.00516740046441555,0.0043499646708369255,0.9999551177024841,-0.008409382775425911,-0.003004415426403284,0.0031696429941803217
475.0,0.0,0.0,0.0,0.0,0.0,0.0,0.007152426056563854,-0.0008671306422911584,-0.002416962990537286,0.9999702572822571,-0.00542875099927187,-0.0036369420122355223,0.004105791449546814
476.0,0.0,0.0,0.0,0.0,0.0,0.0,0.004301328212022781,0.0008360565989278257,0.00648930249735713,0.9999783635139465,-0.002024454064667225,-0.004260779824107885,0.004567756317555904
477.0,0.0,0.0,0.0,0.0,0.0,0.0,-0.0014858205104246736,0.0028738153632730246,0.01946202665567398,0.999982476234436,0.0015848982147872448,-0.004462468903511763,0.003531018504872918
478.0,0.0,0.0,0.0,0.0,0.0,0.0,-0.021438440307974815,-0.00048819000949151814,0.018292831256985664,0.9999853372573853,0.003935422282665968,-0.003566891420632601,0.0011016478529199958
479.0,0.0,0.0,0.0,0.0,0.0,0.0,-0.006094532087445259,-0.01868404820561409,-0.005416688974946737,0.9999774694442749,0.005887700244784355,-0.003004287602379918,-0.0011538048274815083
480.0,0.0,0.0,0.0,0.0,0.0,0.0,0.01920538954436779,-0.03832218423485756,-0.0382523238658905,0.9999775886535645,0.005743712652474642,-0.00322856567800045,-0.0011377552291378379
481.0,0.0,0.0,0.0,0.0,0.0,0.0,0.00336207146756351,-0.033218864351511,-0.03650857135653496,0.9999851584434509,0.004135620780289173,-0.00351564004085958,0.000355786964064464
482.0,0.0,0.0,0.0,0.0,0.0,0.0,0.021642977371811867,-0.014789750799536705,-0.01516002882272005,0.9999840259552002,0.0011393288150429726,-0.004868475254625082,0.0026160383131355047
483.0,0.0,0.0,0.0,0.0,0.0,0.0,0.020429858937859535,0.00562551012262702,0.001443933811970055,0.9999573230743408,-0.0032392190769314766,-0.007281762082129717,0.0046549648977816105
484.0,0.0,0.0,0.0,0.0,0.0,0.0,-0.00913186650723219,0.03271310403943062,0.020250171422958374,0.9999229907989502,-0.006310105789452791,-0.009527843445539474,0.004835946951061487
485.0,0.0,0.0,0.0,0.0,0.0,0.0,-0.0022324821911752224,0.04099614918231964,0.04218686744570732,0.9999116063117981,-0.005304411519318819,-0.01172558218240738,0.003336820052936673
486.0,0.0,0.0,0.0,0.0,0.0,0.0,-0.015061800368130207,0.0332387275993824,0.035815656185150146,0.9999075531959534,-0.0007014164584688842,-0.013557083904743195,0.0008520439732819796
487.0,0.0,0.0,0.0,0.0,0.0,0.0,-0.04201972857117653,-0.0020338487811386585,0.020212015137076378,0.9998911023139954,0.0038469613064080477,-0.014076463878154755,-0.002198836300522089
488.0,0.0,0.0,0.0,0.0,0.0,0.0,-0.00624967971816659,-0.024733277037739754,-0.005176104139536619,0.9998645782470703,0.005946431774646044,-0.014416647143661976,-0.005262983962893486
489.0,0.0,0.0,0.0,0.0,0.0,0.0,0.026693053543567657,-0.014849258586764336,-0.027355505153536797,0.9998376965522766,0.008688594214618206,-0.015184959396719933,-0.004282952286303043
490.0,0.0,0.0,0.0,0.0,0.0,0.0,0.009851743467152119,-0.029862867668271065,-0.020257186144590378,0.9998210072517395,0.010321075096726418,-0.01573561690747738,-0.0019131341250613332
491.0,0.0,0.0,0.0,0.0,0.0,0.0,-0.001683343667536974,-0.017247751355171204,-0.012943253852427006,0.9998384714126587,0.009447702206671238,-0.015274349600076675,0.0006605600938200951
492.0,0.0,0.0,0.0,0.0,0.0,0.0,0.008135441690683365,-0.001700171735137701,-0.008161747828125954,0.9998496174812317,0.007842511869966984,-0.015024875290691853,0.0036612008698284626
493.0,0.0,0.0,0.0,0.0,0.0,0.0,0.00782959908246994,0.0009719487279653549,-0.006745162419974804,0.9998622536659241,0.006757137831300497,-0.01462085172533989,0.003993638791143894
494.0,0.0,0.0,0.0,0.0,0.0,0.0,0.002991536632180214,-0.008717598393559456,-0.008968450129032135,0.9998728036880493,0.005174905993044376,-0.014769036322832108,0.0030641125049442053
495.0,0.0,0.0,0.0,0.0,0.0,0.0,0.014179781079292297,0.014379124157130718,0.004594452679157257,0.9998747706413269,0.0038390555419027805,-0.015277479775249958,0.0015189977129921317
496.0,0.0,0.0,0.0,0.0,0.0,0.0,0.00792970135807991,-0.00011501111293910071,0.0036428398452699184,0.9998653531074524,0.0032136719673871994,-0.01607644557952881,-0.0006552514969371259
497.0,0.0,0.0,0.0,0.0,0.0,0.0,-0.010088508948683739,-0.02486416883766651,-0.01648647151887417,0.9998683333396912,0.0002261619083583355,-0.0162016861140728,-0.0008841059170663357
498.0,0.0,0.0,0.0,0.0,0.0,0.0,-0.009166071191430092,-0.015397307462990284,-0.01925027184188366,0.9998509287834167,-0.0035730209201574326,-0.016761673614382744,0.002090055961161852
499.0,0.0,0.0,0.0,0.0,0.0,0.0,-0.0066599478013813496,-0.005056917667388916,-0.01979868859052658,0.9997828006744385,-0.008198346011340618,-0.017741186544299126,0.007229247596114874
500.0,0.0,0.0,0.0,0.0,0.0,0.0,0.007634876295924187,0.021862788125872612,0.0004464412631932646,0.9996804594993591,-0.011308981105685234,-0.01915428787469864,0.012011838145554066
501.0,0.0,0.0,0.0,0.0,0.0,0.0,-0.007340052630752325,0.027189772576093674,0.04567272588610649,0.9995755553245544,-0.013023780658841133,-0.021188583225011826,0.015169869177043438
502.0,0.0,0.0,0.0,0.0,0.0,0.0,-0.03136778995394707,0.043891679495573044,0.04730941727757454,0.9995377063751221,-0.013850804418325424,-0.02165202610194683,0.016237471252679825
503.0,0.0,0.0,0.0,0.0,0.0,0.0,-0.030708786100149155,0.012991671450436115,0.007799906190484762,0.9995952248573303,-0.013143109157681465,-0.02096208743751049,0.014049789868295193
504.0,0.0,0.0,0.0,0.0,0.0,0.0,-0.006590418983250856,-0.0031752584036439657,0.004710379056632519,0.9996690154075623,-0.0127416355535388,-0.01993671990931034,0.010103224776685238
505.0,0.0,0.0,0.0,0.0,0.0,0.0,0.011290768161416054,0.0005152206285856664,-0.0027663614600896835,0.9996986389160156,-0.01230817474424839,-0.019536849111318588,0.008339017629623413
506.0,0.0,0.0,0.0,0.0,0.0,0.0,-0.00461470615118742,-0.009870276786386967,-0.006097873672842979,0.9997125864028931,-0.011631516739726067,-0.01918419636785984,0.008446372114121914
507.0,0.0,0.0,0.0,0.0,0.0,0.0,-0.001536459312774241,-0.004186930134892464,-0.0045805261470377445,0.9997256398200989,-0.010726979933679104,-0.01867927610874176,0.009205127134919167
508.0,0.0,0.0,0.0,0.0,0.0,0.0,0.01348790992051363,-0.0071173785254359245,-0.016377059742808342,0.9997079968452454,-0.009834219701588154,-0.018735824152827263,0.011666304431855679
509.0,0.0,0.0,0.0,0.0,0.0,0.0,0.01191616989672184,-0.006721062120050192,-0.010777953080832958,0.9996751546859741,-0.009189662523567677,-0.019044557586312294,0.014232023619115353
510.0,0.0,0.0,0.0,0.0,0.0,0.0,0.0049293916672468185,0.00020931975450366735,-0.0026487421710044146,0.9996559619903564,-0.008931835182011127,-0.0191586185246706,0.01552186906337738
511.0,0.0,0.0,0.0,0.0,0.0,0.0,0.003059786045923829,-0.0004492786538321525,-0.005562985315918922,0.9996618628501892,-0.009120618924498558,-0.01927874982357025,0.014875550754368305
512.0,0.0,0.0,0.0,0.0,0.0,0.0,0.01728210784494877,0.0031785820610821247,3.9041198760969564e-05,0.9996786713600159,-0.009181259199976921,-0.019909821450710297,0.012722834944725037
513.0,0.0,0.0,0.0,0.0,0.0,0.0,-0.00100487913005054,-0.009253173135221004,-0.004492268431931734,0.9996824860572815,-0.010429699905216694,-0.020443405956029892,0.010394630022346973
514.0,0.0,0.0,0.0,0.0,0.0,0.0,-0.0020902673713862896,-0.0008004932897165418,-0.0023158707190304995,0.9996819496154785,-0.012283175252377987,-0.02073836512863636,0.007419015280902386
515.0,0.0,0.0,0.0,0.0,0.0,0.0,0.016350409016013145,0.011925742030143738,0.0071175009943544865,0.9996697306632996,-0.013744962401688099,-0.020847152918577194,0.006068746093660593
516.0,0.0,0.0,0.0,0.0,0.0,0.0,0.007540013175457716,0.033253733068704605,0.03881436213850975,0.9996882081031799,-0.012096311897039413,-0.02104286663234234,0.005845303181558847
517.0,0.0,0.0,0.0,0.0,0.0,0.0,-0.0456903912127018,-0.0014298605965450406,0.03293933346867561,0.9997298121452332,-0.011585811153054237,-0.01939450576901436,0.005475144367665052
518.0,0.0,0.0,0.0,0.0,0.0,0.0,-0.022569555789232254,-0.007206299342215061,-0.0031114318408071995,0.9997762441635132,-0.011193972080945969,-0.01721964217722416,0.00505079235881567
519.0,0.0,0.0,0.0,0.0,0.0,0.0,0.010180112905800343,-0.012245547026395798,-0.006882731802761555,0.9997932314872742,-0.011804760433733463,-0.01562701351940632,0.0054720547050237656
520.0,0.0,0.0,0.0,0.0,0.0,0.0,-0.0024331475142389536,-0.016982654109597206,-0.013075193390250206,0.9997901320457458,-0.014325418509542942,-0.01360851526260376,0.005407743155956268
521.0,0.0,0.0,0.0,0.0,0.0,0.0,0.00453801779076457,0.00217125890776515,0.00018898783309850842,0.9997580647468567,-0.01735922507941723,-0.012644569389522076,0.004730248358100653
522.0,0.0,0.0,0.0,0.0,0.0,0.0,0.016688881441950798,0.012831900268793106,-0.0015367299783974886,0.9997231960296631,-0.01950032077729702,-0.012486993335187435,0.004136077594012022
523.0,0.0,0.0,0.0,0.0,0.0,0.0,-0.011155322194099426,-0.019309816882014275,-0.019745631143450737,0.9996509552001953,-0.02331596612930298,-0.011773987673223019,0.003961884416639805
524.0,0.0,0.0,0.0,0.0,0.0,0.0,-0.01229493785649538,0.010006819851696491,0.004265783354640007,0.9995750784873962,-0.02698054164648056,-0.010310506448149681,0.003909005783498287
525.0,0.0,0.0,0.0,0.0,0.0,0.0,0.03621897101402283,0.03790106251835823,0.004880189895629883,0.9995158314704895,-0.028935052454471588,-0.010195313952863216,0.005152047611773014
526.0,0.0,0.0,0.0,0.0,0.0,0.0,0.03678654134273529,0.008075200952589512,-0.006141961086541414,0.9994431734085083,-0.0303057711571455,-0.010942396707832813,0.008656506426632404
527.0,0.0,0.0,0.0,0.0,0.0,0.0,0.011936035938560963,0.017707495018839836,0.0002949895279016346,0.9993521571159363,-0.032206419855356216,-0.011617510579526424,0.011091351509094238
528.0,0.0,0.0,0.0,0.0,0.0,0.0,-0.003672197926789522,0.026662863790988922,-0.004823955241590738,0.9993288516998291,-0.032562971115112305,-0.011356367729604244,0.01234756875783205
529.0,0.0,0.0,0.0,0.0,0.0,0.0,0.011289859190583229,0.0007535744225606322,-0.010205114260315895,0.9993247389793396,-0.03243393078446388,-0.01149529404938221,0.012876531109213829
530.0,0.0,0.0,0.0,0.0,0.0,0.0,0.008290061727166176,0.00564406206831336,-0.005775603465735912,0.999316930770874,-0.03255966305732727,-0.012037854641675949,0.012670863419771194
531.0,0.0,0.0,0.0,0.0,0.0,0.0,-0.005215388722717762,0.009866373613476753,-0.006521964445710182,0.9992992281913757,-0.032854996621608734,-0.012995670549571514,0.012347090989351273
532.0,0.0,0.0,0.0,0.0,0.0,0.0,-0.005562101025134325,0.004339825361967087,-0.002265365794301033,0.9993078708648682,-0.03274832293391228,-0.013638751581311226,0.011194228194653988
533.0,0.0,0.0,0.0,0.0,0.0,0.0,-0.005827420856803656,0.0049140541814267635,0.0038575446233153343,0.9993272423744202,-0.032008446753025055,-0.014362500980496407,0.010693124495446682
534.0,0.0,0.0,0.0,0.0,0.0,0.0,-0.00387436430901289,0.008371797390282154,0.0035971009638160467,0.9993517398834229,-0.030600572004914284,-0.01538974791765213,0.011081542819738388
535.0,0.0,0.0,0.0,0.0,0.0,0.0,-0.004412211012095213,0.004781163763254881,-0.0008431008318439126,0.9993830919265747,-0.028410660102963448,-0.016571668907999992,0.012305219657719135
536.0,0.0,0.0,0.0,0.0,0.0,0.0,-0.010391201823949814,0.007961280643939972,0.006571752019226551,0.9994503855705261,-0.0255975853651762,-0.016887547448277473,0.012584147974848747
537.0,0.0,0.0,0.0,0.0,0.0,0.0,-0.00496321264654398,-0.0034438353031873703,-0.011159141547977924,0.9995387196540833,-0.02190227620303631,-0.016807766631245613,0.012660791166126728
538.0,0.0,0.0,0.0,0.0,0.0,0.0,-0.0126472944393754,-0.017385048791766167,-0.003262154757976532,0.9996321201324463,-0.0182407945394516,-0.016358062624931335,0.011629323475062847
539.0,0.0,0.0,0.0,0.0,0.0,0.0,-0.003429963020607829,0.0056001837365329266,0.01428360678255558,0.9997324347496033,-0.014157024212181568,-0.015385027974843979,0.009886783547699451
540.0,0.0,0.0,0.0,0.0,0.0,0.0,0.020368658006191254,-0.004776900168508291,0.002370597096160054,0.9997937083244324,-0.009947703219950199,-0.015418292954564095,0.008702415972948074
541.0,0.0,0.0,0.0,0.0,0.0,0.0,-0.017301736399531364,-0.0004767325008288026,0.015372264198958874,0.9998387098312378,-0.006725779268890619,-0.015032380819320679,0.0071610696613788605
542.0,0.0,0.0,0.0,0.0,0.0,0.0,-0.024126002565026283,0.021377475932240486,0.021098267287015915,0.9998871684074402,-0.003017038805410266,-0.014174452051520348,0.0039430842734873295
543.0,0.0,0.0,0.0,0.0,0.0,0.0,0.013322355225682259,-0.013738845475018024,-0.007845079526305199,0.9999055862426758,0.0013841581530869007,-0.013562303967773914,0.0017099212855100632
544.0,0.0,0.0,0.0,0.0,0.0,0.0,0.021880557760596275,-0.028478626161813736,-0.027333378791809082,0.9998927712440491,0.0042519173584878445,-0.01388859935104847,0.0018293311586603522
545.0,0.0,0.0,0.0,0.0,0.0,0.0,-0.008831929415464401,0.0032533803023397923,0.01004459336400032,0.9998757243156433,0.007249772548675537,-0.013901637867093086,0.0016812649555504322
546.0,0.0,0.0,0.0,0.0,0.0,0.0,-0.019025102257728577,0.005573957692831755,0.02408534847199917,0.9998473525047302,0.010959896259009838,-0.013589977286756039,0.0007386497454717755
547.0,0.0,0.0,0.0,0.0,0.0,0.0,-0.005250010639429092,-0.0183782447129488,0.004671916831284761,0.9998313784599304,0.01332558412104845,-0.012587133795022964,-0.0010601752437651157
548.0,0.0,0.0,0.0,0.0,0.0,0.0,0.02430451475083828,-0.00998594705015421,-0.008346326649188995,0.9997904300689697,0.01610739156603813,-0.012425651773810387,-0.002273195656016469
549.0,0.0,0.0,0.0,0.0,0.0,0.0,0.021620973944664,-0.013494575396180153,-0.002079200465232134,0.9997217059135437,0.019578346982598305,-0.012608964927494526,-0.003769089700654149
550.0,0.0,0.0,0.0,0.0,0.0,0.0,-0.006934603676199913,-0.027909213677048683,-0.0130532868206501,0.9996908903121948,0.0206577368080616,-0.012303262948989868,-0.006326473318040371
551.0,0.0,0.0,0.0,0.0,0.0,0.0,-0.0030827915761619806,-0.04116225987672806,-0.03693828731775284,0.9996933937072754,0.02047792635858059,-0.011541186831891537,-0.0077831316739320755
552.0,0.0,0.0,0.0,0.0,0.0,0.0,0.0149691142141819,-0.023774560540914536,-0.01729474775493145,0.9997076988220215,0.019602026790380478,-0.01152070239186287,-0.008217315189540386
553.0,0.0,0.0,0.0,0.0,0.0,0.0,0.0049211871810257435,-0.011926248669624329,-0.00615705456584692,0.9997323751449585,0.01784767396748066,-0.012451017275452614,-0.007843569852411747
554.0,0.0,0.0,0.0,0.0,0.0,0.0,-0.0060581183061003685,-0.03931569680571556,-0.023708924651145935,0.9998148679733276,0.012326328083872795,-0.013318796642124653,-0.0063933986239135265
555.0,0.0,0.0,0.0,0.0,0.0,0.0,0.0012238349299877882,-0.01910994201898575,-0.013674743473529816,0.9998838305473328,0.002897763391956687,-0.014242680743336678,-0.004595233593136072
556.0,0.0,0.0,0.0,0.0,0.0,0.0,0.031448740512132645,0.0485868901014328,0.008390719071030617,0.9998593330383301,-0.0027331425808370113,-0.016421521082520485,-0.0020263211335986853
557.0,0.0,0.0,0.0,0.0,0.0,0.0,0.007496011909097433,0.031005118042230606,0.03126245364546776,0.9998146891593933,-0.004238716326653957,-0.01875913143157959,-0.0007547882269136608
558.0,0.0,0.0,0.0,0.0,0.0,0.0,-0.031180236488580704,0.027420835569500923,0.060883529484272,0.9998088479042053,-0.0028396102134138346,-0.019307423382997513,-0.0012158770114183426
559.0,0.0,0.0,0.0,0.0,0.0,0.0,-0.028568381443619728,0.016490798443555832,0.028123192489147186,0.9998053312301636,-0.0013843266060575843,-0.019506189972162247,-0.002627353882417083
560.0,0.0,0.0,0.0,0.0,0.0,0.0,0.004128897562623024,-0.032108526676893234,-0.03247378394007683,0.9998107552528381,-0.0021272478625178337,-0.01901533640921116,-0.003503686748445034
561.0,0.0,0.0,0.0,0.0,0.0,0.0,0.033642012625932693,-0.025229906663298607,-0.029648585245013237,0.9997979998588562,-0.00271401135250926,-0.019754039123654366,-0.002515878062695265
562.0,0.0,0.0,0.0,0.0,0.0,0.0,0.005751779768615961,0.007831467315554619,0.015593469142913818,0.9997843503952026,-0.0023169470950961113,-0.020636877045035362,-0.00011299939069431275
563.0,0.0,0.0,0.0,0.0,0.0,0.0,-0.014768760651350021,0.004244420677423477,0.009620709344744682,0.9997684359550476,-0.0018479442223906517,-0.021368786692619324,0.0017066769069060683
564.0,0.0,0.0,0.0,0.0,0.0,0.0,-0.005784927401691675,-0.016037918627262115,-0.005325183738023043,0.9997444152832031,-0.0019799862056970596,-0.022307509556412697,0.0030992564279586077
565.0,0.0,0.0,0.0,0.0,0.0,0.0,0.002496026223525405,-0.004104191437363625,-0.0019255022052675486,0.9997336268424988,-0.0022535258904099464,-0.022765588015317917,0.0030742231756448746
566.0,0.0,0.0,0.0,0.0,0.0,0.0,-0.001851950422860682,-0.007199267856776714,-0.007200111169368029,0.9997124671936035,-0.0031367193441838026,-0.023690229281783104,0.0019661500118672848
567.0,0.0,0.0,0.0,0.0,0.0,0.0,0.0041757915169000626,-0.0157778300344944,-0.010206926614046097,0.9996768236160278,-0.005441121757030487,-0.024760829284787178,0.0018928147619590163
568.0,0.0,0.0,0.0,0.0,0.0,0.0,0.00993636716157198,0.0018683727830648422,-0.004706896375864744,0.9996225237846375,-0.007609820459038019,-0.02626919560134411,0.0026044787373393774
569.0,0.0,0.0,0.0,0.0,0.0,0.0,0.008989660069346428,0.01154024712741375,0.004328255541622639,0.9995560646057129,-0.009541533887386322,-0.027961818501353264,0.0038673330564051867
570.0,0.0,0.0,0.0,0.0,0.0,0.0,-0.010189990513026714,0.004859245382249355,-0.0018740157829597592,0.9994949102401733,-0.012240440584719181,-0.028809083625674248,0.00547697301954031
571.0,0.0,0.0,0.0,0.0,0.0,0.0,-0.011769555509090424,0.01130683533847332,0.011016977950930595,0.9994426965713501,-0.014177538454532623,-0.02926446497440338,0.007529697380959988
572.0,0.0,0.0,0.0,0.0,0.0,0.0,-0.015440642833709717,0.029010724276304245,0.02949531190097332,0.9994120001792908,-0.014321680180728436,-0.029810314998030663,0.009046024642884731
573.0,0.0,0.0,0.0,0.0,0.0,0.0,-0.01838507130742073,0.019757062196731567,0.025304550305008888,0.9994305372238159,-0.013840999454259872,-0.029340142384171486,0.009276974946260452
574.0,0.0,0.0,0.0,0.0,0.0,0.0,-0.015514128841459751,-0.0025981354992836714,0.0037583704106509686,0.9994692206382751,-0.013661932200193405,-0.02845306508243084,0.008066045120358467
575.0,0.0,0.0,0.0,0.0,0.0,0.0,-0.00350079289637506,0.004385302774608135,4.81448441860266e-05,0.9995095729827881,-0.013061190955340862,-0.027526041492819786,0.007241745945066214
576.0,0.0,0.0,0.0,0.0,0.0,0.0,0.008838186971843243,0.0045961798168718815,0.0017578466795384884,0.9995571374893188,-0.011511298827826977,-0.02677280642092228,0.006008489988744259
577.0,0.0,0.0,0.0,0.0,0.0,0.0,0.008677665144205093,-0.0010511035798117518,-0.0024331570602953434,0.9996188282966614,-0.009570617228746414,-0.025392932817339897,0.005073916632682085
578.0,0.0,0.0,0.0,0.0,0.0,0.0,0.005799964070320129,-0.0015454490203410387,-0.001685059629380703,0.9996933937072754,-0.0058057247661054134,-0.0236072838306427,0.0046859439462423325
579.0,0.0,0.0,0.0,0.0,0.0,0.0,0.007875794544816017,0.0030160723254084587,0.0019142517121508718,0.9997463226318359,-0.0007662143907509744,-0.022133314982056618,0.004093763884156942
580.0,0.0,0.0,0.0,0.0,0.0,0.0,-0.005033088382333517,0.008328721858561039,0.027528485283255577,0.9997633099555969,0.004355766344815493,-0.02111079916357994,0.0029538259841501713
581.0,0.0,0.0,0.0,0.0,0.0,0.0,-0.024393536150455475,0.009462001733481884,0.03289474546909332,0.9997568726539612,0.009383995085954666,-0.019936453551054,0.0007645600708201528
582.0,0.0,0.0,0.0,0.0,0.0,0.0,-0.03305581212043762,-0.03062465228140354,-0.01165739819407463,0.9997764825820923,0.011606787331402302,-0.017594484612345695,-0.0016463606152683496
583.0,0.0,0.0,0.0,0.0,0.0,0.0,-0.004857533611357212,-0.062486354261636734,-0.06316956877708435,0.9998379349708557,0.009714744053781033,-0.014846183359622955,-0.003059764625504613
584.0,0.0,0.0,0.0,0.0,0.0,0.0,0.042827483266592026,-0.04707946628332138,-0.05091310292482376,0.9998887777328491,0.005445892922580242,-0.013765503652393818,-0.0017909971065819263
585.0,0.0,0.0,0.0,0.0,0.0,0.0,0.02289767935872078,0.005816078744828701,0.020191513001918793,0.9998953938484192,0.0013161790557205677,-0.014297985471785069,0.0017129294574260712
586.0,0.0,0.0,0.0,0.0,0.0,0.0,-0.030606860294938087,0.03796269744634628,0.01903587393462658,0.9998766183853149,-0.002646383363753557,-0.014811092987656593,0.004507767967879772
587.0,0.0,0.0,0.0,0.0,0.0,0.0,-0.026440175250172615,0.01622946932911873,0.01732562854886055,0.999870240688324,-0.005294227972626686,-0.01434353832155466,0.0050682974979281425
588.0,0.0,0.0,0.0,0.0,0.0,0.0,-0.014534278772771358,0.018138255923986435,0.023715732619166374,0.9998987317085266,-0.005949028767645359,-0.0124405762180686,0.003522457554936409
589.0,0.0,0.0,0.0,0.0,0.0,0.0,-0.005265302490442991,0.004722082056105137,-0.004069958347827196,0.9999121427536011,-0.0073752254247665405,-0.010817760601639748,0.0020238447468727827
590.0,0.0,0.0,0.0,0.0,0.0,0.0,-0.0012251930311322212,-0.012803742662072182,-0.017044853419065475,0.9999186396598816,-0.009270287118852139,-0.008742623962461948,0.0005941641284152865
591.0,0.0,0.0,0.0,0.0,0.0,0.0,0.0005589151987805963,0.025155479088425636,0.016039136797189713,0.9999253749847412,-0.010111330077052116,-0.006535062566399574,-0.002055561635643244
592.0,0.0,0.0,0.0,0.0,0.0,0.0,-0.0016938692424446344,0.01984882913529873,0.005496723111718893,0.9999361038208008,-0.009354107081890106,-0.004573343321681023,-0.004411931615322828
593.0,0.0,0.0,0.0,0.0,0.0,0.0,-0.01112309005111456,-0.028126921504735947,-0.018904490396380424,0.9999206066131592,-0.01125020906329155,-0.0024259951896965504,-0.005129359196871519
594.0,0.0,0.0,0.0,0.0,0.0,0.0,0.017517171800136566,-0.002531487960368395,-0.02462802082300186,0.9999141097068787,-0.012667017988860607,-0.0010363459587097168,-0.0032078525982797146
595.0,0.0,0.0,0.0,0.0,0.0,0.0,0.036917898803949356,-0.0008907965966500342,-0.026332974433898926,0.9999043941497803,-0.013563438318669796,-0.001560435863211751,-0.0021563638001680374
596.0,0.0,0.0,0.0,0.0,0.0,0.0,0.010560889728367329,-0.02176555059850216,-0.017231639474630356,0.999862551689148,-0.01638319529592991,-0.0021389785688370466,-0.0013551851734519005
597.0,0.0,0.0,0.0,0.0,0.0,0.0,0.0026930912863463163,0.008776068687438965,0.0033408706076443195,0.9998122453689575,-0.01915009692311287,-0.0029067955911159515,-0.000347588473232463
598.0,0.0,0.0,0.0,0.0,0.0,0.0,0.010097218677401543,0.00962094310671091,-0.0053542680107057095,0.9997694492340088,-0.020965132862329483,-0.004498105030506849,0.0010081641376018524
599.0,0.0,0.0,0.0,0.0,0.0,0.0,0.0273506511002779,-0.006928144954144955,-0.015152066946029663,0.9997162222862244,-0.02216230146586895,-0.007853865623474121,0.003808066248893738
600.0,0.0,0.0,0.0,0.0,0.0,0.0,0.03059270605444908,-0.007217329926788807,-0.01661619544029236,0.9996175765991211,-0.02305540442466736,-0.012590753845870495,0.008639904670417309
601.0,0.0,0.0,0.0,0.0,0.0,0.0,0.009023984894156456,0.022472886368632317,0.008626239374279976,0.9995354413986206,-0.02163429744541645,-0.01699528656899929,0.013115794397890568
602.0,0.0,0.0,0.0,0.0,0.0,0.0,-0.04497769847512245,0.04363807290792465,0.059686385095119476,0.9995777606964111,-0.017398856580257416,-0.018995121121406555,0.013447128236293793
603.0,0.0,0.0,0.0,0.0,0.0,0.0,-0.08962855488061905,0.012207035906612873,0.06438788771629333,0.9996986389160156,-0.013548783026635647,-0.01744987629354,0.010701596736907959
604.0,0.0,0.0,0.0,0.0,0.0,0.0,-0.053517479449510574,-0.01797456108033657,0.0026392601430416107,0.9997822046279907,-0.011761213652789593,-0.015429425984621048,0.007678189314901829
605.0,0.0,0.0,0.0,0.0,0.0,0.0,0.023663751780986786,-0.010534747503697872,-0.013730745762586594,0.9998072981834412,-0.011254850775003433,-0.014874438755214214,0.006129506975412369
606.0,0.0,0.0,0.0,0.0,0.0,0.0,0.05081501603126526,-0.002285711234435439,-0.014671056531369686,0.999820351600647,-0.00907360389828682,-0.015190839767456055,0.006794449407607317
607.0,0.0,0.0,0.0,0.0,0.0,0.0,0.0453389510512352,-0.030764497816562653,-0.03306204825639725,0.9997893571853638,-0.007818803191184998,-0.01707417331635952,0.00828249566257
608.0,0.0,0.0,0.0,0.0,0.0,0.0,0.002256796695291996,-0.014138694852590561,0.00689808651804924,0.9997338652610779,-0.0082471938803792,-0.019049694761633873,0.010072748176753521
609.0,0.0,0.0,0.0,0.0,0.0,0.0,-0.03126055374741554,0.03155488148331642,0.03021821193397045,0.9997000694274902,-0.007961636409163475,-0.020133178681135178,0.01144129317253828
610.0,0.0,0.0,0.0,0.0,0.0,0.0,-0.028285538777709007,0.02287887968122959,0.006502579431980848,0.9997376203536987,-0.005927417892962694,-0.019933408126235008,0.009608174674212933
611.0,0.0,0.0,0.0,0.0,0.0,0.0,0.021615473553538322,-0.01747570000588894,-0.034433744847774506,0.9997738003730774,-0.0040467423386871815,-0.019853796809911728,0.006468440406024456
612.0,0.0,0.0,0.0,0.0,0.0,0.0,0.04563429579138756,-0.014948631636798382,-0.023602357134222984,0.9997811317443848,-0.001144874608144164,-0.020369738340377808,0.0046166833490133286
613.0,0.0,0.0,0.0,0.0,0.0,0.0,-0.007742573972791433,0.00265279458835721,0.01326592918485403,0.9997841715812683,0.002823159797117114,-0.02048005722463131,0.0020130574703216553
614.0,0.0,0.0,0.0,0.0,0.0,0.0,-0.03920116275548935,0.0031575981993228197,0.011256246827542782,0.9997920989990234,0.00642725545912981,-0.01934645138680935,-0.00043471669778227806
615.0,0.0,0.0,0.0,0.0,0.0,0.0,-0.014107169583439827,-0.030570808798074722,-0.0067856647074222565,0.9998009204864502,0.008595910854637623,-0.017956597730517387,-0.0013593659969046712
616.0,0.0,0.0,0.0,0.0,0.0,0.0,0.000593609525822103,-0.0008284026989713311,-0.005073475651443005,0.9998059272766113,0.01061990112066269,-0.016581686213612556,-0.0006597162573598325
617.0,0.0,0.0,0.0,0.0,0.0,0.0,0.0037803889717906713,0.02040844038128853,0.022063393145799637,0.9997740387916565,0.01444394513964653,-0.015591147355735302,0.00014947108866181225
618.0,0.0,0.0,0.0,0.0,0.0,0.0,0.014264962635934353,-0.004811213351786137,-0.003259198507294059,0.9997357130050659,0.017234910279512405,-0.015186081640422344,0.0009269819711335003
619.0,0.0,0.0,0.0,0.0,0.0,0.0,0.005928384140133858,-0.03434854373335838,-0.03503991290926933,0.9997299909591675,0.01750420220196247,-0.015190674923360348,0.0016594617627561092
620.0,0.0,0.0,0.0,0.0,0.0,0.0,-0.0022687367163598537,-0.02250419370830059,-0.01094469241797924,0.9997459650039673,0.016495751217007637,-0.015294080600142479,0.001417177845723927
621.0,0.0,0.0,0.0,0.0,0.0,0.0,0.00059129687724635,0.006569089367985725,-0.00263953092508018,0.9997599124908447,0.01577993854880333,-0.015195991843938828,-0.00030620707548223436
622.0,0.0,0.0,0.0,0.0,0.0,0.0,0.019276881590485573,-0.010879981331527233,-0.008723513223230839,0.9997614026069641,0.015042693354189396,-0.015774648636579514,-0.0013395450077950954
623.0,0.0,0.0,0.0,0.0,0.0,0.0,-0.019826775416731834,-0.0204644575715065,-0.0016418580198660493,0.9997877478599548,0.012905362993478775,-0.016005828976631165,-0.001250825240276754
624.0,0.0,0.0,0.0,0.0,0.0,0.0,-0.014158484525978565,-0.004519359674304724,-0.0004238345427438617,0.9998168349266052,0.009133479557931423,-0.01679491437971592,-0.0008738175383768976
625.0,0.0,0.0,0.0,0.0,0.0,0.0,-0.011610093526542187,0.0011793196899816394,0.010307506658136845,0.9998410940170288,0.003541880752891302,-0.017461886629462242,-0.0005083825089968741
626.0,0.0,0.0,0.0,0.0,0.0,0.0,0.010135281831026077,0.015004025772213936,-0.010034127160906792,0.9998299479484558,-0.0015027973568066955,-0.018316034227609634,0.0015498439315706491
627.0,0.0,0.0,0.0,0.0,0.0,0.0,0.03145623952150345,-0.0014062525006011128,-0.007160442881286144,0.9997735619544983,-0.005999015178531408,-0.019852466881275177,0.004773397464305162
628.0,0.0,0.0,0.0,0.0,0.0,0.0,0.009688656777143478,0.025159966200590134,0.009372800588607788,0.9996982216835022,-0.009031007997691631,-0.021619563922286034,0.007369355298578739
629.0,0.0,0.0,0.0,0.0,0.0,0.0,-0.017353840172290802,0.020303213968873024,0.008821639232337475,0.9996504783630371,-0.01056396123021841,-0.022799920290708542,0.008198927156627178
630.0,0.0,0.0,0.0,0.0,0.0,0.0,-0.013183070346713066,0.003927767276763916,0.011043218895792961,0.999634861946106,-0.01196873839944601,-0.02311065047979355,0.007263868115842342
631.0,0.0,0.0,0.0,0.0,0.0,0.0,0.01537223719060421,0.015752039849758148,0.013462462462484837,0.9996185302734375,-0.013026992790400982,-0.023564744740724564,0.00612207967787981
632.0,0.0,0.0,0.0,0.0,0.0,0.0,0.007152874022722244,0.01311782281845808,0.011058888398110867,0.99959796667099,-0.013709045015275478,-0.024129485711455345,0.005803858395665884
633.0,0.0,0.0,0.0,0.0,0.0,0.0,-0.01794576831161976,-0.0053604478016495705,-0.0023769282270222902,0.9995796084403992,-0.014471439644694328,-0.024411318823695183,0.005920579191297293
634.0,0.0,0.0,0.0,0.0,0.0,0.0,-0.009760592132806778,-0.007493132259696722,-0.009714048355817795,0.9995335936546326,-0.016271013766527176,-0.02478802762925625,0.0073149739764630795
635.0,0.0,0.0,0.0,0.0,0.0,0.0,0.0029507523868232965,-0.008165430277585983,-0.016966553404927254,0.9994428753852844,-0.018866227939724922,-0.02560093253850937,0.01012630108743906
636.0,0.0,0.0,0.0,0.0,0.0,0.0,-0.009117834270000458,0.008249240927398205,-0.0022896663285791874,0.9993526935577393,-0.021109312772750854,-0.0263895895332098,0.012335395440459251
637.0,0.0,0.0,0.0,0.0,0.0,0.0,-0.03013247810304165,0.02043740451335907,0.017600292339920998,0.999330997467041,-0.021861694753170013,-0.026089096441864967,0.013369502499699593
638.0,0.0,0.0,0.0,0.0,0.0,0.0,-0.031527478247880936,0.015975257381796837,0.02286716178059578,0.9993293881416321,-0.02305729314684868,-0.024859346449375153,0.013819475658237934
639.0,0.0,0.0,0.0,0.0,0.0,0.0,-0.011581026948988438,0.04111354425549507,0.033384960144758224,0.9994076490402222,-0.021674875169992447,-0.023630203679203987,0.012487584725022316
640.0,0.0,0.0,0.0,0.0,0.0,0.0,0.01599716581404209,0.022725101560354233,0.0271922517567873,0.9994977116584778,-0.01858053356409073,-0.022963996976614,0.011469822376966476
641.0,0.0,0.0,0.0,0.0,0.0,0.0,0.0049623544327914715,0.006781158968806267,0.018452251330018044,0.9995564222335815,-0.016118137165904045,-0.022285711020231247,0.011423530988395214
642.0,0.0,0.0,0.0,0.0,0.0,0.0,-0.021800940856337547,0.017191598191857338,0.024853568524122238,0.9996417164802551,-0.013538828119635582,-0.02052266336977482,0.010585379786789417
643.0,0.0,0.0,0.0,0.0,0.0,0.0,0.0078065586276352406,-0.0015629197005182505,0.006937374826520681,0.9996973872184753,-0.011308308690786362,-0.01918577216565609,0.010440169833600521
644.0,0.0,0.0,0.0,0.0,0.0,0.0,0.022887704893946648,-0.01547358836978674,-0.008629122748970985,0.9997004270553589,-0.010699574835598469,-0.018449770286679268,0.012013496831059456
645.0,0.0,0.0,0.0,0.0,0.0,0.0,-0.008512525819242,-0.002187859732657671,-0.002137107541784644,0.9997029304504395,-0.011318309232592583,-0.01712978444993496,0.013126593083143234
646.0,0.0,0.0,0.0,0.0,0.0,0.0,-0.009253337979316711,-0.003318759147077799,-0.007226248737424612,0.9997105002403259,-0.012861158698797226,-0.015149062499403954,0.013551359064877033
647.0,0.0,0.0,0.0,0.0,0.0,0.0,0.021630601957440376,-0.0037464858032763004,-0.021331463009119034,0.9997188448905945,-0.014399037696421146,-0.013421932235360146,0.013221153989434242
648.0,0.0,0.0,0.0,0.0,0.0,0.0,0.03658943250775337,-0.015743551775813103,-0.031569916754961014,0.9997109770774841,-0.015834273770451546,-0.012623210437595844,0.012958590872585773
649.0,0.0,0.0,0.0,0.0,0.0,0.0,0.007256130687892437,-0.019521160051226616,-0.02242307923734188,0.999638020992279,-0.020434264093637466,-0.01187045406550169,0.012855774722993374
650.0,0.0,0.0,0.0,0.0,0.0,0.0,-0.021084383130073547,0.016617251560091972,0.0003626429243013263,0.9995670318603516,-0.024907086044549942,-0.010492624714970589,0.011628326028585434
651.0,0.0,0.0,0.0,0.0,0.0,0.0,0.0028326944448053837,0.0241712536662817,-0.014923499897122383,0.9995416402816772,-0.02671765349805355,-0.00965899508446455,0.010455512441694736
652.0,0.0,0.0,0.0,0.0,0.0,0.0,0.008367693051695824,-0.0033563023898750544,-0.01551678217947483,0.9995067119598389,-0.028324216604232788,-0.009373190812766552,0.009796665981411934
653.0,0.0,0.0,0.0,0.0,0.0,0.0,-0.013299128971993923,0.01083852257579565,-0.010115567594766617,0.9994459748268127,-0.03066052868962288,-0.00878895353525877,0.009510344825685024
654.0,0.0,0.0,0.0,0.0,0.0,0.0,-0.01283322460949421,0.012799505144357681,-0.004690234549343586,0.9994040131568909,-0.03240928053855896,-0.008029256016016006,0.008745411410927773
655.0,0.0,0.0,0.0,0.0,0.0,0.0,0.0094107985496521,0.011316006071865559,-0.008461990393698215,0.9993405938148499,-0.034478478133678436,-0.007799979764968157,0.00827572401612997
656.0,0.0,0.0,0.0,0.0,0.0,0.0,0.02007202059030533,0.010172015056014061,-0.018818290904164314,0.9992554783821106,-0.03655558079481125,-0.007819765247404575,0.00953984260559082
657.0,0.0,0.0,0.0,0.0,0.0,0.0,0.03296087309718132,0.0200493186712265,-0.0011147670447826385,0.9992004632949829,-0.03751588240265846,-0.0080864317715168,0.01121318619698286
658.0,0.0,0.0,0.0,0.0,0.0,0.0,0.020059838891029358,0.024242451414465904,0.022038951516151428,0.9991630911827087,-0.03821607679128647,-0.008490046486258507,0.01184244267642498
659.0,0.0,0.0,0.0,0.0,0.0,0.0,-0.0016346770571544766,0.026694800704717636,0.01992705650627613,0.9991418719291687,-0.03884567320346832,-0.008648985996842384,0.011461821384727955
660.0,0.0,0.0,0.0,0.0,0.0,0.0,0.014227449893951416,0.0163278691470623,0.021953582763671875,0.9991458058357239,-0.03906574845314026,-0.00864480435848236,0.010327932424843311
661.0,0.0,0.0,0.0,0.0,0.0,0.0,0.015743860974907875,0.01404139306396246,0.015167580917477608,0.9991425275802612,-0.039443712681531906,-0.008980629965662956,0.008832000195980072
662.0,0.0,0.0,0.0,0.0,0.0,0.0,-0.021568331867456436,0.016889074817299843,0.03357405960559845,0.9991441965103149,-0.03969920799136162,-0.008514652960002422,0.007918843068182468
663.0,0.0,0.0,0.0,0.0,0.0,0.0,-0.04002116620540619,0.019627919420599937,0.032360658049583435,0.999150812625885,-0.04002205282449722,-0.00770023325458169,0.006051554810255766
664.0,0.0,0.0,0.0,0.0,0.0,0.0,-0.04475802555680275,0.006267759017646313,0.016642676666378975,0.9991669654846191,-0.04002716764807701,-0.006294652353972197,0.004835845436900854
665.0,0.0,0.0,0.0,0.0,0.0,0.0,-0.014569940976798534,-0.0035544431302696466,-0.009040608070790768,0.9991762042045593,-0.03987373411655426,-0.005317158997058868,0.005358497612178326
666.0,0.0,0.0,0.0,0.0,0.0,0.0,0.007614584639668465,-0.010342991910874844,-0.02443828620016575,0.9991625547409058,-0.03994167968630791,-0.004946175497025251,0.007341062184423208
667.0,0.0,0.0,0.0,0.0,0.0,0.0,0.008964031003415585,-0.008751568384468555,-0.014195578172802925,0.9991480708122253,-0.039802342653274536,-0.0047664036974310875,0.009805707260966301
668.0,0.0,0.0,0.0,0.0,0.0,0.0,0.013542510569095612,0.12911367416381836,-0.021681582555174828,0.9993026256561279,-0.0351300872862339,-0.005134477745741606,0.011580185033380985
669.0,0.0,0.0,0.0,0.0,0.0,0.0,0.017629146575927734,0.011179529130458832,-0.006670350208878517,0.9994098544120789,-0.0313255712389946,-0.005160245578736067,0.013124655932188034
670.0,0.0,0.0,0.0,0.0,0.0,0.0,0.028411464765667915,0.0017240351298823953,-0.011714556254446507,0.9995589256286621,-0.025789527222514153,-0.005821539554744959,0.01353081502020359
671.0,0.0,0.0,0.0,0.0,0.0,0.0,-0.0056869350373744965,-0.012944531626999378,-0.0089620565995574,0.999696671962738,-0.019925938919186592,-0.00668321643024683,0.012825125828385353
672.0,0.0,0.0,0.0,0.0,0.0,0.0,-0.05996713042259216,-0.00331696099601686,0.024711638689041138,0.9998306632041931,-0.014176877215504646,-0.0055655185133218765,0.010324792005121708
673.0,0.0,0.0,0.0,0.0,0.0,0.0,-0.05154186859726906,-0.00888078287243843,0.01870422437787056,0.9999449253082275,-0.00830965768545866,-0.0026768269017338753,0.005818694829940796
674.0,0.0,0.0,0.0,0.0,0.0,0.0,0.004505653865635395,-0.04527263715863228,-0.02423151023685932,0.9999864101409912,-0.004685666877776384,2.4967945137177594e-05,0.0022402869071811438
675.0,0.0,0.0,0.0,0.0,0.0,0.0,0.02645566128194332,-0.05178467929363251,-0.040875766426324844,0.9999901652336121,-0.0035595716908574104,0.0022566826082766056,0.001372861908748746
676.0,0.0,0.0,0.0,0.0,0.0,0.0,0.02339659072458744,-0.03332815691828728,-0.029522139579057693,0.9999770522117615,-0.004575328901410103,0.0044784280471503735,0.002186628757044673
677.0,0.0,0.0,0.0,0.0,0.0,0.0,0.020280778408050537,-0.008485263213515282,-0.014838204719126225,0.9999521970748901,-0.005750475917011499,0.006463890895247459,0.004542686976492405
678.0,0.0,0.0,0.0,0.0,0.0,0.0,0.00743512250483036,-0.020106714218854904,-0.013445335440337658,0.9999198317527771,-0.008256379514932632,0.00793223362416029,0.005405387841165066
679.0,0.0,0.0,0.0,0.0,0.0,0.0,0.004087798297405243,0.0016452377894893289,0.0009386904421262443,0.9998912215232849,-0.011223570443689823,0.009247543290257454,0.002384526887908578
680.0,0.0,0.0,0.0,0.0,0.0,0.0,0.06953348219394684,0.014325481839478016,-0.011890697292983532,0.9999017119407654,-0.011134705506265163,0.008498764596879482,0.0005488187307491899
681.0,0.0,0.0,0.0,0.0,0.0,0.0,0.023212460801005363,-0.010421846993267536,0.020092852413654327,0.9999014139175415,-0.011879787780344486,0.007485914975404739,-0.0002967016480397433
682.0,0.0,0.0,0.0,0.0,0.0,0.0,-0.025766106322407722,0.029758639633655548,0.048383377492427826,0.99988853931427,-0.012865381315350533,0.007134930696338415,-0.002575721126049757
683.0,0.0,0.0,0.0,0.0,0.0,0.0,-0.023481467738747597,0.005553089082241058,0.018091190606355667,0.9998703598976135,-0.01373346522450447,0.007715634535998106,-0.0033327422570437193
684.0,0.0,0.0,0.0,0.0,0.0,0.0,0.025904342532157898,-0.02154749445617199,-0.033850159496068954,0.9998563528060913,-0.0151853421702981,0.007463337387889624,-0.001009204424917698
685.0,0.0,0.0,0.0,0.0,0.0,0.0,0.07460207492113113,-0.011541261337697506,-0.0490596666932106,0.9998423457145691,-0.016709810122847557,0.0049165538512170315,0.003439936088398099
686.0,0.0,0.0,0.0,0.0,0.0,0.0,0.07003925740718842,-0.010279210284352303,-0.04255678504705429,0.9998130202293396,-0.017002273350954056,0.00013129394210409373,0.009201440028846264
687.0,0.0,0.0,0.0,0.0,0.0,0.0,0.0114682512357831,0.011630227789282799,0.005190197378396988,0.9997702836990356,-0.01579517498612404,-0.0052038561552762985,0.013514931313693523
688.0,0.0,0.0,0.0,0.0,0.0,0.0,-0.02351044863462448,0.04125116765499115,0.037447910755872726,0.9997780919075012,-0.012783669866621494,-0.009350929409265518,0.013888592831790447
689.0,0.0,0.0,0.0,0.0,0.0,0.0,-0.06527071446180344,0.007529443595558405,0.02712392993271351,0.9998350143432617,-0.00935555249452591,-0.011475265957415104,0.010524997487664223
690.0,0.0,0.0,0.0,0.0,0.0,0.0,-0.0784619152545929,-0.023900270462036133,0.035049647092819214,0.9998928308486938,-0.007041772361844778,-0.011382779106497765,0.005926790647208691
691.0,0.0,0.0,0.0,0.0,0.0,0.0,0.0010244317818433046,-0.0037819882854819298,0.01219574548304081,0.9999284744262695,-0.005759864579886198,-0.010271785780787468,0.0020813103765249252
692.0,0.0,0.0,0.0,0.0,0.0,0.0,0.022165440022945404,-0.023924242705106735,-0.03575905039906502,0.9999318718910217,-0.005155391059815884,-0.010409658774733543,0.0011543071595951915
693.0,0.0,0.0,0.0,0.0,0.0,0.0,0.010179436765611172,-0.03603585064411163,-0.029783276841044426,0.9999157190322876,-0.004606639035046101,-0.011553087271749973,0.0037460490129888058
694.0,0.0,0.0,0.0,0.0,0.0,0.0,-0.004148866515606642,-0.010114764794707298,-0.017544923350214958,0.9998873472213745,-0.004410522989928722,-0.01249003317207098,0.007068688049912453
695.0,0.0,0.0,0.0,0.0,0.0,0.0,-0.02206726185977459,-0.00683851120993495,-0.0046069142408668995,0.9998664259910583,-0.0035091822501271963,-0.012895003892481327,0.009402814321219921
696.0,0.0,0.0,0.0,0.0,0.0,0.0,-0.02372400090098381,0.003835034556686878,0.010469931177794933,0.9998729228973389,-0.0015089063672348857,-0.012768227607011795,0.009420020505785942
697.0,0.0,0.0,0.0,0.0,0.0,0.0,-0.0074609676375985146,-0.0009750688914209604,0.0060899704694747925,0.9998955130577087,0.0010153983021155,-0.012735805474221706,0.006756775081157684
698.0,0.0,0.0,0.0,0.0,0.0,0.0,-0.009116135537624359,0.0044829584658145905,0.021939696744084358,0.9999096393585205,0.004030953161418438,-0.012512480840086937,0.0028075261507183313
699.0,0.0,0.0,0.0,0.0,0.0,0.0,-0.013890424743294716,0.01951984316110611,0.04716179892420769,0.9998846650123596,0.008912886492908001,-0.011905364692211151,-0.0030891040805727243
700.0,0.0,0.0,0.0,0.0,0.0,0.0,-0.026267211884260178,-0.008631928823888302,0.035623468458652496,0.9998372793197632,0.012159849517047405,-0.010135187767446041,-0.008644635789096355
701.0,0.0,0.0,0.0,0.0,0.0,0.0,-0.028189105913043022,-0.022501682862639427,0.010302104987204075,0.9997996091842651,0.01384168304502964,-0.007378261536359787,-0.01243708748370409
702.0,0.0,0.0,0.0,0.0,0.0,0.0,0.015763649716973305,-0.028349902480840683,-0.01206705067306757,0.9998065829277039,0.015095103532075882,-0.005265906918793917,-0.011456725187599659
703.0,0.0,0.0,0.0,0.0,0.0,0.0,0.03767027705907822,-0.029921846464276314,-0.01947704143822193,0.9998545050621033,0.01467355526983738,-0.003993061371147633,-0.007725980598479509
704.0,0.0,0.0,0.0,0.0,0.0,0.0,0.015866000205278397,-0.039494141936302185,-0.03580106794834137,0.9999405741691589,0.009845279157161713,-0.0018863851437345147,-0.004281403962522745
705.0,0.0,0.0,0.0,0.0,0.0,0.0,-0.004554585553705692,-0.0034709437750279903,-0.005428606644272804,0.9999796748161316,0.0057497406378388405,-1.821419209591113e-05,-0.0027433859650045633
706.0,0.0,0.0,0.0,0.0,0.0,0.0,0.024538308382034302,0.025958942249417305,0.0071850912645459175,0.9999866485595703,0.004637054167687893,9.236653568223119e-05,-0.0022723027504980564
707.0,0.0,0.0,0.0,0.0,0.0,0.0,0.03962194174528122,0.007732308469712734,0.01112931128591299,0.9999843835830688,0.003177490783855319,-0.0011192969977855682,-0.0044417791068553925
708.0,0.0,0.0,0.0,0.0,0.0,0.0,-0.021120639517903328,0.00010386625217506662,0.0019096952164545655,0.9999657273292542,0.0018936559790745378,-0.0015253890305757523,-0.007908430881798267
709.0,0.0,0.0,0.0,0.0,0.0,0.0,-0.031930264085531235,-0.00030162418261170387,-0.006724425125867128,0.9999325275421143,0.0005291883717291057,-0.002023309236392379,-0.01142217218875885
710.0,0.0,0.0,0.0,0.0,0.0,0.0,-0.03628319874405861,-0.010385040193796158,0.00776248425245285,0.9999102354049683,-0.002359558129683137,-0.0027813720516860485,-0.012890235520899296
711.0,0.0,0.0,0.0,0.0,0.0,0.0,-0.02543039806187153,0.011245525442063808,0.020073257386684418,0.9999446272850037,-0.005130709148943424,-0.0037255757488310337,-0.008400251157581806
712.0,0.0,0.0,0.0,0.0,0.0,0.0,0.004130831453949213,0.020957274362444878,0.01651814579963684,0.9999474883079529,-0.008155083283782005,-0.005227990914136171,-0.0033554653637111187
713.0,0.0,0.0,0.0,0.0,0.0,0.0,0.02194315567612648,0.034492675215005875,0.00409263651818037,0.9999456405639648,-0.007316745817661285,-0.006755364127457142,0.003093775361776352
714.0,0.0,0.0,0.0,0.0,0.0,0.0,-0.026729553937911987,0.0033644663635641336,0.042597685009241104,0.9999595880508423,-0.00353732006624341,-0.005592844448983669,0.006075904704630375
715.0,0.0,0.0,0.0,0.0,0.0,0.0,-0.026710279285907745,0.015810199081897736,0.02149088867008686,0.9999845027923584,0.0012318841181695461,-0.0032482733950018883,0.004342048894613981
716.0,0.0,0.0,0.0,0.0,0.0,0.0,0.04718690365552902,-0.043456342071294785,-0.06000174582004547,0.9999868869781494,0.004540834575891495,-0.0023303006310015917,0.00038380076875910163
717.0,0.0,0.0,0.0,0.0,0.0,0.0,0.07736249268054962,-0.055783722549676895,-0.06291966140270233,0.9999691247940063,0.006164578255265951,-0.0027232645079493523,-0.004044557921588421
718.0,0.0,0.0,0.0,0.0,0.0,0.0,0.0326155424118042,0.0008908413001336157,-0.023437190800905228,0.999928891658783,0.008649769239127636,-0.0037086126394569874,-0.007335306610912085
719.0,0.0,0.0,0.0,0.0,0.0,0.0,-0.03415141627192497,-0.020837342366576195,0.0008309449185617268,0.999913215637207,0.009292948991060257,-0.0022420205641537905,-0.009065071120858192
720.0,0.0,0.0,0.0,0.0,0.0,0.0,-0.013508971780538559,-0.013041368685662746,0.0017566188471391797,0.9999258518218994,0.009197965264320374,0.0006800015107728541,-0.007938232272863388
721.0,0.0,0.0,0.0,0.0,0.0,0.0,0.012303370051085949,-0.00551794096827507,-0.01041192002594471,0.9999327063560486,0.008488409221172333,0.0024749108124524355,-0.007510794792324305
722.0,0.0,0.0,0.0,0.0,0.0,0.0,0.01994377002120018,-0.010514291934669018,-0.03464676812291145,0.9999518394470215,0.006627905182540417,0.003818552941083908,-0.006144094280898571
723.0,0.0,0.0,0.0,0.0,0.0,0.0,0.01141353789716959,-0.008115503937005997,-0.00782445352524519,0.9999644756317139,0.00476403534412384,0.004080885089933872,-0.00562233617529273
724.0,0.0,0.0,0.0,0.0,0.0,0.0,-0.010257326066493988,0.014455463737249374,0.030302753672003746,0.999975323677063,0.001503234263509512,0.003563595237210393,-0.005856423173099756
725.0,0.0,0.0,0.0,0.0,0.0,0.0,-0.04821470379829407,0.018256038427352905,0.019296621903777122,0.9999610781669617,0.0010915930615738034,0.0032098598312586546,-0.008153221569955349
726.0,0.0,0.0,0.0,0.0,0.0,0.0,-0.03249666094779968,-0.013001822866499424,-0.000686738349031657,0.9999639987945557,-0.001514071598649025,0.004933782387524843,-0.006725834216922522
727.0,0.0,0.0,0.0,0.0,0.0,0.0,-0.0013994935434311628,0.0044623250141739845,0.0049804458394646645,0.9999576807022095,-0.004919706843793392,0.0049825068563222885,-0.005961912218481302
728.0,0.0,0.0,0.0,0.0,0.0,0.0,-0.022598862648010254,0.016331825405359268,0.003764736233279109,0.9999474883079529,-0.007269741035997868,0.005003013182431459,-0.005195016041398048
729.0,0.0,0.0,0.0,0.0,0.0,0.0,-0.010051234625279903,-0.0011111525818705559,-0.01244573388248682,0.9999361634254456,-0.009744875133037567,0.004754603840410709,-0.0031998702324926853
730.0,0.0,0.0,0.0,0.0,0.0,0.0,-0.004643676802515984,-0.004214376211166382,-0.01364231202751398,0.9999027252197266,-0.013191076926887035,0.004430706147104502,-0.0008931108750402927
731.0,0.0,0.0,0.0,0.0,0.0,0.0,-0.0073569961823523045,0.023550380021333694,0.00391829339787364,0.9998680949211121,-0.015498410910367966,0.0046039167791605,0.0014872647589072585
732.0,0.0,0.0,0.0,0.0,0.0,0.0,0.013735946267843246,0.022470733150839806,0.0014720356557518244,0.9998319149017334,-0.016729237511754036,0.005614076275378466,0.004992669448256493
733.0,0.0,0.0,0.0,0.0,0.0,0.0,0.03296058997511864,0.013922897167503834,-0.019553210586309433,0.9997977614402771,-0.01827365905046463,0.004789333324879408,0.006899867206811905
734.0,0.0,0.0,0.0,0.0,0.0,0.0,0.022900205105543137,0.02234760671854019,0.002562631154432893,0.9997965097427368,-0.01863774098455906,0.003819337347522378,0.006702376529574394
735.0,0.0,0.0,0.0,0.0,0.0,0.0,0.00733514130115509,0.028870975598692894,0.012342448346316814,0.9998178482055664,-0.017717553302645683,0.003493859199807048,0.006180971395224333
736.0,0.0,0.0,0.0,0.0,0.0,0.0,0.0018789065070450306,0.002792231272906065,-0.007785039488226175,0.9998294711112976,-0.01739504002034664,0.0035000804346054792,0.00511345686390996
737.0,0.0,0.0,0.0,0.0,0.0,0.0,0.015290736220777035,-0.006707762833684683,-0.017809858545660973,0.9998343586921692,-0.017007021233439445,0.003160321619361639,0.0056611462496221066
738.0,0.0,0.0,0.0,0.0,0.0,0.0,0.0159903634339571,0.006207816768437624,0.003445148468017578,0.9998499751091003,-0.015404163859784603,0.0027960825245827436,0.0073968167416751385
739.0,0.0,0.0,0.0,0.0,0.0,0.0,0.0018882803851738572,0.0029765325598418713,0.013657406903803349,0.9998645186424255,-0.013968192040920258,0.002120165154337883,0.008451597765088081
740.0,0.0,0.0,0.0,0.0,0.0,0.0,-0.01248638890683651,0.005139857064932585,0.01230452861636877,0.9998804330825806,-0.012783949263393879,0.0018745091510936618,0.008485364727675915
741.0,0.0,0.0,0.0,0.0,0.0,0.0,-0.01227201521396637,0.004644350614398718,0.015436329878866673,0.9999004006385803,-0.011512023396790028,0.0022071143612265587,0.007849282585084438
742.0,0.0,0.0,0.0,0.0,0.0,0.0,-0.009737289510667324,0.0008245129720307887,0.0019818907603621483,0.9999212622642517,-0.01035932544618845,0.0022088182158768177,0.006736632902175188
743.0,0.0,0.0,0.0,0.0,0.0,0.0,-0.01830771006643772,-0.004139977507293224,0.0007510295254178345,0.9999364018440247,-0.009648057632148266,0.0021471029613167048,0.005445500835776329
744.0,0.0,0.0,0.0,0.0,0.0,0.0,-0.0220346599817276,0.00860269833356142,0.018971256911754608,0.9999529123306274,-0.008535288274288177,0.002288616495206952,0.00400207843631506
745.0,0.0,0.0,0.0,0.0,0.0,0.0,-0.018148452043533325,0.00020169415802229196,-0.007015114650130272,0.9999647736549377,-0.007558470591902733,0.0028245034627616405,0.0023125968873500824
746.0,0.0,0.0,0.0,0.0,0.0,0.0,-0.004574075806885958,-0.027075015008449554,-0.03141200542449951,0.9999635815620422,-0.007122059352695942,0.003930025268346071,0.0025849328376352787
747.0,0.0,0.0,0.0,0.0,0.0,0.0,0.021653898060321808,-0.002321417210623622,-0.011737793684005737,0.9999575018882751,-0.006863296497613192,0.004597264342010021,0.004099254030734301
748.0,0.0,0.0,0.0,0.0,0.0,0.0,0.02937976084649563,0.0052321976982057095,-0.01141256745904684,0.9999553561210632,-0.006806293968111277,0.004273455124348402,0.004972952883690596
749.0,0.0,0.0,0.0,0.0,0.0,0.0,0.015420043841004372,-0.002058663871139288,-0.021696612238883972,0.9999561905860901,-0.006108081433922052,0.0036802871618419886,0.0060538556426763535
750.0,0.0,0.0,0.0,0.0,0.0,0.0,0.016683220863342285,-0.005161047447472811,-0.012788849882781506,0.9999614357948303,-0.005702710244804621,0.0027070387732237577,0.006097015924751759
751.0,0.0,0.0,0.0,0.0,0.0,0.0,-0.0015664594247937202,0.0032965720165520906,-0.0012663084780797362,0.9999711513519287,-0.005941588897258043,0.001472204690799117,0.004485046025365591
752.0,0.0,0.0,0.0,0.0,0.0,0.0,-0.008986566215753555,-0.0014689373783767223,-0.0022055297158658504,0.9999743103981018,-0.006305616814643145,0.0002555444370955229,0.003389229765161872
753.0,0.0,0.0,0.0,0.0,0.0,0.0,0.0011384249664843082,-0.0109923230484128,-0.01349245198071003,0.999957263469696,-0.00817337166517973,-0.0020197085104882717,0.003809826448559761
754.0,0.0,0.0,0.0,0.0,0.0,0.0,-0.009870556183159351,-0.004428738262504339,-0.015837691724300385,0.9999167919158936,-0.010813551023602486,-0.00440636184066534,0.005477115977555513
755.0,0.0,0.0,0.0,0.0,0.0,0.0,0.0011382485972717404,0.003563912585377693,-0.0060247136279940605,0.999866247177124,-0.012315976433455944,-0.0074944463558495045,0.007719751913100481
756.0,0.0,0.0,0.0,0.0,0.0,0.0,0.004610821604728699,0.011534185148775578,0.018706193193793297,0.9998207092285156,-0.012099554762244225,-0.010304124094545841,0.010283419862389565
757.0,0.0,0.0,0.0,0.0,0.0,0.0,-0.027819612994790077,0.009680813178420067,0.03229402378201485,0.9997854232788086,-0.01134046446532011,-0.012175630778074265,0.01233475748449564
758.0,0.0,0.0,0.0,0.0,0.0,0.0,-0.04219420626759529,0.014291474595665932,0.041547078639268875,0.9997945427894592,-0.009386408142745495,-0.012950696982443333,0.012452361173927784
