,Position_X,Position_Y,Position_Z,Velocity_X,Velocity_Y,Velocity_Z,Acceleration_X,Acceleration_Y,Acceleration_Z,Quaterion_0,Quaterion_1,Quaterion_2,Quaterion_3
90.0,0.0,0.0,0.0,0.0,0.0,0.0,-0.13075928390026093,-0.771377682685852,0.09817027300596237,1.0,0.0,0.0,-2.7755575615628914e-17
91.0,0.0,0.0,0.0,0.0,0.0,0.0,-0.9232935905456543,2.1332311630249023,-0.3412819504737854,0.999579131603241,-0.00835693534463644,-0.00929026585072279,-0.026178879663348198
92.0,0.0,0.0,0.0,0.0,0.0,0.0,0.14076483249664307,-0.7939319610595703,-0.11862531304359436,0.99953693151474,-0.009127107448875904,-0.005087416153401136,-0.02857951447367668
93.0,0.0,0.0,0.0,0.0,0.0,0.0,-0.18139009177684784,-0.14358775317668915,-0.07778620719909668,0.9994862675666809,-0.009994751773774624,0.0003467033675406128,-0.030450275167822838
94.0,0.0,0.0,0.0,0.0,0.0,0.0,0.0171354990452528,0.3240874707698822,-0.08609340339899063,0.999478280544281,0.007704049348831177,0.0019249756587669253,-0.03130470588803291
95.0,0.0,0.0,0.0,0.0,0.0,0.0,-0.259767085313797,0.1575419306755066,-0.08637417107820511,0.9987971782684326,0.03194453939795494,0.020849211141467094,-0.030808517709374428
96.0,0.0,0.0,0.0,0.0,0.0,0.0,0.26585742831230164,-0.1231582835316658,0.08943997323513031,0.9970092177391052,0.04347267001867294,0.054914627224206924,0.03266345337033272
97.0,0.0,0.0,0.0,0.0,0.0,0.0,0.5094030499458313,-0.23534038662910461,0.2015259712934494,0.9961145520210266,0.06298044323921204,0.04241165518760681,0.04461173713207245
98.0,0.0,0.0,0.0,0.0,0.0,0.0,-0.3102509081363678,-0.15569445490837097,0.14552225172519684,0.9970157742500305,0.05751412361860275,0.04136756435036659,0.030664436519145966
99.0,0.0,0.0,0.0,0.0,0.0,0.0,0.03666025772690773,-0.0378141812980175,-0.006077780853956938,0.9965833425521851,0.05974807217717171,0.044896963983774185,0.03516006097197533
100.0,0.0,0.0,0.0,0.0,0.0,0.0,0.06365271657705307,-0.003018096322193742,0.008058198727667332,0.996542751789093,0.06306855380535126,0.04136377573013306,0.03484225273132324
101.0,0.0,0.0,0.0,0.0,0.0,0.0,-0.03273100033402443,-0.061516840010881424,0.022055482491850853,0.9965806007385254,0.06220187991857529,0.0424567312002182,0.03399394825100899
102.0,0.0,0.0,0.0,0.0,0.0,0.0,0.01621469110250473,-0.03725815564393997,0.003190899034962058,0.9964990019798279,0.060987427830696106,0.04424673691391945,0.03622664511203766
103.0,0.0,0.0,0.0,0.0,0.0,0.0,0.014989444054663181,-0.028866281732916832,0.0033455134835094213,0.996428370475769,0.05995114892721176,0.0454157330095768,0.03838643804192543
104.0,0.0,0.0,0.0,0.0,0.0,0.0,0.002161725191399455,-0.04511396959424019,0.004454297944903374,0.9963410496711731,0.05977737531065941,0.04657488316297531,0.03952394798398018
105.0,0.0,0.0,0.0,0.0,0.0,0.0,0.009584937244653702,-0.040476202964782715,0.0018716410268098116,0.9962802529335022,0.0609399676322937,0.04659111425280571,0.03925424814224243
106.0,0.0,0.0,0.0,0.0,0.0,0.0,0.005324643105268478,-0.04088781028985977,0.004004394635558128,0.9962307810783386,0.06251635402441025,0.04614068940281868,0.038555726408958435
107.0,0.0,0.0,0.0,0.0,0.0,0.0,3.63129292964004e-05,-0.04405160993337631,0.0027462737634778023,0.9961893558502197,0.06310378015041351,0.046350233256816864,0.03842763230204582
108.0,0.0,0.0,0.0,0.0,0.0,0.0,-0.0005165230249986053,-0.04170919582247734,0.003987025003880262,0.9961670637130737,0.06231972575187683,0.04740699380636215,0.038996435701847076
109.0,0.0,0.0,0.0,0.0,0.0,0.0,0.0023230453953146935,-0.029474560171365738,0.010512011125683784,0.9961355328559875,0.060954075306653976,0.04877283051609993,0.04025035351514816
110.0,0.0,0.0,0.0,0.0,0.0,0.0,0.00242565362714231,-0.027911130338907242,0.008027942851185799,0.9960784912109375,0.06024593487381935,0.04967867583036423,0.041599441319704056
111.0,0.0,0.0,0.0,0.0,0.0,0.0,0.0019472864223644137,-0.025226131081581116,0.011048934422433376,0.9960268139839172,0.060558561235666275,0.04964788258075714,0.04239426553249359
112.0,0.0,0.0,0.0,0.0,0.0,0.0,-0.0009281406528316438,-0.029780251905322075,0.012883572839200497,0.9959937930107117,0.06140715256333351,0.04913356900215149,0.04256068170070648
113.0,0.0,0.0,0.0,0.0,0.0,0.0,-0.00027377810329198837,-0.025851702317595482,0.013077734038233757,0.9959763884544373,0.06203542649745941,0.04880179837346077,0.042441707104444504
114.0,0.0,0.0,0.0,0.0,0.0,0.0,-0.0017630888614803553,-0.02598109096288681,0.011598425917327404,0.9959548711776733,0.06181799992918968,0.04903385043144226,0.04299462214112282
115.0,0.0,0.0,0.0,0.0,0.0,0.0,-0.002558179898187518,-0.02869712933897972,0.012004813179373741,0.9959551692008972,0.060708608478307724,0.049846649169921875,0.043630827218294144
116.0,0.0,0.0,0.0,0.0,0.0,0.0,0.0032384158112108707,-0.03029598481953144,0.012068234384059906,0.995919406414032,0.060034140944480896,0.05074887350201607,0.04432449862360954
117.0,0.0,0.0,0.0,0.0,0.0,0.0,0.045991137623786926,-0.12328000366687775,-0.021966254338622093,0.9961299896240234,0.059089552611112595,0.05017733946442604,0.041414227336645126
118.0,0.0,0.0,0.0,0.0,0.0,0.0,-0.8692792654037476,0.13884872198104858,-0.019859839230775833,0.9984855651855469,0.015967629849910736,0.0507623590528965,0.013956034556031227
119.0,0.0,0.0,0.0,0.0,0.0,0.0,-0.7250317931175232,2.641333818435669,-0.13747963309288025,0.9988366961479187,0.011936506256461143,0.04671499505639076,-0.0005994370440021157
120.0,0.0,0.0,0.0,0.0,0.0,0.0,0.01893717609345913,-1.0436468124389648,-0.16824902594089508,0.9984113574028015,0.010176820680499077,0.053773585706949234,-0.013397108763456345
121.0,0.0,0.0,0.0,0.0,0.0,0.0,-0.30969005823135376,-0.09211480617523193,-0.09215682744979858,0.9979758262634277,0.0049310289323329926,0.06085941195487976,-0.017781803384423256
122.0,0.0,0.0,0.0,0.0,0.0,0.0,-0.19645005464553833,0.6735134720802307,-0.010039822198450565,0.9971984028816223,0.02956031635403633,0.0646415501832962,-0.023307185620069504
123.0,0.0,0.0,0.0,0.0,0.0,0.0,0.5974522829055786,-0.3436358571052551,-0.47780436277389526,0.9936830997467041,0.08181565999984741,0.07497276365756989,0.016701385378837585
124.0,0.0,0.0,0.0,0.0,0.0,0.0,0.392423152923584,-0.6116065382957458,0.4385547339916229,0.9938973784446716,0.08672287315130234,0.06489638239145279,0.020875122398138046
125.0,0.0,0.0,0.0,0.0,0.0,0.0,-0.36294639110565186,0.03460225462913513,0.3673301637172699,0.994478702545166,0.07987108081579208,0.06698508560657501,0.01204660627990961
126.0,0.0,0.0,0.0,0.0,0.0,0.0,0.1683809757232666,-0.08776611089706421,-0.1206521987915039,0.994040310382843,0.08294811099767685,0.06870582699775696,0.016817592084407806
127.0,0.0,0.0,0.0,0.0,0.0,0.0,0.06820452213287354,-0.05225647613406181,0.03989538550376892,0.9941524863243103,0.08278674632310867,0.06686212122440338,0.018366120755672455
128.0,0.0,0.0,0.0,0.0,0.0,0.0,-0.02109481580555439,-0.06260619312524796,0.05875926464796066,0.9940411448478699,0.0810398980975151,0.07033290714025497,0.019167184829711914
129.0,0.0,0.0,0.0,0.0,0.0,0.0,0.05219469964504242,-0.06322603672742844,0.00420738197863102,0.993890643119812,0.08075875788927078,0.07239291816949844,0.020448166877031326
130.0,0.0,0.0,0.0,0.0,0.0,0.0,0.047416768968105316,-0.06157520040869713,0.0051184468902647495,0.9937341213226318,0.0825301930308342,0.07270444184541702,0.019869618117809296
131.0,0.0,0.0,0.0,0.0,0.0,0.0,0.02401798591017723,-0.0718999058008194,0.015080169774591923,0.9935003519058228,0.08553337305784225,0.07305045425891876,0.017432423308491707
132.0,0.0,0.0,0.0,0.0,0.0,0.0,0.02595655620098114,-0.07692237198352814,0.01331882644444704,0.9932734370231628,0.08821462839841843,0.07326661795377731,0.016071399673819542
133.0,0.0,0.0,0.0,0.0,0.0,0.0,0.02582099661231041,-0.052562158554792404,0.022968227043747902,0.9931662082672119,0.08955095708370209,0.07329210638999939,0.015141875483095646
134.0,0.0,0.0,0.0,0.0,0.0,0.0,0.020426783710718155,-0.051133692264556885,0.03555433824658394,0.9931426644325256,0.08925890922546387,0.07402634620666504,0.014890673570334911
135.0,0.0,0.0,0.0,0.0,0.0,0.0,0.020019885152578354,-0.05069921165704727,0.02826010063290596,0.9931176900863647,0.08862344175577164,0.074799083173275,0.016398075968027115
136.0,0.0,0.0,0.0,0.0,0.0,0.0,0.016504032537341118,-0.04682591184973717,0.02789275534451008,0.9931327104568481,0.08780543506145477,0.07531639188528061,0.017454156652092934
137.0,0.0,0.0,0.0,0.0,0.0,0.0,0.01943756826221943,-0.047379497438669205,0.03199469670653343,0.9931525588035583,0.08736097067594528,0.07561426609754562,0.017261896282434464
138.0,0.0,0.0,0.0,0.0,0.0,0.0,0.01357918418943882,-0.06034764274954796,0.023824278265237808,0.9931989908218384,0.08704623579978943,0.0752839744091034,0.017642872408032417
139.0,0.0,0.0,0.0,0.0,0.0,0.0,0.008039446547627449,-0.06661426275968552,0.023045415058732033,0.9932695031166077,0.08637510240077972,0.07490810751914978,0.018579764291644096
140.0,0.0,0.0,0.0,0.0,0.0,0.0,0.012015685439109802,-0.06746682524681091,0.0190262570977211,0.9933526515960693,0.08493679016828537,0.07511651515960693,0.019841890782117844
141.0,0.0,0.0,0.0,0.0,0.0,0.0,0.015473157167434692,-0.06840226799249649,0.013285663910210133,0.9934112429618835,0.08325588703155518,0.07582841068506241,0.021273290738463402
142.0,0.0,0.0,0.0,0.0,0.0,0.0,0.022440997883677483,-0.06752075999975204,0.014118476770818233,0.9934051036834717,0.08204164355993271,0.076851487159729,0.02257964015007019
143.0,0.0,0.0,0.0,0.0,0.0,0.0,0.026975611224770546,-0.06723140925168991,0.011691196821630001,0.9933471083641052,0.08206384629011154,0.07734308391809464,0.023338092491030693
144.0,0.0,0.0,0.0,0.0,0.0,0.0,0.03352130576968193,-0.10142744332551956,-0.007969861850142479,0.9933011531829834,0.08277056366205215,0.07731147855520248,0.02290753647685051
145.0,0.0,0.0,0.0,0.0,0.0,0.0,0.13957883417606354,-1.6562058925628662,0.0062423148192465305,0.9865658283233643,0.12108194082975388,0.04461238160729408,-0.10018055140972137
146.0,0.0,0.0,0.0,0.0,0.0,0.0,-1.6423876285552979,2.332237482070923,0.2906274199485779,0.970579206943512,0.1583125740289688,0.025843070819973946,-0.1795627474784851
147.0,0.0,0.0,0.0,0.0,0.0,0.0,-0.10545044392347336,-1.2994012832641602,-0.36451423168182373,0.9685096144676208,0.15541183948516846,0.023698290809988976,-0.19306626915931702
148.0,0.0,0.0,0.0,0.0,0.0,0.0,-0.4475465714931488,-0.5673566460609436,-0.11474763602018356,0.9691598415374756,0.14094732701778412,0.03314227610826492,-0.1994173228740692
149.0,0.0,0.0,0.0,0.0,0.0,0.0,-0.25382623076438904,0.3373548984527588,-0.017402036115527153,0.9781484603881836,0.13035370409488678,0.05382020026445389,-0.15276853740215302
150.0,0.0,0.0,0.0,0.0,0.0,0.0,0.3216961920261383,-0.2873002588748932,-0.5220999717712402,0.9912684559822083,0.08959901332855225,0.09203417599201202,-0.029799209907650948
151.0,0.0,0.0,0.0,0.0,0.0,0.0,0.6681011319160461,-0.043912168592214584,0.5007270574569702,0.992266058921814,0.07502252608537674,0.09857863187789917,-0.007850131951272488
152.0,0.0,0.0,0.0,0.0,0.0,0.0,-0.06095360219478607,0.02673202194273472,0.20454759895801544,0.9923467636108398,0.07775788009166718,0.09473586827516556,-0.015052803792059422
153.0,0.0,0.0,0.0,0.0,0.0,0.0,0.05877808481454849,-0.10350824892520905,-0.05472995713353157,0.9923778176307678,0.07621625810861588,0.09648172557353973,-0.00823824293911457
154.0,0.0,0.0,0.0,0.0,0.0,0.0,0.04897472262382507,-0.008375833742320538,0.09257186949253082,0.992702066898346,0.0769042819738388,0.0924537256360054,-0.008982406929135323
155.0,0.0,0.0,0.0,0.0,0.0,0.0,0.0012186968233436346,-0.050734881311655045,0.054336611181497574,0.9931601881980896,0.07579611986875534,0.08841579407453537,-0.008408007211983204
156.0,0.0,0.0,0.0,0.0,0.0,0.0,0.03080841712653637,-0.07510866969823837,0.015650857239961624,0.993575930595398,0.07229364663362503,0.08684028685092926,-0.006366067100316286
157.0,0.0,0.0,0.0,0.0,0.0,0.0,0.05426590144634247,-0.05009298026561737,0.03012024611234665,0.9938921332359314,0.06799463927745819,0.08687186986207962,-0.002905383473262191
158.0,0.0,0.0,0.0,0.0,0.0,0.0,0.07128782570362091,-0.047656185925006866,0.013239503838121891,0.9941288828849792,0.06309876590967178,0.08785587549209595,0.002949921879917383
159.0,0.0,0.0,0.0,0.0,0.0,0.0,0.07902222126722336,-0.05783442407846451,-0.0004613654164131731,0.9942829012870789,0.05876907333731651,0.08884091675281525,0.007436341140419245
160.0,0.0,0.0,0.0,0.0,0.0,0.0,0.08919598907232285,-0.05674239620566368,-0.025134528055787086,0.9944502711296082,0.05705012008547783,0.08799681812524796,0.008391639217734337
161.0,0.0,0.0,0.0,0.0,0.0,0.0,0.07355480641126633,-0.029208630323410034,-0.020903930068016052,0.9947066307067871,0.058633431792259216,0.08418172597885132,0.0058747571893036366
162.0,0.0,0.0,0.0,0.0,0.0,0.0,0.04551364853978157,-0.01744082011282444,0.013919801451265812,0.9948745369911194,0.06127486377954483,0.08039984107017517,0.0024599027819931507
163.0,0.0,0.0,0.0,0.0,0.0,0.0,0.04473248869180679,-0.02304990030825138,0.01103457622230053,0.9949814677238464,0.06262855231761932,0.07803824543952942,7.645398000022396e-05
164.0,0.0,0.0,0.0,0.0,0.0,0.0,0.04895594343543053,-0.0264667347073555,0.019923901185393333,0.9950247406959534,0.062241215258836746,0.07778789848089218,-0.00023500774113927037
165.0,0.0,0.0,0.0,0.0,0.0,0.0,0.06588279455900192,-0.04735511168837547,0.01982584409415722,0.9950318932533264,0.06047749146819115,0.07907300442457199,0.001107101095840335
166.0,0.0,0.0,0.0,0.0,0.0,0.0,0.06535835564136505,-0.06428921967744827,0.014955217018723488,0.9950459003448486,0.05834610387682915,0.08042044192552567,0.0034350361675024033
167.0,0.0,0.0,0.0,0.0,0.0,0.0,0.05145519971847534,-0.05397199094295502,0.02300262823700905,0.995079517364502,0.0576280914247036,0.08045586198568344,0.004747806582599878
168.0,0.0,0.0,0.0,0.0,0.0,0.0,0.03852993994951248,-0.042108915746212006,0.04899059608578682,0.9951050281524658,0.058656737208366394,0.07943950593471527,0.0039042322896420956
169.0,0.0,0.0,0.0,0.0,0.0,0.0,0.03184403479099274,-0.03544555604457855,0.04281649366021156,0.9951309561729431,0.060098640620708466,0.07806922495365143,0.002923456020653248
170.0,0.0,0.0,0.0,0.0,0.0,0.0,0.023348413407802582,-0.0351080521941185,0.04965846240520477,0.9951019883155823,0.06158674880862236,0.07725396752357483,0.003205528249964118
171.0,0.0,0.0,0.0,0.0,0.0,0.0,0.03738860413432121,-0.02525925822556019,0.0421881340444088,0.9950368404388428,0.062451720237731934,0.07732628285884857,0.004692583344876766
172.0,0.0,0.0,0.0,0.0,0.0,0.0,0.039884570986032486,-0.03887397050857544,0.04200448468327522,0.9949617385864258,0.06268777698278427,0.07792028784751892,0.007095439359545708
173.0,0.0,0.0,0.0,0.0,0.0,0.0,0.041010767221450806,-0.05675790086388588,0.022582150995731354,0.9948800802230835,0.062444545328617096,0.07882585376501083,0.010068724863231182
174.0,0.0,0.0,0.0,0.0,0.0,0.0,0.04047013819217682,-0.06531962752342224,0.003791196271777153,0.9948145151138306,0.06322518736124039,0.07863747328519821,0.012747853994369507
175.0,0.0,0.0,0.0,0.0,0.0,0.0,0.008860289119184017,-0.07629437744617462,0.012607970274984837,0.9947670698165894,0.06461765617132187,0.07787618041038513,0.014085307717323303
176.0,0.0,0.0,0.0,0.0,0.0,0.0,0.015948938205838203,-0.06596574932336807,0.024359161034226418,0.9946672320365906,0.06583800911903381,0.07793808728456497,0.01508300844579935
177.0,0.0,0.0,0.0,0.0,0.0,0.0,0.04490498825907707,-0.051333293318748474,0.021810315549373627,0.9946010708808899,0.06682045757770538,0.07775222510099411,0.01608455367386341
178.0,0.0,0.0,0.0,0.0,0.0,0.0,0.05496980994939804,-0.08392437547445297,-0.002313455333933234,0.9946170449256897,0.066179558634758,0.07780960202217102,0.017393598333001137
179.0,0.0,0.0,0.0,0.0,0.0,0.0,0.04092138633131981,-0.11369715631008148,-0.005408839322626591,0.9947178959846497,0.06348869204521179,0.07848041504621506,0.018610546365380287
180.0,0.0,0.0,0.0,0.0,0.0,0.0,0.051262229681015015,-0.12265556305646896,0.006000479683279991,0.9950253367424011,0.05902810022234917,0.07797590643167496,0.01898592710494995
181.0,0.0,0.0,0.0,0.0,0.0,0.0,0.011591278947889805,-0.024067791178822517,0.08544175326824188,0.9956381320953369,0.05200415477156639,0.0749826654791832,0.019443359225988388
182.0,0.0,0.0,0.0,0.0,0.0,0.0,-0.03024030663073063,0.07123219966888428,0.19408434629440308,0.99606853723526,0.04465572535991669,0.07249251753091812,0.02447008527815342
183.0,0.0,0.0,0.0,0.0,0.0,0.0,-0.03431013599038124,0.07016614079475403,0.14311295747756958,0.9960955381393433,0.03816360607743263,0.07018354535102844,0.037575699388980865
184.0,0.0,0.0,0.0,0.0,0.0,0.0,-0.0025978165213018656,0.06652258336544037,0.031487755477428436,0.9961076974868774,0.029259847477078438,0.065030537545681,0.051803234964609146
185.0,0.0,0.0,0.0,0.0,0.0,0.0,0.03400079533457756,0.040549710392951965,-0.06376165896654129,0.9960918426513672,0.0196975264698267,0.0595666840672493,0.062170080840587616
186.0,0.0,0.0,0.0,0.0,0.0,0.0,0.02035130187869072,-0.00012580573093146086,-0.1287962943315506,0.9960805177688599,0.013374417088925838,0.054551415145397186,0.06832896918058395
187.0,0.0,0.0,0.0,0.0,0.0,0.0,0.015473708510398865,-0.02458692528307438,-0.05938011035323143,0.9960327744483948,0.010670262388885021,0.052452266216278076,0.07109107822179794
188.0,0.0,0.0,0.0,0.0,0.0,0.0,0.06792093813419342,0.011364537291228771,-0.0833241268992424,0.9960579872131348,0.009501454420387745,0.048935603350400925,0.07337291538715363
189.0,0.0,0.0,0.0,0.0,0.0,0.0,0.08678042888641357,-0.04097667336463928,-0.09658188372850418,0.996116578578949,0.009419313631951809,0.04434796795248985,0.07547155022621155
190.0,0.0,0.0,0.0,0.0,0.0,0.0,0.12114734947681427,-0.07475187629461288,-0.10782051086425781,0.9961987733840942,0.010899454355239868,0.041088003665208817,0.07603302597999573
191.0,0.0,0.0,0.0,0.0,0.0,0.0,0.15504911541938782,-0.11660022288560867,-0.1447712630033493,0.9964408278465271,0.013662243261933327,0.039678845554590225,0.07310642302036285
192.0,0.0,0.0,0.0,0.0,0.0,0.0,0.14829309284687042,-0.14934198558330536,-0.12830716371536255,0.9968839287757874,0.01668093539774418,0.04134126380085945,0.06507640331983566
193.0,0.0,0.0,0.0,0.0,0.0,0.0,0.05755209922790527,-0.0958489179611206,-0.033413276076316833,0.9972743988037109,0.021448124200105667,0.04799603670835495,0.05177222937345505
194.0,0.0,0.0,0.0,0.0,0.0,0.0,-0.055481549352407455,0.029223071411252022,0.027294745668768883,0.9974122643470764,0.026988206431269646,0.05547719821333885,0.03691558167338371
195.0,0.0,0.0,0.0,0.0,0.0,0.0,-0.03684466704726219,0.0314459390938282,0.048863112926483154,0.9973904490470886,0.03275374323129654,0.060132015496492386,0.022872334346175194
196.0,0.0,0.0,0.0,0.0,0.0,0.0,-0.0864398330450058,0.020184125751256943,0.12564386427402496,0.9972019791603088,0.037534914910793304,0.06380967795848846,0.010382617823779583
197.0,0.0,0.0,0.0,0.0,0.0,0.0,-0.08903836458921432,0.029360268265008926,0.17587533593177795,0.9968673586845398,0.04121001437306404,0.06748151034116745,0.0017513851635158062
198.0,0.0,0.0,0.0,0.0,0.0,0.0,0.0017275260761380196,0.018018539994955063,0.12014441937208176,0.9965586066246033,0.04530549421906471,0.06929106265306473,-0.00414684135466814
199.0,0.0,0.0,0.0,0.0,0.0,0.0,0.01633179374039173,0.004857439547777176,0.10149252414703369,0.9963510632514954,0.04926657676696777,0.06924188137054443,-0.007928023114800453
200.0,0.0,0.0,0.0,0.0,0.0,0.0,-0.0014574339147657156,-0.028439026325941086,0.08039143681526184,0.9961718916893005,0.05170769244432449,0.06975020468235016,-0.010161027312278748
201.0,0.0,0.0,0.0,0.0,0.0,0.0,-0.02395341917872429,-0.009552066214382648,0.1006891131401062,0.9959670901298523,0.05386152118444443,0.07107634097337723,-0.00984951015561819
202.0,0.0,0.0,0.0,0.0,0.0,0.0,0.002334302756935358,-0.008466322906315327,0.12027620524168015,0.9957301020622253,0.05693051964044571,0.07232662290334702,-0.007074852008372545
203.0,0.0,0.0,0.0,0.0,0.0,0.0,0.011266347952187061,-0.017091475427150726,0.0921347513794899,0.9954304695129395,0.061443980783224106,0.07302180677652359,-0.003311873646453023
204.0,0.0,0.0,0.0,0.0,0.0,0.0,0.003254103707149625,-0.05974733829498291,0.06367991864681244,0.9952468872070312,0.06394802778959274,0.07343962043523788,0.0008181091398000717
205.0,0.0,0.0,0.0,0.0,0.0,0.0,0.05747644230723381,-0.09288863837718964,-0.024547411128878593,0.9951280355453491,0.06588029861450195,0.07324657589197159,0.0038520642556250095
206.0,0.0,0.0,0.0,0.0,0.0,0.0,0.0901583656668663,-0.16499735414981842,-0.1186770349740982,0.9950756430625916,0.0679553970694542,0.07206667959690094,0.0035653228405863047
207.0,0.0,0.0,0.0,0.0,0.0,0.0,0.10319807380437851,-0.20343437790870667,-0.1438562273979187,0.9949101209640503,0.07110202312469482,0.07139727473258972,0.0006648491253145039
208.0,0.0,0.0,0.0,0.0,0.0,0.0,0.07570213824510574,-0.1770610213279724,-0.12750273942947388,0.9942627549171448,0.07853509485721588,0.07239910960197449,-0.005617675371468067
209.0,0.0,0.0,0.0,0.0,0.0,0.0,-0.02283037081360817,-0.15626683831214905,-0.11886504292488098,0.9933005571365356,0.0867369994521141,0.0746220201253891,-0.01615961641073227
210.0,0.0,0.0,0.0,0.0,0.0,0.0,-0.07689455151557922,-0.10026200860738754,-0.009114808402955532,0.992933452129364,0.08785537630319595,0.0754522979259491,-0.02592463046312332
211.0,0.0,0.0,0.0,0.0,0.0,0.0,-0.03452508896589279,-0.06272849440574646,0.08643930405378342,0.9932947754859924,0.0834662988781929,0.07350950688123703,-0.03155117854475975
212.0,0.0,0.0,0.0,0.0,0.0,0.0,-0.011823665350675583,-0.06737256050109863,0.11335857957601547,0.9938629865646362,0.07738055288791656,0.0713748186826706,-0.03396797180175781
213.0,0.0,0.0,0.0,0.0,0.0,0.0,-0.00040845226612873375,0.002620468381792307,0.112286277115345,0.9943315982818604,0.07261250913143158,0.06975845992565155,-0.034149326384067535
214.0,0.0,0.0,0.0,0.0,0.0,0.0,0.029584188014268875,0.03758193552494049,0.08520642668008804,0.9946220517158508,0.07064490765333176,0.06888963282108307,-0.03147408738732338
215.0,0.0,0.0,0.0,0.0,0.0,0.0,0.03274691477417946,0.00835056509822607,0.06396359205245972,0.9950240254402161,0.06682103127241135,0.06854202598333359,-0.027643386274576187
216.0,0.0,0.0,0.0,0.0,0.0,0.0,0.035165321081876755,-0.02318866178393364,0.06795912981033325,0.99556964635849,0.058976780623197556,0.06948427110910416,-0.02313854917883873
217.0,0.0,0.0,0.0,0.0,0.0,0.0,0.06465087831020355,-0.07509031891822815,-0.03156149387359619,0.9959948658943176,0.051573943346738815,0.07040995359420776,-0.019410429522395134
218.0,0.0,0.0,0.0,0.0,0.0,0.0,0.047546591609716415,-0.09006860107183456,-0.04017210751771927,0.9962935447692871,0.04665869101881981,0.07037279009819031,-0.01641015335917473
219.0,0.0,0.0,0.0,0.0,0.0,0.0,0.023046843707561493,-0.09342795610427856,-0.020651549100875854,0.9964486360549927,0.04302196949720383,0.07079523056745529,-0.015072552487254143
220.0,0.0,0.0,0.0,0.0,0.0,0.0,0.017204171046614647,-0.05870934575796127,-0.018775390461087227,0.9965351223945618,0.040813859552145004,0.07097777724266052,-0.014628404751420021
221.0,0.0,0.0,0.0,0.0,0.0,0.0,0.035048387944698334,-0.03685459494590759,0.006896677892655134,0.9966446161270142,0.03986722603440285,0.0701216608285904,-0.01390944141894579
222.0,0.0,0.0,0.0,0.0,0.0,0.0,0.047754716128110886,-0.08392147719860077,-0.008080360479652882,0.996752917766571,0.03892229497432709,0.06913755089044571,-0.013751907274127007
223.0,0.0,0.0,0.0,0.0,0.0,0.0,0.03901025652885437,-0.093551404774189,0.005615124013274908,0.9968625903129578,0.03767473250627518,0.06822357326745987,-0.013821234926581383
224.0,0.0,0.0,0.0,0.0,0.0,0.0,0.03787504509091377,-0.08523119240999222,0.03900397941470146,0.9969622492790222,0.03571387380361557,0.06782770901918411,-0.013782619498670101
225.0,0.0,0.0,0.0,0.0,0.0,0.0,0.07374162971973419,-0.099481001496315,-0.0005884869606234133,0.9970862865447998,0.033879149705171585,0.06697401404380798,-0.013623899780213833
226.0,0.0,0.0,0.0,0.0,0.0,0.0,0.0745379701256752,-0.10373515635728836,-0.006969095207750797,0.9972399473190308,0.03208194673061371,0.06540270894765854,-0.014354845508933067
227.0,0.0,0.0,0.0,0.0,0.0,0.0,0.06742168217897415,-0.10124329477548599,-0.006995721720159054,0.9973856806755066,0.02949962578713894,0.06405305862426758,-0.015787463635206223
228.0,0.0,0.0,0.0,0.0,0.0,0.0,0.07170086354017258,-0.1164935827255249,-0.022951340302824974,0.9975541830062866,0.026341645047068596,0.06220166012644768,-0.01796703226864338
229.0,0.0,0.0,0.0,0.0,0.0,0.0,0.05700835958123207,-0.10095397382974625,-0.001045892247930169,0.9976696372032166,0.02271588332951069,0.06046268343925476,-0.02199092134833336
230.0,0.0,0.0,0.0,0.0,0.0,0.0,0.021563082933425903,-0.05972309783101082,0.03875221684575081,0.9976987838745117,0.018763070926070213,0.0595974363386631,-0.026327695697546005
231.0,0.0,0.0,0.0,0.0,0.0,0.0,0.013420911505818367,-0.05156509205698967,0.04538263753056526,0.9977025985717773,0.015415097586810589,0.05888093635439873,-0.029746564105153084
232.0,0.0,0.0,0.0,0.0,0.0,0.0,0.003966065123677254,-0.02618386782705784,0.06352025270462036,0.9976925253868103,0.012606403790414333,0.05798472836613655,-0.03299763426184654
233.0,0.0,0.0,0.0,0.0,0.0,0.0,0.005575296934694052,-0.01493692398071289,0.05071691423654556,0.9976177215576172,0.009804823435842991,0.05784675106406212,-0.0362774021923542
234.0,0.0,0.0,0.0,0.0,0.0,0.0,0.004301333799958229,-0.007215321995317936,0.06056917831301689,0.9975733160972595,0.0076807779259979725,0.05740564316511154,-0.038639750331640244
235.0,0.0,0.0,0.0,0.0,0.0,0.0,0.014955274760723114,-0.011648856103420258,0.043519482016563416,0.9975185990333557,0.006075239274650812,0.0571158304810524,-0.04071466997265816
236.0,0.0,0.0,0.0,0.0,0.0,0.0,0.009789972566068172,0.0009282059036195278,0.05391061305999756,0.9974284172058105,0.004648915957659483,0.057203348726034164,-0.04292319342494011
237.0,0.0,0.0,0.0,0.0,0.0,0.0,-0.0038384627550840378,-0.0006819432601332664,0.07086121290922165,0.9974777102470398,0.004195376764982939,0.05652948468923569,-0.04272148013114929
238.0,0.0,0.0,0.0,0.0,0.0,0.0,0.02385854907333851,-0.006109169218689203,0.061513714492321014,0.9974117279052734,0.003904459998011589,0.056876663118600845,-0.043818384408950806
239.0,0.0,0.0,0.0,0.0,0.0,0.0,-0.010708647780120373,0.005500513128936291,0.09217724949121475,0.9973236918449402,0.003996552899479866,0.05799092352390289,-0.044350516051054
240.0,0.0,0.0,0.0,0.0,0.0,0.0,-0.09445393830537796,0.1182306632399559,0.2368970811367035,0.997199296951294,0.004735469352453947,0.06050313264131546,-0.0437067411839962
241.0,0.0,0.0,0.0,0.0,0.0,0.0,-0.14924253523349762,0.21145525574684143,0.41088736057281494,0.9970946311950684,0.010038789361715317,0.06432252377271652,-0.03954983130097389
242.0,0.0,0.0,0.0,0.0,0.0,0.0,0.01352071575820446,0.022287366911768913,0.2951444983482361,0.9969990849494934,0.021281909197568893,0.06756159663200378,-0.031222863122820854
243.0,0.0,0.0,0.0,0.0,0.0,0.0,0.13181324303150177,-0.08877431601285934,0.04024544730782509,0.996906042098999,0.03290373086929321,0.06807544082403183,-0.02148159220814705
244.0,0.0,0.0,0.0,0.0,0.0,0.0,0.08993377536535263,-0.10037671774625778,-0.12118839472532272,0.9967273473739624,0.04369423910975456,0.06701646745204926,-0.011586648412048817
245.0,0.0,0.0,0.0,0.0,0.0,0.0,0.10060873627662659,-0.22598202526569366,-0.23042859137058258,0.9964606761932373,0.04998106136918068,0.06754069775342941,-0.0025945084635168314
246.0,0.0,0.0,0.0,0.0,0.0,0.0,0.13656973838806152,-0.26302656531333923,-0.24882164597511292,0.9963263273239136,0.052047379314899445,0.06785180419683456,0.00462310528382659
247.0,0.0,0.0,0.0,0.0,0.0,0.0,0.12810038030147552,-0.2486569881439209,-0.20629961788654327,0.9963459968566895,0.05159290134906769,0.06755470484495163,0.008303267881274223
248.0,0.0,0.0,0.0,0.0,0.0,0.0,0.05687050521373749,-0.1401410847902298,-0.08286884427070618,0.9964649081230164,0.04870070144534111,0.06775903701782227,0.009719050489366055
249.0,0.0,0.0,0.0,0.0,0.0,0.0,0.03399457409977913,-0.07191050797700882,-0.003799067810177803,0.9965546727180481,0.045737408101558685,0.06855247169733047,0.009353308007121086
250.0,0.0,0.0,0.0,0.0,0.0,0.0,0.06761133670806885,-0.09963490068912506,-0.07498660683631897,0.9967132210731506,0.04254651814699173,0.06853750348091125,0.007425013929605484
251.0,0.0,0.0,0.0,0.0,0.0,0.0,-0.06985761970281601,0.06561451405286789,0.08918475359678268,0.9968291521072388,0.040031637996435165,0.06859389692544937,0.004932972136884928
252.0,0.0,0.0,0.0,0.0,0.0,0.0,-0.06052270531654358,0.10847725719213486,0.1262783259153366,0.9966850876808167,0.040658123791217804,0.07022979110479355,0.005827224813401699
253.0,0.0,0.0,0.0,0.0,0.0,0.0,0.028485221788287163,-0.014206938445568085,-0.0205975528806448,0.9965653419494629,0.04160212352871895,0.0711439922451973,0.00807834044098854
254.0,0.0,0.0,0.0,0.0,0.0,0.0,0.003477101679891348,-0.034117188304662704,-0.02204044908285141,0.9964914321899414,0.04183413088321686,0.07187213748693466,0.00945648830384016
255.0,0.0,0.0,0.0,0.0,0.0,0.0,0.014655014500021935,-0.00717347115278244,0.025950433686375618,0.9964109659194946,0.042433444410562515,0.07243062555789948,0.010877828113734722
256.0,0.0,0.0,0.0,0.0,0.0,0.0,0.07923514395952225,-0.06418925523757935,-0.02533663809299469,0.9963930249214172,0.04329864680767059,0.07191877067089081,0.012394377030432224
257.0,0.0,0.0,0.0,0.0,0.0,0.0,0.09879080206155777,-0.1260520964860916,-0.09736182540655136,0.996487557888031,0.042595334351062775,0.07098201662302017,0.012644663453102112
258.0,0.0,0.0,0.0,0.0,0.0,0.0,0.11209148913621902,-0.12659741938114166,-0.12753042578697205,0.9967842102050781,0.040226273238658905,0.06832316517829895,0.011620855890214443
259.0,0.0,0.0,0.0,0.0,0.0,0.0,0.20687998831272125,-0.20819930732250214,-0.22492662072181702,0.9973372220993042,0.03622888773679733,0.06277194619178772,0.008103184401988983
260.0,0.0,0.0,0.0,0.0,0.0,0.0,0.10338146984577179,-0.2006087750196457,-0.14696842432022095,0.9979414939880371,0.028788011521100998,0.05727160722017288,-0.0019496796885505319
261.0,0.0,0.0,0.0,0.0,0.0,0.0,-0.05769949033856392,-0.012035791762173176,0.11715757846832275,0.9981998205184937,0.022097596898674965,0.0544167198240757,-0.012154794298112392
262.0,0.0,0.0,0.0,0.0,0.0,0.0,-0.20799429714679718,0.19219572842121124,0.2950492799282074,0.9981204271316528,0.017403943464159966,0.05526825413107872,-0.019957320764660835
263.0,0.0,0.0,0.0,0.0,0.0,0.0,-0.34417811036109924,0.3770563304424286,0.5087148547172546,0.9979040026664734,0.01750001311302185,0.05900666490197182,-0.019993038848042488
264.0,0.0,0.0,0.0,0.0,0.0,0.0,-0.07956680655479431,0.14298643171787262,0.1534232348203659,0.9975851774215698,0.022140376269817352,0.06422696262598038,-0.014435118064284325
265.0,0.0,0.0,0.0,0.0,0.0,0.0,-0.022697729989886284,0.051865577697753906,0.030985046178102493,0.9973725080490112,0.025947794318199158,0.06703168153762817,-0.009026153944432735
266.0,0.0,0.0,0.0,0.0,0.0,0.0,-0.0028785697650164366,0.06053367629647255,0.1112573891878128,0.9971810579299927,0.032270949333906174,0.06766913086175919,-0.0030158201698213816
267.0,0.0,0.0,0.0,0.0,0.0,0.0,0.0811585858464241,-0.08777765184640884,-0.020198488608002663,0.9969937801361084,0.0380849614739418,0.0674445852637291,0.00209221662953496
268.0,0.0,0.0,0.0,0.0,0.0,0.0,0.10267025232315063,-0.1755121499300003,-0.10228382796049118,0.9969055652618408,0.042442210018634796,0.06579730659723282,0.007023760117590427
269.0,0.0,0.0,0.0,0.0,0.0,0.0,0.0689653754234314,-0.15667293965816498,-0.10610134899616241,0.9968505501747131,0.04476906731724739,0.06473805755376816,0.009689451195299625
270.0,0.0,0.0,0.0,0.0,0.0,0.0,0.022291595116257668,-0.09660530835390091,-0.03221021220088005,0.9967807531356812,0.04546938091516495,0.06503226608037949,0.011475962586700916
271.0,0.0,0.0,0.0,0.0,0.0,0.0,0.011149469763040543,-0.05784587562084198,-0.034849863499403,0.99666827917099,0.04531119391322136,0.06616835296154022,0.01485343649983406
272.0,0.0,0.0,0.0,0.0,0.0,0.0,0.024814750999212265,-0.05952896177768707,-0.04922894760966301,0.9965488910675049,0.04485127329826355,0.06762716919183731,0.017477959394454956
273.0,0.0,0.0,0.0,0.0,0.0,0.0,0.025460567325353622,-0.04558362439274788,-0.029466528445482254,0.996599555015564,0.0445280596613884,0.06703729927539825,0.017679253593087196
274.0,0.0,0.0,0.0,0.0,0.0,0.0,0.004395722411572933,-0.034250739961862564,0.010444708168506622,0.9967219233512878,0.04456214979290962,0.06556857377290726,0.016123462468385696
275.0,0.0,0.0,0.0,0.0,0.0,0.0,-0.024557413533329964,-0.007937410846352577,0.03225484490394592,0.9967705011367798,0.04506288096308708,0.06508181244134903,0.013498465530574322
276.0,0.0,0.0,0.0,0.0,0.0,0.0,-7.856503361836076e-05,-0.038757503032684326,0.0366569384932518,0.9967532753944397,0.04583219811320305,0.06511563062667847,0.011916415765881538
277.0,0.0,0.0,0.0,0.0,0.0,0.0,0.023270823061466217,-0.047581471502780914,0.0050567081198096275,0.9967495203018188,0.045103371143341064,0.0656927302479744,0.011878726072609425
278.0,0.0,0.0,0.0,0.0,0.0,0.0,0.0243782140314579,-0.018281809985637665,0.011594977229833603,0.9967509508132935,0.043816495686769485,0.06632412225008011,0.01300513930618763
279.0,0.0,0.0,0.0,0.0,0.0,0.0,0.031172268092632294,-0.009468049742281437,-0.0005033775232732296,0.9967867732048035,0.042704176157712936,0.06641604751348495,0.013484543189406395
280.0,0.0,0.0,0.0,0.0,0.0,0.0,0.02385152131319046,-0.022238245233893394,-0.0015871955547481775,0.9968284964561462,0.04242195561528206,0.06592442095279694,0.013688508421182632
281.0,0.0,0.0,0.0,0.0,0.0,0.0,0.019538557156920433,-0.023909112438559532,0.005150364711880684,0.9969198703765869,0.04289064556360245,0.06438707560300827,0.012850566767156124
282.0,0.0,0.0,0.0,0.0,0.0,0.0,0.020535733550786972,-0.02681444026529789,0.011108442209661007,0.9970336556434631,0.04326716810464859,0.06267562508583069,0.011118706315755844
283.0,0.0,0.0,0.0,0.0,0.0,0.0,0.03519224748015404,-0.034519262611866,-0.0010812199907377362,0.9971784353256226,0.04303831234574318,0.06076860800385475,0.009488962590694427
284.0,0.0,0.0,0.0,0.0,0.0,0.0,0.025043349713087082,-0.03433304652571678,-0.005990067031234503,0.997338056564331,0.041061047464609146,0.05967580899596214,0.00835302285850048
285.0,0.0,0.0,0.0,0.0,0.0,0.0,-0.0017916994402185082,-0.014365023002028465,0.02201552875339985,0.997483491897583,0.03778517618775368,0.05943725258111954,0.008113449439406395
286.0,0.0,0.0,0.0,0.0,0.0,0.0,0.006177192088216543,-0.028446584939956665,0.02025802992284298,0.9975922703742981,0.03368084505200386,0.06006825342774391,0.008189180865883827
287.0,0.0,0.0,0.0,0.0,0.0,0.0,0.02040998451411724,-0.048968710005283356,-0.009994873777031898,0.9977173209190369,0.029520833864808083,0.06026455760002136,0.007559788879007101
288.0,0.0,0.0,0.0,0.0,0.0,0.0,0.005375352688133717,-0.04103676229715347,-0.005165193695574999,0.9978458881378174,0.026650846004486084,0.0597081296145916,0.005319221876561642
289.0,0.0,0.0,0.0,0.0,0.0,0.0,-0.007622255943715572,-0.01606125198304653,0.02625911496579647,0.9979475736618042,0.025158073753118515,0.058809202164411545,0.003036048961803317
290.0,0.0,0.0,0.0,0.0,0.0,0.0,-8.663651533424854e-05,0.0069277542643249035,0.023020882159471512,0.9980074763298035,0.02448440156877041,0.05813899636268616,0.0009974048007279634
291.0,0.0,0.0,0.0,0.0,0.0,0.0,-0.0279922466725111,0.0322016216814518,0.046645376831293106,0.9980363249778748,0.024238761514425278,0.05775938928127289,0.00015176898159552366
292.0,0.0,0.0,0.0,0.0,0.0,0.0,-0.022119058296084404,0.01778598316013813,0.05835690349340439,0.9979795813560486,0.02467888593673706,0.05853399261832237,0.0010891987476497889
293.0,0.0,0.0,0.0,0.0,0.0,0.0,0.005256890784949064,-0.0014751508133485913,0.014768511056900024,0.9979158043861389,0.024857956916093826,0.059514790773391724,0.0019684189464896917
294.0,0.0,0.0,0.0,0.0,0.0,0.0,-0.035304274410009384,0.010312607511878014,0.04751858860254288,0.9978349208831787,0.025554951280355453,0.060547180473804474,0.0025838464498519897
295.0,0.0,0.0,0.0,0.0,0.0,0.0,-0.027042366564273834,0.02289615385234356,0.05063411593437195,0.9977023601531982,0.027699260041117668,0.06169331818819046,0.0040664831176400185
296.0,0.0,0.0,0.0,0.0,0.0,0.0,0.008532310836017132,0.011200654320418835,0.02550019696354866,0.9975917339324951,0.031336020678281784,0.06160419434309006,0.005783147644251585
297.0,0.0,0.0,0.0,0.0,0.0,0.0,0.02156538888812065,-0.025358114391565323,0.011636258102953434,0.9974902272224426,0.03539687395095825,0.060845497995615005,0.0076169236563146114
298.0,0.0,0.0,0.0,0.0,0.0,0.0,0.027298957109451294,-0.06789972633123398,-0.018138090148568153,0.9973793029785156,0.03850378468632698,0.060657620429992676,0.008527991361916065
299.0,0.0,0.0,0.0,0.0,0.0,0.0,0.003685679519549012,-0.03486532345414162,0.01707901433110237,0.9972485303878784,0.04088762402534485,0.06108495965600014,0.009622922167181969
300.0,0.0,0.0,0.0,0.0,0.0,0.0,-0.006279955618083477,-0.03830469027161598,0.029877880588173866,0.9970993995666504,0.04258626699447632,0.06210556626319885,0.011030185036361217
301.0,0.0,0.0,0.0,0.0,0.0,0.0,0.0052904668264091015,-0.05836408957839012,-0.004333759192377329,0.9969700574874878,0.04342003911733627,0.06322728097438812,0.012966562993824482
302.0,0.0,0.0,0.0,0.0,0.0,0.0,0.004850392229855061,-0.03266936540603638,0.005131230223923922,0.9968692660331726,0.04456860572099686,0.06366945058107376,0.014554711990058422
303.0,0.0,0.0,0.0,0.0,0.0,0.0,0.00588504271581769,-0.032731786370277405,0.017530934885144234,0.9967844486236572,0.045990560203790665,0.06376505643129349,0.01547966804355383
304.0,0.0,0.0,0.0,0.0,0.0,0.0,-0.007606664206832647,-0.04758710041642189,0.007824933156371117,0.9966938495635986,0.046529486775398254,0.06472199410200119,0.015729380771517754
305.0,0.0,0.0,0.0,0.0,0.0,0.0,0.006481660529971123,-0.03532707318663597,-0.004136085044592619,0.9966095685958862,0.04675885662436485,0.06579414010047913,0.01592606119811535
306.0,0.0,0.0,0.0,0.0,0.0,0.0,0.03643384948372841,-0.030727127566933632,-0.02602684497833252,0.9965787529945374,0.046715881675481796,0.06634345650672913,0.015723325312137604
307.0,0.0,0.0,0.0,0.0,0.0,0.0,0.03656291216611862,-0.012465269304811954,-0.01263337954878807,0.9965875148773193,0.046260155737400055,0.06662443280220032,0.015299773775041103
308.0,0.0,0.0,0.0,0.0,0.0,0.0,0.03292323276400566,0.010854733176529408,0.008385068736970425,0.9966338276863098,0.04639473557472229,0.06596637517213821,0.014742188155651093
309.0,0.0,0.0,0.0,0.0,0.0,0.0,0.024556312710046768,-0.0054189846850931644,0.0043659512884914875,0.996670663356781,0.047177962958812714,0.06513172388076782,0.013412135653197765
310.0,0.0,0.0,0.0,0.0,0.0,0.0,0.004340613726526499,-0.04080862179398537,-0.0047259703278541565,0.9966870546340942,0.04785643145442009,0.06469228863716125,0.01182216964662075
311.0,0.0,0.0,0.0,0.0,0.0,0.0,0.020484602078795433,-0.05050317943096161,-0.030328160151839256,0.9966685175895691,0.04931091517210007,0.06406735628843307,0.010723168030381203
312.0,0.0,0.0,0.0,0.0,0.0,0.0,0.03415890783071518,-0.03583576902747154,-0.02054428495466709,0.9967145919799805,0.050137441605329514,0.0628611221909523,0.009759735316038132
313.0,0.0,0.0,0.0,0.0,0.0,0.0,0.025797883048653603,-0.03740343451499939,-0.02331461012363434,0.9967858791351318,0.049736388027668,0.062098849564790726,0.009348633699119091
314.0,0.0,0.0,0.0,0.0,0.0,0.0,0.027830805629491806,-0.0026447430718690157,-0.011950104497373104,0.9969101548194885,0.048726800829172134,0.06093013286590576,0.009131569415330887
315.0,0.0,0.0,0.0,0.0,0.0,0.0,0.028384773060679436,0.013664244674146175,0.002987002255395055,0.9970687627792358,0.04665922746062279,0.05996120721101761,0.009027262218296528
316.0,0.0,0.0,0.0,0.0,0.0,0.0,0.04902756214141846,0.002355411881580949,0.031220825389027596,0.9972134232521057,0.045311637222766876,0.05856144055724144,0.009119750931859016
317.0,0.0,0.0,0.0,0.0,0.0,0.0,-0.03879804164171219,0.07358533889055252,0.1648551970720291,0.9973387718200684,0.042454130947589874,0.0585382804274559,0.009262701496481895
318.0,0.0,0.0,0.0,0.0,0.0,0.0,-0.06728766858577728,0.09557484090328217,0.21313679218292236,0.9972626566886902,0.04008672013878822,0.060175202786922455,0.015458381734788418
319.0,0.0,0.0,0.0,0.0,0.0,0.0,-0.07804921269416809,0.04646475985646248,0.08641799539327621,0.9970946311950684,0.035487644374370575,0.061813559383153915,0.026869377121329308
320.0,0.0,0.0,0.0,0.0,0.0,0.0,-0.0374327227473259,-0.06424837559461594,-0.18570765852928162,0.9971385598182678,0.023418428376317024,0.06286600977182388,0.03484326973557472
321.0,0.0,0.0,0.0,0.0,0.0,0.0,0.06981678307056427,-0.034012891352176666,-0.06801343709230423,0.997183084487915,0.014414031058549881,0.06048079580068588,0.04196406900882721
322.0,0.0,0.0,0.0,0.0,0.0,0.0,0.04730729013681412,-0.044798001646995544,-0.07036533206701279,0.9971359372138977,0.011967560276389122,0.0588197186589241,0.04601643234491348
323.0,0.0,0.0,0.0,0.0,0.0,0.0,0.05143433436751366,-0.15739896893501282,-0.16952680051326752,0.9971744418144226,0.017900587990880013,0.05570025369524956,0.047114297747612
324.0,0.0,0.0,0.0,0.0,0.0,0.0,0.07348082214593887,-0.16977310180664062,-0.19997167587280273,0.9971142411231995,0.035231538116931915,0.05101735144853592,0.043805304914712906
325.0,0.0,0.0,0.0,0.0,0.0,0.0,-0.05117812007665634,-0.05753561481833458,-0.12632586061954498,0.9967814087867737,0.05345303937792778,0.05176641047000885,0.029827751219272614
326.0,0.0,0.0,0.0,0.0,0.0,0.0,-0.07429725676774979,0.10915003716945648,0.1308281421661377,0.9967831969261169,0.06073953956365585,0.05009578540921211,0.014967475086450577
327.0,0.0,0.0,0.0,0.0,0.0,0.0,-0.08916251361370087,0.20091988146305084,0.2120722234249115,0.9969035983085632,0.06252822279930115,0.04753891006112099,0.003739695530384779
328.0,0.0,0.0,0.0,0.0,0.0,0.0,0.0010878188768401742,0.07628149539232254,0.1294194459915161,0.9967091083526611,0.06562405824661255,0.047559112310409546,-0.001726973452605307
329.0,0.0,0.0,0.0,0.0,0.0,0.0,-0.04573171213269234,0.14538221061229706,0.27915453910827637,0.9966344237327576,0.06474800407886505,0.04996775463223457,0.0055455551482737064
330.0,0.0,0.0,0.0,0.0,0.0,0.0,-0.08764658868312836,0.15237991511821747,0.20801372826099396,0.9963051080703735,0.06166742742061615,0.05689948797225952,0.018316181376576424
331.0,0.0,0.0,0.0,0.0,0.0,0.0,0.029868233948946,-0.023685434833168983,-0.08299332112073898,0.9962288737297058,0.0541423074901104,0.06168309971690178,0.028142346069216728
332.0,0.0,0.0,0.0,0.0,0.0,0.0,0.10388028621673584,-0.1849597990512848,-0.18889327347278595,0.9965591430664062,0.0439319983124733,0.060668930411338806,0.0354851670563221
333.0,0.0,0.0,0.0,0.0,0.0,0.0,0.05622480809688568,-0.09244222939014435,-0.08602716773748398,0.9967391490936279,0.038294028490781784,0.058259811252355576,0.040627237409353256
334.0,0.0,0.0,0.0,0.0,0.0,0.0,0.02072318084537983,-0.047674715518951416,-0.08267568051815033,0.9968661665916443,0.03571845963597298,0.05674884840846062,0.04197143018245697
335.0,0.0,0.0,0.0,0.0,0.0,0.0,0.02851049229502678,-0.09082987904548645,-0.11888012290000916,0.9969737529754639,0.03768462315201759,0.054770201444625854,0.04028153046965599
336.0,0.0,0.0,0.0,0.0,0.0,0.0,0.03344370052218437,-0.08024037629365921,-0.10692758858203888,0.9969512224197388,0.04474794119596481,0.05378466099500656,0.03454488515853882
337.0,0.0,0.0,0.0,0.0,0.0,0.0,0.013031848706305027,-0.043333783745765686,-0.055329330265522,0.9969843029975891,0.049106184393167496,0.054477982223033905,0.025362208485603333
338.0,0.0,0.0,0.0,0.0,0.0,0.0,0.03394515812397003,-0.004624227061867714,0.05658986419439316,0.9973757266998291,0.04713168740272522,0.05217995494604111,0.017241360619664192
339.0,0.0,0.0,0.0,0.0,0.0,0.0,-0.04155774414539337,0.041174303740262985,0.015602010302245617,0.9977466464042664,0.04292871803045273,0.05053465813398361,0.010251887142658234
340.0,0.0,0.0,0.0,0.0,0.0,0.0,0.0643346905708313,0.022061236202716827,0.049364760518074036,0.9978834390640259,0.042138636112213135,0.04901862516999245,0.007078129798173904
341.0,0.0,0.0,0.0,0.0,0.0,0.0,0.1259802281856537,0.07894296199083328,-0.017861636355519295,0.9979918003082275,0.04342926666140556,0.045994192361831665,0.003232452319934964
342.0,0.0,0.0,0.0,0.0,0.0,0.0,-0.021574752405285835,0.14032195508480072,0.1542891412973404,0.9979768395423889,0.04400816559791565,0.04583887383341789,-0.00200250674970448
343.0,0.0,0.0,0.0,0.0,0.0,0.0,-0.03256873041391373,0.14090514183044434,0.1907726526260376,0.9977052211761475,0.04460154101252556,0.05075690150260925,-0.004285252653062344
344.0,0.0,0.0,0.0,0.0,0.0,0.0,-0.010789538733661175,0.050273459404706955,0.08280069380998611,0.9972243905067444,0.047047317028045654,0.057418759912252426,-0.0057328129187226295
345.0,0.0,0.0,0.0,0.0,0.0,0.0,-0.028136152774095535,-0.09363541007041931,-0.04444080591201782,0.996782660484314,0.050549689680337906,0.061752475798130035,-0.007416470907628536
346.0,0.0,0.0,0.0,0.0,0.0,0.0,-0.021610580384731293,-0.07350434362888336,-0.014791657216846943,0.9964126944541931,0.05562413111329079,0.06296859681606293,-0.010140636004507542
347.0,0.0,0.0,0.0,0.0,0.0,0.0,-0.031563688069581985,-0.049460701644420624,0.015798227861523628,0.9960032105445862,0.06095113232731819,0.06383717060089111,-0.013668582774698734
348.0,0.0,0.0,0.0,0.0,0.0,0.0,0.002159158233553171,-0.09336596727371216,-0.0008419270161539316,0.9956278800964355,0.06633271276950836,0.06347004324197769,-0.01720253750681877
349.0,0.0,0.0,0.0,0.0,0.0,0.0,0.004731137305498123,-0.050771817564964294,0.019578564912080765,0.9952432513237,0.07139363139867783,0.06354521960020065,-0.01887819543480873
350.0,0.0,0.0,0.0,0.0,0.0,0.0,-0.012292505241930485,-0.05160044506192207,0.012450863607227802,0.9950414299964905,0.07287060469388962,0.06492795795202255,-0.019158964976668358
351.0,0.0,0.0,0.0,0.0,0.0,0.0,0.0002950530615635216,-0.07103104889392853,0.0231179129332304,0.9949687719345093,0.07222019881010056,0.06692947447299957,-0.01850239373743534
352.0,0.0,0.0,0.0,0.0,0.0,0.0,-0.008923672139644623,-0.051254983991384506,0.013008560054004192,0.9949535727500916,0.07044606655836105,0.06942372769117355,-0.0168958380818367
353.0,0.0,0.0,0.0,0.0,0.0,0.0,-0.008698788471519947,-0.04395056888461113,0.006543011870235205,0.9949631094932556,0.06784205883741379,0.07223784178495407,-0.015097491443157196
354.0,0.0,0.0,0.0,0.0,0.0,0.0,-0.01661469042301178,-0.038172755390405655,-0.022215206176042557,0.9951319694519043,0.06323800981044769,0.07441861182451248,-0.013214641250669956
355.0,0.0,0.0,0.0,0.0,0.0,0.0,-0.031049728393554688,-0.07076365500688553,-0.03732074797153473,0.9953749775886536,0.05716220661997795,0.0764748603105545,-0.010617714375257492
356.0,0.0,0.0,0.0,0.0,0.0,0.0,0.03813290223479271,-0.03243214264512062,-0.018880175426602364,0.9957181215286255,0.05107712745666504,0.07686161249876022,-0.005324386525899172
357.0,0.0,0.0,0.0,0.0,0.0,0.0,0.06854791939258575,-0.02304694429039955,0.0029862765222787857,0.9959815740585327,0.04665176942944527,0.07642915099859238,-0.001523515791632235
358.0,0.0,0.0,0.0,0.0,0.0,0.0,0.06701908260583878,-0.10926862806081772,-0.038815997540950775,0.9963403344154358,0.03988560661673546,0.07559642195701599,0.00064045749604702
359.0,0.0,0.0,0.0,0.0,0.0,0.0,0.10695363581180573,-0.0035774705465883017,0.0473308339715004,0.9966021180152893,0.036324240267276764,0.07388336211442947,0.0023921027313917875
360.0,0.0,0.0,0.0,0.0,0.0,0.0,0.03502403944730759,0.0046045067720115185,0.07416367530822754,0.9967171549797058,0.03444371372461319,0.0732559859752655,0.0013923065271228552
361.0,0.0,0.0,0.0,0.0,0.0,0.0,0.017800280824303627,0.002128537744283676,-0.00703762611374259,0.9967907071113586,0.0337141677737236,0.07260345667600632,-0.00025418022414669394
362.0,0.0,0.0,0.0,0.0,0.0,0.0,0.02368013747036457,0.0025869610253721476,0.019728023558855057,0.9968823194503784,0.034958261996507645,0.07068883627653122,-0.0024709661956876516
363.0,0.0,0.0,0.0,0.0,0.0,0.0,-0.017623594030737877,0.03919678181409836,0.08119543641805649,0.9968226552009583,0.03961845487356186,0.06888826191425323,-0.005403979681432247
364.0,0.0,0.0,0.0,0.0,0.0,0.0,-0.028416873887181282,-0.013853113166987896,0.015266814269125462,0.9966259598731995,0.044167011976242065,0.06865715235471725,-0.008503146469593048
365.0,0.0,0.0,0.0,0.0,0.0,0.0,0.01182413101196289,-0.027096310630440712,0.012568406760692596,0.9964779615402222,0.04795566946268082,0.06800633668899536,-0.010325180366635323
366.0,0.0,0.0,0.0,0.0,0.0,0.0,0.03312272951006889,-0.009581315331161022,0.008460708893835545,0.9962916970252991,0.05247154459357262,0.06722663342952728,-0.01141609437763691
367.0,0.0,0.0,0.0,0.0,0.0,0.0,0.026564637199044228,-0.06510122865438461,-0.011418668553233147,0.996147632598877,0.05542169511318207,0.06675686687231064,-0.012713784351944923
368.0,0.0,0.0,0.0,0.0,0.0,0.0,0.012531827203929424,-0.07191578298807144,-0.007568107917904854,0.9960482120513916,0.05760469660162926,0.06600584089756012,-0.014575176872313023
369.0,0.0,0.0,0.0,0.0,0.0,0.0,0.03062189184129238,-0.06864587962627411,-0.027706049382686615,0.9959882497787476,0.059043481945991516,0.06500459462404251,-0.017174044623970985
370.0,0.0,0.0,0.0,0.0,0.0,0.0,0.0305081307888031,-0.037637218832969666,0.013399260118603706,0.995877742767334,0.06175842881202698,0.06343186646699905,-0.01974795199930668
371.0,0.0,0.0,0.0,0.0,0.0,0.0,0.005733647383749485,-0.008040165528655052,0.024086080491542816,0.9956688284873962,0.06513704359531403,0.06242583319544792,-0.022436976432800293
372.0,0.0,0.0,0.0,0.0,0.0,0.0,-0.007918983697891235,-0.07094138860702515,-0.00016019379836507142,0.9954653382301331,0.06694196164608002,0.0628301203250885,-0.024885164573788643
373.0,0.0,0.0,0.0,0.0,0.0,0.0,-0.02001226879656315,-0.04827621579170227,0.026310566812753677,0.9952315092086792,0.06864675879478455,0.063721664249897,-0.027233971282839775
374.0,0.0,0.0,0.0,0.0,0.0,0.0,-0.040654439479112625,-0.037765245884656906,0.02920624241232872,0.9949630498886108,0.0697820782661438,0.06606852263212204,-0.028527019545435905
375.0,0.0,0.0,0.0,0.0,0.0,0.0,-0.03435022756457329,-0.051743946969509125,-0.003747127251699567,0.9946346879005432,0.0716831386089325,0.06880652904510498,-0.028800778090953827
376.0,0.0,0.0,0.0,0.0,0.0,0.0,-0.07619086652994156,-0.026767248287796974,-0.013116743415594101,0.9942329525947571,0.07363316416740417,0.07262077927589417,-0.028372960165143013
377.0,0.0,0.0,0.0,0.0,0.0,0.0,-0.07843262702226639,-0.019096294417977333,-0.0031164519023150206,0.9941296577453613,0.0720537081360817,0.07642683386802673,-0.025953151285648346
378.0,0.0,0.0,0.0,0.0,0.0,0.0,0.015028852969408035,-0.02251787669956684,0.02468954771757126,0.9944085478782654,0.06857089698314667,0.07751540094614029,-0.021015118807554245
379.0,0.0,0.0,0.0,0.0,0.0,0.0,0.05178536847233772,0.014797614887356758,0.06348130106925964,0.9947848320007324,0.06454700231552124,0.0771385058760643,-0.016931986436247826
380.0,0.0,0.0,0.0,0.0,0.0,0.0,0.04913634434342384,0.003191772848367691,0.04019419103860855,0.9950727224349976,0.06220356374979019,0.0760345533490181,-0.013398634269833565
381.0,0.0,0.0,0.0,0.0,0.0,0.0,0.04181600734591484,-0.014040404930710793,0.051486194133758545,0.9952173829078674,0.06127526983618736,0.07533837109804153,-0.010590676218271255
382.0,0.0,0.0,0.0,0.0,0.0,0.0,0.03860171511769295,-0.02738696150481701,0.07669838517904282,0.9951611161231995,0.06143936142325401,0.07625268399715424,-0.008057689294219017
383.0,0.0,0.0,0.0,0.0,0.0,0.0,0.05554996058344841,-0.02363153174519539,0.03233441710472107,0.9950080513954163,0.06442829221487045,0.07608668506145477,-0.004354789853096008
384.0,0.0,0.0,0.0,0.0,0.0,0.0,0.049608465284109116,-0.06895110011100769,0.020411845296621323,0.9948740601539612,0.06668643653392792,0.07598445564508438,-0.002270234515890479
385.0,0.0,0.0,0.0,0.0,0.0,0.0,0.03498327359557152,-0.006812459323555231,-0.01244296319782734,0.9948078393936157,0.06779901683330536,0.07589572668075562,-0.0011089947074651718
386.0,0.0,0.0,0.0,0.0,0.0,0.0,0.11094287037849426,-0.0746568962931633,-0.05123770982027054,0.9948253631591797,0.06900347769260406,0.07456227391958237,0.0009661349467933178
387.0,0.0,0.0,0.0,0.0,0.0,0.0,0.1114489808678627,-0.11970089375972748,-0.06710734963417053,0.9949803948402405,0.06807424128055573,0.07333852350711823,0.001130924909375608
388.0,0.0,0.0,0.0,0.0,0.0,0.0,0.10576415061950684,-0.11915982514619827,-0.08272300660610199,0.9953065514564514,0.06455261260271072,0.07209357619285583,0.0003121390182059258
389.0,0.0,0.0,0.0,0.0,0.0,0.0,0.0569860115647316,-0.061566829681396484,-0.021010147407650948,0.9957247972488403,0.059881541877985,0.07030780613422394,-0.0018362434348091483
390.0,0.0,0.0,0.0,0.0,0.0,0.0,-0.01104174554347992,0.005152367986738682,0.0644821971654892,0.9960228800773621,0.056205231696367264,0.06899800151586533,-0.004388812929391861
391.0,0.0,0.0,0.0,0.0,0.0,0.0,-0.030110184103250504,-0.017101239413022995,0.07090447843074799,0.9961321949958801,0.054044172167778015,0.06896278262138367,-0.006631704978644848
392.0,0.0,0.0,0.0,0.0,0.0,0.0,-0.026091165840625763,-0.04278741776943207,0.0010893261060118675,0.9962255954742432,0.05085369572043419,0.06986020505428314,-0.008228751830756664
393.0,0.0,0.0,0.0,0.0,0.0,0.0,0.033671360462903976,-0.07163985073566437,-0.0391070581972599,0.9964430332183838,0.04626256600022316,0.06978403776884079,-0.009538059122860432
394.0,0.0,0.0,0.0,0.0,0.0,0.0,0.05671699345111847,-0.12801414728164673,-0.06702612340450287,0.9967547655105591,0.03879740089178085,0.0695488303899765,-0.011727612465620041
395.0,0.0,0.0,0.0,0.0,0.0,0.0,0.03317701816558838,-0.04071108624339104,-0.03660592436790466,0.9970591068267822,0.03077283315360546,0.06860142946243286,-0.014828462153673172
396.0,0.0,0.0,0.0,0.0,0.0,0.0,-0.012683611363172531,0.0902443453669548,0.04932691156864166,0.9972050786018372,0.025369372218847275,0.06797993183135986,-0.01780582405626774
397.0,0.0,0.0,0.0,0.0,0.0,0.0,0.04577616974711418,0.019270585849881172,-0.027576806023716927,0.9973160028457642,0.02217131294310093,0.06679876148700714,-0.020178385078907013
398.0,0.0,0.0,0.0,0.0,0.0,0.0,0.0729338675737381,-0.027377083897590637,-0.08485157787799835,0.9974284172058105,0.01910165511071682,0.06525511294603348,-0.022662706673145294
399.0,0.0,0.0,0.0,0.0,0.0,0.0,0.0644143596291542,-0.0694444552063942,-0.11995785683393478,0.9975711107254028,0.015616413205862045,0.06272920966148376,-0.02594359777867794
400.0,0.0,0.0,0.0,0.0,0.0,0.0,0.029551198706030846,-0.0774129256606102,-0.020724672824144363,0.9976494908332825,0.011062201112508774,0.060643184930086136,-0.02992316707968712
401.0,0.0,0.0,0.0,0.0,0.0,0.0,-0.01423608884215355,0.03638608381152153,0.08161371946334839,0.9975565671920776,0.005500254686921835,0.06023183837532997,-0.03496712073683739
402.0,0.0,0.0,0.0,0.0,0.0,0.0,-0.13554711639881134,0.2277345061302185,0.22139815986156464,0.9974112510681152,0.0014764227671548724,0.06046295911073685,-0.03889567404985428
403.0,0.0,0.0,0.0,0.0,0.0,0.0,-0.1701829880475998,0.28682777285575867,0.26079145073890686,0.9973573088645935,0.002160490257665515,0.061913732439279556,-0.037952110171318054
404.0,0.0,0.0,0.0,0.0,0.0,0.0,-0.11549346148967743,0.21789492666721344,0.168958380818367,0.997247576713562,0.0044299219734966755,0.06495559960603714,-0.03547463193535805
405.0,0.0,0.0,0.0,0.0,0.0,0.0,-0.05038943141698837,0.14176084101200104,0.14839771389961243,0.9971808195114136,0.0079214908182621,0.06805611401796341,-0.03059437684714794
406.0,0.0,0.0,0.0,0.0,0.0,0.0,0.025795411318540573,0.05001690983772278,0.10293319821357727,0.997239351272583,0.013469265773892403,0.06918664276599884,-0.023358438163995743
407.0,0.0,0.0,0.0,0.0,0.0,0.0,0.05138222128152847,-0.0260159894824028,0.09526121616363525,0.9971440434455872,0.018452877178788185,0.0716186910867691,-0.015285723842680454
408.0,0.0,0.0,0.0,0.0,0.0,0.0,0.19498802721500397,-0.12825389206409454,-0.032530371099710464,0.9971511363983154,0.024697553366422653,0.07102034240961075,-0.006031624972820282
409.0,0.0,0.0,0.0,0.0,0.0,0.0,0.17200523614883423,-0.19365470111370087,-0.11942219734191895,0.9972124099731445,0.028104303404688835,0.06911205500364304,0.0010772653622552752
410.0,0.0,0.0,0.0,0.0,0.0,0.0,0.12003298848867416,-0.15802201628684998,-0.13994789123535156,0.9972043633460999,0.028962191194295883,0.06860820949077606,0.00613586837425828
411.0,0.0,0.0,0.0,0.0,0.0,0.0,0.0888952687382698,-0.06846772879362106,-0.08938021957874298,0.997237503528595,0.028246302157640457,0.06789636611938477,0.010475440882146358
412.0,0.0,0.0,0.0,0.0,0.0,0.0,0.048985112458467484,-0.0292311143130064,-0.01633436605334282,0.9971729516983032,0.026211876422166824,0.06895162910223007,0.014316309243440628
413.0,0.0,0.0,0.0,0.0,0.0,0.0,0.0653204470872879,-0.041811563074588776,-0.06332898885011673,0.9970536828041077,0.023849964141845703,0.07088018208742142,0.017077336087822914
414.0,0.0,0.0,0.0,0.0,0.0,0.0,0.057954974472522736,-0.02137364074587822,-0.07893127202987671,0.9970995783805847,0.02202046662569046,0.07056836783885956,0.018101520836353302
415.0,0.0,0.0,0.0,0.0,0.0,0.0,-0.004179663490504026,0.007626457139849663,0.009362845681607723,0.9972701072692871,0.02208745665848255,0.06852786242961884,0.016375543549656868
416.0,0.0,0.0,0.0,0.0,0.0,0.0,-0.02281169220805168,0.006513467524200678,0.0417548306286335,0.9973765015602112,0.022896425798535347,0.06722239404916763,0.014029527083039284
417.0,0.0,0.0,0.0,0.0,0.0,0.0,-0.004247413948178291,0.0032563237473368645,0.020750587806105614,0.9974864721298218,0.023655056953430176,0.0656481385231018,0.012307971715927124
418.0,0.0,0.0,0.0,0.0,0.0,0.0,-0.033479392528533936,0.006228836718946695,0.019678790122270584,0.9975080490112305,0.023164479061961174,0.06568300724029541,0.011256828904151917
419.0,0.0,0.0,0.0,0.0,0.0,0.0,-0.030509458854794502,0.0312831848859787,0.023576626554131508,0.9974057078361511,0.022304654121398926,0.06727919727563858,0.012552225030958652
420.0,0.0,0.0,0.0,0.0,0.0,0.0,-0.005255226977169514,0.013272695243358612,0.01959243044257164,0.9972710013389587,0.021813414990901947,0.0688466802239418,0.015319839119911194
421.0,0.0,0.0,0.0,0.0,0.0,0.0,-0.0017436648486182094,0.0021444878075271845,0.013083936646580696,0.9971805214881897,0.02223925106227398,0.06947468966245651,0.01759669929742813
422.0,0.0,0.0,0.0,0.0,0.0,0.0,-0.0068115657195448875,-0.006120910402387381,0.009552829898893833,0.9971172213554382,0.023566409945487976,0.06972603499889374,0.01842842623591423
423.0,0.0,0.0,0.0,0.0,0.0,0.0,0.009062804281711578,-0.02603689581155777,-0.001947737648151815,0.9970771074295044,0.025199029594659805,0.06963752955198288,0.018773382529616356
424.0,0.0,0.0,0.0,0.0,0.0,0.0,0.05677304416894913,-0.025697385892271996,-0.02106432057917118,0.9971016049385071,0.0262257419526577,0.06875932961702347,0.01930759847164154
425.0,0.0,0.0,0.0,0.0,0.0,0.0,0.043476227670907974,-0.028019975870847702,-0.039040591567754745,0.9971875548362732,0.025266209617257118,0.06768550723791122,0.019924288615584373
426.0,0.0,0.0,0.0,0.0,0.0,0.0,0.018978247418999672,-0.07197592407464981,-0.0030547110363841057,0.9971852898597717,0.022431256249547005,0.06852638721466064,0.020554540678858757
427.0,0.0,0.0,0.0,0.0,0.0,0.0,0.09284304082393646,-0.07644688338041306,-0.08976870775222778,0.9972807168960571,0.01888742297887802,0.06835054606199265,0.020077934488654137
428.0,0.0,0.0,0.0,0.0,0.0,0.0,-0.0731278508901596,0.048133496195077896,0.06843096017837524,0.9973393678665161,0.015570897608995438,0.0688360184431076,0.01826922595500946
429.0,0.0,0.0,0.0,0.0,0.0,0.0,-0.07626861333847046,0.08596561849117279,0.11406072229146957,0.9972779154777527,0.015091844834387302,0.06994685530662537,0.017784174531698227
430.0,0.0,0.0,0.0,0.0,0.0,0.0,0.009559632278978825,0.02164192870259285,0.011753627099096775,0.9972455501556396,0.01651889644563198,0.07005114108324051,0.017924273386597633
431.0,0.0,0.0,0.0,0.0,0.0,0.0,-0.01687903143465519,-2.5851191821857356e-05,0.020762214437127113,0.9971972703933716,0.01734461449086666,0.07057085633277893,0.017790978774428368
432.0,0.0,0.0,0.0,0.0,0.0,0.0,-0.0038233448285609484,0.011365202255547047,0.02954396791756153,0.9970237612724304,0.018067264929413795,0.07235660403966904,0.01953650638461113
433.0,0.0,0.0,0.0,0.0,0.0,0.0,0.023986855521798134,-0.010461126454174519,-0.0041996752843260765,0.9968751072883606,0.01794346049427986,0.0738150030374527,0.021668270230293274
434.0,0.0,0.0,0.0,0.0,0.0,0.0,0.047750961035490036,-0.021050522103905678,-0.020614471286535263,0.9967728853225708,0.01676091179251671,0.07502066344022751,0.02311352640390396
435.0,0.0,0.0,0.0,0.0,0.0,0.0,0.06987721472978592,-0.02721248008310795,-0.049041204154491425,0.9967650771141052,0.015670113265514374,0.07511928677558899,0.023895176127552986
436.0,0.0,0.0,0.0,0.0,0.0,0.0,0.06332793086767197,-0.027591051533818245,-0.056821003556251526,0.9969176650047302,0.014732866548001766,0.07336048036813736,0.023593628779053688
437.0,0.0,0.0,0.0,0.0,0.0,0.0,0.08999864757061005,-0.055370084941387177,-0.07117539644241333,0.997175931930542,0.013716412708163261,0.07039134204387665,0.022292645648121834
438.0,0.0,0.0,0.0,0.0,0.0,0.0,0.23845601081848145,-0.19868725538253784,-0.2594861090183258,0.9977759718894958,0.01011044904589653,0.06346527487039566,0.017682965844869614
439.0,0.0,0.0,0.0,0.0,0.0,0.0,0.1371588110923767,-0.22373756766319275,-0.24046611785888672,0.998313307762146,0.0007130774320103228,0.05761174112558365,0.007121244911104441
440.0,0.0,0.0,0.0,0.0,0.0,0.0,-0.02403533086180687,-0.028494631871581078,0.02986689656972885,0.9984558820724487,-0.010219017043709755,0.0545058473944664,-0.0032183495350182056
441.0,0.0,0.0,0.0,0.0,0.0,0.0,-0.04321980103850365,0.10305420309305191,0.10550954937934875,0.9983513355255127,-0.019619900733232498,0.0525660440325737,-0.012099050916731358
442.0,0.0,0.0,0.0,0.0,0.0,0.0,-0.11915323883295059,0.15157820284366608,0.16125036776065826,0.9980790615081787,-0.02697105146944523,0.052478622645139694,-0.01888996921479702
443.0,0.0,0.0,0.0,0.0,0.0,0.0,-0.13510549068450928,0.1886417120695114,0.1729639321565628,0.9978722929954529,-0.030472934246063232,0.05303486809134483,-0.022577447816729546
444.0,0.0,0.0,0.0,0.0,0.0,0.0,-0.1437050998210907,0.19425982236862183,0.17357653379440308,0.9976998567581177,-0.031436312943696976,0.054832156747579575,-0.02449135109782219
445.0,0.0,0.0,0.0,0.0,0.0,0.0,-0.05911128968000412,0.10439164191484451,0.11751413345336914,0.9977062344551086,-0.028428757563233376,0.05625912919640541,-0.02467331662774086
446.0,0.0,0.0,0.0,0.0,0.0,0.0,-0.01222163811326027,0.05669723451137543,0.05574988201260567,0.9978404641151428,-0.023352162912487984,0.056520164012908936,-0.023961186408996582
447.0,0.0,0.0,0.0,0.0,0.0,0.0,-0.07756093144416809,0.12703239917755127,0.13712914288043976,0.997954785823822,-0.017407873645424843,0.057351551949977875,-0.022229023277759552
448.0,0.0,0.0,0.0,0.0,0.0,0.0,-0.045244909822940826,0.08338812738656998,0.16546902060508728,0.9980799555778503,-0.009853264316916466,0.05854763090610504,-0.017653953284025192
449.0,0.0,0.0,0.0,0.0,0.0,0.0,0.08034136146306992,-0.05167628824710846,0.038650352507829666,0.9981507062911987,-0.0026273741386830807,0.059628184884786606,-0.011523263528943062
450.0,0.0,0.0,0.0,0.0,0.0,0.0,0.07661379873752594,-0.02275002934038639,0.04607027769088745,0.9981962442398071,0.0038815371226519346,0.05974337086081505,-0.0044867596589028835
451.0,0.0,0.0,0.0,0.0,0.0,0.0,0.10684940218925476,-0.07972432672977448,-0.02541690319776535,0.9982290267944336,0.01007587555795908,0.05859785154461861,0.0018507603090256453
452.0,0.0,0.0,0.0,0.0,0.0,0.0,0.05898810178041458,-0.0917130708694458,-0.0028210552409291267,0.998131513595581,0.014538206160068512,0.05901641398668289,0.0062830690294504166
453.0,0.0,0.0,0.0,0.0,0.0,0.0,0.0406811349093914,-0.0631335899233818,-0.02179795131087303,0.9979727864265442,0.021769069135189056,0.05882394686341286,0.010786064900457859
454.0,0.0,0.0,0.0,0.0,0.0,0.0,0.06108325347304344,-0.09420599043369293,-0.07741717994213104,0.9977179169654846,0.030713552609086037,0.058884475380182266,0.01216953806579113
455.0,0.0,0.0,0.0,0.0,0.0,0.0,-0.0044211228378117085,-0.06257237493991852,-0.01739979349076748,0.9972951412200928,0.04135815054178238,0.059864141047000885,0.01041632704436779
456.0,0.0,0.0,0.0,0.0,0.0,0.0,-0.00017642077000346035,-0.09806162863969803,-0.036674048751592636,0.9968338012695312,0.05127648636698723,0.0602593794465065,0.00786607339978218
457.0,0.0,0.0,0.0,0.0,0.0,0.0,0.036381639540195465,-0.11088112741708755,-0.07098186016082764,0.9964359998703003,0.059213776141405106,0.059957105666399,0.003735749749466777
458.0,0.0,0.0,0.0,0.0,0.0,0.0,0.010982553474605083,-0.09442303329706192,-0.02266736328601837,0.9959669709205627,0.06710540503263474,0.059550393372774124,-0.0008952776552177966
459.0,0.0,0.0,0.0,0.0,0.0,0.0,-0.016691412776708603,-0.04654901102185249,-0.009714893996715546,0.99542236328125,0.07388053089380264,0.060283467173576355,-0.0064260829240083694
460.0,0.0,0.0,0.0,0.0,0.0,0.0,-0.06427904218435287,-0.02982402965426445,-0.009395756758749485,0.9948275685310364,0.07913880795240402,0.06266380101442337,-0.01132437214255333
461.0,0.0,0.0,0.0,0.0,0.0,0.0,-0.0701473131775856,-0.014767710119485855,0.02060486190021038,0.994296669960022,0.08368809521198273,0.0644848570227623,-0.014520918019115925
462.0,0.0,0.0,0.0,0.0,0.0,0.0,-0.019182583317160606,-0.05581488832831383,0.005580335855484009,0.9937609434127808,0.08842158317565918,0.06581056863069534,-0.017041921615600586
463.0,0.0,0.0,0.0,0.0,0.0,0.0,-0.035575177520513535,-0.0629248097538948,0.017200037837028503,0.9932470917701721,0.09247365593910217,0.0669913962483406,-0.020497074350714684
464.0,0.0,0.0,0.0,0.0,0.0,0.0,-0.02715115062892437,-0.03897497430443764,0.019936827942728996,0.9928356409072876,0.09548240154981613,0.06777597963809967,-0.023810559883713722
465.0,0.0,0.0,0.0,0.0,0.0,0.0,-0.04337066039443016,-0.03406853973865509,0.02466716431081295,0.9925188422203064,0.09734632819890976,0.06860820949077606,-0.026889177039265633
466.0,0.0,0.0,0.0,0.0,0.0,0.0,-0.026492364704608917,-0.0407165065407753,0.021871652454137802,0.9921201467514038,0.09975884109735489,0.06994038820266724,-0.029226290062069893
467.0,0.0,0.0,0.0,0.0,0.0,0.0,-0.03415839374065399,-0.06166834011673927,0.021836793050169945,0.9917297959327698,0.10166279226541519,0.0716421827673912,-0.03166676685214043
468.0,0.0,0.0,0.0,0.0,0.0,0.0,-0.057903364300727844,-0.029329538345336914,0.010387464426457882,0.9915056228637695,0.10170451551675797,0.0736154094338417,-0.03395359218120575
469.0,0.0,0.0,0.0,0.0,0.0,0.0,-0.04287652298808098,-0.0255679152905941,-0.01536980178207159,0.9914006590843201,0.1010536402463913,0.07508804649114609,-0.03569773957133293
470.0,0.0,0.0,0.0,0.0,0.0,0.0,-0.03269005939364433,-0.034344498068094254,-0.012537332251667976,0.9913021922111511,0.10060153156518936,0.07625918090343475,-0.03717755898833275
471.0,0.0,0.0,0.0,0.0,0.0,0.0,-0.04231656715273857,-0.023934824392199516,0.036159150302410126,0.9911388158798218,0.10045664012432098,0.07801243662834167,-0.038290057331323624
472.0,0.0,0.0,0.0,0.0,0.0,0.0,-0.039835650473833084,-0.06023852154612541,0.014343376271426678,0.9909253716468811,0.09995957463979721,0.0811600461602211,-0.038563501089811325
473.0,0.0,0.0,0.0,0.0,0.0,0.0,-0.02853182889521122,-0.0686771422624588,0.007421303540468216,0.9907747507095337,0.0989212915301323,0.08496648073196411,-0.03689008951187134
474.0,0.0,0.0,0.0,0.0,0.0,0.0,-0.011537040583789349,-0.08219213783740997,-0.02778494730591774,0.9906448721885681,0.09783399105072021,0.08902949094772339,-0.03355696424841881
475.0,0.0,0.0,0.0,0.0,0.0,0.0,-0.04280691221356392,-0.10413158684968948,-0.07296349108219147,0.9907222986221313,0.09333454817533493,0.09379827976226807,-0.031002454459667206
476.0,0.0,0.0,0.0,0.0,0.0,0.0,-0.026333127170801163,-0.07177267223596573,-0.012673130258917809,0.9911988377571106,0.08681883662939072,0.09602584689855576,-0.027666838839650154
477.0,0.0,0.0,0.0,0.0,0.0,0.0,0.01270173117518425,-0.02796149253845215,0.07530912756919861,0.991877019405365,0.08125033229589462,0.09507647156715393,-0.02320101112127304
478.0,0.0,0.0,0.0,0.0,0.0,0.0,0.134338840842247,-0.03607013076543808,0.0587124340236187,0.9922890067100525,0.08101268112659454,0.09169504791498184,-0.0197648573666811
479.0,0.0,0.0,0.0,0.0,0.0,0.0,0.04718787595629692,-0.03463878482580185,0.058100830763578415,0.9923349022865295,0.0829041376709938,0.08967667818069458,-0.01886662095785141
480.0,0.0,0.0,0.0,0.0,0.0,0.0,0.053155966103076935,-0.0775173008441925,0.003304865211248398,0.992386519908905,0.08293402940034866,0.0893416553735733,-0.01757730543613434
481.0,0.0,0.0,0.0,0.0,0.0,0.0,0.12796293199062347,-0.05651706084609032,-0.0016798648284748197,0.99266117811203,0.08282233774662018,0.0867919847369194,-0.015208860859274864
482.0,0.0,0.0,0.0,0.0,0.0,0.0,0.06533832848072052,0.012688210234045982,0.05460536107420921,0.9935396313667297,0.07658083736896515,0.08305096626281738,-0.010814070701599121
483.0,0.0,0.0,0.0,0.0,0.0,0.0,0.037768710404634476,0.05663994699716568,0.07395237684249878,0.9947570562362671,0.06442826986312866,0.0793866515159607,-0.002257466781884432
484.0,0.0,0.0,0.0,0.0,0.0,0.0,0.013962792232632637,0.040637221187353134,0.01244602631777525,0.9960330724716187,0.04625093191862106,0.07546336203813553,0.009182272478938103
485.0,0.0,0.0,0.0,0.0,0.0,0.0,-0.14467063546180725,0.19696012139320374,0.15842825174331665,0.9969567060470581,0.02659999579191208,0.06950795650482178,0.023202845826745033
486.0,0.0,0.0,0.0,0.0,0.0,0.0,-0.07907944172620773,0.191020667552948,0.05871627852320671,0.9972853064537048,0.010451620444655418,0.06242724508047104,0.03763490915298462
487.0,0.0,0.0,0.0,0.0,0.0,0.0,0.036136314272880554,0.0045003583654761314,-0.15430420637130737,0.9973926544189453,-0.0031020024325698614,0.055772215127944946,0.04568876326084137
488.0,0.0,0.0,0.0,0.0,0.0,0.0,0.015895575284957886,0.05783110111951828,-0.09674360603094101,0.9974809885025024,-0.010451722890138626,0.04973936080932617,0.04947936534881592
489.0,0.0,0.0,0.0,0.0,0.0,0.0,0.02965831197798252,0.06422225385904312,-0.0479392409324646,0.9975199103355408,-0.01444933470338583,0.04461830481886864,0.05247775837779045
490.0,0.0,0.0,0.0,0.0,0.0,0.0,0.053700778633356094,0.044469404965639114,-0.06094511225819588,0.9975680708885193,-0.016377579420804977,0.040232520550489426,0.05449584871530533
491.0,0.0,0.0,0.0,0.0,0.0,0.0,0.03535880520939827,0.036505669355392456,-0.04781379550695419,0.9975258708000183,-0.017904601991176605,0.03751865401864052,0.05670156329870224
492.0,0.0,0.0,0.0,0.0,0.0,0.0,0.05772118642926216,0.05218920111656189,-0.06495100259780884,0.9974995255470276,-0.01976095698773861,0.03481310233473778,0.05824443697929382
493.0,0.0,0.0,0.0,0.0,0.0,0.0,0.03304049000144005,0.048908911645412445,-0.02395937219262123,0.997551441192627,-0.021488485857844353,0.03315036743879318,0.057707708328962326
494.0,0.0,0.0,0.0,0.0,0.0,0.0,0.015463916584849358,0.05445276200771332,-0.020563041791319847,0.9975008368492126,-0.023334244266152382,0.032507143914699554,0.05823155492544174
495.0,0.0,0.0,0.0,0.0,0.0,0.0,0.03455325588583946,0.04239523038268089,-0.03219413384795189,0.9973753690719604,-0.02404026873409748,0.03205792233347893,0.06031342223286629
496.0,0.0,0.0,0.0,0.0,0.0,0.0,0.05804692581295967,0.006836396176367998,-0.05831214413046837,0.9972763061523438,-0.02329781837761402,0.0318383127450943,0.06231548264622688
497.0,0.0,0.0,0.0,0.0,0.0,0.0,0.07360069453716278,-0.07153233140707016,-0.11560916155576706,0.9973025918006897,-0.019066398963332176,0.03345205634832382,0.062489479780197144
498.0,0.0,0.0,0.0,0.0,0.0,0.0,0.09970764070749283,-0.1542714536190033,-0.14628776907920837,0.997217059135437,-0.007594534195959568,0.04170803725719452,0.06132785975933075
499.0,0.0,0.0,0.0,0.0,0.0,0.0,0.14899688959121704,0.012320633977651596,-0.14618852734565735,0.9970704913139343,0.012611167505383492,0.05040359124541283,0.0561380572617054
500.0,0.0,0.0,0.0,0.0,0.0,0.0,-0.0100072231143713,0.09123028814792633,-0.0003333763452246785,0.9970893263816833,0.027325298637151718,0.05657055228948593,0.04320305585861206
501.0,0.0,0.0,0.0,0.0,0.0,0.0,-0.13139663636684418,0.14425073564052582,0.1257280856370926,0.9975351095199585,0.03170376643538475,0.05612603947520256,0.02771957591176033
502.0,0.0,0.0,0.0,0.0,0.0,0.0,-0.08399190753698349,0.05557622015476227,0.08768297731876373,0.9978762269020081,0.0324033759534359,0.05425062030553818,0.01580037921667099
503.0,0.0,0.0,0.0,0.0,0.0,0.0,-0.03304506838321686,0.10824422538280487,0.11767672747373581,0.9981053471565247,0.03255165368318558,0.05151986703276634,0.008472869172692299
504.0,0.0,0.0,0.0,0.0,0.0,0.0,-0.015180475078523159,0.09594574570655823,0.10004941374063492,0.998216450214386,0.03190407529473305,0.05032768100500107,0.0036675669252872467
505.0,0.0,0.0,0.0,0.0,0.0,0.0,0.005040602292865515,0.05571473389863968,0.055432260036468506,0.9982618689537048,0.032074689865112305,0.04941856861114502,0.0015048597706481814
506.0,0.0,0.0,0.0,0.0,0.0,0.0,0.0007478230982087553,0.0279094111174345,0.04167898744344711,0.9982888698577881,0.031090661883354187,0.049523647874593735,-2.771635445242282e-05
507.0,0.0,0.0,0.0,0.0,0.0,0.0,0.01909424550831318,-0.003253078553825617,0.04128304868936539,0.9982897043228149,0.028226427733898163,0.051194168627262115,-0.0005230114911682904
508.0,0.0,0.0,0.0,0.0,0.0,0.0,0.037873029708862305,-0.03342554718255997,0.019116995856165886,0.9982929825782776,0.025026418268680573,0.05276799947023392,-0.0007015445735305548
509.0,0.0,0.0,0.0,0.0,0.0,0.0,0.033917248249053955,-0.07169236987829208,-0.015040148980915546,0.9982898831367493,0.022108450531959534,0.05411015450954437,-0.0008332161814905703
510.0,0.0,0.0,0.0,0.0,0.0,0.0,0.03678315132856369,-0.05295441299676895,-0.023410614579916,0.9983077645301819,0.01993449218571186,0.05461481586098671,-0.0011323322542011738
511.0,0.0,0.0,0.0,0.0,0.0,0.0,0.032909899950027466,-0.034292690455913544,-0.02477574534714222,0.9983201622962952,0.01793328858911991,0.054995544254779816,-0.003306545317173004
512.0,0.0,0.0,0.0,0.0,0.0,0.0,0.03095751255750656,-0.011810538358986378,-0.010988278314471245,0.9983417987823486,0.017105041071772575,0.0547013096511364,-0.005388690158724785
513.0,0.0,0.0,0.0,0.0,0.0,0.0,0.047085221856832504,-0.03404226154088974,-0.017593171447515488,0.9983896613121033,0.016640102490782738,0.05379714444279671,-0.006882030982524157
514.0,0.0,0.0,0.0,0.0,0.0,0.0,0.04214826226234436,-0.040873996913433075,-0.009300229139626026,0.9984495639801025,0.01461007073521614,0.052947867661714554,-0.00903224479407072
515.0,0.0,0.0,0.0,0.0,0.0,0.0,0.010709057562053204,-0.002024993998929858,0.04642214998602867,0.9984639286994934,0.011945687234401703,0.05291140824556351,-0.011288479901850224
516.0,0.0,0.0,0.0,0.0,0.0,0.0,-0.07523292303085327,0.09784653782844543,0.13057900965213776,0.9984027147293091,0.010305685922503471,0.054145075380802155,-0.01240547839552164
517.0,0.0,0.0,0.0,0.0,0.0,0.0,-0.006861524656414986,0.04489416256546974,0.09998272359371185,0.9983448386192322,0.01322402898222208,0.054860685020685196,-0.011089728213846684
518.0,0.0,0.0,0.0,0.0,0.0,0.0,0.017473945394158363,0.02221946232020855,0.08162441849708557,0.9982513785362244,0.01949116587638855,0.05493536591529846,-0.009802691638469696
519.0,0.0,0.0,0.0,0.0,0.0,0.0,0.011504740454256535,-0.03295914828777313,0.0999746024608612,0.9980090856552124,0.02800842933356762,0.05589885264635086,-0.008277622982859612
520.0,0.0,0.0,0.0,0.0,0.0,0.0,0.012236873619258404,-0.11249195784330368,0.07300398498773575,0.99757319688797,0.03760990500450134,0.05838447064161301,-0.004957579076290131
521.0,0.0,0.0,0.0,0.0,0.0,0.0,0.048694778233766556,-0.05699269473552704,-0.004137870389968157,0.9970160126686096,0.04853331670165062,0.05998604744672775,-0.002285649999976158
522.0,0.0,0.0,0.0,0.0,0.0,0.0,0.011551186442375183,-0.03193550184369087,-0.09617097675800323,0.9965954422950745,0.057218827307224274,0.0593172088265419,-0.002176386071369052
523.0,0.0,0.0,0.0,0.0,0.0,0.0,-0.04468400031328201,-0.03359464928507805,-0.08530765771865845,0.9964255690574646,0.060049138963222504,0.0593561977148056,-0.002617559628561139
524.0,0.0,0.0,0.0,0.0,0.0,0.0,0.017157522961497307,-0.018674513325095177,-0.08380983769893646,0.9964202642440796,0.06031370535492897,0.0591902919113636,-0.0023823047522455454
525.0,0.0,0.0,0.0,0.0,0.0,0.0,0.045045629143714905,-0.001764285028912127,-0.062346119433641434,0.996563732624054,0.05916081741452217,0.05789430812001228,-0.0029161872807890177
526.0,0.0,0.0,0.0,0.0,0.0,0.0,-0.004245083779096603,-0.02142350934445858,0.012503924779593945,0.9967023134231567,0.058717597275972366,0.05584074556827545,-0.004308025352656841
527.0,0.0,0.0,0.0,0.0,0.0,0.0,-0.0165556687861681,-0.04392232373356819,0.02350304089486599,0.9967806935310364,0.05908777192234993,0.05377395823597908,-0.006729357875883579
528.0,0.0,0.0,0.0,0.0,0.0,0.0,0.0004467911785468459,-0.06439853459596634,0.0281374529004097,0.9967691898345947,0.06042575463652611,0.051944609731435776,-0.010070576332509518
529.0,0.0,0.0,0.0,0.0,0.0,0.0,0.00010784772894112393,-0.030196482315659523,-0.0006463507888838649,0.9966813325881958,0.06171131506562233,0.051143206655979156,-0.014210040681064129
530.0,0.0,0.0,0.0,0.0,0.0,0.0,-0.00787576287984848,-0.037209466099739075,-0.0016448982059955597,0.9964835047721863,0.06318826228380203,0.05192150920629501,-0.018224220722913742
531.0,0.0,0.0,0.0,0.0,0.0,0.0,0.005270122084766626,-0.06920633465051651,-0.016119036823511124,0.9963733553886414,0.06276333332061768,0.0535723902285099,-0.020753100514411926
532.0,0.0,0.0,0.0,0.0,0.0,0.0,-0.005310368724167347,-0.07873787730932236,-0.011960945092141628,0.9962631464004517,0.06043469160795212,0.057131003588438034,-0.023302020505070686
533.0,0.0,0.0,0.0,0.0,0.0,0.0,-0.019899625331163406,-0.08911915123462677,-0.02400776743888855,0.9961543679237366,0.05630699172616005,0.06227270886301994,-0.025050733238458633
534.0,0.0,0.0,0.0,0.0,0.0,0.0,-0.01005758810788393,-0.08248629420995712,-0.02011856436729431,0.9961556792259216,0.04982158541679382,0.06702316552400589,-0.026443814858794212
535.0,0.0,0.0,0.0,0.0,0.0,0.0,-0.045052289962768555,-0.08919814974069595,0.03906644508242607,0.9963305592536926,0.04100112244486809,0.07012387365102768,-0.026965346187353134
536.0,0.0,0.0,0.0,0.0,0.0,0.0,-0.05654200538992882,-0.058278925716876984,0.07672329246997833,0.9965240955352783,0.03139735013246536,0.07245060801506042,-0.02655096910893917
537.0,0.0,0.0,0.0,0.0,0.0,0.0,-0.03492105007171631,0.04801701754331589,0.12326967716217041,0.9967086911201477,0.023076355457305908,0.07389850914478302,-0.02405531145632267
538.0,0.0,0.0,0.0,0.0,0.0,0.0,-0.00800414104014635,0.15526528656482697,0.13994695246219635,0.9968051314353943,0.018365828320384026,0.07518407702445984,-0.01973074860870838
539.0,0.0,0.0,0.0,0.0,0.0,0.0,0.07308147102594376,0.14114037156105042,0.028084881603717804,0.9967544674873352,0.01712978444993496,0.07717201113700867,-0.015218403190374374
540.0,0.0,0.0,0.0,0.0,0.0,0.0,-0.011007480323314667,0.10959147661924362,0.04388407617807388,0.996703565120697,0.01778600551187992,0.07840099185705185,-0.010894249193370342
541.0,0.0,0.0,0.0,0.0,0.0,0.0,0.025082185864448547,-0.0193850826472044,0.02544133923947811,0.9965543746948242,0.02025746740400791,0.08022941648960114,-0.00566704198718071
542.0,0.0,0.0,0.0,0.0,0.0,0.0,0.11510927975177765,-0.05685494840145111,-0.05109168216586113,0.9965118169784546,0.024453110992908478,0.07976269721984863,-0.0019507623510435224
543.0,0.0,0.0,0.0,0.0,0.0,0.0,0.091872937977314,-0.07403774559497833,-0.044609054923057556,0.9965682029724121,0.030003752559423447,0.07714580744504929,-0.00035928862052969635
544.0,0.0,0.0,0.0,0.0,0.0,0.0,0.014957859180867672,-0.08509813249111176,-0.009631294757127762,0.9964811205863953,0.03370429202914238,0.07674041390419006,9.258116187993437e-05
545.0,0.0,0.0,0.0,0.0,0.0,0.0,0.026220276951789856,-0.03231652081012726,0.006110512651503086,0.9963387846946716,0.03467484563589096,0.07811357825994492,0.00221299403347075
546.0,0.0,0.0,0.0,0.0,0.0,0.0,0.04870475083589554,0.0005823664250783622,-0.0036955049727112055,0.9962683916091919,0.034710582345724106,0.07878632843494415,0.006124889478087425
547.0,0.0,0.0,0.0,0.0,0.0,0.0,0.030434932559728622,-0.04383528605103493,-0.011724773794412613,0.9961915016174316,0.03440043702721596,0.07952982932329178,0.009711095131933689
548.0,0.0,0.0,0.0,0.0,0.0,0.0,-0.0032079010270535946,-0.005002379883080721,0.06071888655424118,0.9960684180259705,0.034632790833711624,0.08041632920503616,0.013465944677591324
549.0,0.0,0.0,0.0,0.0,0.0,0.0,0.012883799150586128,0.002470545005053282,0.04213108494877815,0.9958904385566711,0.03764735907316208,0.08064112067222595,0.016805650666356087
550.0,0.0,0.0,0.0,0.0,0.0,0.0,0.04723052680492401,-0.11513586342334747,-0.05895521864295006,0.9957825541496277,0.040673911571502686,0.08038412779569626,0.01734078675508499
551.0,0.0,0.0,0.0,0.0,0.0,0.0,0.02006073296070099,-0.1269100308418274,-0.06115763634443283,0.9956662058830261,0.04259641841053963,0.0812101662158966,0.015446549281477928
552.0,0.0,0.0,0.0,0.0,0.0,0.0,0.04956437647342682,-0.02015877328813076,-0.039734262973070145,0.9956096410751343,0.04411204159259796,0.08130013197660446,0.01437732856720686
553.0,0.0,0.0,0.0,0.0,0.0,0.0,0.10107244551181793,-0.11441095918416977,-0.1295446902513504,0.9958327412605286,0.042670443654060364,0.07967033237218857,0.012193799018859863
554.0,0.0,0.0,0.0,0.0,0.0,0.0,0.08055780827999115,-0.12676481902599335,-0.12209796905517578,0.9961251020431519,0.0388435460627079,0.078334279358387,0.009445016272366047
555.0,0.0,0.0,0.0,0.0,0.0,0.0,0.12268375605344772,-0.14656788110733032,-0.1660131812095642,0.996651828289032,0.03190293163061142,0.07519607990980148,0.0036020411644130945
556.0,0.0,0.0,0.0,0.0,0.0,0.0,-0.02609526552259922,-0.047630425542593,0.014649000950157642,0.997182309627533,0.021955600008368492,0.07154636085033417,-0.00513496994972229
557.0,0.0,0.0,0.0,0.0,0.0,0.0,-0.16215448081493378,0.15352092683315277,0.26836052536964417,0.9974730014801025,0.01568368449807167,0.06848018616437912,-0.010590026155114174
558.0,0.0,0.0,0.0,0.0,0.0,0.0,-0.07097745686769485,0.17342731356620789,0.19229088723659515,0.9975730180740356,0.014002312906086445,0.06689265370368958,-0.013317816890776157
559.0,0.0,0.0,0.0,0.0,0.0,0.0,0.018886394798755646,0.03601432219147682,0.024067463353276253,0.9977669715881348,0.015454666689038277,0.06351934373378754,-0.013681305572390556
560.0,0.0,0.0,0.0,0.0,0.0,0.0,0.04343048110604286,-0.0503251887857914,-0.02284359186887741,0.9978331327438354,0.01414928212761879,0.062616728246212,-0.014420837163925171
561.0,0.0,0.0,0.0,0.0,0.0,0.0,0.00021856361126992851,-0.007267538458108902,0.04467751085758209,0.9978430867195129,0.011317489668726921,0.06267594546079636,-0.015892237424850464
562.0,0.0,0.0,0.0,0.0,0.0,0.0,0.03382738307118416,-0.01435050554573536,0.02090737409889698,0.997860848903656,0.01007290743291378,0.0625315010547638,-0.01618027314543724
563.0,0.0,0.0,0.0,0.0,0.0,0.0,0.05546560883522034,-0.03229038044810295,-0.0095754973590374,0.9979351758956909,0.009402072057127953,0.061310116201639175,-0.016666371375322342
564.0,0.0,0.0,0.0,0.0,0.0,0.0,0.020298590883612633,0.00011742980859708041,0.02204134501516819,0.9979608058929443,0.008395661599934101,0.06058735400438309,-0.018244612962007523
565.0,0.0,0.0,0.0,0.0,0.0,0.0,0.03235207125544548,-0.013727018609642982,-0.0032682742457836866,0.997968852519989,0.007719005458056927,0.05984736233949661,-0.020419932901859283
566.0,0.0,0.0,0.0,0.0,0.0,0.0,0.0636419877409935,-0.05129587650299072,-0.050918955355882645,0.9980278015136719,0.0067847128957509995,0.058248743414878845,-0.022395679727196693
567.0,0.0,0.0,0.0,0.0,0.0,0.0,0.06284743547439575,-0.042223528027534485,-0.031130479648709297,0.998091995716095,0.005026523023843765,0.056596048176288605,-0.02416263334453106
568.0,0.0,0.0,0.0,0.0,0.0,0.0,0.03758621960878372,-0.016902759671211243,-0.015072286128997803,0.998121976852417,0.0024494854733347893,0.055282555520534515,-0.026274507865309715
569.0,0.0,0.0,0.0,0.0,0.0,0.0,0.01128324307501316,-0.024180693551898003,0.020371656864881516,0.9980841875076294,-0.0004967977874912322,0.054715562611818314,-0.028880849480628967
570.0,0.0,0.0,0.0,0.0,0.0,0.0,0.008730687201023102,-0.03889930620789528,0.026108842343091965,0.997996985912323,-0.0035341233015060425,0.054820843040943146,-0.03137112781405449
571.0,0.0,0.0,0.0,0.0,0.0,0.0,-0.03329908102750778,0.037270158529281616,0.06569018959999084,0.9978777170181274,-0.006679674610495567,0.05532359704375267,-0.03368924558162689
572.0,0.0,0.0,0.0,0.0,0.0,0.0,-0.030509142205119133,0.0537528358399868,0.08089769631624222,0.9978548288345337,-0.008014860562980175,0.05497435852885246,-0.0346296951174736
573.0,0.0,0.0,0.0,0.0,0.0,0.0,-0.02377724088728428,0.03632467985153198,0.06851718574762344,0.9977890253067017,-0.009149362333118916,0.05550901219248772,-0.035387128591537476
574.0,0.0,0.0,0.0,0.0,0.0,0.0,-0.004938757047057152,0.0325910821557045,0.057241570204496384,0.9977527856826782,-0.009489876218140125,0.05618353933095932,-0.03525371849536896
575.0,0.0,0.0,0.0,0.0,0.0,0.0,0.022695498540997505,0.010259708389639854,0.042241256684064865,0.9977964758872986,-0.009072122164070606,0.05628617852926254,-0.03393778204917908
576.0,0.0,0.0,0.0,0.0,0.0,0.0,0.00569631764665246,-0.008596249856054783,0.05860604718327522,0.9977953433990479,-0.00873503927141428,0.05703912302851677,-0.0327845923602581
577.0,0.0,0.0,0.0,0.0,0.0,0.0,-0.019324742257595062,0.013952692039310932,0.09840270131826401,0.9977675080299377,-0.007211428601294756,0.05889764055609703,-0.030637845396995544
578.0,0.0,0.0,0.0,0.0,0.0,0.0,-0.042488422244787216,0.0737101286649704,0.14668038487434387,0.997746467590332,-0.0032742361072450876,0.06116949021816254,-0.02737475000321865
579.0,0.0,0.0,0.0,0.0,0.0,0.0,-0.06504684686660767,0.12675082683563232,0.18207807838916779,0.997657060623169,0.005239023827016354,0.06463178247213364,-0.021817661821842194
580.0,0.0,0.0,0.0,0.0,0.0,0.0,0.0025246732402592897,0.09518922120332718,0.12440846115350723,0.9974602460861206,0.017386768013238907,0.06777092069387436,-0.013329410925507545
581.0,0.0,0.0,0.0,0.0,0.0,0.0,0.05562526732683182,-0.06270217895507812,-0.04773205146193504,0.9971184134483337,0.029476668685674667,0.0696072205901146,-0.006350648123770952
582.0,0.0,0.0,0.0,0.0,0.0,0.0,0.08397875726222992,-0.18109865486621857,-0.224420964717865,0.9968119859695435,0.03671693056821823,0.07081954926252365,-0.0015854862285777926
583.0,0.0,0.0,0.0,0.0,0.0,0.0,0.11933556944131851,-0.21431437134742737,-0.1663047969341278,0.9967228174209595,0.04031066223978996,0.07013075053691864,0.0005454578786157072
584.0,0.0,0.0,0.0,0.0,0.0,0.0,0.015427772887051105,-0.07658630609512329,0.012112819589674473,0.9967450499534607,0.04113500192761421,0.06929519772529602,0.0023339991457760334
585.0,0.0,0.0,0.0,0.0,0.0,0.0,0.016867436468601227,-0.04865771532058716,-0.12878666818141937,0.9968975186347961,0.03741372749209404,0.06919001042842865,0.0028912690468132496
586.0,0.0,0.0,0.0,0.0,0.0,0.0,0.06764523684978485,-0.08917485922574997,-0.11996886134147644,0.9971444010734558,0.03381160646677017,0.06745188683271408,0.003226869273930788
587.0,0.0,0.0,0.0,0.0,0.0,0.0,-0.04803472012281418,0.006963079329580069,0.1605105698108673,0.9972481727600098,0.0319962278008461,0.06677386909723282,0.0037066859658807516
588.0,0.0,0.0,0.0,0.0,0.0,0.0,0.012780052609741688,0.011133341118693352,0.12778477370738983,0.9970987439155579,0.03446577861905098,0.06782092154026031,0.00262085790745914
589.0,0.0,0.0,0.0,0.0,0.0,0.0,0.0433153361082077,-0.03361867740750313,0.03973551094532013,0.9967799186706543,0.042504072189331055,0.0679948627948761,-0.00017676428251434118
590.0,0.0,0.0,0.0,0.0,0.0,0.0,-0.03191765770316124,-0.024324046447873116,0.08684159815311432,0.9961816668510437,0.05180542171001434,0.07020891457796097,-0.0030274824239313602
591.0,0.0,0.0,0.0,0.0,0.0,0.0,0.02762650139629841,-0.1044192686676979,-0.0888940617442131,0.99544757604599,0.06171600520610809,0.07247121632099152,-0.0048875766806304455
592.0,0.0,0.0,0.0,0.0,0.0,0.0,0.015568915754556656,-0.09781576693058014,-0.027122456580400467,0.9944769144058228,0.07324080169200897,0.07473529875278473,-0.008137955330312252
593.0,0.0,0.0,0.0,0.0,0.0,0.0,0.004093092866241932,-0.07431414723396301,-0.021550916135311127,0.993384063243866,0.08456927537918091,0.07651614397764206,-0.013463906943798065
594.0,0.0,0.0,0.0,0.0,0.0,0.0,-0.006829861551523209,-0.09627936780452728,0.005666336044669151,0.9923833608627319,0.09417746961116791,0.07760442048311234,-0.01683071255683899
595.0,0.0,0.0,0.0,0.0,0.0,0.0,-0.03497832268476486,-0.09929617494344711,-0.01647297851741314,0.9917101860046387,0.09939507395029068,0.07889597862958908,-0.020189296454191208
596.0,0.0,0.0,0.0,0.0,0.0,0.0,-0.01823502592742443,-0.09995870292186737,-0.04944617673754692,0.9913053512573242,0.10192873328924179,0.07933551073074341,-0.02507738023996353
597.0,0.0,0.0,0.0,0.0,0.0,0.0,-0.01067152339965105,-0.1139952763915062,-0.04750774800777435,0.9910586476325989,0.10294514149427414,0.07944876700639725,-0.029897239059209824
598.0,0.0,0.0,0.0,0.0,0.0,0.0,0.020386744290590286,-0.12133871018886566,-0.08469332009553909,0.9910145998001099,0.10203687846660614,0.07946884632110596,-0.03410302847623825
599.0,0.0,0.0,0.0,0.0,0.0,0.0,-0.001369321602396667,-0.09314427524805069,-0.0864347517490387,0.9910848140716553,0.09911646693944931,0.07961759716272354,-0.03986058011651039
600.0,0.0,0.0,0.0,0.0,0.0,0.0,-0.07768037170171738,-0.07564347982406616,-0.06196904927492142,0.9914178848266602,0.09129304438829422,0.08118423074483871,-0.04652833566069603
601.0,0.0,0.0,0.0,0.0,0.0,0.0,-0.1639154851436615,-0.05775686725974083,0.022948049008846283,0.9923604726791382,0.07514089345932007,0.08365507423877716,-0.05075354874134064
602.0,0.0,0.0,0.0,0.0,0.0,0.0,-0.07332659512758255,0.03374004736542702,0.15614201128482819,0.9936843514442444,0.05657682567834854,0.08379773050546646,-0.04866498336195946
603.0,0.0,0.0,0.0,0.0,0.0,0.0,0.03460417315363884,0.07318533957004547,0.14061561226844788,0.9947037100791931,0.0442110113799572,0.08176936954259872,-0.04386192187666893
604.0,0.0,0.0,0.0,0.0,0.0,0.0,0.04375147074460983,0.07391893863677979,0.058575116097927094,0.9954515695571899,0.036928389221429825,0.07919641584157944,-0.03795643895864487
605.0,0.0,0.0,0.0,0.0,0.0,0.0,0.06929530203342438,0.03354289382696152,0.027316270396113396,0.9960427284240723,0.03109535202383995,0.07661797851324081,-0.03258148580789566
606.0,0.0,0.0,0.0,0.0,0.0,0.0,0.10167212784290314,-0.0892050489783287,-0.013984626159071922,0.9964786767959595,0.02565080299973488,0.07414571940898895,-0.029575932770967484
607.0,0.0,0.0,0.0,0.0,0.0,0.0,0.0738263949751854,-0.05690230056643486,-0.038676273077726364,0.9968078136444092,0.019891047850251198,0.0720549002289772,-0.028047526255249977
608.0,0.0,0.0,0.0,0.0,0.0,0.0,0.04752156883478165,0.030033640563488007,-0.046143148094415665,0.9969794750213623,0.016828734427690506,0.07079959660768509,-0.027123194187879562
609.0,0.0,0.0,0.0,0.0,0.0,0.0,0.02418794296681881,-0.009044299833476543,-0.06750454008579254,0.9970998764038086,0.01411784254014492,0.06993860751390457,-0.026477811858057976
610.0,0.0,0.0,0.0,0.0,0.0,0.0,0.05958877131342888,-0.08377043902873993,-0.060507211834192276,0.9972280859947205,0.010831567458808422,0.06867827475070953,-0.026503296568989754
611.0,0.0,0.0,0.0,0.0,0.0,0.0,0.028680892661213875,-0.01684410125017166,0.02250327542424202,0.9972728490829468,0.007185692898929119,0.0678950622677803,-0.02802380546927452
612.0,0.0,0.0,0.0,0.0,0.0,0.0,-0.1672363579273224,0.1722857654094696,0.29276493191719055,0.9971659779548645,0.004343920387327671,0.06907390058040619,-0.029494766145944595
613.0,0.0,0.0,0.0,0.0,0.0,0.0,-0.12534818053245544,0.15574586391448975,0.20054328441619873,0.9969717264175415,0.005050431936979294,0.07243555039167404,-0.027831312268972397
614.0,0.0,0.0,0.0,0.0,0.0,0.0,-0.0067536537535488605,0.11010076850652695,0.05361580103635788,0.9969478249549866,0.008594457060098648,0.07401230931282043,-0.023311875760555267
615.0,0.0,0.0,0.0,0.0,0.0,0.0,-0.0099931750446558,0.08348868787288666,0.05541233718395233,0.996922492980957,0.012299325317144394,0.07539058476686478,-0.017618754878640175
616.0,0.0,0.0,0.0,0.0,0.0,0.0,0.03578399494290352,0.02640317939221859,0.03673824295401573,0.9968395233154297,0.016072645783424377,0.07693380117416382,-0.011559439823031425
617.0,0.0,0.0,0.0,0.0,0.0,0.0,0.10642299801111221,-0.05712878331542015,-0.000548643060028553,0.9967861175537109,0.019807424396276474,0.07746833562850952,-0.004843928385525942
618.0,0.0,0.0,0.0,0.0,0.0,0.0,0.129495769739151,-0.14690947532653809,-0.058542463928461075,0.9967307448387146,0.02170748822391033,0.07782401144504547,0.00065837666625157
619.0,0.0,0.0,0.0,0.0,0.0,0.0,0.09788288176059723,-0.09943705052137375,-0.06573063880205154,0.9967413544654846,0.021588103845715523,0.07758083939552307,0.004599544685333967
620.0,0.0,0.0,0.0,0.0,0.0,0.0,0.07945432513952255,-0.031790800392627716,-0.03555905446410179,0.9967873692512512,0.02188391238451004,0.07664765417575836,0.007801845204085112
621.0,0.0,0.0,0.0,0.0,0.0,0.0,0.1207989975810051,-0.04892784357070923,-0.10899931937456131,0.9969055652618408,0.02060372568666935,0.0752381682395935,0.009708310477435589
622.0,0.0,0.0,0.0,0.0,0.0,0.0,0.0008041230030357838,-0.038858674466609955,-0.004273602273315191,0.9969870448112488,0.017905961722135544,0.07491583377122879,0.00913316197693348
623.0,0.0,0.0,0.0,0.0,0.0,0.0,0.06662765145301819,-0.05277591198682785,-0.07048920542001724,0.9970482587814331,0.015364869497716427,0.0746409147977829,0.009344685822725296
624.0,0.0,0.0,0.0,0.0,0.0,0.0,0.09103003889322281,-0.007085002958774567,-0.08296144008636475,0.9973061680793762,0.012592872604727745,0.07185965031385422,0.007601001765578985
625.0,0.0,0.0,0.0,0.0,0.0,0.0,0.11683805286884308,-0.07357540726661682,-0.12070357799530029,0.9976217746734619,0.008671475574374199,0.06829467415809631,0.003334078472107649
626.0,0.0,0.0,0.0,0.0,0.0,0.0,0.11221171170473099,-0.09627017378807068,-0.10342182219028473,0.997944712638855,0.0028930555563420057,0.06393885612487793,-0.003147480310872197
627.0,0.0,0.0,0.0,0.0,0.0,0.0,-0.06659402698278427,0.05073612555861473,0.10162670910358429,0.9980259537696838,-0.003430889220908284,0.06199004501104355,-0.009448050521314144
628.0,0.0,0.0,0.0,0.0,0.0,0.0,-0.047956857830286026,0.09221924096345901,0.10958659648895264,0.9979600310325623,-0.007869583554565907,0.061887823045253754,-0.01355136651545763
629.0,0.0,0.0,0.0,0.0,0.0,0.0,-0.03378097712993622,0.05017007887363434,0.06841886788606644,0.997814953327179,-0.012114631943404675,0.06277630478143692,-0.01665530912578106
630.0,0.0,0.0,0.0,0.0,0.0,0.0,-0.040851861238479614,0.046887852251529694,0.05701909214258194,0.9976699948310852,-0.015173873864114285,0.06387259066104889,-0.01855807937681675
631.0,0.0,0.0,0.0,0.0,0.0,0.0,-0.04899256303906441,0.07117635756731033,0.07703263312578201,0.9975550770759583,-0.01732659712433815,0.06454075127840042,-0.02045762725174427
632.0,0.0,0.0,0.0,0.0,0.0,0.0,-0.021430063992738724,0.059690192341804504,0.06181022524833679,0.9975137710571289,-0.018099378794431686,0.06468223035335541,-0.021321244537830353
633.0,0.0,0.0,0.0,0.0,0.0,0.0,0.034820307046175,0.019761594012379646,0.019830990582704544,0.9976018667221069,-0.016937321051955223,0.06343124806880951,-0.021911894902586937
634.0,0.0,0.0,0.0,0.0,0.0,0.0,0.023785514757037163,0.0022491004783660173,0.02334173209965229,0.9976712465286255,-0.015856433659791946,0.06239630654454231,-0.022517874836921692
635.0,0.0,0.0,0.0,0.0,0.0,0.0,-0.016117708757519722,0.024717843160033226,0.0556645542383194,0.9976722002029419,-0.016967730596661568,0.061835527420043945,-0.023207655176520348
636.0,0.0,0.0,0.0,0.0,0.0,0.0,-0.02477622963488102,0.09669018536806107,0.11001857370138168,0.9976452589035034,-0.022228380665183067,0.06119787320494652,-0.021552782505750656
637.0,0.0,0.0,0.0,0.0,0.0,0.0,-0.017722923308610916,0.13072896003723145,0.15936961770057678,0.9975594878196716,-0.024269022047519684,0.06364095956087112,-0.015353689901530743
638.0,0.0,0.0,0.0,0.0,0.0,0.0,-0.02978028915822506,0.06172908470034599,0.08071329444646835,0.9974398612976074,-0.024257447570562363,0.06686651706695557,-0.007352546788752079
639.0,0.0,0.0,0.0,0.0,0.0,0.0,0.000673282949719578,0.04684621840715408,0.0264186542481184,0.9973401427268982,-0.025723719969391823,0.06813531368970871,0.002837003441527486
640.0,0.0,0.0,0.0,0.0,0.0,0.0,0.019831407815217972,0.08538838475942612,-0.021914426237344742,0.9973849654197693,-0.02656429074704647,0.0662192776799202,0.011514516547322273
641.0,0.0,0.0,0.0,0.0,0.0,0.0,0.011345398612320423,0.012317351065576077,-0.06873372942209244,0.9974722862243652,-0.026979384943842888,0.0632374957203865,0.01794871874153614
642.0,0.0,0.0,0.0,0.0,0.0,0.0,0.09136828035116196,-0.05142892897129059,-0.12282619625329971,0.9976122975349426,-0.029053356498479843,0.05801793932914734,0.023657087236642838
643.0,0.0,0.0,0.0,0.0,0.0,0.0,0.06730183959007263,-0.0030928978230804205,-0.07463263720273972,0.9977454543113708,-0.03165092319250107,0.05282321572303772,0.02668938599526882
644.0,0.0,0.0,0.0,0.0,0.0,0.0,0.04741539806127548,-0.007030996028333902,-0.04676802083849907,0.9978220462799072,-0.03275617957115173,0.049606066197156906,0.028584539890289307
645.0,0.0,0.0,0.0,0.0,0.0,0.0,0.0630202516913414,-0.04468970373272896,-0.0714133083820343,0.9979286193847656,-0.03138447925448418,0.0477902814745903,0.029492948204278946
646.0,0.0,0.0,0.0,0.0,0.0,0.0,0.05170184373855591,-0.05102239176630974,-0.058610182255506516,0.9980946183204651,-0.02618289366364479,0.047067590057849884,0.03010464273393154
647.0,0.0,0.0,0.0,0.0,0.0,0.0,0.09356551617383957,-0.09522295743227005,-0.08025644719600677,0.998327374458313,-0.017395589500665665,0.04619339480996132,0.030095282942056656
648.0,0.0,0.0,0.0,0.0,0.0,0.0,0.10189065337181091,-0.06011495366692543,-0.05499252304434776,0.9985434412956238,-0.0004893182194791734,0.04682859405875206,0.026791535317897797
649.0,0.0,0.0,0.0,0.0,0.0,0.0,0.018353508785367012,-0.045241840183734894,-0.031634215265512466,0.9983441829681396,0.01997886598110199,0.05055171251296997,0.01880977489054203
650.0,0.0,0.0,0.0,0.0,0.0,0.0,-0.049516256898641586,-0.018904654309153557,0.046560291200876236,0.9978352189064026,0.03587718307971954,0.054416317492723465,0.008745772764086723
651.0,0.0,0.0,0.0,0.0,0.0,0.0,-0.05929647013545036,-0.0003984820214100182,0.06711360067129135,0.9974092841148376,0.046154703944921494,0.055178605020046234,0.00019770764629356563
652.0,0.0,0.0,0.0,0.0,0.0,0.0,-0.05338821932673454,-0.023408526554703712,0.05298243835568428,0.9969360828399658,0.053886815905570984,0.05637463554739952,-0.00605117529630661
653.0,0.0,0.0,0.0,0.0,0.0,0.0,-0.03377228602766991,-0.029186584055423737,0.039717093110084534,0.9963919520378113,0.060145895928144455,0.058913495391607285,-0.010720753110945225
654.0,0.0,0.0,0.0,0.0,0.0,0.0,-0.004335386678576469,-0.060813941061496735,0.015615812502801418,0.9958799481391907,0.06591624021530151,0.060450829565525055,-0.014952807687222958
655.0,0.0,0.0,0.0,0.0,0.0,0.0,0.016678690910339355,-0.10079418867826462,-0.0419795922935009,0.9954102039337158,0.07057133316993713,0.06125665083527565,-0.020640039816498756
656.0,0.0,0.0,0.0,0.0,0.0,0.0,-0.048961300402879715,-0.01639603264629841,0.11879918724298477,0.994954526424408,0.07415852695703506,0.06197526678442955,-0.026914559304714203
657.0,0.0,0.0,0.0,0.0,0.0,0.0,-0.06905031204223633,-0.001636086730286479,0.09369474649429321,0.9945263266563416,0.07734763622283936,0.06225678324699402,-0.03254374861717224
658.0,0.0,0.0,0.0,0.0,0.0,0.0,-0.04942087456583977,-0.01647990383207798,0.06587527692317963,0.9941617846488953,0.07987640053033829,0.0627041757106781,-0.036480143666267395
659.0,0.0,0.0,0.0,0.0,0.0,0.0,-0.015813704580068588,-0.038909249007701874,0.034809209406375885,0.9938890337944031,0.0818793773651123,0.06258584558963776,-0.039543814957141876
660.0,0.0,0.0,0.0,0.0,0.0,0.0,-0.03639454394578934,-0.00938938558101654,0.05258559435606003,0.9937569499015808,0.08266638219356537,0.0618169791996479,-0.042330142110586166
661.0,0.0,0.0,0.0,0.0,0.0,0.0,-0.041505757719278336,0.00617624819278717,0.03316507861018181,0.9936605095863342,0.08308136463165283,0.06076393276453018,-0.04521450400352478
662.0,0.0,0.0,0.0,0.0,0.0,0.0,-0.06753190606832504,0.011000891216099262,0.048956554383039474,0.9937729835510254,0.08159530162811279,0.058473605662584305,-0.048362378031015396
663.0,0.0,0.0,0.0,0.0,0.0,0.0,-0.0555892176926136,-0.023936940357089043,0.015198293142020702,0.9940947890281677,0.07788058370351791,0.055225685238838196,-0.05157596617937088
664.0,0.0,0.0,0.0,0.0,0.0,0.0,-0.028915885835886,-0.04649948328733444,-0.0067205410450696945,0.9944589138031006,0.07344283163547516,0.05187298730015755,-0.05446673184633255
665.0,0.0,0.0,0.0,0.0,0.0,0.0,-0.005327983759343624,-0.0773991048336029,-0.0305769182741642,0.9947108626365662,0.07007800042629242,0.04924723505973816,-0.05669298768043518
666.0,0.0,0.0,0.0,0.0,0.0,0.0,0.027682291343808174,-0.07756580412387848,-0.046562448143959045,0.994887113571167,0.0679253339767456,0.04881517216563225,-0.05659589543938637
667.0,0.0,0.0,0.0,0.0,0.0,0.0,0.013134460896253586,-0.06650446355342865,-0.02580828033387661,0.9948562979698181,0.06757324934005737,0.049100179225206375,-0.0573081336915493
668.0,0.0,0.0,0.0,0.0,0.0,0.0,-0.02214284986257553,-0.058956485241651535,-0.01416338887065649,0.9947292804718018,0.06758198142051697,0.052069928497076035,-0.05687606334686279
669.0,0.0,0.0,0.0,0.0,0.0,0.0,-0.048303887248039246,-0.03447096422314644,-0.04496055841445923,0.994438886642456,0.06849265843629837,0.058767881244421005,-0.054282575845718384
670.0,0.0,0.0,0.0,0.0,0.0,0.0,-0.12804058194160461,0.002099617151543498,-0.07555180788040161,0.994018018245697,0.06731381267309189,0.06968379765748978,-0.050411563366651535
671.0,0.0,0.0,0.0,0.0,0.0,0.0,-0.16768622398376465,0.022049961611628532,-0.01644989848136902,0.9941445589065552,0.05790702626109123,0.08020135760307312,-0.04349588230252266
672.0,0.0,0.0,0.0,0.0,0.0,0.0,-0.06906992942094803,0.022704072296619415,0.21381449699401855,0.9948931932449341,0.04581713676452637,0.0836433693766594,-0.03304595127701759
673.0,0.0,0.0,0.0,0.0,0.0,0.0,0.07914691418409348,-0.022320104762911797,0.18068698048591614,0.9955728650093079,0.04083656147122383,0.08198888599872589,-0.02108677476644516
674.0,0.0,0.0,0.0,0.0,0.0,0.0,0.17743952572345734,-0.06624069809913635,0.00563816400244832,0.9959930181503296,0.04367905482649803,0.07701993733644485,-0.012563896365463734
675.0,0.0,0.0,0.0,0.0,0.0,0.0,0.13698893785476685,-0.0776807889342308,-0.04316587746143341,0.9961254000663757,0.048867207020521164,0.07233914732933044,-0.010663146153092384
676.0,0.0,0.0,0.0,0.0,0.0,0.0,0.07923546433448792,-0.04954639822244644,0.006793848238885403,0.9960055947303772,0.05355653166770935,0.07042398303747177,-0.012031575664877892
677.0,0.0,0.0,0.0,0.0,0.0,0.0,0.13983570039272308,-0.08978653699159622,-0.06754869967699051,0.9958157539367676,0.05939120799303055,0.06782446056604385,-0.014927506446838379
678.0,0.0,0.0,0.0,0.0,0.0,0.0,0.07435904443264008,-0.008943883702158928,-0.015661340206861496,0.9955075979232788,0.064327672123909,0.06621401011943817,-0.021037209779024124
679.0,0.0,0.0,0.0,0.0,0.0,0.0,0.0791935846209526,-0.013880463317036629,0.09684033691883087,0.9948517680168152,0.07184001803398132,0.06718055158853531,-0.024417323991656303
680.0,0.0,0.0,0.0,0.0,0.0,0.0,-0.0035340413451194763,0.01329875085502863,0.08206616342067719,0.9940003156661987,0.07959815114736557,0.07035373896360397,-0.026030639186501503
681.0,0.0,0.0,0.0,0.0,0.0,0.0,-0.05538482591509819,0.09817542135715485,0.14735627174377441,0.9929866790771484,0.08668278157711029,0.07612825930118561,-0.02584158070385456
682.0,0.0,0.0,0.0,0.0,0.0,0.0,-0.04122818633913994,0.048794761300086975,0.053275175392627716,0.9921380877494812,0.09125638753175735,0.08183818310499191,-0.025217369198799133
683.0,0.0,0.0,0.0,0.0,0.0,0.0,-0.002426113234832883,-0.1587495654821396,-0.11638116091489792,0.9915044903755188,0.09434191137552261,0.08614259213209152,-0.02443218231201172
684.0,0.0,0.0,0.0,0.0,0.0,0.0,0.06218583509325981,-0.1455705314874649,-0.15284974873065948,0.9914118051528931,0.09426740556955338,0.0877944603562355,-0.022569458931684494
685.0,0.0,0.0,0.0,0.0,0.0,0.0,0.0460536889731884,-0.10935059189796448,-0.1388704925775528,0.991502046585083,0.09258255362510681,0.08775601536035538,-0.025504011660814285
686.0,0.0,0.0,0.0,0.0,0.0,0.0,-0.041951436549425125,-0.093434177339077,-0.10314744710922241,0.9919058084487915,0.08528903126716614,0.08907371014356613,-0.030247429385781288
687.0,0.0,0.0,0.0,0.0,0.0,0.0,-0.06563609838485718,-0.0629807636141777,-0.0919138714671135,0.9929025173187256,0.07017216831445694,0.09039080888032913,-0.032415587455034256
688.0,0.0,0.0,0.0,0.0,0.0,0.0,-0.04388772323727608,-0.03474951162934303,0.03488544747233391,0.9943035244941711,0.05136166140437126,0.08774378150701523,-0.031994085758924484
689.0,0.0,0.0,0.0,0.0,0.0,0.0,-0.00803761649876833,0.035154059529304504,0.10122984647750854,0.995503306388855,0.03727610036730766,0.08117470145225525,-0.03153392672538757
690.0,0.0,0.0,0.0,0.0,0.0,0.0,0.0522136390209198,0.06843053549528122,0.09051024913787842,0.9962947368621826,0.029754340648651123,0.0752132385969162,-0.029229246079921722
691.0,0.0,0.0,0.0,0.0,0.0,0.0,0.048217035830020905,0.05084407702088356,0.05375812575221062,0.99667888879776,0.027566062286496162,0.07154248654842377,-0.02743169292807579
692.0,0.0,0.0,0.0,0.0,0.0,0.0,0.058915819972753525,0.004069297108799219,-0.007159786764532328,0.9968806505203247,0.02706836350262165,0.06916216015815735,-0.02670997753739357
693.0,0.0,0.0,0.0,0.0,0.0,0.0,0.04842086136341095,0.017626117914915085,-0.004613284021615982,0.9970658421516418,0.026532884687185287,0.06642625480890274,-0.027262048795819283
694.0,0.0,0.0,0.0,0.0,0.0,0.0,0.0023477175273001194,0.022952692583203316,0.030557706952095032,0.9972225427627563,0.025205599144101143,0.06424270570278168,-0.0280070211738348
695.0,0.0,0.0,0.0,0.0,0.0,0.0,-0.049600206315517426,0.04155990108847618,0.0859268382191658,0.9973079562187195,0.024048736318945885,0.06298813968896866,-0.028823750093579292
696.0,0.0,0.0,0.0,0.0,0.0,0.0,-0.03741760924458504,0.05463896319270134,0.05823834612965584,0.997286319732666,0.023028923198580742,0.06345751136541367,-0.029373249039053917
697.0,0.0,0.0,0.0,0.0,0.0,0.0,-0.06737988442182541,0.12027747929096222,0.09095034003257751,0.9972631931304932,0.02120104990899563,0.06451182812452316,-0.02922992594540119
698.0,0.0,0.0,0.0,0.0,0.0,0.0,-0.05531690642237663,0.1108565405011177,0.09481388330459595,0.9972134828567505,0.021317340433597565,0.06644376367330551,-0.026378042995929718
699.0,0.0,0.0,0.0,0.0,0.0,0.0,-0.019345181062817574,0.079659603536129,0.05743101239204407,0.9971671104431152,0.023201951757073402,0.0679296925663948,-0.02247515320777893
700.0,0.0,0.0,0.0,0.0,0.0,0.0,-0.03182023763656616,0.053334955126047134,0.03529617562890053,0.9970682263374329,0.0261238906532526,0.0696321576833725,-0.01799193024635315
701.0,0.0,0.0,0.0,0.0,0.0,0.0,0.0487167052924633,-0.0039014180656522512,0.0104826083406806,0.9969125390052795,0.030368700623512268,0.07132269442081451,-0.012500458396971226
702.0,0.0,0.0,0.0,0.0,0.0,0.0,0.11566761136054993,-0.08449344336986542,-0.044892147183418274,0.9967895150184631,0.034843869507312775,0.07172369211912155,-0.0072097149677574635
703.0,0.0,0.0,0.0,0.0,0.0,0.0,0.09573900699615479,-0.08911681920289993,-0.06062253564596176,0.9966163635253906,0.04000050202012062,0.0717109963297844,-0.003608987433835864
704.0,0.0,0.0,0.0,0.0,0.0,0.0,0.053286463022232056,-0.05204332247376442,-0.021661512553691864,0.9962958097457886,0.04547225683927536,0.07298365980386734,-0.0010138849029317498
705.0,0.0,0.0,0.0,0.0,0.0,0.0,0.10565349459648132,-0.04613148421049118,-0.028262341395020485,0.9958984851837158,0.05129831284284592,0.07450670748949051,0.0018310495652258396
706.0,0.0,0.0,0.0,0.0,0.0,0.0,0.08843567967414856,-0.050234757363796234,-0.09222836047410965,0.9956794381141663,0.05470554903149605,0.07499522715806961,0.002417064970359206
707.0,0.0,0.0,0.0,0.0,0.0,0.0,-0.03680845722556114,0.02131885103881359,0.04998469725251198,0.9952841401100159,0.05947590991854668,0.07661233097314835,0.0015494258841499686
708.0,0.0,0.0,0.0,0.0,0.0,0.0,-2.5523499061819166e-05,-0.0336030088365078,-0.02908714860677719,0.9948187470436096,0.0650222972035408,0.07815399765968323,-0.00020613076048903167
709.0,0.0,0.0,0.0,0.0,0.0,0.0,0.015062851831316948,-0.057095590978860855,-0.08023358881473541,0.9945539832115173,0.06947465240955353,0.07757647335529327,-0.004150387831032276
710.0,0.0,0.0,0.0,0.0,0.0,0.0,0.060796964913606644,-0.1048130914568901,-0.11429395526647568,0.9945170283317566,0.07212885469198227,0.07522822916507721,-0.008594951592385769
711.0,0.0,0.0,0.0,0.0,0.0,0.0,0.09618715941905975,-0.1592349112033844,-0.18173593282699585,0.9950353503227234,0.0681380182504654,0.07119110226631165,-0.013917379081249237
712.0,0.0,0.0,0.0,0.0,0.0,0.0,0.030548660084605217,-0.11322422325611115,-0.16903993487358093,0.9959120154380798,0.05602002888917923,0.06734097748994827,-0.02204815298318863
713.0,0.0,0.0,0.0,0.0,0.0,0.0,-0.21265250444412231,0.1487005650997162,0.24503588676452637,0.9966782331466675,0.041521068662405014,0.06414048373699188,-0.02819371037185192
714.0,0.0,0.0,0.0,0.0,0.0,0.0,-0.17682962119579315,0.2290223389863968,0.330550879240036,0.9969226717948914,0.03461693227291107,0.06402471661567688,-0.029105111956596375
715.0,0.0,0.0,0.0,0.0,0.0,0.0,-0.010284059680998325,0.09690394997596741,0.08414707332849503,0.9969176054000854,0.03380478918552399,0.06496713310480118,-0.02814185433089733
716.0,0.0,0.0,0.0,0.0,0.0,0.0,0.008605262264609337,0.06940649449825287,0.05971941351890564,0.9969649910926819,0.033771876245737076,0.06488028168678284,-0.026659084483981133
717.0,0.0,0.0,0.0,0.0,0.0,0.0,-0.08560226857662201,-0.04082005098462105,0.1172134280204773,0.9968239068984985,0.03287019580602646,0.06732562184333801,-0.026991771534085274
718.0,0.0,0.0,0.0,0.0,0.0,0.0,-0.014956899918615818,0.0413983128964901,0.08498814702033997,0.9968395829200745,0.034315627068281174,0.06796013563871384,-0.022691771388053894
719.0,0.0,0.0,0.0,0.0,0.0,0.0,0.01821674220263958,0.01684587448835373,0.0743696466088295,0.9969075918197632,0.0361466258764267,0.06814788281917572,-0.01498833205550909
720.0,0.0,0.0,0.0,0.0,0.0,0.0,0.051876526325941086,-0.026217998936772346,0.05852067470550537,0.9968390464782715,0.03869089484214783,0.06907882541418076,-0.006515766028314829
721.0,0.0,0.0,0.0,0.0,0.0,0.0,0.07252054661512375,-0.10415120422840118,-0.032012905925512314,0.9965659379959106,0.04115060344338417,0.07182417064905167,0.001923824311234057
722.0,0.0,0.0,0.0,0.0,0.0,0.0,0.0832022950053215,-0.11504539847373962,-0.12278959900140762,0.9961349368095398,0.043371014297008514,0.07582718878984451,0.009161763824522495
723.0,0.0,0.0,0.0,0.0,0.0,0.0,0.07409144192934036,-0.025961345061659813,-0.10765451937913895,0.9958046674728394,0.046531178057193756,0.07770076394081116,0.013081016018986702
724.0,0.0,0.0,0.0,0.0,0.0,0.0,0.027289295569062233,0.008268676698207855,-0.047195229679346085,0.9956746101379395,0.049676187336444855,0.07694567739963531,0.01560973096638918
725.0,0.0,0.0,0.0,0.0,0.0,0.0,0.019916042685508728,-0.016235586255788803,-0.01869417540729046,0.9955329298973083,0.05207134038209915,0.07695312052965164,0.01674661785364151
726.0,0.0,0.0,0.0,0.0,0.0,0.0,-0.0018314151093363762,0.0035192014183849096,-0.009913716465234756,0.9954302310943604,0.05384104698896408,0.0771685391664505,0.016251565888524055
727.0,0.0,0.0,0.0,0.0,0.0,0.0,-0.015498289838433266,0.030698435381054878,-0.014173362404108047,0.9953970909118652,0.055575959384441376,0.07676181197166443,0.014301943592727184
728.0,0.0,0.0,0.0,0.0,0.0,0.0,-0.025460902601480484,-0.01464457530528307,-0.011772774159908295,0.9953409433364868,0.05674655735492706,0.07702219486236572,0.011970970779657364
729.0,0.0,0.0,0.0,0.0,0.0,0.0,-0.02729155868291855,-0.027903269976377487,-0.012421179562807083,0.9953585267066956,0.05724526196718216,0.07661792635917664,0.010642366483807564
730.0,0.0,0.0,0.0,0.0,0.0,0.0,0.009744551032781601,-0.040220316499471664,-0.029042048379778862,0.9954492449760437,0.05767713114619255,0.07521241158246994,0.009871399030089378
731.0,0.0,0.0,0.0,0.0,0.0,0.0,0.0013446200173348188,-0.029321733862161636,0.016963692381978035,0.9955029487609863,0.0581727959215641,0.07414647191762924,0.009618385694921017
732.0,0.0,0.0,0.0,0.0,0.0,0.0,0.024554839357733727,-0.03586268424987793,-0.01674971729516983,0.9955106973648071,0.05872152000665665,0.07377426326274872,0.008197866380214691
733.0,0.0,0.0,0.0,0.0,0.0,0.0,-0.0017174690729007125,0.0016699754633009434,0.0018971818499267101,0.9954673647880554,0.060034994035959244,0.07353542000055313,0.00579872727394104
734.0,0.0,0.0,0.0,0.0,0.0,0.0,-0.05514155700802803,0.056311462074518204,0.06326863169670105,0.9954147934913635,0.061013758182525635,0.07348883152008057,0.005046200007200241
735.0,0.0,0.0,0.0,0.0,0.0,0.0,-0.02070891484618187,0.031028756871819496,0.02106013149023056,0.9953230619430542,0.06190503016114235,0.07397810369729996,0.0051369089633226395
736.0,0.0,0.0,0.0,0.0,0.0,0.0,0.0036213684361428022,0.002085609594359994,-0.02185499109327793,0.9951993823051453,0.06309492141008377,0.07465962320566177,0.004843220114707947
737.0,0.0,0.0,0.0,0.0,0.0,0.0,-0.019223902374505997,-0.00952197890728712,-0.012867783196270466,0.9950699210166931,0.06423783302307129,0.07545240968465805,0.004049306269735098
738.0,0.0,0.0,0.0,0.0,0.0,0.0,-0.012269879691302776,0.004329742398113012,-0.0004615482466761023,0.9948174953460693,0.06657881289720535,0.0767877846956253,0.0029636698309332132
739.0,0.0,0.0,0.0,0.0,0.0,0.0,-0.013211364857852459,-0.02481120638549328,0.0009818905964493752,0.9944431185722351,0.07039519399404526,0.07827261090278625,0.0009288070723414421
740.0,0.0,0.0,0.0,0.0,0.0,0.0,-0.025096725672483444,-0.056158676743507385,0.0007858907338231802,0.9939603209495544,0.07453536242246628,0.08052990585565567,-0.0008761651697568595
741.0,0.0,0.0,0.0,0.0,0.0,0.0,-0.038660380989313126,-0.0024132688995450735,0.02394975908100605,0.993416428565979,0.07872101664543152,0.08318546414375305,-0.0024418667890131474
742.0,0.0,0.0,0.0,0.0,0.0,0.0,-0.02145284041762352,-0.03256106749176979,0.0072576627135276794,0.9930074214935303,0.08094383031129837,0.0858442410826683,-0.00398909579962492
743.0,0.0,0.0,0.0,0.0,0.0,0.0,0.003783146385103464,-0.04256756603717804,-0.0018268856219947338,0.9927085638046265,0.0822698101401329,0.0879766121506691,-0.004640908446162939
744.0,0.0,0.0,0.0,0.0,0.0,0.0,-0.025194086134433746,-0.026538876816630363,0.0020453273318707943,0.9924526810646057,0.08353409171104431,0.0895310714840889,-0.006677971687167883
745.0,0.0,0.0,0.0,0.0,0.0,0.0,-0.012019192799925804,-0.0376519076526165,0.045500949025154114,0.9921574592590332,0.085555799305439,0.09081418067216873,-0.007434127386659384
746.0,0.0,0.0,0.0,0.0,0.0,0.0,0.04162130504846573,-0.04361841455101967,0.01566772721707821,0.9918365478515625,0.08833183348178864,0.09168906509876251,-0.007199638523161411
747.0,0.0,0.0,0.0,0.0,0.0,0.0,0.03880453109741211,-0.05597874894738197,-0.028603361919522285,0.9914852380752563,0.09151020646095276,0.09225939214229584,-0.008435307070612907
748.0,0.0,0.0,0.0,0.0,0.0,0.0,-0.010192622430622578,-0.037302952259778976,-0.007695869076997042,0.9911167025566101,0.093989297747612,0.09351776540279388,-0.010430533438920975
749.0,0.0,0.0,0.0,0.0,0.0,0.0,0.01399501133710146,-0.032561253756284714,-0.005257232580333948,0.9909534454345703,0.09444393217563629,0.09462053328752518,-0.011822045780718327
750.0,0.0,0.0,0.0,0.0,0.0,0.0,0.00558282807469368,-0.062177155166864395,-0.007925010286271572,0.9908603429794312,0.09492796659469604,0.09494589269161224,-0.012980868108570576
751.0,0.0,0.0,0.0,0.0,0.0,0.0,0.03307080641388893,-0.06878579407930374,-0.028479188680648804,0.9908463358879089,0.09521140903234482,0.09465952962636948,-0.014022670686244965
752.0,0.0,0.0,0.0,0.0,0.0,0.0,0.04843468964099884,-0.06264454126358032,-0.08509188145399094,0.991202175617218,0.09245913475751877,0.09333552420139313,-0.01608624868094921
753.0,0.0,0.0,0.0,0.0,0.0,0.0,0.05918024480342865,-0.09302182495594025,-0.13035859167575836,0.9922235012054443,0.08397471159696579,0.09025820344686508,-0.017138047143816948
754.0,0.0,0.0,0.0,0.0,0.0,0.0,0.11241667717695236,-0.10591192543506622,-0.13977085053920746,0.993632972240448,0.07073450833559036,0.08565273880958557,-0.018808361142873764
755.0,0.0,0.0,0.0,0.0,0.0,0.0,0.021046392619609833,-0.01991070993244648,0.031510449945926666,0.9948675036430359,0.055112164467573166,0.08177725225687027,-0.022665098309516907
756.0,0.0,0.0,0.0,0.0,0.0,0.0,-0.04318057745695114,0.09205424040555954,0.11527638882398605,0.9956589341163635,0.04248737171292305,0.07858926802873611,-0.026117902249097824
757.0,0.0,0.0,0.0,0.0,0.0,0.0,-0.06726066023111343,0.1282927542924881,0.1602874994277954,0.9960476160049438,0.032789506018161774,0.0775265097618103,-0.02835210971534252
758.0,0.0,0.0,0.0,0.0,0.0,0.0,-0.028605090454220772,0.0749509334564209,0.11721382290124893,0.9963730573654175,0.025386331602931023,0.0764634758234024,-0.027372384443879128
759.0,0.0,0.0,0.0,0.0,0.0,0.0,-0.032730743288993835,0.0819806307554245,0.10400088876485825,0.9966337084770203,0.020989608019590378,0.07526135444641113,-0.024828383699059486
760.0,0.0,0.0,0.0,0.0,0.0,0.0,-0.013262602500617504,0.08695893734693527,0.10327934473752975,0.9967809915542603,0.019609669223427773,0.0744997039437294,-0.022204477339982986
761.0,0.0,0.0,0.0,0.0,0.0,0.0,0.04214697703719139,0.03766558691859245,0.015926586464047432,0.9969065189361572,0.020736346021294594,0.07294447720050812,-0.020647989585995674
762.0,0.0,0.0,0.0,0.0,0.0,0.0,0.016140302643179893,0.01811963878571987,0.04461923986673355,0.9970114827156067,0.021992431953549385,0.07148054987192154,-0.01935322768986225
763.0,0.0,0.0,0.0,0.0,0.0,0.0,0.04557515308260918,0.0037964938674122095,0.0005714888102374971,0.9971078038215637,0.021494658663868904,0.07078494876623154,-0.017430812120437622
764.0,0.0,0.0,0.0,0.0,0.0,0.0,0.03129236772656441,0.025472421199083328,0.02341560274362564,0.9972181916236877,0.019651753827929497,0.0703452005982399,-0.014874083921313286
765.0,0.0,0.0,0.0,0.0,0.0,0.0,0.044026706367731094,0.00895084347575903,0.013526526279747486,0.9973146319389343,0.01830127090215683,0.06985200941562653,-0.01220956351608038
766.0,0.0,0.0,0.0,0.0,0.0,0.0,0.031543586403131485,0.008076434023678303,0.030629465356469154,0.9973636269569397,0.018055269494652748,0.06973213702440262,-0.008781411685049534
767.0,0.0,0.0,0.0,0.0,0.0,0.0,0.05935356020927429,-0.03554339334368706,-0.000363927218131721,0.997363269329071,0.019241761416196823,0.0697595402598381,-0.005496711004525423
768.0,0.0,0.0,0.0,0.0,0.0,0.0,0.02876509167253971,-0.037585385143756866,0.012620209716260433,0.9973485469818115,0.01927299052476883,0.07007867842912674,-0.003605238161981106
769.0,0.0,0.0,0.0,0.0,0.0,0.0,-0.004862254019826651,0.018023304641246796,0.05868334695696831,0.9972914457321167,0.020158538594841957,0.07071806490421295,-0.0015353652415797114
770.0,0.0,0.0,0.0,0.0,0.0,0.0,0.06581412255764008,-0.018453722819685936,-0.026927974075078964,0.9972512125968933,0.0222331415861845,0.07067655026912689,0.0005182988825254142
771.0,0.0,0.0,0.0,0.0,0.0,0.0,0.06631948798894882,-0.02236604131758213,-0.020158398896455765,0.9972712397575378,0.023336922749876976,0.06998768448829651,0.0026505659334361553
772.0,0.0,0.0,0.0,0.0,0.0,0.0,-0.006948214489966631,0.022186292335391045,0.04001354053616524,0.9971963763237,0.02428371086716652,0.07060720771551132,0.004878130275756121
773.0,0.0,0.0,0.0,0.0,0.0,0.0,0.03785378113389015,-0.008166389539837837,-0.031193384900689125,0.9970775246620178,0.02540062926709652,0.0716443881392479,0.007591176778078079
774.0,0.0,0.0,0.0,0.0,0.0,0.0,0.045713767409324646,0.002379100304096937,-0.06855510175228119,0.9970845580101013,0.02615576982498169,0.07094335556030273,0.010253665037453175
775.0,0.0,0.0,0.0,0.0,0.0,0.0,0.0035658315755426884,-0.0019450192339718342,-0.026892324909567833,0.9971156716346741,0.02664811909198761,0.07015448808670044,0.011331811547279358
776.0,0.0,0.0,0.0,0.0,0.0,0.0,0.03620782122015953,-0.052799664437770844,-0.015986735001206398,0.9971445798873901,0.02758180908858776,0.06936965882778168,0.01140670944005251
777.0,0.0,0.0,0.0,0.0,0.0,0.0,0.063095323741436,-0.0508914589881897,-0.062490008771419525,0.9972443580627441,0.028071368113160133,0.06773369759321213,0.011318238452076912
